SpectraSuite Data File
++++++++++++++++++++++++++++++++++++
Date: Fri Oct 02 15:33:55 EDT 2015
User: lab3
Dark Spectrum Present: No
Reference Spectrum Present: No
Number of Sampled Component Spectra: 1
Spectrometers: USB2E7196
Integration Time (usec): 46000 (USB2E7196)
Spectra Averaged: 210 (USB2E7196)
Boxcar Smoothing: 10 (USB2E7196)
Correct for Electrical Dark: No (USB2E7196)
Strobe/Lamp Enabled: No (USB2E7196)
Correct for Detector Non-linearity: No (USB2E7196)
Correct for Stray Light: No (USB2E7196)
Number of Pixels in Processed Spectrum: 2048
>>>>>Begin Processed Spectral Data<<<<<
339.09	0.00
339.48	213.60
339.86	215.43
340.24	216.30
340.63	218.28
341.01	221.54
341.39	220.80
341.78	222.39
342.16	223.39
342.54	223.80
342.93	212.24
343.31	222.95
343.69	223.50
344.07	223.98
344.46	224.42
344.84	224.78
345.22	224.99
345.60	225.23
345.99	225.41
346.37	225.55
346.75	225.68
347.13	225.73
347.52	225.81
347.90	225.92
348.28	225.94
348.66	226.01
349.05	226.02
349.43	226.05
349.81	226.11
350.19	226.16
350.57	226.21
350.96	226.27
351.34	226.37
351.72	226.47
352.10	226.55
352.48	226.63
352.87	226.68
353.25	226.74
353.63	226.81
354.01	226.89
354.39	226.95
354.77	226.98
355.15	227.10
355.54	227.14
355.92	227.15
356.30	227.23
356.68	227.39
357.06	227.47
357.44	227.52
357.82	227.56
358.20	227.69
358.58	227.75
358.97	227.84
359.35	227.91
359.73	227.99
360.11	228.02
360.49	228.07
360.87	228.12
361.25	228.18
361.63	228.27
362.01	228.32
362.39	228.34
362.77	228.41
363.15	228.42
363.53	228.44
363.91	228.51
364.29	228.55
364.67	228.44
365.05	228.47
365.43	228.50
365.81	228.57
366.19	228.59
366.57	228.68
366.95	228.70
367.33	228.67
367.71	228.67
368.09	228.70
368.47	228.71
368.85	228.72
369.23	228.72
369.61	228.65
369.99	228.66
370.37	228.65
370.75	228.73
371.13	228.71
371.51	228.70
371.89	228.66
372.27	228.63
372.65	228.61
373.03	228.55
373.41	228.53
373.78	228.46
374.16	228.35
374.54	228.27
374.92	228.21
375.30	228.18
375.68	228.09
376.06	228.05
376.44	227.98
376.82	227.93
377.19	227.88
377.57	227.84
377.95	227.76
378.33	227.71
378.71	227.55
379.09	227.50
379.47	227.46
379.84	227.39
380.22	227.32
380.60	227.26
380.98	227.21
381.36	227.13
381.73	227.06
382.11	227.06
382.49	227.01
382.87	226.94
383.25	226.90
383.62	227.04
384.00	226.98
384.38	226.94
384.76	226.94
385.13	226.95
385.51	226.89
385.89	226.84
386.27	226.80
386.64	226.78
387.02	226.75
387.40	226.70
387.78	226.68
388.15	226.65
388.53	226.60
388.91	226.59
389.29	226.55
389.66	226.54
390.04	226.47
390.42	226.46
390.79	226.43
391.17	226.40
391.55	226.21
391.92	226.19
392.30	226.21
392.68	226.17
393.05	226.14
393.43	226.17
393.81	226.19
394.18	226.16
394.56	226.17
394.94	226.20
395.31	226.19
395.69	226.23
396.06	226.28
396.44	226.32
396.82	226.30
397.19	226.41
397.57	226.44
397.95	226.47
398.32	226.48
398.70	226.52
399.07	226.58
399.45	226.63
399.82	226.67
400.20	226.72
400.58	226.79
400.95	226.80
401.33	226.88
401.70	227.03
402.08	227.14
402.45	227.23
402.83	227.32
403.20	227.45
403.58	227.54
403.95	227.67
404.33	227.79
404.71	227.94
405.08	228.14
405.46	228.30
405.83	228.50
406.21	228.68
406.58	228.91
406.96	229.13
407.33	229.38
407.70	229.65
408.08	230.01
408.45	230.31
408.83	230.67
409.20	231.00
409.58	231.29
409.95	231.69
410.33	232.09
410.70	232.52
411.08	233.00
411.45	233.50
411.82	234.02
412.20	234.64
412.57	235.36
412.95	235.93
413.32	236.64
413.69	237.42
414.07	238.23
414.44	239.09
414.82	239.97
415.19	241.00
415.56	242.07
415.94	243.12
416.31	244.36
416.68	245.57
417.06	246.96
417.43	248.28
417.81	249.80
418.18	251.36
418.55	253.06
418.93	254.80
419.30	256.63
419.67	258.59
420.04	260.58
420.42	262.66
420.79	265.06
421.16	267.48
421.54	269.92
421.91	272.51
422.28	275.18
422.66	278.07
423.03	280.83
423.40	283.70
423.77	286.84
424.15	290.02
424.52	293.34
424.89	296.95
425.26	300.51
425.64	303.82
426.01	307.55
426.38	311.34
426.75	315.27
427.13	319.30
427.50	323.52
427.87	327.93
428.24	332.36
428.61	336.62
428.99	341.24
429.36	346.30
429.73	351.12
430.10	355.95
430.47	360.88
430.85	365.99
431.22	371.51
431.59	377.15
431.96	382.63
432.33	388.75
432.70	394.55
433.08	401.43
433.45	407.91
433.82	414.31
434.19	421.50
434.56	428.58
434.93	435.42
435.30	442.13
435.68	449.75
436.05	457.23
436.42	464.70
436.79	471.55
437.16	478.88
437.53	486.75
437.90	494.65
438.27	502.36
438.64	510.69
439.01	518.20
439.38	525.05
439.75	531.71
440.13	539.17
440.50	546.27
440.87	551.93
441.24	558.12
441.61	564.86
441.98	569.73
442.35	575.50
442.72	581.40
443.09	587.09
443.46	590.62
443.83	593.24
444.20	595.36
444.57	598.55
444.94	600.35
445.31	602.15
445.68	603.69
446.05	604.73
446.42	604.22
446.79	603.52
447.16	602.88
447.53	602.23
447.90	599.66
448.27	597.19
448.64	593.52
449.01	590.94
449.37	585.94
449.74	581.46
450.11	575.77
450.48	569.48
450.85	563.21
451.22	557.79
451.59	552.46
451.96	547.69
452.33	540.83
452.70	534.75
453.07	527.41
453.43	520.07
453.80	512.97
454.17	506.15
454.54	499.88
454.91	492.83
455.28	486.29
455.65	480.13
456.02	473.55
456.38	468.31
456.75	461.52
457.12	456.08
457.49	450.57
457.86	445.36
458.23	440.88
458.59	435.84
458.96	430.74
459.33	426.30
459.70	421.72
460.07	418.25
460.43	414.18
460.80	410.38
461.17	407.06
461.54	403.48
461.91	400.11
462.27	396.73
462.64	393.99
463.01	390.79
463.38	387.60
463.74	384.79
464.11	382.24
464.48	379.98
464.85	377.54
465.21	375.66
465.58	373.56
465.95	371.15
466.32	369.29
466.68	367.46
467.05	365.55
467.42	363.73
467.78	361.75
468.15	359.91
468.52	358.60
468.88	356.81
469.25	355.14
469.62	353.87
469.98	352.42
470.35	351.16
470.72	350.05
471.08	348.89
471.45	347.91
471.82	346.85
472.18	345.70
472.55	344.96
472.92	344.06
473.28	343.32
473.65	342.55
474.02	341.79
474.38	341.15
474.75	340.79
475.11	340.29
475.48	340.05
475.85	339.80
476.21	339.66
476.58	339.59
476.94	339.73
477.31	339.83
477.67	339.95
478.04	340.16
478.41	340.47
478.77	340.85
479.14	341.13
479.50	341.65
479.87	342.34
480.23	342.99
480.60	343.65
480.96	344.34
481.33	345.33
481.69	346.30
482.06	347.26
482.42	348.18
482.79	349.27
483.15	350.55
483.52	352.02
483.88	353.42
484.25	354.90
484.61	356.49
484.98	358.18
485.34	360.09
485.71	362.11
486.07	364.23
486.44	366.38
486.80	368.76
487.17	371.24
487.53	373.93
487.90	376.78
488.26	379.82
488.62	383.07
488.99	386.28
489.35	389.70
489.72	393.36
490.08	397.24
490.44	401.26
490.81	405.44
491.17	409.72
491.54	414.33
491.90	419.07
492.26	424.15
492.63	429.46
492.99	435.00
493.36	440.73
493.72	446.77
494.08	452.99
494.45	459.57
494.81	466.36
495.17	473.34
495.54	480.64
495.90	488.36
496.26	496.22
496.63	504.34
496.99	512.76
497.35	521.59
497.72	530.69
498.08	539.98
498.44	549.58
498.80	559.69
499.17	570.12
499.53	580.93
499.89	592.05
500.26	603.37
500.62	614.98
500.98	627.24
501.34	639.68
501.71	652.62
502.07	665.63
502.43	679.17
502.79	693.05
503.16	707.40
503.52	721.86
503.88	736.78
504.24	752.16
504.60	767.74
504.97	783.74
505.33	800.03
505.69	817.33
506.05	834.89
506.41	852.53
506.78	870.26
507.14	888.40
507.50	907.01
507.86	925.96
508.22	945.11
508.59	964.11
508.95	983.95
509.31	1004.41
509.67	1025.71
510.03	1046.98
510.39	1068.13
510.75	1089.57
511.12	1111.24
511.48	1133.08
511.84	1154.83
512.20	1176.95
512.56	1199.93
512.92	1223.01
513.28	1245.63
513.64	1268.39
514.00	1291.45
514.37	1314.98
514.73	1338.50
515.09	1361.85
515.45	1385.45
515.81	1409.36
516.17	1433.16
516.53	1456.64
516.89	1479.89
517.25	1503.33
517.61	1526.70
517.97	1550.46
518.33	1573.42
518.69	1596.45
519.05	1619.87
519.41	1643.55
519.77	1667.55
520.13	1690.76
520.49	1713.94
520.85	1737.25
521.21	1760.49
521.57	1784.01
521.93	1806.78
522.29	1830.15
522.65	1852.85
523.01	1875.52
523.37	1897.72
523.73	1920.87
524.09	1943.35
524.45	1965.87
524.81	1987.81
525.17	2009.41
525.53	2030.65
525.89	2052.58
526.25	2074.29
526.61	2094.94
526.97	2115.67
527.33	2136.08
527.68	2156.39
528.04	2176.03
528.40	2194.70
528.76	2213.20
529.12	2231.24
529.48	2249.31
529.84	2265.32
530.20	2282.09
530.56	2298.32
530.91	2314.52
531.27	2330.27
531.63	2345.35
531.99	2359.76
532.35	2373.71
532.71	2387.97
533.07	2402.50
533.42	2415.12
533.78	2428.62
534.14	2442.58
534.50	2455.63
534.86	2468.59
535.21	2479.57
535.57	2490.99
535.93	2502.20
536.29	2512.40
536.65	2522.57
537.00	2531.60
537.36	2541.90
537.72	2550.81
538.08	2558.98
538.44	2566.66
538.79	2573.98
539.15	2580.55
539.51	2586.88
539.87	2592.42
540.22	2596.02
540.58	2599.75
540.94	2604.72
541.29	2608.38
541.65	2610.15
542.01	2611.30
542.37	2611.68
542.72	2613.29
543.08	2613.27
543.44	2613.98
543.79	2613.72
544.15	2612.57
544.51	2611.93
544.87	2609.99
545.22	2607.35
545.58	2604.16
545.94	2600.80
546.29	2596.36
546.65	2591.98
547.01	2587.24
547.36	2583.24
547.72	2579.46
548.07	2574.24
548.43	2567.72
548.79	2560.23
549.14	2553.78
549.50	2547.70
549.86	2540.62
550.21	2532.68
550.57	2525.50
550.92	2516.15
551.28	2507.43
551.64	2498.94
551.99	2490.06
552.35	2480.76
552.70	2471.78
553.06	2463.32
553.41	2454.31
553.77	2444.85
554.13	2435.24
554.48	2425.23
554.84	2413.89
555.19	2402.96
555.55	2392.10
555.90	2381.14
556.26	2370.71
556.61	2359.32
556.97	2346.63
557.32	2334.53
557.68	2322.24
558.03	2309.54
558.39	2298.12
558.74	2286.85
559.10	2274.19
559.45	2261.59
559.81	2249.45
560.16	2237.00
560.52	2224.63
560.87	2212.53
561.23	2199.81
561.58	2187.10
561.94	2174.07
562.29	2160.84
562.64	2147.97
563.00	2134.91
563.35	2122.25
563.71	2109.44
564.06	2096.75
564.42	2084.47
564.77	2071.72
565.12	2058.92
565.48	2046.31
565.83	2033.52
566.19	2020.94
566.54	2008.22
566.89	1994.67
567.25	1981.24
567.60	1968.81
567.96	1955.80
568.31	1941.51
568.66	1927.67
569.02	1915.19
569.37	1902.57
569.72	1890.24
570.08	1877.13
570.43	1863.45
570.78	1849.62
571.14	1835.39
571.49	1821.59
571.84	1808.31
572.20	1794.14
572.55	1779.93
572.90	1765.76
573.26	1751.67
573.61	1737.06
573.96	1722.95
574.31	1708.96
574.67	1695.15
575.02	1680.36
575.37	1665.40
575.72	1651.45
576.08	1638.04
576.43	1623.48
576.78	1609.38
577.13	1595.65
577.49	1582.19
577.84	1569.31
578.19	1555.69
578.54	1542.01
578.90	1527.98
579.25	1513.93
579.60	1501.12
579.95	1488.47
580.30	1475.62
580.66	1462.43
581.01	1449.18
581.36	1435.89
581.71	1423.55
582.06	1411.12
582.42	1398.98
582.77	1386.96
583.12	1374.94
583.47	1362.66
583.82	1350.65
584.17	1338.24
584.53	1325.51
584.88	1313.12
585.23	1300.39
585.58	1288.41
585.93	1276.63
586.28	1265.45
586.63	1254.16
586.98	1242.65
587.34	1231.19
587.69	1219.49
588.04	1208.20
588.39	1197.30
588.74	1186.57
589.09	1175.69
589.44	1164.35
589.79	1153.49
590.14	1142.85
590.49	1132.06
590.84	1121.43
591.19	1110.99
591.54	1100.45
591.89	1090.12
592.25	1079.94
592.60	1069.52
592.95	1059.39
593.30	1049.50
593.65	1039.49
594.00	1029.52
594.35	1020.01
594.70	1010.11
595.05	1000.88
595.40	991.69
595.75	982.38
596.10	973.38
596.45	964.34
596.80	955.59
597.15	946.69
597.50	937.87
597.85	929.48
598.19	920.94
598.54	912.37
598.89	904.30
599.24	896.38
599.59	888.35
599.94	881.16
600.29	873.79
600.64	866.16
600.99	858.19
601.34	850.62
601.69	842.74
602.04	835.45
602.39	828.10
602.74	820.81
603.08	813.37
603.43	805.99
603.78	798.64
604.13	791.47
604.48	784.24
604.83	777.21
605.18	770.08
605.53	763.19
605.87	756.22
606.22	749.41
606.57	742.68
606.92	735.79
607.27	728.83
607.62	722.25
607.96	715.98
608.31	710.03
608.66	703.94
609.01	698.05
609.36	692.37
609.70	686.51
610.05	680.51
610.40	674.89
610.75	669.20
611.10	663.79
611.44	658.30
611.79	652.94
612.14	647.50
612.49	642.12
612.83	636.95
613.18	631.92
613.53	626.85
613.88	621.71
614.22	616.98
614.57	612.22
614.92	607.30
615.27	602.43
615.61	597.65
615.96	592.93
616.31	588.27
616.65	583.59
617.00	579.09
617.35	574.69
617.70	570.30
618.04	566.12
618.39	561.83
618.74	557.74
619.08	553.66
619.43	549.63
619.78	545.61
620.12	541.64
620.47	537.78
620.82	534.01
621.16	530.30
621.51	526.54
621.85	522.77
622.20	519.13
622.55	515.58
622.89	512.11
623.24	508.66
623.59	505.14
623.93	501.73
624.28	498.43
624.62	495.26
624.97	492.14
625.32	488.88
625.66	485.63
626.01	482.32
626.35	479.09
626.70	475.96
627.04	472.99
627.39	469.93
627.73	466.96
628.08	464.10
628.43	461.28
628.77	458.48
629.12	455.82
629.46	453.23
629.81	450.50
630.15	447.76
630.50	445.07
630.84	442.53
631.19	440.02
631.53	437.60
631.88	435.12
632.22	432.64
632.57	430.47
632.91	428.32
633.26	426.24
633.60	424.19
633.95	422.19
634.29	420.12
634.64	418.12
634.98	415.97
635.32	413.91
635.67	412.03
636.01	410.06
636.36	408.11
636.70	406.26
637.05	404.42
637.39	402.68
637.73	400.96
638.08	399.27
638.42	397.62
638.77	395.83
639.11	393.99
639.45	392.23
639.80	390.41
640.14	388.66
640.49	386.91
640.83	385.15
641.17	383.42
641.52	381.74
641.86	380.08
642.20	378.63
642.55	377.07
642.89	375.46
643.23	373.98
643.58	372.60
643.92	371.12
644.26	369.71
644.61	368.29
644.95	366.83
645.29	365.38
645.64	363.88
645.98	362.50
646.32	361.21
646.66	359.88
647.01	358.56
647.35	357.30
647.69	356.06
648.04	354.91
648.38	353.71
648.72	352.50
649.06	351.32
649.41	350.11
649.75	348.92
650.09	347.77
650.43	346.62
650.78	345.45
651.12	344.27
651.46	343.18
651.80	342.09
652.14	341.05
652.49	340.05
652.83	339.05
653.17	338.03
653.51	337.04
653.85	336.15
654.20	335.20
654.54	334.19
654.88	333.20
655.22	332.28
655.56	331.29
655.90	330.41
656.25	329.53
656.59	328.67
656.93	327.84
657.27	327.01
657.61	326.12
657.95	325.28
658.29	324.44
658.64	323.63
658.98	322.81
659.32	322.02
659.66	321.24
660.00	320.48
660.34	319.74
660.68	318.99
661.02	318.19
661.36	317.43
661.70	316.69
662.05	315.94
662.39	315.20
662.73	314.57
663.07	313.94
663.41	313.25
663.75	312.53
664.09	311.85
664.43	311.11
664.77	310.45
665.11	309.74
665.45	309.13
665.79	308.50
666.13	307.84
666.47	307.18
666.81	306.48
667.15	305.76
667.49	305.12
667.83	304.53
668.17	303.91
668.51	303.34
668.85	302.78
669.19	302.33
669.53	301.72
669.87	301.07
670.21	300.41
670.55	299.81
670.89	299.33
671.23	298.80
671.57	298.27
671.91	297.80
672.25	297.32
672.58	296.86
672.92	296.31
673.26	295.82
673.60	295.33
673.94	294.87
674.28	294.45
674.62	293.98
674.96	293.48
675.30	293.03
675.64	292.53
675.97	292.04
676.31	291.48
676.65	290.99
676.99	290.60
677.33	290.14
677.67	289.70
678.01	289.17
678.34	288.72
678.68	288.30
679.02	287.79
679.36	287.35
679.70	286.88
680.04	286.43
680.37	286.00
680.71	285.58
681.05	285.17
681.39	284.71
681.73	284.26
682.06	283.80
682.40	283.38
682.74	282.98
683.08	282.61
683.42	282.17
683.75	281.80
684.09	281.31
684.43	280.91
684.77	280.47
685.10	280.10
685.44	279.69
685.78	279.29
686.12	278.93
686.45	278.51
686.79	278.06
687.13	277.69
687.46	277.24
687.80	276.84
688.14	276.40
688.48	276.02
688.81	275.60
689.15	275.22
689.49	274.80
689.82	274.39
690.16	273.95
690.50	273.61
690.83	273.19
691.17	272.80
691.51	272.39
691.84	272.06
692.18	271.67
692.52	271.27
692.85	270.88
693.19	270.53
693.52	270.10
693.86	269.72
694.20	269.33
694.53	269.00
694.87	268.64
695.21	268.25
695.54	267.86
695.88	267.47
696.21	267.06
696.55	266.70
696.88	266.33
697.22	265.97
697.56	265.58
697.89	265.18
698.23	264.86
698.56	264.48
698.90	264.09
699.23	263.70
699.57	263.32
699.90	262.95
700.24	262.59
700.58	262.31
700.91	262.04
701.25	261.82
701.58	261.54
701.92	261.25
702.25	260.94
702.59	260.63
702.92	260.32
703.26	260.02
703.59	259.70
703.93	259.48
704.26	259.18
704.60	258.87
704.93	258.55
705.26	258.24
705.60	257.97
705.93	257.66
706.27	257.40
706.60	257.15
706.94	256.91
707.27	256.58
707.61	256.27
707.94	255.96
708.27	255.53
708.61	255.16
708.94	254.84
709.28	254.56
709.61	254.25
709.94	254.00
710.28	253.74
710.61	253.45
710.95	253.09
711.28	252.92
711.61	252.65
711.95	252.45
712.28	252.17
712.61	251.89
712.95	251.70
713.28	251.50
713.61	251.23
713.95	250.93
714.28	250.69
714.61	250.45
714.95	250.18
715.28	249.96
715.61	249.73
715.95	249.49
716.28	249.27
716.61	249.09
716.95	248.81
717.28	248.59
717.61	248.40
717.94	248.17
718.28	247.85
718.61	247.61
718.94	247.38
719.27	247.19
719.61	247.02
719.94	246.77
720.27	246.49
720.60	246.28
720.94	246.10
721.27	245.89
721.60	245.69
721.93	245.49
722.27	245.34
722.60	245.18
722.93	244.97
723.26	244.77
723.59	244.55
723.93	244.39
724.26	244.21
724.59	244.01
724.92	243.86
725.25	243.73
725.59	243.56
725.92	243.40
726.25	243.22
726.58	243.05
726.91	242.90
727.24	242.77
727.57	242.60
727.91	242.41
728.24	242.28
728.57	242.12
728.90	242.00
729.23	241.79
729.56	241.68
729.89	241.54
730.22	241.36
730.55	241.20
730.89	241.06
731.22	240.90
731.55	240.75
731.88	240.59
732.21	240.41
732.54	240.28
732.87	240.15
733.20	240.03
733.53	239.90
733.86	239.76
734.19	239.59
734.52	239.50
734.85	239.44
735.18	239.29
735.51	239.20
735.84	239.05
736.17	238.98
736.50	238.78
736.83	238.80
737.16	238.69
737.49	238.57
737.82	238.46
738.15	238.35
738.48	238.24
738.81	238.11
739.14	237.99
739.47	237.87
739.80	237.70
740.13	237.57
740.46	237.43
740.79	237.30
741.12	237.20
741.45	237.04
741.78	236.87
742.11	236.78
742.44	236.62
742.77	236.54
743.10	236.39
743.43	236.29
743.75	236.04
744.08	236.15
744.41	236.05
744.74	235.94
745.07	235.83
745.40	235.74
745.73	235.68
746.06	235.59
746.39	235.51
746.71	235.42
747.04	235.33
747.37	235.24
747.70	235.16
748.03	235.06
748.36	234.98
748.68	234.89
749.01	234.77
749.34	234.67
749.67	234.58
750.00	234.54
750.33	234.52
750.65	234.44
750.98	234.17
751.31	234.07
751.64	233.99
751.97	233.95
752.29	233.86
752.62	233.73
752.95	233.64
753.28	233.53
753.60	233.42
753.93	233.37
754.26	233.28
754.59	233.14
754.91	233.07
755.24	232.96
755.57	232.92
755.90	232.82
756.22	232.72
756.55	232.63
756.88	232.52
757.20	232.38
757.53	232.26
757.86	232.19
758.19	232.13
758.51	232.06
758.84	231.92
759.17	231.81
759.49	231.77
759.82	231.75
760.15	231.71
760.47	231.65
760.80	231.54
761.13	231.49
761.45	231.46
761.78	231.40
762.11	231.34
762.43	231.21
762.76	231.17
763.08	231.15
763.41	231.09
763.74	231.02
764.06	230.95
764.39	230.91
764.71	230.83
765.04	230.75
765.37	230.68
765.69	230.62
766.02	230.59
766.34	230.51
766.67	230.40
767.00	230.37
767.32	230.40
767.65	230.43
767.97	230.40
768.30	230.33
768.62	230.29
768.95	230.21
769.27	230.18
769.60	230.16
769.92	230.09
770.25	230.01
770.57	229.95
770.90	229.90
771.22	229.83
771.55	229.83
771.87	229.80
772.20	229.74
772.52	229.80
772.85	229.91
773.17	229.86
773.50	229.82
773.82	229.75
774.15	229.64
774.47	229.53
774.80	229.46
775.12	229.42
775.45	229.39
775.77	229.39
776.09	229.36
776.42	229.32
776.74	229.32
777.07	229.28
777.39	229.26
777.72	229.23
778.04	229.22
778.36	229.14
778.69	229.12
779.01	229.13
779.33	229.00
779.66	228.82
779.98	228.80
780.31	228.77
780.63	228.80
780.95	228.80
781.28	228.77
781.60	228.72
781.92	228.69
782.25	228.64
782.57	228.61
782.89	228.58
783.22	228.55
783.54	228.49
783.86	228.49
784.19	228.46
784.51	228.48
784.83	228.44
785.16	228.41
785.48	228.39
785.80	228.36
786.12	228.33
786.45	228.30
786.77	228.29
787.09	228.25
787.42	228.18
787.74	228.16
788.06	228.14
788.38	228.12
788.71	228.09
789.03	228.09
789.35	228.07
789.67	228.03
789.99	228.01
790.32	227.98
790.64	227.96
790.96	228.06
791.28	227.99
791.61	227.97
791.93	227.97
792.25	227.93
792.57	228.00
792.89	227.98
793.21	227.97
793.54	227.96
793.86	227.93
794.18	227.92
794.50	227.88
794.82	227.86
795.14	227.86
795.47	227.87
795.79	227.84
796.11	227.79
796.43	227.75
796.75	227.72
797.07	227.73
797.39	227.70
797.71	227.59
798.04	227.60
798.36	227.58
798.68	227.56
799.00	227.57
799.32	227.49
799.64	227.50
799.96	227.49
800.28	227.49
800.60	227.50
800.92	227.51
801.24	227.48
801.56	227.48
801.89	227.47
802.21	227.46
802.53	227.43
802.85	227.45
803.17	227.50
803.49	227.47
803.81	227.45
804.13	227.42
804.45	227.36
804.77	227.37
805.09	227.38
805.41	227.34
805.73	227.29
806.05	227.25
806.37	227.22
806.69	227.21
807.01	227.17
807.33	227.16
807.65	227.10
807.97	227.15
808.28	227.11
808.60	227.10
808.92	227.06
809.24	227.16
809.56	227.15
809.88	227.11
810.20	227.12
810.52	227.11
810.84	227.09
811.16	227.09
811.48	227.06
811.80	227.08
812.12	227.08
812.43	227.11
812.75	227.10
813.07	227.06
813.39	227.05
813.71	227.04
814.03	227.00
814.35	226.99
814.67	226.94
814.98	226.93
815.30	226.92
815.62	226.90
815.94	226.78
816.26	226.77
816.58	226.74
816.89	226.75
817.21	226.72
817.53	226.74
817.85	226.74
818.17	226.72
818.48	226.66
818.80	226.67
819.12	226.64
819.44	226.63
819.76	226.63
820.07	226.61
820.39	226.60
820.71	226.61
821.03	226.61
821.34	226.57
821.66	226.58
821.98	226.59
822.30	226.60
822.61	226.69
822.93	226.65
823.25	226.64
823.57	226.60
823.88	226.60
824.20	226.58
824.52	226.58
824.83	226.58
825.15	226.58
825.47	226.57
825.79	226.56
826.10	226.54
826.42	226.53
826.74	226.53
827.05	226.51
827.37	226.51
827.69	226.49
828.00	226.49
828.32	226.48
828.64	226.46
828.95	226.52
829.27	226.47
829.58	226.48
829.90	226.51
830.22	226.53
830.53	226.50
830.85	226.48
831.17	226.42
831.48	226.42
831.80	226.42
832.11	226.39
832.43	226.37
832.75	226.37
833.06	226.42
833.38	226.36
833.69	226.36
834.01	226.36
834.32	226.35
834.64	226.33
834.96	226.31
835.27	226.30
835.59	226.25
835.90	226.22
836.22	226.19
836.53	226.15
836.85	226.14
837.16	226.27
837.48	226.28
837.79	226.36
838.11	226.37
838.42	226.37
838.74	226.40
839.05	226.39
839.37	226.40
839.68	226.32
840.00	226.34
840.31	226.35
840.63	226.34
840.94	226.32
841.26	226.31
841.57	226.30
841.88	226.30
842.20	226.28
842.51	226.27
842.83	226.30
843.14	226.43
843.46	226.41
843.77	226.34
844.08	226.33
844.40	226.26
844.71	226.22
845.03	226.19
845.34	226.15
845.65	226.14
845.97	226.13
846.28	226.16
846.60	226.20
846.91	226.18
847.22	226.18
847.54	226.24
847.85	226.26
848.16	226.26
848.48	226.24
848.79	226.26
849.10	226.28
849.42	226.28
849.73	226.14
850.04	226.15
850.36	226.11
850.67	226.13
850.98	226.12
851.30	226.15
851.61	226.18
851.92	226.19
852.23	226.23
852.55	226.23
852.86	226.20
853.17	226.17
853.49	226.20
853.80	226.23
854.11	226.20
854.42	226.22
854.74	226.21
855.05	226.23
855.36	226.19
855.67	226.18
855.99	226.18
856.30	226.33
856.61	226.32
856.92	226.31
857.23	226.33
857.55	226.33
857.86	226.32
858.17	226.34
858.48	226.31
858.79	226.28
859.11	226.29
859.42	226.30
859.73	226.31
860.04	226.29
860.35	226.24
860.66	226.23
860.98	226.23
861.29	226.25
861.60	226.24
861.91	226.27
862.22	226.24
862.53	226.21
862.84	226.06
863.16	226.08
863.47	226.07
863.78	226.06
864.09	226.07
864.40	226.08
864.71	226.08
865.02	226.10
865.33	226.09
865.64	226.08
865.95	226.07
866.27	226.15
866.58	226.14
866.89	226.15
867.20	226.14
867.51	226.13
867.82	226.12
868.13	226.15
868.44	226.13
868.75	226.16
869.06	226.19
869.37	226.20
869.68	226.18
869.99	226.22
870.30	226.21
870.61	226.21
870.92	226.19
871.23	226.16
871.54	226.19
871.85	226.21
872.16	226.22
872.47	226.22
872.78	226.15
873.09	226.18
873.40	226.16
873.71	226.18
874.02	226.19
874.33	226.15
874.64	226.10
874.95	226.11
875.26	226.08
875.56	226.04
875.87	226.04
876.18	226.03
876.49	226.14
876.80	226.13
877.11	226.09
877.42	226.11
877.73	226.11
878.04	226.07
878.35	226.07
878.66	226.10
878.96	226.09
879.27	226.08
879.58	226.03
879.89	226.03
880.20	226.06
880.51	226.03
880.82	226.06
881.12	226.09
881.43	226.08
881.74	226.03
882.05	226.05
882.36	226.07
882.67	226.07
882.97	225.92
883.28	225.92
883.59	225.95
883.90	225.93
884.21	225.93
884.51	225.92
884.82	225.90
885.13	225.85
885.44	225.84
885.74	225.86
886.05	225.87
886.36	225.86
886.67	225.84
886.98	225.89
887.28	225.90
887.59	225.87
887.90	225.86
888.20	225.87
888.51	225.87
888.82	225.82
889.13	225.83
889.43	225.94
889.74	225.91
890.05	225.89
890.35	225.89
890.66	225.88
890.97	225.87
891.28	225.86
891.58	225.86
891.89	225.86
892.20	225.83
892.50	225.82
892.81	225.80
893.12	225.79
893.42	225.73
893.73	225.74
894.04	225.75
894.34	225.76
894.65	225.77
894.95	225.76
895.26	225.78
895.57	225.83
895.87	225.71
896.18	225.75
896.48	225.76
896.79	225.76
897.10	225.75
897.40	225.75
897.71	225.78
898.01	225.79
898.32	225.78
898.63	225.79
898.93	225.80
899.24	225.81
899.54	225.80
899.85	225.82
900.15	225.81
900.46	225.80
900.76	225.79
901.07	225.80
901.38	225.77
901.68	225.81
901.99	225.74
902.29	225.76
902.60	225.75
902.90	225.74
903.21	225.74
903.51	225.75
903.82	225.78
904.12	225.78
904.43	225.78
904.73	225.78
905.03	225.81
905.34	225.93
905.64	225.93
905.95	225.92
906.25	225.90
906.56	225.88
906.86	225.89
907.17	225.88
907.47	225.88
907.77	225.89
908.08	225.84
908.38	225.84
908.69	225.83
908.99	225.84
909.30	225.83
909.60	225.83
909.90	225.85
910.21	225.81
910.51	225.78
910.81	225.77
911.12	225.78
911.42	225.74
911.73	225.60
912.03	225.60
912.33	225.62
912.64	225.60
912.94	225.59
913.24	225.57
913.55	225.57
913.85	225.57
914.15	225.60
914.46	225.63
914.76	225.63
915.06	225.62
915.37	225.60
915.67	225.60
915.97	225.59
916.27	225.55
916.58	225.56
916.88	225.56
917.18	225.56
917.49	225.67
917.79	225.66
918.09	225.70
918.39	225.74
918.70	225.74
919.00	225.74
919.30	225.81
919.60	225.80
919.91	225.77
920.21	225.78
920.51	225.74
920.81	225.74
921.12	225.75
921.42	225.74
921.72	225.74
922.02	225.75
922.32	225.77
922.63	225.80
922.93	225.88
923.23	225.89
923.53	225.89
923.83	225.79
924.13	225.80
924.44	225.78
924.74	225.80
925.04	225.83
925.34	225.84
925.64	225.81
925.94	225.82
926.24	225.90
926.55	225.87
926.85	225.89
927.15	225.87
927.45	225.87
927.75	225.88
928.05	225.88
928.35	225.87
928.65	225.87
928.95	225.88
929.26	225.80
929.56	225.81
929.86	225.82
930.16	225.80
930.46	225.80
930.76	225.79
931.06	225.74
931.36	225.71
931.66	225.72
931.96	225.72
932.26	225.72
932.56	225.66
932.86	225.68
933.16	225.69
933.46	225.69
933.76	225.65
934.06	225.67
934.36	225.72
934.66	225.71
934.96	225.69
935.26	225.68
935.56	225.71
935.86	225.68
936.16	225.65
936.46	225.64
936.76	225.64
937.06	225.62
937.36	225.64
937.66	225.64
937.96	225.62
938.26	225.56
938.56	225.55
938.86	225.54
939.16	225.57
939.46	225.56
939.76	225.56
940.06	225.57
940.35	225.56
940.65	225.46
940.95	225.50
941.25	225.49
941.55	225.46
941.85	225.44
942.15	225.45
942.45	225.51
942.75	225.49
943.04	225.47
943.34	225.51
943.64	225.47
943.94	225.45
944.24	225.45
944.54	225.47
944.84	225.46
945.13	225.45
945.43	225.43
945.73	225.44
946.03	225.43
946.33	225.42
946.62	225.40
946.92	225.41
947.22	225.41
947.52	225.41
947.82	225.42
948.11	225.41
948.41	225.36
948.71	225.31
949.01	225.34
949.31	225.34
949.60	225.29
949.90	225.33
950.20	225.32
950.50	225.35
950.79	225.37
951.09	225.40
951.39	225.40
951.69	225.39
951.98	225.38
952.28	225.40
952.58	225.40
952.87	225.41
953.17	225.43
953.47	225.39
953.76	225.40
954.06	225.40
954.36	225.40
954.66	225.40
954.95	225.43
955.25	225.44
955.55	225.45
955.84	225.45
956.14	225.45
956.44	225.43
956.73	225.39
957.03	225.38
957.32	225.39
957.62	225.41
957.92	225.44
958.21	225.44
958.51	225.59
958.81	225.61
959.10	225.62
959.40	225.66
959.69	225.68
959.99	225.70
960.29	225.69
960.58	225.68
960.88	225.73
961.17	225.73
961.47	225.72
961.76	225.71
962.06	225.73
962.36	225.72
962.65	225.75
962.95	225.77
963.24	225.74
963.54	225.73
963.83	225.72
964.13	225.70
964.42	225.69
964.72	225.59
965.01	225.57
965.31	225.57
965.60	225.51
965.90	225.58
966.19	225.53
966.49	225.53
966.78	225.54
967.08	225.55
967.37	225.56
967.67	225.53
967.96	225.56
968.26	225.57
968.55	225.58
968.85	225.59
969.14	225.59
969.43	225.61
969.73	225.60
970.02	225.58
970.32	225.58
970.61	225.53
970.91	225.48
971.20	225.47
971.49	225.45
971.79	225.48
972.08	225.40
972.38	225.42
972.67	225.43
972.96	225.46
973.26	225.42
973.55	225.43
973.85	225.42
974.14	225.41
974.43	225.40
974.73	225.39
975.02	225.38
975.31	225.38
975.61	225.36
975.90	225.36
976.19	225.36
976.49	225.36
976.78	225.37
977.07	225.38
977.37	225.41
977.66	225.43
977.95	225.42
978.24	225.43
978.54	225.45
978.83	225.43
979.12	225.38
979.42	225.37
979.71	225.39
980.00	225.40
980.29	225.39
980.59	225.40
980.88	225.42
981.17	225.39
981.46	225.40
981.76	225.37
982.05	225.39
982.34	225.42
982.63	225.41
982.93	225.40
983.22	225.42
983.51	225.40
983.80	225.40
984.09	225.40
984.39	225.41
984.68	225.39
984.97	225.37
985.26	225.39
985.55	225.40
985.85	225.37
986.14	225.37
986.43	225.38
986.72	225.34
987.01	225.30
987.30	225.30
987.59	225.28
987.89	225.29
988.18	225.26
988.47	225.25
988.76	225.23
989.05	225.24
989.34	225.21
989.63	225.25
989.92	225.25
990.22	225.24
990.51	225.20
990.80	225.20
991.09	225.21
991.38	225.24
991.67	225.21
991.96	225.20
992.25	225.24
992.54	225.22
992.83	225.24
993.12	225.25
993.41	225.28
993.70	225.33
993.99	225.38
994.28	225.39
994.58	225.39
994.87	225.35
995.16	225.36
995.45	225.33
995.74	225.27
996.03	225.29
996.32	225.30
996.61	225.34
996.90	225.35
997.19	225.35
997.48	225.34
997.77	225.32
998.06	225.34
998.34	225.31
998.63	225.29
998.92	225.29
999.21	225.31
999.50	225.30
999.79	225.27
1000.08	225.24
1000.37	225.25
1000.66	225.25
1000.95	225.32
1001.24	225.29
1001.53	225.32
1001.82	225.34
1002.11	225.33
1002.40	225.35
1002.68	225.39
1002.97	225.47
1003.26	225.46
1003.55	225.44
1003.84	225.49
1004.13	225.51
1004.42	225.50
1004.71	225.52
1004.99	225.52
1005.28	225.55
1005.57	225.53
1005.86	225.51
1006.15	225.53
1006.44	225.52
1006.72	225.53
1007.01	225.52
1007.30	225.55
1007.59	225.56
1007.88	225.55
1008.17	225.55
1008.45	225.52
1008.74	225.47
1009.03	225.41
1009.32	225.41
1009.60	225.39
1009.89	225.38
1010.18	225.34
1010.47	225.34
1010.76	225.33
1011.04	225.31
1011.33	225.32
1011.62	225.34
1011.91	225.36
1012.19	225.36
1012.48	225.35
1012.77	225.36
1013.05	225.39
1013.34	225.39
1013.63	225.37
1013.92	225.39
1014.20	225.39
1014.49	225.41
1014.78	225.42
1015.06	225.40
1015.35	225.43
1015.64	225.45
1015.92	225.49
1016.21	225.49
1016.50	225.50
1016.78	225.51
1017.07	225.53
1017.36	225.51
1017.64	225.50
1017.93	225.50
1018.22	225.48
1018.50	225.50
1018.79	225.47
1019.08	225.44
1019.36	225.44
1019.65	225.44
1019.93	225.46
1020.22	225.47
1020.51	225.52
1020.79	225.51
1021.08	225.07
1021.36	225.31
1021.65	225.27
1021.94	225.29
1022.22	225.50
1022.51	225.28
1022.79	225.95
1023.08	225.64
1023.36	226.83
1023.65	225.25
>>>>>End Processed Spectral Data<<<<<
