SpectraSuite Data File
++++++++++++++++++++++++++++++++++++
Date: Sat Oct 03 02:18:12 EDT 2015
User: lab3
Dark Spectrum Present: No
Reference Spectrum Present: No
Number of Sampled Component Spectra: 1
Spectrometers: USB2E7196
Integration Time (usec): 46000 (USB2E7196)
Spectra Averaged: 12000 (USB2E7196)
Boxcar Smoothing: 10 (USB2E7196)
Correct for Electrical Dark: No (USB2E7196)
Strobe/Lamp Enabled: No (USB2E7196)
Correct for Detector Non-linearity: No (USB2E7196)
Correct for Stray Light: No (USB2E7196)
Number of Pixels in Processed Spectrum: 2048
>>>>>Begin Processed Spectral Data<<<<<
339.09	0.00
339.48	213.62
339.86	215.16
340.24	216.49
340.63	217.96
341.01	221.16
341.39	220.59
341.78	221.93
342.16	223.22
342.54	223.61
342.93	212.10
343.31	222.82
343.69	223.36
344.07	223.81
344.46	224.25
344.84	224.63
345.22	224.86
345.60	225.12
345.99	225.31
346.37	225.45
346.75	225.55
347.13	225.63
347.52	225.70
347.90	225.79
348.28	225.83
348.66	225.89
349.05	225.89
349.43	225.94
349.81	226.00
350.19	226.05
350.57	226.12
350.96	226.20
351.34	226.30
351.72	226.39
352.10	226.50
352.48	226.57
352.87	226.62
353.25	226.68
353.63	226.74
354.01	226.80
354.39	226.88
354.77	226.96
355.15	227.06
355.54	227.11
355.92	227.13
356.30	227.21
356.68	227.36
357.06	227.44
357.44	227.48
357.82	227.54
358.20	227.66
358.58	227.72
358.97	227.78
359.35	227.87
359.73	227.95
360.11	228.00
360.49	228.06
360.87	228.11
361.25	228.18
361.63	228.27
362.01	228.32
362.39	228.35
362.77	228.40
363.15	228.42
363.53	228.45
363.91	228.49
364.29	228.51
364.67	228.42
365.05	228.44
365.43	228.47
365.81	228.50
366.19	228.52
366.57	228.58
366.95	228.58
367.33	228.55
367.71	228.54
368.09	228.56
368.47	228.56
368.85	228.55
369.23	228.56
369.61	228.50
369.99	228.52
370.37	228.52
370.75	228.60
371.13	228.56
371.51	228.52
371.89	228.50
372.27	228.47
372.65	228.45
373.03	228.41
373.41	228.36
373.78	228.31
374.16	228.20
374.54	228.12
374.92	228.07
375.30	228.03
375.68	227.95
376.06	227.90
376.44	227.85
376.82	227.81
377.19	227.76
377.57	227.70
377.95	227.61
378.33	227.55
378.71	227.38
379.09	227.34
379.47	227.31
379.84	227.24
380.22	227.18
380.60	227.11
380.98	227.06
381.36	227.01
381.73	226.95
382.11	226.93
382.49	226.89
382.87	226.83
383.25	226.79
383.62	226.89
384.00	226.83
384.38	226.78
384.76	226.77
385.13	226.76
385.51	226.73
385.89	226.68
386.27	226.65
386.64	226.64
387.02	226.59
387.40	226.55
387.78	226.53
388.15	226.50
388.53	226.47
388.91	226.44
389.29	226.41
389.66	226.41
390.04	226.37
390.42	226.37
390.79	226.36
391.17	226.33
391.55	226.18
391.92	226.16
392.30	226.17
392.68	226.13
393.05	226.11
393.43	226.10
393.81	226.11
394.18	226.09
394.56	226.09
394.94	226.12
395.31	226.12
395.69	226.16
396.06	226.19
396.44	226.22
396.82	226.23
397.19	226.32
397.57	226.33
397.95	226.37
398.32	226.36
398.70	226.41
399.07	226.47
399.45	226.51
399.82	226.56
400.20	226.60
400.58	226.66
400.95	226.67
401.33	226.76
401.70	226.91
402.08	227.01
402.45	227.10
402.83	227.21
403.20	227.33
403.58	227.41
403.95	227.55
404.33	227.70
404.71	227.84
405.08	228.05
405.46	228.22
405.83	228.40
406.21	228.60
406.58	228.82
406.96	229.04
407.33	229.28
407.70	229.56
408.08	229.95
408.45	230.28
408.83	230.64
409.20	230.96
409.58	231.26
409.95	231.66
410.33	232.10
410.70	232.51
411.08	233.00
411.45	233.51
411.82	234.03
412.20	234.62
412.57	235.34
412.95	235.89
413.32	236.62
413.69	237.36
414.07	238.15
414.44	239.00
414.82	239.87
415.19	240.90
415.56	241.94
415.94	243.01
416.31	244.21
416.68	245.42
417.06	246.83
417.43	248.14
417.81	249.65
418.18	251.19
418.55	252.87
418.93	254.62
419.30	256.44
419.67	258.38
420.04	260.37
420.42	262.43
420.79	264.84
421.16	267.26
421.54	269.72
421.91	272.29
422.28	274.96
422.66	277.83
423.03	280.57
423.40	283.44
423.77	286.52
424.15	289.67
424.52	292.96
424.89	296.52
425.26	300.05
425.64	303.34
426.01	307.03
426.38	310.81
426.75	314.70
427.13	318.70
427.50	322.88
427.87	327.23
428.24	331.61
428.61	335.82
428.99	340.39
429.36	345.39
429.73	350.16
430.10	354.95
430.47	359.84
430.85	364.87
431.22	370.29
431.59	375.85
431.96	381.28
432.33	387.30
432.70	393.04
433.08	399.81
433.45	406.22
433.82	412.53
434.19	419.58
434.56	426.53
434.93	433.25
435.30	439.88
435.68	447.38
436.05	454.72
436.42	462.04
436.79	468.72
437.16	475.92
437.53	483.64
437.90	491.37
438.27	498.93
438.64	507.10
439.01	514.49
439.38	521.26
439.75	527.77
440.13	535.11
440.50	542.09
440.87	547.62
441.24	553.69
441.61	560.31
441.98	565.13
442.35	570.83
442.72	576.66
443.09	582.21
443.46	585.70
443.83	588.24
444.20	590.36
444.57	593.52
444.94	595.30
445.31	597.13
445.68	598.68
446.05	599.78
446.42	599.32
446.79	598.68
447.16	598.10
447.53	597.56
447.90	595.10
448.27	592.75
448.64	589.24
449.01	586.75
449.37	581.91
449.74	577.53
450.11	571.93
450.48	565.80
450.85	559.67
451.22	554.42
451.59	549.31
451.96	544.69
452.33	537.99
452.70	532.05
453.07	524.82
453.43	517.60
453.80	510.61
454.17	503.91
454.54	497.75
454.91	490.80
455.28	484.31
455.65	478.18
456.02	471.73
456.38	466.53
456.75	459.84
457.12	454.46
457.49	449.04
457.86	443.92
458.23	439.46
458.59	434.51
458.96	429.44
459.33	424.98
459.70	420.44
460.07	417.00
460.43	412.95
460.80	409.17
461.17	405.91
461.54	402.35
461.91	399.03
462.27	395.65
462.64	392.93
463.01	389.78
463.38	386.62
463.74	383.75
464.11	381.23
464.48	378.98
464.85	376.51
465.21	374.66
465.58	372.58
465.95	370.17
466.32	368.28
466.68	366.41
467.05	364.53
467.42	362.70
467.78	360.72
468.15	358.89
468.52	357.56
468.88	355.76
469.25	354.12
469.62	352.82
469.98	351.40
470.35	350.13
470.72	348.98
471.08	347.81
471.45	346.84
471.82	345.74
472.18	344.58
472.55	343.83
472.92	342.88
473.28	342.14
473.65	341.34
474.02	340.58
474.38	339.93
474.75	339.55
475.11	339.03
475.48	338.77
475.85	338.50
476.21	338.35
476.58	338.25
476.94	338.37
477.31	338.42
477.67	338.50
478.04	338.69
478.41	338.97
478.77	339.38
479.14	339.63
479.50	340.13
479.87	340.77
480.23	341.41
480.60	342.05
480.96	342.69
481.33	343.66
481.69	344.62
482.06	345.58
482.42	346.45
482.79	347.53
483.15	348.79
483.52	350.23
483.88	351.61
484.25	353.09
484.61	354.62
484.98	356.28
485.34	358.16
485.71	360.13
486.07	362.22
486.44	364.30
486.80	366.63
487.17	369.05
487.53	371.71
487.90	374.48
488.26	377.51
488.62	380.70
488.99	383.88
489.35	387.23
489.72	390.88
490.08	394.71
490.44	398.67
490.81	402.79
491.17	407.01
491.54	411.55
491.90	416.24
492.26	421.25
492.63	426.50
492.99	431.97
493.36	437.64
493.72	443.61
494.08	449.73
494.45	456.23
494.81	462.97
495.17	469.89
495.54	477.20
495.90	484.81
496.26	492.60
496.63	500.63
496.99	508.98
497.35	517.71
497.72	526.74
498.08	535.96
498.44	545.50
498.80	555.61
499.17	565.98
499.53	576.67
499.89	587.73
500.26	599.02
500.62	610.60
500.98	622.80
501.34	635.20
501.71	648.10
502.07	661.18
502.43	674.80
502.79	688.66
503.16	702.98
503.52	717.49
503.88	732.42
504.24	747.81
504.60	763.40
504.97	779.47
505.33	795.96
505.69	813.35
506.05	831.09
506.41	848.78
506.78	866.64
507.14	885.00
507.50	903.83
507.86	922.99
508.22	942.40
508.59	961.64
508.95	981.67
509.31	1002.43
509.67	1023.92
510.03	1045.42
510.39	1066.95
510.75	1088.67
511.12	1110.68
511.48	1132.89
511.84	1155.13
512.20	1177.76
512.56	1201.26
512.92	1224.79
513.28	1247.97
513.64	1271.39
514.00	1295.26
514.37	1319.47
514.73	1343.65
515.09	1367.71
515.45	1392.09
515.81	1416.69
516.17	1441.42
516.53	1465.71
516.89	1489.87
517.25	1514.19
517.61	1538.41
517.97	1563.12
518.33	1587.33
518.69	1611.47
519.05	1636.05
519.41	1660.92
519.77	1686.11
520.13	1710.51
520.49	1734.84
520.85	1759.48
521.21	1783.77
521.57	1808.39
521.93	1832.51
522.29	1857.19
522.65	1881.32
523.01	1905.41
523.37	1929.11
523.73	1953.52
524.09	1977.66
524.45	2001.64
524.81	2025.21
525.17	2048.63
525.53	2071.50
525.89	2094.83
526.25	2118.14
526.61	2140.45
526.97	2162.94
527.33	2185.27
527.68	2207.41
528.04	2228.79
528.40	2249.25
528.76	2269.84
529.12	2290.03
529.48	2309.98
529.84	2328.08
530.20	2346.79
530.56	2364.92
530.91	2383.17
531.27	2401.11
531.63	2418.19
531.99	2434.76
532.35	2450.74
532.71	2466.88
533.07	2483.66
533.42	2498.62
533.78	2514.56
534.14	2530.72
534.50	2545.97
534.86	2560.98
535.21	2574.08
535.57	2587.65
535.93	2600.98
536.29	2613.29
536.65	2625.36
537.00	2636.67
537.36	2648.94
537.72	2659.86
538.08	2670.24
538.44	2679.95
538.79	2689.27
539.15	2697.80
539.51	2706.02
539.87	2713.62
540.22	2719.17
540.58	2724.75
540.94	2731.48
541.29	2736.75
541.65	2740.30
542.01	2742.99
542.37	2745.02
542.72	2748.42
543.08	2750.14
543.44	2752.48
543.79	2753.69
544.15	2754.07
544.51	2754.89
544.87	2754.55
545.22	2753.52
545.58	2751.84
545.94	2750.12
546.29	2747.11
546.65	2744.06
547.01	2740.85
547.36	2738.36
547.72	2736.10
548.07	2732.10
548.43	2726.71
548.79	2720.28
549.14	2715.06
549.50	2710.23
549.86	2704.48
550.21	2697.56
550.57	2691.58
550.92	2683.32
551.28	2675.59
551.64	2668.22
551.99	2660.40
552.35	2651.96
552.70	2643.73
553.06	2635.83
553.41	2627.35
553.77	2618.61
554.13	2609.81
554.48	2600.27
554.84	2589.41
555.19	2578.96
555.55	2568.57
555.90	2558.24
556.26	2548.45
556.61	2537.63
556.97	2525.15
557.32	2513.19
557.68	2501.18
558.03	2488.86
558.39	2477.74
558.74	2466.96
559.10	2454.43
559.45	2442.08
559.81	2430.35
560.16	2418.01
560.52	2405.90
560.87	2394.13
561.23	2381.57
561.58	2369.05
561.94	2356.22
562.29	2342.86
562.64	2330.22
563.00	2317.26
563.35	2304.68
563.71	2291.95
564.06	2279.12
564.42	2266.99
564.77	2254.24
565.12	2241.38
565.48	2228.53
565.83	2215.58
566.19	2202.79
566.54	2190.01
566.89	2176.05
567.25	2162.22
567.60	2149.76
567.96	2136.38
568.31	2121.67
568.66	2107.60
569.02	2094.78
569.37	2081.88
569.72	2069.47
570.08	2055.79
570.43	2041.79
570.78	2027.65
571.14	2012.79
571.49	1998.50
571.84	1984.76
572.20	1969.86
572.55	1955.15
572.90	1940.42
573.26	1925.71
573.61	1910.48
573.96	1895.68
574.31	1881.10
574.67	1866.63
575.02	1851.07
575.37	1835.61
575.72	1820.96
576.08	1806.70
576.43	1791.27
576.78	1776.24
577.13	1761.48
577.49	1747.06
577.84	1733.26
578.19	1718.52
578.54	1703.94
578.90	1688.89
579.25	1673.74
579.60	1660.14
579.95	1646.49
580.30	1632.64
580.66	1618.54
581.01	1604.29
581.36	1589.99
581.71	1576.73
582.06	1563.40
582.42	1550.28
582.77	1537.24
583.12	1524.15
583.47	1510.90
583.82	1497.78
584.17	1484.32
584.53	1470.55
584.88	1457.16
585.23	1443.30
585.58	1430.25
585.93	1417.41
586.28	1405.34
586.63	1393.25
586.98	1380.72
587.34	1368.23
587.69	1355.39
588.04	1342.90
588.39	1330.81
588.74	1318.90
589.09	1306.75
589.44	1294.15
589.79	1282.19
590.14	1270.35
590.49	1258.43
590.84	1246.71
591.19	1235.35
591.54	1223.79
591.89	1212.37
592.25	1201.13
592.60	1189.54
592.95	1178.36
593.30	1167.40
593.65	1156.11
594.00	1144.97
594.35	1134.34
594.70	1123.28
595.05	1113.14
595.40	1102.91
595.75	1092.54
596.10	1082.68
596.45	1072.56
596.80	1062.79
597.15	1052.72
597.50	1042.81
597.85	1033.36
598.19	1023.69
598.54	1014.05
598.89	1004.91
599.24	996.07
599.59	987.02
599.94	978.92
600.29	970.61
600.64	962.05
600.99	953.11
601.34	944.51
601.69	935.60
602.04	927.37
602.39	918.95
602.74	910.60
603.08	902.20
603.43	893.74
603.78	885.46
604.13	877.34
604.48	869.26
604.83	861.34
605.18	853.30
605.53	845.45
605.87	837.43
606.22	829.69
606.57	821.91
606.92	814.06
607.27	806.12
607.62	798.47
607.96	791.24
608.31	784.47
608.66	777.48
609.01	770.78
609.36	764.16
609.70	757.35
610.05	750.49
610.40	743.91
610.75	737.33
611.10	731.10
611.44	724.67
611.79	718.36
612.14	711.99
612.49	705.70
612.83	699.70
613.18	693.83
613.53	687.87
613.88	681.93
614.22	676.39
614.57	670.81
614.92	665.08
615.27	659.45
615.61	653.87
615.96	648.36
616.31	642.86
616.65	637.41
617.00	632.18
617.35	627.07
617.70	621.98
618.04	616.96
618.39	611.86
618.74	607.02
619.08	602.21
619.43	597.53
619.78	592.86
620.12	588.13
620.47	583.57
620.82	579.14
621.16	574.74
621.51	570.22
621.85	565.74
622.20	561.42
622.55	557.13
622.89	552.93
623.24	548.72
623.59	544.55
623.93	540.55
624.28	536.63
624.62	532.80
624.97	529.02
625.32	525.20
625.66	521.34
626.01	517.44
626.35	513.62
626.70	509.85
627.04	506.27
627.39	502.62
627.73	499.14
628.08	495.73
628.43	492.32
628.77	489.00
629.12	485.79
629.46	482.61
629.81	479.34
630.15	476.05
630.50	472.88
630.84	469.76
631.19	466.70
631.53	463.75
631.88	460.76
632.22	457.80
632.57	455.12
632.91	452.48
633.26	449.93
633.60	447.39
633.95	444.91
634.29	442.33
634.64	439.84
634.98	437.16
635.32	434.62
635.67	432.28
636.01	429.87
636.36	427.49
636.70	425.25
637.05	423.02
637.39	420.83
637.73	418.66
638.08	416.62
638.42	414.53
638.77	412.31
639.11	410.02
639.45	407.84
639.80	405.58
640.14	403.44
640.49	401.29
640.83	399.11
641.17	397.02
641.52	394.98
641.86	392.96
642.20	391.15
642.55	389.19
642.89	387.24
643.23	385.39
643.58	383.70
643.92	381.89
644.26	380.14
644.61	378.45
644.95	376.72
645.29	374.90
645.64	373.12
645.98	371.43
646.32	369.87
646.66	368.29
647.01	366.72
647.35	365.19
647.69	363.64
648.04	362.24
648.38	360.76
648.72	359.30
649.06	357.84
649.41	356.39
649.75	355.00
650.09	353.63
650.43	352.25
650.78	350.82
651.12	349.44
651.46	348.10
651.80	346.80
652.14	345.52
652.49	344.30
652.83	343.05
653.17	341.84
653.51	340.65
653.85	339.54
654.20	338.38
654.54	337.15
654.88	336.01
655.22	334.88
655.56	333.74
655.90	332.67
656.25	331.64
656.59	330.59
656.93	329.59
657.27	328.60
657.61	327.57
657.95	326.58
658.29	325.57
658.64	324.63
658.98	323.67
659.32	322.74
659.66	321.86
660.00	321.00
660.34	320.14
660.68	319.25
661.02	318.33
661.36	317.44
661.70	316.59
662.05	315.76
662.39	314.94
662.73	314.20
663.07	313.47
663.41	312.69
663.75	311.90
664.09	311.13
664.43	310.31
664.77	309.59
665.11	308.82
665.45	308.11
665.79	307.42
666.13	306.69
666.47	305.94
666.81	305.17
667.15	304.39
667.49	303.71
667.83	303.08
668.17	302.43
668.51	301.82
668.85	301.25
669.19	300.70
669.53	300.06
669.87	299.40
670.21	298.76
670.55	298.16
670.89	297.65
671.23	297.08
671.57	296.53
671.91	296.02
672.25	295.54
672.58	295.05
672.92	294.49
673.26	294.01
673.60	293.53
673.94	293.07
674.28	292.64
674.62	292.17
674.96	291.64
675.30	291.18
675.64	290.69
675.97	290.17
676.31	289.63
676.65	289.15
676.99	288.74
677.33	288.24
677.67	287.79
678.01	287.26
678.34	286.81
678.68	286.39
679.02	285.91
679.36	285.44
679.70	284.96
680.04	284.53
680.37	284.09
680.71	283.67
681.05	283.27
681.39	282.82
681.73	282.35
682.06	281.90
682.40	281.47
682.74	281.10
683.08	280.77
683.42	280.37
683.75	280.01
684.09	279.57
684.43	279.19
684.77	278.80
685.10	278.46
685.44	278.10
685.78	277.72
686.12	277.38
686.45	277.01
686.79	276.61
687.13	276.26
687.46	275.86
687.80	275.50
688.14	275.08
688.48	274.73
688.81	274.38
689.15	274.05
689.49	273.68
689.82	273.30
690.16	272.87
690.50	272.51
690.83	272.14
691.17	271.78
691.51	271.42
691.84	271.09
692.18	270.71
692.52	270.32
692.85	269.96
693.19	269.63
693.52	269.28
693.86	268.94
694.20	268.59
694.53	268.27
694.87	267.91
695.21	267.57
695.54	267.22
695.88	266.87
696.21	266.49
696.55	266.16
696.88	265.82
697.22	265.49
697.56	265.15
697.89	264.78
698.23	264.45
698.56	264.10
698.90	263.77
699.23	263.42
699.57	263.08
699.90	262.74
700.24	262.39
700.58	262.09
700.91	261.81
701.25	261.60
701.58	261.35
701.92	261.08
702.25	260.79
702.59	260.48
702.92	260.18
703.26	259.88
703.59	259.57
703.93	259.37
704.26	259.08
704.60	258.78
704.93	258.48
705.26	258.18
705.60	257.93
705.93	257.61
706.27	257.37
706.60	257.12
706.94	256.89
707.27	256.57
707.61	256.28
707.94	255.97
708.27	255.56
708.61	255.22
708.94	254.91
709.28	254.64
709.61	254.36
709.94	254.11
710.28	253.86
710.61	253.64
710.95	253.28
711.28	253.10
711.61	252.85
711.95	252.64
712.28	252.38
712.61	252.11
712.95	251.94
713.28	251.76
713.61	251.49
713.95	251.20
714.28	250.98
714.61	250.73
714.95	250.50
715.28	250.27
715.61	250.06
715.95	249.85
716.28	249.63
716.61	249.45
716.95	249.21
717.28	248.99
717.61	248.76
717.94	248.54
718.28	248.24
718.61	248.01
718.94	247.77
719.27	247.57
719.61	247.39
719.94	247.14
720.27	246.86
720.60	246.66
720.94	246.46
721.27	246.27
721.60	246.10
721.93	245.90
722.27	245.75
722.60	245.57
722.93	245.36
723.26	245.17
723.59	244.94
723.93	244.77
724.26	244.59
724.59	244.40
724.92	244.23
725.25	244.10
725.59	243.94
725.92	243.80
726.25	243.63
726.58	243.46
726.91	243.28
727.24	243.14
727.57	242.97
727.91	242.79
728.24	242.65
728.57	242.48
728.90	242.34
729.23	242.13
729.56	242.03
729.89	241.87
730.22	241.70
730.55	241.55
730.89	241.40
731.22	241.24
731.55	241.09
731.88	240.93
732.21	240.75
732.54	240.60
732.87	240.45
733.20	240.31
733.53	240.17
733.86	240.04
734.19	239.88
734.52	239.76
734.85	239.72
735.18	239.55
735.51	239.45
735.84	239.32
736.17	239.23
736.50	239.03
736.83	239.06
737.16	238.94
737.49	238.82
737.82	238.69
738.15	238.59
738.48	238.48
738.81	238.35
739.14	238.22
739.47	238.09
739.80	237.96
740.13	237.85
740.46	237.71
740.79	237.57
741.12	237.46
741.45	237.32
741.78	237.12
742.11	237.04
742.44	236.90
742.77	236.79
743.10	236.66
743.43	236.54
743.75	236.30
744.08	236.38
744.41	236.26
744.74	236.15
745.07	236.02
745.40	235.93
745.73	235.88
746.06	235.78
746.39	235.70
746.71	235.60
747.04	235.49
747.37	235.39
747.70	235.32
748.03	235.23
748.36	235.16
748.68	235.07
749.01	234.93
749.34	234.84
749.67	234.76
750.00	234.68
750.33	234.69
750.65	234.61
750.98	234.33
751.31	234.24
751.64	234.16
751.97	234.15
752.29	234.05
752.62	233.91
752.95	233.81
753.28	233.71
753.60	233.62
753.93	233.56
754.26	233.49
754.59	233.36
754.91	233.26
755.24	233.16
755.57	233.15
755.90	233.06
756.22	232.97
756.55	232.87
756.88	232.76
757.20	232.59
757.53	232.48
757.86	232.39
758.19	232.32
758.51	232.24
758.84	232.10
759.17	232.01
759.49	231.95
759.82	231.94
760.15	231.88
760.47	231.81
760.80	231.71
761.13	231.66
761.45	231.60
761.78	231.54
762.11	231.48
762.43	231.34
762.76	231.28
763.08	231.24
763.41	231.19
763.74	231.14
764.06	231.08
764.39	231.03
764.71	230.98
765.04	230.91
765.37	230.84
765.69	230.79
766.02	230.74
766.34	230.68
766.67	230.58
767.00	230.55
767.32	230.57
767.65	230.60
767.97	230.53
768.30	230.49
768.62	230.43
768.95	230.37
769.27	230.32
769.60	230.29
769.92	230.22
770.25	230.15
770.57	230.08
770.90	230.03
771.22	229.98
771.55	229.93
771.87	229.89
772.20	229.85
772.52	229.91
772.85	230.02
773.17	229.99
773.50	229.93
773.82	229.87
774.15	229.76
774.47	229.64
774.80	229.59
775.12	229.55
775.45	229.50
775.77	229.48
776.09	229.45
776.42	229.42
776.74	229.43
777.07	229.39
777.39	229.36
777.72	229.32
778.04	229.30
778.36	229.26
778.69	229.23
779.01	229.21
779.33	229.07
779.66	228.89
779.98	228.85
780.31	228.83
780.63	228.85
780.95	228.85
781.28	228.82
781.60	228.78
781.92	228.76
782.25	228.73
782.57	228.70
782.89	228.66
783.22	228.63
783.54	228.57
783.86	228.56
784.19	228.53
784.51	228.54
784.83	228.51
785.16	228.48
785.48	228.46
785.80	228.43
786.12	228.41
786.45	228.39
786.77	228.37
787.09	228.34
787.42	228.27
787.74	228.25
788.06	228.23
788.38	228.21
788.71	228.18
789.03	228.16
789.35	228.16
789.67	228.12
789.99	228.11
790.32	228.07
790.64	228.06
790.96	228.16
791.28	228.09
791.61	228.07
791.93	228.06
792.25	228.03
792.57	228.10
792.89	228.06
793.21	228.05
793.54	228.02
793.86	227.99
794.18	227.98
794.50	227.93
794.82	227.91
795.14	227.91
795.47	227.91
795.79	227.90
796.11	227.85
796.43	227.83
796.75	227.81
797.07	227.80
797.39	227.77
797.71	227.65
798.04	227.65
798.36	227.64
798.68	227.61
799.00	227.61
799.32	227.53
799.64	227.54
799.96	227.52
800.28	227.53
800.60	227.51
800.92	227.50
801.24	227.48
801.56	227.48
801.89	227.45
802.21	227.44
802.53	227.40
802.85	227.42
803.17	227.47
803.49	227.43
803.81	227.40
804.13	227.38
804.45	227.35
804.77	227.35
805.09	227.34
805.41	227.31
805.73	227.28
806.05	227.23
806.37	227.20
806.69	227.18
807.01	227.15
807.33	227.15
807.65	227.10
807.97	227.14
808.28	227.11
808.60	227.10
808.92	227.07
809.24	227.14
809.56	227.10
809.88	227.04
810.20	227.04
810.52	227.05
810.84	227.02
811.16	227.00
811.48	226.98
811.80	227.01
812.12	227.00
812.43	227.01
812.75	227.01
813.07	226.99
813.39	226.98
813.71	226.96
814.03	226.93
814.35	226.93
814.67	226.87
814.98	226.85
815.30	226.84
815.62	226.81
815.94	226.71
816.26	226.72
816.58	226.69
816.89	226.69
817.21	226.65
817.53	226.65
817.85	226.65
818.17	226.64
818.48	226.58
818.80	226.60
819.12	226.56
819.44	226.54
819.76	226.52
820.07	226.51
820.39	226.50
820.71	226.51
821.03	226.51
821.34	226.49
821.66	226.50
821.98	226.51
822.30	226.50
822.61	226.57
822.93	226.54
823.25	226.54
823.57	226.51
823.88	226.52
824.20	226.51
824.52	226.53
824.83	226.52
825.15	226.50
825.47	226.48
825.79	226.49
826.10	226.48
826.42	226.47
826.74	226.47
827.05	226.46
827.37	226.45
827.69	226.44
828.00	226.44
828.32	226.43
828.64	226.40
828.95	226.47
829.27	226.42
829.58	226.42
829.90	226.44
830.22	226.45
830.53	226.42
830.85	226.40
831.17	226.36
831.48	226.36
831.80	226.35
832.11	226.34
832.43	226.32
832.75	226.32
833.06	226.39
833.38	226.35
833.69	226.34
834.01	226.34
834.32	226.33
834.64	226.32
834.96	226.32
835.27	226.31
835.59	226.26
835.90	226.24
836.22	226.23
836.53	226.20
836.85	226.19
837.16	226.31
837.48	226.31
837.79	226.35
838.11	226.35
838.42	226.35
838.74	226.36
839.05	226.35
839.37	226.35
839.68	226.26
840.00	226.26
840.31	226.27
840.63	226.25
840.94	226.24
841.26	226.22
841.57	226.21
841.88	226.22
842.20	226.20
842.51	226.17
842.83	226.17
843.14	226.28
843.46	226.27
843.77	226.20
844.08	226.19
844.40	226.14
844.71	226.13
845.03	226.11
845.34	226.10
845.65	226.09
845.97	226.09
846.28	226.10
846.60	226.10
846.91	226.08
847.22	226.07
847.54	226.10
847.85	226.11
848.16	226.09
848.48	226.06
848.79	226.11
849.10	226.13
849.42	226.13
849.73	226.00
850.04	226.01
850.36	225.96
850.67	225.98
850.98	225.98
851.30	225.99
851.61	225.98
851.92	225.98
852.23	226.02
852.55	226.02
852.86	226.02
853.17	226.03
853.49	226.05
853.80	226.08
854.11	226.08
854.42	226.09
854.74	226.08
855.05	226.09
855.36	226.02
855.67	226.02
855.99	226.02
856.30	226.16
856.61	226.16
856.92	226.16
857.23	226.16
857.55	226.14
857.86	226.13
858.17	226.14
858.48	226.12
858.79	226.09
859.11	226.10
859.42	226.09
859.73	226.07
860.04	226.06
860.35	226.02
860.66	225.98
860.98	225.97
861.29	225.99
861.60	225.98
861.91	226.01
862.22	225.98
862.53	225.96
862.84	225.81
863.16	225.84
863.47	225.81
863.78	225.80
864.09	225.81
864.40	225.82
864.71	225.81
865.02	225.83
865.33	225.81
865.64	225.79
865.95	225.79
866.27	225.86
866.58	225.85
866.89	225.86
867.20	225.86
867.51	225.84
867.82	225.83
868.13	225.87
868.44	225.84
868.75	225.87
869.06	225.87
869.37	225.89
869.68	225.85
869.99	225.88
870.30	225.88
870.61	225.89
870.92	225.88
871.23	225.86
871.54	225.88
871.85	225.91
872.16	225.92
872.47	225.91
872.78	225.84
873.09	225.85
873.40	225.84
873.71	225.85
874.02	225.86
874.33	225.85
874.64	225.82
874.95	225.84
875.26	225.81
875.56	225.81
875.87	225.80
876.18	225.80
876.49	225.92
876.80	225.90
877.11	225.87
877.42	225.88
877.73	225.89
878.04	225.86
878.35	225.86
878.66	225.86
878.96	225.86
879.27	225.85
879.58	225.85
879.89	225.84
880.20	225.87
880.51	225.86
880.82	225.86
881.12	225.86
881.43	225.83
881.74	225.82
882.05	225.81
882.36	225.82
882.67	225.83
882.97	225.69
883.28	225.68
883.59	225.68
883.90	225.69
884.21	225.70
884.51	225.70
884.82	225.68
885.13	225.67
885.44	225.67
885.74	225.68
886.05	225.67
886.36	225.67
886.67	225.62
886.98	225.68
887.28	225.70
887.59	225.69
887.90	225.70
888.20	225.69
888.51	225.72
888.82	225.70
889.13	225.70
889.43	225.81
889.74	225.81
890.05	225.81
890.35	225.79
890.66	225.77
890.97	225.76
891.28	225.75
891.58	225.75
891.89	225.75
892.20	225.73
892.50	225.72
892.81	225.71
893.12	225.71
893.42	225.65
893.73	225.65
894.04	225.64
894.34	225.65
894.65	225.65
894.95	225.64
895.26	225.64
895.57	225.69
895.87	225.56
896.18	225.59
896.48	225.59
896.79	225.59
897.10	225.61
897.40	225.61
897.71	225.63
898.01	225.62
898.32	225.63
898.63	225.63
898.93	225.64
899.24	225.64
899.54	225.63
899.85	225.63
900.15	225.62
900.46	225.62
900.76	225.63
901.07	225.63
901.38	225.63
901.68	225.64
901.99	225.58
902.29	225.59
902.60	225.57
902.90	225.56
903.21	225.56
903.51	225.55
903.82	225.57
904.12	225.57
904.43	225.58
904.73	225.57
905.03	225.58
905.34	225.70
905.64	225.69
905.95	225.69
906.25	225.69
906.56	225.69
906.86	225.69
907.17	225.67
907.47	225.68
907.77	225.66
908.08	225.64
908.38	225.65
908.69	225.66
908.99	225.68
909.30	225.69
909.60	225.68
909.90	225.70
910.21	225.66
910.51	225.64
910.81	225.64
911.12	225.64
911.42	225.65
911.73	225.51
912.03	225.52
912.33	225.55
912.64	225.54
912.94	225.52
913.24	225.51
913.55	225.50
913.85	225.49
914.15	225.51
914.46	225.53
914.76	225.52
915.06	225.51
915.37	225.48
915.67	225.47
915.97	225.47
916.27	225.44
916.58	225.45
916.88	225.45
917.18	225.44
917.49	225.52
917.79	225.51
918.09	225.53
918.39	225.56
918.70	225.54
919.00	225.55
919.30	225.61
919.60	225.61
919.91	225.60
920.21	225.61
920.51	225.58
920.81	225.57
921.12	225.59
921.42	225.58
921.72	225.59
922.02	225.60
922.32	225.62
922.63	225.62
922.93	225.70
923.23	225.70
923.53	225.69
923.83	225.61
924.13	225.62
924.44	225.62
924.74	225.63
925.04	225.66
925.34	225.66
925.64	225.60
925.94	225.61
926.24	225.68
926.55	225.67
926.85	225.68
927.15	225.68
927.45	225.68
927.75	225.68
928.05	225.68
928.35	225.67
928.65	225.69
928.95	225.69
929.26	225.63
929.56	225.66
929.86	225.67
930.16	225.66
930.46	225.65
930.76	225.65
931.06	225.60
931.36	225.56
931.66	225.58
931.96	225.59
932.26	225.60
932.56	225.54
932.86	225.55
933.16	225.55
933.46	225.54
933.76	225.52
934.06	225.54
934.36	225.59
934.66	225.58
934.96	225.56
935.26	225.57
935.56	225.59
935.86	225.55
936.16	225.53
936.46	225.52
936.76	225.52
937.06	225.50
937.36	225.51
937.66	225.51
937.96	225.51
938.26	225.48
938.56	225.47
938.86	225.48
939.16	225.51
939.46	225.52
939.76	225.52
940.06	225.52
940.35	225.50
940.65	225.44
940.95	225.45
941.25	225.42
941.55	225.40
941.85	225.39
942.15	225.42
942.45	225.46
942.75	225.46
943.04	225.46
943.34	225.49
943.64	225.47
943.94	225.46
944.24	225.46
944.54	225.47
944.84	225.46
945.13	225.45
945.43	225.42
945.73	225.41
946.03	225.40
946.33	225.39
946.62	225.38
946.92	225.38
947.22	225.39
947.52	225.40
947.82	225.42
948.11	225.40
948.41	225.37
948.71	225.34
949.01	225.35
949.31	225.34
949.60	225.32
949.90	225.34
950.20	225.34
950.50	225.34
950.79	225.33
951.09	225.34
951.39	225.34
951.69	225.33
951.98	225.35
952.28	225.36
952.58	225.36
952.87	225.36
953.17	225.38
953.47	225.36
953.76	225.36
954.06	225.33
954.36	225.32
954.66	225.32
954.95	225.35
955.25	225.36
955.55	225.37
955.84	225.35
956.14	225.35
956.44	225.36
956.73	225.34
957.03	225.35
957.32	225.35
957.62	225.35
957.92	225.37
958.21	225.35
958.51	225.50
958.81	225.51
959.10	225.52
959.40	225.55
959.69	225.56
959.99	225.58
960.29	225.58
960.58	225.58
960.88	225.62
961.17	225.61
961.47	225.62
961.76	225.61
962.06	225.63
962.36	225.61
962.65	225.62
962.95	225.63
963.24	225.62
963.54	225.62
963.83	225.63
964.13	225.62
964.42	225.60
964.72	225.50
965.01	225.50
965.31	225.48
965.60	225.45
965.90	225.53
966.19	225.50
966.49	225.51
966.78	225.51
967.08	225.49
967.37	225.49
967.67	225.47
967.96	225.49
968.26	225.48
968.55	225.50
968.85	225.50
969.14	225.49
969.43	225.50
969.73	225.48
970.02	225.48
970.32	225.47
970.61	225.45
970.91	225.41
971.20	225.39
971.49	225.39
971.79	225.40
972.08	225.31
972.38	225.32
972.67	225.32
972.96	225.33
973.26	225.31
973.55	225.35
973.85	225.34
974.14	225.33
974.43	225.34
974.73	225.32
975.02	225.31
975.31	225.31
975.61	225.31
975.90	225.30
976.19	225.29
976.49	225.30
976.78	225.31
977.07	225.31
977.37	225.32
977.66	225.34
977.95	225.32
978.24	225.33
978.54	225.35
978.83	225.34
979.12	225.33
979.42	225.33
979.71	225.31
980.00	225.30
980.29	225.31
980.59	225.29
980.88	225.32
981.17	225.32
981.46	225.31
981.76	225.31
982.05	225.35
982.34	225.36
982.63	225.37
982.93	225.37
983.22	225.40
983.51	225.40
983.80	225.42
984.09	225.44
984.39	225.42
984.68	225.40
984.97	225.41
985.26	225.41
985.55	225.42
985.85	225.39
986.14	225.41
986.43	225.42
986.72	225.41
987.01	225.37
987.30	225.38
987.59	225.37
987.89	225.38
988.18	225.34
988.47	225.33
988.76	225.31
989.05	225.30
989.34	225.28
989.63	225.31
989.92	225.29
990.22	225.28
990.51	225.28
990.80	225.27
991.09	225.28
991.38	225.29
991.67	225.28
991.96	225.27
992.25	225.28
992.54	225.25
992.83	225.25
993.12	225.25
993.41	225.27
993.70	225.32
993.99	225.34
994.28	225.36
994.58	225.38
994.87	225.37
995.16	225.37
995.45	225.36
995.74	225.32
996.03	225.34
996.32	225.36
996.61	225.39
996.90	225.38
997.19	225.38
997.48	225.38
997.77	225.37
998.06	225.37
998.34	225.36
998.63	225.36
998.92	225.37
999.21	225.39
999.50	225.38
999.79	225.34
1000.08	225.34
1000.37	225.34
1000.66	225.32
1000.95	225.35
1001.24	225.36
1001.53	225.37
1001.82	225.37
1002.11	225.34
1002.40	225.34
1002.68	225.37
1002.97	225.46
1003.26	225.44
1003.55	225.43
1003.84	225.44
1004.13	225.48
1004.42	225.48
1004.71	225.48
1004.99	225.47
1005.28	225.49
1005.57	225.49
1005.86	225.47
1006.15	225.46
1006.44	225.44
1006.72	225.46
1007.01	225.43
1007.30	225.43
1007.59	225.41
1007.88	225.41
1008.17	225.43
1008.45	225.39
1008.74	225.34
1009.03	225.28
1009.32	225.29
1009.60	225.29
1009.89	225.28
1010.18	225.22
1010.47	225.22
1010.76	225.22
1011.04	225.22
1011.33	225.21
1011.62	225.22
1011.91	225.24
1012.19	225.24
1012.48	225.25
1012.77	225.24
1013.05	225.28
1013.34	225.28
1013.63	225.28
1013.92	225.29
1014.20	225.28
1014.49	225.29
1014.78	225.30
1015.06	225.26
1015.35	225.26
1015.64	225.27
1015.92	225.29
1016.21	225.30
1016.50	225.31
1016.78	225.32
1017.07	225.33
1017.36	225.31
1017.64	225.29
1017.93	225.30
1018.22	225.29
1018.50	225.28
1018.79	225.28
1019.08	225.24
1019.36	225.25
1019.65	225.24
1019.93	225.27
1020.22	225.29
1020.51	225.35
1020.79	225.34
1021.08	225.09
1021.36	225.05
1021.65	225.32
1021.94	225.19
1022.22	225.40
1022.51	225.02
1022.79	225.90
1023.08	225.46
1023.36	226.76
1023.65	225.01
>>>>>End Processed Spectral Data<<<<<
