SpectraSuite Data File
++++++++++++++++++++++++++++++++++++
Date: Sun Oct 04 08:55:16 EDT 2015
User: lab3
Dark Spectrum Present: No
Reference Spectrum Present: No
Number of Sampled Component Spectra: 1
Spectrometers: USB2E7196
Integration Time (usec): 46000 (USB2E7196)
Spectra Averaged: 24000 (USB2E7196)
Boxcar Smoothing: 10 (USB2E7196)
Correct for Electrical Dark: No (USB2E7196)
Strobe/Lamp Enabled: No (USB2E7196)
Correct for Detector Non-linearity: No (USB2E7196)
Correct for Stray Light: No (USB2E7196)
Number of Pixels in Processed Spectrum: 2048
>>>>>Begin Processed Spectral Data<<<<<
339.09	0.00
339.48	212.94
339.86	214.49
340.24	215.85
340.63	217.26
341.01	220.52
341.39	219.98
341.78	221.35
342.16	222.54
342.54	222.99
342.93	211.48
343.31	222.17
343.69	222.71
344.07	223.17
344.46	223.60
344.84	223.99
345.22	224.22
345.60	224.48
345.99	224.68
346.37	224.82
346.75	224.93
347.13	225.01
347.52	225.08
347.90	225.17
348.28	225.21
348.66	225.27
349.05	225.27
349.43	225.33
349.81	225.39
350.19	225.45
350.57	225.52
350.96	225.61
351.34	225.71
351.72	225.80
352.10	225.91
352.48	225.98
352.87	226.04
353.25	226.10
353.63	226.16
354.01	226.22
354.39	226.30
354.77	226.38
355.15	226.49
355.54	226.54
355.92	226.56
356.30	226.64
356.68	226.79
357.06	226.87
357.44	226.91
357.82	226.97
358.20	227.09
358.58	227.15
358.97	227.22
359.35	227.30
359.73	227.38
360.11	227.43
360.49	227.49
360.87	227.55
361.25	227.61
361.63	227.70
362.01	227.75
362.39	227.78
362.77	227.83
363.15	227.85
363.53	227.89
363.91	227.92
364.29	227.95
364.67	227.84
365.05	227.87
365.43	227.90
365.81	227.94
366.19	227.96
366.57	228.02
366.95	228.02
367.33	227.99
367.71	227.98
368.09	228.00
368.47	228.00
368.85	227.99
369.23	228.00
369.61	227.93
369.99	227.95
370.37	227.96
370.75	228.03
371.13	228.00
371.51	227.95
371.89	227.93
372.27	227.91
372.65	227.89
373.03	227.85
373.41	227.80
373.78	227.76
374.16	227.65
374.54	227.57
374.92	227.52
375.30	227.47
375.68	227.40
376.06	227.36
376.44	227.31
376.82	227.26
377.19	227.21
377.57	227.16
377.95	227.07
378.33	227.01
378.71	226.85
379.09	226.80
379.47	226.77
379.84	226.71
380.22	226.64
380.60	226.57
380.98	226.53
381.36	226.47
381.73	226.41
382.11	226.39
382.49	226.35
382.87	226.29
383.25	226.25
383.62	226.36
384.00	226.29
384.38	226.25
384.76	226.24
385.13	226.24
385.51	226.20
385.89	226.15
386.27	226.12
386.64	226.10
387.02	226.06
387.40	226.01
387.78	225.99
388.15	225.97
388.53	225.94
388.91	225.92
389.29	225.88
389.66	225.88
390.04	225.84
390.42	225.84
390.79	225.83
391.17	225.81
391.55	225.65
391.92	225.65
392.30	225.65
392.68	225.61
393.05	225.59
393.43	225.59
393.81	225.60
394.18	225.59
394.56	225.59
394.94	225.63
395.31	225.63
395.69	225.68
396.06	225.71
396.44	225.74
396.82	225.75
397.19	225.84
397.57	225.86
397.95	225.91
398.32	225.90
398.70	225.95
399.07	226.02
399.45	226.07
399.82	226.12
400.20	226.16
400.58	226.22
400.95	226.24
401.33	226.34
401.70	226.50
402.08	226.61
402.45	226.70
402.83	226.83
403.20	226.95
403.58	227.06
403.95	227.21
404.33	227.38
404.71	227.53
405.08	227.76
405.46	227.94
405.83	228.15
406.21	228.37
406.58	228.61
406.96	228.85
407.33	229.13
407.70	229.44
408.08	229.86
408.45	230.23
408.83	230.62
409.20	230.99
409.58	231.32
409.95	231.77
410.33	232.26
410.70	232.72
411.08	233.27
411.45	233.85
411.82	234.43
412.20	235.09
412.57	235.88
412.95	236.51
413.32	237.32
413.69	238.16
414.07	239.04
414.44	240.01
414.82	240.99
415.19	242.14
415.56	243.31
415.94	244.52
416.31	245.88
416.68	247.24
417.06	248.81
417.43	250.29
417.81	251.99
418.18	253.72
418.55	255.61
418.93	257.58
419.30	259.63
419.67	261.81
420.04	264.05
420.42	266.38
420.79	269.07
421.16	271.80
421.54	274.56
421.91	277.45
422.28	280.46
422.66	283.69
423.03	286.77
423.40	290.02
423.77	293.49
424.15	297.05
424.52	300.76
424.89	304.77
425.26	308.76
425.64	312.47
426.01	316.64
426.38	320.91
426.75	325.31
427.13	329.81
427.50	334.53
427.87	339.43
428.24	344.39
428.61	349.16
428.99	354.31
429.36	359.97
429.73	365.37
430.10	370.77
430.47	376.29
430.85	381.97
431.22	388.07
431.59	394.33
431.96	400.44
432.33	407.23
432.70	413.68
433.08	421.30
433.45	428.52
433.82	435.63
434.19	443.55
434.56	451.37
434.93	458.94
435.30	466.42
435.68	474.86
436.05	483.13
436.42	491.39
436.79	498.90
437.16	507.02
437.53	515.72
437.90	524.43
438.27	532.95
438.64	542.18
439.01	550.52
439.38	558.17
439.75	565.53
440.13	573.84
440.50	581.74
440.87	588.01
441.24	594.86
441.61	602.33
441.98	607.78
442.35	614.25
442.72	620.84
443.09	627.13
443.46	631.09
443.83	633.99
444.20	636.39
444.57	640.01
444.94	642.03
445.31	644.12
445.68	645.87
446.05	647.16
446.42	646.69
446.79	646.00
447.16	645.38
447.53	644.81
447.90	642.08
448.27	639.46
448.64	635.52
449.01	632.75
449.37	627.32
449.74	622.42
450.11	616.11
450.48	609.20
450.85	602.32
451.22	596.44
451.59	590.71
451.96	585.53
452.33	577.99
452.70	571.32
453.07	563.18
453.43	555.08
453.80	547.21
454.17	539.67
454.54	532.76
454.91	524.93
455.28	517.60
455.65	510.69
456.02	503.37
456.38	497.50
456.75	489.95
457.12	483.89
457.49	477.76
457.86	472.01
458.23	466.98
458.59	461.37
458.96	455.62
459.33	450.56
459.70	445.40
460.07	441.49
460.43	436.89
460.80	432.59
461.17	428.87
461.54	424.80
461.91	421.00
462.27	417.13
462.64	414.03
463.01	410.45
463.38	406.84
463.74	403.60
464.11	400.73
464.48	398.15
464.85	395.32
465.21	393.19
465.58	390.80
465.95	388.05
466.32	385.87
466.68	383.73
467.05	381.58
467.42	379.49
467.78	377.21
468.15	375.10
468.52	373.57
468.88	371.51
469.25	369.62
469.62	368.11
469.98	366.46
470.35	364.99
470.72	363.66
471.08	362.29
471.45	361.15
471.82	359.87
472.18	358.52
472.55	357.64
472.92	356.53
473.28	355.65
473.65	354.71
474.02	353.81
474.38	353.04
474.75	352.56
475.11	351.92
475.48	351.59
475.85	351.24
476.21	351.04
476.58	350.87
476.94	350.96
477.31	350.98
477.67	351.04
478.04	351.20
478.41	351.47
478.77	351.87
479.14	352.11
479.50	352.62
479.87	353.30
480.23	353.99
480.60	354.66
480.96	355.33
481.33	356.37
481.69	357.39
482.06	358.41
482.42	359.33
482.79	360.50
483.15	361.86
483.52	363.40
483.88	364.89
484.25	366.48
484.61	368.14
484.98	369.93
485.34	371.95
485.71	374.06
486.07	376.34
486.44	378.61
486.80	381.14
487.17	383.77
487.53	386.64
487.90	389.64
488.26	392.92
488.62	396.38
488.99	399.83
489.35	403.48
489.72	407.44
490.08	411.62
490.44	415.93
490.81	420.41
491.17	424.99
491.54	429.91
491.90	434.98
492.26	440.42
492.63	446.10
492.99	452.04
493.36	458.20
493.72	464.66
494.08	471.29
494.45	478.32
494.81	485.63
495.17	493.13
495.54	501.06
495.90	509.31
496.26	517.74
496.63	526.42
496.99	535.43
497.35	544.84
497.72	554.57
498.08	564.51
498.44	574.79
498.80	585.69
499.17	596.86
499.53	608.40
499.89	620.29
500.26	632.44
500.62	644.88
500.98	658.00
501.34	671.30
501.71	685.15
502.07	699.18
502.43	713.75
502.79	728.58
503.16	743.89
503.52	759.38
503.88	775.34
504.24	791.80
504.60	808.45
504.97	825.60
505.33	843.19
505.69	861.72
506.05	880.64
506.41	899.51
506.78	918.53
507.14	938.06
507.50	958.04
507.86	978.39
508.22	999.01
508.59	1019.40
508.95	1040.60
509.31	1062.54
509.67	1085.29
510.03	1108.08
510.39	1130.86
510.75	1153.76
511.12	1176.94
511.48	1200.31
511.84	1223.65
512.20	1247.44
512.56	1272.17
512.92	1296.93
513.28	1321.21
513.64	1345.70
514.00	1370.69
514.37	1396.05
514.73	1421.32
515.09	1446.43
515.45	1471.85
515.81	1497.50
516.17	1523.17
516.53	1548.44
516.89	1573.54
517.25	1598.79
517.61	1623.84
517.97	1649.35
518.33	1674.41
518.69	1699.41
519.05	1724.80
519.41	1750.46
519.77	1776.41
520.13	1801.47
520.49	1826.47
520.85	1851.82
521.21	1876.84
521.57	1902.16
521.93	1926.84
522.29	1952.15
522.65	1976.81
523.01	2001.46
523.37	2025.63
523.73	2050.62
524.09	2075.17
524.45	2099.52
524.81	2123.47
525.17	2147.28
525.53	2170.44
525.89	2194.07
526.25	2217.75
526.61	2240.43
526.97	2263.23
527.33	2285.90
527.68	2308.36
528.04	2329.91
528.40	2350.53
528.76	2371.14
529.12	2391.28
529.48	2411.27
529.84	2429.19
530.20	2447.87
530.56	2465.87
530.91	2484.00
531.27	2501.76
531.63	2518.66
531.99	2535.03
532.35	2550.63
532.71	2566.45
533.07	2582.94
533.42	2597.50
533.78	2612.99
534.14	2628.82
534.50	2643.70
534.86	2658.29
535.21	2670.73
535.57	2683.77
535.93	2696.65
536.29	2708.46
536.65	2719.98
537.00	2730.59
537.36	2742.33
537.72	2752.73
538.08	2762.49
538.44	2771.47
538.79	2780.01
539.15	2787.83
539.51	2795.37
539.87	2802.30
540.22	2807.01
540.58	2811.85
540.94	2817.87
541.29	2822.40
541.65	2825.02
542.01	2826.83
542.37	2827.90
542.72	2830.52
543.08	2831.30
543.44	2832.63
543.79	2832.92
544.15	2832.39
544.51	2832.29
544.87	2831.01
545.22	2828.87
545.58	2826.06
545.94	2823.25
546.29	2819.20
546.65	2815.11
547.01	2810.81
547.36	2807.33
547.72	2804.21
548.07	2799.17
548.43	2792.74
548.79	2785.15
549.14	2778.84
549.50	2772.99
549.86	2766.16
550.21	2758.09
550.57	2751.06
550.92	2741.63
551.28	2732.65
551.64	2724.17
551.99	2715.37
552.35	2705.90
552.70	2696.69
553.06	2687.87
553.41	2678.48
553.77	2668.84
554.13	2659.15
554.48	2648.62
554.84	2636.70
555.19	2625.09
555.55	2613.69
555.90	2602.39
556.26	2591.75
556.61	2579.93
556.97	2566.42
557.32	2553.30
557.68	2540.32
558.03	2526.95
558.39	2515.00
558.74	2503.43
559.10	2490.00
559.45	2476.64
559.81	2463.92
560.16	2450.63
560.52	2437.69
560.87	2425.13
561.23	2411.79
561.58	2398.37
561.94	2384.73
562.29	2370.51
562.64	2357.09
563.00	2343.39
563.35	2329.98
563.71	2316.41
564.06	2302.83
564.42	2290.02
564.77	2276.77
565.12	2263.36
565.48	2249.91
565.83	2236.31
566.19	2222.89
566.54	2209.43
566.89	2194.85
567.25	2180.45
567.60	2167.51
567.96	2153.57
568.31	2138.20
568.66	2123.43
569.02	2109.98
569.37	2096.54
569.72	2083.64
570.08	2069.46
570.43	2054.82
570.78	2040.16
571.14	2024.76
571.49	2009.93
571.84	1995.68
572.20	1980.25
572.55	1964.91
572.90	1949.66
573.26	1934.51
573.61	1918.83
573.96	1903.59
574.31	1888.64
574.67	1873.77
575.02	1857.70
575.37	1841.78
575.72	1826.78
576.08	1812.11
576.43	1796.38
576.78	1780.99
577.13	1765.86
577.49	1751.13
577.84	1737.04
578.19	1722.02
578.54	1707.09
578.90	1691.69
579.25	1676.18
579.60	1662.30
579.95	1648.39
580.30	1634.23
580.66	1619.76
581.01	1605.24
581.36	1590.72
581.71	1577.14
582.06	1563.52
582.42	1550.13
582.77	1536.82
583.12	1523.51
583.47	1510.06
583.82	1496.73
584.17	1483.04
584.53	1469.09
584.88	1455.46
585.23	1441.50
585.58	1428.27
585.93	1415.22
586.28	1402.95
586.63	1390.62
586.98	1377.85
587.34	1365.14
587.69	1352.17
588.04	1339.53
588.39	1327.22
588.74	1315.11
589.09	1302.81
589.44	1290.07
589.79	1277.97
590.14	1265.97
590.49	1253.85
590.84	1241.90
591.19	1230.32
591.54	1218.56
591.89	1206.90
592.25	1195.50
592.60	1183.68
592.95	1172.31
593.30	1161.24
593.65	1149.86
594.00	1138.63
594.35	1127.93
594.70	1116.79
595.05	1106.50
595.40	1096.14
595.75	1085.62
596.10	1075.60
596.45	1065.38
596.80	1055.51
597.15	1045.33
597.50	1035.32
597.85	1025.76
598.19	1016.03
598.54	1006.32
598.89	997.16
599.24	988.27
599.59	979.14
599.94	970.91
600.29	962.53
600.64	953.88
600.99	944.88
601.34	936.20
601.69	927.19
602.04	918.90
602.39	910.39
602.74	901.97
603.08	893.50
603.43	885.00
603.78	876.66
604.13	868.45
604.48	860.31
604.83	852.31
605.18	844.25
605.53	836.39
605.87	828.39
606.22	820.58
606.57	812.76
606.92	804.90
607.27	796.98
607.62	789.30
607.96	782.03
608.31	775.20
608.66	768.17
609.01	761.43
609.36	754.76
609.70	747.97
610.05	741.11
610.40	734.54
610.75	727.95
611.10	721.71
611.44	715.30
611.79	709.00
612.14	702.63
612.49	696.32
612.83	690.29
613.18	684.39
613.53	678.45
613.88	672.50
614.22	666.93
614.57	661.33
614.92	655.61
615.27	649.97
615.61	644.40
615.96	638.89
616.31	633.39
616.65	627.93
617.00	622.66
617.35	617.51
617.70	612.38
618.04	607.36
618.39	602.22
618.74	597.32
619.08	592.46
619.43	587.75
619.78	583.02
620.12	578.28
620.47	573.68
620.82	569.18
621.16	564.76
621.51	560.25
621.85	555.76
622.20	551.42
622.55	547.15
622.89	542.94
623.24	538.74
623.59	534.57
623.93	530.55
624.28	526.65
624.62	522.83
624.97	519.07
625.32	515.24
625.66	511.39
626.01	507.52
626.35	503.71
626.70	499.92
627.04	496.35
627.39	492.69
627.73	489.20
628.08	485.81
628.43	482.39
628.77	479.05
629.12	475.83
629.46	472.66
629.81	469.38
630.15	466.08
630.50	462.89
630.84	459.76
631.19	456.69
631.53	453.70
631.88	450.68
632.22	447.69
632.57	444.97
632.91	442.29
633.26	439.69
633.60	437.12
633.95	434.61
634.29	432.00
634.64	429.47
634.98	426.78
635.32	424.19
635.67	421.80
636.01	419.37
636.36	416.94
636.70	414.64
637.05	412.36
637.39	410.14
637.73	407.92
638.08	405.82
638.42	403.71
638.77	401.46
639.11	399.16
639.45	396.94
639.80	394.68
640.14	392.51
640.49	390.33
640.83	388.13
641.17	386.03
641.52	383.97
641.86	381.94
642.20	380.10
642.55	378.13
642.89	376.17
643.23	374.31
643.58	372.60
643.92	370.79
644.26	369.02
644.61	367.30
644.95	365.56
645.29	363.74
645.64	361.93
645.98	360.24
646.32	358.65
646.66	357.05
647.01	355.48
647.35	353.95
647.69	352.40
648.04	350.98
648.38	349.48
648.72	348.00
649.06	346.54
649.41	345.07
649.75	343.66
650.09	342.28
650.43	340.89
650.78	339.46
651.12	338.08
651.46	336.75
651.80	335.44
652.14	334.16
652.49	332.93
652.83	331.67
653.17	330.46
653.51	329.28
653.85	328.15
654.20	326.99
654.54	325.75
654.88	324.59
655.22	323.47
655.56	322.35
655.90	321.29
656.25	320.26
656.59	319.22
656.93	318.24
657.27	317.27
657.61	316.24
657.95	315.28
658.29	314.29
658.64	313.36
658.98	312.42
659.32	311.51
659.66	310.66
660.00	309.83
660.34	308.99
660.68	308.14
661.02	307.25
661.36	306.40
661.70	305.59
662.05	304.81
662.39	304.03
662.73	303.32
663.07	302.62
663.41	301.87
663.75	301.12
664.09	300.38
664.43	299.60
664.77	298.91
665.11	298.17
665.45	297.50
665.79	296.84
666.13	296.15
666.47	295.45
666.81	294.72
667.15	293.98
667.49	293.34
667.83	292.75
668.17	292.14
668.51	291.56
668.85	291.02
669.19	290.51
669.53	289.90
669.87	289.28
670.21	288.68
670.55	288.14
670.89	287.67
671.23	287.14
671.57	286.64
671.91	286.17
672.25	285.74
672.58	285.31
672.92	284.79
673.26	284.34
673.60	283.91
673.94	283.49
674.28	283.11
674.62	282.69
674.96	282.22
675.30	281.81
675.64	281.37
675.97	280.92
676.31	280.43
676.65	280.00
676.99	279.64
677.33	279.21
677.67	278.81
678.01	278.34
678.34	277.94
678.68	277.57
679.02	277.13
679.36	276.71
679.70	276.29
680.04	275.91
680.37	275.53
680.71	275.17
681.05	274.82
681.39	274.43
681.73	274.03
682.06	273.65
682.40	273.27
682.74	272.95
683.08	272.67
683.42	272.33
683.75	272.03
684.09	271.64
684.43	271.33
684.77	270.99
685.10	270.71
685.44	270.39
685.78	270.07
686.12	269.79
686.45	269.47
686.79	269.14
687.13	268.84
687.46	268.52
687.80	268.21
688.14	267.86
688.48	267.56
688.81	267.26
689.15	266.99
689.49	266.68
689.82	266.36
690.16	265.98
690.50	265.69
690.83	265.38
691.17	265.08
691.51	264.78
691.84	264.50
692.18	264.19
692.52	263.87
692.85	263.58
693.19	263.32
693.52	263.03
693.86	262.74
694.20	262.46
694.53	262.18
694.87	261.88
695.21	261.60
695.54	261.32
695.88	261.02
696.21	260.70
696.55	260.44
696.88	260.16
697.22	259.89
697.56	259.61
697.89	259.30
698.23	259.03
698.56	258.73
698.90	258.46
699.23	258.17
699.57	257.89
699.90	257.60
700.24	257.30
700.58	257.05
700.91	256.83
701.25	256.68
701.58	256.48
701.92	256.27
702.25	256.03
702.59	255.76
702.92	255.53
703.26	255.28
703.59	255.01
703.93	254.86
704.26	254.62
704.60	254.37
704.93	254.12
705.26	253.86
705.60	253.66
705.93	253.39
706.27	253.19
706.60	252.99
706.94	252.81
707.27	252.54
707.61	252.29
707.94	252.02
708.27	251.66
708.61	251.36
708.94	251.09
709.28	250.85
709.61	250.62
709.94	250.40
710.28	250.19
710.61	249.99
710.95	249.67
711.28	249.53
711.61	249.32
711.95	249.14
712.28	248.92
712.61	248.68
712.95	248.54
713.28	248.39
713.61	248.15
713.95	247.89
714.28	247.71
714.61	247.49
714.95	247.29
715.28	247.09
715.61	246.90
715.95	246.73
716.28	246.54
716.61	246.38
716.95	246.18
717.28	245.99
717.61	245.79
717.94	245.60
718.28	245.32
718.61	245.13
718.94	244.92
719.27	244.74
719.61	244.58
719.94	244.37
720.27	244.11
720.60	243.93
720.94	243.76
721.27	243.59
721.60	243.44
721.93	243.26
722.27	243.13
722.60	242.98
722.93	242.79
723.26	242.63
723.59	242.42
723.93	242.27
724.26	242.11
724.59	241.94
724.92	241.79
725.25	241.68
725.59	241.53
725.92	241.40
726.25	241.25
726.58	241.10
726.91	240.94
727.24	240.81
727.57	240.67
727.91	240.50
728.24	240.38
728.57	240.23
728.90	240.11
729.23	239.92
729.56	239.83
729.89	239.69
730.22	239.54
730.55	239.41
730.89	239.27
731.22	239.13
731.55	238.99
731.88	238.86
732.21	238.70
732.54	238.56
732.87	238.42
733.20	238.30
733.53	238.18
733.86	238.07
734.19	237.92
734.52	237.83
734.85	237.80
735.18	237.64
735.51	237.56
735.84	237.44
736.17	237.36
736.50	237.18
736.83	237.22
737.16	237.11
737.49	237.01
737.82	236.90
738.15	236.81
738.48	236.70
738.81	236.59
739.14	236.47
739.47	236.36
739.80	236.24
740.13	236.14
740.46	236.01
740.79	235.89
741.12	235.78
741.45	235.65
741.78	235.47
742.11	235.41
742.44	235.27
742.77	235.19
743.10	235.06
743.43	234.96
743.75	234.72
744.08	234.82
744.41	234.71
744.74	234.61
745.07	234.49
745.40	234.42
745.73	234.38
746.06	234.29
746.39	234.22
746.71	234.13
747.04	234.03
747.37	233.94
747.70	233.88
748.03	233.80
748.36	233.74
748.68	233.66
749.01	233.54
749.34	233.46
749.67	233.38
750.00	233.31
750.33	233.33
750.65	233.26
750.98	232.98
751.31	232.91
751.64	232.84
751.97	232.83
752.29	232.74
752.62	232.60
752.95	232.52
753.28	232.42
753.60	232.34
753.93	232.30
754.26	232.23
754.59	232.12
754.91	232.03
755.24	231.94
755.57	231.92
755.90	231.85
756.22	231.76
756.55	231.67
756.88	231.56
757.20	231.41
757.53	231.30
757.86	231.23
758.19	231.17
758.51	231.10
758.84	230.96
759.17	230.88
759.49	230.83
759.82	230.82
760.15	230.78
760.47	230.71
760.80	230.61
761.13	230.57
761.45	230.51
761.78	230.46
762.11	230.40
762.43	230.28
762.76	230.22
763.08	230.19
763.41	230.14
763.74	230.09
764.06	230.04
764.39	230.00
764.71	229.94
765.04	229.88
765.37	229.82
765.69	229.77
766.02	229.72
766.34	229.66
766.67	229.56
767.00	229.53
767.32	229.56
767.65	229.59
767.97	229.53
768.30	229.49
768.62	229.45
768.95	229.39
769.27	229.34
769.60	229.31
769.92	229.25
770.25	229.18
770.57	229.12
770.90	229.07
771.22	229.02
771.55	228.98
771.87	228.95
772.20	228.90
772.52	228.97
772.85	229.09
773.17	229.06
773.50	229.01
773.82	228.95
774.15	228.85
774.47	228.73
774.80	228.68
775.12	228.64
775.45	228.61
775.77	228.58
776.09	228.56
776.42	228.53
776.74	228.54
777.07	228.51
777.39	228.48
777.72	228.44
778.04	228.43
778.36	228.40
778.69	228.37
779.01	228.36
779.33	228.22
779.66	228.04
779.98	228.01
780.31	227.99
780.63	228.01
780.95	228.01
781.28	227.98
781.60	227.95
781.92	227.93
782.25	227.90
782.57	227.88
782.89	227.85
783.22	227.81
783.54	227.76
783.86	227.75
784.19	227.71
784.51	227.73
784.83	227.69
785.16	227.67
785.48	227.64
785.80	227.62
786.12	227.61
786.45	227.58
786.77	227.57
787.09	227.55
787.42	227.47
787.74	227.46
788.06	227.44
788.38	227.42
788.71	227.39
789.03	227.37
789.35	227.37
789.67	227.33
789.99	227.32
790.32	227.29
790.64	227.28
790.96	227.38
791.28	227.32
791.61	227.29
791.93	227.29
792.25	227.26
792.57	227.33
792.89	227.29
793.21	227.28
793.54	227.25
793.86	227.22
794.18	227.21
794.50	227.17
794.82	227.15
795.14	227.16
795.47	227.16
795.79	227.15
796.11	227.10
796.43	227.08
796.75	227.07
797.07	227.06
797.39	227.04
797.71	226.91
798.04	226.91
798.36	226.90
798.68	226.88
799.00	226.87
799.32	226.79
799.64	226.80
799.96	226.79
800.28	226.80
800.60	226.78
800.92	226.77
801.24	226.75
801.56	226.74
801.89	226.71
802.21	226.70
802.53	226.67
802.85	226.68
803.17	226.73
803.49	226.69
803.81	226.67
804.13	226.65
804.45	226.62
804.77	226.62
805.09	226.60
805.41	226.58
805.73	226.55
806.05	226.50
806.37	226.47
806.69	226.45
807.01	226.42
807.33	226.42
807.65	226.37
807.97	226.42
808.28	226.39
808.60	226.38
808.92	226.35
809.24	226.42
809.56	226.38
809.88	226.33
810.20	226.32
810.52	226.34
810.84	226.31
811.16	226.29
811.48	226.27
811.80	226.31
812.12	226.29
812.43	226.31
812.75	226.31
813.07	226.29
813.39	226.29
813.71	226.27
814.03	226.24
814.35	226.24
814.67	226.18
814.98	226.16
815.30	226.15
815.62	226.12
815.94	226.02
816.26	226.03
816.58	226.00
816.89	226.00
817.21	225.96
817.53	225.96
817.85	225.96
818.17	225.95
818.48	225.89
818.80	225.91
819.12	225.88
819.44	225.85
819.76	225.83
820.07	225.82
820.39	225.81
820.71	225.82
821.03	225.81
821.34	225.80
821.66	225.81
821.98	225.81
822.30	225.80
822.61	225.88
822.93	225.85
823.25	225.84
823.57	225.82
823.88	225.84
824.20	225.83
824.52	225.84
824.83	225.83
825.15	225.81
825.47	225.80
825.79	225.80
826.10	225.79
826.42	225.79
826.74	225.79
827.05	225.78
827.37	225.78
827.69	225.76
828.00	225.76
828.32	225.76
828.64	225.73
828.95	225.80
829.27	225.76
829.58	225.75
829.90	225.77
830.22	225.78
830.53	225.75
830.85	225.73
831.17	225.70
831.48	225.69
831.80	225.69
832.11	225.68
832.43	225.66
832.75	225.65
833.06	225.73
833.38	225.69
833.69	225.68
834.01	225.67
834.32	225.67
834.64	225.65
834.96	225.65
835.27	225.64
835.59	225.59
835.90	225.57
836.22	225.56
836.53	225.53
836.85	225.51
837.16	225.64
837.48	225.64
837.79	225.68
838.11	225.68
838.42	225.68
838.74	225.69
839.05	225.68
839.37	225.67
839.68	225.59
840.00	225.59
840.31	225.60
840.63	225.59
840.94	225.57
841.26	225.56
841.57	225.55
841.88	225.56
842.20	225.54
842.51	225.51
842.83	225.51
843.14	225.63
843.46	225.62
843.77	225.54
844.08	225.53
844.40	225.49
844.71	225.47
845.03	225.46
845.34	225.44
845.65	225.44
845.97	225.44
846.28	225.44
846.60	225.45
846.91	225.42
847.22	225.42
847.54	225.45
847.85	225.45
848.16	225.44
848.48	225.41
848.79	225.46
849.10	225.48
849.42	225.48
849.73	225.36
850.04	225.36
850.36	225.31
850.67	225.33
850.98	225.33
851.30	225.34
851.61	225.34
851.92	225.34
852.23	225.37
852.55	225.38
852.86	225.38
853.17	225.39
853.49	225.41
853.80	225.44
854.11	225.44
854.42	225.45
854.74	225.44
855.05	225.45
855.36	225.38
855.67	225.38
855.99	225.38
856.30	225.53
856.61	225.52
856.92	225.53
857.23	225.53
857.55	225.51
857.86	225.50
858.17	225.52
858.48	225.50
858.79	225.47
859.11	225.47
859.42	225.46
859.73	225.44
860.04	225.43
860.35	225.39
860.66	225.35
860.98	225.35
861.29	225.36
861.60	225.35
861.91	225.38
862.22	225.36
862.53	225.34
862.84	225.18
863.16	225.21
863.47	225.18
863.78	225.17
864.09	225.17
864.40	225.18
864.71	225.18
865.02	225.19
865.33	225.18
865.64	225.16
865.95	225.15
866.27	225.23
866.58	225.22
866.89	225.24
867.20	225.23
867.51	225.21
867.82	225.20
868.13	225.24
868.44	225.21
868.75	225.23
869.06	225.24
869.37	225.25
869.68	225.22
869.99	225.24
870.30	225.24
870.61	225.26
870.92	225.24
871.23	225.22
871.54	225.24
871.85	225.27
872.16	225.28
872.47	225.27
872.78	225.19
873.09	225.21
873.40	225.19
873.71	225.20
874.02	225.21
874.33	225.20
874.64	225.17
874.95	225.19
875.26	225.16
875.56	225.16
875.87	225.15
876.18	225.14
876.49	225.27
876.80	225.25
877.11	225.23
877.42	225.23
877.73	225.23
878.04	225.21
878.35	225.21
878.66	225.21
878.96	225.21
879.27	225.20
879.58	225.20
879.89	225.19
880.20	225.22
880.51	225.22
880.82	225.22
881.12	225.22
881.43	225.20
881.74	225.18
882.05	225.18
882.36	225.18
882.67	225.20
882.97	225.06
883.28	225.05
883.59	225.04
883.90	225.05
884.21	225.07
884.51	225.07
884.82	225.04
885.13	225.04
885.44	225.04
885.74	225.04
886.05	225.03
886.36	225.03
886.67	224.98
886.98	225.05
887.28	225.06
887.59	225.06
887.90	225.06
888.20	225.06
888.51	225.08
888.82	225.06
889.13	225.07
889.43	225.18
889.74	225.18
890.05	225.18
890.35	225.16
890.66	225.14
890.97	225.13
891.28	225.12
891.58	225.12
891.89	225.12
892.20	225.10
892.50	225.09
892.81	225.08
893.12	225.08
893.42	225.01
893.73	225.01
894.04	225.01
894.34	225.02
894.65	225.01
894.95	225.00
895.26	225.01
895.57	225.06
895.87	224.93
896.18	224.95
896.48	224.96
896.79	224.96
897.10	224.98
897.40	224.98
897.71	225.00
898.01	224.99
898.32	225.00
898.63	225.00
898.93	225.01
899.24	225.02
899.54	225.01
899.85	225.01
900.15	225.00
900.46	225.00
900.76	225.01
901.07	225.01
901.38	225.00
901.68	225.02
901.99	224.95
902.29	224.96
902.60	224.95
902.90	224.94
903.21	224.94
903.51	224.92
903.82	224.95
904.12	224.94
904.43	224.95
904.73	224.94
905.03	224.95
905.34	225.07
905.64	225.06
905.95	225.06
906.25	225.05
906.56	225.05
906.86	225.05
907.17	225.03
907.47	225.04
907.77	225.03
908.08	225.00
908.38	225.01
908.69	225.02
908.99	225.04
909.30	225.04
909.60	225.04
909.90	225.04
910.21	225.00
910.51	224.98
910.81	224.99
911.12	224.99
911.42	224.99
911.73	224.86
912.03	224.87
912.33	224.90
912.64	224.89
912.94	224.88
913.24	224.86
913.55	224.85
913.85	224.84
914.15	224.86
914.46	224.88
914.76	224.87
915.06	224.86
915.37	224.83
915.67	224.82
915.97	224.82
916.27	224.81
916.58	224.82
916.88	224.81
917.18	224.80
917.49	224.88
917.79	224.88
918.09	224.90
918.39	224.93
918.70	224.92
919.00	224.92
919.30	224.98
919.60	224.98
919.91	224.97
920.21	224.98
920.51	224.95
920.81	224.94
921.12	224.96
921.42	224.96
921.72	224.97
922.02	224.98
922.32	224.99
922.63	225.00
922.93	225.07
923.23	225.08
923.53	225.07
923.83	224.98
924.13	224.99
924.44	224.99
924.74	225.01
925.04	225.03
925.34	225.03
925.64	224.98
925.94	224.98
926.24	225.05
926.55	225.04
926.85	225.06
927.15	225.06
927.45	225.06
927.75	225.06
928.05	225.06
928.35	225.05
928.65	225.06
928.95	225.07
929.26	225.01
929.56	225.03
929.86	225.05
930.16	225.04
930.46	225.03
930.76	225.03
931.06	224.97
931.36	224.94
931.66	224.96
931.96	224.97
932.26	224.98
932.56	224.92
932.86	224.93
933.16	224.93
933.46	224.91
933.76	224.89
934.06	224.91
934.36	224.96
934.66	224.95
934.96	224.93
935.26	224.94
935.56	224.95
935.86	224.92
936.16	224.90
936.46	224.89
936.76	224.89
937.06	224.87
937.36	224.87
937.66	224.88
937.96	224.86
938.26	224.84
938.56	224.83
938.86	224.83
939.16	224.86
939.46	224.87
939.76	224.87
940.06	224.87
940.35	224.86
940.65	224.79
940.95	224.81
941.25	224.78
941.55	224.76
941.85	224.75
942.15	224.78
942.45	224.81
942.75	224.81
943.04	224.81
943.34	224.84
943.64	224.83
943.94	224.82
944.24	224.82
944.54	224.83
944.84	224.82
945.13	224.81
945.43	224.78
945.73	224.77
946.03	224.76
946.33	224.75
946.62	224.74
946.92	224.74
947.22	224.74
947.52	224.75
947.82	224.77
948.11	224.76
948.41	224.73
948.71	224.69
949.01	224.70
949.31	224.69
949.60	224.68
949.90	224.70
950.20	224.69
950.50	224.69
950.79	224.68
951.09	224.70
951.39	224.70
951.69	224.68
951.98	224.71
952.28	224.72
952.58	224.71
952.87	224.72
953.17	224.73
953.47	224.72
953.76	224.72
954.06	224.69
954.36	224.68
954.66	224.68
954.95	224.71
955.25	224.72
955.55	224.73
955.84	224.71
956.14	224.72
956.44	224.73
956.73	224.71
957.03	224.72
957.32	224.72
957.62	224.71
957.92	224.74
958.21	224.72
958.51	224.87
958.81	224.89
959.10	224.90
959.40	224.92
959.69	224.93
959.99	224.95
960.29	224.95
960.58	224.95
960.88	225.00
961.17	224.98
961.47	224.99
961.76	224.98
962.06	225.00
962.36	224.99
962.65	224.99
962.95	225.00
963.24	224.99
963.54	224.99
963.83	225.00
964.13	224.99
964.42	224.98
964.72	224.87
965.01	224.87
965.31	224.86
965.60	224.83
965.90	224.91
966.19	224.88
966.49	224.89
966.78	224.88
967.08	224.87
967.37	224.87
967.67	224.85
967.96	224.87
968.26	224.87
968.55	224.88
968.85	224.88
969.14	224.88
969.43	224.88
969.73	224.86
970.02	224.85
970.32	224.84
970.61	224.82
970.91	224.79
971.20	224.77
971.49	224.76
971.79	224.78
972.08	224.68
972.38	224.70
972.67	224.69
972.96	224.71
973.26	224.68
973.55	224.72
973.85	224.72
974.14	224.70
974.43	224.71
974.73	224.69
975.02	224.67
975.31	224.68
975.61	224.68
975.90	224.67
976.19	224.66
976.49	224.67
976.78	224.68
977.07	224.69
977.37	224.69
977.66	224.71
977.95	224.69
978.24	224.70
978.54	224.73
978.83	224.72
979.12	224.71
979.42	224.71
979.71	224.68
980.00	224.68
980.29	224.69
980.59	224.66
980.88	224.70
981.17	224.69
981.46	224.69
981.76	224.69
982.05	224.73
982.34	224.74
982.63	224.74
982.93	224.74
983.22	224.77
983.51	224.77
983.80	224.79
984.09	224.81
984.39	224.79
984.68	224.78
984.97	224.78
985.26	224.78
985.55	224.79
985.85	224.76
986.14	224.78
986.43	224.79
986.72	224.79
987.01	224.75
987.30	224.75
987.59	224.74
987.89	224.75
988.18	224.71
988.47	224.70
988.76	224.69
989.05	224.68
989.34	224.66
989.63	224.69
989.92	224.67
990.22	224.65
990.51	224.65
990.80	224.64
991.09	224.65
991.38	224.67
991.67	224.65
991.96	224.65
992.25	224.65
992.54	224.62
992.83	224.63
993.12	224.62
993.41	224.65
993.70	224.70
993.99	224.72
994.28	224.74
994.58	224.76
994.87	224.75
995.16	224.75
995.45	224.74
995.74	224.69
996.03	224.71
996.32	224.73
996.61	224.76
996.90	224.76
997.19	224.75
997.48	224.75
997.77	224.73
998.06	224.74
998.34	224.73
998.63	224.73
998.92	224.74
999.21	224.76
999.50	224.76
999.79	224.71
1000.08	224.71
1000.37	224.71
1000.66	224.69
1000.95	224.73
1001.24	224.74
1001.53	224.76
1001.82	224.75
1002.11	224.72
1002.40	224.73
1002.68	224.76
1002.97	224.85
1003.26	224.84
1003.55	224.82
1003.84	224.83
1004.13	224.87
1004.42	224.86
1004.71	224.86
1004.99	224.85
1005.28	224.88
1005.57	224.87
1005.86	224.85
1006.15	224.84
1006.44	224.82
1006.72	224.84
1007.01	224.81
1007.30	224.81
1007.59	224.79
1007.88	224.79
1008.17	224.80
1008.45	224.77
1008.74	224.72
1009.03	224.66
1009.32	224.66
1009.60	224.66
1009.89	224.65
1010.18	224.59
1010.47	224.59
1010.76	224.59
1011.04	224.59
1011.33	224.58
1011.62	224.60
1011.91	224.61
1012.19	224.61
1012.48	224.62
1012.77	224.61
1013.05	224.66
1013.34	224.65
1013.63	224.64
1013.92	224.65
1014.20	224.65
1014.49	224.66
1014.78	224.67
1015.06	224.63
1015.35	224.63
1015.64	224.65
1015.92	224.67
1016.21	224.68
1016.50	224.68
1016.78	224.70
1017.07	224.71
1017.36	224.68
1017.64	224.66
1017.93	224.67
1018.22	224.66
1018.50	224.66
1018.79	224.65
1019.08	224.61
1019.36	224.62
1019.65	224.61
1019.93	224.64
1020.22	224.66
1020.51	224.72
1020.79	224.71
1021.08	224.46
1021.36	224.43
1021.65	224.66
1021.94	224.57
1022.22	224.72
1022.51	224.41
1022.79	225.28
1023.08	224.83
1023.36	226.16
1023.65	224.35
>>>>>End Processed Spectral Data<<<<<
