SpectraSuite Data File
++++++++++++++++++++++++++++++++++++
Date: Sun Oct 04 15:30:57 EDT 2015
User: lab3
Dark Spectrum Present: No
Reference Spectrum Present: No
Number of Sampled Component Spectra: 1
Spectrometers: USB2E7196
Integration Time (usec): 46000 (USB2E7196)
Spectra Averaged: 24000 (USB2E7196)
Boxcar Smoothing: 10 (USB2E7196)
Correct for Electrical Dark: No (USB2E7196)
Strobe/Lamp Enabled: No (USB2E7196)
Correct for Detector Non-linearity: No (USB2E7196)
Correct for Stray Light: No (USB2E7196)
Number of Pixels in Processed Spectrum: 2048
>>>>>Begin Processed Spectral Data<<<<<
339.09	0.00
339.48	213.97
339.86	215.42
340.24	216.77
340.63	218.25
341.01	221.52
341.39	220.92
341.78	222.31
342.16	223.52
342.54	223.97
342.93	212.41
343.31	223.14
343.69	223.68
344.07	224.14
344.46	224.58
344.84	224.97
345.22	225.19
345.60	225.45
345.99	225.65
346.37	225.79
346.75	225.90
347.13	225.98
347.52	226.05
347.90	226.15
348.28	226.19
348.66	226.25
349.05	226.25
349.43	226.31
349.81	226.37
350.19	226.43
350.57	226.50
350.96	226.58
351.34	226.68
351.72	226.78
352.10	226.89
352.48	226.97
352.87	227.02
353.25	227.09
353.63	227.14
354.01	227.21
354.39	227.28
354.77	227.36
355.15	227.47
355.54	227.51
355.92	227.54
356.30	227.61
356.68	227.77
357.06	227.84
357.44	227.89
357.82	227.94
358.20	228.06
358.58	228.12
358.97	228.18
359.35	228.27
359.73	228.35
360.11	228.39
360.49	228.45
360.87	228.50
361.25	228.56
361.63	228.65
362.01	228.70
362.39	228.73
362.77	228.78
363.15	228.81
363.53	228.84
363.91	228.88
364.29	228.90
364.67	228.80
365.05	228.82
365.43	228.86
365.81	228.89
366.19	228.91
366.57	228.96
366.95	228.96
367.33	228.93
367.71	228.93
368.09	228.95
368.47	228.94
368.85	228.93
369.23	228.94
369.61	228.88
369.99	228.90
370.37	228.90
370.75	228.98
371.13	228.94
371.51	228.90
371.89	228.88
372.27	228.86
372.65	228.84
373.03	228.80
373.41	228.76
373.78	228.71
374.16	228.60
374.54	228.52
374.92	228.47
375.30	228.43
375.68	228.36
376.06	228.32
376.44	228.26
376.82	228.22
377.19	228.17
377.57	228.12
377.95	228.03
378.33	227.97
378.71	227.81
379.09	227.77
379.47	227.74
379.84	227.68
380.22	227.61
380.60	227.54
380.98	227.49
381.36	227.44
381.73	227.38
382.11	227.36
382.49	227.32
382.87	227.26
383.25	227.22
383.62	227.32
384.00	227.26
384.38	227.22
384.76	227.21
385.13	227.21
385.51	227.17
385.89	227.12
386.27	227.09
386.64	227.08
387.02	227.03
387.40	226.99
387.78	226.96
388.15	226.94
388.53	226.91
388.91	226.89
389.29	226.86
389.66	226.86
390.04	226.81
390.42	226.81
390.79	226.81
391.17	226.79
391.55	226.63
391.92	226.63
392.30	226.63
392.68	226.60
393.05	226.58
393.43	226.58
393.81	226.59
394.18	226.57
394.56	226.57
394.94	226.61
395.31	226.61
395.69	226.66
396.06	226.70
396.44	226.72
396.82	226.74
397.19	226.83
397.57	226.84
397.95	226.90
398.32	226.90
398.70	226.95
399.07	227.02
399.45	227.06
399.82	227.12
400.20	227.16
400.58	227.23
400.95	227.24
401.33	227.34
401.70	227.51
402.08	227.62
402.45	227.71
402.83	227.84
403.20	227.97
403.58	228.08
403.95	228.23
404.33	228.40
404.71	228.57
405.08	228.80
405.46	228.99
405.83	229.20
406.21	229.42
406.58	229.67
406.96	229.92
407.33	230.20
407.70	230.52
408.08	230.95
408.45	231.33
408.83	231.74
409.20	232.11
409.58	232.46
409.95	232.92
410.33	233.42
410.70	233.90
411.08	234.46
411.45	235.05
411.82	235.65
412.20	236.33
412.57	237.14
412.95	237.79
413.32	238.62
413.69	239.48
414.07	240.39
414.44	241.38
414.82	242.39
415.19	243.57
415.56	244.77
415.94	246.01
416.31	247.40
416.68	248.80
417.06	250.42
417.43	251.93
417.81	253.67
418.18	255.45
418.55	257.40
418.93	259.42
419.30	261.53
419.67	263.77
420.04	266.07
420.42	268.46
420.79	271.22
421.16	274.03
421.54	276.86
421.91	279.83
422.28	282.91
422.66	286.24
423.03	289.41
423.40	292.74
423.77	296.31
424.15	299.97
424.52	303.78
424.89	307.90
425.26	312.00
425.64	315.82
426.01	320.10
426.38	324.48
426.75	328.99
427.13	333.62
427.50	338.47
427.87	343.51
428.24	348.60
428.61	353.50
428.99	358.79
429.36	364.60
429.73	370.15
430.10	375.69
430.47	381.36
430.85	387.20
431.22	393.47
431.59	399.88
431.96	406.16
432.33	413.14
432.70	419.76
433.08	427.58
433.45	434.99
433.82	442.28
434.19	450.42
434.56	458.46
434.93	466.22
435.30	473.88
435.68	482.56
436.05	491.05
436.42	499.52
436.79	507.23
437.16	515.56
437.53	524.49
437.90	533.43
438.27	542.18
438.64	551.63
439.01	560.18
439.38	568.03
439.75	575.57
440.13	584.08
440.50	592.18
440.87	598.60
441.24	605.63
441.61	613.29
441.98	618.85
442.35	625.48
442.72	632.24
443.09	638.69
443.46	642.75
443.83	645.71
444.20	648.16
444.57	651.87
444.94	653.93
445.31	656.07
445.68	657.86
446.05	659.18
446.42	658.70
446.79	657.99
447.16	657.36
447.53	656.77
447.90	653.98
448.27	651.29
448.64	647.25
449.01	644.42
449.37	638.86
449.74	633.85
450.11	627.36
450.48	620.29
450.85	613.23
451.22	607.22
451.59	601.34
451.96	596.02
452.33	588.29
452.70	581.45
453.07	573.10
453.43	564.80
453.80	556.72
454.17	548.98
454.54	541.90
454.91	533.86
455.28	526.36
455.65	519.27
456.02	511.75
456.38	505.74
456.75	497.99
457.12	491.77
457.49	485.47
457.86	479.57
458.23	474.39
458.59	468.63
458.96	462.72
459.33	457.53
459.70	452.23
460.07	448.21
460.43	443.49
460.80	439.08
461.17	435.26
461.54	431.08
461.91	427.17
462.27	423.19
462.64	420.01
463.01	416.30
463.38	412.58
463.74	409.26
464.11	406.30
464.48	403.64
464.85	400.73
465.21	398.54
465.58	396.08
465.95	393.26
466.32	391.02
466.68	388.81
467.05	386.60
467.42	384.43
467.78	382.08
468.15	379.91
468.52	378.34
468.88	376.20
469.25	374.25
469.62	372.70
469.98	371.00
470.35	369.48
470.72	368.11
471.08	366.71
471.45	365.52
471.82	364.20
472.18	362.80
472.55	361.88
472.92	360.73
473.28	359.82
473.65	358.85
474.02	357.91
474.38	357.12
474.75	356.62
475.11	355.96
475.48	355.62
475.85	355.25
476.21	355.03
476.58	354.85
476.94	354.94
477.31	354.96
477.67	355.00
478.04	355.17
478.41	355.43
478.77	355.83
479.14	356.07
479.50	356.59
479.87	357.28
480.23	357.98
480.60	358.66
480.96	359.35
481.33	360.39
481.69	361.43
482.06	362.47
482.42	363.40
482.79	364.59
483.15	365.97
483.52	367.54
483.88	369.05
484.25	370.67
484.61	372.36
484.98	374.18
485.34	376.24
485.71	378.39
486.07	380.70
486.44	383.01
486.80	385.58
487.17	388.25
487.53	391.17
487.90	394.22
488.26	397.56
488.62	401.08
488.99	404.60
489.35	408.32
489.72	412.36
490.08	416.61
490.44	421.00
490.81	425.55
491.17	430.21
491.54	435.22
491.90	440.37
492.26	445.90
492.63	451.69
492.99	457.73
493.36	463.98
493.72	470.55
494.08	477.27
494.45	484.43
494.81	491.86
495.17	499.50
495.54	507.57
495.90	515.96
496.26	524.53
496.63	533.35
496.99	542.51
497.35	552.08
497.72	561.96
498.08	572.05
498.44	582.50
498.80	593.59
499.17	604.95
499.53	616.66
499.89	628.74
500.26	641.08
500.62	653.73
500.98	667.06
501.34	680.58
501.71	694.65
502.07	708.91
502.43	723.72
502.79	738.77
503.16	754.31
503.52	770.03
503.88	786.23
504.24	802.93
504.60	819.83
504.97	837.24
505.33	855.10
505.69	873.91
506.05	893.11
506.41	912.23
506.78	931.52
507.14	951.32
507.50	971.59
507.86	992.22
508.22	1013.08
508.59	1033.71
508.95	1055.20
509.31	1077.49
509.67	1100.56
510.03	1123.63
510.39	1146.69
510.75	1169.87
511.12	1193.35
511.48	1216.97
511.84	1240.60
512.20	1264.71
512.56	1289.75
512.92	1314.79
513.28	1339.33
513.64	1364.11
514.00	1389.40
514.37	1415.03
514.73	1440.60
515.09	1466.01
515.45	1491.74
515.81	1517.64
516.17	1543.63
516.53	1569.11
516.89	1594.41
517.25	1619.90
517.61	1645.21
517.97	1671.00
518.33	1696.32
518.69	1721.54
519.05	1747.24
519.41	1773.19
519.77	1799.35
520.13	1824.64
520.49	1849.85
520.85	1875.47
521.21	1900.67
521.57	1926.21
521.93	1951.13
522.29	1976.61
522.65	2001.49
523.01	2026.35
523.37	2050.74
523.73	2075.91
524.09	2100.69
524.45	2125.23
524.81	2149.35
525.17	2173.31
525.53	2196.61
525.89	2220.38
526.25	2244.23
526.61	2267.06
526.97	2290.04
527.33	2312.91
527.68	2335.47
528.04	2357.12
528.40	2377.79
528.76	2398.58
529.12	2418.81
529.48	2438.83
529.84	2456.86
530.20	2475.62
530.56	2493.65
530.91	2511.84
531.27	2529.69
531.63	2546.60
531.99	2563.04
532.35	2578.66
532.71	2594.54
533.07	2611.11
533.42	2625.70
533.78	2641.29
534.14	2657.12
534.50	2671.93
534.86	2686.43
535.21	2698.85
535.57	2711.94
535.93	2724.81
536.29	2736.52
536.65	2748.02
537.00	2758.64
537.36	2770.39
537.72	2780.65
538.08	2790.41
538.44	2799.39
538.79	2807.83
539.15	2815.60
539.51	2823.00
539.87	2829.77
540.22	2834.36
540.58	2839.08
540.94	2845.10
541.29	2849.43
541.65	2851.85
542.01	2853.47
542.37	2854.48
542.72	2857.01
543.08	2857.59
543.44	2858.78
543.79	2858.94
544.15	2858.20
544.51	2857.95
544.87	2856.45
545.22	2854.14
545.58	2851.13
545.94	2848.20
546.29	2843.98
546.65	2839.70
547.01	2835.34
547.36	2831.81
547.72	2828.46
548.07	2823.21
548.43	2816.47
548.79	2808.69
549.14	2802.30
549.50	2796.27
549.86	2789.21
550.21	2780.94
550.57	2773.73
550.92	2764.07
551.28	2755.00
551.64	2746.44
551.99	2737.46
552.35	2727.76
552.70	2718.39
553.06	2709.38
553.41	2699.71
553.77	2689.84
554.13	2679.90
554.48	2669.06
554.84	2656.88
555.19	2645.14
555.55	2633.57
555.90	2622.08
556.26	2611.21
556.61	2599.19
556.97	2585.43
557.32	2572.12
557.68	2558.84
558.03	2545.31
558.39	2533.17
558.74	2521.30
559.10	2507.58
559.45	2494.00
559.81	2481.15
560.16	2467.68
560.52	2454.56
560.87	2441.81
561.23	2428.25
561.58	2414.72
561.94	2400.92
562.29	2386.48
562.64	2372.88
563.00	2358.93
563.35	2345.38
563.71	2331.68
564.06	2317.83
564.42	2304.89
564.77	2291.46
565.12	2277.88
565.48	2264.25
565.83	2250.55
566.19	2236.98
566.54	2223.29
566.89	2208.50
567.25	2193.97
567.60	2180.84
567.96	2166.69
568.31	2151.15
568.66	2136.34
569.02	2122.76
569.37	2109.13
569.72	2096.11
570.08	2081.77
570.43	2067.05
570.78	2052.18
571.14	2036.57
571.49	2021.67
571.84	2007.30
572.20	1991.65
572.55	1976.25
572.90	1960.82
573.26	1945.45
573.61	1929.56
573.96	1914.17
574.31	1899.07
574.67	1883.97
575.02	1867.76
575.37	1851.69
575.72	1836.54
576.08	1821.68
576.43	1805.74
576.78	1790.22
577.13	1774.96
577.49	1760.05
577.84	1745.83
578.19	1730.63
578.54	1715.63
578.90	1700.07
579.25	1684.43
579.60	1670.46
579.95	1656.36
580.30	1642.04
580.66	1627.44
581.01	1612.83
581.36	1598.20
581.71	1584.57
582.06	1570.83
582.42	1557.31
582.77	1543.87
583.12	1530.40
583.47	1516.82
583.82	1503.35
584.17	1489.55
584.53	1475.44
584.88	1461.70
585.23	1447.55
585.58	1434.20
585.93	1421.05
586.28	1408.67
586.63	1396.22
586.98	1383.32
587.34	1370.49
587.69	1357.45
588.04	1344.72
588.39	1332.35
588.74	1320.14
589.09	1307.68
589.44	1294.85
589.79	1282.70
590.14	1270.60
590.49	1258.42
590.84	1246.37
591.19	1234.71
591.54	1222.86
591.89	1211.15
592.25	1199.66
592.60	1187.77
592.95	1176.36
593.30	1165.18
593.65	1153.71
594.00	1142.38
594.35	1131.63
594.70	1120.46
595.05	1110.14
595.40	1099.71
595.75	1089.11
596.10	1079.05
596.45	1068.75
596.80	1058.80
597.15	1048.56
597.50	1038.50
597.85	1028.84
598.19	1019.05
598.54	1009.32
598.89	1000.06
599.24	991.12
599.59	981.94
599.94	973.70
600.29	965.25
600.64	956.51
600.99	947.43
601.34	938.71
601.69	929.65
602.04	921.29
602.39	912.74
602.74	904.26
603.08	895.74
603.43	887.20
603.78	878.84
604.13	870.61
604.48	862.38
604.83	854.35
605.18	846.26
605.53	838.35
605.87	830.28
606.22	822.46
606.57	814.59
606.92	806.68
607.27	798.69
607.62	791.00
607.96	783.72
608.31	776.87
608.66	769.81
609.01	763.04
609.36	756.36
609.70	749.51
610.05	742.63
610.40	736.02
610.75	729.38
611.10	723.10
611.44	716.67
611.79	710.34
612.14	703.94
612.49	697.61
612.83	691.58
613.18	685.67
613.53	679.71
613.88	673.75
614.22	668.18
614.57	662.57
614.92	656.82
615.27	651.17
615.61	645.58
615.96	640.05
616.31	634.51
616.65	629.03
617.00	623.75
617.35	618.58
617.70	613.44
618.04	608.39
618.39	603.24
618.74	598.33
619.08	593.47
619.43	588.74
619.78	584.00
620.12	579.23
620.47	574.62
620.82	570.11
621.16	565.65
621.51	561.11
621.85	556.59
622.20	552.24
622.55	547.94
622.89	543.72
623.24	539.50
623.59	535.31
623.93	531.29
624.28	527.36
624.62	523.52
624.97	519.73
625.32	515.89
625.66	512.02
626.01	508.13
626.35	504.30
626.70	500.52
627.04	496.92
627.39	493.24
627.73	489.74
628.08	486.33
628.43	482.91
628.77	479.55
629.12	476.32
629.46	473.12
629.81	469.82
630.15	466.52
630.50	463.32
630.84	460.19
631.19	457.10
631.53	454.12
631.88	451.09
632.22	448.10
632.57	445.38
632.91	442.69
633.26	440.09
633.60	437.50
633.95	434.96
634.29	432.35
634.64	429.81
634.98	427.09
635.32	424.49
635.67	422.09
636.01	419.64
636.36	417.21
636.70	414.92
637.05	412.63
637.39	410.38
637.73	408.15
638.08	406.03
638.42	403.89
638.77	401.62
639.11	399.30
639.45	397.07
639.80	394.78
640.14	392.60
640.49	390.41
640.83	388.20
641.17	386.09
641.52	384.02
641.86	381.98
642.20	380.14
642.55	378.16
642.89	376.20
643.23	374.32
643.58	372.61
643.92	370.78
644.26	369.00
644.61	367.27
644.95	365.52
645.29	363.69
645.64	361.89
645.98	360.19
646.32	358.60
646.66	357.00
647.01	355.42
647.35	353.88
647.69	352.33
648.04	350.90
648.38	349.40
648.72	347.92
649.06	346.45
649.41	344.98
649.75	343.57
650.09	342.19
650.43	340.80
650.78	339.37
651.12	337.98
651.46	336.65
651.80	335.34
652.14	334.05
652.49	332.82
652.83	331.55
653.17	330.34
653.51	329.16
653.85	328.02
654.20	326.86
654.54	325.62
654.88	324.47
655.22	323.35
655.56	322.23
655.90	321.17
656.25	320.14
656.59	319.08
656.93	318.10
657.27	317.13
657.61	316.11
657.95	315.14
658.29	314.16
658.64	313.23
658.98	312.29
659.32	311.39
659.66	310.54
660.00	309.71
660.34	308.87
660.68	308.01
661.02	307.13
661.36	306.28
661.70	305.48
662.05	304.69
662.39	303.91
662.73	303.20
663.07	302.50
663.41	301.75
663.75	301.02
664.09	300.28
664.43	299.51
664.77	298.81
665.11	298.08
665.45	297.41
665.79	296.75
666.13	296.06
666.47	295.35
666.81	294.64
667.15	293.91
667.49	293.27
667.83	292.69
668.17	292.07
668.51	291.51
668.85	290.96
669.19	290.46
669.53	289.85
669.87	289.24
670.21	288.64
670.55	288.10
670.89	287.63
671.23	287.11
671.57	286.61
671.91	286.15
672.25	285.71
672.58	285.28
672.92	284.76
673.26	284.33
673.60	283.90
673.94	283.49
674.28	283.11
674.62	282.70
674.96	282.23
675.30	281.83
675.64	281.39
675.97	280.94
676.31	280.47
676.65	280.05
676.99	279.69
677.33	279.26
677.67	278.87
678.01	278.40
678.34	278.01
678.68	277.65
679.02	277.22
679.36	276.81
679.70	276.39
680.04	276.03
680.37	275.65
680.71	275.29
681.05	274.94
681.39	274.56
681.73	274.16
682.06	273.77
682.40	273.41
682.74	273.09
683.08	272.82
683.42	272.48
683.75	272.18
684.09	271.80
684.43	271.49
684.77	271.17
685.10	270.89
685.44	270.58
685.78	270.26
686.12	269.98
686.45	269.66
686.79	269.33
687.13	269.05
687.46	268.72
687.80	268.42
688.14	268.08
688.48	267.79
688.81	267.50
689.15	267.24
689.49	266.93
689.82	266.62
690.16	266.25
690.50	265.96
690.83	265.66
691.17	265.36
691.51	265.07
691.84	264.79
692.18	264.48
692.52	264.17
692.85	263.88
693.19	263.62
693.52	263.34
693.86	263.06
694.20	262.77
694.53	262.51
694.87	262.21
695.21	261.93
695.54	261.65
695.88	261.36
696.21	261.05
696.55	260.79
696.88	260.51
697.22	260.25
697.56	259.98
697.89	259.67
698.23	259.41
698.56	259.12
698.90	258.86
699.23	258.57
699.57	258.30
699.90	258.02
700.24	257.72
700.58	257.48
700.91	257.26
701.25	257.12
701.58	256.92
701.92	256.71
702.25	256.47
702.59	256.22
702.92	255.98
703.26	255.74
703.59	255.48
703.93	255.33
704.26	255.10
704.60	254.85
704.93	254.61
705.26	254.35
705.60	254.15
705.93	253.89
706.27	253.70
706.60	253.50
706.94	253.32
707.27	253.06
707.61	252.81
707.94	252.55
708.27	252.19
708.61	251.91
708.94	251.64
709.28	251.41
709.61	251.18
709.94	250.97
710.28	250.77
710.61	250.58
710.95	250.26
711.28	250.12
711.61	249.91
711.95	249.74
712.28	249.52
712.61	249.28
712.95	249.16
713.28	249.01
713.61	248.77
713.95	248.52
714.28	248.34
714.61	248.13
714.95	247.93
715.28	247.73
715.61	247.55
715.95	247.38
716.28	247.19
716.61	247.04
716.95	246.84
717.28	246.65
717.61	246.45
717.94	246.27
718.28	246.00
718.61	245.80
718.94	245.60
719.27	245.43
719.61	245.27
719.94	245.05
720.27	244.80
720.60	244.62
720.94	244.45
721.27	244.29
721.60	244.14
721.93	243.97
722.27	243.84
722.60	243.69
722.93	243.51
723.26	243.35
723.59	243.14
723.93	242.99
724.26	242.84
724.59	242.67
724.92	242.52
725.25	242.41
725.59	242.26
725.92	242.13
726.25	241.99
726.58	241.84
726.91	241.68
727.24	241.56
727.57	241.41
727.91	241.25
728.24	241.13
728.57	240.98
728.90	240.85
729.23	240.67
729.56	240.58
729.89	240.44
730.22	240.29
730.55	240.16
730.89	240.03
731.22	239.89
731.55	239.76
731.88	239.62
732.21	239.46
732.54	239.33
732.87	239.20
733.20	239.08
733.53	238.96
733.86	238.84
734.19	238.70
734.52	238.60
734.85	238.57
735.18	238.42
735.51	238.34
735.84	238.22
736.17	238.15
736.50	237.97
736.83	238.01
737.16	237.90
737.49	237.80
737.82	237.69
738.15	237.60
738.48	237.49
738.81	237.38
739.14	237.26
739.47	237.15
739.80	237.04
740.13	236.94
740.46	236.82
740.79	236.69
741.12	236.59
741.45	236.46
741.78	236.29
742.11	236.22
742.44	236.09
742.77	236.00
743.10	235.88
743.43	235.77
743.75	235.54
744.08	235.64
744.41	235.53
744.74	235.44
745.07	235.31
745.40	235.25
745.73	235.21
746.06	235.13
746.39	235.06
746.71	234.96
747.04	234.86
747.37	234.77
747.70	234.72
748.03	234.64
748.36	234.58
748.68	234.49
749.01	234.37
749.34	234.29
749.67	234.22
750.00	234.15
750.33	234.17
750.65	234.10
750.98	233.84
751.31	233.76
751.64	233.69
751.97	233.69
752.29	233.60
752.62	233.46
752.95	233.38
753.28	233.28
753.60	233.21
753.93	233.17
754.26	233.10
754.59	232.99
754.91	232.90
755.24	232.81
755.57	232.80
755.90	232.73
756.22	232.64
756.55	232.55
756.88	232.45
757.20	232.29
757.53	232.19
757.86	232.11
758.19	232.05
758.51	231.98
758.84	231.85
759.17	231.77
759.49	231.72
759.82	231.71
760.15	231.67
760.47	231.60
760.80	231.50
761.13	231.46
761.45	231.41
761.78	231.35
762.11	231.30
762.43	231.18
762.76	231.12
763.08	231.08
763.41	231.04
763.74	230.99
764.06	230.94
764.39	230.89
764.71	230.84
765.04	230.78
765.37	230.72
765.69	230.67
766.02	230.62
766.34	230.56
766.67	230.46
767.00	230.44
767.32	230.46
767.65	230.50
767.97	230.44
768.30	230.40
768.62	230.35
768.95	230.29
769.27	230.25
769.60	230.22
769.92	230.16
770.25	230.10
770.57	230.03
770.90	229.99
771.22	229.94
771.55	229.90
771.87	229.87
772.20	229.83
772.52	229.90
772.85	230.01
773.17	229.98
773.50	229.93
773.82	229.88
774.15	229.77
774.47	229.66
774.80	229.61
775.12	229.57
775.45	229.53
775.77	229.51
776.09	229.49
776.42	229.45
776.74	229.46
777.07	229.43
777.39	229.40
777.72	229.36
778.04	229.35
778.36	229.32
778.69	229.29
779.01	229.27
779.33	229.13
779.66	228.95
779.98	228.91
780.31	228.90
780.63	228.92
780.95	228.92
781.28	228.89
781.60	228.86
781.92	228.83
782.25	228.81
782.57	228.78
782.89	228.75
783.22	228.72
783.54	228.66
783.86	228.65
784.19	228.62
784.51	228.64
784.83	228.60
785.16	228.57
785.48	228.55
785.80	228.53
786.12	228.52
786.45	228.50
786.77	228.49
787.09	228.46
787.42	228.39
787.74	228.37
788.06	228.36
788.38	228.34
788.71	228.31
789.03	228.30
789.35	228.29
789.67	228.26
789.99	228.25
790.32	228.22
790.64	228.21
790.96	228.31
791.28	228.25
791.61	228.22
791.93	228.21
792.25	228.19
792.57	228.26
792.89	228.22
793.21	228.21
793.54	228.18
793.86	228.16
794.18	228.14
794.50	228.10
794.82	228.08
795.14	228.08
795.47	228.09
795.79	228.07
796.11	228.02
796.43	228.01
796.75	227.99
797.07	227.98
797.39	227.96
797.71	227.84
798.04	227.84
798.36	227.83
798.68	227.81
799.00	227.81
799.32	227.73
799.64	227.74
799.96	227.72
800.28	227.73
800.60	227.71
800.92	227.71
801.24	227.69
801.56	227.68
801.89	227.66
802.21	227.65
802.53	227.61
802.85	227.63
803.17	227.68
803.49	227.63
803.81	227.61
804.13	227.59
804.45	227.56
804.77	227.55
805.09	227.54
805.41	227.52
805.73	227.48
806.05	227.44
806.37	227.42
806.69	227.39
807.01	227.36
807.33	227.36
807.65	227.30
807.97	227.35
808.28	227.32
808.60	227.31
808.92	227.28
809.24	227.35
809.56	227.32
809.88	227.26
810.20	227.26
810.52	227.28
810.84	227.25
811.16	227.23
811.48	227.21
811.80	227.24
812.12	227.23
812.43	227.24
812.75	227.24
813.07	227.22
813.39	227.22
813.71	227.20
814.03	227.18
814.35	227.18
814.67	227.12
814.98	227.10
815.30	227.09
815.62	227.06
815.94	226.97
816.26	226.98
816.58	226.95
816.89	226.95
817.21	226.91
817.53	226.91
817.85	226.91
818.17	226.90
818.48	226.85
818.80	226.86
819.12	226.84
819.44	226.81
819.76	226.79
820.07	226.78
820.39	226.77
820.71	226.78
821.03	226.77
821.34	226.76
821.66	226.77
821.98	226.78
822.30	226.77
822.61	226.84
822.93	226.81
823.25	226.80
823.57	226.78
823.88	226.79
824.20	226.78
824.52	226.79
824.83	226.78
825.15	226.77
825.47	226.75
825.79	226.75
826.10	226.74
826.42	226.73
826.74	226.73
827.05	226.73
827.37	226.72
827.69	226.71
828.00	226.71
828.32	226.70
828.64	226.68
828.95	226.74
829.27	226.70
829.58	226.70
829.90	226.72
830.22	226.72
830.53	226.69
830.85	226.68
831.17	226.64
831.48	226.64
831.80	226.64
832.11	226.63
832.43	226.60
832.75	226.60
833.06	226.67
833.38	226.63
833.69	226.62
834.01	226.62
834.32	226.61
834.64	226.60
834.96	226.59
835.27	226.59
835.59	226.54
835.90	226.52
836.22	226.51
836.53	226.48
836.85	226.46
837.16	226.59
837.48	226.58
837.79	226.62
838.11	226.62
838.42	226.62
838.74	226.63
839.05	226.62
839.37	226.61
839.68	226.53
840.00	226.52
840.31	226.54
840.63	226.52
840.94	226.51
841.26	226.49
841.57	226.48
841.88	226.49
842.20	226.47
842.51	226.45
842.83	226.45
843.14	226.56
843.46	226.55
843.77	226.47
844.08	226.47
844.40	226.42
844.71	226.41
845.03	226.39
845.34	226.38
845.65	226.37
845.97	226.38
846.28	226.38
846.60	226.39
846.91	226.36
847.22	226.36
847.54	226.38
847.85	226.39
848.16	226.38
848.48	226.35
848.79	226.39
849.10	226.41
849.42	226.41
849.73	226.29
850.04	226.29
850.36	226.24
850.67	226.26
850.98	226.27
851.30	226.28
851.61	226.27
851.92	226.27
852.23	226.30
852.55	226.31
852.86	226.31
853.17	226.31
853.49	226.34
853.80	226.37
854.11	226.38
854.42	226.39
854.74	226.38
855.05	226.38
855.36	226.32
855.67	226.32
855.99	226.32
856.30	226.47
856.61	226.46
856.92	226.47
857.23	226.47
857.55	226.45
857.86	226.44
858.17	226.46
858.48	226.44
858.79	226.41
859.11	226.42
859.42	226.41
859.73	226.39
860.04	226.38
860.35	226.34
860.66	226.29
860.98	226.28
861.29	226.30
861.60	226.29
861.91	226.32
862.22	226.30
862.53	226.27
862.84	226.12
863.16	226.15
863.47	226.13
863.78	226.11
864.09	226.11
864.40	226.12
864.71	226.12
865.02	226.13
865.33	226.12
865.64	226.09
865.95	226.09
866.27	226.18
866.58	226.16
866.89	226.18
867.20	226.18
867.51	226.16
867.82	226.15
868.13	226.19
868.44	226.16
868.75	226.19
869.06	226.19
869.37	226.21
869.68	226.17
869.99	226.19
870.30	226.20
870.61	226.21
870.92	226.19
871.23	226.18
871.54	226.19
871.85	226.22
872.16	226.23
872.47	226.22
872.78	226.15
873.09	226.15
873.40	226.14
873.71	226.15
874.02	226.16
874.33	226.15
874.64	226.12
874.95	226.14
875.26	226.11
875.56	226.11
875.87	226.10
876.18	226.09
876.49	226.21
876.80	226.20
877.11	226.17
877.42	226.18
877.73	226.18
878.04	226.16
878.35	226.16
878.66	226.16
878.96	226.16
879.27	226.15
879.58	226.14
879.89	226.14
880.20	226.17
880.51	226.16
880.82	226.16
881.12	226.17
881.43	226.14
881.74	226.12
882.05	226.12
882.36	226.13
882.67	226.13
882.97	226.00
883.28	225.99
883.59	225.98
883.90	225.99
884.21	226.01
884.51	226.00
884.82	225.98
885.13	225.98
885.44	225.98
885.74	225.98
886.05	225.97
886.36	225.97
886.67	225.93
886.98	225.99
887.28	226.00
887.59	226.00
887.90	226.01
888.20	226.01
888.51	226.03
888.82	226.01
889.13	226.02
889.43	226.13
889.74	226.12
890.05	226.13
890.35	226.11
890.66	226.09
890.97	226.08
891.28	226.07
891.58	226.07
891.89	226.07
892.20	226.05
892.50	226.04
892.81	226.04
893.12	226.04
893.42	225.97
893.73	225.97
894.04	225.97
894.34	225.98
894.65	225.97
894.95	225.96
895.26	225.97
895.57	226.02
895.87	225.89
896.18	225.91
896.48	225.92
896.79	225.92
897.10	225.94
897.40	225.94
897.71	225.96
898.01	225.94
898.32	225.96
898.63	225.96
898.93	225.96
899.24	225.97
899.54	225.96
899.85	225.96
900.15	225.95
900.46	225.96
900.76	225.96
901.07	225.97
901.38	225.96
901.68	225.97
901.99	225.91
902.29	225.92
902.60	225.90
902.90	225.90
903.21	225.89
903.51	225.88
903.82	225.90
904.12	225.90
904.43	225.91
904.73	225.90
905.03	225.91
905.34	226.03
905.64	226.02
905.95	226.02
906.25	226.02
906.56	226.01
906.86	226.01
907.17	226.00
907.47	226.00
907.77	225.99
908.08	225.96
908.38	225.97
908.69	225.98
908.99	226.00
909.30	226.01
909.60	226.00
909.90	226.00
910.21	225.97
910.51	225.95
910.81	225.95
911.12	225.95
911.42	225.95
911.73	225.82
912.03	225.83
912.33	225.86
912.64	225.85
912.94	225.83
913.24	225.82
913.55	225.80
913.85	225.79
914.15	225.82
914.46	225.83
914.76	225.82
915.06	225.81
915.37	225.79
915.67	225.77
915.97	225.78
916.27	225.76
916.58	225.77
916.88	225.76
917.18	225.75
917.49	225.83
917.79	225.83
918.09	225.85
918.39	225.88
918.70	225.86
919.00	225.87
919.30	225.93
919.60	225.93
919.91	225.92
920.21	225.93
920.51	225.90
920.81	225.89
921.12	225.91
921.42	225.91
921.72	225.92
922.02	225.93
922.32	225.94
922.63	225.95
922.93	226.02
923.23	226.03
923.53	226.02
923.83	225.93
924.13	225.95
924.44	225.94
924.74	225.96
925.04	225.99
925.34	225.98
925.64	225.93
925.94	225.93
926.24	226.00
926.55	225.99
926.85	226.01
927.15	226.01
927.45	226.00
927.75	226.00
928.05	226.00
928.35	225.99
928.65	226.01
928.95	226.02
929.26	225.96
929.56	225.98
929.86	226.00
930.16	225.99
930.46	225.98
930.76	225.98
931.06	225.92
931.36	225.88
931.66	225.90
931.96	225.92
932.26	225.92
932.56	225.87
932.86	225.88
933.16	225.88
933.46	225.86
933.76	225.85
934.06	225.87
934.36	225.91
934.66	225.91
934.96	225.89
935.26	225.89
935.56	225.91
935.86	225.88
936.16	225.86
936.46	225.84
936.76	225.84
937.06	225.82
937.36	225.83
937.66	225.84
937.96	225.82
938.26	225.80
938.56	225.79
938.86	225.80
939.16	225.82
939.46	225.83
939.76	225.84
940.06	225.84
940.35	225.81
940.65	225.75
940.95	225.76
941.25	225.73
941.55	225.72
941.85	225.71
942.15	225.74
942.45	225.77
942.75	225.77
943.04	225.78
943.34	225.80
943.64	225.79
943.94	225.77
944.24	225.77
944.54	225.78
944.84	225.78
945.13	225.76
945.43	225.74
945.73	225.73
946.03	225.72
946.33	225.71
946.62	225.69
946.92	225.69
947.22	225.69
947.52	225.70
947.82	225.72
948.11	225.71
948.41	225.67
948.71	225.64
949.01	225.65
949.31	225.64
949.60	225.63
949.90	225.65
950.20	225.65
950.50	225.64
950.79	225.63
951.09	225.65
951.39	225.65
951.69	225.64
951.98	225.66
952.28	225.67
952.58	225.67
952.87	225.67
953.17	225.69
953.47	225.68
953.76	225.67
954.06	225.65
954.36	225.64
954.66	225.64
954.95	225.67
955.25	225.67
955.55	225.69
955.84	225.67
956.14	225.67
956.44	225.68
956.73	225.66
957.03	225.67
957.32	225.67
957.62	225.66
957.92	225.69
958.21	225.67
958.51	225.82
958.81	225.83
959.10	225.85
959.40	225.87
959.69	225.88
959.99	225.90
960.29	225.91
960.58	225.90
960.88	225.95
961.17	225.94
961.47	225.95
961.76	225.94
962.06	225.96
962.36	225.94
962.65	225.95
962.95	225.96
963.24	225.94
963.54	225.95
963.83	225.96
964.13	225.95
964.42	225.93
964.72	225.82
965.01	225.83
965.31	225.82
965.60	225.78
965.90	225.86
966.19	225.83
966.49	225.84
966.78	225.84
967.08	225.82
967.37	225.82
967.67	225.79
967.96	225.82
968.26	225.81
968.55	225.83
968.85	225.82
969.14	225.82
969.43	225.82
969.73	225.80
970.02	225.80
970.32	225.79
970.61	225.77
970.91	225.74
971.20	225.72
971.49	225.71
971.79	225.73
972.08	225.64
972.38	225.65
972.67	225.64
972.96	225.66
973.26	225.63
973.55	225.67
973.85	225.67
974.14	225.65
974.43	225.66
974.73	225.64
975.02	225.62
975.31	225.63
975.61	225.63
975.90	225.62
976.19	225.61
976.49	225.62
976.78	225.63
977.07	225.63
977.37	225.64
977.66	225.65
977.95	225.64
978.24	225.65
978.54	225.67
978.83	225.66
979.12	225.66
979.42	225.66
979.71	225.63
980.00	225.63
980.29	225.63
980.59	225.61
980.88	225.65
981.17	225.65
981.46	225.65
981.76	225.65
982.05	225.69
982.34	225.69
982.63	225.69
982.93	225.69
983.22	225.72
983.51	225.73
983.80	225.74
984.09	225.76
984.39	225.75
984.68	225.73
984.97	225.74
985.26	225.73
985.55	225.74
985.85	225.72
986.14	225.74
986.43	225.75
986.72	225.74
987.01	225.70
987.30	225.70
987.59	225.70
987.89	225.70
988.18	225.66
988.47	225.65
988.76	225.64
989.05	225.63
989.34	225.61
989.63	225.64
989.92	225.62
990.22	225.60
990.51	225.60
990.80	225.59
991.09	225.60
991.38	225.62
991.67	225.60
991.96	225.59
992.25	225.59
992.54	225.57
992.83	225.57
993.12	225.57
993.41	225.59
993.70	225.65
993.99	225.66
994.28	225.68
994.58	225.70
994.87	225.69
995.16	225.69
995.45	225.68
995.74	225.63
996.03	225.65
996.32	225.67
996.61	225.70
996.90	225.70
997.19	225.69
997.48	225.69
997.77	225.67
998.06	225.68
998.34	225.67
998.63	225.67
998.92	225.67
999.21	225.69
999.50	225.69
999.79	225.64
1000.08	225.64
1000.37	225.64
1000.66	225.62
1000.95	225.66
1001.24	225.67
1001.53	225.68
1001.82	225.68
1002.11	225.65
1002.40	225.66
1002.68	225.69
1002.97	225.78
1003.26	225.76
1003.55	225.74
1003.84	225.75
1004.13	225.80
1004.42	225.79
1004.71	225.79
1004.99	225.78
1005.28	225.81
1005.57	225.80
1005.86	225.79
1006.15	225.78
1006.44	225.75
1006.72	225.77
1007.01	225.74
1007.30	225.74
1007.59	225.73
1007.88	225.72
1008.17	225.73
1008.45	225.71
1008.74	225.65
1009.03	225.59
1009.32	225.60
1009.60	225.60
1009.89	225.59
1010.18	225.53
1010.47	225.53
1010.76	225.53
1011.04	225.53
1011.33	225.52
1011.62	225.53
1011.91	225.54
1012.19	225.55
1012.48	225.55
1012.77	225.55
1013.05	225.60
1013.34	225.59
1013.63	225.59
1013.92	225.60
1014.20	225.59
1014.49	225.60
1014.78	225.61
1015.06	225.57
1015.35	225.57
1015.64	225.59
1015.92	225.61
1016.21	225.62
1016.50	225.62
1016.78	225.64
1017.07	225.65
1017.36	225.62
1017.64	225.60
1017.93	225.61
1018.22	225.60
1018.50	225.60
1018.79	225.60
1019.08	225.55
1019.36	225.56
1019.65	225.55
1019.93	225.58
1020.22	225.60
1020.51	225.67
1020.79	225.65
1021.08	225.45
1021.36	225.41
1021.65	225.61
1021.94	225.53
1022.22	225.69
1022.51	225.35
1022.79	226.20
1023.08	225.77
1023.36	227.11
1023.65	225.33
>>>>>End Processed Spectral Data<<<<<
