SpectraSuite Data File
++++++++++++++++++++++++++++++++++++
Date: Fri Oct 02 18:57:47 EDT 2015
User: lab3
Dark Spectrum Present: No
Reference Spectrum Present: No
Number of Sampled Component Spectra: 1
Spectrometers: USB2E7196
Integration Time (usec): 46000 (USB2E7196)
Spectra Averaged: 1500 (USB2E7196)
Boxcar Smoothing: 10 (USB2E7196)
Correct for Electrical Dark: No (USB2E7196)
Strobe/Lamp Enabled: No (USB2E7196)
Correct for Detector Non-linearity: No (USB2E7196)
Correct for Stray Light: No (USB2E7196)
Number of Pixels in Processed Spectrum: 2048
>>>>>Begin Processed Spectral Data<<<<<
339.09	0.00
339.48	215.67
339.86	217.15
340.24	218.68
340.63	219.98
341.01	223.11
341.39	222.66
341.78	224.05
342.16	225.21
342.54	225.66
342.93	214.04
343.31	224.86
343.69	225.39
344.07	225.85
344.46	226.27
344.84	226.65
345.22	226.88
345.60	227.13
345.99	227.33
346.37	227.47
346.75	227.57
347.13	227.66
347.52	227.72
347.90	227.82
348.28	227.86
348.66	227.92
349.05	227.92
349.43	227.97
349.81	228.03
350.19	228.09
350.57	228.16
350.96	228.23
351.34	228.33
351.72	228.43
352.10	228.55
352.48	228.63
352.87	228.69
353.25	228.76
353.63	228.83
354.01	228.90
354.39	228.97
354.77	229.06
355.15	229.17
355.54	229.22
355.92	229.25
356.30	229.33
356.68	229.49
357.06	229.56
357.44	229.60
357.82	229.67
358.20	229.79
358.58	229.85
358.97	229.92
359.35	230.00
359.73	230.07
360.11	230.13
360.49	230.19
360.87	230.24
361.25	230.29
361.63	230.38
362.01	230.43
362.39	230.45
362.77	230.50
363.15	230.52
363.53	230.57
363.91	230.61
364.29	230.64
364.67	230.53
365.05	230.56
365.43	230.60
365.81	230.63
366.19	230.65
366.57	230.71
366.95	230.71
367.33	230.67
367.71	230.68
368.09	230.68
368.47	230.68
368.85	230.67
369.23	230.68
369.61	230.62
369.99	230.65
370.37	230.65
370.75	230.72
371.13	230.69
371.51	230.64
371.89	230.62
372.27	230.59
372.65	230.57
373.03	230.53
373.41	230.49
373.78	230.43
374.16	230.32
374.54	230.24
374.92	230.18
375.30	230.15
375.68	230.08
376.06	230.05
376.44	229.99
376.82	229.95
377.19	229.91
377.57	229.85
377.95	229.75
378.33	229.69
378.71	229.52
379.09	229.48
379.47	229.45
379.84	229.38
380.22	229.31
380.60	229.24
380.98	229.19
381.36	229.13
381.73	229.08
382.11	229.06
382.49	229.03
382.87	228.97
383.25	228.92
383.62	229.03
384.00	228.95
384.38	228.91
384.76	228.89
385.13	228.90
385.51	228.86
385.89	228.82
386.27	228.78
386.64	228.77
387.02	228.72
387.40	228.69
387.78	228.67
388.15	228.64
388.53	228.62
388.91	228.59
389.29	228.56
389.66	228.54
390.04	228.50
390.42	228.49
390.79	228.48
391.17	228.46
391.55	228.30
391.92	228.30
392.30	228.30
392.68	228.26
393.05	228.23
393.43	228.23
393.81	228.23
394.18	228.21
394.56	228.21
394.94	228.25
395.31	228.24
395.69	228.28
396.06	228.30
396.44	228.32
396.82	228.33
397.19	228.41
397.57	228.42
397.95	228.46
398.32	228.45
398.70	228.49
399.07	228.56
399.45	228.60
399.82	228.63
400.20	228.67
400.58	228.73
400.95	228.73
401.33	228.82
401.70	228.97
402.08	229.07
402.45	229.15
402.83	229.27
403.20	229.38
403.58	229.47
403.95	229.61
404.33	229.75
404.71	229.89
405.08	230.09
405.46	230.25
405.83	230.43
406.21	230.62
406.58	230.83
406.96	231.03
407.33	231.27
407.70	231.54
408.08	231.92
408.45	232.23
408.83	232.58
409.20	232.89
409.58	233.17
409.95	233.55
410.33	233.96
410.70	234.35
411.08	234.82
411.45	235.31
411.82	235.81
412.20	236.39
412.57	237.08
412.95	237.61
413.32	238.32
413.69	239.03
414.07	239.80
414.44	240.63
414.82	241.46
415.19	242.45
415.56	243.45
415.94	244.48
416.31	245.64
416.68	246.81
417.06	248.16
417.43	249.43
417.81	250.89
418.18	252.37
418.55	253.99
418.93	255.67
419.30	257.43
419.67	259.31
420.04	261.22
420.42	263.22
420.79	265.54
421.16	267.88
421.54	270.26
421.91	272.74
422.28	275.32
422.66	278.10
423.03	280.75
423.40	283.54
423.77	286.52
424.15	289.57
424.52	292.76
424.89	296.20
425.26	299.62
425.64	302.80
426.01	306.39
426.38	310.06
426.75	313.83
427.13	317.70
427.50	321.76
427.87	325.97
428.24	330.23
428.61	334.32
428.99	338.74
429.36	343.58
429.73	348.21
430.10	352.85
430.47	357.60
430.85	362.50
431.22	367.75
431.59	373.15
431.96	378.42
432.33	384.27
432.70	389.83
433.08	396.41
433.45	402.62
433.82	408.75
434.19	415.59
434.56	422.33
434.93	428.84
435.30	435.30
435.68	442.58
436.05	449.70
436.42	456.79
436.79	463.25
437.16	470.22
437.53	477.68
437.90	485.16
438.27	492.47
438.64	500.35
439.01	507.48
439.38	513.99
439.75	520.25
440.13	527.33
440.50	534.05
440.87	539.35
441.24	545.17
441.61	551.48
441.98	556.07
442.35	561.54
442.72	567.09
443.09	572.37
443.46	575.67
443.83	578.03
444.20	579.98
444.57	582.98
444.94	584.61
445.31	586.30
445.68	587.70
446.05	588.66
446.42	588.12
446.79	587.39
447.16	586.73
447.53	586.12
447.90	583.67
448.27	581.29
448.64	577.81
449.01	575.35
449.37	570.63
449.74	566.32
450.11	560.83
450.48	554.85
450.85	548.85
451.22	543.73
451.59	538.75
451.96	534.23
452.33	527.72
452.70	521.95
453.07	514.94
453.43	507.94
453.80	501.19
454.17	494.72
454.54	488.77
454.91	482.08
455.28	475.81
455.65	469.88
456.02	463.66
456.38	458.67
456.75	452.22
457.12	447.03
457.49	441.81
457.86	436.90
458.23	432.61
458.59	427.86
458.96	422.98
459.33	418.69
459.70	414.34
460.07	411.05
460.43	407.14
460.80	403.52
461.17	400.37
461.54	396.95
461.91	393.77
462.27	390.53
462.64	387.91
463.01	384.88
463.38	381.85
463.74	379.11
464.11	376.69
464.48	374.53
464.85	372.16
465.21	370.38
465.58	368.39
465.95	366.10
466.32	364.28
466.68	362.51
467.05	360.70
467.42	358.93
467.78	357.04
468.15	355.29
468.52	354.03
468.88	352.31
469.25	350.73
469.62	349.49
469.98	348.13
470.35	346.94
470.72	345.84
471.08	344.73
471.45	343.78
471.82	342.74
472.18	341.63
472.55	340.93
472.92	340.04
473.28	339.34
473.65	338.57
474.02	337.85
474.38	337.24
474.75	336.91
475.11	336.43
475.48	336.21
475.85	335.96
476.21	335.84
476.58	335.76
476.94	335.90
477.31	335.97
477.67	336.08
478.04	336.26
478.41	336.56
478.77	336.97
479.14	337.25
479.50	337.73
479.87	338.37
480.23	339.01
480.60	339.65
480.96	340.28
481.33	341.22
481.69	342.17
482.06	343.11
482.42	343.95
482.79	345.03
483.15	346.26
483.52	347.66
483.88	349.01
484.25	350.46
484.61	351.96
484.98	353.57
485.34	355.40
485.71	357.33
486.07	359.36
486.44	361.38
486.80	363.65
487.17	366.01
487.53	368.59
487.90	371.28
488.26	374.21
488.62	377.31
488.99	380.41
489.35	383.69
489.72	387.25
490.08	391.00
490.44	394.86
490.81	398.86
491.17	402.97
491.54	407.38
491.90	411.96
492.26	416.85
492.63	421.97
492.99	427.31
493.36	432.83
493.72	438.67
494.08	444.65
494.45	450.99
494.81	457.59
495.17	464.37
495.54	471.51
495.90	478.94
496.26	486.55
496.63	494.41
496.99	502.57
497.35	511.09
497.72	519.90
498.08	528.93
498.44	538.29
498.80	548.19
499.17	558.34
499.53	568.78
499.89	579.60
500.26	590.64
500.62	601.98
500.98	613.92
501.34	626.05
501.71	638.68
502.07	651.54
502.43	664.90
502.79	678.46
503.16	692.50
503.52	706.76
503.88	721.42
504.24	736.52
504.60	751.86
504.97	767.67
505.33	783.90
505.69	801.02
506.05	818.44
506.41	835.79
506.78	853.39
507.14	871.50
507.50	890.01
507.86	908.93
508.22	928.04
508.59	947.01
508.95	966.82
509.31	987.37
509.67	1008.56
510.03	1029.77
510.39	1051.09
510.75	1072.63
511.12	1094.41
511.48	1116.36
511.84	1138.44
512.20	1160.94
512.56	1184.27
512.92	1207.60
513.28	1230.59
513.64	1253.92
514.00	1277.66
514.37	1301.64
514.73	1325.73
515.09	1349.75
515.45	1374.11
515.81	1398.59
516.17	1423.30
516.53	1447.43
516.89	1471.53
517.25	1495.83
517.61	1520.06
517.97	1544.78
518.33	1568.99
518.69	1593.18
519.05	1617.94
519.41	1642.95
519.77	1668.04
520.13	1692.51
520.49	1716.98
520.85	1741.82
521.21	1766.05
521.57	1790.83
521.93	1815.14
522.29	1839.88
522.65	1864.22
523.01	1888.49
523.37	1912.40
523.73	1937.00
524.09	1961.41
524.45	1985.56
524.81	2009.36
525.17	2033.04
525.53	2056.09
525.89	2079.60
526.25	2103.18
526.61	2125.73
526.97	2148.44
527.33	2171.19
527.68	2193.58
528.04	2215.20
528.40	2235.84
528.76	2257.05
529.12	2277.61
529.48	2297.77
529.84	2316.28
530.20	2335.44
530.56	2353.99
530.91	2372.75
531.27	2391.14
531.63	2408.70
531.99	2425.90
532.35	2442.50
532.71	2459.07
533.07	2476.32
533.42	2491.86
533.78	2508.34
534.14	2525.04
534.50	2540.68
534.86	2556.17
535.21	2569.75
535.57	2583.84
535.93	2597.77
536.29	2610.38
536.65	2623.07
537.00	2635.13
537.36	2648.00
537.72	2659.27
538.08	2670.23
538.44	2680.55
538.79	2690.45
539.15	2699.47
539.51	2708.05
539.87	2715.87
540.22	2722.00
540.58	2728.28
540.94	2735.80
541.29	2741.48
541.65	2745.41
542.01	2748.78
542.37	2751.49
542.72	2755.55
543.08	2757.94
543.44	2760.83
543.79	2762.67
544.15	2763.56
544.51	2764.95
544.87	2765.18
545.22	2764.69
545.58	2763.54
545.94	2762.37
546.29	2759.85
546.65	2757.44
547.01	2755.08
547.36	2753.42
547.72	2751.57
548.07	2748.02
548.43	2742.86
548.79	2737.08
549.14	2732.59
549.50	2728.18
549.86	2722.84
550.21	2716.38
550.57	2710.80
550.92	2702.99
551.28	2695.87
551.64	2688.95
551.99	2681.44
552.35	2673.36
552.70	2665.64
553.06	2658.09
553.41	2649.95
553.77	2641.56
554.13	2633.02
554.48	2623.53
554.84	2612.94
555.19	2603.07
555.55	2593.07
555.90	2583.11
556.26	2573.59
556.61	2562.98
556.97	2550.76
557.32	2539.10
557.68	2527.28
558.03	2515.32
558.39	2504.52
558.74	2493.92
559.10	2481.59
559.45	2469.62
559.81	2458.26
560.16	2446.09
560.52	2434.20
560.87	2422.59
561.23	2410.18
561.58	2398.04
561.94	2385.42
562.29	2372.20
562.64	2359.61
563.00	2346.75
563.35	2334.45
563.71	2321.86
564.06	2309.05
564.42	2297.03
564.77	2284.31
565.12	2271.58
565.48	2258.75
565.83	2245.92
566.19	2233.15
566.54	2220.38
566.89	2206.39
567.25	2192.67
567.60	2180.22
567.96	2166.90
568.31	2152.20
568.66	2138.37
569.02	2125.48
569.37	2112.56
569.72	2100.23
570.08	2086.57
570.43	2072.61
570.78	2058.28
571.14	2043.34
571.49	2029.19
571.84	2015.55
572.20	2000.58
572.55	1985.96
572.90	1971.10
573.26	1956.20
573.61	1940.80
573.96	1925.84
574.31	1911.24
574.67	1896.45
575.02	1880.78
575.37	1865.16
575.72	1850.49
576.08	1835.98
576.43	1820.38
576.78	1805.26
577.13	1790.39
577.49	1775.88
577.84	1761.92
578.19	1746.97
578.54	1732.29
578.90	1717.06
579.25	1701.71
579.60	1688.01
579.95	1674.07
580.30	1660.04
580.66	1645.77
581.01	1631.40
581.36	1617.09
581.71	1603.72
582.06	1590.19
582.42	1576.92
582.77	1563.67
583.12	1550.28
583.47	1536.86
583.82	1523.51
584.17	1509.84
584.53	1495.79
584.88	1482.09
585.23	1467.90
585.58	1454.72
585.93	1441.73
586.28	1429.47
586.63	1417.24
586.98	1404.41
587.34	1391.64
587.69	1378.63
588.04	1365.95
588.39	1353.68
588.74	1341.48
589.09	1329.07
589.44	1316.32
589.79	1304.23
590.14	1292.19
590.49	1280.13
590.84	1268.17
591.19	1256.64
591.54	1244.89
591.89	1233.30
592.25	1221.87
592.60	1210.20
592.95	1198.83
593.30	1187.65
593.65	1176.14
594.00	1164.70
594.35	1153.95
594.70	1142.81
595.05	1132.56
595.40	1122.18
595.75	1111.63
596.10	1101.67
596.45	1091.31
596.80	1081.34
597.15	1071.09
597.50	1061.06
597.85	1051.34
598.19	1041.50
598.54	1031.73
598.89	1022.40
599.24	1013.42
599.59	1004.27
599.94	996.04
600.29	987.55
600.64	978.77
600.99	969.64
601.34	960.91
601.69	951.86
602.04	943.47
602.39	934.91
602.74	926.38
603.08	917.82
603.43	909.24
603.78	900.86
604.13	892.62
604.48	884.35
604.83	876.26
605.18	868.11
605.53	860.10
605.87	851.89
606.22	844.08
606.57	836.14
606.92	828.07
607.27	819.95
607.62	812.26
607.96	804.93
608.31	798.07
608.66	790.99
609.01	784.18
609.36	777.50
609.70	770.52
610.05	763.60
610.40	756.94
610.75	750.24
611.10	743.90
611.44	737.42
611.79	731.03
612.14	724.56
612.49	718.22
612.83	712.16
613.18	706.25
613.53	700.17
613.88	694.18
614.22	688.65
614.57	682.97
614.92	677.09
615.27	671.40
615.61	665.75
615.96	660.16
616.31	654.60
616.65	649.07
617.00	643.83
617.35	638.65
617.70	633.52
618.04	628.41
618.39	623.27
618.74	618.39
619.08	613.54
619.43	608.80
619.78	604.09
620.12	599.33
620.47	594.76
620.82	590.29
621.16	585.80
621.51	581.17
621.85	576.67
622.20	572.35
622.55	568.05
622.89	563.79
623.24	559.54
623.59	555.32
623.93	551.30
624.28	547.35
624.62	543.48
624.97	539.65
625.32	535.83
625.66	531.93
626.01	528.01
626.35	524.18
626.70	520.39
627.04	516.77
627.39	513.13
627.73	509.63
628.08	506.21
628.43	502.81
628.77	499.52
629.12	496.30
629.46	493.06
629.81	489.76
630.15	486.49
630.50	483.32
630.84	480.20
631.19	477.12
631.53	474.17
631.88	471.20
632.22	468.24
632.57	465.55
632.91	462.92
633.26	460.36
633.60	457.80
633.95	455.33
634.29	452.76
634.64	450.27
634.98	447.56
635.32	445.03
635.67	442.70
636.01	440.28
636.36	437.92
636.70	435.74
637.05	433.51
637.39	431.32
637.73	429.15
638.08	427.09
638.42	424.99
638.77	422.76
639.11	420.48
639.45	418.29
639.80	416.06
640.14	413.94
640.49	411.79
640.83	409.63
641.17	407.54
641.52	405.49
641.86	403.48
642.20	401.68
642.55	399.71
642.89	397.77
643.23	395.92
643.58	394.24
643.92	392.41
644.26	390.66
644.61	388.96
644.95	387.21
645.29	385.42
645.64	383.63
645.98	381.93
646.32	380.36
646.66	378.77
647.01	377.19
647.35	375.66
647.69	374.11
648.04	372.72
648.38	371.22
648.72	369.77
649.06	368.29
649.41	366.86
649.75	365.46
650.09	364.08
650.43	362.72
650.78	361.30
651.12	359.90
651.46	358.57
651.80	357.25
652.14	355.98
652.49	354.74
652.83	353.51
653.17	352.30
653.51	351.14
653.85	350.02
654.20	348.84
654.54	347.60
654.88	346.45
655.22	345.33
655.56	344.19
655.90	343.12
656.25	342.08
656.59	341.00
656.93	340.00
657.27	339.01
657.61	337.96
657.95	336.93
658.29	335.93
658.64	335.00
658.98	334.04
659.32	333.10
659.66	332.20
660.00	331.32
660.34	330.43
660.68	329.50
661.02	328.54
661.36	327.63
661.70	326.76
662.05	325.90
662.39	325.04
662.73	324.27
663.07	323.49
663.41	322.68
663.75	321.86
664.09	321.04
664.43	320.18
664.77	319.43
665.11	318.62
665.45	317.89
665.79	317.14
666.13	316.34
666.47	315.55
666.81	314.75
667.15	313.91
667.49	313.20
667.83	312.56
668.17	311.87
668.51	311.24
668.85	310.61
669.19	310.01
669.53	309.33
669.87	308.62
670.21	307.95
670.55	307.32
670.89	306.75
671.23	306.16
671.57	305.56
671.91	305.01
672.25	304.47
672.58	303.91
672.92	303.29
673.26	302.78
673.60	302.27
673.94	301.77
674.28	301.31
674.62	300.78
674.96	300.22
675.30	299.72
675.64	299.17
675.97	298.63
676.31	298.05
676.65	297.53
676.99	297.07
677.33	296.53
677.67	296.03
678.01	295.47
678.34	294.99
678.68	294.52
679.02	293.99
679.36	293.49
679.70	292.98
680.04	292.51
680.37	292.01
680.71	291.55
681.05	291.10
681.39	290.60
681.73	290.08
682.06	289.56
682.40	289.08
682.74	288.66
683.08	288.27
683.42	287.82
683.75	287.42
684.09	286.92
684.43	286.50
684.77	286.06
685.10	285.68
685.44	285.25
685.78	284.83
686.12	284.43
686.45	284.00
686.79	283.57
687.13	283.17
687.46	282.73
687.80	282.31
688.14	281.85
688.48	281.46
688.81	281.04
689.15	280.69
689.49	280.27
689.82	279.84
690.16	279.37
690.50	278.97
690.83	278.55
691.17	278.14
691.51	277.73
691.84	277.35
692.18	276.90
692.52	276.47
692.85	276.06
693.19	275.69
693.52	275.30
693.86	274.90
694.20	274.51
694.53	274.13
694.87	273.73
695.21	273.33
695.54	272.94
695.88	272.56
696.21	272.14
696.55	271.77
696.88	271.39
697.22	271.01
697.56	270.62
697.89	270.21
698.23	269.83
698.56	269.43
698.90	269.05
699.23	268.66
699.57	268.28
699.90	267.90
700.24	267.49
700.58	267.15
700.91	266.85
701.25	266.61
701.58	266.32
701.92	266.00
702.25	265.67
702.59	265.32
702.92	264.98
703.26	264.63
703.59	264.27
703.93	264.04
704.26	263.72
704.60	263.39
704.93	263.05
705.26	262.72
705.60	262.44
705.93	262.08
706.27	261.80
706.60	261.53
706.94	261.26
707.27	260.91
707.61	260.58
707.94	260.23
708.27	259.80
708.61	259.42
708.94	259.10
709.28	258.79
709.61	258.48
709.94	258.21
710.28	257.93
710.61	257.69
710.95	257.31
711.28	257.10
711.61	256.82
711.95	256.57
712.28	256.29
712.61	255.99
712.95	255.81
713.28	255.60
713.61	255.29
713.95	254.98
714.28	254.74
714.61	254.48
714.95	254.23
715.28	253.98
715.61	253.74
715.95	253.51
716.28	253.27
716.61	253.07
716.95	252.81
717.28	252.56
717.61	252.30
717.94	252.05
718.28	251.73
718.61	251.50
718.94	251.24
719.27	251.02
719.61	250.81
719.94	250.55
720.27	250.26
720.60	250.05
720.94	249.84
721.27	249.63
721.60	249.44
721.93	249.22
722.27	249.05
722.60	248.85
722.93	248.62
723.26	248.41
723.59	248.18
723.93	247.99
724.26	247.79
724.59	247.60
724.92	247.42
725.25	247.28
725.59	247.09
725.92	246.93
726.25	246.75
726.58	246.56
726.91	246.37
727.24	246.21
727.57	246.04
727.91	245.84
728.24	245.70
728.57	245.51
728.90	245.36
729.23	245.14
729.56	245.02
729.89	244.86
730.22	244.68
730.55	244.52
730.89	244.36
731.22	244.20
731.55	244.04
731.88	243.88
732.21	243.70
732.54	243.53
732.87	243.38
733.20	243.24
733.53	243.09
733.86	242.95
734.19	242.78
734.52	242.65
734.85	242.59
735.18	242.41
735.51	242.29
735.84	242.15
736.17	242.05
736.50	241.85
736.83	241.87
737.16	241.73
737.49	241.61
737.82	241.47
738.15	241.35
738.48	241.22
738.81	241.08
739.14	240.94
739.47	240.81
739.80	240.67
740.13	240.55
740.46	240.42
740.79	240.27
741.12	240.14
741.45	239.99
741.78	239.78
742.11	239.69
742.44	239.54
742.77	239.43
743.10	239.29
743.43	239.17
743.75	238.91
744.08	238.98
744.41	238.85
744.74	238.73
745.07	238.59
745.40	238.51
745.73	238.45
746.06	238.34
746.39	238.25
746.71	238.14
747.04	238.02
747.37	237.91
747.70	237.84
748.03	237.75
748.36	237.67
748.68	237.58
749.01	237.45
749.34	237.36
749.67	237.27
750.00	237.19
750.33	237.19
750.65	237.10
750.98	236.83
751.31	236.75
751.64	236.67
751.97	236.64
752.29	236.54
752.62	236.39
752.95	236.30
753.28	236.19
753.60	236.09
753.93	236.04
754.26	235.96
754.59	235.84
754.91	235.73
755.24	235.64
755.57	235.61
755.90	235.51
756.22	235.40
756.55	235.29
756.88	235.19
757.20	235.01
757.53	234.90
757.86	234.82
758.19	234.73
758.51	234.64
758.84	234.50
759.17	234.41
759.49	234.32
759.82	234.31
760.15	234.25
760.47	234.16
760.80	234.06
761.13	234.00
761.45	233.95
761.78	233.88
762.11	233.82
762.43	233.68
762.76	233.63
763.08	233.59
763.41	233.54
763.74	233.49
764.06	233.43
764.39	233.39
764.71	233.33
765.04	233.26
765.37	233.20
765.69	233.14
766.02	233.08
766.34	233.02
766.67	232.92
767.00	232.89
767.32	232.91
767.65	232.93
767.97	232.86
768.30	232.81
768.62	232.76
768.95	232.68
769.27	232.63
769.60	232.59
769.92	232.52
770.25	232.44
770.57	232.37
770.90	232.31
771.22	232.24
771.55	232.19
771.87	232.15
772.20	232.10
772.52	232.17
772.85	232.27
773.17	232.23
773.50	232.17
773.82	232.11
774.15	232.00
774.47	231.88
774.80	231.82
775.12	231.77
775.45	231.73
775.77	231.70
776.09	231.65
776.42	231.62
776.74	231.62
777.07	231.58
777.39	231.55
777.72	231.51
778.04	231.50
778.36	231.46
778.69	231.42
779.01	231.40
779.33	231.26
779.66	231.08
779.98	231.04
780.31	231.02
780.63	231.05
780.95	231.04
781.28	231.01
781.60	230.97
781.92	230.94
782.25	230.91
782.57	230.88
782.89	230.85
783.22	230.81
783.54	230.76
783.86	230.74
784.19	230.71
784.51	230.72
784.83	230.67
785.16	230.63
785.48	230.61
785.80	230.58
786.12	230.57
786.45	230.55
786.77	230.54
787.09	230.50
787.42	230.42
787.74	230.41
788.06	230.39
788.38	230.36
788.71	230.33
789.03	230.32
789.35	230.32
789.67	230.28
789.99	230.27
790.32	230.24
790.64	230.23
790.96	230.33
791.28	230.26
791.61	230.23
791.93	230.22
792.25	230.18
792.57	230.25
792.89	230.21
793.21	230.19
793.54	230.15
793.86	230.13
794.18	230.12
794.50	230.08
794.82	230.05
795.14	230.05
795.47	230.05
795.79	230.03
796.11	229.99
796.43	229.97
796.75	229.95
797.07	229.94
797.39	229.91
797.71	229.78
798.04	229.78
798.36	229.77
798.68	229.74
799.00	229.74
799.32	229.67
799.64	229.67
799.96	229.66
800.28	229.67
800.60	229.65
800.92	229.63
801.24	229.60
801.56	229.61
801.89	229.58
802.21	229.56
802.53	229.53
802.85	229.53
803.17	229.57
803.49	229.53
803.81	229.50
804.13	229.48
804.45	229.45
804.77	229.45
805.09	229.44
805.41	229.41
805.73	229.37
806.05	229.33
806.37	229.31
806.69	229.28
807.01	229.25
807.33	229.24
807.65	229.19
807.97	229.24
808.28	229.21
808.60	229.19
808.92	229.16
809.24	229.23
809.56	229.19
809.88	229.14
810.20	229.14
810.52	229.15
810.84	229.12
811.16	229.10
811.48	229.07
811.80	229.11
812.12	229.09
812.43	229.11
812.75	229.10
813.07	229.08
813.39	229.07
813.71	229.05
814.03	229.02
814.35	229.02
814.67	228.96
814.98	228.92
815.30	228.91
815.62	228.88
815.94	228.78
816.26	228.80
816.58	228.76
816.89	228.75
817.21	228.71
817.53	228.71
817.85	228.71
818.17	228.70
818.48	228.63
818.80	228.65
819.12	228.61
819.44	228.59
819.76	228.57
820.07	228.55
820.39	228.54
820.71	228.55
821.03	228.55
821.34	228.53
821.66	228.55
821.98	228.55
822.30	228.54
822.61	228.61
822.93	228.58
823.25	228.58
823.57	228.56
823.88	228.58
824.20	228.57
824.52	228.57
824.83	228.57
825.15	228.55
825.47	228.52
825.79	228.53
826.10	228.52
826.42	228.52
826.74	228.52
827.05	228.50
827.37	228.50
827.69	228.48
828.00	228.49
828.32	228.47
828.64	228.45
828.95	228.52
829.27	228.48
829.58	228.47
829.90	228.49
830.22	228.50
830.53	228.46
830.85	228.45
831.17	228.41
831.48	228.41
831.80	228.41
832.11	228.41
832.43	228.39
832.75	228.38
833.06	228.45
833.38	228.41
833.69	228.41
834.01	228.42
834.32	228.41
834.64	228.40
834.96	228.40
835.27	228.40
835.59	228.33
835.90	228.32
836.22	228.31
836.53	228.28
836.85	228.27
837.16	228.39
837.48	228.39
837.79	228.42
838.11	228.42
838.42	228.43
838.74	228.44
839.05	228.42
839.37	228.42
839.68	228.34
840.00	228.34
840.31	228.35
840.63	228.32
840.94	228.30
841.26	228.27
841.57	228.26
841.88	228.27
842.20	228.26
842.51	228.24
842.83	228.23
843.14	228.33
843.46	228.33
843.77	228.26
844.08	228.26
844.40	228.22
844.71	228.21
845.03	228.20
845.34	228.19
845.65	228.18
845.97	228.17
846.28	228.17
846.60	228.18
846.91	228.17
847.22	228.17
847.54	228.20
847.85	228.22
848.16	228.22
848.48	228.19
848.79	228.23
849.10	228.25
849.42	228.26
849.73	228.14
850.04	228.15
850.36	228.10
850.67	228.12
850.98	228.11
851.30	228.12
851.61	228.12
851.92	228.11
852.23	228.15
852.55	228.16
852.86	228.16
853.17	228.17
853.49	228.19
853.80	228.21
854.11	228.22
854.42	228.23
854.74	228.21
855.05	228.22
855.36	228.16
855.67	228.15
855.99	228.15
856.30	228.29
856.61	228.29
856.92	228.30
857.23	228.29
857.55	228.27
857.86	228.26
858.17	228.27
858.48	228.25
858.79	228.22
859.11	228.23
859.42	228.21
859.73	228.20
860.04	228.19
860.35	228.15
860.66	228.11
860.98	228.10
861.29	228.12
861.60	228.10
861.91	228.12
862.22	228.11
862.53	228.10
862.84	227.94
863.16	227.96
863.47	227.94
863.78	227.93
864.09	227.93
864.40	227.93
864.71	227.93
865.02	227.94
865.33	227.94
865.64	227.91
865.95	227.91
866.27	227.99
866.58	227.97
866.89	227.98
867.20	227.98
867.51	227.96
867.82	227.96
868.13	228.00
868.44	227.98
868.75	228.00
869.06	228.00
869.37	228.01
869.68	227.98
869.99	227.99
870.30	228.00
870.61	228.01
870.92	228.00
871.23	227.99
871.54	228.01
871.85	228.03
872.16	228.04
872.47	228.04
872.78	227.97
873.09	227.98
873.40	227.97
873.71	227.97
874.02	227.98
874.33	227.97
874.64	227.94
874.95	227.96
875.26	227.93
875.56	227.94
875.87	227.93
876.18	227.92
876.49	228.05
876.80	228.04
877.11	228.01
877.42	228.02
877.73	228.02
878.04	227.99
878.35	227.99
878.66	227.99
878.96	227.99
879.27	227.97
879.58	227.97
879.89	227.96
880.20	227.98
880.51	227.98
880.82	227.98
881.12	227.98
881.43	227.95
881.74	227.94
882.05	227.93
882.36	227.93
882.67	227.94
882.97	227.80
883.28	227.79
883.59	227.79
883.90	227.80
884.21	227.81
884.51	227.82
884.82	227.81
885.13	227.80
885.44	227.80
885.74	227.80
886.05	227.80
886.36	227.81
886.67	227.76
886.98	227.82
887.28	227.83
887.59	227.83
887.90	227.83
888.20	227.84
888.51	227.86
888.82	227.84
889.13	227.85
889.43	227.95
889.74	227.95
890.05	227.95
890.35	227.93
890.66	227.91
890.97	227.89
891.28	227.88
891.58	227.87
891.89	227.88
892.20	227.87
892.50	227.85
892.81	227.84
893.12	227.84
893.42	227.78
893.73	227.78
894.04	227.77
894.34	227.79
894.65	227.78
894.95	227.77
895.26	227.78
895.57	227.82
895.87	227.71
896.18	227.73
896.48	227.73
896.79	227.73
897.10	227.75
897.40	227.75
897.71	227.76
898.01	227.75
898.32	227.76
898.63	227.76
898.93	227.77
899.24	227.77
899.54	227.78
899.85	227.78
900.15	227.77
900.46	227.77
900.76	227.78
901.07	227.78
901.38	227.78
901.68	227.79
901.99	227.73
902.29	227.73
902.60	227.72
902.90	227.71
903.21	227.70
903.51	227.69
903.82	227.72
904.12	227.72
904.43	227.73
904.73	227.73
905.03	227.73
905.34	227.85
905.64	227.84
905.95	227.83
906.25	227.82
906.56	227.81
906.86	227.82
907.17	227.81
907.47	227.81
907.77	227.80
908.08	227.78
908.38	227.78
908.69	227.78
908.99	227.81
909.30	227.81
909.60	227.82
909.90	227.82
910.21	227.78
910.51	227.76
910.81	227.75
911.12	227.75
911.42	227.75
911.73	227.62
912.03	227.63
912.33	227.66
912.64	227.65
912.94	227.64
913.24	227.61
913.55	227.60
913.85	227.58
914.15	227.61
914.46	227.63
914.76	227.60
915.06	227.60
915.37	227.58
915.67	227.57
915.97	227.57
916.27	227.54
916.58	227.56
916.88	227.56
917.18	227.56
917.49	227.63
917.79	227.63
918.09	227.65
918.39	227.67
918.70	227.67
919.00	227.68
919.30	227.74
919.60	227.72
919.91	227.71
920.21	227.72
920.51	227.69
920.81	227.69
921.12	227.72
921.42	227.72
921.72	227.72
922.02	227.73
922.32	227.75
922.63	227.76
922.93	227.83
923.23	227.83
923.53	227.81
923.83	227.73
924.13	227.74
924.44	227.73
924.74	227.75
925.04	227.77
925.34	227.77
925.64	227.72
925.94	227.72
926.24	227.79
926.55	227.78
926.85	227.80
927.15	227.80
927.45	227.79
927.75	227.78
928.05	227.77
928.35	227.75
928.65	227.77
928.95	227.78
929.26	227.72
929.56	227.74
929.86	227.75
930.16	227.75
930.46	227.73
930.76	227.73
931.06	227.68
931.36	227.64
931.66	227.65
931.96	227.67
932.26	227.68
932.56	227.63
932.86	227.63
933.16	227.62
933.46	227.61
933.76	227.59
934.06	227.62
934.36	227.66
934.66	227.66
934.96	227.65
935.26	227.65
935.56	227.67
935.86	227.64
936.16	227.62
936.46	227.60
936.76	227.60
937.06	227.58
937.36	227.59
937.66	227.60
937.96	227.58
938.26	227.55
938.56	227.53
938.86	227.54
939.16	227.57
939.46	227.59
939.76	227.60
940.06	227.60
940.35	227.57
940.65	227.52
940.95	227.52
941.25	227.50
941.55	227.47
941.85	227.45
942.15	227.49
942.45	227.53
942.75	227.53
943.04	227.54
943.34	227.58
943.64	227.56
943.94	227.55
944.24	227.56
944.54	227.57
944.84	227.57
945.13	227.56
945.43	227.54
945.73	227.53
946.03	227.52
946.33	227.51
946.62	227.50
946.92	227.50
947.22	227.50
947.52	227.51
947.82	227.53
948.11	227.53
948.41	227.51
948.71	227.47
949.01	227.48
949.31	227.46
949.60	227.44
949.90	227.46
950.20	227.46
950.50	227.46
950.79	227.45
951.09	227.48
951.39	227.47
951.69	227.46
951.98	227.48
952.28	227.50
952.58	227.49
952.87	227.49
953.17	227.51
953.47	227.50
953.76	227.50
954.06	227.48
954.36	227.47
954.66	227.46
954.95	227.48
955.25	227.50
955.55	227.51
955.84	227.49
956.14	227.50
956.44	227.51
956.73	227.49
957.03	227.50
957.32	227.49
957.62	227.48
957.92	227.50
958.21	227.49
958.51	227.62
958.81	227.64
959.10	227.65
959.40	227.67
959.69	227.68
959.99	227.70
960.29	227.70
960.58	227.70
960.88	227.75
961.17	227.74
961.47	227.74
961.76	227.72
962.06	227.74
962.36	227.72
962.65	227.71
962.95	227.72
963.24	227.71
963.54	227.71
963.83	227.73
964.13	227.73
964.42	227.71
964.72	227.61
965.01	227.61
965.31	227.60
965.60	227.57
965.90	227.65
966.19	227.61
966.49	227.62
966.78	227.61
967.08	227.60
967.37	227.59
967.67	227.57
967.96	227.60
968.26	227.60
968.55	227.61
968.85	227.61
969.14	227.60
969.43	227.61
969.73	227.60
970.02	227.59
970.32	227.59
970.61	227.58
970.91	227.54
971.20	227.53
971.49	227.51
971.79	227.53
972.08	227.43
972.38	227.44
972.67	227.42
972.96	227.44
973.26	227.42
973.55	227.46
973.85	227.46
974.14	227.45
974.43	227.45
974.73	227.43
975.02	227.42
975.31	227.42
975.61	227.41
975.90	227.41
976.19	227.40
976.49	227.41
976.78	227.41
977.07	227.41
977.37	227.41
977.66	227.43
977.95	227.41
978.24	227.42
978.54	227.45
978.83	227.44
979.12	227.43
979.42	227.44
979.71	227.41
980.00	227.40
980.29	227.40
980.59	227.38
980.88	227.42
981.17	227.42
981.46	227.42
981.76	227.42
982.05	227.45
982.34	227.46
982.63	227.46
982.93	227.47
983.22	227.51
983.51	227.52
983.80	227.54
984.09	227.56
984.39	227.56
984.68	227.53
984.97	227.53
985.26	227.53
985.55	227.54
985.85	227.51
986.14	227.53
986.43	227.54
986.72	227.54
987.01	227.51
987.30	227.51
987.59	227.50
987.89	227.51
988.18	227.47
988.47	227.45
988.76	227.43
989.05	227.42
989.34	227.41
989.63	227.43
989.92	227.41
990.22	227.38
990.51	227.38
990.80	227.38
991.09	227.40
991.38	227.42
991.67	227.41
991.96	227.40
992.25	227.41
992.54	227.39
992.83	227.39
993.12	227.37
993.41	227.39
993.70	227.43
993.99	227.45
994.28	227.48
994.58	227.50
994.87	227.48
995.16	227.49
995.45	227.47
995.74	227.42
996.03	227.44
996.32	227.47
996.61	227.50
996.90	227.49
997.19	227.47
997.48	227.46
997.77	227.45
998.06	227.47
998.34	227.45
998.63	227.45
998.92	227.45
999.21	227.47
999.50	227.47
999.79	227.43
1000.08	227.43
1000.37	227.42
1000.66	227.40
1000.95	227.43
1001.24	227.44
1001.53	227.46
1001.82	227.46
1002.11	227.44
1002.40	227.44
1002.68	227.45
1002.97	227.54
1003.26	227.54
1003.55	227.52
1003.84	227.52
1004.13	227.56
1004.42	227.56
1004.71	227.56
1004.99	227.56
1005.28	227.58
1005.57	227.58
1005.86	227.56
1006.15	227.55
1006.44	227.54
1006.72	227.56
1007.01	227.54
1007.30	227.54
1007.59	227.52
1007.88	227.52
1008.17	227.52
1008.45	227.49
1008.74	227.45
1009.03	227.39
1009.32	227.38
1009.60	227.39
1009.89	227.38
1010.18	227.33
1010.47	227.32
1010.76	227.33
1011.04	227.32
1011.33	227.31
1011.62	227.31
1011.91	227.33
1012.19	227.33
1012.48	227.33
1012.77	227.32
1013.05	227.37
1013.34	227.37
1013.63	227.37
1013.92	227.38
1014.20	227.37
1014.49	227.37
1014.78	227.38
1015.06	227.34
1015.35	227.34
1015.64	227.36
1015.92	227.38
1016.21	227.38
1016.50	227.39
1016.78	227.40
1017.07	227.41
1017.36	227.39
1017.64	227.37
1017.93	227.39
1018.22	227.37
1018.50	227.37
1018.79	227.37
1019.08	227.33
1019.36	227.33
1019.65	227.32
1019.93	227.36
1020.22	227.37
1020.51	227.45
1020.79	227.43
1021.08	227.12
1021.36	227.19
1021.65	227.42
1021.94	227.34
1022.22	227.45
1022.51	227.17
1022.79	228.06
1023.08	227.48
1023.36	228.98
1023.65	227.09
>>>>>End Processed Spectral Data<<<<<
