SpectraSuite Data File
++++++++++++++++++++++++++++++++++++
Date: Sun Oct 04 03:53:50 EDT 2015
User: lab3
Dark Spectrum Present: No
Reference Spectrum Present: No
Number of Sampled Component Spectra: 1
Spectrometers: USB2E7196
Integration Time (usec): 46000 (USB2E7196)
Spectra Averaged: 24000 (USB2E7196)
Boxcar Smoothing: 10 (USB2E7196)
Correct for Electrical Dark: No (USB2E7196)
Strobe/Lamp Enabled: No (USB2E7196)
Correct for Detector Non-linearity: No (USB2E7196)
Correct for Stray Light: No (USB2E7196)
Number of Pixels in Processed Spectrum: 2048
>>>>>Begin Processed Spectral Data<<<<<
339.09	0.00
339.48	213.08
339.86	214.57
340.24	215.92
340.63	217.36
341.01	220.67
341.39	220.07
341.78	221.44
342.16	222.71
342.54	223.07
342.93	211.58
343.31	222.27
343.69	222.80
344.07	223.26
344.46	223.70
344.84	224.09
345.22	224.31
345.60	224.57
345.99	224.76
346.37	224.90
346.75	225.01
347.13	225.09
347.52	225.16
347.90	225.25
348.28	225.29
348.66	225.35
349.05	225.35
349.43	225.40
349.81	225.46
350.19	225.52
350.57	225.59
350.96	225.68
351.34	225.77
351.72	225.87
352.10	225.98
352.48	226.05
352.87	226.10
353.25	226.17
353.63	226.23
354.01	226.29
354.39	226.37
354.77	226.44
355.15	226.55
355.54	226.60
355.92	226.62
356.30	226.70
356.68	226.85
357.06	226.93
357.44	226.97
357.82	227.03
358.20	227.15
358.58	227.21
358.97	227.27
359.35	227.36
359.73	227.44
360.11	227.49
360.49	227.56
360.87	227.61
361.25	227.67
361.63	227.76
362.01	227.81
362.39	227.84
362.77	227.89
363.15	227.91
363.53	227.94
363.91	227.98
364.29	228.01
364.67	227.91
365.05	227.93
365.43	227.97
365.81	228.00
366.19	228.01
366.57	228.07
366.95	228.07
367.33	228.04
367.71	228.03
368.09	228.05
368.47	228.05
368.85	228.04
369.23	228.05
369.61	227.99
369.99	228.00
370.37	228.01
370.75	228.08
371.13	228.05
371.51	228.01
371.89	227.99
372.27	227.96
372.65	227.94
373.03	227.90
373.41	227.85
373.78	227.80
374.16	227.70
374.54	227.62
374.92	227.57
375.30	227.53
375.68	227.46
376.06	227.41
376.44	227.36
376.82	227.31
377.19	227.27
377.57	227.22
377.95	227.13
378.33	227.07
378.71	226.91
379.09	226.86
379.47	226.83
379.84	226.77
380.22	226.71
380.60	226.64
380.98	226.59
381.36	226.54
381.73	226.48
382.11	226.46
382.49	226.42
382.87	226.36
383.25	226.32
383.62	226.43
384.00	226.36
384.38	226.32
384.76	226.31
385.13	226.31
385.51	226.27
385.89	226.22
386.27	226.18
386.64	226.17
387.02	226.12
387.40	226.07
387.78	226.05
388.15	226.03
388.53	226.00
388.91	225.97
389.29	225.94
389.66	225.94
390.04	225.90
390.42	225.89
390.79	225.88
391.17	225.87
391.55	225.71
391.92	225.70
392.30	225.70
392.68	225.66
393.05	225.65
393.43	225.65
393.81	225.66
394.18	225.64
394.56	225.64
394.94	225.68
395.31	225.68
395.69	225.73
396.06	225.76
396.44	225.79
396.82	225.80
397.19	225.90
397.57	225.91
397.95	225.96
398.32	225.95
398.70	226.00
399.07	226.07
399.45	226.12
399.82	226.17
400.20	226.21
400.58	226.28
400.95	226.29
401.33	226.39
401.70	226.55
402.08	226.66
402.45	226.75
402.83	226.88
403.20	227.00
403.58	227.10
403.95	227.25
404.33	227.42
404.71	227.57
405.08	227.79
405.46	227.98
405.83	228.18
406.21	228.39
406.58	228.63
406.96	228.86
407.33	229.13
407.70	229.43
408.08	229.84
408.45	230.20
408.83	230.59
409.20	230.94
409.58	231.27
409.95	231.71
410.33	232.19
410.70	232.64
411.08	233.17
411.45	233.73
411.82	234.30
412.20	234.95
412.57	235.73
412.95	236.34
413.32	237.14
413.69	237.95
414.07	238.82
414.44	239.76
414.82	240.73
415.19	241.85
415.56	242.99
415.94	244.18
416.31	245.51
416.68	246.84
417.06	248.38
417.43	249.82
417.81	251.49
418.18	253.19
418.55	255.04
418.93	256.96
419.30	258.97
419.67	261.11
420.04	263.29
420.42	265.57
420.79	268.21
421.16	270.88
421.54	273.58
421.91	276.42
422.28	279.35
422.66	282.52
423.03	285.54
423.40	288.71
423.77	292.11
424.15	295.59
424.52	299.22
424.89	303.15
425.26	307.05
425.64	310.68
426.01	314.76
426.38	318.94
426.75	323.23
427.13	327.64
427.50	332.26
427.87	337.05
428.24	341.90
428.61	346.56
428.99	351.60
429.36	357.14
429.73	362.42
430.10	367.70
430.47	373.11
430.85	378.68
431.22	384.65
431.59	390.78
431.96	396.76
432.33	403.41
432.70	409.73
433.08	417.19
433.45	424.26
433.82	431.23
434.19	438.99
434.56	446.65
434.93	454.06
435.30	461.38
435.68	469.65
436.05	477.75
436.42	485.83
436.79	493.19
437.16	501.14
437.53	509.67
437.90	518.21
438.27	526.55
438.64	535.58
439.01	543.75
439.38	551.23
439.75	558.44
440.13	566.56
440.50	574.30
440.87	580.43
441.24	587.14
441.61	594.45
441.98	599.78
442.35	606.11
442.72	612.57
443.09	618.72
443.46	622.61
443.83	625.43
444.20	627.79
444.57	631.33
444.94	633.30
445.31	635.34
445.68	637.05
446.05	638.30
446.42	637.83
446.79	637.16
447.16	636.54
447.53	635.97
447.90	633.29
448.27	630.72
448.64	626.86
449.01	624.14
449.37	618.82
449.74	614.02
450.11	607.83
450.48	601.06
450.85	594.32
451.22	588.56
451.59	582.95
451.96	577.86
452.33	570.48
452.70	563.94
453.07	555.97
453.43	548.03
453.80	540.32
454.17	532.94
454.54	526.17
454.91	518.50
455.28	511.32
455.65	504.56
456.02	497.39
456.38	491.65
456.75	484.27
457.12	478.33
457.49	472.33
457.86	466.71
458.23	461.78
458.59	456.29
458.96	450.66
459.33	445.72
459.70	440.67
460.07	436.85
460.43	432.35
460.80	428.15
461.17	424.51
461.54	420.54
461.91	416.82
462.27	413.04
462.64	410.01
463.01	406.51
463.38	402.98
463.74	399.82
464.11	397.01
464.48	394.49
464.85	391.72
465.21	389.65
465.58	387.31
465.95	384.63
466.32	382.51
466.68	380.42
467.05	378.32
467.42	376.28
467.78	374.05
468.15	372.00
468.52	370.51
468.88	368.49
469.25	366.65
469.62	365.19
469.98	363.59
470.35	362.15
470.72	360.85
471.08	359.53
471.45	358.41
471.82	357.17
472.18	355.85
472.55	354.99
472.92	353.91
473.28	353.06
473.65	352.14
474.02	351.27
474.38	350.52
474.75	350.07
475.11	349.44
475.48	349.13
475.85	348.80
476.21	348.60
476.58	348.45
476.94	348.55
477.31	348.57
477.67	348.63
478.04	348.81
478.41	349.08
478.77	349.48
479.14	349.72
479.50	350.24
479.87	350.91
480.23	351.59
480.60	352.25
480.96	352.93
481.33	353.95
481.69	354.96
482.06	355.97
482.42	356.89
482.79	358.04
483.15	359.38
483.52	360.91
483.88	362.37
484.25	363.95
484.61	365.59
484.98	367.36
485.34	369.35
485.71	371.44
486.07	373.68
486.44	375.92
486.80	378.42
487.17	381.01
487.53	383.85
487.90	386.81
488.26	390.04
488.62	393.45
488.99	396.86
489.35	400.46
489.72	404.36
490.08	408.48
490.44	412.73
490.81	417.14
491.17	421.65
491.54	426.51
491.90	431.50
492.26	436.86
492.63	442.47
492.99	448.32
493.36	454.39
493.72	460.77
494.08	467.30
494.45	474.24
494.81	481.43
495.17	488.83
495.54	496.65
495.90	504.79
496.26	513.10
496.63	521.66
496.99	530.55
497.35	539.84
497.72	549.45
498.08	559.25
498.44	569.38
498.80	580.13
499.17	591.15
499.53	602.53
499.89	614.26
500.26	626.25
500.62	638.52
500.98	651.47
501.34	664.60
501.71	678.26
502.07	692.11
502.43	706.52
502.79	721.17
503.16	736.29
503.52	751.58
503.88	767.34
504.24	783.58
504.60	800.02
504.97	816.96
505.33	834.33
505.69	852.65
506.05	871.33
506.41	889.97
506.78	908.77
507.14	928.08
507.50	947.84
507.86	967.95
508.22	988.32
508.59	1008.47
508.95	1029.42
509.31	1051.11
509.67	1073.60
510.03	1096.11
510.39	1118.63
510.75	1141.27
511.12	1164.22
511.48	1187.35
511.84	1210.45
512.20	1233.98
512.56	1258.46
512.92	1282.97
513.28	1307.00
513.64	1331.28
514.00	1356.03
514.37	1381.16
514.73	1406.17
515.09	1431.05
515.45	1456.23
515.81	1481.66
516.17	1507.09
516.53	1532.14
516.89	1557.03
517.25	1582.06
517.61	1606.88
517.97	1632.17
518.33	1657.00
518.69	1681.79
519.05	1706.97
519.41	1732.43
519.77	1758.19
520.13	1783.05
520.49	1807.87
520.85	1833.02
521.21	1857.84
521.57	1882.96
521.93	1907.44
522.29	1932.57
522.65	1957.05
523.01	1981.52
523.37	2005.50
523.73	2030.33
524.09	2054.70
524.45	2078.89
524.81	2102.69
525.17	2126.36
525.53	2149.42
525.89	2172.94
526.25	2196.48
526.61	2219.01
526.97	2241.67
527.33	2264.19
527.68	2286.53
528.04	2307.95
528.40	2328.44
528.76	2348.99
529.12	2369.04
529.48	2388.93
529.84	2406.78
530.20	2425.40
530.56	2443.35
530.91	2461.44
531.27	2479.15
531.63	2496.01
531.99	2512.37
532.35	2527.95
532.71	2543.76
533.07	2560.19
533.42	2574.75
533.78	2590.20
534.14	2606.02
534.50	2620.87
534.86	2635.45
535.21	2647.88
535.57	2660.94
535.93	2673.85
536.29	2685.63
536.65	2697.14
537.00	2707.77
537.36	2719.51
537.72	2729.91
538.08	2739.68
538.44	2748.67
538.79	2757.26
539.15	2765.13
539.51	2772.69
539.87	2779.65
540.22	2784.43
540.58	2789.35
540.94	2795.40
541.29	2800.00
541.65	2802.70
542.01	2804.63
542.37	2805.83
542.72	2808.56
543.08	2809.46
543.44	2810.90
543.79	2811.34
544.15	2810.95
544.51	2810.99
544.87	2809.89
545.22	2807.90
545.58	2805.25
545.94	2802.60
546.29	2798.70
546.65	2794.74
547.01	2790.64
547.36	2787.33
547.72	2784.35
548.07	2779.47
548.43	2773.22
548.79	2765.82
549.14	2759.69
549.50	2754.00
549.86	2747.32
550.21	2739.42
550.57	2732.54
550.92	2723.28
551.28	2714.46
551.64	2706.13
551.99	2697.47
552.35	2688.14
552.70	2679.08
553.06	2670.39
553.41	2661.12
553.77	2651.66
554.13	2642.15
554.48	2631.75
554.84	2620.01
555.19	2608.58
555.55	2597.35
555.90	2586.21
556.26	2575.76
556.61	2564.09
556.97	2550.73
557.32	2537.78
557.68	2524.96
558.03	2511.79
558.39	2500.00
558.74	2488.60
559.10	2475.37
559.45	2462.21
559.81	2449.69
560.16	2436.56
560.52	2423.80
560.87	2411.42
561.23	2398.22
561.58	2384.96
561.94	2371.48
562.29	2357.41
562.64	2344.14
563.00	2330.61
563.35	2317.35
563.71	2303.93
564.06	2290.50
564.42	2277.85
564.77	2264.76
565.12	2251.48
565.48	2238.15
565.83	2224.68
566.19	2211.39
566.54	2198.05
566.89	2183.62
567.25	2169.33
567.60	2156.53
567.96	2142.74
568.31	2127.51
568.66	2112.89
569.02	2099.58
569.37	2086.27
569.72	2073.49
570.08	2059.44
570.43	2044.94
570.78	2030.41
571.14	2015.15
571.49	2000.46
571.84	1986.36
572.20	1971.07
572.55	1955.91
572.90	1940.79
573.26	1925.79
573.61	1910.24
573.96	1895.13
574.31	1880.29
574.67	1865.57
575.02	1849.65
575.37	1833.88
575.72	1819.02
576.08	1804.47
576.43	1788.84
576.78	1773.58
577.13	1758.58
577.49	1743.95
577.84	1729.96
578.19	1715.03
578.54	1700.19
578.90	1684.90
579.25	1669.50
579.60	1655.71
579.95	1641.87
580.30	1627.82
580.66	1613.46
581.01	1599.06
581.36	1584.65
581.71	1571.17
582.06	1557.64
582.42	1544.35
582.77	1531.14
583.12	1517.92
583.47	1504.61
583.82	1491.39
584.17	1477.78
584.53	1463.92
584.88	1450.40
585.23	1436.53
585.58	1423.40
585.93	1410.46
586.28	1398.28
586.63	1386.04
586.98	1373.36
587.34	1360.76
587.69	1347.89
588.04	1335.33
588.39	1323.12
588.74	1311.07
589.09	1298.86
589.44	1286.20
589.79	1274.17
590.14	1262.23
590.49	1250.18
590.84	1238.28
591.19	1226.80
591.54	1215.12
591.89	1203.56
592.25	1192.24
592.60	1180.50
592.95	1169.20
593.30	1158.21
593.65	1146.92
594.00	1135.77
594.35	1125.17
594.70	1114.11
595.05	1103.89
595.40	1093.59
595.75	1083.13
596.10	1073.18
596.45	1063.03
596.80	1053.22
597.15	1043.13
597.50	1033.19
597.85	1023.70
598.19	1014.03
598.54	1004.38
598.89	995.27
599.24	986.44
599.59	977.36
599.94	969.19
600.29	960.85
600.64	952.24
600.99	943.29
601.34	934.65
601.69	925.66
602.04	917.40
602.39	908.93
602.74	900.55
603.08	892.14
603.43	883.69
603.78	875.39
604.13	867.23
604.48	859.10
604.83	851.14
605.18	843.13
605.53	835.30
605.87	827.33
606.22	819.56
606.57	811.78
606.92	803.94
607.27	796.05
607.62	788.42
607.96	781.17
608.31	774.38
608.66	767.39
609.01	760.69
609.36	754.06
609.70	747.30
610.05	740.48
610.40	733.94
610.75	727.36
611.10	721.16
611.44	714.77
611.79	708.51
612.14	702.17
612.49	695.88
612.83	689.89
613.18	684.02
613.53	678.11
613.88	672.18
614.22	666.63
614.57	661.06
614.92	655.35
615.27	649.75
615.61	644.19
615.96	638.72
616.31	633.24
616.65	627.80
617.00	622.55
617.35	617.44
617.70	612.33
618.04	607.33
618.39	602.21
618.74	597.33
619.08	592.49
619.43	587.79
619.78	583.09
620.12	578.36
620.47	573.77
620.82	569.29
621.16	564.90
621.51	560.40
621.85	555.93
622.20	551.60
622.55	547.34
622.89	543.15
623.24	538.97
623.59	534.80
623.93	530.80
624.28	526.93
624.62	523.11
624.97	519.36
625.32	515.55
625.66	511.71
626.01	507.85
626.35	504.05
626.70	500.28
627.04	496.73
627.39	493.08
627.73	489.62
628.08	486.24
628.43	482.83
628.77	479.51
629.12	476.31
629.46	473.16
629.81	469.88
630.15	466.59
630.50	463.42
630.84	460.30
631.19	457.23
631.53	454.25
631.88	451.24
632.22	448.27
632.57	445.56
632.91	442.88
633.26	440.30
633.60	437.74
633.95	435.23
634.29	432.63
634.64	430.11
634.98	427.42
635.32	424.84
635.67	422.46
636.01	420.03
636.36	417.61
636.70	415.32
637.05	413.05
637.39	410.83
637.73	408.62
638.08	406.53
638.42	404.43
638.77	402.19
639.11	399.90
639.45	397.70
639.80	395.44
640.14	393.28
640.49	391.11
640.83	388.91
641.17	386.82
641.52	384.77
641.86	382.75
642.20	380.92
642.55	378.95
642.89	377.00
643.23	375.14
643.58	373.44
643.92	371.63
644.26	369.87
644.61	368.16
644.95	366.42
645.29	364.61
645.64	362.81
645.98	361.12
646.32	359.54
646.66	357.94
647.01	356.37
647.35	354.85
647.69	353.31
648.04	351.88
648.38	350.39
648.72	348.92
649.06	347.45
649.41	345.99
649.75	344.58
650.09	343.21
650.43	341.83
650.78	340.41
651.12	339.04
651.46	337.71
651.80	336.40
652.14	335.12
652.49	333.90
652.83	332.63
653.17	331.43
653.51	330.25
653.85	329.13
654.20	327.96
654.54	326.72
654.88	325.57
655.22	324.46
655.56	323.33
655.90	322.27
656.25	321.24
656.59	320.20
656.93	319.22
657.27	318.25
657.61	317.23
657.95	316.26
658.29	315.27
658.64	314.34
658.98	313.39
659.32	312.49
659.66	311.63
660.00	310.80
660.34	309.96
660.68	309.10
661.02	308.21
661.36	307.36
661.70	306.56
662.05	305.77
662.39	304.99
662.73	304.27
663.07	303.58
663.41	302.83
663.75	302.08
664.09	301.33
664.43	300.55
664.77	299.86
665.11	299.12
665.45	298.44
665.79	297.77
666.13	297.09
666.47	296.38
666.81	295.66
667.15	294.91
667.49	294.27
667.83	293.67
668.17	293.06
668.51	292.47
668.85	291.93
669.19	291.42
669.53	290.81
669.87	290.19
670.21	289.59
670.55	289.04
670.89	288.56
671.23	288.04
671.57	287.53
671.91	287.06
672.25	286.62
672.58	286.19
672.92	285.66
673.26	285.22
673.60	284.78
673.94	284.36
674.28	283.97
674.62	283.55
674.96	283.07
675.30	282.66
675.64	282.22
675.97	281.75
676.31	281.27
676.65	280.83
676.99	280.47
677.33	280.03
677.67	279.62
678.01	279.14
678.34	278.74
678.68	278.36
679.02	277.92
679.36	277.50
679.70	277.07
680.04	276.70
680.37	276.31
680.71	275.94
681.05	275.59
681.39	275.20
681.73	274.78
682.06	274.40
682.40	274.02
682.74	273.70
683.08	273.42
683.42	273.07
683.75	272.76
684.09	272.37
684.43	272.05
684.77	271.72
685.10	271.42
685.44	271.11
685.78	270.78
686.12	270.49
686.45	270.17
686.79	269.83
687.13	269.53
687.46	269.19
687.80	268.89
688.14	268.53
688.48	268.23
688.81	267.93
689.15	267.66
689.49	267.34
689.82	267.01
690.16	266.63
690.50	266.33
690.83	266.02
691.17	265.71
691.51	265.40
691.84	265.12
692.18	264.80
692.52	264.48
692.85	264.18
693.19	263.91
693.52	263.62
693.86	263.33
694.20	263.03
694.53	262.76
694.87	262.45
695.21	262.17
695.54	261.88
695.88	261.58
696.21	261.26
696.55	260.99
696.88	260.70
697.22	260.43
697.56	260.15
697.89	259.83
698.23	259.57
698.56	259.26
698.90	258.99
699.23	258.69
699.57	258.41
699.90	258.12
700.24	257.80
700.58	257.55
700.91	257.32
701.25	257.17
701.58	256.95
701.92	256.73
702.25	256.49
702.59	256.22
702.92	255.97
703.26	255.72
703.59	255.45
703.93	255.30
704.26	255.05
704.60	254.79
704.93	254.54
705.26	254.27
705.60	254.06
705.93	253.79
706.27	253.59
706.60	253.38
706.94	253.20
707.27	252.93
707.61	252.68
707.94	252.41
708.27	252.04
708.61	251.74
708.94	251.47
709.28	251.23
709.61	250.99
709.94	250.77
710.28	250.55
710.61	250.36
710.95	250.03
711.28	249.89
711.61	249.67
711.95	249.49
712.28	249.27
712.61	249.03
712.95	248.89
713.28	248.74
713.61	248.49
713.95	248.23
714.28	248.04
714.61	247.82
714.95	247.62
715.28	247.42
715.61	247.23
715.95	247.05
716.28	246.86
716.61	246.70
716.95	246.49
717.28	246.30
717.61	246.09
717.94	245.91
718.28	245.63
718.61	245.43
718.94	245.22
719.27	245.04
719.61	244.87
719.94	244.66
720.27	244.39
720.60	244.21
720.94	244.03
721.27	243.86
721.60	243.71
721.93	243.53
722.27	243.40
722.60	243.24
722.93	243.06
723.26	242.89
723.59	242.69
723.93	242.53
724.26	242.37
724.59	242.20
724.92	242.05
725.25	241.93
725.59	241.78
725.92	241.65
726.25	241.50
726.58	241.34
726.91	241.18
727.24	241.06
727.57	240.91
727.91	240.75
728.24	240.63
728.57	240.47
728.90	240.34
729.23	240.16
729.56	240.07
729.89	239.92
730.22	239.77
730.55	239.63
730.89	239.49
731.22	239.35
731.55	239.22
731.88	239.08
732.21	238.91
732.54	238.78
732.87	238.64
733.20	238.52
733.53	238.40
733.86	238.28
734.19	238.14
734.52	238.03
734.85	238.01
735.18	237.85
735.51	237.77
735.84	237.65
736.17	237.58
736.50	237.39
736.83	237.43
737.16	237.32
737.49	237.22
737.82	237.10
738.15	237.01
738.48	236.91
738.81	236.79
739.14	236.67
739.47	236.56
739.80	236.44
740.13	236.34
740.46	236.21
740.79	236.09
741.12	235.98
741.45	235.85
741.78	235.67
742.11	235.60
742.44	235.46
742.77	235.37
743.10	235.25
743.43	235.14
743.75	234.90
744.08	235.01
744.41	234.90
744.74	234.80
745.07	234.67
745.40	234.60
745.73	234.56
746.06	234.48
746.39	234.41
746.71	234.31
747.04	234.21
747.37	234.12
747.70	234.06
748.03	233.98
748.36	233.92
748.68	233.83
749.01	233.71
749.34	233.63
749.67	233.55
750.00	233.48
750.33	233.50
750.65	233.43
750.98	233.15
751.31	233.08
751.64	233.00
751.97	232.99
752.29	232.90
752.62	232.76
752.95	232.67
753.28	232.57
753.60	232.50
753.93	232.45
754.26	232.39
754.59	232.27
754.91	232.18
755.24	232.09
755.57	232.07
755.90	232.00
756.22	231.91
756.55	231.81
756.88	231.71
757.20	231.55
757.53	231.45
757.86	231.37
758.19	231.31
758.51	231.24
758.84	231.10
759.17	231.02
759.49	230.96
759.82	230.96
760.15	230.91
760.47	230.84
760.80	230.74
761.13	230.70
761.45	230.64
761.78	230.59
762.11	230.53
762.43	230.40
762.76	230.35
763.08	230.31
763.41	230.26
763.74	230.21
764.06	230.15
764.39	230.11
764.71	230.06
765.04	229.99
765.37	229.93
765.69	229.88
766.02	229.83
766.34	229.77
766.67	229.68
767.00	229.65
767.32	229.67
767.65	229.71
767.97	229.65
768.30	229.61
768.62	229.56
768.95	229.50
769.27	229.45
769.60	229.43
769.92	229.36
770.25	229.30
770.57	229.23
770.90	229.19
771.22	229.13
771.55	229.09
771.87	229.06
772.20	229.02
772.52	229.09
772.85	229.21
773.17	229.17
773.50	229.12
773.82	229.07
774.15	228.96
774.47	228.85
774.80	228.80
775.12	228.76
775.45	228.72
775.77	228.70
776.09	228.68
776.42	228.64
776.74	228.65
777.07	228.62
777.39	228.59
777.72	228.56
778.04	228.54
778.36	228.51
778.69	228.48
779.01	228.46
779.33	228.32
779.66	228.14
779.98	228.11
780.31	228.09
780.63	228.11
780.95	228.11
781.28	228.08
781.60	228.05
781.92	228.02
782.25	228.00
782.57	227.97
782.89	227.94
783.22	227.90
783.54	227.85
783.86	227.84
784.19	227.81
784.51	227.83
784.83	227.78
785.16	227.76
785.48	227.73
785.80	227.71
786.12	227.70
786.45	227.68
786.77	227.67
787.09	227.64
787.42	227.57
787.74	227.55
788.06	227.54
788.38	227.51
788.71	227.49
789.03	227.47
789.35	227.47
789.67	227.43
789.99	227.42
790.32	227.39
790.64	227.38
790.96	227.49
791.28	227.42
791.61	227.40
791.93	227.39
792.25	227.36
792.57	227.44
792.89	227.40
793.21	227.39
793.54	227.36
793.86	227.33
794.18	227.32
794.50	227.27
794.82	227.25
795.14	227.26
795.47	227.26
795.79	227.24
796.11	227.20
796.43	227.18
796.75	227.16
797.07	227.15
797.39	227.13
797.71	227.00
798.04	226.99
798.36	226.99
798.68	226.97
799.00	226.97
799.32	226.89
799.64	226.89
799.96	226.87
800.28	226.88
800.60	226.87
800.92	226.86
801.24	226.84
801.56	226.84
801.89	226.81
802.21	226.80
802.53	226.76
802.85	226.78
803.17	226.83
803.49	226.79
803.81	226.77
804.13	226.75
804.45	226.72
804.77	226.72
805.09	226.70
805.41	226.68
805.73	226.64
806.05	226.60
806.37	226.57
806.69	226.55
807.01	226.53
807.33	226.52
807.65	226.47
807.97	226.52
808.28	226.49
808.60	226.47
808.92	226.44
809.24	226.51
809.56	226.48
809.88	226.42
810.20	226.42
810.52	226.44
810.84	226.41
811.16	226.39
811.48	226.36
811.80	226.40
812.12	226.39
812.43	226.40
812.75	226.40
813.07	226.38
813.39	226.38
813.71	226.35
814.03	226.34
814.35	226.33
814.67	226.27
814.98	226.25
815.30	226.24
815.62	226.22
815.94	226.12
816.26	226.13
816.58	226.10
816.89	226.10
817.21	226.05
817.53	226.06
817.85	226.06
818.17	226.05
818.48	225.99
818.80	226.00
819.12	225.97
819.44	225.95
819.76	225.92
820.07	225.92
820.39	225.90
820.71	225.91
821.03	225.90
821.34	225.89
821.66	225.90
821.98	225.91
822.30	225.90
822.61	225.97
822.93	225.94
823.25	225.94
823.57	225.92
823.88	225.93
824.20	225.92
824.52	225.93
824.83	225.92
825.15	225.91
825.47	225.89
825.79	225.89
826.10	225.89
826.42	225.88
826.74	225.88
827.05	225.87
827.37	225.87
827.69	225.85
828.00	225.85
828.32	225.84
828.64	225.82
828.95	225.88
829.27	225.84
829.58	225.83
829.90	225.85
830.22	225.86
830.53	225.83
830.85	225.82
831.17	225.78
831.48	225.77
831.80	225.78
832.11	225.76
832.43	225.74
832.75	225.73
833.06	225.81
833.38	225.77
833.69	225.76
834.01	225.76
834.32	225.75
834.64	225.74
834.96	225.73
835.27	225.73
835.59	225.68
835.90	225.66
836.22	225.65
836.53	225.62
836.85	225.60
837.16	225.73
837.48	225.73
837.79	225.77
838.11	225.77
838.42	225.76
838.74	225.77
839.05	225.77
839.37	225.76
839.68	225.68
840.00	225.67
840.31	225.69
840.63	225.67
840.94	225.66
841.26	225.64
841.57	225.63
841.88	225.64
842.20	225.62
842.51	225.59
842.83	225.59
843.14	225.70
843.46	225.70
843.77	225.62
844.08	225.61
844.40	225.56
844.71	225.55
845.03	225.53
845.34	225.52
845.65	225.51
845.97	225.51
846.28	225.52
846.60	225.52
846.91	225.50
847.22	225.49
847.54	225.52
847.85	225.53
848.16	225.51
848.48	225.48
848.79	225.53
849.10	225.54
849.42	225.55
849.73	225.43
850.04	225.43
850.36	225.38
850.67	225.40
850.98	225.40
851.30	225.41
851.61	225.41
851.92	225.40
852.23	225.44
852.55	225.45
852.86	225.45
853.17	225.46
853.49	225.48
853.80	225.50
854.11	225.51
854.42	225.52
854.74	225.51
855.05	225.52
855.36	225.45
855.67	225.45
855.99	225.45
856.30	225.60
856.61	225.59
856.92	225.60
857.23	225.60
857.55	225.58
857.86	225.56
858.17	225.58
858.48	225.56
858.79	225.53
859.11	225.54
859.42	225.53
859.73	225.51
860.04	225.50
860.35	225.46
860.66	225.42
860.98	225.41
861.29	225.42
861.60	225.41
861.91	225.45
862.22	225.42
862.53	225.40
862.84	225.25
863.16	225.28
863.47	225.25
863.78	225.23
864.09	225.24
864.40	225.25
864.71	225.25
865.02	225.26
865.33	225.25
865.64	225.22
865.95	225.22
866.27	225.30
866.58	225.29
866.89	225.31
867.20	225.31
867.51	225.28
867.82	225.27
868.13	225.31
868.44	225.28
868.75	225.31
869.06	225.31
869.37	225.33
869.68	225.29
869.99	225.31
870.30	225.32
870.61	225.33
870.92	225.31
871.23	225.30
871.54	225.31
871.85	225.34
872.16	225.36
872.47	225.35
872.78	225.28
873.09	225.29
873.40	225.27
873.71	225.29
874.02	225.30
874.33	225.29
874.64	225.26
874.95	225.28
875.26	225.25
875.56	225.24
875.87	225.23
876.18	225.23
876.49	225.35
876.80	225.34
877.11	225.31
877.42	225.32
877.73	225.32
878.04	225.30
878.35	225.30
878.66	225.30
878.96	225.30
879.27	225.29
879.58	225.28
879.89	225.27
880.20	225.30
880.51	225.30
880.82	225.30
881.12	225.30
881.43	225.28
881.74	225.26
882.05	225.26
882.36	225.26
882.67	225.27
882.97	225.13
883.28	225.13
883.59	225.12
883.90	225.14
884.21	225.15
884.51	225.14
884.82	225.12
885.13	225.12
885.44	225.12
885.74	225.12
886.05	225.11
886.36	225.11
886.67	225.07
886.98	225.13
887.28	225.14
887.59	225.14
887.90	225.15
888.20	225.14
888.51	225.16
888.82	225.14
889.13	225.15
889.43	225.26
889.74	225.25
890.05	225.25
890.35	225.23
890.66	225.21
890.97	225.20
891.28	225.18
891.58	225.18
891.89	225.18
892.20	225.17
892.50	225.16
892.81	225.15
893.12	225.15
893.42	225.08
893.73	225.08
894.04	225.08
894.34	225.08
894.65	225.08
894.95	225.07
895.26	225.07
895.57	225.13
895.87	225.00
896.18	225.02
896.48	225.03
896.79	225.03
897.10	225.05
897.40	225.05
897.71	225.07
898.01	225.05
898.32	225.07
898.63	225.07
898.93	225.08
899.24	225.08
899.54	225.08
899.85	225.07
900.15	225.07
900.46	225.06
900.76	225.07
901.07	225.07
901.38	225.06
901.68	225.08
901.99	225.01
902.29	225.02
902.60	225.01
902.90	225.00
903.21	225.00
903.51	224.99
903.82	225.01
904.12	225.01
904.43	225.02
904.73	225.01
905.03	225.02
905.34	225.14
905.64	225.13
905.95	225.13
906.25	225.13
906.56	225.13
906.86	225.13
907.17	225.12
907.47	225.12
907.77	225.11
908.08	225.09
908.38	225.10
908.69	225.10
908.99	225.12
909.30	225.13
909.60	225.13
909.90	225.13
910.21	225.09
910.51	225.07
910.81	225.07
911.12	225.08
911.42	225.08
911.73	224.94
912.03	224.95
912.33	224.98
912.64	224.97
912.94	224.95
913.24	224.93
913.55	224.92
913.85	224.92
914.15	224.94
914.46	224.96
914.76	224.95
915.06	224.94
915.37	224.91
915.67	224.90
915.97	224.90
916.27	224.89
916.58	224.89
916.88	224.89
917.18	224.88
917.49	224.97
917.79	224.96
918.09	224.98
918.39	225.01
918.70	225.00
919.00	225.01
919.30	225.07
919.60	225.07
919.91	225.06
920.21	225.06
920.51	225.04
920.81	225.02
921.12	225.05
921.42	225.04
921.72	225.05
922.02	225.06
922.32	225.07
922.63	225.08
922.93	225.15
923.23	225.15
923.53	225.14
923.83	225.05
924.13	225.07
924.44	225.07
924.74	225.08
925.04	225.11
925.34	225.10
925.64	225.05
925.94	225.05
926.24	225.12
926.55	225.11
926.85	225.13
927.15	225.13
927.45	225.12
927.75	225.12
928.05	225.12
928.35	225.12
928.65	225.13
928.95	225.14
929.26	225.08
929.56	225.11
929.86	225.12
930.16	225.11
930.46	225.10
930.76	225.10
931.06	225.04
931.36	225.00
931.66	225.02
931.96	225.04
932.26	225.05
932.56	224.99
932.86	225.00
933.16	225.00
933.46	224.99
933.76	224.97
934.06	224.99
934.36	225.03
934.66	225.03
934.96	225.01
935.26	225.01
935.56	225.03
935.86	224.99
936.16	224.97
936.46	224.96
936.76	224.96
937.06	224.94
937.36	224.95
937.66	224.96
937.96	224.95
938.26	224.92
938.56	224.91
938.86	224.92
939.16	224.94
939.46	224.95
939.76	224.96
940.06	224.96
940.35	224.93
940.65	224.87
940.95	224.88
941.25	224.85
941.55	224.83
941.85	224.82
942.15	224.85
942.45	224.89
942.75	224.89
943.04	224.90
943.34	224.92
943.64	224.91
943.94	224.89
944.24	224.89
944.54	224.90
944.84	224.90
945.13	224.88
945.43	224.86
945.73	224.85
946.03	224.84
946.33	224.83
946.62	224.82
946.92	224.82
947.22	224.83
947.52	224.84
947.82	224.86
948.11	224.84
948.41	224.81
948.71	224.78
949.01	224.78
949.31	224.77
949.60	224.75
949.90	224.78
950.20	224.77
950.50	224.77
950.79	224.76
951.09	224.78
951.39	224.77
951.69	224.76
951.98	224.78
952.28	224.79
952.58	224.79
952.87	224.79
953.17	224.81
953.47	224.79
953.76	224.79
954.06	224.77
954.36	224.75
954.66	224.75
954.95	224.79
955.25	224.79
955.55	224.81
955.84	224.79
956.14	224.79
956.44	224.81
956.73	224.79
957.03	224.80
957.32	224.80
957.62	224.79
957.92	224.82
958.21	224.80
958.51	224.95
958.81	224.96
959.10	224.98
959.40	225.00
959.69	225.02
959.99	225.03
960.29	225.04
960.58	225.04
960.88	225.09
961.17	225.07
961.47	225.08
961.76	225.07
962.06	225.09
962.36	225.08
962.65	225.08
962.95	225.09
963.24	225.08
963.54	225.08
963.83	225.09
964.13	225.08
964.42	225.07
964.72	224.96
965.01	224.96
965.31	224.95
965.60	224.92
965.90	224.99
966.19	224.96
966.49	224.97
966.78	224.96
967.08	224.95
967.37	224.95
967.67	224.92
967.96	224.95
968.26	224.94
968.55	224.96
968.85	224.95
969.14	224.95
969.43	224.95
969.73	224.94
970.02	224.93
970.32	224.92
970.61	224.91
970.91	224.87
971.20	224.85
971.49	224.84
971.79	224.86
972.08	224.77
972.38	224.78
972.67	224.77
972.96	224.79
973.26	224.77
973.55	224.81
973.85	224.80
974.14	224.79
974.43	224.80
974.73	224.77
975.02	224.76
975.31	224.76
975.61	224.76
975.90	224.75
976.19	224.74
976.49	224.75
976.78	224.76
977.07	224.76
977.37	224.77
977.66	224.78
977.95	224.76
978.24	224.78
978.54	224.80
978.83	224.79
979.12	224.78
979.42	224.78
979.71	224.75
980.00	224.75
980.29	224.76
980.59	224.73
980.88	224.76
981.17	224.76
981.46	224.76
981.76	224.77
982.05	224.81
982.34	224.82
982.63	224.82
982.93	224.82
983.22	224.85
983.51	224.85
983.80	224.87
984.09	224.89
984.39	224.88
984.68	224.86
984.97	224.87
985.26	224.86
985.55	224.87
985.85	224.85
986.14	224.87
986.43	224.88
986.72	224.88
987.01	224.84
987.30	224.84
987.59	224.83
987.89	224.84
988.18	224.80
988.47	224.79
988.76	224.77
989.05	224.76
989.34	224.74
989.63	224.77
989.92	224.75
990.22	224.73
990.51	224.73
990.80	224.72
991.09	224.73
991.38	224.75
991.67	224.73
991.96	224.72
992.25	224.72
992.54	224.70
992.83	224.70
993.12	224.70
993.41	224.72
993.70	224.77
993.99	224.79
994.28	224.81
994.58	224.83
994.87	224.82
995.16	224.82
995.45	224.81
995.74	224.76
996.03	224.78
996.32	224.80
996.61	224.83
996.90	224.82
997.19	224.81
997.48	224.82
997.77	224.80
998.06	224.81
998.34	224.80
998.63	224.80
998.92	224.80
999.21	224.83
999.50	224.82
999.79	224.78
1000.08	224.77
1000.37	224.77
1000.66	224.75
1000.95	224.79
1001.24	224.79
1001.53	224.81
1001.82	224.81
1002.11	224.78
1002.40	224.79
1002.68	224.81
1002.97	224.90
1003.26	224.89
1003.55	224.87
1003.84	224.88
1004.13	224.93
1004.42	224.92
1004.71	224.92
1004.99	224.91
1005.28	224.94
1005.57	224.93
1005.86	224.92
1006.15	224.91
1006.44	224.89
1006.72	224.90
1007.01	224.88
1007.30	224.88
1007.59	224.87
1007.88	224.87
1008.17	224.88
1008.45	224.85
1008.74	224.80
1009.03	224.74
1009.32	224.74
1009.60	224.74
1009.89	224.73
1010.18	224.68
1010.47	224.67
1010.76	224.67
1011.04	224.67
1011.33	224.67
1011.62	224.68
1011.91	224.69
1012.19	224.69
1012.48	224.70
1012.77	224.69
1013.05	224.74
1013.34	224.73
1013.63	224.73
1013.92	224.74
1014.20	224.73
1014.49	224.74
1014.78	224.75
1015.06	224.71
1015.35	224.72
1015.64	224.73
1015.92	224.75
1016.21	224.76
1016.50	224.76
1016.78	224.77
1017.07	224.79
1017.36	224.76
1017.64	224.74
1017.93	224.75
1018.22	224.74
1018.50	224.74
1018.79	224.73
1019.08	224.69
1019.36	224.69
1019.65	224.68
1019.93	224.71
1020.22	224.74
1020.51	224.80
1020.79	224.78
1021.08	224.53
1021.36	224.49
1021.65	224.74
1021.94	224.65
1022.22	224.82
1022.51	224.43
1022.79	225.32
1023.08	224.93
1023.36	226.24
1023.65	224.43
>>>>>End Processed Spectral Data<<<<<
