SpectraSuite Data File
++++++++++++++++++++++++++++++++++++
Date: Sun Oct 04 12:22:33 EDT 2015
User: lab3
Dark Spectrum Present: No
Reference Spectrum Present: No
Number of Sampled Component Spectra: 1
Spectrometers: USB2E7196
Integration Time (usec): 46000 (USB2E7196)
Spectra Averaged: 24000 (USB2E7196)
Boxcar Smoothing: 10 (USB2E7196)
Correct for Electrical Dark: No (USB2E7196)
Strobe/Lamp Enabled: No (USB2E7196)
Correct for Detector Non-linearity: No (USB2E7196)
Correct for Stray Light: No (USB2E7196)
Number of Pixels in Processed Spectrum: 2048
>>>>>Begin Processed Spectral Data<<<<<
339.09	0.00
339.48	213.55
339.86	215.01
340.24	216.38
340.63	217.82
341.01	221.17
341.39	220.55
341.78	221.94
342.16	223.18
342.54	223.57
342.93	212.04
343.31	222.75
343.69	223.29
344.07	223.75
344.46	224.19
344.84	224.58
345.22	224.80
345.60	225.06
345.99	225.25
346.37	225.39
346.75	225.50
347.13	225.59
347.52	225.66
347.90	225.75
348.28	225.79
348.66	225.85
349.05	225.85
349.43	225.91
349.81	225.97
350.19	226.03
350.57	226.10
350.96	226.19
351.34	226.28
351.72	226.38
352.10	226.49
352.48	226.56
352.87	226.61
353.25	226.68
353.63	226.74
354.01	226.81
354.39	226.88
354.77	226.96
355.15	227.06
355.54	227.11
355.92	227.14
356.30	227.21
356.68	227.37
357.06	227.44
357.44	227.49
357.82	227.54
358.20	227.66
358.58	227.72
358.97	227.78
359.35	227.87
359.73	227.95
360.11	228.00
360.49	228.06
360.87	228.11
361.25	228.18
361.63	228.26
362.01	228.31
362.39	228.34
362.77	228.39
363.15	228.41
363.53	228.45
363.91	228.49
364.29	228.51
364.67	228.41
365.05	228.43
365.43	228.47
365.81	228.50
366.19	228.52
366.57	228.57
366.95	228.57
367.33	228.55
367.71	228.54
368.09	228.56
368.47	228.56
368.85	228.54
369.23	228.56
369.61	228.50
369.99	228.52
370.37	228.52
370.75	228.59
371.13	228.56
371.51	228.52
371.89	228.50
372.27	228.48
372.65	228.46
373.03	228.42
373.41	228.37
373.78	228.32
374.16	228.22
374.54	228.14
374.92	228.09
375.30	228.05
375.68	227.98
376.06	227.93
376.44	227.88
376.82	227.84
377.19	227.79
377.57	227.74
377.95	227.65
378.33	227.59
378.71	227.43
379.09	227.39
379.47	227.36
379.84	227.30
380.22	227.23
380.60	227.16
380.98	227.11
381.36	227.06
381.73	227.00
382.11	226.98
382.49	226.94
382.87	226.88
383.25	226.84
383.62	226.94
384.00	226.87
384.38	226.84
384.76	226.82
385.13	226.82
385.51	226.78
385.89	226.73
386.27	226.70
386.64	226.68
387.02	226.64
387.40	226.59
387.78	226.57
388.15	226.55
388.53	226.52
388.91	226.50
389.29	226.46
389.66	226.46
390.04	226.42
390.42	226.42
390.79	226.41
391.17	226.39
391.55	226.24
391.92	226.23
392.30	226.23
392.68	226.20
393.05	226.18
393.43	226.18
393.81	226.19
394.18	226.17
394.56	226.18
394.94	226.21
395.31	226.21
395.69	226.26
396.06	226.29
396.44	226.32
396.82	226.34
397.19	226.43
397.57	226.45
397.95	226.50
398.32	226.49
398.70	226.55
399.07	226.62
399.45	226.66
399.82	226.72
400.20	226.76
400.58	226.83
400.95	226.84
401.33	226.94
401.70	227.10
402.08	227.22
402.45	227.31
402.83	227.44
403.20	227.57
403.58	227.67
403.95	227.82
404.33	227.99
404.71	228.15
405.08	228.38
405.46	228.56
405.83	228.77
406.21	228.99
406.58	229.24
406.96	229.48
407.33	229.76
407.70	230.08
408.08	230.50
408.45	230.87
408.83	231.28
409.20	231.65
409.58	231.99
409.95	232.45
410.33	232.94
410.70	233.42
411.08	233.96
411.45	234.55
411.82	235.14
412.20	235.82
412.57	236.62
412.95	237.26
413.32	238.09
413.69	238.93
414.07	239.83
414.44	240.81
414.82	241.81
415.19	242.97
415.56	244.16
415.94	245.39
416.31	246.77
416.68	248.14
417.06	249.74
417.43	251.24
417.81	252.97
418.18	254.73
418.55	256.65
418.93	258.64
419.30	260.73
419.67	262.94
420.04	265.21
420.42	267.58
420.79	270.31
421.16	273.07
421.54	275.87
421.91	278.81
422.28	281.86
422.66	285.14
423.03	288.27
423.40	291.57
423.77	295.09
424.15	298.71
424.52	302.47
424.89	306.54
425.26	310.59
425.64	314.36
426.01	318.59
426.38	322.92
426.75	327.37
427.13	331.94
427.50	336.74
427.87	341.72
428.24	346.74
428.61	351.58
428.99	356.81
429.36	362.55
429.73	368.03
430.10	373.51
430.47	379.10
430.85	384.87
431.22	391.06
431.59	397.40
431.96	403.61
432.33	410.49
432.70	417.04
433.08	424.77
433.45	432.09
433.82	439.30
434.19	447.34
434.56	455.28
434.93	462.95
435.30	470.52
435.68	479.08
436.05	487.48
436.42	495.85
436.79	503.47
437.16	511.70
437.53	520.53
437.90	529.36
438.27	538.00
438.64	547.35
439.01	555.81
439.38	563.56
439.75	571.01
440.13	579.43
440.50	587.44
440.87	593.79
441.24	600.74
441.61	608.31
441.98	613.82
442.35	620.38
442.72	627.07
443.09	633.45
443.46	637.46
443.83	640.39
444.20	642.82
444.57	646.49
444.94	648.53
445.31	650.65
445.68	652.43
446.05	653.73
446.42	653.25
446.79	652.55
447.16	651.92
447.53	651.34
447.90	648.58
448.27	645.93
448.64	641.93
449.01	639.12
449.37	633.62
449.74	628.67
450.11	622.26
450.48	615.26
450.85	608.28
451.22	602.33
451.59	596.53
451.96	591.27
452.33	583.62
452.70	576.87
453.07	568.61
453.43	560.41
453.80	552.42
454.17	544.79
454.54	537.78
454.91	529.85
455.28	522.43
455.65	515.42
456.02	507.99
456.38	502.05
456.75	494.40
457.12	488.25
457.49	482.02
457.86	476.19
458.23	471.08
458.59	465.39
458.96	459.55
459.33	454.42
459.70	449.18
460.07	445.22
460.43	440.55
460.80	436.19
461.17	432.41
461.54	428.28
461.91	424.42
462.27	420.49
462.64	417.34
463.01	413.69
463.38	410.02
463.74	406.74
464.11	403.81
464.48	401.19
464.85	398.32
465.21	396.15
465.58	393.72
465.95	390.93
466.32	388.72
466.68	386.55
467.05	384.36
467.42	382.23
467.78	379.91
468.15	377.77
468.52	376.22
468.88	374.12
469.25	372.20
469.62	370.67
469.98	369.00
470.35	367.50
470.72	366.14
471.08	364.76
471.45	363.59
471.82	362.29
472.18	360.91
472.55	360.01
472.92	358.88
473.28	357.99
473.65	357.03
474.02	356.11
474.38	355.32
474.75	354.84
475.11	354.19
475.48	353.86
475.85	353.50
476.21	353.28
476.58	353.11
476.94	353.20
477.31	353.22
477.67	353.27
478.04	353.44
478.41	353.70
478.77	354.10
479.14	354.34
479.50	354.85
479.87	355.54
480.23	356.23
480.60	356.91
480.96	357.58
481.33	358.63
481.69	359.66
482.06	360.69
482.42	361.62
482.79	362.79
483.15	364.16
483.52	365.73
483.88	367.23
484.25	368.83
484.61	370.50
484.98	372.31
485.34	374.35
485.71	376.49
486.07	378.78
486.44	381.08
486.80	383.63
487.17	386.28
487.53	389.18
487.90	392.21
488.26	395.52
488.62	399.02
488.99	402.51
489.35	406.20
489.72	410.20
490.08	414.43
490.44	418.78
490.81	423.29
491.17	427.92
491.54	432.88
491.90	438.00
492.26	443.49
492.63	449.23
492.99	455.22
493.36	461.43
493.72	467.95
494.08	474.63
494.45	481.73
494.81	489.10
495.17	496.68
495.54	504.69
495.90	513.01
496.26	521.51
496.63	530.26
496.99	539.35
497.35	548.85
497.72	558.66
498.08	568.68
498.44	579.05
498.80	590.06
499.17	601.33
499.53	612.96
499.89	624.95
500.26	637.21
500.62	649.76
500.98	663.00
501.34	676.42
501.71	690.39
502.07	704.54
502.43	719.24
502.79	734.19
503.16	749.63
503.52	765.25
503.88	781.34
504.24	797.93
504.60	814.72
504.97	832.01
505.33	849.74
505.69	868.42
506.05	887.49
506.41	906.49
506.78	925.66
507.14	945.34
507.50	965.48
507.86	985.98
508.22	1006.72
508.59	1027.24
508.95	1048.60
509.31	1070.74
509.67	1093.66
510.03	1116.60
510.39	1139.53
510.75	1162.58
511.12	1185.93
511.48	1209.44
511.84	1232.93
512.20	1256.89
512.56	1281.80
512.92	1306.71
513.28	1331.12
513.64	1355.78
514.00	1380.94
514.37	1406.44
514.73	1431.87
515.09	1457.14
515.45	1482.72
515.81	1508.50
516.17	1534.35
516.53	1559.73
516.89	1584.94
517.25	1610.33
517.61	1635.51
517.97	1661.18
518.33	1686.38
518.69	1711.50
519.05	1737.05
519.41	1762.87
519.77	1788.95
520.13	1814.14
520.49	1839.25
520.85	1864.75
521.21	1889.86
521.57	1915.30
521.93	1940.11
522.29	1965.51
522.65	1990.28
523.01	2015.05
523.37	2039.35
523.73	2064.44
524.09	2089.11
524.45	2113.55
524.81	2137.59
525.17	2161.48
525.53	2184.72
525.89	2208.42
526.25	2232.19
526.61	2254.95
526.97	2277.84
527.33	2300.61
527.68	2323.11
528.04	2344.71
528.40	2365.36
528.76	2386.06
529.12	2406.24
529.48	2426.25
529.84	2444.22
530.20	2462.95
530.56	2480.97
530.91	2499.12
531.27	2516.94
531.63	2533.85
531.99	2550.26
532.35	2565.88
532.71	2581.73
533.07	2598.29
533.42	2612.85
533.78	2628.40
534.14	2644.22
534.50	2659.07
534.86	2673.62
535.21	2686.06
535.57	2699.14
535.93	2712.02
536.29	2723.77
536.65	2735.29
537.00	2745.91
537.36	2757.65
537.72	2767.97
538.08	2777.73
538.44	2786.72
538.79	2795.19
539.15	2802.98
539.51	2810.43
539.87	2817.27
540.22	2821.91
540.58	2826.67
540.94	2832.69
541.29	2837.11
541.65	2839.63
542.01	2841.32
542.37	2842.34
542.72	2844.91
543.08	2845.58
543.44	2846.82
543.79	2847.04
544.15	2846.39
544.51	2846.22
544.87	2844.82
545.22	2842.59
545.58	2839.67
545.94	2836.79
546.29	2832.66
546.65	2828.47
547.01	2824.15
547.36	2820.66
547.72	2817.42
548.07	2812.27
548.43	2805.67
548.79	2797.98
549.14	2791.64
549.50	2785.71
549.86	2778.76
550.21	2770.59
550.57	2763.47
550.92	2753.92
551.28	2744.90
551.64	2736.39
551.99	2727.49
552.35	2717.90
552.70	2708.62
553.06	2699.70
553.41	2690.17
553.77	2680.41
554.13	2670.59
554.48	2659.89
554.84	2647.83
555.19	2636.15
555.55	2624.64
555.90	2613.23
556.26	2602.45
556.61	2590.51
556.97	2576.86
557.32	2563.64
557.68	2550.49
558.03	2537.03
558.39	2524.98
558.74	2513.25
559.10	2499.65
559.45	2486.16
559.81	2473.36
560.16	2459.96
560.52	2446.91
560.87	2434.26
561.23	2420.80
561.58	2407.33
561.94	2393.61
562.29	2379.28
562.64	2365.75
563.00	2351.93
563.35	2338.45
563.71	2324.82
564.06	2311.11
564.42	2298.24
564.77	2284.91
565.12	2271.40
565.48	2257.88
565.83	2244.21
566.19	2230.71
566.54	2217.13
566.89	2202.43
567.25	2187.96
567.60	2174.92
567.96	2160.87
568.31	2145.40
568.66	2130.60
569.02	2117.09
569.37	2103.55
569.72	2090.58
570.08	2076.32
570.43	2061.65
570.78	2046.89
571.14	2031.37
571.49	2016.50
571.84	2002.18
572.20	1986.62
572.55	1971.25
572.90	1955.90
573.26	1940.66
573.61	1924.86
573.96	1909.54
574.31	1894.52
574.67	1879.53
575.02	1863.38
575.37	1847.38
575.72	1832.31
576.08	1817.55
576.43	1801.69
576.78	1786.23
577.13	1771.03
577.49	1756.21
577.84	1742.04
578.19	1726.92
578.54	1711.95
578.90	1696.47
579.25	1680.90
579.60	1666.97
579.95	1652.95
580.30	1638.70
580.66	1624.15
581.01	1609.58
581.36	1595.00
581.71	1581.40
582.06	1567.72
582.42	1554.26
582.77	1540.87
583.12	1527.46
583.47	1513.94
583.82	1500.52
584.17	1486.78
584.53	1472.74
584.88	1459.04
585.23	1444.97
585.58	1431.66
585.93	1418.56
586.28	1406.22
586.63	1393.81
586.98	1380.98
587.34	1368.21
587.69	1355.20
588.04	1342.51
588.39	1330.17
588.74	1318.00
589.09	1305.61
589.44	1292.81
589.79	1280.69
590.14	1268.64
590.49	1256.49
590.84	1244.49
591.19	1232.89
591.54	1221.07
591.89	1209.40
592.25	1197.95
592.60	1186.09
592.95	1174.70
593.30	1163.57
593.65	1152.14
594.00	1140.86
594.35	1130.14
594.70	1118.98
595.05	1108.68
595.40	1098.28
595.75	1087.72
596.10	1077.69
596.45	1067.42
596.80	1057.51
597.15	1047.29
597.50	1037.26
597.85	1027.64
598.19	1017.87
598.54	1008.15
598.89	998.93
599.24	990.00
599.59	980.84
599.94	972.61
600.29	964.19
600.64	955.49
600.99	946.45
601.34	937.74
601.69	928.70
602.04	920.36
602.39	911.83
602.74	903.38
603.08	894.88
603.43	886.36
603.78	878.01
604.13	869.78
604.48	861.59
604.83	853.58
605.18	845.51
605.53	837.62
605.87	829.57
606.22	821.76
606.57	813.91
606.92	806.02
607.27	798.06
607.62	790.38
607.96	783.10
608.31	776.27
608.66	769.22
609.01	762.47
609.36	755.80
609.70	748.97
610.05	742.10
610.40	735.51
610.75	728.89
611.10	722.63
611.44	716.20
611.79	709.89
612.14	703.49
612.49	697.18
612.83	691.15
613.18	685.25
613.53	679.29
613.88	673.35
614.22	667.77
614.57	662.18
614.92	656.43
615.27	650.79
615.61	645.20
615.96	639.69
616.31	634.16
616.65	628.69
617.00	623.41
617.35	618.26
617.70	613.12
618.04	608.08
618.39	602.94
618.74	598.03
619.08	593.17
619.43	588.45
619.78	583.72
620.12	578.96
620.47	574.34
620.82	569.84
621.16	565.40
621.51	560.87
621.85	556.36
622.20	552.01
622.55	547.72
622.89	543.50
623.24	539.29
623.59	535.11
623.93	531.09
624.28	527.17
624.62	523.34
624.97	519.56
625.32	515.72
625.66	511.86
626.01	507.98
626.35	504.16
626.70	500.37
627.04	496.77
627.39	493.10
627.73	489.61
628.08	486.20
628.43	482.78
628.77	479.42
629.12	476.19
629.46	473.01
629.81	469.72
630.15	466.41
630.50	463.22
630.84	460.09
631.19	457.01
631.53	454.03
631.88	451.00
632.22	448.01
632.57	445.29
632.91	442.60
633.26	440.00
633.60	437.42
633.95	434.89
634.29	432.29
634.64	429.76
634.98	427.04
635.32	424.46
635.67	422.07
636.01	419.62
636.36	417.20
636.70	414.90
637.05	412.61
637.39	410.38
637.73	408.15
638.08	406.04
638.42	403.91
638.77	401.65
639.11	399.34
639.45	397.12
639.80	394.84
640.14	392.66
640.49	390.48
640.83	388.27
641.17	386.17
641.52	384.11
641.86	382.07
642.20	380.24
642.55	378.25
642.89	376.29
643.23	374.42
643.58	372.71
643.92	370.89
644.26	369.11
644.61	367.39
644.95	365.64
645.29	363.81
645.64	362.01
645.98	360.31
646.32	358.72
646.66	357.12
647.01	355.54
647.35	354.01
647.69	352.45
648.04	351.03
648.38	349.52
648.72	348.04
649.06	346.58
649.41	345.11
649.75	343.70
650.09	342.32
650.43	340.93
650.78	339.50
651.12	338.12
651.46	336.79
651.80	335.48
652.14	334.20
652.49	332.97
652.83	331.70
653.17	330.50
653.51	329.31
653.85	328.18
654.20	327.01
654.54	325.77
654.88	324.62
655.22	323.51
655.56	322.38
655.90	321.32
656.25	320.29
656.59	319.24
656.93	318.26
657.27	317.28
657.61	316.26
657.95	315.29
658.29	314.31
658.64	313.38
658.98	312.44
659.32	311.54
659.66	310.68
660.00	309.85
660.34	309.01
660.68	308.16
661.02	307.27
661.36	306.42
661.70	305.62
662.05	304.83
662.39	304.05
662.73	303.34
663.07	302.64
663.41	301.89
663.75	301.15
664.09	300.41
664.43	299.64
664.77	298.94
665.11	298.20
665.45	297.53
665.79	296.87
666.13	296.18
666.47	295.48
666.81	294.76
667.15	294.02
667.49	293.38
667.83	292.79
668.17	292.18
668.51	291.61
668.85	291.07
669.19	290.56
669.53	289.95
669.87	289.34
670.21	288.74
670.55	288.20
670.89	287.73
671.23	287.21
671.57	286.70
671.91	286.24
672.25	285.81
672.58	285.38
672.92	284.86
673.26	284.42
673.60	283.99
673.94	283.58
674.28	283.19
674.62	282.78
674.96	282.31
675.30	281.90
675.64	281.46
675.97	281.00
676.31	280.52
676.65	280.10
676.99	279.75
677.33	279.31
677.67	278.91
678.01	278.44
678.34	278.05
678.68	277.68
679.02	277.24
679.36	276.83
679.70	276.41
680.04	276.04
680.37	275.66
680.71	275.30
681.05	274.95
681.39	274.57
681.73	274.16
682.06	273.78
682.40	273.41
682.74	273.09
683.08	272.82
683.42	272.48
683.75	272.18
684.09	271.79
684.43	271.48
684.77	271.15
685.10	270.86
685.44	270.55
685.78	270.23
686.12	269.95
686.45	269.63
686.79	269.30
687.13	269.01
687.46	268.68
687.80	268.38
688.14	268.03
688.48	267.74
688.81	267.44
689.15	267.18
689.49	266.87
689.82	266.55
690.16	266.18
690.50	265.89
690.83	265.59
691.17	265.29
691.51	264.99
691.84	264.71
692.18	264.40
692.52	264.09
692.85	263.80
693.19	263.54
693.52	263.25
693.86	262.97
694.20	262.69
694.53	262.42
694.87	262.12
695.21	261.84
695.54	261.56
695.88	261.27
696.21	260.95
696.55	260.69
696.88	260.41
697.22	260.15
697.56	259.87
697.89	259.56
698.23	259.30
698.56	259.01
698.90	258.74
699.23	258.45
699.57	258.18
699.90	257.89
700.24	257.59
700.58	257.35
700.91	257.13
701.25	256.98
701.58	256.77
701.92	256.56
702.25	256.33
702.59	256.07
702.92	255.83
703.26	255.58
703.59	255.32
703.93	255.17
704.26	254.94
704.60	254.69
704.93	254.44
705.26	254.19
705.60	253.99
705.93	253.72
706.27	253.52
706.60	253.33
706.94	253.14
707.27	252.88
707.61	252.63
707.94	252.37
708.27	252.01
708.61	251.71
708.94	251.45
709.28	251.22
709.61	250.98
709.94	250.77
710.28	250.57
710.61	250.37
710.95	250.05
711.28	249.92
711.61	249.70
711.95	249.53
712.28	249.30
712.61	249.07
712.95	248.93
713.28	248.79
713.61	248.55
713.95	248.30
714.28	248.11
714.61	247.90
714.95	247.70
715.28	247.50
715.61	247.32
715.95	247.15
716.28	246.96
716.61	246.80
716.95	246.60
717.28	246.41
717.61	246.21
717.94	246.03
718.28	245.75
718.61	245.56
718.94	245.35
719.27	245.18
719.61	245.02
719.94	244.81
720.27	244.54
720.60	244.37
720.94	244.20
721.27	244.03
721.60	243.88
721.93	243.71
722.27	243.58
722.60	243.42
722.93	243.24
723.26	243.07
723.59	242.87
723.93	242.72
724.26	242.57
724.59	242.39
724.92	242.25
725.25	242.14
725.59	241.99
725.92	241.86
726.25	241.71
726.58	241.56
726.91	241.40
727.24	241.28
727.57	241.14
727.91	240.98
728.24	240.86
728.57	240.70
728.90	240.58
729.23	240.39
729.56	240.31
729.89	240.17
730.22	240.01
730.55	239.88
730.89	239.74
731.22	239.60
731.55	239.47
731.88	239.33
732.21	239.17
732.54	239.04
732.87	238.91
733.20	238.79
733.53	238.67
733.86	238.55
734.19	238.41
734.52	238.31
734.85	238.28
735.18	238.12
735.51	238.04
735.84	237.93
736.17	237.85
736.50	237.67
736.83	237.71
737.16	237.61
737.49	237.51
737.82	237.39
738.15	237.31
738.48	237.20
738.81	237.09
739.14	236.97
739.47	236.85
739.80	236.74
740.13	236.64
740.46	236.52
740.79	236.39
741.12	236.29
741.45	236.16
741.78	235.99
742.11	235.92
742.44	235.78
742.77	235.70
743.10	235.57
743.43	235.47
743.75	235.24
744.08	235.33
744.41	235.23
744.74	235.13
745.07	235.00
745.40	234.93
745.73	234.89
746.06	234.81
746.39	234.74
746.71	234.65
747.04	234.54
747.37	234.46
747.70	234.40
748.03	234.32
748.36	234.26
748.68	234.17
749.01	234.05
749.34	233.97
749.67	233.89
750.00	233.82
750.33	233.84
750.65	233.77
750.98	233.50
751.31	233.42
751.64	233.35
751.97	233.35
752.29	233.26
752.62	233.12
752.95	233.04
753.28	232.94
753.60	232.86
753.93	232.82
754.26	232.76
754.59	232.64
754.91	232.55
755.24	232.46
755.57	232.45
755.90	232.37
756.22	232.29
756.55	232.20
756.88	232.10
757.20	231.94
757.53	231.83
757.86	231.76
758.19	231.70
758.51	231.63
758.84	231.50
759.17	231.42
759.49	231.36
759.82	231.36
760.15	231.31
760.47	231.25
760.80	231.15
761.13	231.10
761.45	231.05
761.78	230.99
762.11	230.94
762.43	230.82
762.76	230.76
763.08	230.72
763.41	230.68
763.74	230.63
764.06	230.58
764.39	230.53
764.71	230.48
765.04	230.42
765.37	230.36
765.69	230.31
766.02	230.26
766.34	230.21
766.67	230.11
767.00	230.08
767.32	230.10
767.65	230.14
767.97	230.08
768.30	230.04
768.62	230.00
768.95	229.94
769.27	229.89
769.60	229.86
769.92	229.80
770.25	229.73
770.57	229.67
770.90	229.63
771.22	229.58
771.55	229.53
771.87	229.50
772.20	229.46
772.52	229.53
772.85	229.64
773.17	229.61
773.50	229.56
773.82	229.50
774.15	229.40
774.47	229.28
774.80	229.23
775.12	229.20
775.45	229.16
775.77	229.14
776.09	229.11
776.42	229.08
776.74	229.09
777.07	229.05
777.39	229.03
777.72	228.99
778.04	228.98
778.36	228.94
778.69	228.92
779.01	228.90
779.33	228.76
779.66	228.59
779.98	228.55
780.31	228.53
780.63	228.56
780.95	228.56
781.28	228.53
781.60	228.50
781.92	228.47
782.25	228.45
782.57	228.43
782.89	228.39
783.22	228.36
783.54	228.31
783.86	228.30
784.19	228.27
784.51	228.28
784.83	228.24
785.16	228.22
785.48	228.20
785.80	228.17
786.12	228.16
786.45	228.14
786.77	228.13
787.09	228.10
787.42	228.03
787.74	228.01
788.06	228.00
788.38	227.98
788.71	227.95
789.03	227.93
789.35	227.93
789.67	227.90
789.99	227.89
790.32	227.85
790.64	227.85
790.96	227.95
791.28	227.88
791.61	227.86
791.93	227.85
792.25	227.83
792.57	227.90
792.89	227.86
793.21	227.85
793.54	227.82
793.86	227.79
794.18	227.78
794.50	227.74
794.82	227.72
795.14	227.72
795.47	227.73
795.79	227.71
796.11	227.66
796.43	227.65
796.75	227.63
797.07	227.62
797.39	227.60
797.71	227.48
798.04	227.48
798.36	227.47
798.68	227.45
799.00	227.44
799.32	227.37
799.64	227.37
799.96	227.35
800.28	227.37
800.60	227.35
800.92	227.35
801.24	227.33
801.56	227.32
801.89	227.30
802.21	227.29
802.53	227.25
802.85	227.27
803.17	227.32
803.49	227.28
803.81	227.25
804.13	227.23
804.45	227.20
804.77	227.20
805.09	227.18
805.41	227.16
805.73	227.13
806.05	227.08
806.37	227.05
806.69	227.03
807.01	227.01
807.33	227.01
807.65	226.95
807.97	227.00
808.28	226.97
808.60	226.96
808.92	226.93
809.24	227.00
809.56	226.96
809.88	226.91
810.20	226.91
810.52	226.92
810.84	226.90
811.16	226.87
811.48	226.85
811.80	226.89
812.12	226.87
812.43	226.89
812.75	226.89
813.07	226.87
813.39	226.87
813.71	226.84
814.03	226.82
814.35	226.82
814.67	226.76
814.98	226.74
815.30	226.73
815.62	226.70
815.94	226.61
816.26	226.61
816.58	226.58
816.89	226.58
817.21	226.55
817.53	226.55
817.85	226.55
818.17	226.54
818.48	226.48
818.80	226.50
819.12	226.47
819.44	226.44
819.76	226.42
820.07	226.41
820.39	226.40
820.71	226.40
821.03	226.40
821.34	226.38
821.66	226.39
821.98	226.40
822.30	226.39
822.61	226.47
822.93	226.44
823.25	226.43
823.57	226.41
823.88	226.42
824.20	226.41
824.52	226.42
824.83	226.41
825.15	226.40
825.47	226.38
825.79	226.39
826.10	226.38
826.42	226.37
826.74	226.37
827.05	226.36
827.37	226.36
827.69	226.35
828.00	226.35
828.32	226.34
828.64	226.31
828.95	226.37
829.27	226.33
829.58	226.33
829.90	226.34
830.22	226.35
830.53	226.32
830.85	226.30
831.17	226.26
831.48	226.26
831.80	226.26
832.11	226.25
832.43	226.22
832.75	226.22
833.06	226.29
833.38	226.25
833.69	226.24
834.01	226.24
834.32	226.24
834.64	226.22
834.96	226.22
835.27	226.21
835.59	226.16
835.90	226.14
836.22	226.13
836.53	226.10
836.85	226.08
837.16	226.21
837.48	226.21
837.79	226.25
838.11	226.25
838.42	226.24
838.74	226.25
839.05	226.24
839.37	226.23
839.68	226.15
840.00	226.15
840.31	226.16
840.63	226.14
840.94	226.13
841.26	226.11
841.57	226.11
841.88	226.11
842.20	226.09
842.51	226.07
842.83	226.06
843.14	226.18
843.46	226.17
843.77	226.09
844.08	226.09
844.40	226.04
844.71	226.03
845.03	226.01
845.34	225.99
845.65	225.99
845.97	225.99
846.28	226.00
846.60	226.00
846.91	225.98
847.22	225.97
847.54	226.00
847.85	226.01
848.16	225.99
848.48	225.97
848.79	226.01
849.10	226.03
849.42	226.03
849.73	225.91
850.04	225.91
850.36	225.86
850.67	225.88
850.98	225.89
851.30	225.90
851.61	225.89
851.92	225.89
852.23	225.93
852.55	225.93
852.86	225.93
853.17	225.94
853.49	225.96
853.80	225.99
854.11	225.99
854.42	226.00
854.74	225.99
855.05	225.99
855.36	225.93
855.67	225.93
855.99	225.93
856.30	226.08
856.61	226.07
856.92	226.08
857.23	226.08
857.55	226.06
857.86	226.05
858.17	226.07
858.48	226.05
858.79	226.02
859.11	226.03
859.42	226.02
859.73	226.00
860.04	225.99
860.35	225.95
860.66	225.91
860.98	225.90
861.29	225.92
861.60	225.91
861.91	225.94
862.22	225.92
862.53	225.90
862.84	225.74
863.16	225.77
863.47	225.74
863.78	225.72
864.09	225.73
864.40	225.74
864.71	225.74
865.02	225.75
865.33	225.74
865.64	225.71
865.95	225.71
866.27	225.79
866.58	225.78
866.89	225.79
867.20	225.79
867.51	225.77
867.82	225.77
868.13	225.81
868.44	225.78
868.75	225.80
869.06	225.81
869.37	225.82
869.68	225.79
869.99	225.81
870.30	225.82
870.61	225.83
870.92	225.81
871.23	225.80
871.54	225.81
871.85	225.84
872.16	225.86
872.47	225.84
872.78	225.77
873.09	225.78
873.40	225.77
873.71	225.77
874.02	225.78
874.33	225.77
874.64	225.74
874.95	225.76
875.26	225.74
875.56	225.74
875.87	225.72
876.18	225.72
876.49	225.84
876.80	225.83
877.11	225.80
877.42	225.81
877.73	225.81
878.04	225.79
878.35	225.78
878.66	225.78
878.96	225.78
879.27	225.78
879.58	225.77
879.89	225.77
880.20	225.80
880.51	225.79
880.82	225.80
881.12	225.80
881.43	225.77
881.74	225.76
882.05	225.75
882.36	225.76
882.67	225.77
882.97	225.63
883.28	225.63
883.59	225.62
883.90	225.63
884.21	225.65
884.51	225.65
884.82	225.63
885.13	225.63
885.44	225.62
885.74	225.62
886.05	225.61
886.36	225.61
886.67	225.57
886.98	225.63
887.28	225.64
887.59	225.64
887.90	225.64
888.20	225.64
888.51	225.66
888.82	225.64
889.13	225.65
889.43	225.76
889.74	225.75
890.05	225.75
890.35	225.74
890.66	225.72
890.97	225.70
891.28	225.69
891.58	225.69
891.89	225.70
892.20	225.68
892.50	225.67
892.81	225.66
893.12	225.66
893.42	225.60
893.73	225.60
894.04	225.59
894.34	225.60
894.65	225.60
894.95	225.59
895.26	225.59
895.57	225.64
895.87	225.52
896.18	225.54
896.48	225.54
896.79	225.54
897.10	225.56
897.40	225.57
897.71	225.58
898.01	225.57
898.32	225.58
898.63	225.58
898.93	225.59
899.24	225.59
899.54	225.58
899.85	225.58
900.15	225.57
900.46	225.57
900.76	225.58
901.07	225.58
901.38	225.57
901.68	225.58
901.99	225.52
902.29	225.53
902.60	225.52
902.90	225.51
903.21	225.51
903.51	225.49
903.82	225.52
904.12	225.52
904.43	225.53
904.73	225.52
905.03	225.53
905.34	225.65
905.64	225.64
905.95	225.64
906.25	225.64
906.56	225.64
906.86	225.63
907.17	225.62
907.47	225.63
907.77	225.62
908.08	225.59
908.38	225.60
908.69	225.61
908.99	225.63
909.30	225.64
909.60	225.63
909.90	225.63
910.21	225.59
910.51	225.57
910.81	225.57
911.12	225.58
911.42	225.58
911.73	225.44
912.03	225.45
912.33	225.48
912.64	225.47
912.94	225.46
913.24	225.44
913.55	225.43
913.85	225.42
914.15	225.45
914.46	225.46
914.76	225.45
915.06	225.44
915.37	225.42
915.67	225.41
915.97	225.41
916.27	225.39
916.58	225.40
916.88	225.40
917.18	225.38
917.49	225.47
917.79	225.46
918.09	225.48
918.39	225.51
918.70	225.50
919.00	225.51
919.30	225.57
919.60	225.56
919.91	225.55
920.21	225.56
920.51	225.53
920.81	225.52
921.12	225.54
921.42	225.54
921.72	225.55
922.02	225.56
922.32	225.57
922.63	225.58
922.93	225.65
923.23	225.65
923.53	225.65
923.83	225.56
924.13	225.57
924.44	225.57
924.74	225.59
925.04	225.61
925.34	225.61
925.64	225.55
925.94	225.55
926.24	225.63
926.55	225.61
926.85	225.63
927.15	225.63
927.45	225.63
927.75	225.62
928.05	225.62
928.35	225.61
928.65	225.63
928.95	225.64
929.26	225.58
929.56	225.60
929.86	225.61
930.16	225.60
930.46	225.59
930.76	225.59
931.06	225.54
931.36	225.50
931.66	225.52
931.96	225.53
932.26	225.54
932.56	225.49
932.86	225.50
933.16	225.49
933.46	225.48
933.76	225.46
934.06	225.49
934.36	225.53
934.66	225.52
934.96	225.51
935.26	225.51
935.56	225.53
935.86	225.49
936.16	225.47
936.46	225.46
936.76	225.46
937.06	225.43
937.36	225.45
937.66	225.45
937.96	225.44
938.26	225.41
938.56	225.41
938.86	225.41
939.16	225.44
939.46	225.44
939.76	225.45
940.06	225.45
940.35	225.42
940.65	225.36
940.95	225.37
941.25	225.34
941.55	225.32
941.85	225.31
942.15	225.34
942.45	225.37
942.75	225.37
943.04	225.38
943.34	225.40
943.64	225.39
943.94	225.37
944.24	225.37
944.54	225.38
944.84	225.38
945.13	225.36
945.43	225.33
945.73	225.33
946.03	225.31
946.33	225.30
946.62	225.29
946.92	225.30
947.22	225.30
947.52	225.31
947.82	225.33
948.11	225.32
948.41	225.29
948.71	225.26
949.01	225.26
949.31	225.25
949.60	225.24
949.90	225.26
950.20	225.26
950.50	225.25
950.79	225.25
951.09	225.26
951.39	225.27
951.69	225.25
951.98	225.27
952.28	225.28
952.58	225.28
952.87	225.28
953.17	225.30
953.47	225.28
953.76	225.28
954.06	225.26
954.36	225.24
954.66	225.24
954.95	225.28
955.25	225.28
955.55	225.30
955.84	225.28
956.14	225.28
956.44	225.29
956.73	225.28
957.03	225.28
957.32	225.28
957.62	225.28
957.92	225.31
958.21	225.29
958.51	225.44
958.81	225.46
959.10	225.47
959.40	225.49
959.69	225.50
959.99	225.52
960.29	225.52
960.58	225.52
960.88	225.57
961.17	225.55
961.47	225.56
961.76	225.55
962.06	225.57
962.36	225.55
962.65	225.56
962.95	225.57
963.24	225.56
963.54	225.56
963.83	225.57
964.13	225.56
964.42	225.55
964.72	225.44
965.01	225.44
965.31	225.43
965.60	225.40
965.90	225.48
966.19	225.45
966.49	225.46
966.78	225.45
967.08	225.44
967.37	225.44
967.67	225.42
967.96	225.44
968.26	225.43
968.55	225.45
968.85	225.45
969.14	225.44
969.43	225.45
969.73	225.43
970.02	225.43
970.32	225.42
970.61	225.40
970.91	225.37
971.20	225.35
971.49	225.34
971.79	225.35
972.08	225.26
972.38	225.27
972.67	225.27
972.96	225.29
973.26	225.26
973.55	225.30
973.85	225.30
974.14	225.28
974.43	225.29
974.73	225.26
975.02	225.25
975.31	225.25
975.61	225.25
975.90	225.24
976.19	225.23
976.49	225.25
976.78	225.26
977.07	225.26
977.37	225.27
977.66	225.28
977.95	225.26
978.24	225.27
978.54	225.29
978.83	225.29
979.12	225.28
979.42	225.28
979.71	225.25
980.00	225.25
980.29	225.26
980.59	225.23
980.88	225.27
981.17	225.27
981.46	225.27
981.76	225.27
982.05	225.31
982.34	225.32
982.63	225.32
982.93	225.32
983.22	225.34
983.51	225.35
983.80	225.36
984.09	225.38
984.39	225.37
984.68	225.35
984.97	225.36
985.26	225.35
985.55	225.36
985.85	225.33
986.14	225.35
986.43	225.37
986.72	225.36
987.01	225.32
987.30	225.32
987.59	225.31
987.89	225.32
988.18	225.27
988.47	225.27
988.76	225.25
989.05	225.24
989.34	225.22
989.63	225.25
989.92	225.23
990.22	225.21
990.51	225.21
990.80	225.20
991.09	225.21
991.38	225.23
991.67	225.21
991.96	225.20
992.25	225.21
992.54	225.18
992.83	225.19
993.12	225.18
993.41	225.21
993.70	225.26
993.99	225.28
994.28	225.29
994.58	225.31
994.87	225.30
995.16	225.30
995.45	225.29
995.74	225.24
996.03	225.26
996.32	225.28
996.61	225.31
996.90	225.31
997.19	225.30
997.48	225.30
997.77	225.29
998.06	225.30
998.34	225.28
998.63	225.28
998.92	225.29
999.21	225.31
999.50	225.31
999.79	225.26
1000.08	225.25
1000.37	225.26
1000.66	225.24
1000.95	225.27
1001.24	225.28
1001.53	225.30
1001.82	225.30
1002.11	225.27
1002.40	225.28
1002.68	225.30
1002.97	225.39
1003.26	225.38
1003.55	225.36
1003.84	225.37
1004.13	225.41
1004.42	225.41
1004.71	225.41
1004.99	225.40
1005.28	225.43
1005.57	225.42
1005.86	225.41
1006.15	225.39
1006.44	225.37
1006.72	225.39
1007.01	225.37
1007.30	225.37
1007.59	225.35
1007.88	225.35
1008.17	225.36
1008.45	225.33
1008.74	225.28
1009.03	225.22
1009.32	225.22
1009.60	225.22
1009.89	225.21
1010.18	225.16
1010.47	225.16
1010.76	225.16
1011.04	225.15
1011.33	225.15
1011.62	225.16
1011.91	225.17
1012.19	225.18
1012.48	225.18
1012.77	225.18
1013.05	225.22
1013.34	225.22
1013.63	225.21
1013.92	225.22
1014.20	225.21
1014.49	225.22
1014.78	225.23
1015.06	225.19
1015.35	225.20
1015.64	225.21
1015.92	225.23
1016.21	225.24
1016.50	225.25
1016.78	225.26
1017.07	225.27
1017.36	225.25
1017.64	225.23
1017.93	225.24
1018.22	225.22
1018.50	225.22
1018.79	225.22
1019.08	225.17
1019.36	225.18
1019.65	225.17
1019.93	225.20
1020.22	225.22
1020.51	225.29
1020.79	225.27
1021.08	225.05
1021.36	225.00
1021.65	225.20
1021.94	225.14
1022.22	225.27
1022.51	224.97
1022.79	225.82
1023.08	225.37
1023.36	226.74
1023.65	224.90
>>>>>End Processed Spectral Data<<<<<
