SpectraSuite Data File
++++++++++++++++++++++++++++++++++++
Date: Fri Oct 02 15:54:59 EDT 2015
User: lab3
Dark Spectrum Present: No
Reference Spectrum Present: No
Number of Sampled Component Spectra: 1
Spectrometers: USB2E7196
Integration Time (usec): 46000 (USB2E7196)
Spectra Averaged: 1200 (USB2E7196)
Boxcar Smoothing: 10 (USB2E7196)
Correct for Electrical Dark: No (USB2E7196)
Strobe/Lamp Enabled: No (USB2E7196)
Correct for Detector Non-linearity: No (USB2E7196)
Correct for Stray Light: No (USB2E7196)
Number of Pixels in Processed Spectrum: 2048
>>>>>Begin Processed Spectral Data<<<<<
339.09	0.00
339.48	213.96
339.86	215.65
340.24	216.97
340.63	218.39
341.01	221.67
341.39	220.96
341.78	222.27
342.16	223.87
342.54	224.02
342.93	212.56
343.31	223.30
343.69	223.84
344.07	224.31
344.46	224.74
344.84	225.13
345.22	225.34
345.60	225.61
345.99	225.81
346.37	225.94
346.75	226.05
347.13	226.12
347.52	226.20
347.90	226.28
348.28	226.31
348.66	226.37
349.05	226.36
349.43	226.42
349.81	226.48
350.19	226.55
350.57	226.62
350.96	226.70
351.34	226.79
351.72	226.88
352.10	226.98
352.48	227.04
352.87	227.09
353.25	227.16
353.63	227.22
354.01	227.29
354.39	227.37
354.77	227.44
355.15	227.56
355.54	227.59
355.92	227.62
356.30	227.69
356.68	227.85
357.06	227.93
357.44	227.98
357.82	228.03
358.20	228.15
358.58	228.21
358.97	228.27
359.35	228.36
359.73	228.45
360.11	228.51
360.49	228.58
360.87	228.62
361.25	228.68
361.63	228.76
362.01	228.82
362.39	228.83
362.77	228.88
363.15	228.90
363.53	228.94
363.91	228.98
364.29	229.01
364.67	228.91
365.05	228.93
365.43	228.96
365.81	228.99
366.19	229.01
366.57	229.07
366.95	229.08
367.33	229.04
367.71	229.03
368.09	229.05
368.47	229.05
368.85	229.04
369.23	229.06
369.61	229.01
369.99	229.02
370.37	229.04
370.75	229.11
371.13	229.08
371.51	229.03
371.89	229.02
372.27	229.00
372.65	228.97
373.03	228.93
373.41	228.88
373.78	228.85
374.16	228.75
374.54	228.67
374.92	228.62
375.30	228.58
375.68	228.51
376.06	228.47
376.44	228.41
376.82	228.37
377.19	228.32
377.57	228.28
377.95	228.19
378.33	228.12
378.71	227.97
379.09	227.92
379.47	227.89
379.84	227.82
380.22	227.76
380.60	227.68
380.98	227.64
381.36	227.59
381.73	227.52
382.11	227.50
382.49	227.46
382.87	227.40
383.25	227.36
383.62	227.47
384.00	227.40
384.38	227.37
384.76	227.36
385.13	227.36
385.51	227.33
385.89	227.28
386.27	227.25
386.64	227.23
387.02	227.18
387.40	227.14
387.78	227.11
388.15	227.09
388.53	227.07
388.91	227.04
389.29	227.00
389.66	226.99
390.04	226.94
390.42	226.93
390.79	226.92
391.17	226.90
391.55	226.74
391.92	226.73
392.30	226.74
392.68	226.69
393.05	226.66
393.43	226.66
393.81	226.67
394.18	226.65
394.56	226.65
394.94	226.69
395.31	226.69
395.69	226.73
396.06	226.77
396.44	226.80
396.82	226.80
397.19	226.90
397.57	226.91
397.95	226.96
398.32	226.95
398.70	226.99
399.07	227.06
399.45	227.10
399.82	227.13
400.20	227.16
400.58	227.22
400.95	227.23
401.33	227.31
401.70	227.46
402.08	227.56
402.45	227.64
402.83	227.76
403.20	227.88
403.58	227.96
403.95	228.10
404.33	228.24
404.71	228.39
405.08	228.60
405.46	228.77
405.83	228.96
406.21	229.17
406.58	229.38
406.96	229.58
407.33	229.83
407.70	230.13
408.08	230.53
408.45	230.87
408.83	231.23
409.20	231.55
409.58	231.83
409.95	232.24
410.33	232.68
410.70	233.09
411.08	233.57
411.45	234.09
411.82	234.60
412.20	235.21
412.57	235.91
412.95	236.46
413.32	237.19
413.69	237.93
414.07	238.73
414.44	239.59
414.82	240.49
415.19	241.53
415.56	242.57
415.94	243.64
416.31	244.86
416.68	246.08
417.06	247.50
417.43	248.84
417.81	250.37
418.18	251.93
418.55	253.62
418.93	255.39
419.30	257.24
419.67	259.20
420.04	261.21
420.42	263.32
420.79	265.74
421.16	268.20
421.54	270.69
421.91	273.30
422.28	276.01
422.66	278.93
423.03	281.71
423.40	284.62
423.77	287.74
424.15	290.95
424.52	294.28
424.89	297.89
425.26	301.48
425.64	304.82
426.01	308.59
426.38	312.43
426.75	316.39
427.13	320.46
427.50	324.71
427.87	329.15
428.24	333.62
428.61	337.94
428.99	342.59
429.36	347.69
429.73	352.58
430.10	357.47
430.47	362.46
430.85	367.63
431.22	373.18
431.59	378.90
431.96	384.47
432.33	390.67
432.70	396.58
433.08	403.54
433.45	410.12
433.82	416.60
434.19	423.87
434.56	431.04
434.93	437.95
435.30	444.79
435.68	452.51
436.05	460.08
436.42	467.62
436.79	474.50
437.16	481.92
437.53	489.88
437.90	497.84
438.27	505.65
438.64	514.05
439.01	521.66
439.38	528.62
439.75	535.33
440.13	542.89
440.50	550.07
440.87	555.78
441.24	562.01
441.61	568.79
441.98	573.71
442.35	579.53
442.72	585.47
443.09	591.12
443.46	594.67
443.83	597.20
444.20	599.29
444.57	602.49
444.94	604.22
445.31	606.01
445.68	607.49
446.05	608.49
446.42	607.88
446.79	607.08
447.16	606.33
447.53	605.61
447.90	602.94
448.27	600.36
448.64	596.59
449.01	593.88
449.37	588.80
449.74	584.17
450.11	578.31
450.48	571.90
450.85	565.48
451.22	559.98
451.59	554.66
451.96	549.82
452.33	542.86
452.70	536.69
453.07	529.18
453.43	521.76
453.80	514.55
454.17	507.68
454.54	501.35
454.91	494.24
455.28	487.59
455.65	481.32
456.02	474.71
456.38	469.38
456.75	462.56
457.12	457.06
457.49	451.52
457.86	446.30
458.23	441.76
458.59	436.74
458.96	431.59
459.33	427.05
459.70	422.44
460.07	418.96
460.43	414.86
460.80	411.05
461.17	407.72
461.54	404.12
461.91	400.77
462.27	397.36
462.64	394.63
463.01	391.45
463.38	388.25
463.74	385.37
464.11	382.84
464.48	380.56
464.85	378.08
465.21	376.24
465.58	374.16
465.95	371.75
466.32	369.85
466.68	367.99
467.05	366.13
467.42	364.29
467.78	362.30
468.15	360.47
468.52	359.15
468.88	357.35
469.25	355.70
469.62	354.40
469.98	352.97
470.35	351.71
470.72	350.57
471.08	349.42
471.45	348.44
471.82	347.37
472.18	346.22
472.55	345.48
472.92	344.53
473.28	343.79
473.65	342.99
474.02	342.24
474.38	341.61
474.75	341.25
475.11	340.74
475.48	340.50
475.85	340.25
476.21	340.12
476.58	340.04
476.94	340.19
477.31	340.28
477.67	340.39
478.04	340.61
478.41	340.91
478.77	341.33
479.14	341.62
479.50	342.14
479.87	342.82
480.23	343.52
480.60	344.20
480.96	344.86
481.33	345.87
481.69	346.86
482.06	347.85
482.42	348.75
482.79	349.87
483.15	351.18
483.52	352.66
483.88	354.07
484.25	355.59
484.61	357.16
484.98	358.87
485.34	360.79
485.71	362.79
486.07	364.93
486.44	367.07
486.80	369.47
487.17	371.97
487.53	374.69
487.90	377.49
488.26	380.58
488.62	383.84
488.99	387.10
489.35	390.54
489.72	394.25
490.08	398.18
490.44	402.24
490.81	406.46
491.17	410.76
491.54	415.37
491.90	420.14
492.26	425.26
492.63	430.63
492.99	436.22
493.36	442.00
493.72	448.09
494.08	454.35
494.45	460.97
494.81	467.82
495.17	474.85
495.54	482.27
495.90	490.05
496.26	497.98
496.63	506.15
496.99	514.66
497.35	523.51
497.72	532.67
498.08	542.06
498.44	551.75
498.80	562.02
499.17	572.56
499.53	583.45
499.89	594.66
500.26	606.10
500.62	617.78
500.98	630.12
501.34	642.63
501.71	655.65
502.07	668.82
502.43	682.53
502.79	696.55
503.16	710.97
503.52	725.59
503.88	740.63
504.24	756.11
504.60	771.79
504.97	787.95
505.33	804.47
505.69	821.90
506.05	839.58
506.41	857.28
506.78	875.13
507.14	893.44
507.50	912.20
507.86	931.27
508.22	950.65
508.59	969.84
508.95	989.86
509.31	1010.55
509.67	1031.95
510.03	1053.32
510.39	1074.68
510.75	1096.28
511.12	1118.12
511.48	1140.11
511.84	1162.14
512.20	1184.47
512.56	1207.67
512.92	1230.91
513.28	1253.71
513.64	1276.71
514.00	1300.07
514.37	1323.78
514.73	1347.54
515.09	1371.14
515.45	1395.08
515.81	1419.14
516.17	1443.22
516.53	1466.84
516.89	1490.33
517.25	1514.03
517.61	1537.63
517.97	1561.57
518.33	1584.86
518.69	1608.06
519.05	1631.82
519.41	1655.72
519.77	1679.86
520.13	1703.27
520.49	1726.58
520.85	1750.15
521.21	1773.44
521.57	1797.16
521.93	1820.25
522.29	1843.74
522.65	1866.65
523.01	1889.54
523.37	1912.00
523.73	1935.23
524.09	1958.04
524.45	1980.69
524.81	2002.80
525.17	2024.66
525.53	2046.07
525.89	2068.04
526.25	2090.03
526.61	2110.95
526.97	2131.94
527.33	2152.75
527.68	2173.28
528.04	2193.04
528.40	2211.88
528.76	2230.78
529.12	2249.00
529.48	2267.16
529.84	2283.48
530.20	2300.44
530.56	2316.77
530.91	2333.20
531.27	2349.19
531.63	2364.44
531.99	2379.20
532.35	2393.42
532.71	2407.73
533.07	2422.38
533.42	2435.14
533.78	2448.93
534.14	2462.91
534.50	2476.00
534.86	2488.91
535.21	2500.04
535.57	2511.65
535.93	2522.99
536.29	2533.22
536.65	2543.48
537.00	2552.83
537.36	2563.25
537.72	2572.29
538.08	2580.65
538.44	2588.51
538.79	2595.97
539.15	2602.65
539.51	2608.95
539.87	2614.45
540.22	2618.29
540.58	2622.18
540.94	2627.48
541.29	2631.02
541.65	2632.82
542.01	2634.10
542.37	2634.71
542.72	2636.38
543.08	2636.57
543.44	2637.33
543.79	2637.19
544.15	2636.10
544.51	2635.31
544.87	2633.32
545.22	2630.61
545.58	2627.35
545.94	2624.01
546.29	2619.53
546.65	2615.15
547.01	2610.58
547.36	2606.78
547.72	2602.79
548.07	2597.58
548.43	2590.91
548.79	2583.34
549.14	2576.92
549.50	2570.78
549.86	2563.67
550.21	2555.73
550.57	2548.35
550.92	2538.91
551.28	2530.08
551.64	2521.53
551.99	2512.66
552.35	2503.28
552.70	2494.17
553.06	2485.62
553.41	2476.54
553.77	2467.06
554.13	2457.28
554.48	2446.99
554.84	2435.49
555.19	2424.63
555.55	2413.61
555.90	2402.59
556.26	2392.06
556.61	2380.64
556.97	2367.76
557.32	2355.51
557.68	2342.86
558.03	2330.25
558.39	2318.79
558.74	2307.42
559.10	2294.62
559.45	2281.98
559.81	2269.89
560.16	2257.40
560.52	2244.87
560.87	2232.53
561.23	2219.57
561.58	2206.95
561.94	2193.86
562.29	2180.39
562.64	2167.52
563.00	2154.30
563.35	2141.65
563.71	2128.78
564.06	2115.82
564.42	2103.39
564.77	2090.46
565.12	2077.69
565.48	2064.88
565.83	2052.00
566.19	2039.38
566.54	2026.55
566.89	2012.83
567.25	1999.28
567.60	1986.77
567.96	1973.70
568.31	1959.33
568.66	1945.64
569.02	1932.99
569.37	1920.26
569.72	1908.11
570.08	1894.73
570.43	1881.01
570.78	1866.97
571.14	1852.58
571.49	1838.77
571.84	1825.53
572.20	1811.23
572.55	1797.11
572.90	1782.86
573.26	1768.61
573.61	1753.80
573.96	1739.49
574.31	1725.32
574.67	1711.29
575.02	1696.40
575.37	1681.32
575.72	1667.28
576.08	1653.61
576.43	1638.85
576.78	1624.57
577.13	1610.51
577.49	1596.96
577.84	1583.99
578.19	1570.22
578.54	1556.53
578.90	1542.43
579.25	1528.21
579.60	1515.35
579.95	1502.45
580.30	1489.33
580.66	1475.99
581.01	1462.64
581.36	1449.36
581.71	1437.04
582.06	1424.49
582.42	1412.17
582.77	1400.06
583.12	1387.87
583.47	1375.44
583.82	1363.28
584.17	1350.77
584.53	1337.90
584.88	1325.29
585.23	1312.40
585.58	1300.32
585.93	1288.40
586.28	1277.07
586.63	1265.75
586.98	1254.05
587.34	1242.38
587.69	1230.58
588.04	1219.16
588.39	1208.15
588.74	1197.23
589.09	1186.08
589.44	1174.63
589.79	1163.68
590.14	1152.85
590.49	1141.95
590.84	1131.23
591.19	1120.70
591.54	1110.10
591.89	1099.66
592.25	1089.44
592.60	1078.91
592.95	1068.63
593.30	1058.62
593.65	1048.41
594.00	1038.23
594.35	1028.67
594.70	1018.72
595.05	1009.56
595.40	1000.33
595.75	990.93
596.10	981.93
596.45	972.75
596.80	963.89
597.15	954.91
597.50	946.03
597.85	937.51
598.19	928.85
598.54	920.25
598.89	911.99
599.24	904.04
599.59	895.95
599.94	888.68
600.29	881.25
600.64	873.54
600.99	865.52
601.34	857.90
601.69	849.88
602.04	842.47
602.39	834.96
602.74	827.47
603.08	819.98
603.43	812.50
603.78	805.13
604.13	797.91
604.48	790.64
604.83	783.55
605.18	776.34
605.53	769.39
605.87	762.30
606.22	755.53
606.57	748.66
606.92	741.66
607.27	734.69
607.62	728.01
607.96	721.68
608.31	715.70
608.66	709.53
609.01	703.65
609.36	697.92
609.70	691.91
610.05	685.91
610.40	680.16
610.75	674.40
611.10	668.96
611.44	663.40
611.79	657.93
612.14	652.41
612.49	646.98
612.83	641.72
613.18	636.60
613.53	631.41
613.88	626.26
614.22	621.54
614.57	616.66
614.92	611.64
615.27	606.71
615.61	601.86
615.96	597.09
616.31	592.34
616.65	587.64
617.00	583.14
617.35	578.69
617.70	574.33
618.04	570.03
618.39	565.68
618.74	561.51
619.08	557.39
619.43	553.34
619.78	549.35
620.12	545.34
620.47	541.48
620.82	537.67
621.16	533.91
621.51	530.07
621.85	526.29
622.20	522.68
622.55	519.09
622.89	515.54
623.24	512.02
623.59	508.50
623.93	505.07
624.28	501.75
624.62	498.57
624.97	495.37
625.32	492.16
625.66	488.89
626.01	485.60
626.35	482.37
626.70	479.19
627.04	476.18
627.39	473.11
627.73	470.15
628.08	467.30
628.43	464.42
628.77	461.63
629.12	458.93
629.46	456.25
629.81	453.53
630.15	450.80
630.50	448.15
630.84	445.55
631.19	443.03
631.53	440.59
631.88	438.08
632.22	435.61
632.57	433.40
632.91	431.21
633.26	429.10
633.60	427.00
633.95	424.98
634.29	422.87
634.64	420.81
634.98	418.59
635.32	416.51
635.67	414.59
636.01	412.57
636.36	410.62
636.70	408.78
637.05	406.92
637.39	405.14
637.73	403.37
638.08	401.69
638.42	399.97
638.77	398.15
639.11	396.30
639.45	394.52
639.80	392.66
640.14	390.89
640.49	389.12
640.83	387.32
641.17	385.59
641.52	383.90
641.86	382.25
642.20	380.78
642.55	379.15
642.89	377.57
643.23	376.04
643.58	374.66
643.92	373.16
644.26	371.72
644.61	370.28
644.95	368.83
645.29	367.31
645.64	365.82
645.98	364.40
646.32	363.10
646.66	361.75
647.01	360.42
647.35	359.17
647.69	357.89
648.04	356.75
648.38	355.49
648.72	354.27
649.06	353.04
649.41	351.84
649.75	350.68
650.09	349.51
650.43	348.37
650.78	347.17
651.12	346.00
651.46	344.87
651.80	343.80
652.14	342.73
652.49	341.72
652.83	340.68
653.17	339.66
653.51	338.67
653.85	337.76
654.20	336.80
654.54	335.75
654.88	334.77
655.22	333.80
655.56	332.83
655.90	331.92
656.25	331.05
656.59	330.15
656.93	329.29
657.27	328.45
657.61	327.55
657.95	326.70
658.29	325.84
658.64	325.03
658.98	324.19
659.32	323.38
659.66	322.61
660.00	321.86
660.34	321.12
660.68	320.33
661.02	319.50
661.36	318.71
661.70	317.96
662.05	317.23
662.39	316.49
662.73	315.87
663.07	315.21
663.41	314.51
663.75	313.79
664.09	313.09
664.43	312.35
664.77	311.68
665.11	310.98
665.45	310.34
665.79	309.71
666.13	309.03
666.47	308.35
666.81	307.66
667.15	306.92
667.49	306.27
667.83	305.69
668.17	305.06
668.51	304.48
668.85	303.92
669.19	303.40
669.53	302.79
669.87	302.13
670.21	301.51
670.55	300.93
670.89	300.43
671.23	299.88
671.57	299.35
671.91	298.87
672.25	298.39
672.58	297.91
672.92	297.35
673.26	296.88
673.60	296.40
673.94	295.94
674.28	295.52
674.62	295.06
674.96	294.54
675.30	294.10
675.64	293.61
675.97	293.11
676.31	292.57
676.65	292.09
676.99	291.68
677.33	291.20
677.67	290.73
678.01	290.20
678.34	289.73
678.68	289.31
679.02	288.80
679.36	288.32
679.70	287.85
680.04	287.41
680.37	286.96
680.71	286.53
681.05	286.09
681.39	285.63
681.73	285.14
682.06	284.67
682.40	284.21
682.74	283.81
683.08	283.44
683.42	283.02
683.75	282.64
684.09	282.17
684.43	281.76
684.77	281.34
685.10	280.97
685.44	280.57
685.78	280.17
686.12	279.79
686.45	279.39
686.79	278.95
687.13	278.55
687.46	278.11
687.80	277.72
688.14	277.27
688.48	276.88
688.81	276.47
689.15	276.11
689.49	275.72
689.82	275.32
690.16	274.85
690.50	274.46
690.83	274.06
691.17	273.66
691.51	273.27
691.84	272.92
692.18	272.51
692.52	272.09
692.85	271.69
693.19	271.33
693.52	270.94
693.86	270.57
694.20	270.20
694.53	269.84
694.87	269.45
695.21	269.07
695.54	268.69
695.88	268.31
696.21	267.90
696.55	267.54
696.88	267.18
697.22	266.82
697.56	266.46
697.89	266.05
698.23	265.70
698.56	265.32
698.90	264.94
699.23	264.56
699.57	264.20
699.90	263.83
700.24	263.45
700.58	263.13
700.91	262.83
701.25	262.61
701.58	262.32
701.92	262.03
702.25	261.72
702.59	261.39
702.92	261.08
703.26	260.75
703.59	260.42
703.93	260.20
704.26	259.88
704.60	259.56
704.93	259.26
705.26	258.94
705.60	258.67
705.93	258.33
706.27	258.07
706.60	257.81
706.94	257.56
707.27	257.23
707.61	256.92
707.94	256.58
708.27	256.15
708.61	255.80
708.94	255.48
709.28	255.19
709.61	254.89
709.94	254.62
710.28	254.35
710.61	254.10
710.95	253.73
711.28	253.53
711.61	253.27
711.95	253.02
712.28	252.75
712.61	252.46
712.95	252.29
713.28	252.09
713.61	251.80
713.95	251.51
714.28	251.27
714.61	251.01
714.95	250.78
715.28	250.56
715.61	250.32
715.95	250.10
716.28	249.88
716.61	249.69
716.95	249.45
717.28	249.22
717.61	248.98
717.94	248.76
718.28	248.45
718.61	248.22
718.94	247.99
719.27	247.78
719.61	247.59
719.94	247.34
720.27	247.05
720.60	246.85
720.94	246.65
721.27	246.45
721.60	246.26
721.93	246.04
722.27	245.88
722.60	245.70
722.93	245.49
723.26	245.29
723.59	245.06
723.93	244.89
724.26	244.72
724.59	244.53
724.92	244.36
725.25	244.23
725.59	244.05
725.92	243.90
726.25	243.74
726.58	243.57
726.91	243.40
727.24	243.26
727.57	243.09
727.91	242.92
728.24	242.79
728.57	242.61
728.90	242.48
729.23	242.27
729.56	242.17
729.89	242.02
730.22	241.85
730.55	241.71
730.89	241.55
731.22	241.38
731.55	241.23
731.88	241.10
732.21	240.92
732.54	240.77
732.87	240.62
733.20	240.49
733.53	240.35
733.86	240.21
734.19	240.04
734.52	239.93
734.85	239.87
735.18	239.70
735.51	239.60
735.84	239.46
736.17	239.37
736.50	239.17
736.83	239.19
737.16	239.07
737.49	238.95
737.82	238.82
738.15	238.72
738.48	238.59
738.81	238.46
739.14	238.33
739.47	238.20
739.80	238.07
740.13	237.95
740.46	237.81
740.79	237.68
741.12	237.56
741.45	237.41
741.78	237.23
742.11	237.15
742.44	237.02
742.77	236.92
743.10	236.78
743.43	236.68
743.75	236.45
744.08	236.54
744.41	236.42
744.74	236.32
745.07	236.19
745.40	236.12
745.73	236.08
746.06	235.99
746.39	235.91
746.71	235.80
747.04	235.69
747.37	235.60
747.70	235.54
748.03	235.46
748.36	235.39
748.68	235.29
749.01	235.17
749.34	235.08
749.67	235.00
750.00	234.93
750.33	234.94
750.65	234.85
750.98	234.57
751.31	234.49
751.64	234.40
751.97	234.38
752.29	234.28
752.62	234.12
752.95	234.02
753.28	233.93
753.60	233.84
753.93	233.78
754.26	233.71
754.59	233.59
754.91	233.50
755.24	233.39
755.57	233.37
755.90	233.30
756.22	233.20
756.55	233.11
756.88	232.99
757.20	232.84
757.53	232.73
757.86	232.66
758.19	232.59
758.51	232.52
758.84	232.39
759.17	232.31
759.49	232.25
759.82	232.25
760.15	232.19
760.47	232.12
760.80	232.03
761.13	231.98
761.45	231.91
761.78	231.86
762.11	231.81
762.43	231.68
762.76	231.63
763.08	231.60
763.41	231.55
763.74	231.51
764.06	231.44
764.39	231.39
764.71	231.33
765.04	231.27
765.37	231.20
765.69	231.15
766.02	231.09
766.34	231.04
766.67	230.94
767.00	230.92
767.32	230.95
767.65	230.98
767.97	230.92
768.30	230.88
768.62	230.84
768.95	230.77
769.27	230.72
769.60	230.68
769.92	230.61
770.25	230.53
770.57	230.47
770.90	230.42
771.22	230.37
771.55	230.32
771.87	230.29
772.20	230.25
772.52	230.31
772.85	230.43
773.17	230.39
773.50	230.34
773.82	230.28
774.15	230.18
774.47	230.06
774.80	230.01
775.12	229.96
775.45	229.92
775.77	229.90
776.09	229.88
776.42	229.86
776.74	229.87
777.07	229.85
777.39	229.82
777.72	229.78
778.04	229.76
778.36	229.72
778.69	229.70
779.01	229.69
779.33	229.55
779.66	229.37
779.98	229.32
780.31	229.30
780.63	229.33
780.95	229.32
781.28	229.29
781.60	229.26
781.92	229.24
782.25	229.21
782.57	229.18
782.89	229.13
783.22	229.10
783.54	229.03
783.86	229.01
784.19	228.99
784.51	229.01
784.83	228.96
785.16	228.93
785.48	228.92
785.80	228.89
786.12	228.87
786.45	228.84
786.77	228.84
787.09	228.81
787.42	228.73
787.74	228.70
788.06	228.70
788.38	228.68
788.71	228.65
789.03	228.64
789.35	228.64
789.67	228.61
789.99	228.61
790.32	228.57
790.64	228.56
790.96	228.66
791.28	228.59
791.61	228.58
791.93	228.56
792.25	228.53
792.57	228.60
792.89	228.56
793.21	228.55
793.54	228.51
793.86	228.48
794.18	228.46
794.50	228.42
794.82	228.39
795.14	228.39
795.47	228.38
795.79	228.36
796.11	228.32
796.43	228.31
796.75	228.29
797.07	228.28
797.39	228.26
797.71	228.14
798.04	228.14
798.36	228.13
798.68	228.12
799.00	228.11
799.32	228.05
799.64	228.05
799.96	228.05
800.28	228.06
800.60	228.05
800.92	228.04
801.24	228.02
801.56	228.02
801.89	227.99
802.21	227.98
802.53	227.94
802.85	227.96
803.17	228.00
803.49	227.97
803.81	227.94
804.13	227.93
804.45	227.91
804.77	227.90
805.09	227.88
805.41	227.88
805.73	227.84
806.05	227.79
806.37	227.77
806.69	227.73
807.01	227.71
807.33	227.71
807.65	227.66
807.97	227.71
808.28	227.69
808.60	227.69
808.92	227.65
809.24	227.72
809.56	227.68
809.88	227.62
810.20	227.61
810.52	227.63
810.84	227.60
811.16	227.57
811.48	227.55
811.80	227.58
812.12	227.55
812.43	227.57
812.75	227.56
813.07	227.54
813.39	227.53
813.71	227.51
814.03	227.49
814.35	227.49
814.67	227.42
814.98	227.39
815.30	227.37
815.62	227.35
815.94	227.25
816.26	227.26
816.58	227.23
816.89	227.22
817.21	227.18
817.53	227.17
817.85	227.17
818.17	227.16
818.48	227.10
818.80	227.12
819.12	227.08
819.44	227.06
819.76	227.04
820.07	227.03
820.39	227.02
820.71	227.02
821.03	227.01
821.34	226.99
821.66	227.02
821.98	227.04
822.30	227.02
822.61	227.10
822.93	227.06
823.25	227.05
823.57	227.03
823.88	227.04
824.20	227.03
824.52	227.05
824.83	227.04
825.15	227.02
825.47	227.00
825.79	227.01
826.10	227.00
826.42	227.00
826.74	227.00
827.05	226.99
827.37	226.98
827.69	226.98
828.00	226.98
828.32	226.97
828.64	226.95
828.95	227.00
829.27	226.96
829.58	226.97
829.90	226.99
830.22	227.01
830.53	226.99
830.85	226.98
831.17	226.93
831.48	226.93
831.80	226.93
832.11	226.92
832.43	226.89
832.75	226.88
833.06	226.94
833.38	226.90
833.69	226.89
834.01	226.89
834.32	226.87
834.64	226.86
834.96	226.85
835.27	226.85
835.59	226.80
835.90	226.77
836.22	226.77
836.53	226.73
836.85	226.70
837.16	226.83
837.48	226.82
837.79	226.87
838.11	226.87
838.42	226.87
838.74	226.88
839.05	226.87
839.37	226.87
839.68	226.80
840.00	226.79
840.31	226.81
840.63	226.79
840.94	226.78
841.26	226.77
841.57	226.76
841.88	226.77
842.20	226.74
842.51	226.72
842.83	226.72
843.14	226.84
843.46	226.84
843.77	226.76
844.08	226.75
844.40	226.70
844.71	226.68
845.03	226.67
845.34	226.65
845.65	226.65
845.97	226.64
846.28	226.64
846.60	226.66
846.91	226.63
847.22	226.63
847.54	226.66
847.85	226.66
848.16	226.65
848.48	226.63
848.79	226.67
849.10	226.69
849.42	226.69
849.73	226.56
850.04	226.56
850.36	226.51
850.67	226.53
850.98	226.53
851.30	226.54
851.61	226.53
851.92	226.52
852.23	226.57
852.55	226.58
852.86	226.58
853.17	226.58
853.49	226.60
853.80	226.63
854.11	226.63
854.42	226.64
854.74	226.63
855.05	226.63
855.36	226.57
855.67	226.57
855.99	226.57
856.30	226.71
856.61	226.71
856.92	226.72
857.23	226.73
857.55	226.71
857.86	226.70
858.17	226.72
858.48	226.69
858.79	226.66
859.11	226.67
859.42	226.65
859.73	226.64
860.04	226.64
860.35	226.59
860.66	226.54
860.98	226.54
861.29	226.54
861.60	226.53
861.91	226.56
862.22	226.54
862.53	226.51
862.84	226.36
863.16	226.38
863.47	226.36
863.78	226.33
864.09	226.35
864.40	226.35
864.71	226.35
865.02	226.38
865.33	226.35
865.64	226.34
865.95	226.33
866.27	226.39
866.58	226.38
866.89	226.40
867.20	226.40
867.51	226.38
867.82	226.37
868.13	226.42
868.44	226.39
868.75	226.40
869.06	226.42
869.37	226.44
869.68	226.41
869.99	226.42
870.30	226.43
870.61	226.44
870.92	226.42
871.23	226.40
871.54	226.41
871.85	226.45
872.16	226.46
872.47	226.46
872.78	226.40
873.09	226.41
873.40	226.39
873.71	226.40
874.02	226.41
874.33	226.40
874.64	226.37
874.95	226.40
875.26	226.37
875.56	226.37
875.87	226.35
876.18	226.34
876.49	226.47
876.80	226.46
877.11	226.43
877.42	226.44
877.73	226.44
878.04	226.42
878.35	226.41
878.66	226.41
878.96	226.40
879.27	226.41
879.58	226.40
879.89	226.41
880.20	226.44
880.51	226.44
880.82	226.44
881.12	226.45
881.43	226.41
881.74	226.39
882.05	226.39
882.36	226.40
882.67	226.41
882.97	226.27
883.28	226.26
883.59	226.27
883.90	226.29
884.21	226.30
884.51	226.29
884.82	226.27
885.13	226.26
885.44	226.26
885.74	226.25
886.05	226.24
886.36	226.24
886.67	226.19
886.98	226.25
887.28	226.26
887.59	226.27
887.90	226.29
888.20	226.29
888.51	226.31
888.82	226.30
889.13	226.30
889.43	226.41
889.74	226.40
890.05	226.39
890.35	226.37
890.66	226.36
890.97	226.36
891.28	226.36
891.58	226.35
891.89	226.35
892.20	226.33
892.50	226.32
892.81	226.31
893.12	226.31
893.42	226.25
893.73	226.25
894.04	226.24
894.34	226.24
894.65	226.24
894.95	226.23
895.26	226.23
895.57	226.28
895.87	226.16
896.18	226.19
896.48	226.18
896.79	226.18
897.10	226.20
897.40	226.21
897.71	226.21
898.01	226.20
898.32	226.22
898.63	226.22
898.93	226.23
899.24	226.24
899.54	226.23
899.85	226.22
900.15	226.21
900.46	226.20
900.76	226.21
901.07	226.21
901.38	226.20
901.68	226.21
901.99	226.14
902.29	226.14
902.60	226.13
902.90	226.13
903.21	226.11
903.51	226.10
903.82	226.11
904.12	226.12
904.43	226.13
904.73	226.12
905.03	226.12
905.34	226.24
905.64	226.22
905.95	226.22
906.25	226.21
906.56	226.21
906.86	226.21
907.17	226.19
907.47	226.20
907.77	226.19
908.08	226.16
908.38	226.17
908.69	226.18
908.99	226.20
909.30	226.22
909.60	226.22
909.90	226.23
910.21	226.19
910.51	226.17
910.81	226.17
911.12	226.18
911.42	226.18
911.73	226.05
912.03	226.06
912.33	226.09
912.64	226.08
912.94	226.08
913.24	226.05
913.55	226.04
913.85	226.03
914.15	226.05
914.46	226.08
914.76	226.06
915.06	226.06
915.37	226.03
915.67	226.01
915.97	226.01
916.27	225.99
916.58	226.00
916.88	225.98
917.18	225.97
917.49	226.05
917.79	226.04
918.09	226.06
918.39	226.09
918.70	226.08
919.00	226.09
919.30	226.14
919.60	226.14
919.91	226.12
920.21	226.14
920.51	226.11
920.81	226.09
921.12	226.13
921.42	226.12
921.72	226.12
922.02	226.13
922.32	226.14
922.63	226.15
922.93	226.22
923.23	226.23
923.53	226.22
923.83	226.14
924.13	226.16
924.44	226.15
924.74	226.16
925.04	226.19
925.34	226.19
925.64	226.15
925.94	226.16
926.24	226.23
926.55	226.22
926.85	226.23
927.15	226.24
927.45	226.22
927.75	226.22
928.05	226.22
928.35	226.21
928.65	226.22
928.95	226.23
929.26	226.18
929.56	226.21
929.86	226.22
930.16	226.21
930.46	226.19
930.76	226.20
931.06	226.14
931.36	226.09
931.66	226.11
931.96	226.12
932.26	226.11
932.56	226.06
932.86	226.07
933.16	226.06
933.46	226.05
933.76	226.03
934.06	226.06
934.36	226.10
934.66	226.09
934.96	226.08
935.26	226.08
935.56	226.10
935.86	226.06
936.16	226.04
936.46	226.03
936.76	226.03
937.06	226.01
937.36	226.04
937.66	226.04
937.96	226.02
938.26	226.00
938.56	226.00
938.86	226.00
939.16	226.02
939.46	226.03
939.76	226.03
940.06	226.04
940.35	226.02
940.65	225.96
940.95	225.98
941.25	225.94
941.55	225.94
941.85	225.92
942.15	225.95
942.45	225.98
942.75	225.98
943.04	225.98
943.34	226.00
943.64	225.99
943.94	225.98
944.24	225.98
944.54	225.99
944.84	225.99
945.13	225.97
945.43	225.95
945.73	225.95
946.03	225.95
946.33	225.94
946.62	225.92
946.92	225.93
947.22	225.93
947.52	225.95
947.82	225.96
948.11	225.94
948.41	225.91
948.71	225.89
949.01	225.90
949.31	225.91
949.60	225.90
949.90	225.92
950.20	225.91
950.50	225.90
950.79	225.89
951.09	225.92
951.39	225.91
951.69	225.90
951.98	225.92
952.28	225.93
952.58	225.92
952.87	225.93
953.17	225.95
953.47	225.94
953.76	225.94
954.06	225.91
954.36	225.90
954.66	225.91
954.95	225.94
955.25	225.95
955.55	225.95
955.84	225.94
956.14	225.95
956.44	225.97
956.73	225.97
957.03	225.98
957.32	225.97
957.62	225.98
957.92	226.01
958.21	225.99
958.51	226.14
958.81	226.15
959.10	226.17
959.40	226.19
959.69	226.19
959.99	226.21
960.29	226.22
960.58	226.22
960.88	226.26
961.17	226.25
961.47	226.26
961.76	226.25
962.06	226.26
962.36	226.24
962.65	226.25
962.95	226.25
963.24	226.25
963.54	226.26
963.83	226.27
964.13	226.26
964.42	226.24
964.72	226.14
965.01	226.14
965.31	226.13
965.60	226.11
965.90	226.18
966.19	226.15
966.49	226.15
966.78	226.15
967.08	226.14
967.37	226.13
967.67	226.11
967.96	226.14
968.26	226.13
968.55	226.15
968.85	226.14
969.14	226.14
969.43	226.12
969.73	226.11
970.02	226.10
970.32	226.09
970.61	226.07
970.91	226.03
971.20	226.01
971.49	226.00
971.79	226.00
972.08	225.92
972.38	225.93
972.67	225.92
972.96	225.94
973.26	225.91
973.55	225.95
973.85	225.93
974.14	225.92
974.43	225.93
974.73	225.90
975.02	225.88
975.31	225.87
975.61	225.87
975.90	225.86
976.19	225.84
976.49	225.85
976.78	225.85
977.07	225.85
977.37	225.86
977.66	225.87
977.95	225.85
978.24	225.86
978.54	225.89
978.83	225.87
979.12	225.86
979.42	225.87
979.71	225.84
980.00	225.85
980.29	225.85
980.59	225.82
980.88	225.86
981.17	225.86
981.46	225.86
981.76	225.87
982.05	225.91
982.34	225.92
982.63	225.92
982.93	225.92
983.22	225.95
983.51	225.96
983.80	225.98
984.09	226.00
984.39	225.98
984.68	225.96
984.97	225.98
985.26	225.98
985.55	225.98
985.85	225.96
986.14	225.97
986.43	225.98
986.72	225.98
987.01	225.95
987.30	225.95
987.59	225.94
987.89	225.94
988.18	225.90
988.47	225.89
988.76	225.87
989.05	225.86
989.34	225.84
989.63	225.87
989.92	225.85
990.22	225.83
990.51	225.83
990.80	225.82
991.09	225.82
991.38	225.83
991.67	225.82
991.96	225.80
992.25	225.81
992.54	225.79
992.83	225.79
993.12	225.79
993.41	225.82
993.70	225.88
993.99	225.91
994.28	225.92
994.58	225.95
994.87	225.94
995.16	225.95
995.45	225.94
995.74	225.89
996.03	225.92
996.32	225.94
996.61	225.96
996.90	225.97
997.19	225.98
997.48	225.99
997.77	225.98
998.06	225.99
998.34	225.98
998.63	225.98
998.92	226.00
999.21	226.02
999.50	226.01
999.79	225.97
1000.08	225.96
1000.37	225.97
1000.66	225.96
1000.95	226.00
1001.24	226.00
1001.53	226.01
1001.82	226.02
1002.11	225.99
1002.40	226.00
1002.68	226.02
1002.97	226.11
1003.26	226.09
1003.55	226.06
1003.84	226.07
1004.13	226.12
1004.42	226.11
1004.71	226.11
1004.99	226.09
1005.28	226.12
1005.57	226.11
1005.86	226.10
1006.15	226.09
1006.44	226.06
1006.72	226.09
1007.01	226.04
1007.30	226.04
1007.59	226.03
1007.88	226.03
1008.17	226.04
1008.45	226.02
1008.74	225.97
1009.03	225.91
1009.32	225.90
1009.60	225.91
1009.89	225.90
1010.18	225.84
1010.47	225.84
1010.76	225.84
1011.04	225.83
1011.33	225.82
1011.62	225.83
1011.91	225.83
1012.19	225.82
1012.48	225.84
1012.77	225.82
1013.05	225.88
1013.34	225.88
1013.63	225.86
1013.92	225.87
1014.20	225.85
1014.49	225.86
1014.78	225.87
1015.06	225.82
1015.35	225.82
1015.64	225.84
1015.92	225.87
1016.21	225.88
1016.50	225.88
1016.78	225.89
1017.07	225.89
1017.36	225.87
1017.64	225.85
1017.93	225.86
1018.22	225.86
1018.50	225.86
1018.79	225.86
1019.08	225.81
1019.36	225.81
1019.65	225.81
1019.93	225.86
1020.22	225.86
1020.51	225.93
1020.79	225.90
1021.08	225.77
1021.36	225.76
1021.65	225.99
1021.94	225.68
1022.22	225.79
1022.51	225.64
1022.79	226.67
1023.08	225.79
1023.36	227.30
1023.65	225.51
>>>>>End Processed Spectral Data<<<<<
