SpectraSuite Data File
++++++++++++++++++++++++++++++++++++
Date: Sat Oct 03 16:16:46 EDT 2015
User: lab3
Dark Spectrum Present: No
Reference Spectrum Present: No
Number of Sampled Component Spectra: 1
Spectrometers: USB2E7196
Integration Time (usec): 46000 (USB2E7196)
Spectra Averaged: 24000 (USB2E7196)
Boxcar Smoothing: 10 (USB2E7196)
Correct for Electrical Dark: No (USB2E7196)
Strobe/Lamp Enabled: No (USB2E7196)
Correct for Detector Non-linearity: No (USB2E7196)
Correct for Stray Light: No (USB2E7196)
Number of Pixels in Processed Spectrum: 2048
>>>>>Begin Processed Spectral Data<<<<<
339.09	0.00
339.48	213.98
339.86	215.50
340.24	216.83
340.63	218.23
341.01	221.48
341.39	220.94
341.78	222.33
342.16	223.56
342.54	223.97
342.93	212.43
343.31	223.16
343.69	223.70
344.07	224.16
344.46	224.59
344.84	224.98
345.22	225.20
345.60	225.46
345.99	225.66
346.37	225.79
346.75	225.90
347.13	225.98
347.52	226.05
347.90	226.14
348.28	226.18
348.66	226.24
349.05	226.24
349.43	226.29
349.81	226.35
350.19	226.40
350.57	226.47
350.96	226.55
351.34	226.65
351.72	226.74
352.10	226.85
352.48	226.93
352.87	226.98
353.25	227.05
353.63	227.11
354.01	227.17
354.39	227.24
354.77	227.32
355.15	227.43
355.54	227.48
355.92	227.50
356.30	227.58
356.68	227.73
357.06	227.81
357.44	227.85
357.82	227.91
358.20	228.03
358.58	228.09
358.97	228.15
359.35	228.24
359.73	228.32
360.11	228.37
360.49	228.42
360.87	228.48
361.25	228.54
361.63	228.62
362.01	228.68
362.39	228.71
362.77	228.76
363.15	228.78
363.53	228.81
363.91	228.85
364.29	228.87
364.67	228.77
365.05	228.79
365.43	228.82
365.81	228.86
366.19	228.87
366.57	228.93
366.95	228.93
367.33	228.91
367.71	228.90
368.09	228.92
368.47	228.91
368.85	228.90
369.23	228.91
369.61	228.85
369.99	228.87
370.37	228.87
370.75	228.94
371.13	228.91
371.51	228.87
371.89	228.85
372.27	228.83
372.65	228.81
373.03	228.77
373.41	228.73
373.78	228.68
374.16	228.57
374.54	228.49
374.92	228.44
375.30	228.40
375.68	228.33
376.06	228.28
376.44	228.23
376.82	228.19
377.19	228.14
377.57	228.09
377.95	228.01
378.33	227.94
378.71	227.78
379.09	227.74
379.47	227.71
379.84	227.64
380.22	227.58
380.60	227.50
380.98	227.46
381.36	227.41
381.73	227.34
382.11	227.32
382.49	227.28
382.87	227.22
383.25	227.18
383.62	227.28
384.00	227.21
384.38	227.18
384.76	227.16
385.13	227.16
385.51	227.12
385.89	227.07
386.27	227.04
386.64	227.02
387.02	226.98
387.40	226.93
387.78	226.91
388.15	226.89
388.53	226.86
388.91	226.83
389.29	226.80
389.66	226.79
390.04	226.75
390.42	226.75
390.79	226.74
391.17	226.72
391.55	226.57
391.92	226.56
392.30	226.56
392.68	226.52
393.05	226.50
393.43	226.50
393.81	226.50
394.18	226.49
394.56	226.49
394.94	226.52
395.31	226.52
395.69	226.57
396.06	226.60
396.44	226.63
396.82	226.64
397.19	226.73
397.57	226.74
397.95	226.79
398.32	226.78
398.70	226.83
399.07	226.90
399.45	226.94
399.82	226.99
400.20	227.03
400.58	227.09
400.95	227.10
401.33	227.19
401.70	227.35
402.08	227.46
402.45	227.54
402.83	227.66
403.20	227.78
403.58	227.88
403.95	228.02
404.33	228.17
404.71	228.32
405.08	228.54
405.46	228.71
405.83	228.90
406.21	229.11
406.58	229.34
406.96	229.56
407.33	229.82
407.70	230.12
408.08	230.51
408.45	230.86
408.83	231.23
409.20	231.57
409.58	231.88
409.95	232.30
410.33	232.76
410.70	233.19
411.08	233.70
411.45	234.24
411.82	234.79
412.20	235.42
412.57	236.16
412.95	236.75
413.32	237.51
413.69	238.29
414.07	239.12
414.44	240.02
414.82	240.94
415.19	242.02
415.56	243.12
415.94	244.25
416.31	245.52
416.68	246.79
417.06	248.27
417.43	249.65
417.81	251.24
418.18	252.86
418.55	254.63
418.93	256.47
419.30	258.39
419.67	260.43
420.04	262.52
420.42	264.69
420.79	267.22
421.16	269.76
421.54	272.35
421.91	275.06
422.28	277.86
422.66	280.88
423.03	283.77
423.40	286.79
423.77	290.03
424.15	293.36
424.52	296.82
424.89	300.56
425.26	304.29
425.64	307.75
426.01	311.64
426.38	315.63
426.75	319.73
427.13	323.94
427.50	328.34
427.87	332.92
428.24	337.54
428.61	341.98
428.99	346.79
429.36	352.06
429.73	357.10
430.10	362.14
430.47	367.30
430.85	372.62
431.22	378.32
431.59	384.17
431.96	389.88
432.33	396.23
432.70	402.27
433.08	409.40
433.45	416.15
433.82	422.80
434.19	430.21
434.56	437.52
434.93	444.59
435.30	451.58
435.68	459.49
436.05	467.23
436.42	474.94
436.79	481.97
437.16	489.56
437.53	497.70
437.90	505.85
438.27	513.81
438.64	522.42
439.01	530.22
439.38	537.35
439.75	544.21
440.13	551.95
440.50	559.31
440.87	565.14
441.24	571.52
441.61	578.48
441.98	583.55
442.35	589.57
442.72	595.72
443.09	601.56
443.46	605.24
443.83	607.93
444.20	610.15
444.57	613.51
444.94	615.36
445.31	617.30
445.68	618.91
446.05	620.08
446.42	619.60
446.79	618.93
447.16	618.33
447.53	617.77
447.90	615.20
448.27	612.73
448.64	609.04
449.01	606.44
449.37	601.37
449.74	596.78
450.11	590.86
450.48	584.41
450.85	577.97
451.22	572.47
451.59	567.10
451.96	562.23
452.33	555.20
452.70	548.96
453.07	541.34
453.43	533.77
453.80	526.42
454.17	519.37
454.54	512.91
454.91	505.59
455.28	498.75
455.65	492.30
456.02	485.49
456.38	480.01
456.75	472.97
457.12	467.31
457.49	461.58
457.86	456.22
458.23	451.52
458.59	446.30
458.96	440.95
459.33	436.24
459.70	431.44
460.07	427.81
460.43	423.53
460.80	419.54
461.17	416.08
461.54	412.30
461.91	408.78
462.27	405.20
462.64	402.33
463.01	399.00
463.38	395.65
463.74	392.64
464.11	389.98
464.48	387.59
464.85	384.97
465.21	383.01
465.58	380.80
465.95	378.26
466.32	376.25
466.68	374.27
467.05	372.29
467.42	370.35
467.78	368.24
468.15	366.30
468.52	364.89
468.88	362.97
469.25	361.23
469.62	359.85
469.98	358.34
470.35	356.99
470.72	355.77
471.08	354.53
471.45	353.48
471.82	352.31
472.18	351.07
472.55	350.26
472.92	349.25
473.28	348.45
473.65	347.59
474.02	346.77
474.38	346.08
474.75	345.65
475.11	345.08
475.48	344.80
475.85	344.50
476.21	344.33
476.58	344.21
476.94	344.32
477.31	344.36
477.67	344.43
478.04	344.62
478.41	344.89
478.77	345.30
479.14	345.55
479.50	346.06
479.87	346.72
480.23	347.38
480.60	348.04
480.96	348.70
481.33	349.70
481.69	350.68
482.06	351.66
482.42	352.56
482.79	353.69
483.15	355.00
483.52	356.49
483.88	357.91
484.25	359.44
484.61	361.04
484.98	362.76
485.34	364.70
485.71	366.73
486.07	368.91
486.44	371.08
486.80	373.50
487.17	376.02
487.53	378.77
487.90	381.65
488.26	384.79
488.62	388.10
488.99	391.41
489.35	394.91
489.72	398.70
490.08	402.69
490.44	406.80
490.81	411.08
491.17	415.46
491.54	420.17
491.90	425.03
492.26	430.22
492.63	435.66
492.99	441.34
493.36	447.22
493.72	453.40
494.08	459.74
494.45	466.46
494.81	473.45
495.17	480.63
495.54	488.21
495.90	496.09
496.26	504.16
496.63	512.48
496.99	521.12
497.35	530.15
497.72	539.48
498.08	549.01
498.44	558.87
498.80	569.33
499.17	580.03
499.53	591.07
499.89	602.48
500.26	614.13
500.62	626.08
500.98	638.66
501.34	651.43
501.71	664.73
502.07	678.23
502.43	692.26
502.79	706.52
503.16	721.25
503.52	736.14
503.88	751.49
504.24	767.30
504.60	783.31
504.97	799.81
505.33	816.76
505.69	834.63
506.05	852.84
506.41	870.98
506.78	889.33
507.14	908.19
507.50	927.46
507.86	947.12
508.22	966.97
508.59	986.64
508.95	1007.13
509.31	1028.37
509.67	1050.31
510.03	1072.26
510.39	1094.27
510.75	1116.45
511.12	1138.92
511.48	1161.54
511.84	1184.18
512.20	1207.25
512.56	1231.22
512.92	1255.19
513.28	1278.73
513.64	1302.56
514.00	1326.85
514.37	1351.46
514.73	1376.03
515.09	1400.47
515.45	1425.24
515.81	1450.17
516.17	1475.19
516.53	1499.77
516.89	1524.21
517.25	1548.82
517.61	1573.25
517.97	1598.13
518.33	1622.58
518.69	1646.95
519.05	1671.79
519.41	1696.95
519.77	1722.29
520.13	1746.87
520.49	1771.38
520.85	1796.23
521.21	1820.66
521.57	1845.44
521.93	1869.63
522.29	1894.38
522.65	1918.57
523.01	1942.72
523.37	1966.49
523.73	1991.06
524.09	2015.21
524.45	2039.13
524.81	2062.72
525.17	2086.24
525.53	2109.14
525.89	2132.43
526.25	2155.78
526.61	2178.09
526.97	2200.49
527.33	2222.86
527.68	2244.95
528.04	2266.18
528.40	2286.47
528.76	2307.00
529.12	2327.02
529.48	2346.79
529.84	2364.63
530.20	2383.19
530.56	2401.10
530.91	2419.20
531.27	2436.90
531.63	2453.71
531.99	2470.15
532.35	2485.79
532.71	2501.59
533.07	2518.01
533.42	2532.71
533.78	2548.33
534.14	2564.16
534.50	2579.05
534.86	2593.63
535.21	2606.21
535.57	2619.41
535.93	2632.43
536.29	2644.22
536.65	2655.79
537.00	2666.56
537.36	2678.39
537.72	2688.86
538.08	2698.78
538.44	2707.96
538.79	2716.73
539.15	2724.81
539.51	2732.43
539.87	2739.48
540.22	2744.46
540.58	2749.59
540.94	2755.85
541.29	2760.53
541.65	2763.44
542.01	2765.57
542.37	2767.16
542.72	2770.11
543.08	2771.25
543.44	2773.03
543.79	2773.80
544.15	2773.72
544.51	2774.10
544.87	2773.35
545.22	2771.70
545.58	2769.39
545.94	2767.10
546.29	2763.54
546.65	2759.96
547.01	2756.39
547.36	2753.53
547.72	2750.86
548.07	2746.37
548.43	2740.43
548.79	2733.46
549.14	2727.82
549.50	2722.51
549.86	2716.09
550.21	2708.55
550.57	2702.05
550.92	2693.15
551.28	2684.84
551.64	2676.98
551.99	2668.63
552.35	2659.59
552.70	2650.93
553.06	2642.58
553.41	2633.52
553.77	2624.37
554.13	2615.15
554.48	2605.00
554.84	2593.63
555.19	2582.66
555.55	2571.81
555.90	2561.07
556.26	2550.98
556.61	2539.66
556.97	2526.67
557.32	2514.18
557.68	2501.74
558.03	2489.01
558.39	2477.58
558.74	2466.41
559.10	2453.48
559.45	2440.80
559.81	2428.76
560.16	2415.96
560.52	2403.54
560.87	2391.58
561.23	2378.67
561.58	2365.77
561.94	2352.64
562.29	2338.88
562.64	2325.93
563.00	2312.68
563.35	2299.74
563.71	2286.64
564.06	2273.48
564.42	2261.15
564.77	2248.30
565.12	2235.28
565.48	2222.18
565.83	2209.01
566.19	2195.97
566.54	2182.87
566.89	2168.71
567.25	2154.65
567.60	2142.09
567.96	2128.54
568.31	2113.57
568.66	2099.36
569.02	2086.38
569.37	2073.33
569.72	2060.82
570.08	2047.03
570.43	2032.86
570.78	2018.57
571.14	2003.57
571.49	1989.20
571.84	1975.39
572.20	1960.37
572.55	1945.60
572.90	1930.77
573.26	1916.03
573.61	1900.75
573.96	1885.90
574.31	1871.27
574.67	1856.79
575.02	1841.14
575.37	1825.68
575.72	1811.06
576.08	1796.69
576.43	1781.20
576.78	1766.16
577.13	1751.37
577.49	1736.91
577.84	1723.05
578.19	1708.26
578.54	1693.63
578.90	1678.53
579.25	1663.33
579.60	1649.76
579.95	1636.04
580.30	1622.13
580.66	1607.90
581.01	1593.67
581.36	1579.49
581.71	1566.26
582.06	1552.91
582.42	1539.81
582.77	1526.72
583.12	1513.67
583.47	1500.53
583.82	1487.48
584.17	1474.02
584.53	1460.29
584.88	1446.94
585.23	1433.18
585.58	1420.19
585.93	1407.41
586.28	1395.38
586.63	1383.28
586.98	1370.71
587.34	1358.23
587.69	1345.54
588.04	1333.14
588.39	1321.08
588.74	1309.13
589.09	1296.99
589.44	1284.42
589.79	1272.49
590.14	1260.64
590.49	1248.68
590.84	1236.89
591.19	1225.52
591.54	1213.98
591.89	1202.56
592.25	1191.36
592.60	1179.79
592.95	1168.64
593.30	1157.75
593.65	1146.55
594.00	1135.51
594.35	1125.01
594.70	1114.08
595.05	1103.98
595.40	1093.75
595.75	1083.37
596.10	1073.55
596.45	1063.48
596.80	1053.76
597.15	1043.79
597.50	1033.98
597.85	1024.56
598.19	1014.98
598.54	1005.43
598.89	996.37
599.24	987.60
599.59	978.61
599.94	970.52
600.29	962.23
600.64	953.64
600.99	944.71
601.34	936.11
601.69	927.21
602.04	918.96
602.39	910.54
602.74	902.21
603.08	893.83
603.43	885.42
603.78	877.20
604.13	869.08
604.48	860.97
604.83	853.04
605.18	845.09
605.53	837.28
605.87	829.29
606.22	821.56
606.57	813.82
606.92	805.99
607.27	798.08
607.62	790.49
607.96	783.31
608.31	776.57
608.66	769.63
609.01	762.96
609.36	756.39
609.70	749.64
610.05	742.86
610.40	736.35
610.75	729.79
611.10	723.58
611.44	717.25
611.79	711.01
612.14	704.69
612.49	698.44
612.83	692.48
613.18	686.66
613.53	680.77
613.88	674.86
614.22	669.36
614.57	663.82
614.92	658.12
615.27	652.53
615.61	647.00
615.96	641.53
616.31	636.06
616.65	630.63
617.00	625.40
617.35	620.30
617.70	615.23
618.04	610.23
618.39	605.12
618.74	600.26
619.08	595.45
619.43	590.77
619.78	586.08
620.12	581.37
620.47	576.82
620.82	572.37
621.16	567.97
621.51	563.46
621.85	558.99
622.20	554.69
622.55	550.43
622.89	546.24
623.24	542.07
623.59	537.91
623.93	533.94
624.28	530.08
624.62	526.28
624.97	522.53
625.32	518.74
625.66	514.92
626.01	511.07
626.35	507.27
626.70	503.53
627.04	499.97
627.39	496.33
627.73	492.87
628.08	489.50
628.43	486.12
628.77	482.82
629.12	479.65
629.46	476.49
629.81	473.23
630.15	469.96
630.50	466.80
630.84	463.69
631.19	460.63
631.53	457.66
631.88	454.66
632.22	451.70
632.57	449.01
632.91	446.35
633.26	443.78
633.60	441.23
633.95	438.73
634.29	436.15
634.64	433.65
634.98	430.96
635.32	428.39
635.67	426.02
636.01	423.59
636.36	421.19
636.70	418.93
637.05	416.67
637.39	414.46
637.73	412.27
638.08	410.19
638.42	408.09
638.77	405.86
639.11	403.57
639.45	401.38
639.80	399.12
640.14	396.97
640.49	394.80
640.83	392.62
641.17	390.53
641.52	388.49
641.86	386.48
642.20	384.66
642.55	382.70
642.89	380.76
643.23	378.92
643.58	377.23
643.92	375.42
644.26	373.66
644.61	371.96
644.95	370.23
645.29	368.42
645.64	366.64
645.98	364.94
646.32	363.37
646.66	361.78
647.01	360.22
647.35	358.70
647.69	357.17
648.04	355.76
648.38	354.27
648.72	352.80
649.06	351.34
649.41	349.88
649.75	348.48
650.09	347.11
650.43	345.73
650.78	344.31
651.12	342.94
651.46	341.61
651.80	340.31
652.14	339.03
652.49	337.80
652.83	336.55
653.17	335.35
653.51	334.17
653.85	333.04
654.20	331.88
654.54	330.64
654.88	329.49
655.22	328.37
655.56	327.25
655.90	326.19
656.25	325.15
656.59	324.10
656.93	323.11
657.27	322.14
657.61	321.10
657.95	320.12
658.29	319.13
658.64	318.20
658.98	317.26
659.32	316.34
659.66	315.47
660.00	314.64
660.34	313.79
660.68	312.92
661.02	312.02
661.36	311.16
661.70	310.34
662.05	309.55
662.39	308.76
662.73	308.03
663.07	307.32
663.41	306.56
663.75	305.81
664.09	305.06
664.43	304.27
664.77	303.57
665.11	302.82
665.45	302.14
665.79	301.46
666.13	300.75
666.47	300.03
666.81	299.30
667.15	298.54
667.49	297.88
667.83	297.29
668.17	296.66
668.51	296.08
668.85	295.52
669.19	295.00
669.53	294.37
669.87	293.74
670.21	293.13
670.55	292.57
670.89	292.08
671.23	291.54
671.57	291.02
671.91	290.54
672.25	290.08
672.58	289.63
672.92	289.09
673.26	288.63
673.60	288.18
673.94	287.75
674.28	287.36
674.62	286.92
674.96	286.42
675.30	285.99
675.64	285.53
675.97	285.05
676.31	284.55
676.65	284.11
676.99	283.73
677.33	283.28
677.67	282.85
678.01	282.36
678.34	281.95
678.68	281.56
679.02	281.10
679.36	280.67
679.70	280.23
680.04	279.84
680.37	279.43
680.71	279.05
681.05	278.67
681.39	278.26
681.73	277.83
682.06	277.43
682.40	277.04
682.74	276.70
683.08	276.40
683.42	276.04
683.75	275.72
684.09	275.31
684.43	274.97
684.77	274.63
685.10	274.32
685.44	273.99
685.78	273.65
686.12	273.35
686.45	273.00
686.79	272.66
687.13	272.34
687.46	272.00
687.80	271.67
688.14	271.30
688.48	270.99
688.81	270.67
689.15	270.39
689.49	270.05
689.82	269.71
690.16	269.31
690.50	269.00
690.83	268.67
691.17	268.34
691.51	268.02
691.84	267.71
692.18	267.38
692.52	267.03
692.85	266.71
693.19	266.43
693.52	266.11
693.86	265.80
694.20	265.49
694.53	265.20
694.87	264.88
695.21	264.57
695.54	264.27
695.88	263.95
696.21	263.61
696.55	263.33
696.88	263.03
697.22	262.74
697.56	262.45
697.89	262.11
698.23	261.83
698.56	261.51
698.90	261.22
699.23	260.90
699.57	260.61
699.90	260.30
700.24	259.98
700.58	259.72
700.91	259.48
701.25	259.31
701.58	259.08
701.92	258.85
702.25	258.59
702.59	258.31
702.92	258.04
703.26	257.78
703.59	257.49
703.93	257.32
704.26	257.06
704.60	256.79
704.93	256.52
705.26	256.24
705.60	256.02
705.93	255.73
706.27	255.52
706.60	255.30
706.94	255.10
707.27	254.82
707.61	254.55
707.94	254.27
708.27	253.89
708.61	253.58
708.94	253.30
709.28	253.05
709.61	252.80
709.94	252.58
710.28	252.36
710.61	252.15
710.95	251.81
711.28	251.66
711.61	251.43
711.95	251.24
712.28	251.01
712.61	250.76
712.95	250.61
713.28	250.45
713.61	250.20
713.95	249.93
714.28	249.73
714.61	249.51
714.95	249.30
715.28	249.09
715.61	248.89
715.95	248.70
716.28	248.50
716.61	248.33
716.95	248.12
717.28	247.91
717.61	247.70
717.94	247.50
718.28	247.22
718.61	247.01
718.94	246.79
719.27	246.60
719.61	246.43
719.94	246.21
720.27	245.94
720.60	245.75
720.94	245.57
721.27	245.39
721.60	245.23
721.93	245.05
722.27	244.91
722.60	244.74
722.93	244.55
723.26	244.37
723.59	244.16
723.93	244.00
724.26	243.83
724.59	243.66
724.92	243.50
725.25	243.38
725.59	243.23
725.92	243.09
726.25	242.93
726.58	242.77
726.91	242.60
727.24	242.47
727.57	242.32
727.91	242.15
728.24	242.02
728.57	241.86
728.90	241.72
729.23	241.53
729.56	241.44
729.89	241.29
730.22	241.13
730.55	240.99
730.89	240.84
731.22	240.69
731.55	240.55
731.88	240.41
732.21	240.24
732.54	240.10
732.87	239.96
733.20	239.83
733.53	239.71
733.86	239.58
734.19	239.43
734.52	239.32
734.85	239.29
735.18	239.13
735.51	239.04
735.84	238.92
736.17	238.83
736.50	238.65
736.83	238.68
737.16	238.57
737.49	238.46
737.82	238.34
738.15	238.25
738.48	238.13
738.81	238.02
739.14	237.89
739.47	237.77
739.80	237.65
740.13	237.54
740.46	237.41
740.79	237.28
741.12	237.17
741.45	237.03
741.78	236.85
742.11	236.78
742.44	236.64
742.77	236.54
743.10	236.41
743.43	236.30
743.75	236.06
744.08	236.16
744.41	236.05
744.74	235.94
745.07	235.81
745.40	235.73
745.73	235.69
746.06	235.61
746.39	235.53
746.71	235.43
747.04	235.32
747.37	235.23
747.70	235.17
748.03	235.09
748.36	235.02
748.68	234.93
749.01	234.81
749.34	234.73
749.67	234.64
750.00	234.57
750.33	234.59
750.65	234.51
750.98	234.24
751.31	234.16
751.64	234.08
751.97	234.07
752.29	233.98
752.62	233.84
752.95	233.75
753.28	233.65
753.60	233.57
753.93	233.53
754.26	233.46
754.59	233.34
754.91	233.24
755.24	233.15
755.57	233.13
755.90	233.06
756.22	232.97
756.55	232.87
756.88	232.77
757.20	232.61
757.53	232.50
757.86	232.42
758.19	232.36
758.51	232.28
758.84	232.15
759.17	232.07
759.49	232.01
759.82	232.00
760.15	231.95
760.47	231.88
760.80	231.78
761.13	231.73
761.45	231.67
761.78	231.62
762.11	231.56
762.43	231.43
762.76	231.38
763.08	231.33
763.41	231.28
763.74	231.24
764.06	231.18
764.39	231.13
764.71	231.08
765.04	231.02
765.37	230.95
765.69	230.90
766.02	230.85
766.34	230.79
766.67	230.69
767.00	230.66
767.32	230.68
767.65	230.71
767.97	230.65
768.30	230.61
768.62	230.56
768.95	230.50
769.27	230.45
769.60	230.42
769.92	230.35
770.25	230.28
770.57	230.21
770.90	230.17
771.22	230.11
771.55	230.07
771.87	230.04
772.20	230.00
772.52	230.06
772.85	230.18
773.17	230.14
773.50	230.10
773.82	230.04
774.15	229.93
774.47	229.81
774.80	229.76
775.12	229.73
775.45	229.69
775.77	229.66
776.09	229.64
776.42	229.61
776.74	229.62
777.07	229.59
777.39	229.56
777.72	229.52
778.04	229.51
778.36	229.47
778.69	229.45
779.01	229.43
779.33	229.29
779.66	229.11
779.98	229.07
780.31	229.05
780.63	229.08
780.95	229.07
781.28	229.04
781.60	229.01
781.92	228.98
782.25	228.96
782.57	228.93
782.89	228.90
783.22	228.86
783.54	228.80
783.86	228.79
784.19	228.76
784.51	228.78
784.83	228.73
785.16	228.70
785.48	228.68
785.80	228.66
786.12	228.64
786.45	228.62
786.77	228.61
787.09	228.58
787.42	228.51
787.74	228.49
788.06	228.47
788.38	228.45
788.71	228.42
789.03	228.41
789.35	228.40
789.67	228.37
789.99	228.36
790.32	228.32
790.64	228.32
790.96	228.42
791.28	228.35
791.61	228.33
791.93	228.32
792.25	228.29
792.57	228.36
792.89	228.32
793.21	228.31
793.54	228.28
793.86	228.25
794.18	228.24
794.50	228.20
794.82	228.18
795.14	228.18
795.47	228.19
795.79	228.17
796.11	228.13
796.43	228.11
796.75	228.09
797.07	228.09
797.39	228.06
797.71	227.94
798.04	227.93
798.36	227.92
798.68	227.90
799.00	227.90
799.32	227.82
799.64	227.83
799.96	227.81
800.28	227.82
800.60	227.80
800.92	227.79
801.24	227.78
801.56	227.77
801.89	227.75
802.21	227.73
802.53	227.69
802.85	227.71
803.17	227.76
803.49	227.72
803.81	227.70
804.13	227.68
804.45	227.65
804.77	227.64
805.09	227.63
805.41	227.61
805.73	227.57
806.05	227.52
806.37	227.50
806.69	227.47
807.01	227.45
807.33	227.45
807.65	227.39
807.97	227.44
808.28	227.40
808.60	227.39
808.92	227.36
809.24	227.43
809.56	227.39
809.88	227.34
810.20	227.34
810.52	227.35
810.84	227.32
811.16	227.30
811.48	227.28
811.80	227.31
812.12	227.30
812.43	227.31
812.75	227.32
813.07	227.30
813.39	227.29
813.71	227.27
814.03	227.25
814.35	227.25
814.67	227.18
814.98	227.17
815.30	227.16
815.62	227.13
815.94	227.04
816.26	227.04
816.58	227.01
816.89	227.01
817.21	226.97
817.53	226.97
817.85	226.98
818.17	226.97
818.48	226.90
818.80	226.92
819.12	226.89
819.44	226.86
819.76	226.84
820.07	226.83
820.39	226.82
820.71	226.83
821.03	226.82
821.34	226.80
821.66	226.81
821.98	226.82
822.30	226.81
822.61	226.88
822.93	226.85
823.25	226.85
823.57	226.83
823.88	226.84
824.20	226.83
824.52	226.84
824.83	226.83
825.15	226.81
825.47	226.79
825.79	226.80
826.10	226.78
826.42	226.78
826.74	226.78
827.05	226.77
827.37	226.77
827.69	226.76
828.00	226.76
828.32	226.75
828.64	226.72
828.95	226.79
829.27	226.74
829.58	226.74
829.90	226.76
830.22	226.76
830.53	226.74
830.85	226.72
831.17	226.68
831.48	226.68
831.80	226.68
832.11	226.67
832.43	226.65
832.75	226.65
833.06	226.72
833.38	226.68
833.69	226.67
834.01	226.67
834.32	226.66
834.64	226.65
834.96	226.64
835.27	226.64
835.59	226.59
835.90	226.57
836.22	226.56
836.53	226.53
836.85	226.51
837.16	226.63
837.48	226.63
837.79	226.67
838.11	226.67
838.42	226.66
838.74	226.68
839.05	226.67
839.37	226.66
839.68	226.58
840.00	226.57
840.31	226.59
840.63	226.57
840.94	226.55
841.26	226.54
841.57	226.53
841.88	226.54
842.20	226.52
842.51	226.50
842.83	226.50
843.14	226.61
843.46	226.60
843.77	226.53
844.08	226.52
844.40	226.47
844.71	226.46
845.03	226.45
845.34	226.43
845.65	226.42
845.97	226.42
846.28	226.43
846.60	226.43
846.91	226.41
847.22	226.40
847.54	226.43
847.85	226.43
848.16	226.42
848.48	226.39
848.79	226.43
849.10	226.45
849.42	226.45
849.73	226.33
850.04	226.33
850.36	226.28
850.67	226.30
850.98	226.30
851.30	226.31
851.61	226.31
851.92	226.30
852.23	226.34
852.55	226.34
852.86	226.34
853.17	226.35
853.49	226.37
853.80	226.40
854.11	226.40
854.42	226.41
854.74	226.40
855.05	226.40
855.36	226.34
855.67	226.34
855.99	226.34
856.30	226.49
856.61	226.48
856.92	226.48
857.23	226.48
857.55	226.46
857.86	226.45
858.17	226.47
858.48	226.45
858.79	226.42
859.11	226.43
859.42	226.42
859.73	226.40
860.04	226.40
860.35	226.36
860.66	226.32
860.98	226.31
861.29	226.32
861.60	226.32
861.91	226.35
862.22	226.32
862.53	226.31
862.84	226.16
863.16	226.18
863.47	226.16
863.78	226.14
864.09	226.15
864.40	226.15
864.71	226.15
865.02	226.17
865.33	226.15
865.64	226.13
865.95	226.13
866.27	226.21
866.58	226.19
866.89	226.21
867.20	226.20
867.51	226.18
867.82	226.18
868.13	226.21
868.44	226.18
868.75	226.20
869.06	226.21
869.37	226.22
869.68	226.19
869.99	226.21
870.30	226.22
870.61	226.23
870.92	226.21
871.23	226.20
871.54	226.21
871.85	226.24
872.16	226.26
872.47	226.25
872.78	226.18
873.09	226.19
873.40	226.18
873.71	226.19
874.02	226.20
874.33	226.19
874.64	226.16
874.95	226.18
875.26	226.15
875.56	226.15
875.87	226.14
876.18	226.14
876.49	226.26
876.80	226.25
877.11	226.22
877.42	226.23
877.73	226.23
878.04	226.21
878.35	226.20
878.66	226.20
878.96	226.20
879.27	226.20
879.58	226.19
879.89	226.18
880.20	226.21
880.51	226.21
880.82	226.21
881.12	226.22
881.43	226.19
881.74	226.18
882.05	226.17
882.36	226.18
882.67	226.18
882.97	226.05
883.28	226.04
883.59	226.04
883.90	226.05
884.21	226.06
884.51	226.06
884.82	226.03
885.13	226.03
885.44	226.03
885.74	226.03
886.05	226.03
886.36	226.03
886.67	225.98
886.98	226.04
887.28	226.05
887.59	226.04
887.90	226.05
888.20	226.04
888.51	226.07
888.82	226.04
889.13	226.05
889.43	226.16
889.74	226.16
890.05	226.16
890.35	226.14
890.66	226.12
890.97	226.11
891.28	226.10
891.58	226.10
891.89	226.10
892.20	226.08
892.50	226.07
892.81	226.06
893.12	226.06
893.42	226.00
893.73	226.00
894.04	226.00
894.34	226.01
894.65	226.00
894.95	225.99
895.26	226.00
895.57	226.05
895.87	225.92
896.18	225.94
896.48	225.95
896.79	225.94
897.10	225.96
897.40	225.97
897.71	225.98
898.01	225.97
898.32	225.98
898.63	225.98
898.93	225.99
899.24	225.99
899.54	225.99
899.85	225.98
900.15	225.97
900.46	225.97
900.76	225.98
901.07	225.98
901.38	225.97
901.68	225.98
901.99	225.92
902.29	225.93
902.60	225.92
902.90	225.91
903.21	225.91
903.51	225.90
903.82	225.92
904.12	225.92
904.43	225.93
904.73	225.92
905.03	225.93
905.34	226.05
905.64	226.04
905.95	226.04
906.25	226.05
906.56	226.04
906.86	226.04
907.17	226.03
907.47	226.04
907.77	226.03
908.08	226.00
908.38	226.00
908.69	226.01
908.99	226.03
909.30	226.04
909.60	226.03
909.90	226.04
910.21	226.00
910.51	225.98
910.81	225.98
911.12	225.99
911.42	225.98
911.73	225.85
912.03	225.86
912.33	225.89
912.64	225.88
912.94	225.86
913.24	225.84
913.55	225.83
913.85	225.82
914.15	225.85
914.46	225.87
914.76	225.85
915.06	225.85
915.37	225.82
915.67	225.81
915.97	225.82
916.27	225.79
916.58	225.80
916.88	225.79
917.18	225.78
917.49	225.87
917.79	225.86
918.09	225.88
918.39	225.91
918.70	225.90
919.00	225.91
919.30	225.97
919.60	225.96
919.91	225.95
920.21	225.96
920.51	225.93
920.81	225.92
921.12	225.94
921.42	225.93
921.72	225.94
922.02	225.95
922.32	225.97
922.63	225.97
922.93	226.04
923.23	226.05
923.53	226.04
923.83	225.95
924.13	225.96
924.44	225.96
924.74	225.97
925.04	226.00
925.34	226.00
925.64	225.95
925.94	225.95
926.24	226.02
926.55	226.01
926.85	226.02
927.15	226.03
927.45	226.02
927.75	226.02
928.05	226.02
928.35	226.01
928.65	226.03
928.95	226.04
929.26	225.97
929.56	226.00
929.86	226.01
930.16	226.00
930.46	225.99
930.76	225.99
931.06	225.93
931.36	225.89
931.66	225.91
931.96	225.93
932.26	225.93
932.56	225.88
932.86	225.89
933.16	225.89
933.46	225.87
933.76	225.86
934.06	225.88
934.36	225.92
934.66	225.92
934.96	225.90
935.26	225.90
935.56	225.92
935.86	225.88
936.16	225.87
936.46	225.86
936.76	225.85
937.06	225.84
937.36	225.85
937.66	225.85
937.96	225.84
938.26	225.81
938.56	225.80
938.86	225.81
939.16	225.83
939.46	225.84
939.76	225.85
940.06	225.86
940.35	225.83
940.65	225.77
940.95	225.78
941.25	225.76
941.55	225.74
941.85	225.73
942.15	225.76
942.45	225.79
942.75	225.79
943.04	225.80
943.34	225.82
943.64	225.81
943.94	225.79
944.24	225.80
944.54	225.81
944.84	225.80
945.13	225.79
945.43	225.76
945.73	225.76
946.03	225.75
946.33	225.73
946.62	225.72
946.92	225.72
947.22	225.72
947.52	225.73
947.82	225.75
948.11	225.73
948.41	225.70
948.71	225.67
949.01	225.68
949.31	225.67
949.60	225.65
949.90	225.68
950.20	225.67
950.50	225.67
950.79	225.66
951.09	225.67
951.39	225.67
951.69	225.66
951.98	225.68
952.28	225.69
952.58	225.69
952.87	225.69
953.17	225.71
953.47	225.69
953.76	225.69
954.06	225.67
954.36	225.66
954.66	225.66
954.95	225.69
955.25	225.70
955.55	225.71
955.84	225.69
956.14	225.70
956.44	225.71
956.73	225.69
957.03	225.70
957.32	225.70
957.62	225.69
957.92	225.72
958.21	225.70
958.51	225.85
958.81	225.87
959.10	225.88
959.40	225.91
959.69	225.91
959.99	225.93
960.29	225.93
960.58	225.93
960.88	225.98
961.17	225.96
961.47	225.97
961.76	225.95
962.06	225.98
962.36	225.96
962.65	225.96
962.95	225.97
963.24	225.96
963.54	225.96
963.83	225.97
964.13	225.96
964.42	225.95
964.72	225.84
965.01	225.84
965.31	225.83
965.60	225.80
965.90	225.87
966.19	225.84
966.49	225.85
966.78	225.85
967.08	225.84
967.37	225.83
967.67	225.81
967.96	225.83
968.26	225.83
968.55	225.85
968.85	225.84
969.14	225.84
969.43	225.84
969.73	225.82
970.02	225.81
970.32	225.81
970.61	225.79
970.91	225.75
971.20	225.73
971.49	225.72
971.79	225.74
972.08	225.64
972.38	225.66
972.67	225.65
972.96	225.67
973.26	225.65
973.55	225.69
973.85	225.68
974.14	225.67
974.43	225.68
974.73	225.65
975.02	225.64
975.31	225.64
975.61	225.64
975.90	225.63
976.19	225.62
976.49	225.63
976.78	225.64
977.07	225.64
977.37	225.65
977.66	225.67
977.95	225.65
978.24	225.66
978.54	225.69
978.83	225.68
979.12	225.67
979.42	225.67
979.71	225.65
980.00	225.64
980.29	225.65
980.59	225.63
980.88	225.66
981.17	225.66
981.46	225.67
981.76	225.67
982.05	225.71
982.34	225.71
982.63	225.71
982.93	225.72
983.22	225.75
983.51	225.75
983.80	225.77
984.09	225.78
984.39	225.77
984.68	225.75
984.97	225.76
985.26	225.75
985.55	225.76
985.85	225.73
986.14	225.75
986.43	225.77
986.72	225.76
987.01	225.72
987.30	225.72
987.59	225.72
987.89	225.72
988.18	225.68
988.47	225.67
988.76	225.66
989.05	225.65
989.34	225.63
989.63	225.66
989.92	225.64
990.22	225.62
990.51	225.62
990.80	225.61
991.09	225.63
991.38	225.64
991.67	225.63
991.96	225.62
992.25	225.62
992.54	225.60
992.83	225.60
993.12	225.60
993.41	225.62
993.70	225.67
993.99	225.69
994.28	225.71
994.58	225.73
994.87	225.72
995.16	225.72
995.45	225.71
995.74	225.66
996.03	225.68
996.32	225.70
996.61	225.73
996.90	225.73
997.19	225.72
997.48	225.72
997.77	225.71
998.06	225.72
998.34	225.70
998.63	225.71
998.92	225.71
999.21	225.73
999.50	225.73
999.79	225.68
1000.08	225.68
1000.37	225.68
1000.66	225.66
1000.95	225.69
1001.24	225.70
1001.53	225.72
1001.82	225.72
1002.11	225.69
1002.40	225.70
1002.68	225.72
1002.97	225.81
1003.26	225.80
1003.55	225.78
1003.84	225.79
1004.13	225.83
1004.42	225.83
1004.71	225.83
1004.99	225.82
1005.28	225.84
1005.57	225.83
1005.86	225.82
1006.15	225.81
1006.44	225.79
1006.72	225.80
1007.01	225.78
1007.30	225.78
1007.59	225.77
1007.88	225.77
1008.17	225.77
1008.45	225.75
1008.74	225.70
1009.03	225.64
1009.32	225.64
1009.60	225.64
1009.89	225.63
1010.18	225.58
1010.47	225.57
1010.76	225.58
1011.04	225.58
1011.33	225.57
1011.62	225.58
1011.91	225.59
1012.19	225.60
1012.48	225.60
1012.77	225.60
1013.05	225.64
1013.34	225.64
1013.63	225.63
1013.92	225.64
1014.20	225.64
1014.49	225.64
1014.78	225.66
1015.06	225.61
1015.35	225.61
1015.64	225.63
1015.92	225.65
1016.21	225.66
1016.50	225.66
1016.78	225.68
1017.07	225.68
1017.36	225.66
1017.64	225.64
1017.93	225.65
1018.22	225.64
1018.50	225.64
1018.79	225.63
1019.08	225.59
1019.36	225.60
1019.65	225.59
1019.93	225.62
1020.22	225.64
1020.51	225.70
1020.79	225.68
1021.08	225.44
1021.36	225.44
1021.65	225.64
1021.94	225.56
1022.22	225.72
1022.51	225.39
1022.79	226.22
1023.08	225.82
1023.36	227.10
1023.65	225.35
>>>>>End Processed Spectral Data<<<<<
