SpectraSuite Data File
++++++++++++++++++++++++++++++++++++
Date: Fri Oct 02 18:50:42 EDT 2015
User: lab3
Dark Spectrum Present: No
Reference Spectrum Present: No
Number of Sampled Component Spectra: 1
Spectrometers: USB2E7196
Integration Time (usec): 46000 (USB2E7196)
Spectra Averaged: 1500 (USB2E7196)
Boxcar Smoothing: 10 (USB2E7196)
Correct for Electrical Dark: No (USB2E7196)
Strobe/Lamp Enabled: No (USB2E7196)
Correct for Detector Non-linearity: No (USB2E7196)
Correct for Stray Light: No (USB2E7196)
Number of Pixels in Processed Spectrum: 2048
>>>>>Begin Processed Spectral Data<<<<<
339.09	0.00
339.48	215.58
339.86	217.11
340.24	218.41
340.63	219.73
341.01	223.13
341.39	222.51
341.78	223.98
342.16	225.04
342.54	225.58
342.93	213.92
343.31	224.73
343.69	225.26
344.07	225.73
344.46	226.16
344.84	226.56
345.22	226.78
345.60	227.04
345.99	227.24
346.37	227.38
346.75	227.50
347.13	227.59
347.52	227.66
347.90	227.75
348.28	227.80
348.66	227.85
349.05	227.84
349.43	227.90
349.81	227.96
350.19	228.01
350.57	228.08
350.96	228.17
351.34	228.26
351.72	228.36
352.10	228.46
352.48	228.53
352.87	228.59
353.25	228.65
353.63	228.70
354.01	228.77
354.39	228.85
354.77	228.92
355.15	229.02
355.54	229.08
355.92	229.10
356.30	229.18
356.68	229.33
357.06	229.40
357.44	229.44
357.82	229.50
358.20	229.62
358.58	229.67
358.97	229.73
359.35	229.81
359.73	229.89
360.11	229.94
360.49	230.00
360.87	230.06
361.25	230.12
361.63	230.21
362.01	230.26
362.39	230.28
362.77	230.33
363.15	230.34
363.53	230.37
363.91	230.41
364.29	230.42
364.67	230.32
365.05	230.35
365.43	230.38
365.81	230.42
366.19	230.43
366.57	230.48
366.95	230.48
367.33	230.46
367.71	230.45
368.09	230.47
368.47	230.45
368.85	230.43
369.23	230.44
369.61	230.37
369.99	230.38
370.37	230.39
370.75	230.46
371.13	230.43
371.51	230.39
371.89	230.36
372.27	230.34
372.65	230.31
373.03	230.26
373.41	230.21
373.78	230.16
374.16	230.06
374.54	229.98
374.92	229.94
375.30	229.89
375.68	229.82
376.06	229.78
376.44	229.72
376.82	229.69
377.19	229.64
377.57	229.59
377.95	229.50
378.33	229.43
378.71	229.28
379.09	229.23
379.47	229.20
379.84	229.14
380.22	229.07
380.60	229.01
380.98	228.96
381.36	228.91
381.73	228.85
382.11	228.83
382.49	228.79
382.87	228.72
383.25	228.68
383.62	228.78
384.00	228.71
384.38	228.68
384.76	228.66
385.13	228.65
385.51	228.61
385.89	228.57
386.27	228.53
386.64	228.52
387.02	228.47
387.40	228.44
387.78	228.41
388.15	228.38
388.53	228.35
388.91	228.33
389.29	228.30
389.66	228.29
390.04	228.25
390.42	228.24
390.79	228.23
391.17	228.20
391.55	228.05
391.92	228.03
392.30	228.04
392.68	228.00
393.05	227.98
393.43	227.97
393.81	227.97
394.18	227.96
394.56	227.95
394.94	227.98
395.31	227.97
395.69	228.02
396.06	228.05
396.44	228.07
396.82	228.08
397.19	228.16
397.57	228.19
397.95	228.23
398.32	228.22
398.70	228.26
399.07	228.33
399.45	228.36
399.82	228.40
400.20	228.43
400.58	228.50
400.95	228.51
401.33	228.59
401.70	228.74
402.08	228.83
402.45	228.92
402.83	229.03
403.20	229.15
403.58	229.23
403.95	229.37
404.33	229.52
404.71	229.65
405.08	229.85
405.46	230.01
405.83	230.19
406.21	230.38
406.58	230.60
406.96	230.80
407.33	231.05
407.70	231.32
408.08	231.69
408.45	232.00
408.83	232.35
409.20	232.66
409.58	232.95
409.95	233.34
410.33	233.76
410.70	234.15
411.08	234.62
411.45	235.11
411.82	235.60
412.20	236.18
412.57	236.87
412.95	237.40
413.32	238.11
413.69	238.83
414.07	239.59
414.44	240.42
414.82	241.27
415.19	242.26
415.56	243.27
415.94	244.30
416.31	245.46
416.68	246.62
417.06	247.99
417.43	249.26
417.81	250.73
418.18	252.22
418.55	253.85
418.93	255.53
419.30	257.30
419.67	259.17
420.04	261.09
420.42	263.08
420.79	265.42
421.16	267.76
421.54	270.14
421.91	272.64
422.28	275.23
422.66	278.01
423.03	280.67
423.40	283.46
423.77	286.45
424.15	289.52
424.52	292.72
424.89	296.17
425.26	299.59
425.64	302.79
426.01	306.37
426.38	310.04
426.75	313.83
427.13	317.71
427.50	321.79
427.87	326.02
428.24	330.30
428.61	334.41
428.99	338.86
429.36	343.73
429.73	348.39
430.10	353.06
430.47	357.84
430.85	362.76
431.22	368.04
431.59	373.49
431.96	378.78
432.33	384.66
432.70	390.28
433.08	396.91
433.45	403.17
433.82	409.35
434.19	416.24
434.56	423.05
434.93	429.62
435.30	436.11
435.68	443.45
436.05	450.63
436.42	457.77
436.79	464.28
437.16	471.33
437.53	478.85
437.90	486.38
438.27	493.73
438.64	501.65
439.01	508.84
439.38	515.38
439.75	521.70
440.13	528.83
440.50	535.58
440.87	540.93
441.24	546.77
441.61	553.15
441.98	557.75
442.35	563.22
442.72	568.79
443.09	574.08
443.46	577.37
443.83	579.73
444.20	581.66
444.57	584.62
444.94	586.19
445.31	587.83
445.68	589.18
446.05	590.09
446.42	589.48
446.79	588.72
447.16	588.01
447.53	587.32
447.90	584.80
448.27	582.34
448.64	578.78
449.01	576.24
449.37	571.41
449.74	567.03
450.11	561.47
450.48	555.42
450.85	549.35
451.22	544.15
451.59	539.10
451.96	534.52
452.33	527.94
452.70	522.12
453.07	515.04
453.43	508.03
453.80	501.22
454.17	494.73
454.54	488.72
454.91	481.99
455.28	475.69
455.65	469.73
456.02	463.48
456.38	458.43
456.75	451.96
457.12	446.76
457.49	441.52
457.86	436.58
458.23	432.27
458.59	427.50
458.96	422.63
459.33	418.33
459.70	413.96
460.07	410.66
460.43	406.76
460.80	403.15
461.17	399.98
461.54	396.55
461.91	393.36
462.27	390.13
462.64	387.51
463.01	384.48
463.38	381.43
463.74	378.68
464.11	376.28
464.48	374.11
464.85	371.74
465.21	369.96
465.58	367.96
465.95	365.67
466.32	363.85
466.68	362.05
467.05	360.25
467.42	358.48
467.78	356.58
468.15	354.84
468.52	353.57
468.88	351.86
469.25	350.29
469.62	349.06
469.98	347.70
470.35	346.50
470.72	345.41
471.08	344.31
471.45	343.38
471.82	342.34
472.18	341.23
472.55	340.52
472.92	339.62
473.28	338.91
473.65	338.15
474.02	337.42
474.38	336.82
474.75	336.49
475.11	336.00
475.48	335.77
475.85	335.52
476.21	335.40
476.58	335.31
476.94	335.44
477.31	335.51
477.67	335.59
478.04	335.79
478.41	336.07
478.77	336.49
479.14	336.76
479.50	337.25
479.87	337.90
480.23	338.56
480.60	339.20
480.96	339.85
481.33	340.80
481.69	341.75
482.06	342.70
482.42	343.55
482.79	344.63
483.15	345.86
483.52	347.27
483.88	348.63
484.25	350.08
484.61	351.59
484.98	353.22
485.34	355.05
485.71	356.97
486.07	359.02
486.44	361.05
486.80	363.32
487.17	365.70
487.53	368.28
487.90	370.98
488.26	373.93
488.62	377.04
488.99	380.16
489.35	383.45
489.72	387.00
490.08	390.75
490.44	394.62
490.81	398.64
491.17	402.78
491.54	407.21
491.90	411.80
492.26	416.71
492.63	421.84
492.99	427.19
493.36	432.74
493.72	438.58
494.08	444.58
494.45	450.93
494.81	457.54
495.17	464.33
495.54	471.51
495.90	478.97
496.26	486.59
496.63	494.48
496.99	502.66
497.35	511.23
497.72	520.08
498.08	529.15
498.44	538.56
498.80	548.49
499.17	558.66
499.53	569.13
499.89	580.00
500.26	591.08
500.62	602.47
500.98	614.45
501.34	626.63
501.71	639.29
502.07	652.19
502.43	665.59
502.79	679.20
503.16	693.26
503.52	707.54
503.88	722.26
504.24	737.40
504.60	752.77
504.97	768.65
505.33	784.92
505.69	802.09
506.05	819.56
506.41	836.95
506.78	854.61
507.14	872.78
507.50	891.37
507.86	910.32
508.22	929.49
508.59	948.54
508.95	968.47
509.31	989.10
509.67	1010.34
510.03	1031.60
510.39	1053.00
510.75	1074.61
511.12	1096.49
511.48	1118.49
511.84	1140.64
512.20	1163.20
512.56	1186.55
512.92	1209.95
513.28	1233.00
513.64	1256.37
514.00	1280.15
514.37	1304.18
514.73	1328.33
515.09	1352.39
515.45	1376.83
515.81	1401.33
516.17	1426.10
516.53	1450.24
516.89	1474.37
517.25	1498.74
517.61	1523.06
517.97	1547.85
518.33	1572.08
518.69	1596.28
519.05	1621.09
519.41	1646.14
519.77	1671.25
520.13	1695.79
520.49	1720.28
520.85	1745.22
521.21	1769.52
521.57	1794.37
521.93	1818.73
522.29	1843.51
522.65	1867.87
523.01	1892.21
523.37	1916.22
523.73	1940.88
524.09	1965.36
524.45	1989.61
524.81	2013.46
525.17	2037.14
525.53	2060.22
525.89	2083.85
526.25	2107.48
526.61	2130.10
526.97	2152.89
527.33	2175.74
527.68	2198.17
528.04	2219.83
528.40	2240.46
528.76	2261.70
529.12	2282.28
529.48	2302.47
529.84	2321.02
530.20	2340.21
530.56	2358.81
530.91	2377.58
531.27	2395.93
531.63	2413.51
531.99	2430.74
532.35	2447.35
532.71	2463.96
533.07	2481.24
533.42	2496.78
533.78	2513.30
534.14	2529.98
534.50	2545.56
534.86	2561.06
535.21	2574.68
535.57	2588.81
535.93	2602.77
536.29	2615.46
536.65	2628.16
537.00	2640.25
537.36	2653.14
537.72	2664.38
538.08	2675.30
538.44	2685.61
538.79	2695.53
539.15	2704.54
539.51	2713.12
539.87	2720.94
540.22	2727.12
540.58	2733.34
540.94	2740.78
541.29	2746.43
541.65	2750.32
542.01	2753.77
542.37	2756.45
542.72	2760.49
543.08	2762.86
543.44	2765.67
543.79	2767.41
544.15	2768.31
544.51	2769.62
544.87	2769.87
545.22	2769.36
545.58	2768.13
545.94	2766.94
546.29	2764.40
546.65	2761.98
547.01	2759.52
547.36	2757.78
547.72	2755.79
548.07	2752.24
548.43	2747.10
548.79	2741.29
549.14	2736.75
549.50	2732.23
549.86	2726.84
550.21	2720.32
550.57	2714.70
550.92	2706.89
551.28	2699.73
551.64	2692.75
551.99	2685.18
552.35	2676.99
552.70	2669.22
553.06	2661.73
553.41	2653.49
553.77	2645.06
554.13	2636.45
554.48	2626.96
554.84	2616.35
555.19	2606.50
555.55	2596.43
555.90	2586.42
556.26	2576.86
556.61	2566.17
556.97	2553.93
557.32	2542.22
557.68	2530.34
558.03	2518.34
558.39	2507.39
558.74	2496.77
559.10	2484.45
559.45	2472.47
559.81	2461.09
560.16	2448.92
560.52	2436.94
560.87	2425.29
561.23	2412.79
561.58	2400.63
561.94	2387.95
562.29	2374.71
562.64	2362.10
563.00	2349.23
563.35	2336.87
563.71	2324.21
564.06	2311.42
564.42	2299.37
564.77	2286.60
565.12	2273.86
565.48	2260.98
565.83	2248.25
566.19	2235.43
566.54	2222.56
566.89	2208.54
567.25	2194.76
567.60	2182.21
567.96	2168.84
568.31	2154.17
568.66	2140.34
569.02	2127.36
569.37	2114.46
569.72	2102.08
570.08	2088.35
570.43	2074.37
570.78	2060.03
571.14	2045.10
571.49	2030.92
571.84	2017.22
572.20	2002.24
572.55	1987.59
572.90	1972.69
573.26	1957.78
573.61	1942.36
573.96	1927.38
574.31	1912.78
574.67	1898.00
575.02	1882.37
575.37	1866.74
575.72	1851.99
576.08	1837.46
576.43	1821.86
576.78	1806.67
577.13	1791.79
577.49	1777.30
577.84	1763.29
578.19	1748.37
578.54	1733.67
578.90	1718.46
579.25	1703.14
579.60	1689.46
579.95	1675.49
580.30	1661.45
580.66	1647.15
581.01	1632.75
581.36	1618.46
581.71	1605.07
582.06	1591.56
582.42	1578.29
582.77	1565.05
583.12	1551.65
583.47	1538.23
583.82	1524.87
584.17	1511.16
584.53	1497.07
584.88	1483.34
585.23	1469.18
585.58	1455.95
585.93	1442.95
586.28	1430.66
586.63	1418.40
586.98	1405.50
587.34	1392.72
587.69	1379.74
588.04	1367.05
588.39	1354.79
588.74	1342.55
589.09	1330.16
589.44	1317.38
589.79	1305.25
590.14	1293.20
590.49	1281.14
590.84	1269.15
591.19	1257.66
591.54	1245.97
591.89	1234.39
592.25	1222.95
592.60	1211.23
592.95	1199.86
593.30	1188.64
593.65	1177.12
594.00	1165.68
594.35	1154.94
594.70	1143.79
595.05	1133.52
595.40	1123.14
595.75	1112.59
596.10	1102.60
596.45	1092.22
596.80	1082.20
597.15	1071.97
597.50	1061.90
597.85	1052.17
598.19	1042.34
598.54	1032.56
598.89	1023.17
599.24	1014.15
599.59	1005.04
599.94	996.83
600.29	988.33
600.64	979.53
600.99	970.39
601.34	961.66
601.69	952.61
602.04	944.21
602.39	935.62
602.74	927.04
603.08	918.50
603.43	909.92
603.78	901.51
604.13	893.31
604.48	885.06
604.83	876.96
605.18	868.80
605.53	860.79
605.87	852.56
606.22	844.74
606.57	836.82
606.92	828.72
607.27	820.55
607.62	812.84
607.96	805.51
608.31	798.63
608.66	791.55
609.01	784.74
609.36	778.05
609.70	771.06
610.05	764.13
610.40	757.40
610.75	750.69
611.10	744.31
611.44	737.79
611.79	731.36
612.14	724.88
612.49	718.52
612.83	712.45
613.18	706.50
613.53	700.40
613.88	694.40
614.22	688.87
614.57	683.21
614.92	677.33
615.27	671.62
615.61	665.94
615.96	660.33
616.31	654.74
616.65	649.20
617.00	643.96
617.35	638.78
617.70	633.67
618.04	628.56
618.39	623.41
618.74	618.52
619.08	613.67
619.43	608.94
619.78	604.22
620.12	599.45
620.47	594.89
620.82	590.42
621.16	585.92
621.51	581.26
621.85	576.73
622.20	572.42
622.55	568.10
622.89	563.84
623.24	559.59
623.59	555.40
623.93	551.37
624.28	547.38
624.62	543.50
624.97	539.66
625.32	535.85
625.66	531.96
626.01	528.01
626.35	524.17
626.70	520.36
627.04	516.71
627.39	513.06
627.73	509.55
628.08	506.14
628.43	502.73
628.77	499.45
629.12	496.24
629.46	493.00
629.81	489.70
630.15	486.43
630.50	483.28
630.84	480.15
631.19	477.08
631.53	474.14
631.88	471.15
632.22	468.19
632.57	465.51
632.91	462.87
633.26	460.32
633.60	457.77
633.95	455.30
634.29	452.75
634.64	450.25
634.98	447.53
635.32	445.01
635.67	442.68
636.01	440.23
636.36	437.86
636.70	435.70
637.05	433.46
637.39	431.28
637.73	429.08
638.08	427.02
638.42	424.91
638.77	422.68
639.11	420.40
639.45	418.23
639.80	416.01
640.14	413.88
640.49	411.72
640.83	409.55
641.17	407.46
641.52	405.43
641.86	403.42
642.20	401.62
642.55	399.65
642.89	397.71
643.23	395.86
643.58	394.19
643.92	392.34
644.26	390.60
644.61	388.89
644.95	387.15
645.29	385.33
645.64	383.53
645.98	381.81
646.32	380.24
646.66	378.64
647.01	377.06
647.35	375.54
647.69	374.00
648.04	372.62
648.38	371.12
648.72	369.67
649.06	368.20
649.41	366.77
649.75	365.38
650.09	364.00
650.43	362.66
650.78	361.22
651.12	359.83
651.46	358.50
651.80	357.21
652.14	355.95
652.49	354.73
652.83	353.50
653.17	352.31
653.51	351.15
653.85	350.03
654.20	348.84
654.54	347.61
654.88	346.46
655.22	345.32
655.56	344.18
655.90	343.10
656.25	342.06
656.59	340.99
656.93	339.99
657.27	339.00
657.61	337.93
657.95	336.93
658.29	335.93
658.64	334.99
658.98	334.02
659.32	333.08
659.66	332.18
660.00	331.31
660.34	330.44
660.68	329.53
661.02	328.57
661.36	327.65
661.70	326.78
662.05	325.92
662.39	325.06
662.73	324.30
663.07	323.52
663.41	322.71
663.75	321.88
664.09	321.07
664.43	320.21
664.77	319.45
665.11	318.64
665.45	317.90
665.79	317.14
666.13	316.33
666.47	315.53
666.81	314.74
667.15	313.89
667.49	313.17
667.83	312.52
668.17	311.83
668.51	311.20
668.85	310.58
669.19	309.99
669.53	309.31
669.87	308.60
670.21	307.93
670.55	307.29
670.89	306.72
671.23	306.12
671.57	305.53
671.91	304.98
672.25	304.45
672.58	303.90
672.92	303.31
673.26	302.81
673.60	302.30
673.94	301.79
674.28	301.33
674.62	300.80
674.96	300.24
675.30	299.74
675.64	299.20
675.97	298.65
676.31	298.08
676.65	297.54
676.99	297.08
677.33	296.53
677.67	296.04
678.01	295.46
678.34	294.96
678.68	294.49
679.02	293.95
679.36	293.44
679.70	292.92
680.04	292.42
680.37	291.92
680.71	291.44
681.05	290.99
681.39	290.49
681.73	289.97
682.06	289.45
682.40	288.97
682.74	288.55
683.08	288.17
683.42	287.72
683.75	287.31
684.09	286.83
684.43	286.40
684.77	285.95
685.10	285.58
685.44	285.16
685.78	284.75
686.12	284.35
686.45	283.93
686.79	283.51
687.13	283.10
687.46	282.66
687.80	282.25
688.14	281.78
688.48	281.38
688.81	280.97
689.15	280.62
689.49	280.20
689.82	279.77
690.16	279.28
690.50	278.86
690.83	278.45
691.17	278.04
691.51	277.64
691.84	277.26
692.18	276.81
692.52	276.39
692.85	275.96
693.19	275.60
693.52	275.19
693.86	274.79
694.20	274.41
694.53	274.04
694.87	273.63
695.21	273.24
695.54	272.85
695.88	272.46
696.21	272.04
696.55	271.66
696.88	271.29
697.22	270.92
697.56	270.54
697.89	270.13
698.23	269.74
698.56	269.34
698.90	268.97
699.23	268.59
699.57	268.20
699.90	267.83
700.24	267.42
700.58	267.08
700.91	266.76
701.25	266.52
701.58	266.22
701.92	265.91
702.25	265.58
702.59	265.22
702.92	264.88
703.26	264.53
703.59	264.17
703.93	263.93
704.26	263.60
704.60	263.26
704.93	262.93
705.26	262.59
705.60	262.31
705.93	261.96
706.27	261.67
706.60	261.41
706.94	261.14
707.27	260.80
707.61	260.47
707.94	260.13
708.27	259.69
708.61	259.33
708.94	259.00
709.28	258.70
709.61	258.39
709.94	258.12
710.28	257.86
710.61	257.60
710.95	257.22
711.28	257.02
711.61	256.73
711.95	256.48
712.28	256.19
712.61	255.89
712.95	255.70
713.28	255.49
713.61	255.19
713.95	254.89
714.28	254.64
714.61	254.36
714.95	254.10
715.28	253.85
715.61	253.61
715.95	253.38
716.28	253.14
716.61	252.94
716.95	252.68
717.28	252.42
717.61	252.17
717.94	251.94
718.28	251.61
718.61	251.39
718.94	251.14
719.27	250.92
719.61	250.71
719.94	250.45
720.27	250.15
720.60	249.93
720.94	249.71
721.27	249.49
721.60	249.30
721.93	249.09
722.27	248.91
722.60	248.71
722.93	248.48
723.26	248.27
723.59	248.03
723.93	247.84
724.26	247.65
724.59	247.44
724.92	247.26
725.25	247.12
725.59	246.93
725.92	246.77
726.25	246.60
726.58	246.42
726.91	246.22
727.24	246.07
727.57	245.89
727.91	245.71
728.24	245.56
728.57	245.38
728.90	245.22
729.23	245.01
729.56	244.89
729.89	244.73
730.22	244.55
730.55	244.39
730.89	244.23
731.22	244.06
731.55	243.89
731.88	243.73
732.21	243.55
732.54	243.39
732.87	243.24
733.20	243.10
733.53	242.95
733.86	242.81
734.19	242.64
734.52	242.51
734.85	242.45
735.18	242.27
735.51	242.15
735.84	242.01
736.17	241.91
736.50	241.71
736.83	241.72
737.16	241.59
737.49	241.45
737.82	241.31
738.15	241.20
738.48	241.06
738.81	240.92
739.14	240.78
739.47	240.63
739.80	240.48
740.13	240.36
740.46	240.21
740.79	240.06
741.12	239.94
741.45	239.78
741.78	239.58
742.11	239.49
742.44	239.34
742.77	239.23
743.10	239.09
743.43	238.96
743.75	238.72
744.08	238.79
744.41	238.66
744.74	238.54
745.07	238.40
745.40	238.32
745.73	238.26
746.06	238.15
746.39	238.06
746.71	237.95
747.04	237.83
747.37	237.71
747.70	237.63
748.03	237.54
748.36	237.46
748.68	237.36
749.01	237.23
749.34	237.13
749.67	237.04
750.00	236.95
750.33	236.95
750.65	236.86
750.98	236.58
751.31	236.50
751.64	236.41
751.97	236.40
752.29	236.29
752.62	236.14
752.95	236.05
753.28	235.95
753.60	235.84
753.93	235.79
754.26	235.71
754.59	235.59
754.91	235.48
755.24	235.38
755.57	235.35
755.90	235.27
756.22	235.17
756.55	235.07
756.88	234.96
757.20	234.79
757.53	234.67
757.86	234.58
758.19	234.50
758.51	234.42
758.84	234.28
759.17	234.19
759.49	234.12
759.82	234.11
760.15	234.04
760.47	233.98
760.80	233.87
761.13	233.83
761.45	233.75
761.78	233.69
762.11	233.63
762.43	233.50
762.76	233.44
763.08	233.40
763.41	233.35
763.74	233.30
764.06	233.24
764.39	233.19
764.71	233.14
765.04	233.07
765.37	233.01
765.69	232.96
766.02	232.90
766.34	232.83
766.67	232.72
767.00	232.70
767.32	232.72
767.65	232.75
767.97	232.68
768.30	232.63
768.62	232.58
768.95	232.51
769.27	232.46
769.60	232.41
769.92	232.34
770.25	232.26
770.57	232.19
770.90	232.14
771.22	232.08
771.55	232.02
771.87	231.98
772.20	231.92
772.52	231.99
772.85	232.10
773.17	232.06
773.50	232.01
773.82	231.94
774.15	231.83
774.47	231.71
774.80	231.65
775.12	231.61
775.45	231.57
775.77	231.55
776.09	231.51
776.42	231.48
776.74	231.49
777.07	231.45
777.39	231.42
777.72	231.38
778.04	231.37
778.36	231.33
778.69	231.30
779.01	231.27
779.33	231.11
779.66	230.94
779.98	230.90
780.31	230.86
780.63	230.89
780.95	230.88
781.28	230.86
781.60	230.82
781.92	230.79
782.25	230.76
782.57	230.72
782.89	230.69
783.22	230.65
783.54	230.59
783.86	230.57
784.19	230.53
784.51	230.54
784.83	230.49
785.16	230.47
785.48	230.45
785.80	230.42
786.12	230.41
786.45	230.38
786.77	230.36
787.09	230.34
787.42	230.26
787.74	230.24
788.06	230.23
788.38	230.20
788.71	230.15
789.03	230.13
789.35	230.13
789.67	230.10
789.99	230.08
790.32	230.04
790.64	230.04
790.96	230.13
791.28	230.07
791.61	230.06
791.93	230.04
792.25	230.00
792.57	230.08
792.89	230.04
793.21	230.04
793.54	230.01
793.86	229.97
794.18	229.95
794.50	229.90
794.82	229.88
795.14	229.88
795.47	229.90
795.79	229.88
796.11	229.83
796.43	229.81
796.75	229.79
797.07	229.78
797.39	229.75
797.71	229.63
798.04	229.61
798.36	229.60
798.68	229.58
799.00	229.59
799.32	229.51
799.64	229.51
799.96	229.49
800.28	229.51
800.60	229.49
800.92	229.48
801.24	229.46
801.56	229.45
801.89	229.42
802.21	229.41
802.53	229.37
802.85	229.39
803.17	229.44
803.49	229.41
803.81	229.38
804.13	229.36
804.45	229.34
804.77	229.33
805.09	229.32
805.41	229.29
805.73	229.25
806.05	229.19
806.37	229.18
806.69	229.15
807.01	229.12
807.33	229.12
807.65	229.06
807.97	229.11
808.28	229.07
808.60	229.06
808.92	229.02
809.24	229.10
809.56	229.06
809.88	229.00
810.20	229.00
810.52	229.01
810.84	228.99
811.16	228.98
811.48	228.96
811.80	228.99
812.12	228.97
812.43	228.99
812.75	228.99
813.07	228.97
813.39	228.96
813.71	228.94
814.03	228.92
814.35	228.93
814.67	228.86
814.98	228.85
815.30	228.83
815.62	228.80
815.94	228.71
816.26	228.72
816.58	228.69
816.89	228.68
817.21	228.63
817.53	228.63
817.85	228.62
818.17	228.62
818.48	228.57
818.80	228.58
819.12	228.55
819.44	228.52
819.76	228.49
820.07	228.48
820.39	228.46
820.71	228.46
821.03	228.45
821.34	228.43
821.66	228.43
821.98	228.44
822.30	228.44
822.61	228.50
822.93	228.47
823.25	228.46
823.57	228.45
823.88	228.46
824.20	228.45
824.52	228.46
824.83	228.44
825.15	228.41
825.47	228.39
825.79	228.40
826.10	228.39
826.42	228.38
826.74	228.39
827.05	228.37
827.37	228.36
827.69	228.35
828.00	228.35
828.32	228.34
828.64	228.32
828.95	228.37
829.27	228.33
829.58	228.33
829.90	228.34
830.22	228.35
830.53	228.32
830.85	228.30
831.17	228.26
831.48	228.26
831.80	228.27
832.11	228.27
832.43	228.24
832.75	228.23
833.06	228.30
833.38	228.27
833.69	228.27
834.01	228.28
834.32	228.28
834.64	228.26
834.96	228.26
835.27	228.25
835.59	228.20
835.90	228.17
836.22	228.16
836.53	228.13
836.85	228.11
837.16	228.23
837.48	228.22
837.79	228.27
838.11	228.27
838.42	228.26
838.74	228.27
839.05	228.25
839.37	228.24
839.68	228.17
840.00	228.16
840.31	228.17
840.63	228.15
840.94	228.13
841.26	228.12
841.57	228.11
841.88	228.12
842.20	228.11
842.51	228.08
842.83	228.08
843.14	228.19
843.46	228.18
843.77	228.11
844.08	228.10
844.40	228.05
844.71	228.03
845.03	228.03
845.34	228.01
845.65	228.01
845.97	228.02
846.28	228.02
846.60	228.03
846.91	228.00
847.22	228.00
847.54	228.03
847.85	228.04
848.16	228.02
848.48	228.00
848.79	228.04
849.10	228.06
849.42	228.06
849.73	227.93
850.04	227.94
850.36	227.89
850.67	227.91
850.98	227.91
851.30	227.92
851.61	227.91
851.92	227.91
852.23	227.95
852.55	227.96
852.86	227.96
853.17	227.96
853.49	227.99
853.80	228.01
854.11	228.01
854.42	228.03
854.74	228.01
855.05	228.00
855.36	227.95
855.67	227.95
855.99	227.94
856.30	228.10
856.61	228.09
856.92	228.09
857.23	228.09
857.55	228.07
857.86	228.06
858.17	228.07
858.48	228.04
858.79	228.01
859.11	228.02
859.42	228.01
859.73	227.99
860.04	227.98
860.35	227.94
860.66	227.88
860.98	227.88
861.29	227.90
861.60	227.89
861.91	227.92
862.22	227.90
862.53	227.88
862.84	227.73
863.16	227.75
863.47	227.74
863.78	227.72
864.09	227.74
864.40	227.75
864.71	227.75
865.02	227.77
865.33	227.74
865.64	227.71
865.95	227.71
866.27	227.77
866.58	227.75
866.89	227.78
867.20	227.79
867.51	227.76
867.82	227.75
868.13	227.79
868.44	227.75
868.75	227.77
869.06	227.77
869.37	227.78
869.68	227.74
869.99	227.76
870.30	227.77
870.61	227.78
870.92	227.77
871.23	227.75
871.54	227.77
871.85	227.80
872.16	227.82
872.47	227.80
872.78	227.74
873.09	227.75
873.40	227.74
873.71	227.75
874.02	227.76
874.33	227.75
874.64	227.72
874.95	227.74
875.26	227.72
875.56	227.71
875.87	227.70
876.18	227.69
876.49	227.81
876.80	227.81
877.11	227.78
877.42	227.78
877.73	227.78
878.04	227.76
878.35	227.76
878.66	227.76
878.96	227.77
879.27	227.76
879.58	227.75
879.89	227.75
880.20	227.78
880.51	227.77
880.82	227.77
881.12	227.77
881.43	227.74
881.74	227.72
882.05	227.72
882.36	227.73
882.67	227.75
882.97	227.60
883.28	227.59
883.59	227.58
883.90	227.59
884.21	227.60
884.51	227.59
884.82	227.57
885.13	227.57
885.44	227.58
885.74	227.58
886.05	227.58
886.36	227.58
886.67	227.54
886.98	227.60
887.28	227.61
887.59	227.61
887.90	227.62
888.20	227.62
888.51	227.65
888.82	227.63
889.13	227.63
889.43	227.75
889.74	227.75
890.05	227.75
890.35	227.74
890.66	227.72
890.97	227.71
891.28	227.71
891.58	227.70
891.89	227.69
892.20	227.68
892.50	227.65
892.81	227.64
893.12	227.64
893.42	227.58
893.73	227.58
894.04	227.58
894.34	227.59
894.65	227.59
894.95	227.58
895.26	227.59
895.57	227.64
895.87	227.51
896.18	227.53
896.48	227.54
896.79	227.53
897.10	227.55
897.40	227.56
897.71	227.57
898.01	227.57
898.32	227.59
898.63	227.59
898.93	227.60
899.24	227.62
899.54	227.61
899.85	227.61
900.15	227.60
900.46	227.59
900.76	227.60
901.07	227.60
901.38	227.59
901.68	227.60
901.99	227.53
902.29	227.55
902.60	227.53
902.90	227.52
903.21	227.52
903.51	227.50
903.82	227.52
904.12	227.52
904.43	227.52
904.73	227.51
905.03	227.52
905.34	227.63
905.64	227.61
905.95	227.62
906.25	227.61
906.56	227.61
906.86	227.61
907.17	227.60
907.47	227.61
907.77	227.59
908.08	227.56
908.38	227.57
908.69	227.58
908.99	227.60
909.30	227.60
909.60	227.60
909.90	227.62
910.21	227.57
910.51	227.54
910.81	227.55
911.12	227.54
911.42	227.54
911.73	227.42
912.03	227.45
912.33	227.47
912.64	227.46
912.94	227.45
913.24	227.42
913.55	227.41
913.85	227.41
914.15	227.44
914.46	227.46
914.76	227.45
915.06	227.44
915.37	227.42
915.67	227.43
915.97	227.42
916.27	227.39
916.58	227.41
916.88	227.41
917.18	227.41
917.49	227.49
917.79	227.49
918.09	227.51
918.39	227.53
918.70	227.53
919.00	227.55
919.30	227.60
919.60	227.60
919.91	227.58
920.21	227.58
920.51	227.56
920.81	227.55
921.12	227.56
921.42	227.55
921.72	227.56
922.02	227.55
922.32	227.58
922.63	227.58
922.93	227.65
923.23	227.65
923.53	227.64
923.83	227.56
924.13	227.57
924.44	227.56
924.74	227.58
925.04	227.59
925.34	227.59
925.64	227.54
925.94	227.54
926.24	227.62
926.55	227.60
926.85	227.62
927.15	227.61
927.45	227.61
927.75	227.61
928.05	227.62
928.35	227.61
928.65	227.62
928.95	227.63
929.26	227.58
929.56	227.60
929.86	227.60
930.16	227.59
930.46	227.58
930.76	227.58
931.06	227.52
931.36	227.49
931.66	227.50
931.96	227.52
932.26	227.53
932.56	227.46
932.86	227.47
933.16	227.47
933.46	227.46
933.76	227.45
934.06	227.47
934.36	227.50
934.66	227.50
934.96	227.48
935.26	227.49
935.56	227.49
935.86	227.47
936.16	227.44
936.46	227.44
936.76	227.43
937.06	227.42
937.36	227.43
937.66	227.43
937.96	227.42
938.26	227.39
938.56	227.38
938.86	227.40
939.16	227.43
939.46	227.44
939.76	227.45
940.06	227.45
940.35	227.42
940.65	227.37
940.95	227.38
941.25	227.36
941.55	227.34
941.85	227.33
942.15	227.36
942.45	227.40
942.75	227.40
943.04	227.40
943.34	227.43
943.64	227.42
943.94	227.41
944.24	227.40
944.54	227.42
944.84	227.42
945.13	227.40
945.43	227.37
945.73	227.37
946.03	227.36
946.33	227.35
946.62	227.34
946.92	227.33
947.22	227.34
947.52	227.35
947.82	227.36
948.11	227.36
948.41	227.33
948.71	227.29
949.01	227.30
949.31	227.30
949.60	227.28
949.90	227.29
950.20	227.29
950.50	227.29
950.79	227.28
951.09	227.29
951.39	227.29
951.69	227.28
951.98	227.30
952.28	227.31
952.58	227.30
952.87	227.31
953.17	227.33
953.47	227.32
953.76	227.32
954.06	227.30
954.36	227.28
954.66	227.29
954.95	227.32
955.25	227.33
955.55	227.33
955.84	227.32
956.14	227.33
956.44	227.33
956.73	227.31
957.03	227.32
957.32	227.32
957.62	227.32
957.92	227.35
958.21	227.33
958.51	227.47
958.81	227.48
959.10	227.49
959.40	227.51
959.69	227.51
959.99	227.53
960.29	227.53
960.58	227.52
960.88	227.57
961.17	227.55
961.47	227.56
961.76	227.55
962.06	227.57
962.36	227.55
962.65	227.57
962.95	227.58
963.24	227.57
963.54	227.57
963.83	227.57
964.13	227.55
964.42	227.53
964.72	227.43
965.01	227.44
965.31	227.42
965.60	227.40
965.90	227.47
966.19	227.44
966.49	227.44
966.78	227.45
967.08	227.43
967.37	227.44
967.67	227.42
967.96	227.44
968.26	227.43
968.55	227.45
968.85	227.45
969.14	227.45
969.43	227.45
969.73	227.43
970.02	227.43
970.32	227.43
970.61	227.41
970.91	227.38
971.20	227.36
971.49	227.36
971.79	227.36
972.08	227.28
972.38	227.29
972.67	227.28
972.96	227.29
973.26	227.26
973.55	227.30
973.85	227.29
974.14	227.27
974.43	227.28
974.73	227.25
975.02	227.24
975.31	227.24
975.61	227.23
975.90	227.21
976.19	227.21
976.49	227.21
976.78	227.20
977.07	227.21
977.37	227.23
977.66	227.23
977.95	227.22
978.24	227.23
978.54	227.25
978.83	227.24
979.12	227.23
979.42	227.23
979.71	227.20
980.00	227.20
980.29	227.20
980.59	227.17
980.88	227.20
981.17	227.20
981.46	227.19
981.76	227.20
982.05	227.24
982.34	227.24
982.63	227.25
982.93	227.25
983.22	227.28
983.51	227.28
983.80	227.30
984.09	227.31
984.39	227.30
984.68	227.29
984.97	227.30
985.26	227.29
985.55	227.30
985.85	227.28
986.14	227.30
986.43	227.31
986.72	227.31
987.01	227.28
987.30	227.27
987.59	227.25
987.89	227.25
988.18	227.21
988.47	227.20
988.76	227.19
989.05	227.19
989.34	227.16
989.63	227.20
989.92	227.17
990.22	227.15
990.51	227.15
990.80	227.14
991.09	227.14
991.38	227.17
991.67	227.16
991.96	227.15
992.25	227.15
992.54	227.12
992.83	227.13
993.12	227.13
993.41	227.16
993.70	227.22
993.99	227.25
994.28	227.28
994.58	227.30
994.87	227.28
995.16	227.27
995.45	227.27
995.74	227.22
996.03	227.24
996.32	227.26
996.61	227.29
996.90	227.29
997.19	227.29
997.48	227.29
997.77	227.28
998.06	227.28
998.34	227.27
998.63	227.27
998.92	227.27
999.21	227.29
999.50	227.28
999.79	227.25
1000.08	227.25
1000.37	227.25
1000.66	227.23
1000.95	227.27
1001.24	227.27
1001.53	227.29
1001.82	227.28
1002.11	227.25
1002.40	227.26
1002.68	227.29
1002.97	227.38
1003.26	227.37
1003.55	227.36
1003.84	227.37
1004.13	227.41
1004.42	227.41
1004.71	227.41
1004.99	227.40
1005.28	227.43
1005.57	227.42
1005.86	227.40
1006.15	227.38
1006.44	227.36
1006.72	227.38
1007.01	227.36
1007.30	227.37
1007.59	227.35
1007.88	227.36
1008.17	227.36
1008.45	227.34
1008.74	227.28
1009.03	227.22
1009.32	227.21
1009.60	227.21
1009.89	227.20
1010.18	227.16
1010.47	227.16
1010.76	227.17
1011.04	227.17
1011.33	227.16
1011.62	227.17
1011.91	227.18
1012.19	227.18
1012.48	227.20
1012.77	227.20
1013.05	227.24
1013.34	227.24
1013.63	227.23
1013.92	227.25
1014.20	227.24
1014.49	227.24
1014.78	227.25
1015.06	227.21
1015.35	227.22
1015.64	227.22
1015.92	227.24
1016.21	227.25
1016.50	227.25
1016.78	227.26
1017.07	227.27
1017.36	227.25
1017.64	227.23
1017.93	227.24
1018.22	227.23
1018.50	227.22
1018.79	227.21
1019.08	227.16
1019.36	227.16
1019.65	227.15
1019.93	227.18
1020.22	227.21
1020.51	227.27
1020.79	227.25
1021.08	227.06
1021.36	227.05
1021.65	227.23
1021.94	226.99
1022.22	227.24
1022.51	226.94
1022.79	227.84
1023.08	227.44
1023.36	228.71
1023.65	226.77
>>>>>End Processed Spectral Data<<<<<
