SpectraSuite Data File
++++++++++++++++++++++++++++++++++++
Date: Sun Oct 04 01:23:06 EDT 2015
User: lab3
Dark Spectrum Present: No
Reference Spectrum Present: No
Number of Sampled Component Spectra: 1
Spectrometers: USB2E7196
Integration Time (usec): 46000 (USB2E7196)
Spectra Averaged: 24000 (USB2E7196)
Boxcar Smoothing: 10 (USB2E7196)
Correct for Electrical Dark: No (USB2E7196)
Strobe/Lamp Enabled: No (USB2E7196)
Correct for Detector Non-linearity: No (USB2E7196)
Correct for Stray Light: No (USB2E7196)
Number of Pixels in Processed Spectrum: 2048
>>>>>Begin Processed Spectral Data<<<<<
339.09	0.00
339.48	213.02
339.86	214.49
340.24	215.87
340.63	217.28
341.01	220.62
341.39	220.00
341.78	221.41
342.16	222.58
342.54	223.02
342.93	211.53
343.31	222.21
343.69	222.75
344.07	223.21
344.46	223.65
344.84	224.04
345.22	224.26
345.60	224.52
345.99	224.72
346.37	224.86
346.75	224.97
347.13	225.05
347.52	225.12
347.90	225.21
348.28	225.25
348.66	225.31
349.05	225.31
349.43	225.36
349.81	225.43
350.19	225.48
350.57	225.55
350.96	225.64
351.34	225.73
351.72	225.83
352.10	225.94
352.48	226.01
352.87	226.06
353.25	226.13
353.63	226.19
354.01	226.25
354.39	226.32
354.77	226.40
355.15	226.51
355.54	226.55
355.92	226.58
356.30	226.66
356.68	226.81
357.06	226.88
357.44	226.93
357.82	226.99
358.20	227.10
358.58	227.16
358.97	227.22
359.35	227.31
359.73	227.39
360.11	227.44
360.49	227.50
360.87	227.55
361.25	227.62
361.63	227.71
362.01	227.76
362.39	227.79
362.77	227.84
363.15	227.86
363.53	227.90
363.91	227.94
364.29	227.96
364.67	227.86
365.05	227.88
365.43	227.92
365.81	227.95
366.19	227.97
366.57	228.03
366.95	228.03
367.33	228.01
367.71	228.00
368.09	228.02
368.47	228.01
368.85	228.00
369.23	228.01
369.61	227.95
369.99	227.97
370.37	227.97
370.75	228.05
371.13	228.02
371.51	227.97
371.89	227.95
372.27	227.93
372.65	227.91
373.03	227.87
373.41	227.83
373.78	227.78
374.16	227.67
374.54	227.59
374.92	227.53
375.30	227.49
375.68	227.43
376.06	227.38
376.44	227.33
376.82	227.29
377.19	227.24
377.57	227.19
377.95	227.09
378.33	227.03
378.71	226.87
379.09	226.82
379.47	226.79
379.84	226.73
380.22	226.66
380.60	226.59
380.98	226.55
381.36	226.50
381.73	226.43
382.11	226.41
382.49	226.37
382.87	226.31
383.25	226.27
383.62	226.38
384.00	226.31
384.38	226.27
384.76	226.26
385.13	226.25
385.51	226.22
385.89	226.17
386.27	226.14
386.64	226.12
387.02	226.08
387.40	226.03
387.78	226.01
388.15	225.98
388.53	225.95
388.91	225.92
389.29	225.89
389.66	225.89
390.04	225.84
390.42	225.84
390.79	225.83
391.17	225.81
391.55	225.66
391.92	225.65
392.30	225.65
392.68	225.61
393.05	225.59
393.43	225.59
393.81	225.60
394.18	225.58
394.56	225.58
394.94	225.62
395.31	225.62
395.69	225.66
396.06	225.70
396.44	225.72
396.82	225.74
397.19	225.83
397.57	225.84
397.95	225.89
398.32	225.89
398.70	225.94
399.07	226.01
399.45	226.05
399.82	226.10
400.20	226.14
400.58	226.20
400.95	226.22
401.33	226.31
401.70	226.47
402.08	226.57
402.45	226.67
402.83	226.79
403.20	226.91
403.58	227.01
403.95	227.16
404.33	227.32
404.71	227.47
405.08	227.69
405.46	227.87
405.83	228.07
406.21	228.28
406.58	228.52
406.96	228.75
407.33	229.02
407.70	229.32
408.08	229.73
408.45	230.09
408.83	230.47
409.20	230.83
409.58	231.15
409.95	231.59
410.33	232.06
410.70	232.51
411.08	233.04
411.45	233.60
411.82	234.16
412.20	234.81
412.57	235.58
412.95	236.18
413.32	236.97
413.69	237.78
414.07	238.64
414.44	239.58
414.82	240.53
415.19	241.64
415.56	242.77
415.94	243.94
416.31	245.26
416.68	246.57
417.06	248.10
417.43	249.53
417.81	251.18
418.18	252.86
418.55	254.69
418.93	256.59
419.30	258.58
419.67	260.70
420.04	262.87
420.42	265.12
420.79	267.74
421.16	270.37
421.54	273.05
421.91	275.85
422.28	278.76
422.66	281.90
423.03	284.89
423.40	288.02
423.77	291.39
424.15	294.84
424.52	298.42
424.89	302.31
425.26	306.18
425.64	309.77
426.01	313.81
426.38	317.94
426.75	322.19
427.13	326.55
427.50	331.12
427.87	335.87
428.24	340.66
428.61	345.27
428.99	350.26
429.36	355.73
429.73	360.96
430.10	366.19
430.47	371.54
430.85	377.05
431.22	382.96
431.59	389.02
431.96	394.94
432.33	401.52
432.70	407.78
433.08	415.16
433.45	422.15
433.82	429.04
434.19	436.72
434.56	444.30
434.93	451.64
435.30	458.88
435.68	467.07
436.05	475.09
436.42	483.09
436.79	490.38
437.16	498.25
437.53	506.69
437.90	515.14
438.27	523.39
438.64	532.34
439.01	540.42
439.38	547.83
439.75	554.96
440.13	563.00
440.50	570.65
440.87	576.72
441.24	583.37
441.61	590.60
441.98	595.88
442.35	602.14
442.72	608.52
443.09	614.61
443.46	618.45
443.83	621.26
444.20	623.59
444.57	627.09
444.94	629.05
445.31	631.07
445.68	632.77
446.05	634.01
446.42	633.55
446.79	632.88
447.16	632.28
447.53	631.73
447.90	629.09
448.27	626.55
448.64	622.74
449.01	620.05
449.37	614.80
449.74	610.05
450.11	603.93
450.48	597.25
450.85	590.57
451.22	584.87
451.59	579.31
451.96	574.28
452.33	566.97
452.70	560.50
453.07	552.61
453.43	544.75
453.80	537.12
454.17	529.81
454.54	523.11
454.91	515.51
455.28	508.40
455.65	501.70
456.02	494.61
456.38	488.93
456.75	481.62
457.12	475.74
457.49	469.80
457.86	464.23
458.23	459.35
458.59	453.92
458.96	448.35
459.33	443.46
459.70	438.47
460.07	434.69
460.43	430.24
460.80	426.09
461.17	422.49
461.54	418.56
461.91	414.89
462.27	411.15
462.64	408.17
463.01	404.70
463.38	401.22
463.74	398.09
464.11	395.32
464.48	392.82
464.85	390.09
465.21	388.04
465.58	385.74
465.95	383.08
466.32	380.99
466.68	378.93
467.05	376.86
467.42	374.83
467.78	372.63
468.15	370.60
468.52	369.13
468.88	367.14
469.25	365.31
469.62	363.87
469.98	362.28
470.35	360.87
470.72	359.58
471.08	358.27
471.45	357.17
471.82	355.94
472.18	354.64
472.55	353.79
472.92	352.72
473.28	351.88
473.65	350.98
474.02	350.12
474.38	349.39
474.75	348.94
475.11	348.33
475.48	348.02
475.85	347.70
476.21	347.50
476.58	347.36
476.94	347.46
477.31	347.49
477.67	347.55
478.04	347.72
478.41	347.99
478.77	348.39
479.14	348.64
479.50	349.15
479.87	349.82
480.23	350.49
480.60	351.15
480.96	351.82
481.33	352.83
481.69	353.83
482.06	354.83
482.42	355.74
482.79	356.89
483.15	358.23
483.52	359.75
483.88	361.20
484.25	362.77
484.61	364.39
484.98	366.15
485.34	368.13
485.71	370.21
486.07	372.43
486.44	374.65
486.80	377.13
487.17	379.71
487.53	382.52
487.90	385.47
488.26	388.68
488.62	392.07
488.99	395.46
489.35	399.03
489.72	402.91
490.08	406.99
490.44	411.21
490.81	415.59
491.17	420.07
491.54	424.89
491.90	429.85
492.26	435.17
492.63	440.74
492.99	446.55
493.36	452.58
493.72	458.91
494.08	465.40
494.45	472.28
494.81	479.43
495.17	486.78
495.54	494.54
495.90	502.61
496.26	510.87
496.63	519.37
496.99	528.20
497.35	537.43
497.72	546.97
498.08	556.71
498.44	566.78
498.80	577.47
499.17	588.41
499.53	599.72
499.89	611.38
500.26	623.29
500.62	635.50
500.98	648.37
501.34	661.41
501.71	674.99
502.07	688.76
502.43	703.08
502.79	717.65
503.16	732.68
503.52	747.88
503.88	763.55
504.24	779.70
504.60	796.04
504.97	812.88
505.33	830.16
505.69	848.37
506.05	866.93
506.41	885.47
506.78	904.17
507.14	923.37
507.50	943.02
507.86	963.02
508.22	983.28
508.59	1003.32
508.95	1024.17
509.31	1045.74
509.67	1068.10
510.03	1090.49
510.39	1112.89
510.75	1135.43
511.12	1158.28
511.48	1181.29
511.84	1204.29
512.20	1227.70
512.56	1252.06
512.92	1276.46
513.28	1300.38
513.64	1324.55
514.00	1349.19
514.37	1374.20
514.73	1399.11
515.09	1423.88
515.45	1448.97
515.81	1474.27
516.17	1499.61
516.53	1524.56
516.89	1549.36
517.25	1574.30
517.61	1599.04
517.97	1624.23
518.33	1648.96
518.69	1673.65
519.05	1698.74
519.41	1724.12
519.77	1749.79
520.13	1774.59
520.49	1799.33
520.85	1824.41
521.21	1849.15
521.57	1874.20
521.93	1898.61
522.29	1923.65
522.65	1948.06
523.01	1972.44
523.37	1996.38
523.73	2021.14
524.09	2045.44
524.45	2069.55
524.81	2093.29
525.17	2116.91
525.53	2139.91
525.89	2163.38
526.25	2186.88
526.61	2209.35
526.97	2231.94
527.33	2254.40
527.68	2276.69
528.04	2298.07
528.40	2318.52
528.76	2339.03
529.12	2359.06
529.48	2378.93
529.84	2396.76
530.20	2415.35
530.56	2433.29
530.91	2451.37
531.27	2469.07
531.63	2485.91
531.99	2502.29
532.35	2517.87
532.71	2533.68
533.07	2550.10
533.42	2564.68
533.78	2580.14
534.14	2595.98
534.50	2610.84
534.86	2625.42
535.21	2637.86
535.57	2650.94
535.93	2663.85
536.29	2675.65
536.65	2687.17
537.00	2697.80
537.36	2709.56
537.72	2720.00
538.08	2729.79
538.44	2738.81
538.79	2747.43
539.15	2755.34
539.51	2762.93
539.87	2769.92
540.22	2774.73
540.58	2779.69
540.94	2785.77
541.29	2790.40
541.65	2793.15
542.01	2795.14
542.37	2796.42
542.72	2799.19
543.08	2800.15
543.44	2801.66
543.79	2802.16
544.15	2801.84
544.51	2801.96
544.87	2800.93
545.22	2799.02
545.58	2796.45
545.94	2793.87
546.29	2790.03
546.65	2786.16
547.01	2782.15
547.36	2778.92
547.72	2776.02
548.07	2771.23
548.43	2765.05
548.79	2757.73
549.14	2751.69
549.50	2746.07
549.86	2739.44
550.21	2731.62
550.57	2724.83
550.92	2715.65
551.28	2706.92
551.64	2698.68
551.99	2690.07
552.35	2680.80
552.70	2671.83
553.06	2663.21
553.41	2654.02
553.77	2644.63
554.13	2635.19
554.48	2624.85
554.84	2613.18
555.19	2601.82
555.55	2590.67
555.90	2579.64
556.26	2569.26
556.61	2557.68
556.97	2544.41
557.32	2531.57
557.68	2518.85
558.03	2505.76
558.39	2494.05
558.74	2482.71
559.10	2469.56
559.45	2456.51
559.81	2444.09
560.16	2431.01
560.52	2418.33
560.87	2406.04
561.23	2392.93
561.58	2379.74
561.94	2366.34
562.29	2352.37
562.64	2339.18
563.00	2325.71
563.35	2312.51
563.71	2299.16
564.06	2285.79
564.42	2273.20
564.77	2260.17
565.12	2246.95
565.48	2233.69
565.83	2220.28
566.19	2207.06
566.54	2193.79
566.89	2179.43
567.25	2165.20
567.60	2152.47
567.96	2138.75
568.31	2123.58
568.66	2109.03
569.02	2095.79
569.37	2082.55
569.72	2069.83
570.08	2055.84
570.43	2041.42
570.78	2026.96
571.14	2011.77
571.49	1997.15
571.84	1983.11
572.20	1967.89
572.55	1952.81
572.90	1937.74
573.26	1922.81
573.61	1907.33
573.96	1892.26
574.31	1877.48
574.67	1862.81
575.02	1846.95
575.37	1831.24
575.72	1816.44
576.08	1801.95
576.43	1786.36
576.78	1771.16
577.13	1756.21
577.49	1741.62
577.84	1727.68
578.19	1712.80
578.54	1698.01
578.90	1682.77
579.25	1667.42
579.60	1653.68
579.95	1639.90
580.30	1625.88
580.66	1611.56
581.01	1597.21
581.36	1582.86
581.71	1569.44
582.06	1555.97
582.42	1542.72
582.77	1529.55
583.12	1516.37
583.47	1503.10
583.82	1489.92
584.17	1476.36
584.53	1462.54
584.88	1449.05
585.23	1435.23
585.58	1422.14
585.93	1409.23
586.28	1397.09
586.63	1384.87
586.98	1372.24
587.34	1359.66
587.69	1346.82
588.04	1334.30
588.39	1322.13
588.74	1310.11
589.09	1297.92
589.44	1285.27
589.79	1273.28
590.14	1261.37
590.49	1249.33
590.84	1237.47
591.19	1226.01
591.54	1214.36
591.89	1202.82
592.25	1191.54
592.60	1179.83
592.95	1168.56
593.30	1157.61
593.65	1146.34
594.00	1135.22
594.35	1124.65
594.70	1113.61
595.05	1103.42
595.40	1093.13
595.75	1082.68
596.10	1072.76
596.45	1062.62
596.80	1052.84
597.15	1042.76
597.50	1032.85
597.85	1023.39
598.19	1013.74
598.54	1004.11
598.89	995.02
599.24	986.20
599.59	977.14
599.94	968.98
600.29	960.66
600.64	952.05
600.99	943.10
601.34	934.46
601.69	925.49
602.04	917.24
602.39	908.79
602.74	900.44
603.08	892.03
603.43	883.59
603.78	875.30
604.13	867.14
604.48	859.04
604.83	851.08
605.18	843.08
605.53	835.25
605.87	827.29
606.22	819.53
606.57	811.76
606.92	803.93
607.27	796.03
607.62	788.41
607.96	781.17
608.31	774.39
608.66	767.41
609.01	760.71
609.36	754.10
609.70	747.34
610.05	740.52
610.40	733.99
610.75	727.43
611.10	721.22
611.44	714.86
611.79	708.61
612.14	702.27
612.49	695.99
612.83	690.01
613.18	684.15
613.53	678.24
613.88	672.32
614.22	666.78
614.57	661.21
614.92	655.52
615.27	649.91
615.61	644.36
615.96	638.89
616.31	633.42
616.65	627.98
617.00	622.75
617.35	617.64
617.70	612.54
618.04	607.54
618.39	602.43
618.74	597.56
619.08	592.72
619.43	588.03
619.78	583.33
620.12	578.62
620.47	574.03
620.82	569.56
621.16	565.17
621.51	560.67
621.85	556.20
622.20	551.88
622.55	547.63
622.89	543.44
623.24	539.26
623.59	535.09
623.93	531.10
624.28	527.22
624.62	523.42
624.97	519.67
625.32	515.86
625.66	512.03
626.01	508.17
626.35	504.37
626.70	500.61
627.04	497.05
627.39	493.40
627.73	489.94
628.08	486.56
628.43	483.16
628.77	479.84
629.12	476.64
629.46	473.50
629.81	470.23
630.15	466.94
630.50	463.77
630.84	460.66
631.19	457.59
631.53	454.62
631.88	451.61
632.22	448.63
632.57	445.93
632.91	443.25
633.26	440.67
633.60	438.12
633.95	435.61
634.29	433.02
634.64	430.50
634.98	427.81
635.32	425.24
635.67	422.86
636.01	420.43
636.36	418.02
636.70	415.74
637.05	413.47
637.39	411.26
637.73	409.05
638.08	406.96
638.42	404.86
638.77	402.62
639.11	400.33
639.45	398.13
639.80	395.87
640.14	393.71
640.49	391.54
640.83	389.35
641.17	387.26
641.52	385.22
641.86	383.20
642.20	381.37
642.55	379.40
642.89	377.45
643.23	375.60
643.58	373.90
643.92	372.09
644.26	370.33
644.61	368.62
644.95	366.88
645.29	365.07
645.64	363.27
645.98	361.59
646.32	360.00
646.66	358.41
647.01	356.84
647.35	355.32
647.69	353.78
648.04	352.36
648.38	350.87
648.72	349.39
649.06	347.93
649.41	346.46
649.75	345.05
650.09	343.68
650.43	342.30
650.78	340.88
651.12	339.50
651.46	338.17
651.80	336.87
652.14	335.60
652.49	334.37
652.83	333.11
653.17	331.90
653.51	330.72
653.85	329.60
654.20	328.44
654.54	327.19
654.88	326.04
655.22	324.93
655.56	323.81
655.90	322.75
656.25	321.72
656.59	320.68
656.93	319.69
657.27	318.72
657.61	317.70
657.95	316.72
658.29	315.74
658.64	314.81
658.98	313.86
659.32	312.96
659.66	312.10
660.00	311.27
660.34	310.43
660.68	309.57
661.02	308.68
661.36	307.83
661.70	307.02
662.05	306.23
662.39	305.45
662.73	304.73
663.07	304.03
663.41	303.28
663.75	302.53
664.09	301.79
664.43	301.01
664.77	300.32
665.11	299.57
665.45	298.90
665.79	298.23
666.13	297.54
666.47	296.83
666.81	296.10
667.15	295.36
667.49	294.71
667.83	294.12
668.17	293.50
668.51	292.92
668.85	292.38
669.19	291.86
669.53	291.25
669.87	290.63
670.21	290.03
670.55	289.48
670.89	289.00
671.23	288.47
671.57	287.96
671.91	287.49
672.25	287.05
672.58	286.61
672.92	286.09
673.26	285.64
673.60	285.20
673.94	284.78
674.28	284.40
674.62	283.97
674.96	283.49
675.30	283.07
675.64	282.63
675.97	282.16
676.31	281.67
676.65	281.23
676.99	280.87
677.33	280.42
677.67	280.01
678.01	279.53
678.34	279.13
678.68	278.76
679.02	278.31
679.36	277.89
679.70	277.46
680.04	277.08
680.37	276.69
680.71	276.32
681.05	275.96
681.39	275.56
681.73	275.14
682.06	274.75
682.40	274.37
682.74	274.05
683.08	273.76
683.42	273.42
683.75	273.10
684.09	272.71
684.43	272.39
684.77	272.05
685.10	271.76
685.44	271.43
685.78	271.10
686.12	270.81
686.45	270.48
686.79	270.15
687.13	269.85
687.46	269.51
687.80	269.20
688.14	268.83
688.48	268.53
688.81	268.23
689.15	267.95
689.49	267.63
689.82	267.30
690.16	266.92
690.50	266.62
690.83	266.30
691.17	265.99
691.51	265.68
691.84	265.39
692.18	265.07
692.52	264.74
692.85	264.43
693.19	264.16
693.52	263.86
693.86	263.57
694.20	263.27
694.53	263.00
694.87	262.69
695.21	262.40
695.54	262.10
695.88	261.80
696.21	261.48
696.55	261.20
696.88	260.91
697.22	260.64
697.56	260.35
697.89	260.03
698.23	259.76
698.56	259.45
698.90	259.18
699.23	258.88
699.57	258.60
699.90	258.30
700.24	257.99
700.58	257.74
700.91	257.51
701.25	257.35
701.58	257.14
701.92	256.92
702.25	256.67
702.59	256.40
702.92	256.15
703.26	255.90
703.59	255.62
703.93	255.47
704.26	255.22
704.60	254.96
704.93	254.70
705.26	254.43
705.60	254.22
705.93	253.95
706.27	253.74
706.60	253.54
706.94	253.35
707.27	253.08
707.61	252.82
707.94	252.55
708.27	252.18
708.61	251.88
708.94	251.61
709.28	251.36
709.61	251.12
709.94	250.90
710.28	250.69
710.61	250.49
710.95	250.16
711.28	250.02
711.61	249.80
711.95	249.63
712.28	249.40
712.61	249.16
712.95	249.02
713.28	248.86
713.61	248.62
713.95	248.36
714.28	248.16
714.61	247.95
714.95	247.74
715.28	247.54
715.61	247.35
715.95	247.17
716.28	246.97
716.61	246.81
716.95	246.60
717.28	246.41
717.61	246.20
717.94	246.01
718.28	245.73
718.61	245.53
718.94	245.31
719.27	245.13
719.61	244.97
719.94	244.75
720.27	244.48
720.60	244.30
720.94	244.12
721.27	243.95
721.60	243.79
721.93	243.61
722.27	243.49
722.60	243.33
722.93	243.14
723.26	242.97
723.59	242.76
723.93	242.61
724.26	242.44
724.59	242.27
724.92	242.12
725.25	242.00
725.59	241.85
725.92	241.72
726.25	241.57
726.58	241.42
726.91	241.26
727.24	241.13
727.57	240.98
727.91	240.82
728.24	240.70
728.57	240.54
728.90	240.42
729.23	240.22
729.56	240.13
729.89	239.99
730.22	239.84
730.55	239.70
730.89	239.56
731.22	239.41
731.55	239.28
731.88	239.14
732.21	238.97
732.54	238.83
732.87	238.70
733.20	238.57
733.53	238.45
733.86	238.33
734.19	238.18
734.52	238.08
734.85	238.04
735.18	237.89
735.51	237.80
735.84	237.68
736.17	237.60
736.50	237.41
736.83	237.45
737.16	237.34
737.49	237.23
737.82	237.11
738.15	237.02
738.48	236.91
738.81	236.80
739.14	236.68
739.47	236.56
739.80	236.44
740.13	236.34
740.46	236.21
740.79	236.08
741.12	235.97
741.45	235.84
741.78	235.66
742.11	235.59
742.44	235.46
742.77	235.37
743.10	235.24
743.43	235.14
743.75	234.90
744.08	235.00
744.41	234.89
744.74	234.79
745.07	234.67
745.40	234.59
745.73	234.55
746.06	234.47
746.39	234.40
746.71	234.30
747.04	234.20
747.37	234.11
747.70	234.05
748.03	233.97
748.36	233.91
748.68	233.82
749.01	233.70
749.34	233.61
749.67	233.53
750.00	233.47
750.33	233.48
750.65	233.41
750.98	233.13
751.31	233.06
751.64	232.99
751.97	232.98
752.29	232.89
752.62	232.75
752.95	232.66
753.28	232.56
753.60	232.48
753.93	232.44
754.26	232.37
754.59	232.25
754.91	232.16
755.24	232.07
755.57	232.05
755.90	231.98
756.22	231.89
756.55	231.80
756.88	231.69
757.20	231.53
757.53	231.43
757.86	231.35
758.19	231.29
758.51	231.22
758.84	231.08
759.17	231.00
759.49	230.94
759.82	230.94
760.15	230.89
760.47	230.82
760.80	230.73
761.13	230.68
761.45	230.62
761.78	230.57
762.11	230.52
762.43	230.39
762.76	230.33
763.08	230.30
763.41	230.25
763.74	230.20
764.06	230.15
764.39	230.10
764.71	230.05
765.04	229.98
765.37	229.92
765.69	229.87
766.02	229.82
766.34	229.76
766.67	229.66
767.00	229.63
767.32	229.66
767.65	229.69
767.97	229.63
768.30	229.59
768.62	229.54
768.95	229.48
769.27	229.43
769.60	229.40
769.92	229.33
770.25	229.27
770.57	229.20
770.90	229.16
771.22	229.11
771.55	229.07
771.87	229.04
772.20	228.99
772.52	229.06
772.85	229.18
773.17	229.14
773.50	229.10
773.82	229.04
774.15	228.93
774.47	228.81
774.80	228.76
775.12	228.72
775.45	228.69
775.77	228.66
776.09	228.64
776.42	228.61
776.74	228.62
777.07	228.59
777.39	228.57
777.72	228.53
778.04	228.52
778.36	228.47
778.69	228.45
779.01	228.43
779.33	228.29
779.66	228.11
779.98	228.08
780.31	228.06
780.63	228.09
780.95	228.08
781.28	228.06
781.60	228.03
781.92	228.00
782.25	227.98
782.57	227.95
782.89	227.92
783.22	227.88
783.54	227.83
783.86	227.81
784.19	227.78
784.51	227.80
784.83	227.76
785.16	227.73
785.48	227.71
785.80	227.69
786.12	227.68
786.45	227.65
786.77	227.64
787.09	227.61
787.42	227.54
787.74	227.52
788.06	227.50
788.38	227.48
788.71	227.45
789.03	227.44
789.35	227.43
789.67	227.40
789.99	227.39
790.32	227.36
790.64	227.35
790.96	227.45
791.28	227.39
791.61	227.37
791.93	227.35
792.25	227.33
792.57	227.40
792.89	227.36
793.21	227.35
793.54	227.32
793.86	227.29
794.18	227.28
794.50	227.24
794.82	227.22
795.14	227.22
795.47	227.22
795.79	227.21
796.11	227.16
796.43	227.14
796.75	227.13
797.07	227.12
797.39	227.10
797.71	226.98
798.04	226.97
798.36	226.96
798.68	226.94
799.00	226.94
799.32	226.86
799.64	226.86
799.96	226.85
800.28	226.86
800.60	226.84
800.92	226.83
801.24	226.81
801.56	226.81
801.89	226.78
802.21	226.77
802.53	226.74
802.85	226.75
803.17	226.80
803.49	226.76
803.81	226.74
804.13	226.72
804.45	226.69
804.77	226.68
805.09	226.67
805.41	226.65
805.73	226.61
806.05	226.56
806.37	226.54
806.69	226.52
807.01	226.49
807.33	226.49
807.65	226.43
807.97	226.48
808.28	226.45
808.60	226.44
808.92	226.41
809.24	226.47
809.56	226.44
809.88	226.38
810.20	226.38
810.52	226.39
810.84	226.37
811.16	226.34
811.48	226.32
811.80	226.36
812.12	226.34
812.43	226.36
812.75	226.36
813.07	226.34
813.39	226.34
813.71	226.31
814.03	226.29
814.35	226.29
814.67	226.22
814.98	226.20
815.30	226.19
815.62	226.16
815.94	226.07
816.26	226.08
816.58	226.05
816.89	226.05
817.21	226.01
817.53	226.01
817.85	226.01
818.17	226.00
818.48	225.94
818.80	225.96
819.12	225.92
819.44	225.90
819.76	225.88
820.07	225.87
820.39	225.86
820.71	225.86
821.03	225.86
821.34	225.84
821.66	225.85
821.98	225.86
822.30	225.85
822.61	225.92
822.93	225.89
823.25	225.88
823.57	225.86
823.88	225.88
824.20	225.86
824.52	225.88
824.83	225.87
825.15	225.85
825.47	225.83
825.79	225.85
826.10	225.83
826.42	225.83
826.74	225.83
827.05	225.82
827.37	225.82
827.69	225.81
828.00	225.81
828.32	225.80
828.64	225.78
828.95	225.84
829.27	225.80
829.58	225.80
829.90	225.81
830.22	225.82
830.53	225.79
830.85	225.78
831.17	225.74
831.48	225.73
831.80	225.73
832.11	225.72
832.43	225.70
832.75	225.69
833.06	225.77
833.38	225.73
833.69	225.72
834.01	225.72
834.32	225.71
834.64	225.70
834.96	225.69
835.27	225.68
835.59	225.63
835.90	225.61
836.22	225.60
836.53	225.58
836.85	225.56
837.16	225.68
837.48	225.68
837.79	225.72
838.11	225.72
838.42	225.72
838.74	225.73
839.05	225.72
839.37	225.71
839.68	225.63
840.00	225.62
840.31	225.64
840.63	225.62
840.94	225.60
841.26	225.59
841.57	225.58
841.88	225.59
842.20	225.57
842.51	225.55
842.83	225.54
843.14	225.66
843.46	225.65
843.77	225.58
844.08	225.57
844.40	225.53
844.71	225.52
845.03	225.50
845.34	225.49
845.65	225.48
845.97	225.48
846.28	225.49
846.60	225.50
846.91	225.47
847.22	225.46
847.54	225.49
847.85	225.50
848.16	225.48
848.48	225.45
848.79	225.50
849.10	225.52
849.42	225.52
849.73	225.40
850.04	225.40
850.36	225.35
850.67	225.37
850.98	225.37
851.30	225.38
851.61	225.37
851.92	225.37
852.23	225.40
852.55	225.41
852.86	225.41
853.17	225.41
853.49	225.44
853.80	225.47
854.11	225.47
854.42	225.49
854.74	225.47
855.05	225.48
855.36	225.41
855.67	225.41
855.99	225.41
856.30	225.56
856.61	225.56
856.92	225.56
857.23	225.56
857.55	225.54
857.86	225.53
858.17	225.56
858.48	225.53
858.79	225.50
859.11	225.51
859.42	225.50
859.73	225.48
860.04	225.47
860.35	225.43
860.66	225.39
860.98	225.38
861.29	225.39
861.60	225.38
861.91	225.41
862.22	225.39
862.53	225.37
862.84	225.22
863.16	225.24
863.47	225.21
863.78	225.20
864.09	225.21
864.40	225.21
864.71	225.21
865.02	225.23
865.33	225.21
865.64	225.19
865.95	225.19
866.27	225.26
866.58	225.25
866.89	225.27
867.20	225.26
867.51	225.24
867.82	225.23
868.13	225.27
868.44	225.24
868.75	225.26
869.06	225.27
869.37	225.28
869.68	225.25
869.99	225.27
870.30	225.28
870.61	225.29
870.92	225.27
871.23	225.25
871.54	225.27
871.85	225.30
872.16	225.31
872.47	225.30
872.78	225.23
873.09	225.24
873.40	225.22
873.71	225.23
874.02	225.24
874.33	225.23
874.64	225.20
874.95	225.23
875.26	225.20
875.56	225.20
875.87	225.19
876.18	225.18
876.49	225.31
876.80	225.30
877.11	225.27
877.42	225.28
877.73	225.28
878.04	225.26
878.35	225.25
878.66	225.25
878.96	225.25
879.27	225.25
879.58	225.24
879.89	225.24
880.20	225.27
880.51	225.26
880.82	225.26
881.12	225.27
881.43	225.24
881.74	225.23
882.05	225.22
882.36	225.23
882.67	225.23
882.97	225.10
883.28	225.09
883.59	225.09
883.90	225.10
884.21	225.12
884.51	225.11
884.82	225.09
885.13	225.08
885.44	225.08
885.74	225.08
886.05	225.07
886.36	225.07
886.67	225.03
886.98	225.09
887.28	225.10
887.59	225.10
887.90	225.11
888.20	225.10
888.51	225.13
888.82	225.10
889.13	225.11
889.43	225.22
889.74	225.21
890.05	225.22
890.35	225.20
890.66	225.18
890.97	225.16
891.28	225.15
891.58	225.15
891.89	225.15
892.20	225.14
892.50	225.13
892.81	225.12
893.12	225.12
893.42	225.05
893.73	225.05
894.04	225.05
894.34	225.06
894.65	225.06
894.95	225.04
895.26	225.05
895.57	225.10
895.87	224.97
896.18	225.00
896.48	225.00
896.79	225.00
897.10	225.02
897.40	225.03
897.71	225.04
898.01	225.03
898.32	225.04
898.63	225.04
898.93	225.05
899.24	225.06
899.54	225.05
899.85	225.05
900.15	225.04
900.46	225.04
900.76	225.05
901.07	225.05
901.38	225.04
901.68	225.05
901.99	224.99
902.29	225.00
902.60	224.99
902.90	224.98
903.21	224.98
903.51	224.96
903.82	224.99
904.12	224.98
904.43	224.99
904.73	224.98
905.03	224.99
905.34	225.11
905.64	225.10
905.95	225.10
906.25	225.10
906.56	225.10
906.86	225.10
907.17	225.08
907.47	225.09
907.77	225.08
908.08	225.05
908.38	225.06
908.69	225.07
908.99	225.09
909.30	225.10
909.60	225.09
909.90	225.09
910.21	225.05
910.51	225.04
910.81	225.04
911.12	225.04
911.42	225.04
911.73	224.91
912.03	224.92
912.33	224.94
912.64	224.94
912.94	224.92
913.24	224.90
913.55	224.90
913.85	224.89
914.15	224.91
914.46	224.93
914.76	224.92
915.06	224.91
915.37	224.88
915.67	224.87
915.97	224.87
916.27	224.85
916.58	224.86
916.88	224.86
917.18	224.85
917.49	224.94
917.79	224.93
918.09	224.95
918.39	224.98
918.70	224.97
919.00	224.97
919.30	225.03
919.60	225.03
919.91	225.02
920.21	225.02
920.51	225.00
920.81	224.98
921.12	225.01
921.42	225.00
921.72	225.02
922.02	225.02
922.32	225.04
922.63	225.04
922.93	225.11
923.23	225.12
923.53	225.11
923.83	225.02
924.13	225.04
924.44	225.03
924.74	225.05
925.04	225.08
925.34	225.07
925.64	225.02
925.94	225.02
926.24	225.09
926.55	225.08
926.85	225.10
927.15	225.10
927.45	225.09
927.75	225.09
928.05	225.09
928.35	225.08
928.65	225.10
928.95	225.11
929.26	225.05
929.56	225.07
929.86	225.08
930.16	225.07
930.46	225.06
930.76	225.06
931.06	225.00
931.36	224.97
931.66	224.99
931.96	225.00
932.26	225.01
932.56	224.95
932.86	224.96
933.16	224.96
933.46	224.95
933.76	224.93
934.06	224.95
934.36	224.99
934.66	224.99
934.96	224.97
935.26	224.97
935.56	224.99
935.86	224.95
936.16	224.94
936.46	224.93
936.76	224.92
937.06	224.90
937.36	224.91
937.66	224.92
937.96	224.91
938.26	224.88
938.56	224.87
938.86	224.88
939.16	224.90
939.46	224.92
939.76	224.93
940.06	224.92
940.35	224.90
940.65	224.84
940.95	224.85
941.25	224.82
941.55	224.80
941.85	224.79
942.15	224.82
942.45	224.85
942.75	224.85
943.04	224.86
943.34	224.89
943.64	224.87
943.94	224.85
944.24	224.85
944.54	224.87
944.84	224.86
945.13	224.85
945.43	224.82
945.73	224.81
946.03	224.80
946.33	224.79
946.62	224.78
946.92	224.78
947.22	224.79
947.52	224.80
947.82	224.81
948.11	224.80
948.41	224.77
948.71	224.74
949.01	224.75
949.31	224.73
949.60	224.72
949.90	224.74
950.20	224.74
950.50	224.74
950.79	224.73
951.09	224.75
951.39	224.75
951.69	224.73
951.98	224.76
952.28	224.76
952.58	224.76
952.87	224.76
953.17	224.78
953.47	224.77
953.76	224.77
954.06	224.75
954.36	224.73
954.66	224.73
954.95	224.76
955.25	224.77
955.55	224.79
955.84	224.76
956.14	224.77
956.44	224.78
956.73	224.76
957.03	224.77
957.32	224.76
957.62	224.76
957.92	224.79
958.21	224.77
958.51	224.91
958.81	224.93
959.10	224.94
959.40	224.97
959.69	224.98
959.99	225.00
960.29	225.00
960.58	225.00
960.88	225.05
961.17	225.03
961.47	225.04
961.76	225.02
962.06	225.05
962.36	225.03
962.65	225.04
962.95	225.05
963.24	225.03
963.54	225.04
963.83	225.05
964.13	225.04
964.42	225.02
964.72	224.92
965.01	224.91
965.31	224.90
965.60	224.87
965.90	224.94
966.19	224.91
966.49	224.92
966.78	224.92
967.08	224.91
967.37	224.91
967.67	224.88
967.96	224.91
968.26	224.90
968.55	224.91
968.85	224.91
969.14	224.90
969.43	224.90
969.73	224.89
970.02	224.88
970.32	224.88
970.61	224.86
970.91	224.82
971.20	224.81
971.49	224.80
971.79	224.81
972.08	224.72
972.38	224.73
972.67	224.72
972.96	224.74
973.26	224.72
973.55	224.76
973.85	224.75
974.14	224.74
974.43	224.75
974.73	224.72
975.02	224.71
975.31	224.71
975.61	224.71
975.90	224.70
976.19	224.69
976.49	224.70
976.78	224.71
977.07	224.71
977.37	224.72
977.66	224.73
977.95	224.71
978.24	224.73
978.54	224.75
978.83	224.74
979.12	224.73
979.42	224.73
979.71	224.71
980.00	224.71
980.29	224.71
980.59	224.69
980.88	224.73
981.17	224.73
981.46	224.73
981.76	224.73
982.05	224.77
982.34	224.78
982.63	224.77
982.93	224.77
983.22	224.80
983.51	224.81
983.80	224.83
984.09	224.84
984.39	224.83
984.68	224.82
984.97	224.82
985.26	224.81
985.55	224.82
985.85	224.80
986.14	224.82
986.43	224.83
986.72	224.82
987.01	224.78
987.30	224.79
987.59	224.78
987.89	224.78
988.18	224.74
988.47	224.73
988.76	224.72
989.05	224.71
989.34	224.69
989.63	224.72
989.92	224.69
990.22	224.68
990.51	224.68
990.80	224.67
991.09	224.68
991.38	224.69
991.67	224.68
991.96	224.67
992.25	224.67
992.54	224.64
992.83	224.65
993.12	224.65
993.41	224.67
993.70	224.72
993.99	224.74
994.28	224.76
994.58	224.78
994.87	224.77
995.16	224.77
995.45	224.76
995.74	224.71
996.03	224.73
996.32	224.75
996.61	224.78
996.90	224.78
997.19	224.77
997.48	224.77
997.77	224.76
998.06	224.77
998.34	224.75
998.63	224.76
998.92	224.76
999.21	224.78
999.50	224.78
999.79	224.74
1000.08	224.73
1000.37	224.73
1000.66	224.71
1000.95	224.74
1001.24	224.75
1001.53	224.77
1001.82	224.77
1002.11	224.74
1002.40	224.75
1002.68	224.78
1002.97	224.87
1003.26	224.85
1003.55	224.84
1003.84	224.85
1004.13	224.89
1004.42	224.89
1004.71	224.89
1004.99	224.88
1005.28	224.90
1005.57	224.89
1005.86	224.88
1006.15	224.87
1006.44	224.85
1006.72	224.86
1007.01	224.84
1007.30	224.84
1007.59	224.82
1007.88	224.82
1008.17	224.83
1008.45	224.80
1008.74	224.75
1009.03	224.69
1009.32	224.69
1009.60	224.70
1009.89	224.69
1010.18	224.64
1010.47	224.63
1010.76	224.63
1011.04	224.63
1011.33	224.63
1011.62	224.64
1011.91	224.65
1012.19	224.66
1012.48	224.66
1012.77	224.66
1013.05	224.71
1013.34	224.70
1013.63	224.70
1013.92	224.71
1014.20	224.70
1014.49	224.70
1014.78	224.72
1015.06	224.68
1015.35	224.68
1015.64	224.70
1015.92	224.72
1016.21	224.73
1016.50	224.73
1016.78	224.74
1017.07	224.75
1017.36	224.73
1017.64	224.71
1017.93	224.72
1018.22	224.71
1018.50	224.70
1018.79	224.70
1019.08	224.65
1019.36	224.66
1019.65	224.65
1019.93	224.68
1020.22	224.70
1020.51	224.77
1020.79	224.76
1021.08	224.54
1021.36	224.49
1021.65	224.67
1021.94	224.62
1022.22	224.80
1022.51	224.45
1022.79	225.32
1023.08	224.85
1023.36	226.24
1023.65	224.41
>>>>>End Processed Spectral Data<<<<<
