SpectraSuite Data File
++++++++++++++++++++++++++++++++++++
Date: Sat Oct 03 00:06:19 EDT 2015
User: lab3
Dark Spectrum Present: No
Reference Spectrum Present: No
Number of Sampled Component Spectra: 1
Spectrometers: USB2E7196
Integration Time (usec): 46000 (USB2E7196)
Spectra Averaged: 12000 (USB2E7196)
Boxcar Smoothing: 10 (USB2E7196)
Correct for Electrical Dark: No (USB2E7196)
Strobe/Lamp Enabled: No (USB2E7196)
Correct for Detector Non-linearity: No (USB2E7196)
Correct for Stray Light: No (USB2E7196)
Number of Pixels in Processed Spectrum: 2048
>>>>>Begin Processed Spectral Data<<<<<
339.09	0.00
339.48	214.79
339.86	216.22
340.24	217.63
340.63	219.02
341.01	222.30
341.39	221.77
341.78	223.16
342.16	224.31
342.54	224.75
342.93	213.17
343.31	223.94
343.69	224.47
344.07	224.94
344.46	225.37
344.84	225.76
345.22	225.98
345.60	226.23
345.99	226.42
346.37	226.56
346.75	226.66
347.13	226.74
347.52	226.81
347.90	226.90
348.28	226.94
348.66	227.00
349.05	227.00
349.43	227.05
349.81	227.11
350.19	227.16
350.57	227.23
350.96	227.31
351.34	227.41
351.72	227.50
352.10	227.61
352.48	227.68
352.87	227.73
353.25	227.80
353.63	227.86
354.01	227.92
354.39	228.00
354.77	228.08
355.15	228.19
355.54	228.23
355.92	228.26
356.30	228.34
356.68	228.49
357.06	228.56
357.44	228.61
357.82	228.67
358.20	228.79
358.58	228.85
358.97	228.91
359.35	229.00
359.73	229.08
360.11	229.13
360.49	229.19
360.87	229.24
361.25	229.31
361.63	229.40
362.01	229.45
362.39	229.48
362.77	229.52
363.15	229.54
363.53	229.58
363.91	229.61
364.29	229.63
364.67	229.54
365.05	229.56
365.43	229.60
365.81	229.63
366.19	229.64
366.57	229.70
366.95	229.70
367.33	229.67
367.71	229.66
368.09	229.68
368.47	229.67
368.85	229.66
369.23	229.67
369.61	229.60
369.99	229.62
370.37	229.62
370.75	229.70
371.13	229.66
371.51	229.62
371.89	229.60
372.27	229.57
372.65	229.55
373.03	229.51
373.41	229.47
373.78	229.41
374.16	229.31
374.54	229.23
374.92	229.18
375.30	229.14
375.68	229.07
376.06	229.02
376.44	228.97
376.82	228.93
377.19	228.88
377.57	228.84
377.95	228.74
378.33	228.68
378.71	228.52
379.09	228.48
379.47	228.44
379.84	228.38
380.22	228.32
380.60	228.25
380.98	228.20
381.36	228.15
381.73	228.09
382.11	228.07
382.49	228.03
382.87	227.97
383.25	227.92
383.62	228.03
384.00	227.96
384.38	227.92
384.76	227.90
385.13	227.90
385.51	227.86
385.89	227.81
386.27	227.77
386.64	227.76
387.02	227.71
387.40	227.67
387.78	227.64
388.15	227.62
388.53	227.59
388.91	227.56
389.29	227.53
389.66	227.52
390.04	227.48
390.42	227.48
390.79	227.47
391.17	227.45
391.55	227.30
391.92	227.29
392.30	227.29
392.68	227.25
393.05	227.23
393.43	227.23
393.81	227.24
394.18	227.22
394.56	227.22
394.94	227.25
395.31	227.25
395.69	227.29
396.06	227.33
396.44	227.35
396.82	227.36
397.19	227.45
397.57	227.46
397.95	227.51
398.32	227.50
398.70	227.54
399.07	227.61
399.45	227.65
399.82	227.69
400.20	227.73
400.58	227.78
400.95	227.79
401.33	227.88
401.70	228.03
402.08	228.13
402.45	228.22
402.83	228.33
403.20	228.45
403.58	228.54
403.95	228.67
404.33	228.82
404.71	228.97
405.08	229.17
405.46	229.34
405.83	229.52
406.21	229.71
406.58	229.93
406.96	230.14
407.33	230.39
407.70	230.67
408.08	231.05
408.45	231.38
408.83	231.73
409.20	232.06
409.58	232.35
409.95	232.75
410.33	233.18
410.70	233.58
411.08	234.06
411.45	234.57
411.82	235.09
412.20	235.68
412.57	236.38
412.95	236.93
413.32	237.65
413.69	238.38
414.07	239.17
414.44	240.02
414.82	240.89
415.19	241.91
415.56	242.94
415.94	244.00
416.31	245.20
416.68	246.40
417.06	247.79
417.43	249.10
417.81	250.60
418.18	252.12
418.55	253.79
418.93	255.52
419.30	257.33
419.67	259.25
420.04	261.22
420.42	263.27
420.79	265.66
421.16	268.05
421.54	270.49
421.91	273.04
422.28	275.68
422.66	278.52
423.03	281.24
423.40	284.09
423.77	287.13
424.15	290.26
424.52	293.52
424.89	297.05
425.26	300.55
425.64	303.80
426.01	307.46
426.38	311.21
426.75	315.08
427.13	319.03
427.50	323.18
427.87	327.48
428.24	331.84
428.61	336.02
428.99	340.54
429.36	345.50
429.73	350.24
430.10	354.99
430.47	359.85
430.85	364.85
431.22	370.22
431.59	375.73
431.96	381.11
432.33	387.09
432.70	392.79
433.08	399.52
433.45	405.88
433.82	412.14
434.19	419.14
434.56	426.03
434.93	432.70
435.30	439.28
435.68	446.73
436.05	454.02
436.42	461.28
436.79	467.91
437.16	475.06
437.53	482.71
437.90	490.37
438.27	497.87
438.64	505.96
439.01	513.29
439.38	519.99
439.75	526.45
440.13	533.72
440.50	540.63
440.87	546.11
441.24	552.10
441.61	558.64
441.98	563.40
442.35	569.05
442.72	574.79
443.09	580.27
443.46	583.71
443.83	586.21
444.20	588.27
444.57	591.39
444.94	593.10
445.31	594.89
445.68	596.39
446.05	597.45
446.42	596.96
446.79	596.28
447.16	595.68
447.53	595.10
447.90	592.64
448.27	590.27
448.64	586.75
449.01	584.27
449.37	579.46
449.74	575.09
450.11	569.50
450.48	563.40
450.85	557.31
451.22	552.09
451.59	547.00
451.96	542.40
452.33	535.75
452.70	529.85
453.07	522.67
453.43	515.52
453.80	508.58
454.17	501.95
454.54	495.85
454.91	488.96
455.28	482.52
455.65	476.45
456.02	470.06
456.38	464.91
456.75	458.27
457.12	452.94
457.49	447.56
457.86	442.50
458.23	438.09
458.59	433.18
458.96	428.16
459.33	423.76
459.70	419.27
460.07	415.88
460.43	411.87
460.80	408.13
461.17	404.90
461.54	401.37
461.91	398.09
462.27	394.76
462.64	392.08
463.01	388.96
463.38	385.83
463.74	383.00
464.11	380.51
464.48	378.29
464.85	375.85
465.21	374.03
465.58	371.97
465.95	369.60
466.32	367.73
466.68	365.89
467.05	364.03
467.42	362.21
467.78	360.25
468.15	358.45
468.52	357.15
468.88	355.37
469.25	353.76
469.62	352.48
469.98	351.07
470.35	349.83
470.72	348.70
471.08	347.55
471.45	346.59
471.82	345.51
472.18	344.36
472.55	343.63
472.92	342.69
473.28	341.96
473.65	341.18
474.02	340.42
474.38	339.80
474.75	339.43
475.11	338.92
475.48	338.67
475.85	338.41
476.21	338.27
476.58	338.17
476.94	338.30
477.31	338.36
477.67	338.44
478.04	338.63
478.41	338.91
478.77	339.33
479.14	339.58
479.50	340.08
479.87	340.72
480.23	341.37
480.60	342.00
480.96	342.65
481.33	343.60
481.69	344.56
482.06	345.51
482.42	346.38
482.79	347.45
483.15	348.70
483.52	350.12
483.88	351.49
484.25	352.96
484.61	354.49
484.98	356.13
485.34	358.00
485.71	359.94
486.07	362.02
486.44	364.09
486.80	366.41
487.17	368.82
487.53	371.45
487.90	374.21
488.26	377.22
488.62	380.39
488.99	383.56
489.35	386.90
489.72	390.52
490.08	394.33
490.44	398.26
490.81	402.36
491.17	406.56
491.54	411.07
491.90	415.74
492.26	420.72
492.63	425.94
492.99	431.38
493.36	437.01
493.72	442.95
494.08	449.02
494.45	455.49
494.81	462.19
495.17	469.08
495.54	476.35
495.90	483.92
496.26	491.66
496.63	499.65
496.99	507.95
497.35	516.63
497.72	525.61
498.08	534.79
498.44	544.28
498.80	554.34
499.17	564.64
499.53	575.26
499.89	586.26
500.26	597.48
500.62	609.00
500.98	621.14
501.34	633.46
501.71	646.30
502.07	659.32
502.43	672.88
502.79	686.66
503.16	700.89
503.52	715.32
503.88	730.18
504.24	745.48
504.60	760.99
504.97	777.00
505.33	793.42
505.69	810.73
506.05	828.37
506.41	845.95
506.78	863.73
507.14	882.01
507.50	900.75
507.86	919.83
508.22	939.12
508.59	958.27
508.95	978.23
509.31	998.94
509.67	1020.31
510.03	1041.67
510.39	1063.12
510.75	1084.76
511.12	1106.70
511.48	1128.78
511.84	1150.95
512.20	1173.52
512.56	1196.94
512.92	1220.37
513.28	1243.46
513.64	1266.81
514.00	1290.63
514.37	1314.71
514.73	1338.84
515.09	1362.85
515.45	1387.19
515.81	1411.70
516.17	1436.38
516.53	1460.55
516.89	1484.61
517.25	1508.87
517.61	1533.06
517.97	1557.72
518.33	1581.90
518.69	1605.97
519.05	1630.56
519.41	1655.42
519.77	1680.50
520.13	1704.87
520.49	1729.15
520.85	1753.79
521.21	1777.98
521.57	1802.57
521.93	1826.70
522.29	1851.30
522.65	1875.40
523.01	1899.46
523.37	1923.15
523.73	1947.52
524.09	1971.68
524.45	1995.63
524.81	2019.19
525.17	2042.60
525.53	2065.45
525.89	2088.75
526.25	2112.07
526.61	2134.37
526.97	2156.84
527.33	2179.20
527.68	2201.30
528.04	2222.66
528.40	2243.07
528.76	2263.79
529.12	2284.01
529.48	2303.90
529.84	2322.04
530.20	2340.81
530.56	2358.98
530.91	2377.31
531.27	2395.33
531.63	2412.46
531.99	2429.14
532.35	2445.20
532.71	2461.37
533.07	2478.19
533.42	2493.22
533.78	2509.27
534.14	2525.48
534.50	2540.71
534.86	2555.74
535.21	2568.91
535.57	2582.56
535.93	2595.99
536.29	2608.26
536.65	2620.40
537.00	2631.87
537.36	2644.25
537.72	2655.14
538.08	2665.63
538.44	2675.44
538.79	2684.81
539.15	2693.37
539.51	2701.60
539.87	2709.17
540.22	2714.79
540.58	2720.46
540.94	2727.37
541.29	2732.64
541.65	2736.21
542.01	2739.02
542.37	2741.21
542.72	2744.70
543.08	2746.51
543.44	2748.91
543.79	2750.23
544.15	2750.70
544.51	2751.61
544.87	2751.36
545.22	2750.45
545.58	2748.83
545.94	2747.23
546.29	2744.33
546.65	2741.43
547.01	2738.45
547.36	2736.18
547.72	2734.00
548.07	2730.09
548.43	2724.70
548.79	2718.41
549.14	2713.38
549.50	2708.64
549.86	2702.94
550.21	2696.11
550.57	2690.22
550.92	2682.08
551.28	2674.55
551.64	2667.32
551.99	2659.55
552.35	2651.15
552.70	2643.03
553.06	2635.23
553.41	2626.77
553.77	2618.07
554.13	2609.31
554.48	2599.71
554.84	2588.89
555.19	2578.59
555.55	2568.31
555.90	2558.05
556.26	2548.31
556.61	2537.54
556.97	2525.13
557.32	2513.26
557.68	2501.28
558.03	2489.07
558.39	2478.03
558.74	2467.26
559.10	2454.72
559.45	2442.47
559.81	2430.88
560.16	2418.62
560.52	2406.55
560.87	2394.84
561.23	2382.34
561.58	2369.94
561.94	2357.18
562.29	2343.87
562.64	2331.26
563.00	2318.31
563.35	2305.86
563.71	2293.21
564.06	2280.37
564.42	2268.29
564.77	2255.57
565.12	2242.77
565.48	2229.94
565.83	2217.08
566.19	2204.29
566.54	2191.53
566.89	2177.60
567.25	2163.81
567.60	2151.35
567.96	2137.99
568.31	2123.28
568.66	2109.34
569.02	2096.53
569.37	2083.64
569.72	2071.28
570.08	2057.65
570.43	2043.73
570.78	2029.56
571.14	2014.69
571.49	2000.50
571.84	1986.85
572.20	1971.95
572.55	1957.35
572.90	1942.61
573.26	1927.87
573.61	1912.63
573.96	1897.84
574.31	1883.28
574.67	1868.76
575.02	1853.22
575.37	1837.77
575.72	1823.17
576.08	1808.87
576.43	1793.43
576.78	1778.41
577.13	1763.68
577.49	1749.25
577.84	1735.44
578.19	1720.69
578.54	1706.15
578.90	1691.12
579.25	1675.95
579.60	1662.38
579.95	1648.67
580.30	1634.80
580.66	1620.71
581.01	1606.49
581.36	1592.24
581.71	1579.06
582.06	1565.72
582.42	1552.62
582.77	1539.55
583.12	1526.44
583.47	1513.20
583.82	1500.07
584.17	1486.62
584.53	1472.80
584.88	1459.38
585.23	1445.48
585.58	1432.42
585.93	1419.59
586.28	1407.52
586.63	1395.44
586.98	1382.88
587.34	1370.37
587.69	1357.56
588.04	1345.08
588.39	1333.02
588.74	1321.08
589.09	1308.89
589.44	1296.30
589.79	1284.37
590.14	1272.52
590.49	1260.62
590.84	1248.86
591.19	1237.51
591.54	1225.95
591.89	1214.56
592.25	1203.32
592.60	1191.75
592.95	1180.58
593.30	1169.62
593.65	1158.32
594.00	1147.14
594.35	1136.54
594.70	1125.53
595.05	1115.42
595.40	1105.19
595.75	1094.79
596.10	1084.95
596.45	1074.81
596.80	1065.01
597.15	1054.95
597.50	1045.06
597.85	1035.57
598.19	1025.89
598.54	1016.28
598.89	1007.12
599.24	998.28
599.59	989.26
599.94	981.18
600.29	972.86
600.64	964.22
600.99	955.24
601.34	946.65
601.69	937.72
602.04	929.46
602.39	921.05
602.74	912.66
603.08	904.26
603.43	895.80
603.78	887.54
604.13	879.44
604.48	871.33
604.83	863.40
605.18	855.37
605.53	847.51
605.87	839.45
606.22	831.73
606.57	823.93
606.92	816.04
607.27	808.06
607.62	800.43
607.96	793.24
608.31	786.48
608.66	779.50
609.01	772.80
609.36	766.21
609.70	759.35
610.05	752.50
610.40	745.92
610.75	739.33
611.10	733.08
611.44	726.65
611.79	720.35
612.14	713.97
612.49	707.69
612.83	701.70
613.18	695.85
613.53	689.88
613.88	683.97
614.22	678.47
614.57	672.89
614.92	667.15
615.27	661.54
615.61	655.97
615.96	650.45
616.31	644.94
616.65	639.48
617.00	634.27
617.35	629.15
617.70	624.09
618.04	619.06
618.39	613.96
618.74	609.13
619.08	604.33
619.43	599.65
619.78	594.98
620.12	590.27
620.47	585.73
620.82	581.30
621.16	576.88
621.51	572.33
621.85	567.85
622.20	563.55
622.55	559.25
622.89	555.04
623.24	550.83
623.59	546.68
623.93	542.68
624.28	538.75
624.62	534.93
624.97	531.15
625.32	527.35
625.66	523.49
626.01	519.58
626.35	515.77
626.70	512.01
627.04	508.42
627.39	504.78
627.73	501.29
628.08	497.89
628.43	494.49
628.77	491.19
629.12	488.00
629.46	484.82
629.81	481.56
630.15	478.30
630.50	475.14
630.84	472.02
631.19	468.98
631.53	466.05
631.88	463.07
632.22	460.12
632.57	457.46
632.91	454.83
633.26	452.29
633.60	449.75
633.95	447.28
634.29	444.72
634.64	442.24
634.98	439.56
635.32	437.03
635.67	434.70
636.01	432.28
636.36	429.92
636.70	427.71
637.05	425.49
637.39	423.30
637.73	421.14
638.08	419.09
638.42	416.99
638.77	414.77
639.11	412.50
639.45	410.32
639.80	408.07
640.14	405.94
640.49	403.80
640.83	401.63
641.17	399.55
641.52	397.52
641.86	395.51
642.20	393.71
642.55	391.75
642.89	389.82
643.23	387.98
643.58	386.31
643.92	384.49
644.26	382.74
644.61	381.05
644.95	379.32
645.29	377.51
645.64	375.74
645.98	374.05
646.32	372.50
646.66	370.91
647.01	369.35
647.35	367.83
647.69	366.29
648.04	364.90
648.38	363.42
648.72	361.97
649.06	360.51
649.41	359.07
649.75	357.68
650.09	356.31
650.43	354.94
650.78	353.51
651.12	352.13
651.46	350.81
651.80	349.50
652.14	348.23
652.49	347.02
652.83	345.77
653.17	344.57
653.51	343.40
653.85	342.29
654.20	341.13
654.54	339.90
654.88	338.76
655.22	337.64
655.56	336.51
655.90	335.44
656.25	334.41
656.59	333.35
656.93	332.36
657.27	331.38
657.61	330.34
657.95	329.34
658.29	328.35
658.64	327.40
658.98	326.45
659.32	325.52
659.66	324.63
660.00	323.77
660.34	322.91
660.68	322.01
661.02	321.07
661.36	320.18
661.70	319.33
662.05	318.50
662.39	317.67
662.73	316.92
663.07	316.18
663.41	315.40
663.75	314.61
664.09	313.82
664.43	313.01
664.77	312.28
665.11	311.51
665.45	310.80
665.79	310.10
666.13	309.36
666.47	308.61
666.81	307.85
667.15	307.05
667.49	306.36
667.83	305.74
668.17	305.08
668.51	304.47
668.85	303.89
669.19	303.33
669.53	302.67
669.87	302.01
670.21	301.37
670.55	300.76
670.89	300.24
671.23	299.67
671.57	299.10
671.91	298.59
672.25	298.10
672.58	297.59
672.92	297.02
673.26	296.53
673.60	296.04
673.94	295.57
674.28	295.13
674.62	294.65
674.96	294.12
675.30	293.66
675.64	293.15
675.97	292.63
676.31	292.08
676.65	291.59
676.99	291.17
677.33	290.66
677.67	290.19
678.01	289.65
678.34	289.20
678.68	288.77
679.02	288.28
679.36	287.80
679.70	287.32
680.04	286.88
680.37	286.43
680.71	286.00
681.05	285.59
681.39	285.13
681.73	284.65
682.06	284.19
682.40	283.75
682.74	283.37
683.08	283.03
683.42	282.62
683.75	282.25
684.09	281.79
684.43	281.41
684.77	281.02
685.10	280.67
685.44	280.29
685.78	279.90
686.12	279.55
686.45	279.16
686.79	278.76
687.13	278.40
687.46	278.00
687.80	277.63
688.14	277.21
688.48	276.85
688.81	276.47
689.15	276.15
689.49	275.76
689.82	275.37
690.16	274.92
690.50	274.56
690.83	274.18
691.17	273.81
691.51	273.44
691.84	273.09
692.18	272.70
692.52	272.30
692.85	271.93
693.19	271.60
693.52	271.24
693.86	270.88
694.20	270.52
694.53	270.19
694.87	269.81
695.21	269.46
695.54	269.10
695.88	268.74
696.21	268.36
696.55	268.02
696.88	267.68
697.22	267.35
697.56	267.00
697.89	266.62
698.23	266.28
698.56	265.92
698.90	265.59
699.23	265.23
699.57	264.90
699.90	264.55
700.24	264.19
700.58	263.88
700.91	263.59
701.25	263.38
701.58	263.12
701.92	262.84
702.25	262.55
702.59	262.23
702.92	261.93
703.26	261.61
703.59	261.29
703.93	261.08
704.26	260.78
704.60	260.47
704.93	260.17
705.26	259.86
705.60	259.61
705.93	259.28
706.27	259.02
706.60	258.77
706.94	258.53
707.27	258.21
707.61	257.90
707.94	257.59
708.27	257.17
708.61	256.83
708.94	256.51
709.28	256.23
709.61	255.94
709.94	255.68
710.28	255.43
710.61	255.20
710.95	254.83
711.28	254.65
711.61	254.39
711.95	254.17
712.28	253.91
712.61	253.63
712.95	253.46
713.28	253.27
713.61	252.98
713.95	252.70
714.28	252.47
714.61	252.22
714.95	251.98
715.28	251.75
715.61	251.52
715.95	251.32
716.28	251.10
716.61	250.91
716.95	250.67
717.28	250.45
717.61	250.21
717.94	249.99
718.28	249.68
718.61	249.46
718.94	249.22
719.27	249.01
719.61	248.82
719.94	248.58
720.27	248.29
720.60	248.09
720.94	247.89
721.27	247.69
721.60	247.51
721.93	247.31
722.27	247.16
722.60	246.98
722.93	246.76
723.26	246.57
723.59	246.34
723.93	246.17
724.26	245.99
724.59	245.79
724.92	245.62
725.25	245.49
725.59	245.32
725.92	245.17
726.25	245.00
726.58	244.83
726.91	244.65
727.24	244.50
727.57	244.33
727.91	244.15
728.24	244.02
728.57	243.84
728.90	243.69
729.23	243.49
729.56	243.37
729.89	243.22
730.22	243.04
730.55	242.89
730.89	242.73
731.22	242.57
731.55	242.42
731.88	242.27
732.21	242.09
732.54	241.94
732.87	241.78
733.20	241.65
733.53	241.50
733.86	241.37
734.19	241.21
734.52	241.09
734.85	241.03
735.18	240.87
735.51	240.77
735.84	240.63
736.17	240.54
736.50	240.34
736.83	240.36
737.16	240.24
737.49	240.12
737.82	239.99
738.15	239.88
738.48	239.76
738.81	239.63
739.14	239.49
739.47	239.35
739.80	239.22
740.13	239.11
740.46	238.96
740.79	238.83
741.12	238.70
741.45	238.56
741.78	238.36
742.11	238.28
742.44	238.13
742.77	238.02
743.10	237.88
743.43	237.77
743.75	237.52
744.08	237.60
744.41	237.48
744.74	237.37
745.07	237.22
745.40	237.14
745.73	237.09
746.06	236.99
746.39	236.91
746.71	236.80
747.04	236.69
747.37	236.59
747.70	236.51
748.03	236.43
748.36	236.35
748.68	236.25
749.01	236.12
749.34	236.03
749.67	235.95
750.00	235.87
750.33	235.87
750.65	235.79
750.98	235.51
751.31	235.43
751.64	235.35
751.97	235.33
752.29	235.23
752.62	235.08
752.95	234.98
753.28	234.88
753.60	234.78
753.93	234.73
754.26	234.66
754.59	234.53
754.91	234.43
755.24	234.34
755.57	234.31
755.90	234.23
756.22	234.14
756.55	234.03
756.88	233.93
757.20	233.76
757.53	233.65
757.86	233.57
758.19	233.50
758.51	233.42
758.84	233.29
759.17	233.20
759.49	233.14
759.82	233.13
760.15	233.08
760.47	233.01
760.80	232.90
761.13	232.85
761.45	232.79
761.78	232.73
762.11	232.67
762.43	232.54
762.76	232.48
763.08	232.43
763.41	232.38
763.74	232.33
764.06	232.27
764.39	232.21
764.71	232.16
765.04	232.08
765.37	232.02
765.69	231.96
766.02	231.91
766.34	231.84
766.67	231.74
767.00	231.71
767.32	231.72
767.65	231.75
767.97	231.69
768.30	231.65
768.62	231.59
768.95	231.53
769.27	231.48
769.60	231.45
769.92	231.38
770.25	231.31
770.57	231.24
770.90	231.19
771.22	231.14
771.55	231.09
771.87	231.05
772.20	231.01
772.52	231.07
772.85	231.17
773.17	231.14
773.50	231.09
773.82	231.02
774.15	230.92
774.47	230.80
774.80	230.74
775.12	230.70
775.45	230.67
775.77	230.64
776.09	230.61
776.42	230.58
776.74	230.58
777.07	230.55
777.39	230.52
777.72	230.48
778.04	230.46
778.36	230.42
778.69	230.39
779.01	230.37
779.33	230.23
779.66	230.06
779.98	230.02
780.31	229.99
780.63	230.02
780.95	230.01
781.28	229.98
781.60	229.94
781.92	229.91
782.25	229.88
782.57	229.85
782.89	229.81
783.22	229.78
783.54	229.72
783.86	229.70
784.19	229.67
784.51	229.68
784.83	229.64
785.16	229.61
785.48	229.59
785.80	229.56
786.12	229.55
786.45	229.52
786.77	229.51
787.09	229.48
787.42	229.41
787.74	229.38
788.06	229.36
788.38	229.34
788.71	229.31
789.03	229.29
789.35	229.29
789.67	229.25
789.99	229.24
790.32	229.21
790.64	229.20
790.96	229.30
791.28	229.23
791.61	229.21
791.93	229.19
792.25	229.17
792.57	229.23
792.89	229.19
793.21	229.18
793.54	229.15
793.86	229.12
794.18	229.11
794.50	229.07
794.82	229.05
795.14	229.05
795.47	229.05
795.79	229.04
796.11	228.99
796.43	228.97
796.75	228.95
797.07	228.94
797.39	228.92
797.71	228.80
798.04	228.79
798.36	228.78
798.68	228.76
799.00	228.75
799.32	228.67
799.64	228.68
799.96	228.66
800.28	228.67
800.60	228.65
800.92	228.64
801.24	228.63
801.56	228.62
801.89	228.59
802.21	228.58
802.53	228.54
802.85	228.56
803.17	228.61
803.49	228.56
803.81	228.54
804.13	228.51
804.45	228.48
804.77	228.48
805.09	228.47
805.41	228.44
805.73	228.41
806.05	228.36
806.37	228.33
806.69	228.31
807.01	228.29
807.33	228.28
807.65	228.23
807.97	228.27
808.28	228.24
808.60	228.23
808.92	228.20
809.24	228.27
809.56	228.24
809.88	228.18
810.20	228.18
810.52	228.19
810.84	228.16
811.16	228.15
811.48	228.12
811.80	228.16
812.12	228.15
812.43	228.16
812.75	228.16
813.07	228.14
813.39	228.14
813.71	228.11
814.03	228.09
814.35	228.09
814.67	228.03
814.98	228.01
815.30	227.99
815.62	227.97
815.94	227.87
816.26	227.88
816.58	227.85
816.89	227.85
817.21	227.81
817.53	227.81
817.85	227.81
818.17	227.80
818.48	227.74
818.80	227.76
819.12	227.73
819.44	227.70
819.76	227.68
820.07	227.67
820.39	227.66
820.71	227.67
821.03	227.66
821.34	227.64
821.66	227.65
821.98	227.66
822.30	227.65
822.61	227.72
822.93	227.69
823.25	227.68
823.57	227.66
823.88	227.66
824.20	227.66
824.52	227.67
824.83	227.66
825.15	227.64
825.47	227.62
825.79	227.63
826.10	227.62
826.42	227.61
826.74	227.61
827.05	227.60
827.37	227.59
827.69	227.58
828.00	227.58
828.32	227.57
828.64	227.54
828.95	227.60
829.27	227.56
829.58	227.56
829.90	227.57
830.22	227.58
830.53	227.55
830.85	227.54
831.17	227.50
831.48	227.50
831.80	227.50
832.11	227.49
832.43	227.46
832.75	227.45
833.06	227.52
833.38	227.49
833.69	227.48
834.01	227.47
834.32	227.46
834.64	227.44
834.96	227.44
835.27	227.44
835.59	227.39
835.90	227.37
836.22	227.36
836.53	227.33
836.85	227.31
837.16	227.43
837.48	227.42
837.79	227.46
838.11	227.46
838.42	227.46
838.74	227.47
839.05	227.46
839.37	227.44
839.68	227.37
840.00	227.36
840.31	227.37
840.63	227.36
840.94	227.34
841.26	227.33
841.57	227.33
841.88	227.33
842.20	227.31
842.51	227.28
842.83	227.28
843.14	227.39
843.46	227.39
843.77	227.31
844.08	227.31
844.40	227.27
844.71	227.25
845.03	227.23
845.34	227.22
845.65	227.22
845.97	227.22
846.28	227.22
846.60	227.23
846.91	227.21
847.22	227.20
847.54	227.23
847.85	227.24
848.16	227.23
848.48	227.20
848.79	227.25
849.10	227.27
849.42	227.27
849.73	227.15
850.04	227.15
850.36	227.10
850.67	227.12
850.98	227.11
851.30	227.12
851.61	227.13
851.92	227.12
852.23	227.16
852.55	227.17
852.86	227.17
853.17	227.17
853.49	227.20
853.80	227.22
854.11	227.23
854.42	227.24
854.74	227.22
855.05	227.23
855.36	227.16
855.67	227.16
855.99	227.16
856.30	227.31
856.61	227.31
856.92	227.31
857.23	227.31
857.55	227.29
857.86	227.28
858.17	227.30
858.48	227.28
858.79	227.25
859.11	227.26
859.42	227.25
859.73	227.23
860.04	227.22
860.35	227.18
860.66	227.14
860.98	227.13
861.29	227.14
861.60	227.13
861.91	227.16
862.22	227.13
862.53	227.11
862.84	226.96
863.16	226.99
863.47	226.96
863.78	226.95
864.09	226.96
864.40	226.96
864.71	226.96
865.02	226.97
865.33	226.96
865.64	226.94
865.95	226.93
866.27	227.01
866.58	227.00
866.89	227.01
867.20	227.01
867.51	226.99
867.82	226.98
868.13	227.02
868.44	226.99
868.75	227.01
869.06	227.02
869.37	227.03
869.68	226.99
869.99	227.02
870.30	227.02
870.61	227.03
870.92	227.01
871.23	227.00
871.54	227.01
871.85	227.04
872.16	227.06
872.47	227.05
872.78	226.97
873.09	226.98
873.40	226.97
873.71	226.98
874.02	226.99
874.33	226.97
874.64	226.94
874.95	226.96
875.26	226.93
875.56	226.93
875.87	226.92
876.18	226.92
876.49	227.03
876.80	227.02
877.11	227.00
877.42	227.00
877.73	227.00
878.04	226.98
878.35	226.98
878.66	226.97
878.96	226.97
879.27	226.97
879.58	226.96
879.89	226.96
880.20	226.99
880.51	226.98
880.82	226.99
881.12	226.99
881.43	226.96
881.74	226.95
882.05	226.95
882.36	226.95
882.67	226.97
882.97	226.83
883.28	226.82
883.59	226.82
883.90	226.83
884.21	226.85
884.51	226.84
884.82	226.82
885.13	226.82
885.44	226.82
885.74	226.82
886.05	226.81
886.36	226.81
886.67	226.76
886.98	226.83
887.28	226.84
887.59	226.84
887.90	226.84
888.20	226.84
888.51	226.86
888.82	226.83
889.13	226.84
889.43	226.96
889.74	226.95
890.05	226.95
890.35	226.93
890.66	226.90
890.97	226.90
891.28	226.89
891.58	226.89
891.89	226.89
892.20	226.87
892.50	226.86
892.81	226.85
893.12	226.85
893.42	226.78
893.73	226.78
894.04	226.78
894.34	226.79
894.65	226.79
894.95	226.78
895.26	226.79
895.57	226.84
895.87	226.71
896.18	226.73
896.48	226.73
896.79	226.73
897.10	226.75
897.40	226.76
897.71	226.78
898.01	226.76
898.32	226.77
898.63	226.77
898.93	226.78
899.24	226.79
899.54	226.78
899.85	226.78
900.15	226.77
900.46	226.77
900.76	226.78
901.07	226.79
901.38	226.78
901.68	226.79
901.99	226.72
902.29	226.74
902.60	226.73
902.90	226.72
903.21	226.71
903.51	226.70
903.82	226.72
904.12	226.72
904.43	226.73
904.73	226.72
905.03	226.73
905.34	226.85
905.64	226.84
905.95	226.84
906.25	226.84
906.56	226.83
906.86	226.83
907.17	226.82
907.47	226.82
907.77	226.81
908.08	226.78
908.38	226.79
908.69	226.80
908.99	226.82
909.30	226.83
909.60	226.82
909.90	226.83
910.21	226.79
910.51	226.77
910.81	226.77
911.12	226.78
911.42	226.78
911.73	226.64
912.03	226.66
912.33	226.68
912.64	226.67
912.94	226.66
913.24	226.64
913.55	226.63
913.85	226.62
914.15	226.64
914.46	226.66
914.76	226.64
915.06	226.64
915.37	226.61
915.67	226.60
915.97	226.60
916.27	226.57
916.58	226.58
916.88	226.58
917.18	226.57
917.49	226.65
917.79	226.65
918.09	226.67
918.39	226.70
918.70	226.69
919.00	226.70
919.30	226.75
919.60	226.75
919.91	226.74
920.21	226.75
920.51	226.73
920.81	226.72
921.12	226.74
921.42	226.73
921.72	226.74
922.02	226.75
922.32	226.77
922.63	226.78
922.93	226.84
923.23	226.85
923.53	226.84
923.83	226.76
924.13	226.77
924.44	226.77
924.74	226.78
925.04	226.81
925.34	226.81
925.64	226.75
925.94	226.75
926.24	226.82
926.55	226.81
926.85	226.83
927.15	226.82
927.45	226.82
927.75	226.82
928.05	226.82
928.35	226.81
928.65	226.83
928.95	226.84
929.26	226.78
929.56	226.80
929.86	226.81
930.16	226.80
930.46	226.79
930.76	226.79
931.06	226.73
931.36	226.70
931.66	226.71
931.96	226.73
932.26	226.73
932.56	226.68
932.86	226.69
933.16	226.68
933.46	226.67
933.76	226.66
934.06	226.68
934.36	226.72
934.66	226.72
934.96	226.70
935.26	226.70
935.56	226.72
935.86	226.69
936.16	226.68
936.46	226.67
936.76	226.66
937.06	226.64
937.36	226.65
937.66	226.66
937.96	226.65
938.26	226.62
938.56	226.61
938.86	226.62
939.16	226.65
939.46	226.66
939.76	226.67
940.06	226.67
940.35	226.64
940.65	226.58
940.95	226.59
941.25	226.56
941.55	226.54
941.85	226.53
942.15	226.56
942.45	226.59
942.75	226.59
943.04	226.60
943.34	226.62
943.64	226.61
943.94	226.60
944.24	226.60
944.54	226.60
944.84	226.60
945.13	226.58
945.43	226.56
945.73	226.55
946.03	226.53
946.33	226.52
946.62	226.51
946.92	226.51
947.22	226.52
947.52	226.52
947.82	226.54
948.11	226.53
948.41	226.50
948.71	226.46
949.01	226.47
949.31	226.46
949.60	226.45
949.90	226.47
950.20	226.47
950.50	226.46
950.79	226.45
951.09	226.47
951.39	226.47
951.69	226.46
951.98	226.48
952.28	226.49
952.58	226.49
952.87	226.49
953.17	226.51
953.47	226.49
953.76	226.49
954.06	226.47
954.36	226.46
954.66	226.45
954.95	226.48
955.25	226.49
955.55	226.50
955.84	226.48
956.14	226.49
956.44	226.50
956.73	226.48
957.03	226.49
957.32	226.49
957.62	226.49
957.92	226.51
958.21	226.49
958.51	226.63
958.81	226.65
959.10	226.66
959.40	226.68
959.69	226.69
959.99	226.71
960.29	226.72
960.58	226.71
960.88	226.76
961.17	226.74
961.47	226.75
961.76	226.74
962.06	226.76
962.36	226.75
962.65	226.75
962.95	226.76
963.24	226.74
963.54	226.75
963.83	226.75
964.13	226.74
964.42	226.73
964.72	226.63
965.01	226.63
965.31	226.62
965.60	226.59
965.90	226.66
966.19	226.63
966.49	226.64
966.78	226.64
967.08	226.63
967.37	226.63
967.67	226.61
967.96	226.63
968.26	226.63
968.55	226.64
968.85	226.64
969.14	226.64
969.43	226.64
969.73	226.63
970.02	226.62
970.32	226.61
970.61	226.59
970.91	226.56
971.20	226.54
971.49	226.53
971.79	226.55
972.08	226.46
972.38	226.47
972.67	226.46
972.96	226.48
973.26	226.45
973.55	226.49
973.85	226.48
974.14	226.47
974.43	226.47
974.73	226.45
975.02	226.44
975.31	226.44
975.61	226.44
975.90	226.44
976.19	226.43
976.49	226.44
976.78	226.45
977.07	226.44
977.37	226.45
977.66	226.47
977.95	226.45
978.24	226.47
978.54	226.49
978.83	226.48
979.12	226.47
979.42	226.47
979.71	226.45
980.00	226.45
980.29	226.45
980.59	226.43
980.88	226.46
981.17	226.46
981.46	226.46
981.76	226.46
982.05	226.49
982.34	226.50
982.63	226.50
982.93	226.50
983.22	226.54
983.51	226.54
983.80	226.55
984.09	226.57
984.39	226.56
984.68	226.54
984.97	226.55
985.26	226.54
985.55	226.55
985.85	226.52
986.14	226.54
986.43	226.56
986.72	226.55
987.01	226.51
987.30	226.52
987.59	226.51
987.89	226.51
988.18	226.47
988.47	226.46
988.76	226.45
989.05	226.44
989.34	226.41
989.63	226.45
989.92	226.43
990.22	226.41
990.51	226.41
990.80	226.40
991.09	226.41
991.38	226.43
991.67	226.42
991.96	226.41
992.25	226.40
992.54	226.38
992.83	226.38
993.12	226.38
993.41	226.40
993.70	226.45
993.99	226.47
994.28	226.49
994.58	226.51
994.87	226.50
995.16	226.50
995.45	226.50
995.74	226.45
996.03	226.47
996.32	226.49
996.61	226.51
996.90	226.51
997.19	226.51
997.48	226.50
997.77	226.49
998.06	226.50
998.34	226.49
998.63	226.49
998.92	226.49
999.21	226.51
999.50	226.52
999.79	226.47
1000.08	226.47
1000.37	226.47
1000.66	226.45
1000.95	226.48
1001.24	226.49
1001.53	226.51
1001.82	226.51
1002.11	226.48
1002.40	226.49
1002.68	226.51
1002.97	226.60
1003.26	226.59
1003.55	226.57
1003.84	226.58
1004.13	226.62
1004.42	226.62
1004.71	226.62
1004.99	226.61
1005.28	226.64
1005.57	226.62
1005.86	226.61
1006.15	226.60
1006.44	226.58
1006.72	226.60
1007.01	226.57
1007.30	226.57
1007.59	226.56
1007.88	226.56
1008.17	226.56
1008.45	226.53
1008.74	226.48
1009.03	226.42
1009.32	226.42
1009.60	226.43
1009.89	226.41
1010.18	226.36
1010.47	226.35
1010.76	226.35
1011.04	226.35
1011.33	226.34
1011.62	226.35
1011.91	226.36
1012.19	226.37
1012.48	226.38
1012.77	226.37
1013.05	226.42
1013.34	226.41
1013.63	226.41
1013.92	226.42
1014.20	226.41
1014.49	226.42
1014.78	226.43
1015.06	226.39
1015.35	226.39
1015.64	226.41
1015.92	226.43
1016.21	226.45
1016.50	226.45
1016.78	226.46
1017.07	226.47
1017.36	226.44
1017.64	226.43
1017.93	226.44
1018.22	226.42
1018.50	226.42
1018.79	226.41
1019.08	226.37
1019.36	226.38
1019.65	226.37
1019.93	226.40
1020.22	226.42
1020.51	226.48
1020.79	226.46
1021.08	226.22
1021.36	226.23
1021.65	226.41
1021.94	226.38
1022.22	226.50
1022.51	226.13
1022.79	226.98
1023.08	226.59
1023.36	227.91
1023.65	226.09
>>>>>End Processed Spectral Data<<<<<
