SpectraSuite Data File
++++++++++++++++++++++++++++++++++++
Date: Fri Oct 02 23:28:38 EDT 2015
User: lab3
Dark Spectrum Present: No
Reference Spectrum Present: No
Number of Sampled Component Spectra: 1
Spectrometers: USB2E7196
Integration Time (usec): 46000 (USB2E7196)
Spectra Averaged: 12000 (USB2E7196)
Boxcar Smoothing: 10 (USB2E7196)
Correct for Electrical Dark: No (USB2E7196)
Strobe/Lamp Enabled: No (USB2E7196)
Correct for Detector Non-linearity: No (USB2E7196)
Correct for Stray Light: No (USB2E7196)
Number of Pixels in Processed Spectrum: 2048
>>>>>Begin Processed Spectral Data<<<<<
339.09	0.00
339.48	214.75
339.86	216.24
340.24	217.61
340.63	219.02
341.01	222.26
341.39	221.72
341.78	223.15
342.16	224.33
342.54	224.77
342.93	213.16
343.31	223.92
343.69	224.46
344.07	224.92
344.46	225.35
344.84	225.74
345.22	225.96
345.60	226.22
345.99	226.41
346.37	226.55
346.75	226.65
347.13	226.73
347.52	226.80
347.90	226.89
348.28	226.93
348.66	226.99
349.05	226.99
349.43	227.04
349.81	227.10
350.19	227.16
350.57	227.22
350.96	227.31
351.34	227.40
351.72	227.50
352.10	227.60
352.48	227.67
352.87	227.72
353.25	227.79
353.63	227.85
354.01	227.91
354.39	227.99
354.77	228.07
355.15	228.17
355.54	228.22
355.92	228.25
356.30	228.32
356.68	228.47
357.06	228.55
357.44	228.59
357.82	228.65
358.20	228.77
358.58	228.83
358.97	228.89
359.35	228.97
359.73	229.06
360.11	229.11
360.49	229.16
360.87	229.21
361.25	229.28
361.63	229.36
362.01	229.41
362.39	229.44
362.77	229.49
363.15	229.51
363.53	229.55
363.91	229.58
364.29	229.60
364.67	229.50
365.05	229.52
365.43	229.56
365.81	229.59
366.19	229.61
366.57	229.66
366.95	229.66
367.33	229.64
367.71	229.63
368.09	229.65
368.47	229.64
368.85	229.63
369.23	229.65
369.61	229.58
369.99	229.60
370.37	229.60
370.75	229.68
371.13	229.64
371.51	229.60
371.89	229.58
372.27	229.55
372.65	229.53
373.03	229.49
373.41	229.44
373.78	229.39
374.16	229.29
374.54	229.20
374.92	229.15
375.30	229.11
375.68	229.04
376.06	229.00
376.44	228.94
376.82	228.90
377.19	228.85
377.57	228.80
377.95	228.71
378.33	228.65
378.71	228.49
379.09	228.44
379.47	228.41
379.84	228.35
380.22	228.28
380.60	228.22
380.98	228.17
381.36	228.12
381.73	228.06
382.11	228.04
382.49	228.00
382.87	227.94
383.25	227.89
383.62	228.00
384.00	227.93
384.38	227.89
384.76	227.88
385.13	227.87
385.51	227.84
385.89	227.79
386.27	227.75
386.64	227.74
387.02	227.70
387.40	227.65
387.78	227.63
388.15	227.61
388.53	227.57
388.91	227.54
389.29	227.50
389.66	227.50
390.04	227.46
390.42	227.46
390.79	227.44
391.17	227.42
391.55	227.27
391.92	227.26
392.30	227.26
392.68	227.22
393.05	227.20
393.43	227.20
393.81	227.20
394.18	227.19
394.56	227.18
394.94	227.22
395.31	227.21
395.69	227.26
396.06	227.29
396.44	227.32
396.82	227.33
397.19	227.42
397.57	227.43
397.95	227.48
398.32	227.47
398.70	227.52
399.07	227.58
399.45	227.62
399.82	227.66
400.20	227.70
400.58	227.76
400.95	227.77
401.33	227.85
401.70	228.00
402.08	228.10
402.45	228.19
402.83	228.30
403.20	228.41
403.58	228.50
403.95	228.64
404.33	228.78
404.71	228.92
405.08	229.13
405.46	229.29
405.83	229.48
406.21	229.67
406.58	229.89
406.96	230.10
407.33	230.34
407.70	230.62
408.08	231.00
408.45	231.33
408.83	231.68
409.20	232.01
409.58	232.30
409.95	232.69
410.33	233.13
410.70	233.53
411.08	234.02
411.45	234.52
411.82	235.04
412.20	235.63
412.57	236.33
412.95	236.87
413.32	237.59
413.69	238.32
414.07	239.11
414.44	239.95
414.82	240.82
415.19	241.84
415.56	242.86
415.94	243.92
416.31	245.12
416.68	246.31
417.06	247.70
417.43	249.00
417.81	250.49
418.18	252.01
418.55	253.68
418.93	255.40
419.30	257.21
419.67	259.13
420.04	261.08
420.42	263.13
420.79	265.51
421.16	267.90
421.54	270.33
421.91	272.87
422.28	275.50
422.66	278.34
423.03	281.05
423.40	283.89
423.77	286.93
424.15	290.05
424.52	293.29
424.89	296.81
425.26	300.30
425.64	303.54
426.01	307.19
426.38	310.92
426.75	314.76
427.13	318.71
427.50	322.83
427.87	327.13
428.24	331.46
428.61	335.62
428.99	340.13
429.36	345.07
429.73	349.79
430.10	354.52
430.47	359.35
430.85	364.32
431.22	369.67
431.59	375.16
431.96	380.52
432.33	386.48
432.70	392.15
433.08	398.85
433.45	405.18
433.82	411.42
434.19	418.39
434.56	425.26
434.93	431.90
435.30	438.46
435.68	445.88
436.05	453.14
436.42	460.37
436.79	466.97
437.16	474.08
437.53	481.71
437.90	489.34
438.27	496.81
438.64	504.87
439.01	512.18
439.38	518.85
439.75	525.28
440.13	532.53
440.50	539.41
440.87	544.87
441.24	550.84
441.61	557.37
441.98	562.10
442.35	567.72
442.72	573.46
443.09	578.91
443.46	582.34
443.83	584.83
444.20	586.89
444.57	590.01
444.94	591.73
445.31	593.52
445.68	595.01
446.05	596.07
446.42	595.59
446.79	594.92
447.16	594.32
447.53	593.76
447.90	591.32
448.27	588.96
448.64	585.46
449.01	583.00
449.37	578.20
449.74	573.86
450.11	568.31
450.48	562.23
450.85	556.17
451.22	550.98
451.59	545.92
451.96	541.33
452.33	534.70
452.70	528.84
453.07	521.68
453.43	514.56
453.80	507.65
454.17	501.05
454.54	494.98
454.91	488.13
455.28	481.71
455.65	475.67
456.02	469.30
456.38	464.17
456.75	457.56
457.12	452.25
457.49	446.90
457.86	441.85
458.23	437.45
458.59	432.57
458.96	427.56
459.33	423.17
459.70	418.69
460.07	415.31
460.43	411.32
460.80	407.60
461.17	404.38
461.54	400.87
461.91	397.60
462.27	394.27
462.64	391.60
463.01	388.49
463.38	385.37
463.74	382.56
464.11	380.08
464.48	377.86
464.85	375.43
465.21	373.62
465.58	371.57
465.95	369.21
466.32	367.34
466.68	365.51
467.05	363.67
467.42	361.86
467.78	359.91
468.15	358.11
468.52	356.81
468.88	355.04
469.25	353.43
469.62	352.16
469.98	350.76
470.35	349.52
470.72	348.40
471.08	347.25
471.45	346.29
471.82	345.22
472.18	344.07
472.55	343.34
472.92	342.40
473.28	341.68
473.65	340.89
474.02	340.15
474.38	339.52
474.75	339.15
475.11	338.63
475.48	338.39
475.85	338.13
476.21	337.99
476.58	337.90
476.94	338.03
477.31	338.08
477.67	338.16
478.04	338.36
478.41	338.64
478.77	339.05
479.14	339.30
479.50	339.79
479.87	340.44
480.23	341.09
480.60	341.72
480.96	342.37
481.33	343.32
481.69	344.28
482.06	345.23
482.42	346.10
482.79	347.18
483.15	348.43
483.52	349.85
483.88	351.22
484.25	352.68
484.61	354.21
484.98	355.86
485.34	357.72
485.71	359.66
486.07	361.73
486.44	363.80
486.80	366.11
487.17	368.52
487.53	371.14
487.90	373.89
488.26	376.89
488.62	380.05
488.99	383.21
489.35	386.53
489.72	390.14
490.08	393.94
490.44	397.86
490.81	401.95
491.17	406.13
491.54	410.63
491.90	415.29
492.26	420.26
492.63	425.45
492.99	430.89
493.36	436.50
493.72	442.42
494.08	448.49
494.45	454.93
494.81	461.62
495.17	468.50
495.54	475.76
495.90	483.31
496.26	491.04
496.63	499.01
496.99	507.30
497.35	515.98
497.72	524.93
498.08	534.09
498.44	543.57
498.80	553.60
499.17	563.90
499.53	574.49
499.89	585.47
500.26	596.67
500.62	608.16
500.98	620.28
501.34	632.57
501.71	645.38
502.07	658.39
502.43	671.92
502.79	685.66
503.16	699.87
503.52	714.28
503.88	729.11
504.24	744.39
504.60	759.88
504.97	775.85
505.33	792.24
505.69	809.53
506.05	827.13
506.41	844.68
506.78	862.42
507.14	880.68
507.50	899.37
507.86	918.43
508.22	937.71
508.59	956.82
508.95	976.76
509.31	997.43
509.67	1018.76
510.03	1040.11
510.39	1061.53
510.75	1083.15
511.12	1105.04
511.48	1127.09
511.84	1149.25
512.20	1171.80
512.56	1195.20
512.92	1218.60
513.28	1241.66
513.64	1264.99
514.00	1288.77
514.37	1312.83
514.73	1336.92
515.09	1360.92
515.45	1385.25
515.81	1409.73
516.17	1434.37
516.53	1458.52
516.89	1482.57
517.25	1506.82
517.61	1531.01
517.97	1555.66
518.33	1579.81
518.69	1603.89
519.05	1628.48
519.41	1653.33
519.77	1678.39
520.13	1702.72
520.49	1727.00
520.85	1751.64
521.21	1775.79
521.57	1800.38
521.93	1824.51
522.29	1849.12
522.65	1873.22
523.01	1897.28
523.37	1920.99
523.73	1945.37
524.09	1969.54
524.45	1993.49
524.81	2017.03
525.17	2040.44
525.53	2063.28
525.89	2086.58
526.25	2109.88
526.61	2132.17
526.97	2154.65
527.33	2177.05
527.68	2199.15
528.04	2220.51
528.40	2240.93
528.76	2261.70
529.12	2281.95
529.48	2301.82
529.84	2319.98
530.20	2338.75
530.56	2356.92
530.91	2375.26
531.27	2393.27
531.63	2410.42
531.99	2427.16
532.35	2443.26
532.71	2459.45
533.07	2476.28
533.42	2491.34
533.78	2507.43
534.14	2523.67
534.50	2538.90
534.86	2553.94
535.21	2567.14
535.57	2580.82
535.93	2594.27
536.29	2606.55
536.65	2618.72
537.00	2630.24
537.36	2642.62
537.72	2653.53
538.08	2664.06
538.44	2673.91
538.79	2683.32
539.15	2691.91
539.51	2700.13
539.87	2707.68
540.22	2713.33
540.58	2719.04
540.94	2726.01
541.29	2731.28
541.65	2734.83
542.01	2737.73
542.37	2739.95
542.72	2743.48
543.08	2745.34
543.44	2747.76
543.79	2749.12
544.15	2749.63
544.51	2750.58
544.87	2750.38
545.22	2749.47
545.58	2747.90
545.94	2746.32
546.29	2743.44
546.65	2740.56
547.01	2737.65
547.36	2735.45
547.72	2733.25
548.07	2729.37
548.43	2723.97
548.79	2717.72
549.14	2712.76
549.50	2708.01
549.86	2702.33
550.21	2695.52
550.57	2689.65
550.92	2681.54
551.28	2674.03
551.64	2666.80
551.99	2659.04
552.35	2650.69
552.70	2642.62
553.06	2634.81
553.41	2626.38
553.77	2617.69
554.13	2608.93
554.48	2599.34
554.84	2588.54
555.19	2578.30
555.55	2568.06
555.90	2557.82
556.26	2548.12
556.61	2537.35
556.97	2524.94
557.32	2513.10
557.68	2501.13
558.03	2488.97
558.39	2477.93
558.74	2467.18
559.10	2454.68
559.45	2442.46
559.81	2430.89
560.16	2418.64
560.52	2406.60
560.87	2394.88
561.23	2382.39
561.58	2370.03
561.94	2357.29
562.29	2343.99
562.64	2331.39
563.00	2318.46
563.35	2306.06
563.71	2293.42
564.06	2280.59
564.42	2268.54
564.77	2255.80
565.12	2243.01
565.48	2230.18
565.83	2217.34
566.19	2204.56
566.54	2191.80
566.89	2177.87
567.25	2164.09
567.60	2151.62
567.96	2138.29
568.31	2123.64
568.66	2109.74
569.02	2096.94
569.37	2084.07
569.72	2071.72
570.08	2058.10
570.43	2044.18
570.78	2029.98
571.14	2015.11
571.49	2000.93
571.84	1987.30
572.20	1972.42
572.55	1957.85
572.90	1943.11
573.26	1928.37
573.61	1913.14
573.96	1898.34
574.31	1883.80
574.67	1869.26
575.02	1853.74
575.37	1838.28
575.72	1823.68
576.08	1809.39
576.43	1793.94
576.78	1778.92
577.13	1764.18
577.49	1749.77
577.84	1735.97
578.19	1721.21
578.54	1706.69
578.90	1691.66
579.25	1676.49
579.60	1662.92
579.95	1649.18
580.30	1635.32
580.66	1621.21
581.01	1606.99
581.36	1592.76
581.71	1579.57
582.06	1566.24
582.42	1553.12
582.77	1540.04
583.12	1526.89
583.47	1513.63
583.82	1500.49
584.17	1487.01
584.53	1473.19
584.88	1459.75
585.23	1445.82
585.58	1432.78
585.93	1419.94
586.28	1407.86
586.63	1395.79
586.98	1383.21
587.34	1370.70
587.69	1357.87
588.04	1345.40
588.39	1333.34
588.74	1321.38
589.09	1309.18
589.44	1296.58
589.79	1284.66
590.14	1272.83
590.49	1260.95
590.84	1249.20
591.19	1237.87
591.54	1226.33
591.89	1214.94
592.25	1203.71
592.60	1192.15
592.95	1180.98
593.30	1170.00
593.65	1158.70
594.00	1147.49
594.35	1136.91
594.70	1125.89
595.05	1115.81
595.40	1105.58
595.75	1095.19
596.10	1085.36
596.45	1075.21
596.80	1065.40
597.15	1055.34
597.50	1045.45
597.85	1035.95
598.19	1026.27
598.54	1016.65
598.89	1007.46
599.24	998.61
599.59	989.59
599.94	981.52
600.29	973.19
600.64	964.58
600.99	955.60
601.34	947.01
601.69	938.08
602.04	929.83
602.39	921.41
602.74	913.03
603.08	904.62
603.43	896.16
603.78	887.89
604.13	879.80
604.48	871.68
604.83	863.75
605.18	855.71
605.53	847.84
605.87	839.77
606.22	832.07
606.57	824.27
606.92	816.37
607.27	808.37
607.62	800.75
607.96	793.54
608.31	786.78
608.66	779.80
609.01	773.10
609.36	766.49
609.70	759.62
610.05	752.76
610.40	746.18
610.75	739.59
611.10	733.33
611.44	726.91
611.79	720.60
612.14	714.21
612.49	707.94
612.83	701.96
613.18	696.12
613.53	690.13
613.88	684.22
614.22	678.73
614.57	673.16
614.92	667.41
615.27	661.79
615.61	656.21
615.96	650.70
616.31	645.18
616.65	639.73
617.00	634.54
617.35	629.43
617.70	624.37
618.04	619.33
618.39	614.24
618.74	609.42
619.08	604.62
619.43	599.94
619.78	595.29
620.12	590.56
620.47	586.03
620.82	581.61
621.16	577.18
621.51	572.62
621.85	568.14
622.20	563.85
622.55	559.56
622.89	555.36
623.24	551.15
623.59	547.00
623.93	543.01
624.28	539.08
624.62	535.27
624.97	531.49
625.32	527.70
625.66	523.84
626.01	519.95
626.35	516.14
626.70	512.38
627.04	508.78
627.39	505.15
627.73	501.67
628.08	498.27
628.43	494.88
628.77	491.60
629.12	488.41
629.46	485.21
629.81	481.95
630.15	478.68
630.50	475.52
630.84	472.41
631.19	469.36
631.53	466.43
631.88	463.45
632.22	460.50
632.57	457.84
632.91	455.21
633.26	452.66
633.60	450.12
633.95	447.66
634.29	445.11
634.64	442.63
634.98	439.94
635.32	437.42
635.67	435.09
636.01	432.67
636.36	430.31
636.70	428.12
637.05	425.90
637.39	423.71
637.73	421.55
638.08	419.51
638.42	417.41
638.77	415.20
639.11	412.92
639.45	410.75
639.80	408.51
640.14	406.39
640.49	404.24
640.83	402.08
641.17	400.00
641.52	397.97
641.86	395.95
642.20	394.17
642.55	392.21
642.89	390.28
643.23	388.45
643.58	386.77
643.92	384.95
644.26	383.20
644.61	381.52
644.95	379.79
645.29	377.99
645.64	376.22
645.98	374.53
646.32	372.97
646.66	371.39
647.01	369.82
647.35	368.30
647.69	366.77
648.04	365.38
648.38	363.90
648.72	362.45
649.06	361.00
649.41	359.56
649.75	358.18
650.09	356.81
650.43	355.45
650.78	354.02
651.12	352.65
651.46	351.32
651.80	350.02
652.14	348.75
652.49	347.53
652.83	346.29
653.17	345.09
653.51	343.92
653.85	342.81
654.20	341.65
654.54	340.43
654.88	339.29
655.22	338.17
655.56	337.03
655.90	335.96
656.25	334.93
656.59	333.87
656.93	332.88
657.27	331.90
657.61	330.86
657.95	329.86
658.29	328.87
658.64	327.92
658.98	326.97
659.32	326.04
659.66	325.16
660.00	324.30
660.34	323.43
660.68	322.54
661.02	321.60
661.36	320.70
661.70	319.85
662.05	319.01
662.39	318.18
662.73	317.43
663.07	316.69
663.41	315.90
663.75	315.11
664.09	314.33
664.43	313.51
664.77	312.77
665.11	312.00
665.45	311.28
665.79	310.58
666.13	309.83
666.47	309.07
666.81	308.31
667.15	307.50
667.49	306.81
667.83	306.19
668.17	305.53
668.51	304.92
668.85	304.33
669.19	303.77
669.53	303.11
669.87	302.44
670.21	301.80
670.55	301.19
670.89	300.66
671.23	300.08
671.57	299.52
671.91	299.00
672.25	298.51
672.58	298.00
672.92	297.42
673.26	296.94
673.60	296.45
673.94	295.97
674.28	295.54
674.62	295.06
674.96	294.52
675.30	294.06
675.64	293.54
675.97	293.02
676.31	292.47
676.65	291.98
676.99	291.56
677.33	291.05
677.67	290.58
678.01	290.05
678.34	289.59
678.68	289.15
679.02	288.65
679.36	288.17
679.70	287.68
680.04	287.25
680.37	286.79
680.71	286.36
681.05	285.94
681.39	285.47
681.73	284.99
682.06	284.53
682.40	284.08
682.74	283.70
683.08	283.35
683.42	282.94
683.75	282.56
684.09	282.11
684.43	281.72
684.77	281.31
685.10	280.96
685.44	280.57
685.78	280.19
686.12	279.82
686.45	279.43
686.79	279.04
687.13	278.67
687.46	278.26
687.80	277.88
688.14	277.46
688.48	277.10
688.81	276.73
689.15	276.39
689.49	276.01
689.82	275.61
690.16	275.16
690.50	274.80
690.83	274.41
691.17	274.03
691.51	273.66
691.84	273.31
692.18	272.92
692.52	272.52
692.85	272.14
693.19	271.81
693.52	271.45
693.86	271.08
694.20	270.73
694.53	270.39
694.87	270.01
695.21	269.65
695.54	269.30
695.88	268.93
696.21	268.55
696.55	268.21
696.88	267.87
697.22	267.53
697.56	267.19
697.89	266.80
698.23	266.46
698.56	266.09
698.90	265.76
699.23	265.40
699.57	265.05
699.90	264.71
700.24	264.34
700.58	264.03
700.91	263.75
701.25	263.53
701.58	263.27
701.92	262.99
702.25	262.69
702.59	262.37
702.92	262.06
703.26	261.74
703.59	261.41
703.93	261.20
704.26	260.91
704.60	260.59
704.93	260.29
705.26	259.97
705.60	259.72
705.93	259.39
706.27	259.13
706.60	258.89
706.94	258.64
707.27	258.32
707.61	258.02
707.94	257.69
708.27	257.27
708.61	256.93
708.94	256.61
709.28	256.33
709.61	256.04
709.94	255.79
710.28	255.54
710.61	255.30
710.95	254.93
711.28	254.75
711.61	254.49
711.95	254.27
712.28	254.01
712.61	253.73
712.95	253.56
713.28	253.37
713.61	253.08
713.95	252.79
714.28	252.56
714.61	252.31
714.95	252.08
715.28	251.84
715.61	251.62
715.95	251.41
716.28	251.18
716.61	250.99
716.95	250.75
717.28	250.53
717.61	250.29
717.94	250.08
718.28	249.76
718.61	249.54
718.94	249.30
719.27	249.09
719.61	248.90
719.94	248.65
720.27	248.36
720.60	248.16
720.94	247.96
721.27	247.76
721.60	247.58
721.93	247.37
722.27	247.22
722.60	247.03
722.93	246.82
723.26	246.62
723.59	246.39
723.93	246.21
724.26	246.03
724.59	245.83
724.92	245.66
725.25	245.53
725.59	245.36
725.92	245.21
726.25	245.04
726.58	244.86
726.91	244.68
727.24	244.53
727.57	244.37
727.91	244.19
728.24	244.05
728.57	243.87
728.90	243.72
729.23	243.51
729.56	243.40
729.89	243.24
730.22	243.07
730.55	242.92
730.89	242.76
731.22	242.59
731.55	242.44
731.88	242.28
732.21	242.10
732.54	241.94
732.87	241.79
733.20	241.65
733.53	241.51
733.86	241.38
734.19	241.21
734.52	241.09
734.85	241.03
735.18	240.86
735.51	240.76
735.84	240.63
736.17	240.53
736.50	240.34
736.83	240.35
737.16	240.23
737.49	240.11
737.82	239.97
738.15	239.87
738.48	239.75
738.81	239.62
739.14	239.48
739.47	239.35
739.80	239.21
740.13	239.10
740.46	238.95
740.79	238.81
741.12	238.69
741.45	238.55
741.78	238.35
742.11	238.27
742.44	238.12
742.77	238.01
743.10	237.88
743.43	237.75
743.75	237.51
744.08	237.59
744.41	237.47
744.74	237.35
745.07	237.21
745.40	237.13
745.73	237.08
746.06	236.98
746.39	236.90
746.71	236.79
747.04	236.68
747.37	236.58
747.70	236.51
748.03	236.42
748.36	236.35
748.68	236.25
749.01	236.12
749.34	236.03
749.67	235.94
750.00	235.87
750.33	235.87
750.65	235.79
750.98	235.51
751.31	235.43
751.64	235.34
751.97	235.32
752.29	235.22
752.62	235.07
752.95	234.98
753.28	234.87
753.60	234.78
753.93	234.72
754.26	234.65
754.59	234.52
754.91	234.42
755.24	234.32
755.57	234.30
755.90	234.22
756.22	234.12
756.55	234.02
756.88	233.91
757.20	233.75
757.53	233.64
757.86	233.56
758.19	233.49
758.51	233.41
758.84	233.27
759.17	233.19
759.49	233.12
759.82	233.11
760.15	233.06
760.47	232.99
760.80	232.89
761.13	232.84
761.45	232.77
761.78	232.71
762.11	232.65
762.43	232.52
762.76	232.46
763.08	232.42
763.41	232.36
763.74	232.31
764.06	232.25
764.39	232.20
764.71	232.14
765.04	232.07
765.37	232.00
765.69	231.95
766.02	231.89
766.34	231.83
766.67	231.72
767.00	231.69
767.32	231.71
767.65	231.73
767.97	231.66
768.30	231.62
768.62	231.57
768.95	231.51
769.27	231.45
769.60	231.42
769.92	231.35
770.25	231.28
770.57	231.21
770.90	231.16
771.22	231.10
771.55	231.06
771.87	231.02
772.20	230.97
772.52	231.03
772.85	231.14
773.17	231.10
773.50	231.06
773.82	230.99
774.15	230.89
774.47	230.77
774.80	230.72
775.12	230.67
775.45	230.63
775.77	230.61
776.09	230.58
776.42	230.54
776.74	230.55
777.07	230.51
777.39	230.49
777.72	230.44
778.04	230.43
778.36	230.38
778.69	230.36
779.01	230.34
779.33	230.19
779.66	230.02
779.98	229.98
780.31	229.95
780.63	229.98
780.95	229.97
781.28	229.94
781.60	229.91
781.92	229.88
782.25	229.85
782.57	229.83
782.89	229.79
783.22	229.76
783.54	229.70
783.86	229.69
784.19	229.65
784.51	229.66
784.83	229.62
785.16	229.60
785.48	229.57
785.80	229.55
786.12	229.53
786.45	229.51
786.77	229.50
787.09	229.47
787.42	229.39
787.74	229.37
788.06	229.35
788.38	229.33
788.71	229.30
789.03	229.28
789.35	229.27
789.67	229.23
789.99	229.22
790.32	229.18
790.64	229.18
790.96	229.27
791.28	229.21
791.61	229.19
791.93	229.18
792.25	229.15
792.57	229.22
792.89	229.18
793.21	229.16
793.54	229.13
793.86	229.10
794.18	229.09
794.50	229.05
794.82	229.03
795.14	229.03
795.47	229.03
795.79	229.02
796.11	228.97
796.43	228.95
796.75	228.93
797.07	228.93
797.39	228.90
797.71	228.78
798.04	228.77
798.36	228.76
798.68	228.74
799.00	228.74
799.32	228.66
799.64	228.67
799.96	228.65
800.28	228.65
800.60	228.63
800.92	228.63
801.24	228.60
801.56	228.60
801.89	228.57
802.21	228.56
802.53	228.52
802.85	228.53
803.17	228.58
803.49	228.54
803.81	228.51
804.13	228.49
804.45	228.46
804.77	228.46
805.09	228.44
805.41	228.42
805.73	228.38
806.05	228.33
806.37	228.31
806.69	228.28
807.01	228.26
807.33	228.25
807.65	228.20
807.97	228.24
808.28	228.21
808.60	228.20
808.92	228.17
809.24	228.24
809.56	228.21
809.88	228.15
810.20	228.15
810.52	228.16
810.84	228.13
811.16	228.11
811.48	228.09
811.80	228.12
812.12	228.11
812.43	228.12
812.75	228.13
813.07	228.10
813.39	228.10
813.71	228.08
814.03	228.05
814.35	228.05
814.67	227.99
814.98	227.96
815.30	227.95
815.62	227.92
815.94	227.83
816.26	227.83
816.58	227.80
816.89	227.80
817.21	227.76
817.53	227.77
817.85	227.76
818.17	227.75
818.48	227.69
818.80	227.70
819.12	227.67
819.44	227.64
819.76	227.62
820.07	227.61
820.39	227.61
820.71	227.61
821.03	227.61
821.34	227.59
821.66	227.61
821.98	227.61
822.30	227.60
822.61	227.67
822.93	227.65
823.25	227.64
823.57	227.61
823.88	227.62
824.20	227.61
824.52	227.62
824.83	227.61
825.15	227.60
825.47	227.58
825.79	227.58
826.10	227.57
826.42	227.57
826.74	227.57
827.05	227.56
827.37	227.55
827.69	227.54
828.00	227.54
828.32	227.53
828.64	227.51
828.95	227.57
829.27	227.52
829.58	227.52
829.90	227.54
830.22	227.54
830.53	227.52
830.85	227.50
831.17	227.47
831.48	227.46
831.80	227.46
832.11	227.45
832.43	227.43
832.75	227.42
833.06	227.49
833.38	227.45
833.69	227.44
834.01	227.43
834.32	227.43
834.64	227.41
834.96	227.40
835.27	227.40
835.59	227.35
835.90	227.33
836.22	227.32
836.53	227.29
836.85	227.27
837.16	227.40
837.48	227.40
837.79	227.44
838.11	227.44
838.42	227.44
838.74	227.45
839.05	227.44
839.37	227.43
839.68	227.35
840.00	227.35
840.31	227.36
840.63	227.35
840.94	227.33
841.26	227.32
841.57	227.32
841.88	227.32
842.20	227.30
842.51	227.28
842.83	227.28
843.14	227.39
843.46	227.38
843.77	227.30
844.08	227.30
844.40	227.25
844.71	227.24
845.03	227.23
845.34	227.21
845.65	227.21
845.97	227.21
846.28	227.21
846.60	227.21
846.91	227.19
847.22	227.18
847.54	227.21
847.85	227.21
848.16	227.19
848.48	227.17
848.79	227.21
849.10	227.23
849.42	227.23
849.73	227.11
850.04	227.11
850.36	227.06
850.67	227.08
850.98	227.08
851.30	227.09
851.61	227.08
851.92	227.07
852.23	227.11
852.55	227.12
852.86	227.12
853.17	227.12
853.49	227.14
853.80	227.17
854.11	227.17
854.42	227.18
854.74	227.17
855.05	227.18
855.36	227.11
855.67	227.11
855.99	227.11
856.30	227.26
856.61	227.25
856.92	227.25
857.23	227.25
857.55	227.23
857.86	227.23
858.17	227.24
858.48	227.22
858.79	227.19
859.11	227.20
859.42	227.19
859.73	227.18
860.04	227.17
860.35	227.13
860.66	227.09
860.98	227.08
861.29	227.10
861.60	227.09
861.91	227.12
862.22	227.10
862.53	227.07
862.84	226.92
863.16	226.95
863.47	226.93
863.78	226.91
864.09	226.92
864.40	226.93
864.71	226.93
865.02	226.95
865.33	226.93
865.64	226.91
865.95	226.91
866.27	226.98
866.58	226.97
866.89	226.99
867.20	226.99
867.51	226.97
867.82	226.96
868.13	226.99
868.44	226.97
868.75	226.98
869.06	226.99
869.37	227.00
869.68	226.97
869.99	227.00
870.30	227.00
870.61	227.01
870.92	226.99
871.23	226.98
871.54	226.99
871.85	227.01
872.16	227.03
872.47	227.02
872.78	226.95
873.09	226.96
873.40	226.95
873.71	226.96
874.02	226.97
874.33	226.95
874.64	226.92
874.95	226.95
875.26	226.92
875.56	226.92
875.87	226.91
876.18	226.90
876.49	227.02
876.80	227.01
877.11	226.98
877.42	226.99
877.73	226.99
878.04	226.97
878.35	226.97
878.66	226.97
878.96	226.97
879.27	226.96
879.58	226.95
879.89	226.95
880.20	226.98
880.51	226.97
880.82	226.97
881.12	226.98
881.43	226.95
881.74	226.94
882.05	226.93
882.36	226.94
882.67	226.95
882.97	226.82
883.28	226.81
883.59	226.80
883.90	226.81
884.21	226.83
884.51	226.82
884.82	226.80
885.13	226.80
885.44	226.79
885.74	226.79
886.05	226.79
886.36	226.78
886.67	226.74
886.98	226.80
887.28	226.81
887.59	226.81
887.90	226.82
888.20	226.82
888.51	226.84
888.82	226.82
889.13	226.82
889.43	226.94
889.74	226.93
890.05	226.93
890.35	226.91
890.66	226.89
890.97	226.88
891.28	226.87
891.58	226.87
891.89	226.87
892.20	226.85
892.50	226.84
892.81	226.83
893.12	226.83
893.42	226.77
893.73	226.76
894.04	226.76
894.34	226.77
894.65	226.76
894.95	226.75
895.26	226.76
895.57	226.81
895.87	226.68
896.18	226.70
896.48	226.71
896.79	226.71
897.10	226.73
897.40	226.73
897.71	226.75
898.01	226.73
898.32	226.75
898.63	226.75
898.93	226.75
899.24	226.75
899.54	226.74
899.85	226.74
900.15	226.73
900.46	226.73
900.76	226.74
901.07	226.74
901.38	226.73
901.68	226.75
901.99	226.68
902.29	226.69
902.60	226.68
902.90	226.67
903.21	226.66
903.51	226.65
903.82	226.67
904.12	226.67
904.43	226.68
904.73	226.68
905.03	226.68
905.34	226.80
905.64	226.80
905.95	226.80
906.25	226.80
906.56	226.80
906.86	226.80
907.17	226.79
907.47	226.79
907.77	226.78
908.08	226.76
908.38	226.76
908.69	226.77
908.99	226.79
909.30	226.80
909.60	226.80
909.90	226.80
910.21	226.76
910.51	226.74
910.81	226.74
911.12	226.74
911.42	226.74
911.73	226.61
912.03	226.62
912.33	226.65
912.64	226.64
912.94	226.62
913.24	226.60
913.55	226.59
913.85	226.58
914.15	226.60
914.46	226.62
914.76	226.61
915.06	226.60
915.37	226.57
915.67	226.56
915.97	226.56
916.27	226.53
916.58	226.54
916.88	226.55
917.18	226.54
917.49	226.62
917.79	226.61
918.09	226.63
918.39	226.66
918.70	226.65
919.00	226.66
919.30	226.72
919.60	226.72
919.91	226.71
920.21	226.71
920.51	226.69
920.81	226.68
921.12	226.70
921.42	226.69
921.72	226.71
922.02	226.71
922.32	226.73
922.63	226.73
922.93	226.80
923.23	226.81
923.53	226.80
923.83	226.71
924.13	226.72
924.44	226.72
924.74	226.73
925.04	226.75
925.34	226.75
925.64	226.70
925.94	226.70
926.24	226.77
926.55	226.76
926.85	226.77
927.15	226.77
927.45	226.77
927.75	226.77
928.05	226.77
928.35	226.76
928.65	226.78
928.95	226.79
929.26	226.73
929.56	226.75
929.86	226.77
930.16	226.76
930.46	226.75
930.76	226.75
931.06	226.70
931.36	226.66
931.66	226.68
931.96	226.69
932.26	226.70
932.56	226.65
932.86	226.66
933.16	226.66
933.46	226.65
933.76	226.63
934.06	226.65
934.36	226.69
934.66	226.69
934.96	226.67
935.26	226.67
935.56	226.69
935.86	226.66
936.16	226.64
936.46	226.62
936.76	226.62
937.06	226.60
937.36	226.61
937.66	226.62
937.96	226.61
938.26	226.58
938.56	226.57
938.86	226.58
939.16	226.60
939.46	226.61
939.76	226.62
940.06	226.62
940.35	226.60
940.65	226.54
940.95	226.55
941.25	226.52
941.55	226.50
941.85	226.49
942.15	226.52
942.45	226.55
942.75	226.55
943.04	226.55
943.34	226.58
943.64	226.57
943.94	226.55
944.24	226.55
944.54	226.56
944.84	226.56
945.13	226.54
945.43	226.52
945.73	226.51
946.03	226.50
946.33	226.49
946.62	226.48
946.92	226.47
947.22	226.48
947.52	226.49
947.82	226.50
948.11	226.48
948.41	226.46
948.71	226.42
949.01	226.43
949.31	226.42
949.60	226.41
949.90	226.43
950.20	226.43
950.50	226.42
950.79	226.41
951.09	226.43
951.39	226.43
951.69	226.42
951.98	226.44
952.28	226.45
952.58	226.45
952.87	226.45
953.17	226.47
953.47	226.45
953.76	226.45
954.06	226.43
954.36	226.42
954.66	226.42
954.95	226.45
955.25	226.46
955.55	226.47
955.84	226.45
956.14	226.46
956.44	226.47
956.73	226.45
957.03	226.46
957.32	226.46
957.62	226.45
957.92	226.48
958.21	226.46
958.51	226.60
958.81	226.62
959.10	226.63
959.40	226.66
959.69	226.67
959.99	226.68
960.29	226.69
960.58	226.68
960.88	226.73
961.17	226.71
961.47	226.73
961.76	226.71
962.06	226.73
962.36	226.72
962.65	226.72
962.95	226.73
963.24	226.71
963.54	226.72
963.83	226.72
964.13	226.71
964.42	226.70
964.72	226.59
965.01	226.60
965.31	226.59
965.60	226.56
965.90	226.63
966.19	226.60
966.49	226.61
966.78	226.60
967.08	226.59
967.37	226.59
967.67	226.57
967.96	226.59
968.26	226.59
968.55	226.60
968.85	226.60
969.14	226.59
969.43	226.59
969.73	226.58
970.02	226.58
970.32	226.57
970.61	226.55
970.91	226.52
971.20	226.50
971.49	226.48
971.79	226.50
972.08	226.41
972.38	226.42
972.67	226.41
972.96	226.44
973.26	226.41
973.55	226.45
973.85	226.44
974.14	226.43
974.43	226.44
974.73	226.41
975.02	226.40
975.31	226.40
975.61	226.40
975.90	226.39
976.19	226.38
976.49	226.39
976.78	226.40
977.07	226.40
977.37	226.41
977.66	226.43
977.95	226.41
978.24	226.42
978.54	226.44
978.83	226.44
979.12	226.42
979.42	226.43
979.71	226.40
980.00	226.40
980.29	226.40
980.59	226.38
980.88	226.42
981.17	226.42
981.46	226.42
981.76	226.42
982.05	226.46
982.34	226.47
982.63	226.47
982.93	226.47
983.22	226.50
983.51	226.50
983.80	226.52
984.09	226.53
984.39	226.52
984.68	226.50
984.97	226.51
985.26	226.50
985.55	226.51
985.85	226.49
986.14	226.51
986.43	226.52
986.72	226.52
987.01	226.48
987.30	226.48
987.59	226.47
987.89	226.47
988.18	226.43
988.47	226.42
988.76	226.41
989.05	226.40
989.34	226.38
989.63	226.41
989.92	226.39
990.22	226.37
990.51	226.37
990.80	226.36
991.09	226.37
991.38	226.39
991.67	226.37
991.96	226.36
992.25	226.37
992.54	226.34
992.83	226.34
993.12	226.34
993.41	226.36
993.70	226.41
993.99	226.43
994.28	226.45
994.58	226.47
994.87	226.46
995.16	226.46
995.45	226.45
995.74	226.40
996.03	226.42
996.32	226.45
996.61	226.47
996.90	226.47
997.19	226.47
997.48	226.47
997.77	226.46
998.06	226.47
998.34	226.45
998.63	226.46
998.92	226.46
999.21	226.48
999.50	226.48
999.79	226.43
1000.08	226.43
1000.37	226.43
1000.66	226.41
1000.95	226.44
1001.24	226.45
1001.53	226.47
1001.82	226.47
1002.11	226.44
1002.40	226.45
1002.68	226.47
1002.97	226.56
1003.26	226.55
1003.55	226.53
1003.84	226.54
1004.13	226.58
1004.42	226.57
1004.71	226.57
1004.99	226.57
1005.28	226.59
1005.57	226.58
1005.86	226.57
1006.15	226.56
1006.44	226.54
1006.72	226.55
1007.01	226.53
1007.30	226.53
1007.59	226.52
1007.88	226.51
1008.17	226.52
1008.45	226.49
1008.74	226.44
1009.03	226.38
1009.32	226.38
1009.60	226.38
1009.89	226.37
1010.18	226.32
1010.47	226.32
1010.76	226.32
1011.04	226.31
1011.33	226.31
1011.62	226.32
1011.91	226.33
1012.19	226.34
1012.48	226.34
1012.77	226.34
1013.05	226.38
1013.34	226.38
1013.63	226.37
1013.92	226.39
1014.20	226.38
1014.49	226.39
1014.78	226.40
1015.06	226.36
1015.35	226.36
1015.64	226.38
1015.92	226.40
1016.21	226.41
1016.50	226.42
1016.78	226.44
1017.07	226.45
1017.36	226.42
1017.64	226.40
1017.93	226.42
1018.22	226.40
1018.50	226.41
1018.79	226.40
1019.08	226.36
1019.36	226.36
1019.65	226.35
1019.93	226.39
1020.22	226.41
1020.51	226.47
1020.79	226.46
1021.08	226.21
1021.36	226.25
1021.65	226.33
1021.94	226.32
1022.22	226.45
1022.51	226.13
1022.79	227.00
1023.08	226.58
1023.36	227.92
1023.65	226.09
>>>>>End Processed Spectral Data<<<<<
