SpectraSuite Data File
++++++++++++++++++++++++++++++++++++
Date: Fri Oct 02 18:49:32 EDT 2015
User: lab3
Dark Spectrum Present: No
Reference Spectrum Present: No
Number of Sampled Component Spectra: 1
Spectrometers: USB2E7196
Integration Time (usec): 46000 (USB2E7196)
Spectra Averaged: 1500 (USB2E7196)
Boxcar Smoothing: 10 (USB2E7196)
Correct for Electrical Dark: No (USB2E7196)
Strobe/Lamp Enabled: No (USB2E7196)
Correct for Detector Non-linearity: No (USB2E7196)
Correct for Stray Light: No (USB2E7196)
Number of Pixels in Processed Spectrum: 2048
>>>>>Begin Processed Spectral Data<<<<<
339.09	0.00
339.48	215.47
339.86	217.02
340.24	218.49
340.63	219.67
341.01	223.05
341.39	222.52
341.78	223.89
342.16	225.14
342.54	225.37
342.93	213.87
343.31	224.68
343.69	225.22
344.07	225.68
344.46	226.11
344.84	226.50
345.22	226.72
345.60	226.97
345.99	227.16
346.37	227.28
346.75	227.39
347.13	227.47
347.52	227.54
347.90	227.63
348.28	227.67
348.66	227.73
349.05	227.72
349.43	227.77
349.81	227.83
350.19	227.88
350.57	227.95
350.96	228.03
351.34	228.12
351.72	228.21
352.10	228.31
352.48	228.38
352.87	228.43
353.25	228.49
353.63	228.56
354.01	228.62
354.39	228.69
354.77	228.78
355.15	228.88
355.54	228.92
355.92	228.95
356.30	229.03
356.68	229.17
357.06	229.25
357.44	229.30
357.82	229.35
358.20	229.47
358.58	229.52
358.97	229.59
359.35	229.67
359.73	229.76
360.11	229.80
360.49	229.87
360.87	229.92
361.25	229.99
361.63	230.08
362.01	230.13
362.39	230.17
362.77	230.22
363.15	230.25
363.53	230.29
363.91	230.33
364.29	230.35
364.67	230.26
365.05	230.29
365.43	230.32
365.81	230.35
366.19	230.37
366.57	230.43
366.95	230.43
367.33	230.40
367.71	230.40
368.09	230.42
368.47	230.41
368.85	230.40
369.23	230.41
369.61	230.34
369.99	230.37
370.37	230.36
370.75	230.43
371.13	230.39
371.51	230.35
371.89	230.33
372.27	230.31
372.65	230.28
373.03	230.23
373.41	230.20
373.78	230.15
374.16	230.05
374.54	229.95
374.92	229.90
375.30	229.86
375.68	229.80
376.06	229.75
376.44	229.70
376.82	229.65
377.19	229.61
377.57	229.56
377.95	229.46
378.33	229.40
378.71	229.25
379.09	229.20
379.47	229.17
379.84	229.09
380.22	229.03
380.60	228.97
380.98	228.93
381.36	228.88
381.73	228.82
382.11	228.80
382.49	228.76
382.87	228.71
383.25	228.68
383.62	228.78
384.00	228.71
384.38	228.67
384.76	228.66
385.13	228.65
385.51	228.61
385.89	228.56
386.27	228.53
386.64	228.51
387.02	228.47
387.40	228.42
387.78	228.41
388.15	228.38
388.53	228.35
388.91	228.32
389.29	228.27
389.66	228.27
390.04	228.23
390.42	228.22
390.79	228.21
391.17	228.19
391.55	228.03
391.92	228.02
392.30	228.03
392.68	228.00
393.05	227.98
393.43	227.98
393.81	227.99
394.18	227.97
394.56	227.98
394.94	228.01
395.31	228.01
395.69	228.04
396.06	228.08
396.44	228.10
396.82	228.10
397.19	228.19
397.57	228.19
397.95	228.23
398.32	228.23
398.70	228.27
399.07	228.33
399.45	228.38
399.82	228.41
400.20	228.43
400.58	228.49
400.95	228.49
401.33	228.57
401.70	228.72
402.08	228.82
402.45	228.89
402.83	229.01
403.20	229.12
403.58	229.21
403.95	229.35
404.33	229.49
404.71	229.63
405.08	229.84
405.46	230.00
405.83	230.18
406.21	230.37
406.58	230.58
406.96	230.78
407.33	231.02
407.70	231.29
408.08	231.67
408.45	231.98
408.83	232.33
409.20	232.65
409.58	232.92
409.95	233.32
410.33	233.74
410.70	234.13
411.08	234.59
411.45	235.07
411.82	235.56
412.20	236.13
412.57	236.81
412.95	237.34
413.32	238.04
413.69	238.76
414.07	239.51
414.44	240.33
414.82	241.18
415.19	242.16
415.56	243.17
415.94	244.20
416.31	245.37
416.68	246.54
417.06	247.90
417.43	249.17
417.81	250.62
418.18	252.11
418.55	253.74
418.93	255.43
419.30	257.20
419.67	259.09
420.04	261.01
420.42	263.01
420.79	265.34
421.16	267.67
421.54	270.04
421.91	272.54
422.28	275.12
422.66	277.90
423.03	280.57
423.40	283.36
423.77	286.34
424.15	289.40
424.52	292.59
424.89	296.05
425.26	299.48
425.64	302.67
426.01	306.26
426.38	309.92
426.75	313.71
427.13	317.59
427.50	321.66
427.87	325.88
428.24	330.16
428.61	334.27
428.99	338.73
429.36	343.60
429.73	348.27
430.10	352.95
430.47	357.74
430.85	362.65
431.22	367.94
431.59	373.36
431.96	378.67
432.33	384.56
432.70	390.15
433.08	396.79
433.45	403.05
433.82	409.22
434.19	416.12
434.56	422.91
434.93	429.48
435.30	435.98
435.68	443.33
436.05	450.52
436.42	457.65
436.79	464.17
437.16	471.20
437.53	478.75
437.90	486.26
438.27	493.62
438.64	501.56
439.01	508.75
439.38	515.33
439.75	521.66
440.13	528.77
440.50	535.51
440.87	540.84
441.24	546.69
441.61	553.08
441.98	557.69
442.35	563.18
442.72	568.75
443.09	574.02
443.46	577.30
443.83	579.66
444.20	581.60
444.57	584.57
444.94	586.16
445.31	587.77
445.68	589.13
446.05	590.03
446.42	589.41
446.79	588.63
447.16	587.91
447.53	587.22
447.90	584.68
448.27	582.26
448.64	578.71
449.01	576.16
449.37	571.31
449.74	566.92
450.11	561.36
450.48	555.30
450.85	549.25
451.22	544.04
451.59	538.97
451.96	534.38
452.33	527.78
452.70	521.94
453.07	514.89
453.43	507.85
453.80	501.02
454.17	494.52
454.54	488.52
454.91	481.77
455.28	475.46
455.65	469.51
456.02	463.26
456.38	458.22
456.75	451.74
457.12	446.53
457.49	441.29
457.86	436.34
458.23	432.04
458.59	427.27
458.96	422.40
459.33	418.12
459.70	413.78
460.07	410.48
460.43	406.59
460.80	402.96
461.17	399.82
461.54	396.40
461.91	393.23
462.27	389.99
462.64	387.38
463.01	384.36
463.38	381.32
463.74	378.57
464.11	376.15
464.48	374.00
464.85	371.63
465.21	369.86
465.58	367.87
465.95	365.57
466.32	363.74
466.68	361.95
467.05	360.16
467.42	358.40
467.78	356.50
468.15	354.76
468.52	353.49
468.88	351.78
469.25	350.22
469.62	348.97
469.98	347.61
470.35	346.41
470.72	345.31
471.08	344.20
471.45	343.28
471.82	342.23
472.18	341.13
472.55	340.43
472.92	339.53
473.28	338.84
473.65	338.08
474.02	337.37
474.38	336.77
474.75	336.42
475.11	335.93
475.48	335.71
475.85	335.46
476.21	335.34
476.58	335.26
476.94	335.40
477.31	335.47
477.67	335.56
478.04	335.77
478.41	336.05
478.77	336.47
479.14	336.74
479.50	337.23
479.87	337.87
480.23	338.52
480.60	339.15
480.96	339.79
481.33	340.73
481.69	341.67
482.06	342.60
482.42	343.46
482.79	344.53
483.15	345.77
483.52	347.18
483.88	348.53
484.25	349.98
484.61	351.48
484.98	353.12
485.34	354.95
485.71	356.87
486.07	358.93
486.44	360.96
486.80	363.24
487.17	365.62
487.53	368.22
487.90	370.93
488.26	373.90
488.62	377.01
488.99	380.14
489.35	383.43
489.72	387.01
490.08	390.76
490.44	394.63
490.81	398.65
491.17	402.77
491.54	407.20
491.90	411.78
492.26	416.68
492.63	421.83
492.99	427.20
493.36	432.74
493.72	438.58
494.08	444.59
494.45	450.95
494.81	457.55
495.17	464.33
495.54	471.50
495.90	478.93
496.26	486.56
496.63	494.43
496.99	502.62
497.35	511.20
497.72	520.04
498.08	529.10
498.44	538.49
498.80	548.44
499.17	558.61
499.53	569.09
499.89	579.96
500.26	591.04
500.62	602.41
500.98	614.39
501.34	626.57
501.71	639.24
502.07	652.14
502.43	665.54
502.79	679.18
503.16	693.26
503.52	707.56
503.88	722.28
504.24	737.40
504.60	752.78
504.97	768.63
505.33	784.90
505.69	802.08
506.05	819.53
506.41	836.93
506.78	854.56
507.14	872.74
507.50	891.31
507.86	910.27
508.22	929.45
508.59	948.51
508.95	968.39
509.31	989.01
509.67	1010.23
510.03	1031.49
510.39	1052.84
510.75	1074.42
511.12	1096.28
511.48	1118.27
511.84	1140.41
512.20	1162.96
512.56	1186.34
512.92	1209.76
513.28	1232.79
513.64	1256.16
514.00	1279.95
514.37	1304.02
514.73	1328.13
515.09	1352.19
515.45	1376.60
515.81	1401.10
516.17	1425.83
516.53	1449.99
516.89	1474.09
517.25	1498.46
517.61	1522.77
517.97	1547.55
518.33	1571.80
518.69	1596.05
519.05	1620.85
519.41	1645.92
519.77	1671.07
520.13	1695.61
520.49	1720.12
520.85	1745.04
521.21	1769.35
521.57	1794.17
521.93	1818.54
522.29	1843.32
522.65	1867.70
523.01	1892.07
523.37	1916.09
523.73	1940.76
524.09	1965.23
524.45	1989.49
524.81	2013.35
525.17	2037.06
525.53	2060.15
525.89	2083.74
526.25	2107.32
526.61	2129.93
526.97	2152.69
527.33	2175.50
527.68	2197.88
528.04	2219.56
528.40	2240.24
528.76	2261.50
529.12	2282.13
529.48	2302.28
529.84	2320.84
530.20	2340.01
530.56	2358.53
530.91	2377.27
531.27	2395.62
531.63	2413.21
531.99	2430.42
532.35	2447.04
532.71	2463.65
533.07	2480.96
533.42	2496.54
533.78	2513.07
534.14	2529.78
534.50	2545.40
534.86	2560.90
535.21	2574.53
535.57	2588.60
535.93	2602.53
536.29	2615.19
536.65	2627.85
537.00	2640.00
537.36	2652.90
537.72	2664.16
538.08	2675.15
538.44	2685.46
538.79	2695.39
539.15	2704.46
539.51	2713.08
539.87	2720.90
540.22	2727.04
540.58	2733.27
540.94	2740.75
541.29	2746.47
541.65	2750.35
542.01	2753.82
542.37	2756.43
542.72	2760.48
543.08	2762.86
543.44	2765.70
543.79	2767.47
544.15	2768.32
544.51	2769.63
544.87	2769.86
545.22	2769.34
545.58	2768.12
545.94	2766.95
546.29	2764.43
546.65	2761.94
547.01	2759.45
547.36	2757.73
547.72	2755.80
548.07	2752.20
548.43	2747.01
548.79	2741.13
549.14	2736.59
549.50	2732.01
549.86	2726.67
550.21	2720.14
550.57	2714.51
550.92	2706.66
551.28	2699.53
551.64	2692.60
551.99	2685.07
552.35	2676.94
552.70	2669.17
553.06	2661.66
553.41	2653.45
553.77	2645.00
554.13	2636.39
554.48	2626.86
554.84	2616.22
555.19	2606.33
555.55	2596.29
555.90	2586.28
556.26	2576.67
556.61	2565.99
556.97	2553.77
557.32	2542.08
557.68	2530.26
558.03	2518.24
558.39	2507.30
558.74	2496.62
559.10	2484.25
559.45	2472.23
559.81	2460.78
560.16	2448.59
560.52	2436.59
560.87	2424.89
561.23	2412.40
561.58	2400.20
561.94	2387.54
562.29	2374.31
562.64	2361.70
563.00	2348.80
563.35	2336.46
563.71	2323.86
564.06	2311.06
564.42	2298.98
564.77	2286.16
565.12	2273.37
565.48	2260.52
565.83	2247.78
566.19	2234.94
566.54	2222.11
566.89	2208.05
567.25	2194.26
567.60	2181.71
567.96	2168.33
568.31	2153.64
568.66	2139.79
569.02	2126.85
569.37	2113.96
569.72	2101.58
570.08	2087.85
570.43	2073.84
570.78	2059.43
571.14	2044.46
571.49	2030.26
571.84	2016.58
572.20	2001.64
572.55	1986.99
572.90	1972.06
573.26	1957.11
573.61	1941.71
573.96	1926.73
574.31	1912.12
574.67	1897.33
575.02	1881.73
575.37	1866.12
575.72	1851.42
576.08	1836.92
576.43	1821.28
576.78	1806.06
577.13	1791.20
577.49	1776.69
577.84	1762.70
578.19	1747.80
578.54	1733.12
578.90	1717.92
579.25	1702.60
579.60	1688.91
579.95	1674.96
580.30	1660.96
580.66	1646.68
581.01	1632.31
581.36	1617.99
581.71	1604.68
582.06	1591.18
582.42	1577.90
582.77	1564.65
583.12	1551.25
583.47	1537.82
583.82	1524.52
584.17	1510.86
584.53	1496.75
584.88	1483.01
585.23	1468.87
585.58	1455.69
585.93	1442.69
586.28	1430.41
586.63	1418.14
586.98	1405.26
587.34	1392.51
587.69	1379.49
588.04	1366.84
588.39	1354.56
588.74	1342.38
589.09	1329.93
589.44	1317.14
589.79	1305.03
590.14	1292.99
590.49	1280.93
590.84	1268.96
591.19	1257.44
591.54	1245.72
591.89	1234.16
592.25	1222.76
592.60	1211.04
592.95	1199.65
593.30	1188.45
593.65	1176.91
594.00	1165.49
594.35	1154.76
594.70	1143.58
595.05	1133.34
595.40	1122.92
595.75	1112.38
596.10	1102.41
596.45	1092.05
596.80	1082.03
597.15	1071.79
597.50	1061.73
597.85	1052.03
598.19	1042.19
598.54	1032.43
598.89	1023.07
599.24	1014.03
599.59	1004.89
599.94	996.69
600.29	988.22
600.64	979.43
600.99	970.32
601.34	961.62
601.69	952.55
602.04	944.16
602.39	935.58
602.74	927.04
603.08	918.48
603.43	909.85
603.78	901.43
604.13	893.25
604.48	884.97
604.83	876.90
605.18	868.71
605.53	860.70
605.87	852.44
606.22	844.63
606.57	836.70
606.92	828.64
607.27	820.47
607.62	812.76
607.96	805.42
608.31	798.54
608.66	791.43
609.01	784.62
609.36	777.94
609.70	770.95
610.05	763.99
610.40	757.29
610.75	750.60
611.10	744.24
611.44	737.71
611.79	731.30
612.14	724.80
612.49	718.46
612.83	712.39
613.18	706.47
613.53	700.39
613.88	694.40
614.22	688.86
614.57	683.20
614.92	677.32
615.27	671.63
615.61	665.97
615.96	660.36
616.31	654.78
616.65	649.25
617.00	644.00
617.35	638.83
617.70	633.72
618.04	628.62
618.39	623.48
618.74	618.60
619.08	613.75
619.43	609.02
619.78	604.31
620.12	599.53
620.47	594.97
620.82	590.48
621.16	585.97
621.51	581.33
621.85	576.80
622.20	572.48
622.55	568.13
622.89	563.86
623.24	559.58
623.59	555.38
623.93	551.35
624.28	547.35
624.62	543.48
624.97	539.65
625.32	535.82
625.66	531.93
626.01	527.99
626.35	524.15
626.70	520.34
627.04	516.71
627.39	513.06
627.73	509.55
628.08	506.13
628.43	502.73
628.77	499.43
629.12	496.21
629.46	492.97
629.81	489.69
630.15	486.44
630.50	483.29
630.84	480.15
631.19	477.06
631.53	474.12
631.88	471.14
632.22	468.15
632.57	465.47
632.91	462.82
633.26	460.27
633.60	457.73
633.95	455.26
634.29	452.67
634.64	450.17
634.98	447.46
635.32	444.93
635.67	442.60
636.01	440.16
636.36	437.79
636.70	435.60
637.05	433.37
637.39	431.15
637.73	428.99
638.08	426.94
638.42	424.84
638.77	422.62
639.11	420.34
639.45	418.18
639.80	415.94
640.14	413.84
640.49	411.68
640.83	409.50
641.17	407.42
641.52	405.38
641.86	403.37
642.20	401.58
642.55	399.61
642.89	397.66
643.23	395.82
643.58	394.15
643.92	392.32
644.26	390.57
644.61	388.87
644.95	387.10
645.29	385.30
645.64	383.52
645.98	381.82
646.32	380.24
646.66	378.65
647.01	377.06
647.35	375.53
647.69	374.00
648.04	372.61
648.38	371.11
648.72	369.66
649.06	368.20
649.41	366.75
649.75	365.36
650.09	363.98
650.43	362.61
650.78	361.16
651.12	359.79
651.46	358.45
651.80	357.14
652.14	355.89
652.49	354.66
652.83	353.40
653.17	352.20
653.51	351.03
653.85	349.92
654.20	348.76
654.54	347.51
654.88	346.36
655.22	345.23
655.56	344.09
655.90	343.00
656.25	341.96
656.59	340.89
656.93	339.89
657.27	338.91
657.61	337.85
657.95	336.86
658.29	335.85
658.64	334.93
658.98	333.96
659.32	333.02
659.66	332.12
660.00	331.26
660.34	330.38
660.68	329.46
661.02	328.49
661.36	327.57
661.70	326.70
662.05	325.84
662.39	324.98
662.73	324.21
663.07	323.43
663.41	322.63
663.75	321.81
664.09	321.00
664.43	320.14
664.77	319.38
665.11	318.56
665.45	317.82
665.79	317.06
666.13	316.26
666.47	315.46
666.81	314.65
667.15	313.80
667.49	313.08
667.83	312.43
668.17	311.74
668.51	311.11
668.85	310.48
669.19	309.88
669.53	309.19
669.87	308.49
670.21	307.81
670.55	307.17
670.89	306.60
671.23	306.00
671.57	305.42
671.91	304.87
672.25	304.35
672.58	303.81
672.92	303.19
673.26	302.69
673.60	302.18
673.94	301.68
674.28	301.21
674.62	300.69
674.96	300.13
675.30	299.63
675.64	299.07
675.97	298.53
676.31	297.96
676.65	297.44
676.99	296.99
677.33	296.44
677.67	295.94
678.01	295.37
678.34	294.88
678.68	294.40
679.02	293.86
679.36	293.34
679.70	292.81
680.04	292.33
680.37	291.83
680.71	291.37
681.05	290.92
681.39	290.41
681.73	289.89
682.06	289.37
682.40	288.88
682.74	288.47
683.08	288.07
683.42	287.64
683.75	287.22
684.09	286.72
684.43	286.30
684.77	285.85
685.10	285.46
685.44	285.04
685.78	284.61
686.12	284.23
686.45	283.80
686.79	283.37
687.13	282.98
687.46	282.55
687.80	282.14
688.14	281.68
688.48	281.30
688.81	280.89
689.15	280.54
689.49	280.14
689.82	279.70
690.16	279.22
690.50	278.81
690.83	278.39
691.17	277.98
691.51	277.59
691.84	277.21
692.18	276.78
692.52	276.34
692.85	275.93
693.19	275.55
693.52	275.16
693.86	274.75
694.20	274.36
694.53	273.99
694.87	273.57
695.21	273.17
695.54	272.78
695.88	272.39
696.21	271.97
696.55	271.57
696.88	271.20
697.22	270.82
697.56	270.45
697.89	270.04
698.23	269.67
698.56	269.26
698.90	268.89
699.23	268.50
699.57	268.13
699.90	267.75
700.24	267.36
700.58	267.03
700.91	266.72
701.25	266.48
701.58	266.18
701.92	265.88
702.25	265.55
702.59	265.19
702.92	264.85
703.26	264.50
703.59	264.16
703.93	263.92
704.26	263.61
704.60	263.27
704.93	262.93
705.26	262.59
705.60	262.31
705.93	261.95
706.27	261.67
706.60	261.40
706.94	261.12
707.27	260.79
707.61	260.45
707.94	260.09
708.27	259.66
708.61	259.30
708.94	258.96
709.28	258.65
709.61	258.33
709.94	258.06
710.28	257.79
710.61	257.54
710.95	257.15
711.28	256.94
711.61	256.65
711.95	256.41
712.28	256.13
712.61	255.83
712.95	255.63
713.28	255.42
713.61	255.11
713.95	254.81
714.28	254.55
714.61	254.28
714.95	254.02
715.28	253.77
715.61	253.51
715.95	253.27
716.28	253.04
716.61	252.84
716.95	252.58
717.28	252.34
717.61	252.09
717.94	251.85
718.28	251.52
718.61	251.28
718.94	251.02
719.27	250.79
719.61	250.59
719.94	250.34
720.27	250.03
720.60	249.82
720.94	249.60
721.27	249.39
721.60	249.19
721.93	248.98
722.27	248.80
722.60	248.62
722.93	248.39
723.26	248.19
723.59	247.95
723.93	247.76
724.26	247.55
724.59	247.35
724.92	247.17
725.25	247.03
725.59	246.85
725.92	246.69
726.25	246.50
726.58	246.32
726.91	246.12
727.24	245.96
727.57	245.79
727.91	245.60
728.24	245.46
728.57	245.28
728.90	245.13
729.23	244.93
729.56	244.80
729.89	244.64
730.22	244.46
730.55	244.30
730.89	244.12
731.22	243.95
731.55	243.79
731.88	243.62
732.21	243.44
732.54	243.28
732.87	243.12
733.20	242.98
733.53	242.82
733.86	242.67
734.19	242.51
734.52	242.38
734.85	242.32
735.18	242.15
735.51	242.03
735.84	241.88
736.17	241.78
736.50	241.58
736.83	241.59
737.16	241.46
737.49	241.34
737.82	241.22
738.15	241.11
738.48	240.98
738.81	240.86
739.14	240.72
739.47	240.57
739.80	240.44
740.13	240.32
740.46	240.18
740.79	240.04
741.12	239.90
741.45	239.75
741.78	239.55
742.11	239.46
742.44	239.30
742.77	239.20
743.10	239.05
743.43	238.93
743.75	238.68
744.08	238.75
744.41	238.62
744.74	238.49
745.07	238.35
745.40	238.26
745.73	238.20
746.06	238.09
746.39	238.00
746.71	237.89
747.04	237.78
747.37	237.68
747.70	237.60
748.03	237.51
748.36	237.45
748.68	237.34
749.01	237.21
749.34	237.12
749.67	237.02
750.00	236.94
750.33	236.94
750.65	236.85
750.98	236.56
751.31	236.46
751.64	236.38
751.97	236.36
752.29	236.25
752.62	236.11
752.95	236.00
753.28	235.90
753.60	235.81
753.93	235.74
754.26	235.65
754.59	235.53
754.91	235.43
755.24	235.32
755.57	235.29
755.90	235.20
756.22	235.10
756.55	234.99
756.88	234.88
757.20	234.71
757.53	234.59
757.86	234.51
758.19	234.44
758.51	234.36
758.84	234.21
759.17	234.13
759.49	234.07
759.82	234.05
760.15	233.99
760.47	233.91
760.80	233.81
761.13	233.75
761.45	233.68
761.78	233.61
762.11	233.55
762.43	233.42
762.76	233.36
763.08	233.32
763.41	233.27
763.74	233.21
764.06	233.15
764.39	233.09
764.71	233.04
765.04	232.96
765.37	232.90
765.69	232.85
766.02	232.79
766.34	232.72
766.67	232.61
767.00	232.58
767.32	232.59
767.65	232.61
767.97	232.55
768.30	232.51
768.62	232.45
768.95	232.39
769.27	232.33
769.60	232.30
769.92	232.22
770.25	232.14
770.57	232.07
770.90	232.02
771.22	231.97
771.55	231.93
771.87	231.90
772.20	231.85
772.52	231.91
772.85	232.01
773.17	231.98
773.50	231.94
773.82	231.87
774.15	231.77
774.47	231.65
774.80	231.59
775.12	231.54
775.45	231.51
775.77	231.48
776.09	231.46
776.42	231.41
776.74	231.43
777.07	231.39
777.39	231.37
777.72	231.33
778.04	231.32
778.36	231.27
778.69	231.24
779.01	231.22
779.33	231.07
779.66	230.89
779.98	230.85
780.31	230.82
780.63	230.84
780.95	230.83
781.28	230.80
781.60	230.77
781.92	230.74
782.25	230.70
782.57	230.67
782.89	230.63
783.22	230.60
783.54	230.55
783.86	230.52
784.19	230.49
784.51	230.50
784.83	230.46
785.16	230.44
785.48	230.40
785.80	230.38
786.12	230.37
786.45	230.35
786.77	230.34
787.09	230.30
787.42	230.23
787.74	230.22
788.06	230.19
788.38	230.16
788.71	230.13
789.03	230.11
789.35	230.11
789.67	230.07
789.99	230.06
790.32	230.01
790.64	230.01
790.96	230.10
791.28	230.03
791.61	230.00
791.93	229.98
792.25	229.95
792.57	230.01
792.89	229.97
793.21	229.96
793.54	229.92
793.86	229.89
794.18	229.88
794.50	229.84
794.82	229.82
795.14	229.82
795.47	229.82
795.79	229.81
796.11	229.76
796.43	229.74
796.75	229.71
797.07	229.71
797.39	229.68
797.71	229.57
798.04	229.56
798.36	229.55
798.68	229.53
799.00	229.53
799.32	229.45
799.64	229.45
799.96	229.43
800.28	229.45
800.60	229.43
800.92	229.42
801.24	229.39
801.56	229.39
801.89	229.36
802.21	229.35
802.53	229.30
802.85	229.31
803.17	229.35
803.49	229.32
803.81	229.30
804.13	229.27
804.45	229.24
804.77	229.24
805.09	229.22
805.41	229.19
805.73	229.16
806.05	229.11
806.37	229.10
806.69	229.07
807.01	229.04
807.33	229.04
807.65	228.98
807.97	229.03
808.28	229.00
808.60	228.98
808.92	228.96
809.24	229.03
809.56	229.00
809.88	228.94
810.20	228.94
810.52	228.95
810.84	228.92
811.16	228.90
811.48	228.88
811.80	228.91
812.12	228.90
812.43	228.92
812.75	228.92
813.07	228.89
813.39	228.89
813.71	228.87
814.03	228.84
814.35	228.84
814.67	228.78
814.98	228.75
815.30	228.73
815.62	228.70
815.94	228.61
816.26	228.62
816.58	228.58
816.89	228.58
817.21	228.54
817.53	228.54
817.85	228.52
818.17	228.51
818.48	228.45
818.80	228.46
819.12	228.42
819.44	228.38
819.76	228.37
820.07	228.35
820.39	228.34
820.71	228.35
821.03	228.33
821.34	228.32
821.66	228.33
821.98	228.35
822.30	228.34
822.61	228.40
822.93	228.37
823.25	228.36
823.57	228.34
823.88	228.35
824.20	228.35
824.52	228.37
824.83	228.35
825.15	228.33
825.47	228.31
825.79	228.32
826.10	228.31
826.42	228.30
826.74	228.29
827.05	228.28
827.37	228.28
827.69	228.27
828.00	228.27
828.32	228.26
828.64	228.24
828.95	228.30
829.27	228.26
829.58	228.26
829.90	228.27
830.22	228.27
830.53	228.25
830.85	228.23
831.17	228.18
831.48	228.19
831.80	228.20
832.11	228.18
832.43	228.16
832.75	228.16
833.06	228.23
833.38	228.19
833.69	228.17
834.01	228.16
834.32	228.15
834.64	228.13
834.96	228.12
835.27	228.12
835.59	228.07
835.90	228.06
836.22	228.05
836.53	228.03
836.85	228.02
837.16	228.15
837.48	228.15
837.79	228.19
838.11	228.19
838.42	228.18
838.74	228.20
839.05	228.18
839.37	228.18
839.68	228.10
840.00	228.10
840.31	228.12
840.63	228.10
840.94	228.09
841.26	228.08
841.57	228.08
841.88	228.07
842.20	228.05
842.51	228.04
842.83	228.03
843.14	228.14
843.46	228.13
843.77	228.06
844.08	228.04
844.40	228.00
844.71	228.00
845.03	227.99
845.34	227.97
845.65	227.97
845.97	227.97
846.28	227.98
846.60	227.98
846.91	227.96
847.22	227.96
847.54	227.99
847.85	227.99
848.16	227.98
848.48	227.96
848.79	228.00
849.10	228.00
849.42	228.01
849.73	227.89
850.04	227.88
850.36	227.83
850.67	227.86
850.98	227.87
851.30	227.87
851.61	227.86
851.92	227.86
852.23	227.90
852.55	227.90
852.86	227.90
853.17	227.91
853.49	227.93
853.80	227.95
854.11	227.96
854.42	227.97
854.74	227.95
855.05	227.96
855.36	227.90
855.67	227.90
855.99	227.90
856.30	228.04
856.61	228.04
856.92	228.04
857.23	228.04
857.55	228.02
857.86	228.01
858.17	228.04
858.48	228.01
858.79	227.98
859.11	227.99
859.42	227.98
859.73	227.96
860.04	227.95
860.35	227.92
860.66	227.87
860.98	227.87
861.29	227.89
861.60	227.88
861.91	227.91
862.22	227.88
862.53	227.86
862.84	227.71
863.16	227.72
863.47	227.70
863.78	227.69
864.09	227.70
864.40	227.71
864.71	227.70
865.02	227.71
865.33	227.69
865.64	227.67
865.95	227.66
866.27	227.74
866.58	227.72
866.89	227.74
867.20	227.74
867.51	227.71
867.82	227.71
868.13	227.74
868.44	227.71
868.75	227.74
869.06	227.75
869.37	227.77
869.68	227.74
869.99	227.76
870.30	227.76
870.61	227.77
870.92	227.74
871.23	227.74
871.54	227.76
871.85	227.79
872.16	227.80
872.47	227.80
872.78	227.72
873.09	227.74
873.40	227.73
873.71	227.74
874.02	227.75
874.33	227.73
874.64	227.71
874.95	227.73
875.26	227.69
875.56	227.68
875.87	227.68
876.18	227.68
876.49	227.80
876.80	227.79
877.11	227.77
877.42	227.77
877.73	227.77
878.04	227.74
878.35	227.73
878.66	227.73
878.96	227.73
879.27	227.72
879.58	227.71
879.89	227.70
880.20	227.73
880.51	227.73
880.82	227.73
881.12	227.73
881.43	227.71
881.74	227.69
882.05	227.69
882.36	227.69
882.67	227.70
882.97	227.57
883.28	227.56
883.59	227.55
883.90	227.56
884.21	227.58
884.51	227.57
884.82	227.55
885.13	227.54
885.44	227.54
885.74	227.54
886.05	227.54
886.36	227.53
886.67	227.49
886.98	227.54
887.28	227.55
887.59	227.55
887.90	227.55
888.20	227.56
888.51	227.59
888.82	227.56
889.13	227.56
889.43	227.67
889.74	227.66
890.05	227.66
890.35	227.64
890.66	227.61
890.97	227.61
891.28	227.60
891.58	227.61
891.89	227.60
892.20	227.59
892.50	227.57
892.81	227.58
893.12	227.57
893.42	227.51
893.73	227.52
894.04	227.50
894.34	227.51
894.65	227.50
894.95	227.49
895.26	227.50
895.57	227.54
895.87	227.41
896.18	227.44
896.48	227.44
896.79	227.44
897.10	227.47
897.40	227.47
897.71	227.49
898.01	227.48
898.32	227.49
898.63	227.49
898.93	227.49
899.24	227.50
899.54	227.50
899.85	227.51
900.15	227.49
900.46	227.50
900.76	227.51
901.07	227.52
901.38	227.50
901.68	227.51
901.99	227.44
902.29	227.46
902.60	227.45
902.90	227.44
903.21	227.43
903.51	227.42
903.82	227.44
904.12	227.43
904.43	227.44
904.73	227.43
905.03	227.44
905.34	227.56
905.64	227.55
905.95	227.55
906.25	227.54
906.56	227.54
906.86	227.54
907.17	227.53
907.47	227.53
907.77	227.53
908.08	227.51
908.38	227.52
908.69	227.53
908.99	227.55
909.30	227.56
909.60	227.56
909.90	227.56
910.21	227.53
910.51	227.51
910.81	227.50
911.12	227.51
911.42	227.51
911.73	227.37
912.03	227.37
912.33	227.39
912.64	227.38
912.94	227.37
913.24	227.35
913.55	227.33
913.85	227.32
914.15	227.34
914.46	227.35
914.76	227.34
915.06	227.32
915.37	227.30
915.67	227.29
915.97	227.29
916.27	227.27
916.58	227.28
916.88	227.28
917.18	227.27
917.49	227.35
917.79	227.34
918.09	227.36
918.39	227.40
918.70	227.39
919.00	227.40
919.30	227.46
919.60	227.45
919.91	227.44
920.21	227.45
920.51	227.43
920.81	227.42
921.12	227.44
921.42	227.44
921.72	227.45
922.02	227.46
922.32	227.47
922.63	227.47
922.93	227.53
923.23	227.54
923.53	227.53
923.83	227.45
924.13	227.46
924.44	227.46
924.74	227.47
925.04	227.50
925.34	227.50
925.64	227.44
925.94	227.45
926.24	227.51
926.55	227.50
926.85	227.51
927.15	227.51
927.45	227.51
927.75	227.51
928.05	227.51
928.35	227.49
928.65	227.50
928.95	227.52
929.26	227.47
929.56	227.49
929.86	227.50
930.16	227.49
930.46	227.48
930.76	227.48
931.06	227.42
931.36	227.39
931.66	227.41
931.96	227.42
932.26	227.43
932.56	227.38
932.86	227.38
933.16	227.39
933.46	227.38
933.76	227.35
934.06	227.38
934.36	227.43
934.66	227.43
934.96	227.40
935.26	227.40
935.56	227.42
935.86	227.38
936.16	227.36
936.46	227.36
936.76	227.35
937.06	227.34
937.36	227.35
937.66	227.35
937.96	227.34
938.26	227.31
938.56	227.29
938.86	227.30
939.16	227.33
939.46	227.33
939.76	227.34
940.06	227.34
940.35	227.31
940.65	227.25
940.95	227.26
941.25	227.24
941.55	227.22
941.85	227.20
942.15	227.23
942.45	227.26
942.75	227.26
943.04	227.28
943.34	227.29
943.64	227.29
943.94	227.27
944.24	227.28
944.54	227.29
944.84	227.29
945.13	227.28
945.43	227.25
945.73	227.24
946.03	227.23
946.33	227.22
946.62	227.22
946.92	227.22
947.22	227.22
947.52	227.23
947.82	227.24
948.11	227.24
948.41	227.22
948.71	227.17
949.01	227.19
949.31	227.17
949.60	227.17
949.90	227.20
950.20	227.19
950.50	227.18
950.79	227.18
951.09	227.20
951.39	227.20
951.69	227.19
951.98	227.21
952.28	227.22
952.58	227.22
952.87	227.23
953.17	227.25
953.47	227.24
953.76	227.24
954.06	227.23
954.36	227.21
954.66	227.20
954.95	227.24
955.25	227.24
955.55	227.25
955.84	227.23
956.14	227.23
956.44	227.24
956.73	227.24
957.03	227.25
957.32	227.25
957.62	227.24
957.92	227.26
958.21	227.24
958.51	227.39
958.81	227.41
959.10	227.42
959.40	227.45
959.69	227.46
959.99	227.47
960.29	227.48
960.58	227.48
960.88	227.52
961.17	227.51
961.47	227.53
961.76	227.51
962.06	227.53
962.36	227.52
962.65	227.51
962.95	227.52
963.24	227.50
963.54	227.50
963.83	227.52
964.13	227.50
964.42	227.50
964.72	227.39
965.01	227.39
965.31	227.37
965.60	227.33
965.90	227.41
966.19	227.38
966.49	227.39
966.78	227.38
967.08	227.38
967.37	227.38
967.67	227.36
967.96	227.39
968.26	227.39
968.55	227.40
968.85	227.40
969.14	227.40
969.43	227.40
969.73	227.39
970.02	227.39
970.32	227.38
970.61	227.34
970.91	227.31
971.20	227.29
971.49	227.28
971.79	227.30
972.08	227.20
972.38	227.22
972.67	227.21
972.96	227.23
973.26	227.20
973.55	227.24
973.85	227.24
974.14	227.22
974.43	227.22
974.73	227.19
975.02	227.19
975.31	227.18
975.61	227.19
975.90	227.18
976.19	227.17
976.49	227.18
976.78	227.20
977.07	227.20
977.37	227.21
977.66	227.23
977.95	227.20
978.24	227.21
978.54	227.23
978.83	227.22
979.12	227.21
979.42	227.21
979.71	227.19
980.00	227.18
980.29	227.19
980.59	227.17
980.88	227.21
981.17	227.20
981.46	227.21
981.76	227.21
982.05	227.25
982.34	227.25
982.63	227.26
982.93	227.27
983.22	227.30
983.51	227.31
983.80	227.32
984.09	227.35
984.39	227.34
984.68	227.33
984.97	227.33
985.26	227.33
985.55	227.35
985.85	227.32
986.14	227.34
986.43	227.36
986.72	227.35
987.01	227.32
987.30	227.33
987.59	227.32
987.89	227.32
988.18	227.28
988.47	227.28
988.76	227.26
989.05	227.25
989.34	227.23
989.63	227.27
989.92	227.25
990.22	227.23
990.51	227.22
990.80	227.21
991.09	227.21
991.38	227.22
991.67	227.20
991.96	227.19
992.25	227.18
992.54	227.15
992.83	227.15
993.12	227.15
993.41	227.16
993.70	227.21
993.99	227.23
994.28	227.24
994.58	227.25
994.87	227.23
995.16	227.23
995.45	227.21
995.74	227.16
996.03	227.18
996.32	227.21
996.61	227.24
996.90	227.24
997.19	227.23
997.48	227.24
997.77	227.23
998.06	227.24
998.34	227.23
998.63	227.24
998.92	227.24
999.21	227.26
999.50	227.26
999.79	227.20
1000.08	227.19
1000.37	227.20
1000.66	227.19
1000.95	227.23
1001.24	227.24
1001.53	227.26
1001.82	227.26
1002.11	227.22
1002.40	227.22
1002.68	227.24
1002.97	227.32
1003.26	227.31
1003.55	227.29
1003.84	227.29
1004.13	227.33
1004.42	227.32
1004.71	227.32
1004.99	227.31
1005.28	227.33
1005.57	227.33
1005.86	227.31
1006.15	227.30
1006.44	227.28
1006.72	227.29
1007.01	227.26
1007.30	227.26
1007.59	227.25
1007.88	227.24
1008.17	227.25
1008.45	227.24
1008.74	227.18
1009.03	227.12
1009.32	227.13
1009.60	227.13
1009.89	227.13
1010.18	227.07
1010.47	227.07
1010.76	227.07
1011.04	227.06
1011.33	227.07
1011.62	227.07
1011.91	227.09
1012.19	227.10
1012.48	227.10
1012.77	227.10
1013.05	227.14
1013.34	227.14
1013.63	227.14
1013.92	227.15
1014.20	227.14
1014.49	227.15
1014.78	227.18
1015.06	227.14
1015.35	227.15
1015.64	227.17
1015.92	227.18
1016.21	227.19
1016.50	227.19
1016.78	227.21
1017.07	227.21
1017.36	227.19
1017.64	227.18
1017.93	227.19
1018.22	227.18
1018.50	227.18
1018.79	227.17
1019.08	227.12
1019.36	227.13
1019.65	227.11
1019.93	227.14
1020.22	227.16
1020.51	227.23
1020.79	227.20
1021.08	226.93
1021.36	226.92
1021.65	226.99
1021.94	227.02
1022.22	227.09
1022.51	226.86
1022.79	227.66
1023.08	227.35
1023.36	228.80
1023.65	226.76
>>>>>End Processed Spectral Data<<<<<
