SpectraSuite Data File
++++++++++++++++++++++++++++++++++++
Date: Sat Oct 03 06:32:32 EDT 2015
User: lab3
Dark Spectrum Present: No
Reference Spectrum Present: No
Number of Sampled Component Spectra: 1
Spectrometers: USB2E7196
Integration Time (usec): 46000 (USB2E7196)
Spectra Averaged: 12000 (USB2E7196)
Boxcar Smoothing: 10 (USB2E7196)
Correct for Electrical Dark: No (USB2E7196)
Strobe/Lamp Enabled: No (USB2E7196)
Correct for Detector Non-linearity: No (USB2E7196)
Correct for Stray Light: No (USB2E7196)
Number of Pixels in Processed Spectrum: 2048
>>>>>Begin Processed Spectral Data<<<<<
339.09	0.00
339.48	213.64
339.86	215.10
340.24	216.49
340.63	217.96
341.01	221.22
341.39	220.63
341.78	221.99
342.16	223.25
342.54	223.58
342.93	212.10
343.31	222.82
343.69	223.36
344.07	223.82
344.46	224.25
344.84	224.64
345.22	224.86
345.60	225.11
345.99	225.31
346.37	225.44
346.75	225.55
347.13	225.63
347.52	225.69
347.90	225.78
348.28	225.82
348.66	225.88
349.05	225.88
349.43	225.93
349.81	225.99
350.19	226.05
350.57	226.11
350.96	226.19
351.34	226.29
351.72	226.38
352.10	226.48
352.48	226.55
352.87	226.60
353.25	226.67
353.63	226.73
354.01	226.79
354.39	226.87
354.77	226.94
355.15	227.05
355.54	227.09
355.92	227.12
356.30	227.20
356.68	227.35
357.06	227.42
357.44	227.47
357.82	227.53
358.20	227.65
358.58	227.70
358.97	227.77
359.35	227.85
359.73	227.94
360.11	227.99
360.49	228.06
360.87	228.11
361.25	228.17
361.63	228.26
362.01	228.31
362.39	228.34
362.77	228.39
363.15	228.41
363.53	228.45
363.91	228.49
364.29	228.51
364.67	228.41
365.05	228.44
365.43	228.47
365.81	228.50
366.19	228.52
366.57	228.58
366.95	228.58
367.33	228.55
367.71	228.54
368.09	228.56
368.47	228.55
368.85	228.54
369.23	228.55
369.61	228.49
369.99	228.51
370.37	228.51
370.75	228.59
371.13	228.56
371.51	228.51
371.89	228.50
372.27	228.47
372.65	228.45
373.03	228.41
373.41	228.37
373.78	228.32
374.16	228.22
374.54	228.13
374.92	228.08
375.30	228.04
375.68	227.97
376.06	227.93
376.44	227.87
376.82	227.83
377.19	227.78
377.57	227.73
377.95	227.64
378.33	227.58
378.71	227.41
379.09	227.37
379.47	227.34
379.84	227.28
380.22	227.21
380.60	227.14
380.98	227.09
381.36	227.04
381.73	226.97
382.11	226.96
382.49	226.92
382.87	226.86
383.25	226.81
383.62	226.92
384.00	226.85
384.38	226.81
384.76	226.79
385.13	226.79
385.51	226.75
385.89	226.70
386.27	226.67
386.64	226.65
387.02	226.61
387.40	226.56
387.78	226.53
388.15	226.51
388.53	226.48
388.91	226.45
389.29	226.42
389.66	226.42
390.04	226.37
390.42	226.37
390.79	226.36
391.17	226.35
391.55	226.19
391.92	226.18
392.30	226.18
392.68	226.14
393.05	226.13
393.43	226.13
393.81	226.13
394.18	226.11
394.56	226.11
394.94	226.14
395.31	226.14
395.69	226.20
396.06	226.23
396.44	226.25
396.82	226.26
397.19	226.35
397.57	226.36
397.95	226.41
398.32	226.40
398.70	226.45
399.07	226.51
399.45	226.55
399.82	226.60
400.20	226.63
400.58	226.69
400.95	226.70
401.33	226.79
401.70	226.95
402.08	227.05
402.45	227.14
402.83	227.25
403.20	227.37
403.58	227.46
403.95	227.60
404.33	227.75
404.71	227.89
405.08	228.10
405.46	228.27
405.83	228.46
406.21	228.66
406.58	228.88
406.96	229.10
407.33	229.35
407.70	229.63
408.08	230.02
408.45	230.36
408.83	230.73
409.20	231.06
409.58	231.36
409.95	231.77
410.33	232.22
410.70	232.64
411.08	233.13
411.45	233.65
411.82	234.18
412.20	234.79
412.57	235.51
412.95	236.08
413.32	236.82
413.69	237.57
414.07	238.38
414.44	239.25
414.82	240.15
415.19	241.20
415.56	242.26
415.94	243.35
416.31	244.58
416.68	245.82
417.06	247.25
417.43	248.59
417.81	250.13
418.18	251.70
418.55	253.41
418.93	255.19
419.30	257.06
419.67	259.03
420.04	261.06
420.42	263.17
420.79	265.62
421.16	268.09
421.54	270.60
421.91	273.23
422.28	275.94
422.66	278.87
423.03	281.67
423.40	284.60
423.77	287.75
424.15	290.97
424.52	294.33
424.89	297.96
425.26	301.57
425.64	304.93
426.01	308.70
426.38	312.57
426.75	316.54
427.13	320.62
427.50	324.89
427.87	329.33
428.24	333.82
428.61	338.12
428.99	342.78
429.36	347.88
429.73	352.76
430.10	357.65
430.47	362.65
430.85	367.80
431.22	373.32
431.59	378.99
431.96	384.53
432.33	390.69
432.70	396.55
433.08	403.46
433.45	410.00
433.82	416.45
434.19	423.64
434.56	430.74
434.93	437.58
435.30	444.36
435.68	452.01
436.05	459.52
436.42	467.00
436.79	473.82
437.16	481.18
437.53	489.06
437.90	496.94
438.27	504.65
438.64	512.99
439.01	520.54
439.38	527.45
439.75	534.11
440.13	541.60
440.50	548.72
440.87	554.37
441.24	560.55
441.61	567.30
441.98	572.21
442.35	578.03
442.72	583.97
443.09	589.62
443.46	593.18
443.83	595.77
444.20	597.90
444.57	601.13
444.94	602.92
445.31	604.79
445.68	606.35
446.05	607.47
446.42	607.00
446.79	606.33
447.16	605.73
447.53	605.15
447.90	602.64
448.27	600.22
448.64	596.63
449.01	594.09
449.37	589.15
449.74	584.68
450.11	578.94
450.48	572.68
450.85	566.42
451.22	561.07
451.59	555.85
451.96	551.13
452.33	544.29
452.70	538.24
453.07	530.86
453.43	523.50
453.80	516.36
454.17	509.53
454.54	503.25
454.91	496.16
455.28	489.52
455.65	483.28
456.02	476.69
456.38	471.38
456.75	464.56
457.12	459.06
457.49	453.51
457.86	448.30
458.23	443.76
458.59	438.71
458.96	433.53
459.33	428.98
459.70	424.35
460.07	420.84
460.43	416.70
460.80	412.84
461.17	409.49
461.54	405.86
461.91	402.46
462.27	399.00
462.64	396.24
463.01	393.03
463.38	389.79
463.74	386.87
464.11	384.30
464.48	381.99
464.85	379.48
465.21	377.59
465.58	375.46
465.95	373.00
466.32	371.06
466.68	369.15
467.05	367.23
467.42	365.36
467.78	363.33
468.15	361.46
468.52	360.11
468.88	358.28
469.25	356.60
469.62	355.27
469.98	353.82
470.35	352.52
470.72	351.35
471.08	350.15
471.45	349.15
471.82	348.03
472.18	346.83
472.55	346.07
472.92	345.09
473.28	344.33
473.65	343.51
474.02	342.73
474.38	342.07
474.75	341.67
475.11	341.13
475.48	340.87
475.85	340.58
476.21	340.42
476.58	340.31
476.94	340.43
477.31	340.48
477.67	340.55
478.04	340.74
478.41	341.02
478.77	341.44
479.14	341.68
479.50	342.18
479.87	342.83
480.23	343.49
480.60	344.13
480.96	344.78
481.33	345.76
481.69	346.73
482.06	347.70
482.42	348.59
482.79	349.69
483.15	350.97
483.52	352.43
483.88	353.83
484.25	355.33
484.61	356.89
484.98	358.57
485.34	360.48
485.71	362.47
486.07	364.59
486.44	366.70
486.80	369.07
487.17	371.54
487.53	374.24
487.90	377.06
488.26	380.13
488.62	383.36
488.99	386.60
489.35	390.01
489.72	393.71
490.08	397.60
490.44	401.62
490.81	405.80
491.17	410.09
491.54	414.69
491.90	419.45
492.26	424.54
492.63	429.86
492.99	435.42
493.36	441.18
493.72	447.23
494.08	453.43
494.45	460.03
494.81	466.86
495.17	473.88
495.54	481.31
495.90	489.03
496.26	496.93
496.63	505.07
496.99	513.54
497.35	522.39
497.72	531.54
498.08	540.89
498.44	550.55
498.80	560.80
499.17	571.30
499.53	582.13
499.89	593.34
500.26	604.78
500.62	616.51
500.98	628.88
501.34	641.43
501.71	654.50
502.07	667.75
502.43	681.55
502.79	695.57
503.16	710.06
503.52	724.75
503.88	739.86
504.24	755.42
504.60	771.20
504.97	787.45
505.33	804.15
505.69	821.75
506.05	839.70
506.41	857.58
506.78	875.65
507.14	894.22
507.50	913.24
507.86	932.61
508.22	952.20
508.59	971.64
508.95	991.87
509.31	1012.84
509.67	1034.54
510.03	1056.23
510.39	1077.96
510.75	1099.89
511.12	1122.11
511.48	1144.50
511.84	1166.94
512.20	1189.77
512.56	1213.48
512.92	1237.21
513.28	1260.56
513.64	1284.16
514.00	1308.23
514.37	1332.61
514.73	1356.99
515.09	1381.24
515.45	1405.80
515.81	1430.56
516.17	1455.44
516.53	1479.88
516.89	1504.20
517.25	1528.67
517.61	1553.04
517.97	1577.89
518.33	1602.25
518.69	1626.51
519.05	1651.24
519.41	1676.24
519.77	1701.55
520.13	1726.07
520.49	1750.52
520.85	1775.29
521.21	1799.68
521.57	1824.41
521.93	1848.63
522.29	1873.38
522.65	1897.60
523.01	1921.80
523.37	1945.59
523.73	1970.08
524.09	1994.30
524.45	2018.31
524.81	2041.95
525.17	2065.42
525.53	2088.36
525.89	2111.72
526.25	2135.06
526.61	2157.43
526.97	2179.97
527.33	2202.35
527.68	2224.49
528.04	2245.85
528.40	2266.30
528.76	2286.91
529.12	2307.11
529.48	2327.03
529.84	2345.09
530.20	2363.75
530.56	2381.82
530.91	2400.05
531.27	2417.95
531.63	2434.95
531.99	2451.47
532.35	2467.34
532.71	2483.40
533.07	2500.10
533.42	2514.99
533.78	2530.85
534.14	2546.90
534.50	2562.04
534.86	2576.93
535.21	2589.93
535.57	2603.40
535.93	2616.63
536.29	2628.78
536.65	2640.69
537.00	2651.87
537.36	2664.02
537.72	2674.76
538.08	2685.01
538.44	2694.58
538.79	2703.75
539.15	2712.15
539.51	2720.21
539.87	2727.64
540.22	2733.00
540.58	2738.38
540.94	2744.97
541.29	2750.04
541.65	2753.37
542.01	2755.85
542.37	2757.71
542.72	2760.90
543.08	2762.40
543.44	2764.50
543.79	2765.52
544.15	2765.71
544.51	2766.33
544.87	2765.80
545.22	2764.60
545.58	2762.68
545.94	2760.73
546.29	2757.51
546.65	2754.25
547.01	2750.87
547.36	2748.21
547.72	2745.78
548.07	2741.59
548.43	2735.97
548.79	2729.31
549.14	2723.92
549.50	2718.89
549.86	2712.91
550.21	2705.76
550.57	2699.61
550.92	2691.15
551.28	2683.27
551.64	2675.74
551.99	2667.71
552.35	2659.08
552.70	2650.66
553.06	2642.60
553.41	2633.91
553.77	2624.95
554.13	2615.97
554.48	2606.20
554.84	2595.15
555.19	2584.52
555.55	2573.97
555.90	2563.46
556.26	2553.53
556.61	2542.55
556.97	2529.90
557.32	2517.80
557.68	2505.63
558.03	2493.15
558.39	2481.90
558.74	2470.95
559.10	2458.20
559.45	2445.71
559.81	2433.85
560.16	2421.36
560.52	2409.10
560.87	2397.22
561.23	2384.54
561.58	2371.91
561.94	2358.94
562.29	2345.46
562.64	2332.68
563.00	2319.58
563.35	2306.89
563.71	2294.04
564.06	2281.05
564.42	2268.81
564.77	2255.95
565.12	2242.98
565.48	2230.02
565.83	2217.00
566.19	2204.10
566.54	2191.22
566.89	2177.21
567.25	2163.29
567.60	2150.75
567.96	2137.28
568.31	2122.50
568.66	2108.42
569.02	2095.53
569.37	2082.56
569.72	2070.09
570.08	2056.36
570.43	2042.31
570.78	2028.12
571.14	2013.18
571.49	1998.89
571.84	1985.12
572.20	1970.16
572.55	1955.44
572.90	1940.65
573.26	1925.86
573.61	1910.57
573.96	1895.73
574.31	1881.09
574.67	1866.56
575.02	1850.96
575.37	1835.45
575.72	1820.74
576.08	1806.39
576.43	1790.90
576.78	1775.82
577.13	1761.03
577.49	1746.59
577.84	1732.76
578.19	1717.97
578.54	1703.37
578.90	1688.29
579.25	1673.10
579.60	1659.47
579.95	1645.76
580.30	1631.87
580.66	1617.72
581.01	1603.45
581.36	1589.15
581.71	1575.89
582.06	1562.53
582.42	1549.39
582.77	1536.32
583.12	1523.21
583.47	1509.95
583.82	1496.82
584.17	1483.37
584.53	1469.56
584.88	1456.13
585.23	1442.24
585.58	1429.18
585.93	1416.32
586.28	1404.23
586.63	1392.10
586.98	1379.55
587.34	1367.05
587.69	1354.22
588.04	1341.74
588.39	1329.64
588.74	1317.71
589.09	1305.53
589.44	1292.91
589.79	1280.94
590.14	1269.09
590.49	1257.16
590.84	1245.42
591.19	1234.04
591.54	1222.46
591.89	1211.02
592.25	1199.77
592.60	1188.17
592.95	1176.98
593.30	1166.01
593.65	1154.71
594.00	1143.58
594.35	1132.97
594.70	1121.92
595.05	1111.78
595.40	1101.55
595.75	1091.17
596.10	1081.31
596.45	1071.17
596.80	1061.39
597.15	1051.33
597.50	1041.43
597.85	1031.97
598.19	1022.30
598.54	1012.68
598.89	1003.53
599.24	994.70
599.59	985.67
599.94	977.57
600.29	969.25
600.64	960.67
600.99	951.72
601.34	943.10
601.69	934.17
602.04	925.92
602.39	917.50
602.74	909.14
603.08	900.72
603.43	892.27
603.78	884.00
604.13	875.88
604.48	867.79
604.83	859.84
605.18	851.80
605.53	843.94
605.87	835.90
606.22	828.16
606.57	820.36
606.92	812.50
607.27	804.54
607.62	796.91
607.96	789.68
608.31	782.90
608.66	775.92
609.01	769.21
609.36	762.59
609.70	755.77
610.05	748.91
610.40	742.34
610.75	735.75
611.10	729.51
611.44	723.08
611.79	716.78
612.14	710.41
612.49	704.12
612.83	698.13
613.18	692.28
613.53	686.31
613.88	680.38
614.22	674.84
614.57	669.26
614.92	663.53
615.27	657.91
615.61	652.32
615.96	646.81
616.31	641.29
616.65	635.84
617.00	630.59
617.35	625.46
617.70	620.36
618.04	615.32
618.39	610.21
618.74	605.36
619.08	600.54
619.43	595.84
619.78	591.16
620.12	586.43
620.47	581.86
620.82	577.42
621.16	573.00
621.51	568.48
621.85	563.99
622.20	559.65
622.55	555.35
622.89	551.14
623.24	546.94
623.59	542.77
623.93	538.76
624.28	534.83
624.62	531.00
624.97	527.21
625.32	523.39
625.66	519.52
626.01	515.62
626.35	511.80
626.70	508.02
627.04	504.43
627.39	500.76
627.73	497.27
628.08	493.86
628.43	490.44
628.77	487.10
629.12	483.88
629.46	480.70
629.81	477.42
630.15	474.13
630.50	470.94
630.84	467.80
631.19	464.74
631.53	461.78
631.88	458.79
632.22	455.81
632.57	453.13
632.91	450.48
633.26	447.92
633.60	445.36
633.95	442.86
634.29	440.29
634.64	437.79
634.98	435.09
635.32	432.55
635.67	430.19
636.01	427.77
636.36	425.39
636.70	423.15
637.05	420.90
637.39	418.69
637.73	416.51
638.08	414.45
638.42	412.34
638.77	410.11
639.11	407.82
639.45	405.62
639.80	403.35
640.14	401.20
640.49	399.03
640.83	396.84
641.17	394.75
641.52	392.70
641.86	390.67
642.20	388.86
642.55	386.88
642.89	384.93
643.23	383.07
643.58	381.38
643.92	379.55
644.26	377.79
644.61	376.09
644.95	374.36
645.29	372.54
645.64	370.75
645.98	369.05
646.32	367.48
646.66	365.89
647.01	364.32
647.35	362.78
647.69	361.23
648.04	359.83
648.38	358.34
648.72	356.86
649.06	355.40
649.41	353.94
649.75	352.55
650.09	351.17
650.43	349.79
650.78	348.36
651.12	346.97
651.46	345.64
651.80	344.33
652.14	343.04
652.49	341.82
652.83	340.56
653.17	339.35
653.51	338.17
653.85	337.05
654.20	335.88
654.54	334.65
654.88	333.50
655.22	332.37
655.56	331.24
655.90	330.16
656.25	329.12
656.59	328.06
656.93	327.07
657.27	326.08
657.61	325.05
657.95	324.05
658.29	323.05
658.64	322.10
658.98	321.14
659.32	320.22
659.66	319.34
660.00	318.48
660.34	317.62
660.68	316.73
661.02	315.81
661.36	314.93
661.70	314.09
662.05	313.27
662.39	312.45
662.73	311.72
663.07	310.99
663.41	310.22
663.75	309.45
664.09	308.68
664.43	307.87
664.77	307.15
665.11	306.39
665.45	305.70
665.79	305.01
666.13	304.28
666.47	303.55
666.81	302.79
667.15	302.02
667.49	301.35
667.83	300.74
668.17	300.10
668.51	299.50
668.85	298.93
669.19	298.39
669.53	297.75
669.87	297.10
670.21	296.48
670.55	295.89
670.89	295.39
671.23	294.83
671.57	294.29
671.91	293.79
672.25	293.32
672.58	292.84
672.92	292.29
673.26	291.82
673.60	291.36
673.94	290.91
674.28	290.49
674.62	290.03
674.96	289.52
675.30	289.08
675.64	288.59
675.97	288.09
676.31	287.57
676.65	287.10
676.99	286.70
677.33	286.22
677.67	285.78
678.01	285.26
678.34	284.83
678.68	284.42
679.02	283.95
679.36	283.50
679.70	283.04
680.04	282.63
680.37	282.20
680.71	281.80
681.05	281.41
681.39	280.98
681.73	280.53
682.06	280.10
682.40	279.68
682.74	279.32
683.08	279.01
683.42	278.63
683.75	278.28
684.09	277.85
684.43	277.50
684.77	277.12
685.10	276.80
685.44	276.44
685.78	276.09
686.12	275.75
686.45	275.39
686.79	275.02
687.13	274.68
687.46	274.30
687.80	273.95
688.14	273.55
688.48	273.22
688.81	272.87
689.15	272.56
689.49	272.20
689.82	271.84
690.16	271.41
690.50	271.07
690.83	270.71
691.17	270.36
691.51	270.02
691.84	269.70
692.18	269.33
692.52	268.96
692.85	268.61
693.19	268.30
693.52	267.97
693.86	267.64
694.20	267.31
694.53	266.99
694.87	266.65
695.21	266.32
695.54	265.99
695.88	265.66
696.21	265.29
696.55	264.98
696.88	264.66
697.22	264.35
697.56	264.03
697.89	263.68
698.23	263.37
698.56	263.03
698.90	262.72
699.23	262.39
699.57	262.07
699.90	261.74
700.24	261.40
700.58	261.11
700.91	260.85
701.25	260.66
701.58	260.42
701.92	260.16
702.25	259.88
702.59	259.58
702.92	259.30
703.26	259.01
703.59	258.71
703.93	258.52
704.26	258.24
704.60	257.95
704.93	257.67
705.26	257.37
705.60	257.14
705.93	256.82
706.27	256.59
706.60	256.36
706.94	256.13
707.27	255.83
707.61	255.55
707.94	255.25
708.27	254.85
708.61	254.53
708.94	254.23
709.28	253.97
709.61	253.70
709.94	253.46
710.28	253.22
710.61	253.00
710.95	252.65
711.28	252.48
711.61	252.24
711.95	252.03
712.28	251.78
712.61	251.52
712.95	251.37
713.28	251.19
713.61	250.92
713.95	250.64
714.28	250.43
714.61	250.19
714.95	249.96
715.28	249.74
715.61	249.53
715.95	249.33
716.28	249.12
716.61	248.94
716.95	248.71
717.28	248.49
717.61	248.27
717.94	248.06
718.28	247.77
718.61	247.55
718.94	247.32
719.27	247.12
719.61	246.95
719.94	246.71
720.27	246.44
720.60	246.24
720.94	246.05
721.27	245.86
721.60	245.69
721.93	245.50
722.27	245.35
722.60	245.17
722.93	244.97
723.26	244.79
723.59	244.56
723.93	244.40
724.26	244.22
724.59	244.04
724.92	243.87
725.25	243.75
725.59	243.58
725.92	243.44
726.25	243.28
726.58	243.11
726.91	242.93
727.24	242.79
727.57	242.63
727.91	242.46
728.24	242.32
728.57	242.16
728.90	242.01
729.23	241.82
729.56	241.71
729.89	241.56
730.22	241.40
730.55	241.25
730.89	241.10
731.22	240.94
731.55	240.80
731.88	240.65
732.21	240.48
732.54	240.33
732.87	240.18
733.20	240.05
733.53	239.92
733.86	239.79
734.19	239.63
734.52	239.52
734.85	239.47
735.18	239.31
735.51	239.21
735.84	239.08
736.17	239.00
736.50	238.81
736.83	238.83
737.16	238.71
737.49	238.60
737.82	238.47
738.15	238.37
738.48	238.25
738.81	238.12
739.14	237.99
739.47	237.87
739.80	237.74
740.13	237.63
740.46	237.49
740.79	237.36
741.12	237.24
741.45	237.10
741.78	236.91
742.11	236.84
742.44	236.69
742.77	236.59
743.10	236.45
743.43	236.34
743.75	236.09
744.08	236.18
744.41	236.07
744.74	235.96
745.07	235.82
745.40	235.74
745.73	235.70
746.06	235.61
746.39	235.53
746.71	235.43
747.04	235.32
747.37	235.22
747.70	235.16
748.03	235.07
748.36	235.00
748.68	234.91
749.01	234.78
749.34	234.69
749.67	234.61
750.00	234.53
750.33	234.54
750.65	234.46
750.98	234.18
751.31	234.10
751.64	234.02
751.97	234.01
752.29	233.91
752.62	233.77
752.95	233.67
753.28	233.57
753.60	233.48
753.93	233.43
754.26	233.36
754.59	233.23
754.91	233.13
755.24	233.03
755.57	233.01
755.90	232.93
756.22	232.84
756.55	232.74
756.88	232.63
757.20	232.47
757.53	232.36
757.86	232.28
758.19	232.21
758.51	232.13
758.84	232.00
759.17	231.91
759.49	231.85
759.82	231.84
760.15	231.79
760.47	231.72
760.80	231.61
761.13	231.57
761.45	231.51
761.78	231.45
762.11	231.39
762.43	231.26
762.76	231.21
763.08	231.16
763.41	231.11
763.74	231.06
764.06	231.01
764.39	230.96
764.71	230.90
765.04	230.83
765.37	230.77
765.69	230.72
766.02	230.66
766.34	230.60
766.67	230.50
767.00	230.47
767.32	230.49
767.65	230.51
767.97	230.45
768.30	230.41
768.62	230.36
768.95	230.30
769.27	230.25
769.60	230.22
769.92	230.15
770.25	230.08
770.57	230.01
770.90	229.96
771.22	229.91
771.55	229.86
771.87	229.83
772.20	229.79
772.52	229.85
772.85	229.97
773.17	229.93
773.50	229.88
773.82	229.82
774.15	229.72
774.47	229.60
774.80	229.54
775.12	229.50
775.45	229.47
775.77	229.44
776.09	229.41
776.42	229.37
776.74	229.38
777.07	229.35
777.39	229.32
777.72	229.28
778.04	229.27
778.36	229.23
778.69	229.20
779.01	229.18
779.33	229.04
779.66	228.86
779.98	228.82
780.31	228.80
780.63	228.82
780.95	228.82
781.28	228.79
781.60	228.76
781.92	228.73
782.25	228.70
782.57	228.67
782.89	228.63
783.22	228.60
783.54	228.55
783.86	228.53
784.19	228.50
784.51	228.51
784.83	228.47
785.16	228.44
785.48	228.41
785.80	228.39
786.12	228.37
786.45	228.35
786.77	228.34
787.09	228.31
787.42	228.23
787.74	228.21
788.06	228.19
788.38	228.17
788.71	228.14
789.03	228.12
789.35	228.11
789.67	228.08
789.99	228.07
790.32	228.03
790.64	228.02
790.96	228.12
791.28	228.06
791.61	228.03
791.93	228.02
792.25	228.00
792.57	228.06
792.89	228.02
793.21	228.02
793.54	227.98
793.86	227.95
794.18	227.94
794.50	227.90
794.82	227.88
795.14	227.88
795.47	227.88
795.79	227.87
796.11	227.82
796.43	227.81
796.75	227.79
797.07	227.78
797.39	227.75
797.71	227.63
798.04	227.62
798.36	227.62
798.68	227.60
799.00	227.59
799.32	227.51
799.64	227.52
799.96	227.50
800.28	227.51
800.60	227.49
800.92	227.48
801.24	227.46
801.56	227.46
801.89	227.43
802.21	227.42
802.53	227.38
802.85	227.39
803.17	227.44
803.49	227.40
803.81	227.38
804.13	227.35
804.45	227.33
804.77	227.32
805.09	227.31
805.41	227.28
805.73	227.25
806.05	227.20
806.37	227.18
806.69	227.15
807.01	227.13
807.33	227.13
807.65	227.07
807.97	227.12
808.28	227.09
808.60	227.07
808.92	227.04
809.24	227.11
809.56	227.08
809.88	227.02
810.20	227.01
810.52	227.03
810.84	227.00
811.16	226.98
811.48	226.96
811.80	227.00
812.12	226.99
812.43	227.00
812.75	227.00
813.07	226.98
813.39	226.98
813.71	226.95
814.03	226.93
814.35	226.93
814.67	226.87
814.98	226.85
815.30	226.84
815.62	226.81
815.94	226.72
816.26	226.73
816.58	226.69
816.89	226.70
817.21	226.66
817.53	226.66
817.85	226.66
818.17	226.65
818.48	226.59
818.80	226.60
819.12	226.57
819.44	226.55
819.76	226.52
820.07	226.51
820.39	226.51
820.71	226.51
821.03	226.50
821.34	226.49
821.66	226.50
821.98	226.50
822.30	226.49
822.61	226.56
822.93	226.53
823.25	226.52
823.57	226.50
823.88	226.51
824.20	226.50
824.52	226.51
824.83	226.50
825.15	226.48
825.47	226.46
825.79	226.46
826.10	226.45
826.42	226.44
826.74	226.44
827.05	226.43
827.37	226.42
827.69	226.41
828.00	226.41
828.32	226.41
828.64	226.38
828.95	226.45
829.27	226.40
829.58	226.40
829.90	226.42
830.22	226.42
830.53	226.40
830.85	226.38
831.17	226.35
831.48	226.34
831.80	226.34
832.11	226.33
832.43	226.30
832.75	226.30
833.06	226.37
833.38	226.33
833.69	226.33
834.01	226.33
834.32	226.32
834.64	226.30
834.96	226.30
835.27	226.29
835.59	226.24
835.90	226.22
836.22	226.21
836.53	226.18
836.85	226.16
837.16	226.29
837.48	226.28
837.79	226.33
838.11	226.33
838.42	226.32
838.74	226.33
839.05	226.33
839.37	226.32
839.68	226.24
840.00	226.23
840.31	226.25
840.63	226.23
840.94	226.21
841.26	226.20
841.57	226.19
841.88	226.20
842.20	226.18
842.51	226.16
842.83	226.15
843.14	226.27
843.46	226.26
843.77	226.18
844.08	226.17
844.40	226.12
844.71	226.11
845.03	226.10
845.34	226.08
845.65	226.07
845.97	226.07
846.28	226.08
846.60	226.09
846.91	226.06
847.22	226.05
847.54	226.08
847.85	226.09
848.16	226.07
848.48	226.04
848.79	226.09
849.10	226.10
849.42	226.11
849.73	225.99
850.04	225.99
850.36	225.94
850.67	225.96
850.98	225.96
851.30	225.97
851.61	225.96
851.92	225.95
852.23	226.00
852.55	226.00
852.86	226.00
853.17	226.01
853.49	226.04
853.80	226.06
854.11	226.07
854.42	226.08
854.74	226.07
855.05	226.07
855.36	226.00
855.67	226.01
855.99	226.00
856.30	226.15
856.61	226.15
856.92	226.15
857.23	226.15
857.55	226.14
857.86	226.13
858.17	226.15
858.48	226.13
858.79	226.10
859.11	226.11
859.42	226.09
859.73	226.07
860.04	226.07
860.35	226.02
860.66	225.98
860.98	225.98
861.29	225.99
861.60	225.98
861.91	226.02
862.22	225.99
862.53	225.97
862.84	225.82
863.16	225.84
863.47	225.82
863.78	225.80
864.09	225.81
864.40	225.82
864.71	225.82
865.02	225.83
865.33	225.81
865.64	225.79
865.95	225.79
866.27	225.87
866.58	225.86
866.89	225.87
867.20	225.87
867.51	225.85
867.82	225.84
868.13	225.88
868.44	225.85
868.75	225.87
869.06	225.87
869.37	225.89
869.68	225.85
869.99	225.88
870.30	225.88
870.61	225.89
870.92	225.87
871.23	225.86
871.54	225.87
871.85	225.91
872.16	225.92
872.47	225.91
872.78	225.84
873.09	225.84
873.40	225.83
873.71	225.84
874.02	225.85
874.33	225.83
874.64	225.80
874.95	225.83
875.26	225.80
875.56	225.80
875.87	225.79
876.18	225.78
876.49	225.91
876.80	225.89
877.11	225.87
877.42	225.87
877.73	225.88
878.04	225.85
878.35	225.85
878.66	225.85
878.96	225.85
879.27	225.84
879.58	225.83
879.89	225.83
880.20	225.86
880.51	225.86
880.82	225.86
881.12	225.87
881.43	225.84
881.74	225.83
882.05	225.82
882.36	225.83
882.67	225.84
882.97	225.70
883.28	225.69
883.59	225.69
883.90	225.70
884.21	225.72
884.51	225.71
884.82	225.69
885.13	225.69
885.44	225.69
885.74	225.69
886.05	225.68
886.36	225.68
886.67	225.63
886.98	225.70
887.28	225.71
887.59	225.70
887.90	225.71
888.20	225.71
888.51	225.73
888.82	225.71
889.13	225.71
889.43	225.82
889.74	225.82
890.05	225.81
890.35	225.80
890.66	225.77
890.97	225.76
891.28	225.75
891.58	225.74
891.89	225.74
892.20	225.73
892.50	225.72
892.81	225.70
893.12	225.71
893.42	225.64
893.73	225.64
894.04	225.63
894.34	225.64
894.65	225.64
894.95	225.62
895.26	225.63
895.57	225.68
895.87	225.55
896.18	225.58
896.48	225.58
896.79	225.58
897.10	225.60
897.40	225.61
897.71	225.62
898.01	225.61
898.32	225.62
898.63	225.63
898.93	225.64
899.24	225.64
899.54	225.64
899.85	225.63
900.15	225.63
900.46	225.62
900.76	225.63
901.07	225.64
901.38	225.63
901.68	225.64
901.99	225.57
902.29	225.59
902.60	225.57
902.90	225.56
903.21	225.56
903.51	225.55
903.82	225.57
904.12	225.57
904.43	225.58
904.73	225.57
905.03	225.58
905.34	225.70
905.64	225.69
905.95	225.69
906.25	225.69
906.56	225.69
906.86	225.69
907.17	225.67
907.47	225.68
907.77	225.67
908.08	225.65
908.38	225.65
908.69	225.66
908.99	225.69
909.30	225.70
909.60	225.69
909.90	225.70
910.21	225.66
910.51	225.64
910.81	225.64
911.12	225.64
911.42	225.64
911.73	225.51
912.03	225.52
912.33	225.55
912.64	225.54
912.94	225.52
913.24	225.51
913.55	225.49
913.85	225.48
914.15	225.51
914.46	225.52
914.76	225.51
915.06	225.50
915.37	225.48
915.67	225.46
915.97	225.46
916.27	225.44
916.58	225.45
916.88	225.45
917.18	225.44
917.49	225.52
917.79	225.51
918.09	225.53
918.39	225.56
918.70	225.55
919.00	225.55
919.30	225.61
919.60	225.61
919.91	225.60
920.21	225.61
920.51	225.58
920.81	225.56
921.12	225.59
921.42	225.58
921.72	225.59
922.02	225.60
922.32	225.62
922.63	225.62
922.93	225.70
923.23	225.70
923.53	225.69
923.83	225.61
924.13	225.62
924.44	225.62
924.74	225.63
925.04	225.66
925.34	225.66
925.64	225.60
925.94	225.61
926.24	225.68
926.55	225.66
926.85	225.68
927.15	225.68
927.45	225.67
927.75	225.67
928.05	225.67
928.35	225.66
928.65	225.68
928.95	225.69
929.26	225.62
929.56	225.64
929.86	225.65
930.16	225.64
930.46	225.63
930.76	225.63
931.06	225.58
931.36	225.54
931.66	225.55
931.96	225.57
932.26	225.57
932.56	225.52
932.86	225.53
933.16	225.53
933.46	225.51
933.76	225.50
934.06	225.52
934.36	225.56
934.66	225.55
934.96	225.53
935.26	225.53
935.56	225.55
935.86	225.52
936.16	225.51
936.46	225.50
936.76	225.49
937.06	225.47
937.36	225.48
937.66	225.48
937.96	225.48
938.26	225.45
938.56	225.44
938.86	225.45
939.16	225.47
939.46	225.48
939.76	225.49
940.06	225.49
940.35	225.47
940.65	225.41
940.95	225.42
941.25	225.39
941.55	225.37
941.85	225.36
942.15	225.39
942.45	225.42
942.75	225.42
943.04	225.43
943.34	225.45
943.64	225.44
943.94	225.42
944.24	225.42
944.54	225.43
944.84	225.43
945.13	225.41
945.43	225.38
945.73	225.38
946.03	225.36
946.33	225.35
946.62	225.34
946.92	225.34
947.22	225.35
947.52	225.36
947.82	225.37
948.11	225.36
948.41	225.33
948.71	225.30
949.01	225.30
949.31	225.30
949.60	225.28
949.90	225.30
950.20	225.30
950.50	225.29
950.79	225.28
951.09	225.30
951.39	225.30
951.69	225.29
951.98	225.31
952.28	225.32
952.58	225.31
952.87	225.31
953.17	225.33
953.47	225.32
953.76	225.32
954.06	225.30
954.36	225.28
954.66	225.29
954.95	225.32
955.25	225.33
955.55	225.34
955.84	225.32
956.14	225.33
956.44	225.34
956.73	225.32
957.03	225.33
957.32	225.33
957.62	225.33
957.92	225.36
958.21	225.34
958.51	225.49
958.81	225.51
959.10	225.52
959.40	225.55
959.69	225.56
959.99	225.58
960.29	225.58
960.58	225.58
960.88	225.63
961.17	225.61
961.47	225.62
961.76	225.60
962.06	225.63
962.36	225.61
962.65	225.61
962.95	225.62
963.24	225.61
963.54	225.61
963.83	225.62
964.13	225.61
964.42	225.60
964.72	225.49
965.01	225.49
965.31	225.48
965.60	225.45
965.90	225.53
966.19	225.50
966.49	225.50
966.78	225.50
967.08	225.49
967.37	225.49
967.67	225.47
967.96	225.49
968.26	225.49
968.55	225.51
968.85	225.50
969.14	225.49
969.43	225.50
969.73	225.49
970.02	225.48
970.32	225.48
970.61	225.46
970.91	225.42
971.20	225.40
971.49	225.39
971.79	225.41
972.08	225.31
972.38	225.33
972.67	225.32
972.96	225.34
973.26	225.32
973.55	225.35
973.85	225.35
974.14	225.33
974.43	225.34
974.73	225.31
975.02	225.31
975.31	225.31
975.61	225.31
975.90	225.30
976.19	225.29
976.49	225.30
976.78	225.31
977.07	225.31
977.37	225.32
977.66	225.34
977.95	225.32
978.24	225.33
978.54	225.36
978.83	225.35
979.12	225.33
979.42	225.34
979.71	225.31
980.00	225.31
980.29	225.31
980.59	225.29
980.88	225.32
981.17	225.32
981.46	225.31
981.76	225.31
982.05	225.36
982.34	225.37
982.63	225.36
982.93	225.36
983.22	225.39
983.51	225.39
983.80	225.41
984.09	225.42
984.39	225.41
984.68	225.39
984.97	225.40
985.26	225.39
985.55	225.41
985.85	225.38
986.14	225.40
986.43	225.42
986.72	225.42
987.01	225.38
987.30	225.38
987.59	225.37
987.89	225.38
988.18	225.33
988.47	225.32
988.76	225.31
989.05	225.30
989.34	225.28
989.63	225.31
989.92	225.29
990.22	225.27
990.51	225.27
990.80	225.26
991.09	225.27
991.38	225.29
991.67	225.28
991.96	225.27
992.25	225.27
992.54	225.24
992.83	225.25
993.12	225.24
993.41	225.26
993.70	225.32
993.99	225.34
994.28	225.36
994.58	225.38
994.87	225.37
995.16	225.37
995.45	225.36
995.74	225.31
996.03	225.33
996.32	225.35
996.61	225.38
996.90	225.38
997.19	225.37
997.48	225.36
997.77	225.36
998.06	225.36
998.34	225.35
998.63	225.35
998.92	225.36
999.21	225.38
999.50	225.37
999.79	225.33
1000.08	225.32
1000.37	225.32
1000.66	225.30
1000.95	225.34
1001.24	225.35
1001.53	225.36
1001.82	225.36
1002.11	225.33
1002.40	225.34
1002.68	225.37
1002.97	225.45
1003.26	225.44
1003.55	225.42
1003.84	225.43
1004.13	225.48
1004.42	225.47
1004.71	225.47
1004.99	225.46
1005.28	225.49
1005.57	225.48
1005.86	225.47
1006.15	225.46
1006.44	225.44
1006.72	225.46
1007.01	225.43
1007.30	225.43
1007.59	225.41
1007.88	225.41
1008.17	225.42
1008.45	225.40
1008.74	225.35
1009.03	225.29
1009.32	225.29
1009.60	225.29
1009.89	225.28
1010.18	225.23
1010.47	225.23
1010.76	225.23
1011.04	225.23
1011.33	225.22
1011.62	225.23
1011.91	225.24
1012.19	225.25
1012.48	225.25
1012.77	225.25
1013.05	225.29
1013.34	225.29
1013.63	225.28
1013.92	225.29
1014.20	225.28
1014.49	225.29
1014.78	225.31
1015.06	225.27
1015.35	225.27
1015.64	225.28
1015.92	225.30
1016.21	225.31
1016.50	225.31
1016.78	225.32
1017.07	225.33
1017.36	225.31
1017.64	225.29
1017.93	225.30
1018.22	225.29
1018.50	225.28
1018.79	225.28
1019.08	225.23
1019.36	225.24
1019.65	225.24
1019.93	225.27
1020.22	225.29
1020.51	225.35
1020.79	225.33
1021.08	225.11
1021.36	225.07
1021.65	225.31
1021.94	225.18
1022.22	225.33
1022.51	225.05
1022.79	225.85
1023.08	225.46
1023.36	226.75
1023.65	224.98
>>>>>End Processed Spectral Data<<<<<
