SpectraSuite Data File
++++++++++++++++++++++++++++++++++++
Date: Fri Oct 02 15:50:17 EDT 2015
User: lab3
Dark Spectrum Present: No
Reference Spectrum Present: No
Number of Sampled Component Spectra: 1
Spectrometers: USB2E7196
Integration Time (usec): 46000 (USB2E7196)
Spectra Averaged: 1200 (USB2E7196)
Boxcar Smoothing: 10 (USB2E7196)
Correct for Electrical Dark: No (USB2E7196)
Strobe/Lamp Enabled: No (USB2E7196)
Correct for Detector Non-linearity: No (USB2E7196)
Correct for Stray Light: No (USB2E7196)
Number of Pixels in Processed Spectrum: 2048
>>>>>Begin Processed Spectral Data<<<<<
339.09	0.00
339.48	214.09
339.86	215.58
340.24	216.82
340.63	218.08
341.01	221.60
341.39	220.93
341.78	222.28
342.16	223.55
342.54	223.96
342.93	212.44
343.31	223.18
343.69	223.72
344.07	224.18
344.46	224.61
344.84	225.01
345.22	225.22
345.60	225.47
345.99	225.66
346.37	225.79
346.75	225.89
347.13	225.97
347.52	226.03
347.90	226.12
348.28	226.15
348.66	226.20
349.05	226.18
349.43	226.23
349.81	226.27
350.19	226.33
350.57	226.39
350.96	226.46
351.34	226.55
351.72	226.63
352.10	226.74
352.48	226.80
352.87	226.84
353.25	226.91
353.63	226.97
354.01	227.03
354.39	227.10
354.77	227.18
355.15	227.29
355.54	227.33
355.92	227.36
356.30	227.43
356.68	227.59
357.06	227.66
357.44	227.70
357.82	227.76
358.20	227.88
358.58	227.94
358.97	228.01
359.35	228.09
359.73	228.17
360.11	228.23
360.49	228.29
360.87	228.35
361.25	228.42
361.63	228.51
362.01	228.57
362.39	228.60
362.77	228.65
363.15	228.67
363.53	228.71
363.91	228.75
364.29	228.77
364.67	228.67
365.05	228.71
365.43	228.75
365.81	228.78
366.19	228.79
366.57	228.86
366.95	228.86
367.33	228.82
367.71	228.81
368.09	228.83
368.47	228.84
368.85	228.83
369.23	228.84
369.61	228.78
369.99	228.79
370.37	228.80
370.75	228.87
371.13	228.83
371.51	228.80
371.89	228.78
372.27	228.76
372.65	228.75
373.03	228.71
373.41	228.67
373.78	228.61
374.16	228.51
374.54	228.42
374.92	228.38
375.30	228.35
375.68	228.29
376.06	228.23
376.44	228.17
376.82	228.13
377.19	228.08
377.57	228.03
377.95	227.95
378.33	227.88
378.71	227.73
379.09	227.69
379.47	227.66
379.84	227.59
380.22	227.53
380.60	227.45
380.98	227.40
381.36	227.34
381.73	227.27
382.11	227.26
382.49	227.23
382.87	227.17
383.25	227.11
383.62	227.22
384.00	227.16
384.38	227.12
384.76	227.11
385.13	227.11
385.51	227.06
385.89	227.01
386.27	226.98
386.64	226.96
387.02	226.90
387.40	226.86
387.78	226.84
388.15	226.81
388.53	226.78
388.91	226.75
389.29	226.72
389.66	226.71
390.04	226.66
390.42	226.65
390.79	226.64
391.17	226.63
391.55	226.46
391.92	226.45
392.30	226.45
392.68	226.40
393.05	226.37
393.43	226.37
393.81	226.38
394.18	226.35
394.56	226.36
394.94	226.39
395.31	226.38
395.69	226.42
396.06	226.45
396.44	226.47
396.82	226.47
397.19	226.57
397.57	226.59
397.95	226.63
398.32	226.63
398.70	226.66
399.07	226.73
399.45	226.77
399.82	226.82
400.20	226.85
400.58	226.90
400.95	226.92
401.33	227.00
401.70	227.16
402.08	227.27
402.45	227.34
402.83	227.45
403.20	227.57
403.58	227.67
403.95	227.81
404.33	227.96
404.71	228.11
405.08	228.31
405.46	228.47
405.83	228.66
406.21	228.84
406.58	229.07
406.96	229.28
407.33	229.54
407.70	229.82
408.08	230.19
408.45	230.53
408.83	230.89
409.20	231.21
409.58	231.50
409.95	231.90
410.33	232.35
410.70	232.75
411.08	233.24
411.45	233.75
411.82	234.27
412.20	234.86
412.57	235.58
412.95	236.12
413.32	236.86
413.69	237.60
414.07	238.40
414.44	239.25
414.82	240.13
415.19	241.17
415.56	242.21
415.94	243.30
416.31	244.52
416.68	245.74
417.06	247.16
417.43	248.49
417.81	250.03
418.18	251.59
418.55	253.29
418.93	255.05
419.30	256.89
419.67	258.86
420.04	260.89
420.42	262.98
420.79	265.42
421.16	267.87
421.54	270.36
421.91	272.98
422.28	275.67
422.66	278.58
423.03	281.35
423.40	284.27
423.77	287.40
424.15	290.62
424.52	293.95
424.89	297.56
425.26	301.15
425.64	304.48
426.01	308.23
426.38	312.06
426.75	316.03
427.13	320.09
427.50	324.36
427.87	328.79
428.24	333.27
428.61	337.56
428.99	342.22
429.36	347.32
429.73	352.19
430.10	357.08
430.47	362.08
430.85	367.24
431.22	372.77
431.59	378.47
431.96	384.02
432.33	390.22
432.70	396.11
433.08	403.05
433.45	409.62
433.82	416.11
434.19	423.36
434.56	430.50
434.93	437.41
435.30	444.22
435.68	451.92
436.05	459.47
436.42	466.99
436.79	473.86
437.16	481.29
437.53	489.22
437.90	497.18
438.27	504.97
438.64	513.36
439.01	520.98
439.38	527.92
439.75	534.61
440.13	542.14
440.50	549.29
440.87	555.01
441.24	561.25
441.61	568.02
441.98	572.94
442.35	578.75
442.72	584.69
443.09	590.33
443.46	593.87
443.83	596.41
444.20	598.52
444.57	601.71
444.94	603.44
445.31	605.24
445.68	606.74
446.05	607.75
446.42	607.16
446.79	606.40
447.16	605.65
447.53	604.96
447.90	602.32
448.27	599.75
448.64	596.01
449.01	593.30
449.37	588.22
449.74	583.63
450.11	577.79
450.48	571.38
450.85	565.00
451.22	559.54
451.59	554.23
451.96	549.39
452.33	542.46
452.70	536.31
453.07	528.84
453.43	521.40
453.80	514.21
454.17	507.34
454.54	500.99
454.91	493.90
455.28	487.25
455.65	480.97
456.02	474.39
456.38	469.06
456.75	462.24
457.12	456.78
457.49	451.24
457.86	446.03
458.23	441.51
458.59	436.50
458.96	431.35
459.33	426.80
459.70	422.20
460.07	418.71
460.43	414.60
460.80	410.80
461.17	407.47
461.54	403.87
461.91	400.52
462.27	397.11
462.64	394.38
463.01	391.21
463.38	388.04
463.74	385.16
464.11	382.64
464.48	380.39
464.85	377.89
465.21	376.04
465.58	373.96
465.95	371.54
466.32	369.64
466.68	367.77
467.05	365.90
467.42	364.07
467.78	362.08
468.15	360.25
468.52	358.93
468.88	357.14
469.25	355.49
469.62	354.20
469.98	352.79
470.35	351.51
470.72	350.38
471.08	349.21
471.45	348.22
471.82	347.12
472.18	345.96
472.55	345.24
472.92	344.29
473.28	343.56
473.65	342.78
474.02	342.04
474.38	341.41
474.75	341.05
475.11	340.55
475.48	340.32
475.85	340.06
476.21	339.93
476.58	339.86
476.94	340.03
477.31	340.10
477.67	340.20
478.04	340.42
478.41	340.72
478.77	341.15
479.14	341.43
479.50	341.96
479.87	342.64
480.23	343.31
480.60	343.98
480.96	344.64
481.33	345.62
481.69	346.59
482.06	347.58
482.42	348.48
482.79	349.59
483.15	350.89
483.52	352.38
483.88	353.80
484.25	355.30
484.61	356.87
484.98	358.58
485.34	360.50
485.71	362.50
486.07	364.64
486.44	366.80
486.80	369.20
487.17	371.68
487.53	374.38
487.90	377.21
488.26	380.30
488.62	383.57
488.99	386.83
489.35	390.26
489.72	393.97
490.08	397.89
490.44	401.93
490.81	406.15
491.17	410.46
491.54	415.06
491.90	419.84
492.26	424.95
492.63	430.30
492.99	435.89
493.36	441.68
493.72	447.75
494.08	453.98
494.45	460.58
494.81	467.46
495.17	474.49
495.54	481.91
495.90	489.63
496.26	497.55
496.63	505.71
496.99	514.20
497.35	523.06
497.72	532.20
498.08	541.58
498.44	551.24
498.80	561.49
499.17	572.04
499.53	582.90
499.89	594.10
500.26	605.52
500.62	617.18
500.98	629.51
501.34	641.99
501.71	655.01
502.07	668.18
502.43	681.85
502.79	695.83
503.16	710.22
503.52	724.84
503.88	739.86
504.24	755.34
504.60	771.01
504.97	787.16
505.33	803.66
505.69	821.06
506.05	838.77
506.41	856.42
506.78	874.25
507.14	892.55
507.50	911.30
507.86	930.40
508.22	949.78
508.59	968.94
508.95	988.95
509.31	1009.61
509.67	1030.97
510.03	1052.38
510.39	1073.73
510.75	1095.35
511.12	1117.19
511.48	1139.16
511.84	1161.18
512.20	1183.54
512.56	1206.72
512.92	1229.95
513.28	1252.71
513.64	1275.66
514.00	1299.03
514.37	1322.69
514.73	1346.40
515.09	1369.95
515.45	1393.76
515.81	1417.83
516.17	1441.88
516.53	1465.46
516.89	1488.93
517.25	1512.60
517.61	1536.14
517.97	1560.05
518.33	1583.27
518.69	1606.47
519.05	1630.17
519.41	1653.98
519.77	1678.05
520.13	1701.46
520.49	1724.76
520.85	1748.31
521.21	1771.58
521.57	1795.20
521.93	1818.27
522.29	1841.76
522.65	1864.70
523.01	1887.55
523.37	1909.96
523.73	1933.15
524.09	1955.93
524.45	1978.52
524.81	2000.58
525.17	2022.35
525.53	2043.76
525.89	2065.74
526.25	2087.64
526.61	2108.51
526.97	2129.51
527.33	2150.27
527.68	2170.73
528.04	2190.50
528.40	2209.33
528.76	2228.15
529.12	2246.37
529.48	2264.52
529.84	2280.81
530.20	2297.71
530.56	2314.05
530.91	2330.44
531.27	2346.43
531.63	2361.67
531.99	2376.42
532.35	2390.62
532.71	2404.95
533.07	2419.62
533.42	2432.39
533.78	2446.18
534.14	2460.22
534.50	2473.31
534.86	2486.29
535.21	2497.40
535.57	2508.95
535.93	2520.28
536.29	2530.54
536.65	2540.75
537.00	2550.08
537.36	2560.45
537.72	2569.51
538.08	2577.87
538.44	2585.65
538.79	2593.11
539.15	2599.77
539.51	2606.06
539.87	2611.59
540.22	2615.35
540.58	2619.20
540.94	2624.39
541.29	2627.92
541.65	2629.74
542.01	2630.98
542.37	2631.45
542.72	2633.13
543.08	2633.31
543.44	2634.04
543.79	2633.81
544.15	2632.82
544.51	2632.06
544.87	2630.09
545.22	2627.39
545.58	2624.10
545.94	2620.78
546.29	2616.20
546.65	2611.78
547.01	2607.21
547.36	2603.39
547.72	2599.51
548.07	2594.26
548.43	2587.64
548.79	2580.08
549.14	2573.62
549.50	2567.51
549.86	2560.41
550.21	2552.43
550.57	2545.06
550.92	2535.64
551.28	2526.86
551.64	2518.26
551.99	2509.38
552.35	2499.99
552.70	2490.87
553.06	2482.40
553.41	2473.29
553.77	2463.94
554.13	2454.21
554.48	2443.97
554.84	2432.47
555.19	2421.57
555.55	2410.57
555.90	2399.54
556.26	2389.01
556.61	2377.58
556.97	2364.70
557.32	2352.44
557.68	2339.88
558.03	2327.27
558.39	2315.83
558.74	2304.50
559.10	2291.71
559.45	2279.08
559.81	2267.03
560.16	2254.53
560.52	2242.00
560.87	2229.73
561.23	2216.78
561.58	2204.14
561.94	2191.06
562.29	2177.59
562.64	2164.76
563.00	2151.59
563.35	2138.94
563.71	2126.12
564.06	2113.23
564.42	2100.84
564.77	2087.93
565.12	2075.16
565.48	2062.39
565.83	2049.50
566.19	2036.90
566.54	2024.07
566.89	2010.37
567.25	1996.83
567.60	1984.35
567.96	1971.26
568.31	1956.88
568.66	1943.14
569.02	1930.54
569.37	1917.84
569.72	1905.67
570.08	1892.26
570.43	1878.53
570.78	1864.49
571.14	1850.09
571.49	1836.24
571.84	1822.97
572.20	1808.70
572.55	1794.55
572.90	1780.27
573.26	1765.99
573.61	1751.20
573.96	1736.94
574.31	1722.78
574.67	1708.76
575.02	1693.86
575.37	1678.86
575.72	1664.84
576.08	1651.22
576.43	1636.48
576.78	1622.18
577.13	1608.16
577.49	1594.67
577.84	1581.73
578.19	1567.99
578.54	1554.26
578.90	1540.15
579.25	1525.96
579.60	1513.11
579.95	1500.24
580.30	1487.19
580.66	1473.90
581.01	1460.57
581.36	1447.29
581.71	1434.95
582.06	1422.42
582.42	1410.13
582.77	1397.98
583.12	1385.83
583.47	1373.39
583.82	1361.24
584.17	1348.76
584.53	1335.93
584.88	1323.34
585.23	1310.45
585.58	1298.36
585.93	1286.47
586.28	1275.19
586.63	1263.86
586.98	1252.21
587.34	1240.62
587.69	1228.88
588.04	1217.46
588.39	1206.44
588.74	1195.55
589.09	1184.48
589.44	1173.03
589.79	1162.06
590.14	1151.30
590.49	1140.40
590.84	1129.70
591.19	1119.18
591.54	1108.59
591.89	1098.19
592.25	1087.99
592.60	1077.48
592.95	1067.25
593.30	1057.27
593.65	1047.06
594.00	1036.96
594.35	1027.40
594.70	1017.39
595.05	1008.15
595.40	998.95
595.75	989.55
596.10	980.54
596.45	971.36
596.80	962.49
597.15	953.52
597.50	944.61
597.85	936.09
598.19	927.44
598.54	918.88
598.89	910.66
599.24	902.68
599.59	894.58
599.94	887.31
600.29	879.86
600.64	872.14
600.99	864.14
601.34	856.50
601.69	848.49
602.04	841.11
602.39	833.64
602.74	826.17
603.08	818.71
603.43	811.25
603.78	803.90
604.13	796.72
604.48	789.48
604.83	782.43
605.18	775.23
605.53	768.31
605.87	761.27
606.22	754.47
606.57	747.64
606.92	740.67
607.27	733.70
607.62	727.08
607.96	720.77
608.31	714.81
608.66	708.68
609.01	702.81
609.36	697.06
609.70	691.09
610.05	685.05
610.40	679.30
610.75	673.54
611.10	668.11
611.44	662.54
611.79	657.08
612.14	651.52
612.49	646.10
612.83	640.86
613.18	635.72
613.53	630.53
613.88	625.39
614.22	620.65
614.57	615.81
614.92	610.78
615.27	605.88
615.61	601.04
615.96	596.27
616.31	591.50
616.65	586.84
617.00	582.33
617.35	577.89
617.70	573.52
618.04	569.26
618.39	564.87
618.74	560.70
619.08	556.59
619.43	552.59
619.78	548.62
620.12	544.61
620.47	540.75
620.82	536.97
621.16	533.21
621.51	529.37
621.85	525.59
622.20	521.97
622.55	518.36
622.89	514.80
623.24	511.27
623.59	507.78
623.93	504.37
624.28	501.06
624.62	497.88
624.97	494.71
625.32	491.49
625.66	488.25
626.01	484.98
626.35	481.77
626.70	478.57
627.04	475.58
627.39	472.53
627.73	469.57
628.08	466.72
628.43	463.85
628.77	461.07
629.12	458.39
629.46	455.73
629.81	453.02
630.15	450.31
630.50	447.66
630.84	445.06
631.19	442.54
631.53	440.10
631.88	437.61
632.22	435.14
632.57	432.93
632.91	430.77
633.26	428.65
633.60	426.56
633.95	424.57
634.29	422.44
634.64	420.39
634.98	418.18
635.32	416.12
635.67	414.21
636.01	412.23
636.36	410.24
636.70	408.40
637.05	406.55
637.39	404.78
637.73	403.02
638.08	401.35
638.42	399.65
638.77	397.85
639.11	396.00
639.45	394.22
639.80	392.36
640.14	390.59
640.49	388.82
640.83	387.03
641.17	385.30
641.52	383.61
641.86	381.94
642.20	380.48
642.55	378.84
642.89	377.25
643.23	375.71
643.58	374.36
643.92	372.85
644.26	371.38
644.61	369.96
644.95	368.49
645.29	366.97
645.64	365.48
645.98	364.05
646.32	362.77
646.66	361.43
647.01	360.10
647.35	358.85
647.69	357.59
648.04	356.44
648.38	355.20
648.72	353.97
649.06	352.76
649.41	351.55
649.75	350.39
650.09	349.23
650.43	348.09
650.78	346.88
651.12	345.73
651.46	344.62
651.80	343.54
652.14	342.48
652.49	341.47
652.83	340.44
653.17	339.42
653.51	338.44
653.85	337.53
654.20	336.55
654.54	335.49
654.88	334.52
655.22	333.56
655.56	332.59
655.90	331.69
656.25	330.81
656.59	329.91
656.93	329.07
657.27	328.23
657.61	327.33
657.95	326.49
658.29	325.63
658.64	324.82
658.98	323.97
659.32	323.17
659.66	322.39
660.00	321.62
660.34	320.90
660.68	320.11
661.02	319.29
661.36	318.51
661.70	317.77
662.05	317.03
662.39	316.30
662.73	315.65
663.07	314.99
663.41	314.29
663.75	313.58
664.09	312.88
664.43	312.14
664.77	311.48
665.11	310.78
665.45	310.14
665.79	309.51
666.13	308.86
666.47	308.17
666.81	307.46
667.15	306.72
667.49	306.07
667.83	305.47
668.17	304.84
668.51	304.25
668.85	303.70
669.19	303.18
669.53	302.56
669.87	301.91
670.21	301.31
670.55	300.73
670.89	300.22
671.23	299.65
671.57	299.13
671.91	298.63
672.25	298.16
672.58	297.69
672.92	297.13
673.26	296.65
673.60	296.17
673.94	295.72
674.28	295.30
674.62	294.83
674.96	294.32
675.30	293.88
675.64	293.40
675.97	292.90
676.31	292.36
676.65	291.87
676.99	291.45
677.33	290.94
677.67	290.48
678.01	289.95
678.34	289.49
678.68	289.05
679.02	288.55
679.36	288.06
679.70	287.58
680.04	287.14
680.37	286.68
680.71	286.24
681.05	285.81
681.39	285.35
681.73	284.86
682.06	284.39
682.40	283.94
682.74	283.52
683.08	283.17
683.42	282.75
683.75	282.38
684.09	281.91
684.43	281.50
684.77	281.07
685.10	280.69
685.44	280.29
685.78	279.90
686.12	279.52
686.45	279.11
686.79	278.68
687.13	278.29
687.46	277.87
687.80	277.47
688.14	277.02
688.48	276.63
688.81	276.23
689.15	275.86
689.49	275.46
689.82	275.05
690.16	274.57
690.50	274.19
690.83	273.78
691.17	273.38
691.51	273.00
691.84	272.64
692.18	272.22
692.52	271.82
692.85	271.41
693.19	271.07
693.52	270.70
693.86	270.32
694.20	269.94
694.53	269.57
694.87	269.18
695.21	268.79
695.54	268.41
695.88	268.03
696.21	267.62
696.55	267.26
696.88	266.90
697.22	266.54
697.56	266.17
697.89	265.77
698.23	265.42
698.56	265.03
698.90	264.67
699.23	264.29
699.57	263.94
699.90	263.57
700.24	263.18
700.58	262.84
700.91	262.55
701.25	262.33
701.58	262.05
701.92	261.76
702.25	261.44
702.59	261.12
702.92	260.81
703.26	260.48
703.59	260.16
703.93	259.94
704.26	259.62
704.60	259.29
704.93	258.97
705.26	258.65
705.60	258.39
705.93	258.05
706.27	257.78
706.60	257.51
706.94	257.27
707.27	256.94
707.61	256.63
707.94	256.29
708.27	255.86
708.61	255.51
708.94	255.20
709.28	254.92
709.61	254.62
709.94	254.36
710.28	254.08
710.61	253.83
710.95	253.46
711.28	253.28
711.61	253.02
711.95	252.79
712.28	252.51
712.61	252.23
712.95	252.05
713.28	251.87
713.61	251.59
713.95	251.28
714.28	251.05
714.61	250.78
714.95	250.54
715.28	250.29
715.61	250.07
715.95	249.85
716.28	249.62
716.61	249.44
716.95	249.20
717.28	248.99
717.61	248.75
717.94	248.53
718.28	248.22
718.61	247.99
718.94	247.75
719.27	247.54
719.61	247.35
719.94	247.09
720.27	246.80
720.60	246.59
720.94	246.40
721.27	246.21
721.60	246.04
721.93	245.84
722.27	245.68
722.60	245.50
722.93	245.29
723.26	245.09
723.59	244.85
723.93	244.67
724.26	244.48
724.59	244.29
724.92	244.13
725.25	244.00
725.59	243.83
725.92	243.69
726.25	243.53
726.58	243.36
726.91	243.19
727.24	243.05
727.57	242.89
727.91	242.70
728.24	242.57
728.57	242.40
728.90	242.26
729.23	242.06
729.56	241.95
729.89	241.80
730.22	241.65
730.55	241.51
730.89	241.35
731.22	241.21
731.55	241.04
731.88	240.89
732.21	240.72
732.54	240.56
732.87	240.40
733.20	240.27
733.53	240.13
733.86	240.00
734.19	239.84
734.52	239.72
734.85	239.68
735.18	239.51
735.51	239.42
735.84	239.29
736.17	239.20
736.50	239.00
736.83	239.02
737.16	238.90
737.49	238.79
737.82	238.67
738.15	238.57
738.48	238.45
738.81	238.33
739.14	238.19
739.47	238.07
739.80	237.94
740.13	237.82
740.46	237.69
740.79	237.56
741.12	237.44
741.45	237.30
741.78	237.11
742.11	237.03
742.44	236.89
742.77	236.79
743.10	236.65
743.43	236.55
743.75	236.30
744.08	236.38
744.41	236.27
744.74	236.15
745.07	236.01
745.40	235.94
745.73	235.89
746.06	235.80
746.39	235.72
746.71	235.62
747.04	235.51
747.37	235.41
747.70	235.35
748.03	235.26
748.36	235.20
748.68	235.11
749.01	234.98
749.34	234.89
749.67	234.79
750.00	234.71
750.33	234.71
750.65	234.64
750.98	234.37
751.31	234.28
751.64	234.20
751.97	234.18
752.29	234.09
752.62	233.94
752.95	233.85
753.28	233.74
753.60	233.65
753.93	233.60
754.26	233.52
754.59	233.39
754.91	233.30
755.24	233.19
755.57	233.16
755.90	233.08
756.22	232.99
756.55	232.89
756.88	232.79
757.20	232.63
757.53	232.51
757.86	232.43
758.19	232.36
758.51	232.29
758.84	232.14
759.17	232.05
759.49	231.99
759.82	231.98
760.15	231.94
760.47	231.88
760.80	231.78
761.13	231.74
761.45	231.68
761.78	231.62
762.11	231.57
762.43	231.44
762.76	231.38
763.08	231.34
763.41	231.29
763.74	231.24
764.06	231.19
764.39	231.14
764.71	231.09
765.04	231.03
765.37	230.96
765.69	230.93
766.02	230.88
766.34	230.83
766.67	230.72
767.00	230.67
767.32	230.69
767.65	230.71
767.97	230.66
768.30	230.62
768.62	230.58
768.95	230.51
769.27	230.46
769.60	230.44
769.92	230.37
770.25	230.31
770.57	230.24
770.90	230.20
771.22	230.14
771.55	230.10
771.87	230.06
772.20	230.02
772.52	230.08
772.85	230.19
773.17	230.15
773.50	230.11
773.82	230.06
774.15	229.96
774.47	229.84
774.80	229.79
775.12	229.75
775.45	229.70
775.77	229.66
776.09	229.65
776.42	229.61
776.74	229.62
777.07	229.58
777.39	229.56
777.72	229.51
778.04	229.50
778.36	229.46
778.69	229.43
779.01	229.42
779.33	229.28
779.66	229.11
779.98	229.07
780.31	229.05
780.63	229.08
780.95	229.08
781.28	229.05
781.60	229.01
781.92	228.98
782.25	228.97
782.57	228.94
782.89	228.90
783.22	228.86
783.54	228.82
783.86	228.80
784.19	228.77
784.51	228.78
784.83	228.74
785.16	228.70
785.48	228.68
785.80	228.66
786.12	228.65
786.45	228.63
786.77	228.61
787.09	228.59
787.42	228.52
787.74	228.49
788.06	228.49
788.38	228.47
788.71	228.44
789.03	228.42
789.35	228.42
789.67	228.39
789.99	228.38
790.32	228.34
790.64	228.34
790.96	228.44
791.28	228.38
791.61	228.35
791.93	228.35
792.25	228.32
792.57	228.39
792.89	228.34
793.21	228.33
793.54	228.30
793.86	228.27
794.18	228.26
794.50	228.22
794.82	228.19
795.14	228.19
795.47	228.20
795.79	228.19
796.11	228.15
796.43	228.12
796.75	228.11
797.07	228.09
797.39	228.07
797.71	227.96
798.04	227.95
798.36	227.94
798.68	227.92
799.00	227.92
799.32	227.83
799.64	227.84
799.96	227.82
800.28	227.83
800.60	227.81
800.92	227.79
801.24	227.76
801.56	227.76
801.89	227.74
802.21	227.72
802.53	227.69
802.85	227.70
803.17	227.76
803.49	227.71
803.81	227.70
804.13	227.68
804.45	227.65
804.77	227.65
805.09	227.64
805.41	227.61
805.73	227.58
806.05	227.54
806.37	227.52
806.69	227.50
807.01	227.47
807.33	227.48
807.65	227.43
807.97	227.49
808.28	227.46
808.60	227.44
808.92	227.42
809.24	227.48
809.56	227.46
809.88	227.40
810.20	227.40
810.52	227.40
810.84	227.37
811.16	227.35
811.48	227.33
811.80	227.37
812.12	227.35
812.43	227.37
812.75	227.37
813.07	227.34
813.39	227.34
813.71	227.32
814.03	227.29
814.35	227.28
814.67	227.22
814.98	227.21
815.30	227.20
815.62	227.18
815.94	227.09
816.26	227.08
816.58	227.05
816.89	227.06
817.21	227.03
817.53	227.02
817.85	227.03
818.17	227.01
818.48	226.94
818.80	226.96
819.12	226.93
819.44	226.90
819.76	226.89
820.07	226.88
820.39	226.87
820.71	226.86
821.03	226.85
821.34	226.83
821.66	226.84
821.98	226.84
822.30	226.82
822.61	226.89
822.93	226.86
823.25	226.85
823.57	226.84
823.88	226.85
824.20	226.84
824.52	226.85
824.83	226.83
825.15	226.82
825.47	226.80
825.79	226.81
826.10	226.79
826.42	226.78
826.74	226.78
827.05	226.77
827.37	226.77
827.69	226.77
828.00	226.77
828.32	226.75
828.64	226.73
828.95	226.80
829.27	226.76
829.58	226.75
829.90	226.77
830.22	226.77
830.53	226.74
830.85	226.72
831.17	226.68
831.48	226.68
831.80	226.67
832.11	226.67
832.43	226.65
832.75	226.64
833.06	226.72
833.38	226.68
833.69	226.67
834.01	226.67
834.32	226.67
834.64	226.64
834.96	226.64
835.27	226.64
835.59	226.59
835.90	226.57
836.22	226.56
836.53	226.53
836.85	226.52
837.16	226.64
837.48	226.65
837.79	226.69
838.11	226.70
838.42	226.70
838.74	226.70
839.05	226.69
839.37	226.69
839.68	226.60
840.00	226.60
840.31	226.62
840.63	226.61
840.94	226.59
841.26	226.58
841.57	226.58
841.88	226.59
842.20	226.57
842.51	226.55
842.83	226.55
843.14	226.67
843.46	226.65
843.77	226.59
844.08	226.57
844.40	226.52
844.71	226.51
845.03	226.49
845.34	226.48
845.65	226.48
845.97	226.48
846.28	226.49
846.60	226.50
846.91	226.48
847.22	226.46
847.54	226.49
847.85	226.50
848.16	226.48
848.48	226.46
848.79	226.51
849.10	226.52
849.42	226.52
849.73	226.40
850.04	226.39
850.36	226.33
850.67	226.35
850.98	226.36
851.30	226.36
851.61	226.36
851.92	226.36
852.23	226.40
852.55	226.40
852.86	226.39
853.17	226.39
853.49	226.40
853.80	226.43
854.11	226.43
854.42	226.45
854.74	226.45
855.05	226.45
855.36	226.38
855.67	226.39
855.99	226.38
856.30	226.53
856.61	226.53
856.92	226.53
857.23	226.53
857.55	226.51
857.86	226.50
858.17	226.52
858.48	226.49
858.79	226.45
859.11	226.46
859.42	226.46
859.73	226.43
860.04	226.42
860.35	226.39
860.66	226.34
860.98	226.33
861.29	226.34
861.60	226.32
861.91	226.35
862.22	226.33
862.53	226.30
862.84	226.16
863.16	226.19
863.47	226.18
863.78	226.15
864.09	226.16
864.40	226.17
864.71	226.17
865.02	226.18
865.33	226.17
865.64	226.13
865.95	226.13
866.27	226.21
866.58	226.19
866.89	226.21
867.20	226.20
867.51	226.18
867.82	226.18
868.13	226.21
868.44	226.18
868.75	226.20
869.06	226.21
869.37	226.22
869.68	226.19
869.99	226.20
870.30	226.21
870.61	226.21
870.92	226.19
871.23	226.17
871.54	226.18
871.85	226.22
872.16	226.24
872.47	226.23
872.78	226.17
873.09	226.19
873.40	226.17
873.71	226.18
874.02	226.19
874.33	226.17
874.64	226.14
874.95	226.16
875.26	226.14
875.56	226.12
875.87	226.12
876.18	226.11
876.49	226.24
876.80	226.22
877.11	226.20
877.42	226.22
877.73	226.22
878.04	226.21
878.35	226.21
878.66	226.20
878.96	226.20
879.27	226.19
879.58	226.17
879.89	226.17
880.20	226.21
880.51	226.20
880.82	226.20
881.12	226.21
881.43	226.18
881.74	226.16
882.05	226.16
882.36	226.16
882.67	226.17
882.97	226.03
883.28	226.01
883.59	226.02
883.90	226.02
884.21	226.03
884.51	226.02
884.82	225.99
885.13	225.99
885.44	225.99
885.74	225.99
886.05	225.99
886.36	225.99
886.67	225.95
886.98	226.01
887.28	226.03
887.59	226.02
887.90	226.03
888.20	226.02
888.51	226.05
888.82	226.02
889.13	226.03
889.43	226.14
889.74	226.13
890.05	226.13
890.35	226.12
890.66	226.09
890.97	226.08
891.28	226.08
891.58	226.09
891.89	226.08
892.20	226.06
892.50	226.05
892.81	226.04
893.12	226.03
893.42	225.96
893.73	225.96
894.04	225.97
894.34	225.98
894.65	225.98
894.95	225.96
895.26	225.97
895.57	226.02
895.87	225.90
896.18	225.92
896.48	225.92
896.79	225.93
897.10	225.95
897.40	225.95
897.71	225.96
898.01	225.95
898.32	225.97
898.63	225.98
898.93	225.98
899.24	225.99
899.54	225.99
899.85	225.99
900.15	225.99
900.46	225.98
900.76	226.00
901.07	226.00
901.38	226.00
901.68	226.00
901.99	225.94
902.29	225.95
902.60	225.93
902.90	225.92
903.21	225.92
903.51	225.90
903.82	225.93
904.12	225.93
904.43	225.92
904.73	225.90
905.03	225.90
905.34	226.01
905.64	226.01
905.95	226.00
906.25	226.00
906.56	225.99
906.86	225.99
907.17	225.97
907.47	225.98
907.77	225.96
908.08	225.95
908.38	225.95
908.69	225.96
908.99	225.98
909.30	225.99
909.60	225.99
909.90	226.00
910.21	225.96
910.51	225.92
910.81	225.93
911.12	225.94
911.42	225.94
911.73	225.82
912.03	225.83
912.33	225.85
912.64	225.84
912.94	225.83
913.24	225.82
913.55	225.82
913.85	225.79
914.15	225.83
914.46	225.84
914.76	225.83
915.06	225.83
915.37	225.81
915.67	225.79
915.97	225.78
916.27	225.76
916.58	225.77
916.88	225.77
917.18	225.76
917.49	225.84
917.79	225.84
918.09	225.86
918.39	225.89
918.70	225.88
919.00	225.89
919.30	225.95
919.60	225.94
919.91	225.92
920.21	225.94
920.51	225.91
920.81	225.90
921.12	225.91
921.42	225.91
921.72	225.91
922.02	225.92
922.32	225.95
922.63	225.96
922.93	226.03
923.23	226.04
923.53	226.04
923.83	225.95
924.13	225.96
924.44	225.96
924.74	225.98
925.04	226.01
925.34	226.01
925.64	225.95
925.94	225.96
926.24	226.03
926.55	226.01
926.85	226.03
927.15	226.02
927.45	226.02
927.75	226.02
928.05	226.01
928.35	226.01
928.65	226.03
928.95	226.04
929.26	225.98
929.56	226.00
929.86	226.01
930.16	226.01
930.46	226.00
930.76	226.00
931.06	225.93
931.36	225.89
931.66	225.91
931.96	225.92
932.26	225.93
932.56	225.87
932.86	225.88
933.16	225.88
933.46	225.87
933.76	225.85
934.06	225.86
934.36	225.92
934.66	225.90
934.96	225.88
935.26	225.88
935.56	225.88
935.86	225.85
936.16	225.83
936.46	225.82
936.76	225.80
937.06	225.78
937.36	225.80
937.66	225.80
937.96	225.79
938.26	225.76
938.56	225.76
938.86	225.77
939.16	225.80
939.46	225.81
939.76	225.82
940.06	225.81
940.35	225.80
940.65	225.74
940.95	225.76
941.25	225.73
941.55	225.72
941.85	225.71
942.15	225.74
942.45	225.78
942.75	225.78
943.04	225.79
943.34	225.82
943.64	225.81
943.94	225.80
944.24	225.80
944.54	225.81
944.84	225.80
945.13	225.79
945.43	225.76
945.73	225.75
946.03	225.76
946.33	225.75
946.62	225.73
946.92	225.72
947.22	225.73
947.52	225.74
947.82	225.75
948.11	225.74
948.41	225.71
948.71	225.67
949.01	225.67
949.31	225.66
949.60	225.64
949.90	225.66
950.20	225.65
950.50	225.64
950.79	225.63
951.09	225.65
951.39	225.65
951.69	225.64
951.98	225.66
952.28	225.67
952.58	225.67
952.87	225.68
953.17	225.69
953.47	225.67
953.76	225.66
954.06	225.65
954.36	225.64
954.66	225.64
954.95	225.68
955.25	225.68
955.55	225.70
955.84	225.68
956.14	225.68
956.44	225.69
956.73	225.69
957.03	225.70
957.32	225.69
957.62	225.69
957.92	225.71
958.21	225.69
958.51	225.83
958.81	225.84
959.10	225.86
959.40	225.88
959.69	225.89
959.99	225.92
960.29	225.92
960.58	225.91
960.88	225.96
961.17	225.94
961.47	225.96
961.76	225.93
962.06	225.97
962.36	225.96
962.65	225.96
962.95	225.97
963.24	225.95
963.54	225.96
963.83	225.97
964.13	225.96
964.42	225.94
964.72	225.84
965.01	225.84
965.31	225.83
965.60	225.80
965.90	225.87
966.19	225.84
966.49	225.85
966.78	225.85
967.08	225.83
967.37	225.83
967.67	225.80
967.96	225.83
968.26	225.82
968.55	225.84
968.85	225.83
969.14	225.83
969.43	225.84
969.73	225.82
970.02	225.81
970.32	225.78
970.61	225.77
970.91	225.74
971.20	225.72
971.49	225.71
971.79	225.73
972.08	225.64
972.38	225.66
972.67	225.65
972.96	225.68
973.26	225.66
973.55	225.70
973.85	225.71
974.14	225.70
974.43	225.71
974.73	225.69
975.02	225.68
975.31	225.68
975.61	225.67
975.90	225.67
976.19	225.66
976.49	225.69
976.78	225.70
977.07	225.70
977.37	225.71
977.66	225.73
977.95	225.70
978.24	225.71
978.54	225.73
978.83	225.72
979.12	225.70
979.42	225.70
979.71	225.68
980.00	225.68
980.29	225.69
980.59	225.67
980.88	225.70
981.17	225.71
981.46	225.71
981.76	225.71
982.05	225.75
982.34	225.76
982.63	225.75
982.93	225.76
983.22	225.78
983.51	225.78
983.80	225.80
984.09	225.82
984.39	225.82
984.68	225.81
984.97	225.81
985.26	225.81
985.55	225.82
985.85	225.80
986.14	225.81
986.43	225.83
986.72	225.82
987.01	225.78
987.30	225.77
987.59	225.77
987.89	225.78
988.18	225.73
988.47	225.72
988.76	225.72
989.05	225.70
989.34	225.69
989.63	225.73
989.92	225.70
990.22	225.68
990.51	225.68
990.80	225.66
991.09	225.66
991.38	225.67
991.67	225.65
991.96	225.64
992.25	225.64
992.54	225.63
992.83	225.61
993.12	225.60
993.41	225.62
993.70	225.67
993.99	225.68
994.28	225.70
994.58	225.72
994.87	225.70
995.16	225.70
995.45	225.68
995.74	225.64
996.03	225.66
996.32	225.67
996.61	225.70
996.90	225.70
997.19	225.70
997.48	225.70
997.77	225.69
998.06	225.70
998.34	225.67
998.63	225.67
998.92	225.69
999.21	225.71
999.50	225.70
999.79	225.65
1000.08	225.64
1000.37	225.65
1000.66	225.63
1000.95	225.66
1001.24	225.67
1001.53	225.69
1001.82	225.69
1002.11	225.66
1002.40	225.67
1002.68	225.69
1002.97	225.79
1003.26	225.78
1003.55	225.76
1003.84	225.78
1004.13	225.83
1004.42	225.82
1004.71	225.82
1004.99	225.80
1005.28	225.84
1005.57	225.83
1005.86	225.83
1006.15	225.81
1006.44	225.80
1006.72	225.82
1007.01	225.79
1007.30	225.80
1007.59	225.79
1007.88	225.79
1008.17	225.80
1008.45	225.77
1008.74	225.73
1009.03	225.67
1009.32	225.67
1009.60	225.67
1009.89	225.66
1010.18	225.61
1010.47	225.61
1010.76	225.61
1011.04	225.61
1011.33	225.61
1011.62	225.61
1011.91	225.62
1012.19	225.63
1012.48	225.63
1012.77	225.61
1013.05	225.66
1013.34	225.66
1013.63	225.65
1013.92	225.66
1014.20	225.66
1014.49	225.67
1014.78	225.68
1015.06	225.63
1015.35	225.63
1015.64	225.66
1015.92	225.68
1016.21	225.68
1016.50	225.68
1016.78	225.70
1017.07	225.72
1017.36	225.69
1017.64	225.67
1017.93	225.69
1018.22	225.69
1018.50	225.68
1018.79	225.69
1019.08	225.65
1019.36	225.66
1019.65	225.63
1019.93	225.66
1020.22	225.68
1020.51	225.74
1020.79	225.73
1021.08	225.63
1021.36	225.42
1021.65	225.75
1021.94	225.67
1022.22	225.72
1022.51	225.27
1022.79	226.20
1023.08	225.86
1023.36	226.99
1023.65	225.41
>>>>>End Processed Spectral Data<<<<<
