SpectraSuite Data File
++++++++++++++++++++++++++++++++++++
Date: Fri Oct 02 17:16:31 EDT 2015
User: lab3
Dark Spectrum Present: No
Reference Spectrum Present: No
Number of Sampled Component Spectra: 1
Spectrometers: USB2E7196
Integration Time (usec): 46000 (USB2E7196)
Spectra Averaged: 600 (USB2E7196)
Boxcar Smoothing: 10 (USB2E7196)
Correct for Electrical Dark: No (USB2E7196)
Strobe/Lamp Enabled: No (USB2E7196)
Correct for Detector Non-linearity: No (USB2E7196)
Correct for Stray Light: No (USB2E7196)
Number of Pixels in Processed Spectrum: 2048
>>>>>Begin Processed Spectral Data<<<<<
339.09	0.00
339.48	215.02
339.86	216.16
340.24	217.67
340.63	219.08
341.01	222.39
341.39	221.81
341.78	223.19
342.16	224.43
342.54	224.86
342.93	213.24
343.31	224.02
343.69	224.55
344.07	225.01
344.46	225.44
344.84	225.83
345.22	226.05
345.60	226.31
345.99	226.51
346.37	226.65
346.75	226.76
347.13	226.84
347.52	226.93
347.90	227.02
348.28	227.06
348.66	227.11
349.05	227.09
349.43	227.16
349.81	227.20
350.19	227.26
350.57	227.33
350.96	227.43
351.34	227.52
351.72	227.62
352.10	227.73
352.48	227.81
352.87	227.88
353.25	227.94
353.63	228.00
354.01	228.07
354.39	228.14
354.77	228.22
355.15	228.32
355.54	228.37
355.92	228.39
356.30	228.47
356.68	228.62
357.06	228.71
357.44	228.75
357.82	228.83
358.20	228.94
358.58	229.01
358.97	229.07
359.35	229.16
359.73	229.23
360.11	229.29
360.49	229.35
360.87	229.39
361.25	229.46
361.63	229.55
362.01	229.59
362.39	229.63
362.77	229.68
363.15	229.71
363.53	229.74
363.91	229.76
364.29	229.78
364.67	229.69
365.05	229.71
365.43	229.75
365.81	229.78
366.19	229.80
366.57	229.86
366.95	229.86
367.33	229.82
367.71	229.82
368.09	229.84
368.47	229.83
368.85	229.82
369.23	229.84
369.61	229.79
369.99	229.81
370.37	229.80
370.75	229.87
371.13	229.83
371.51	229.79
371.89	229.78
372.27	229.76
372.65	229.74
373.03	229.70
373.41	229.65
373.78	229.59
374.16	229.49
374.54	229.40
374.92	229.35
375.30	229.32
375.68	229.26
376.06	229.22
376.44	229.17
376.82	229.12
377.19	229.06
377.57	229.02
377.95	228.93
378.33	228.87
378.71	228.72
379.09	228.67
379.47	228.64
379.84	228.58
380.22	228.52
380.60	228.45
380.98	228.39
381.36	228.33
381.73	228.27
382.11	228.26
382.49	228.23
382.87	228.16
383.25	228.12
383.62	228.22
384.00	228.15
384.38	228.10
384.76	228.09
385.13	228.09
385.51	228.03
385.89	227.98
386.27	227.97
386.64	227.94
387.02	227.89
387.40	227.84
387.78	227.81
388.15	227.79
388.53	227.76
388.91	227.74
389.29	227.72
389.66	227.71
390.04	227.68
390.42	227.66
390.79	227.66
391.17	227.63
391.55	227.48
391.92	227.46
392.30	227.46
392.68	227.41
393.05	227.38
393.43	227.39
393.81	227.40
394.18	227.36
394.56	227.36
394.94	227.39
395.31	227.38
395.69	227.44
396.06	227.45
396.44	227.47
396.82	227.47
397.19	227.56
397.57	227.56
397.95	227.60
398.32	227.60
398.70	227.64
399.07	227.69
399.45	227.72
399.82	227.77
400.20	227.81
400.58	227.87
400.95	227.90
401.33	228.00
401.70	228.15
402.08	228.25
402.45	228.33
402.83	228.46
403.20	228.56
403.58	228.64
403.95	228.78
404.33	228.93
404.71	229.09
405.08	229.29
405.46	229.46
405.83	229.65
406.21	229.83
406.58	230.04
406.96	230.27
407.33	230.52
407.70	230.78
408.08	231.15
408.45	231.47
408.83	231.82
409.20	232.13
409.58	232.42
409.95	232.81
410.33	233.25
410.70	233.67
411.08	234.15
411.45	234.67
411.82	235.19
412.20	235.79
412.57	236.49
412.95	237.04
413.32	237.75
413.69	238.49
414.07	239.30
414.44	240.16
414.82	241.01
415.19	242.03
415.56	243.08
415.94	244.15
416.31	245.36
416.68	246.57
417.06	247.98
417.43	249.30
417.81	250.81
418.18	252.35
418.55	254.00
418.93	255.74
419.30	257.57
419.67	259.52
420.04	261.50
420.42	263.57
420.79	265.97
421.16	268.38
421.54	270.83
421.91	273.40
422.28	276.07
422.66	278.97
423.03	281.75
423.40	284.62
423.77	287.70
424.15	290.87
424.52	294.16
424.89	297.73
425.26	301.28
425.64	304.58
426.01	308.28
426.38	312.08
426.75	315.99
427.13	320.01
427.50	324.22
427.87	328.59
428.24	333.01
428.61	337.27
428.99	341.87
429.36	346.91
429.73	351.71
430.10	356.53
430.47	361.46
430.85	366.50
431.22	371.95
431.59	377.56
431.96	383.03
432.33	389.15
432.70	394.94
433.08	401.77
433.45	408.27
433.82	414.63
434.19	421.79
434.56	428.84
434.93	435.63
435.30	442.35
435.68	449.94
436.05	457.39
436.42	464.80
436.79	471.58
437.16	478.87
437.53	486.71
437.90	494.51
438.27	502.18
438.64	510.46
439.01	517.95
439.38	524.81
439.75	531.40
440.13	538.80
440.50	545.84
440.87	551.44
441.24	557.53
441.61	564.21
441.98	569.04
442.35	574.78
442.72	580.61
443.09	586.15
443.46	589.61
443.83	592.11
444.20	594.14
444.57	597.26
444.94	598.97
445.31	600.72
445.68	602.17
446.05	603.15
446.42	602.59
446.79	601.82
447.16	601.12
447.53	600.43
447.90	597.82
448.27	595.32
448.64	591.66
449.01	589.06
449.37	584.10
449.74	579.55
450.11	573.76
450.48	567.47
450.85	561.21
451.22	555.85
451.59	550.58
451.96	545.86
452.33	539.05
452.70	533.03
453.07	525.69
453.43	518.39
453.80	511.33
454.17	504.55
454.54	498.34
454.91	491.32
455.28	484.76
455.65	478.60
456.02	472.10
456.38	466.86
456.75	460.13
457.12	454.73
457.49	449.30
457.86	444.18
458.23	439.69
458.59	434.73
458.96	429.65
459.33	425.21
459.70	420.67
460.07	417.23
460.43	413.16
460.80	409.41
461.17	406.14
461.54	402.57
461.91	399.27
462.27	395.90
462.64	393.21
463.01	390.09
463.38	386.95
463.74	384.09
464.11	381.59
464.48	379.36
464.85	376.89
465.21	375.07
465.58	373.02
465.95	370.65
466.32	368.78
466.68	366.94
467.05	365.08
467.42	363.28
467.78	361.33
468.15	359.52
468.52	358.21
468.88	356.44
469.25	354.83
469.62	353.56
469.98	352.17
470.35	350.91
470.72	349.79
471.08	348.66
471.45	347.71
471.82	346.65
472.18	345.48
472.55	344.77
472.92	343.82
473.28	343.06
473.65	342.29
474.02	341.55
474.38	340.91
474.75	340.56
475.11	340.05
475.48	339.83
475.85	339.59
476.21	339.45
476.58	339.37
476.94	339.52
477.31	339.59
477.67	339.68
478.04	339.89
478.41	340.19
478.77	340.62
479.14	340.91
479.50	341.41
479.87	342.12
480.23	342.79
480.60	343.45
480.96	344.13
481.33	345.13
481.69	346.11
482.06	347.10
482.42	347.98
482.79	349.08
483.15	350.34
483.52	351.79
483.88	353.20
484.25	354.69
484.61	356.28
484.98	357.97
485.34	359.87
485.71	361.87
486.07	363.97
486.44	366.07
486.80	368.43
487.17	370.88
487.53	373.53
487.90	376.32
488.26	379.37
488.62	382.60
488.99	385.83
489.35	389.22
489.72	392.90
490.08	396.78
490.44	400.78
490.81	404.96
491.17	409.21
491.54	413.78
491.90	418.51
492.26	423.55
492.63	428.84
492.99	434.34
493.36	440.05
493.72	446.09
494.08	452.25
494.45	458.79
494.81	465.60
495.17	472.59
495.54	479.94
495.90	487.60
496.26	495.43
496.63	503.52
496.99	511.91
497.35	520.70
497.72	529.76
498.08	539.02
498.44	548.56
498.80	558.73
499.17	569.16
499.53	579.87
499.89	590.96
500.26	602.27
500.62	613.88
500.98	626.10
501.34	638.47
501.71	651.39
502.07	664.48
502.43	678.10
502.79	691.96
503.16	706.25
503.52	720.76
503.88	735.68
504.24	751.04
504.60	766.60
504.97	782.67
505.33	799.15
505.69	816.50
506.05	834.21
506.41	851.79
506.78	869.57
507.14	887.93
507.50	906.69
507.86	925.79
508.22	945.12
508.59	964.22
508.95	984.15
509.31	1004.80
509.67	1026.10
510.03	1047.37
510.39	1068.77
510.75	1090.33
511.12	1112.09
511.48	1134.06
511.84	1156.07
512.20	1178.46
512.56	1201.72
512.92	1224.96
513.28	1247.88
513.64	1270.97
514.00	1294.50
514.37	1318.32
514.73	1342.11
515.09	1365.80
515.45	1389.81
515.81	1413.98
516.17	1438.37
516.53	1462.14
516.89	1485.80
517.25	1509.66
517.61	1533.48
517.97	1557.63
518.33	1581.30
518.69	1604.96
519.05	1629.07
519.41	1653.40
519.77	1677.91
520.13	1701.63
520.49	1725.33
520.85	1749.30
521.21	1772.82
521.57	1796.77
521.93	1820.18
522.29	1844.09
522.65	1867.48
523.01	1890.80
523.37	1913.72
523.73	1937.27
524.09	1960.73
524.45	1983.83
524.81	2006.54
525.17	2029.03
525.53	2051.00
525.89	2073.39
526.25	2095.75
526.61	2117.09
526.97	2138.57
527.33	2159.99
527.68	2181.14
528.04	2201.51
528.40	2220.96
528.76	2240.71
529.12	2259.92
529.48	2278.73
529.84	2295.78
530.20	2313.49
530.56	2330.60
530.91	2347.82
531.27	2364.67
531.63	2380.66
531.99	2396.36
532.35	2411.40
532.71	2426.51
533.07	2442.17
533.42	2456.13
533.78	2470.97
534.14	2486.03
534.50	2500.15
534.86	2514.07
535.21	2526.12
535.57	2538.56
535.93	2550.83
536.29	2561.94
536.65	2572.92
537.00	2583.32
537.36	2594.54
537.72	2604.27
538.08	2613.59
538.44	2622.22
538.79	2630.49
539.15	2637.90
539.51	2644.92
539.87	2651.32
540.22	2655.88
540.58	2660.56
540.94	2666.32
541.29	2670.66
541.65	2673.21
542.01	2675.09
542.37	2676.29
542.72	2678.78
543.08	2679.70
543.44	2681.14
543.79	2681.59
544.15	2681.16
544.51	2681.16
544.87	2680.09
545.22	2678.27
545.58	2675.77
545.94	2673.38
546.29	2669.67
546.65	2666.03
547.01	2662.23
547.36	2659.16
547.72	2656.18
548.07	2651.53
548.43	2645.38
548.79	2638.39
549.14	2632.63
549.50	2627.10
549.86	2620.68
550.21	2613.26
550.57	2606.69
550.92	2597.92
551.28	2589.71
551.64	2581.75
551.99	2573.37
552.35	2564.35
552.70	2555.77
553.06	2547.39
553.41	2538.34
553.77	2529.16
554.13	2519.88
554.48	2509.87
554.84	2498.58
555.19	2487.81
555.55	2477.11
555.90	2466.57
556.26	2456.45
556.61	2445.25
556.97	2432.52
557.32	2420.32
557.68	2407.99
558.03	2395.51
558.39	2384.11
558.74	2373.05
559.10	2360.35
559.45	2347.93
559.81	2336.15
560.16	2323.60
560.52	2311.35
560.87	2299.40
561.23	2286.69
561.58	2274.16
561.94	2261.21
562.29	2247.80
562.64	2235.12
563.00	2222.05
563.35	2209.43
563.71	2196.58
564.06	2183.75
564.42	2171.55
564.77	2158.74
565.12	2145.91
565.48	2132.95
565.83	2120.06
566.19	2107.28
566.54	2094.52
566.89	2080.61
567.25	2066.81
567.60	2054.32
567.96	2041.11
568.31	2026.60
568.66	2012.74
569.02	1999.99
569.37	1987.23
569.72	1975.04
570.08	1961.49
570.43	1947.63
570.78	1933.59
571.14	1918.97
571.49	1904.92
571.84	1891.47
572.20	1876.89
572.55	1862.51
572.90	1848.13
573.26	1833.67
573.61	1818.71
573.96	1804.20
574.31	1789.97
574.67	1775.74
575.02	1760.61
575.37	1745.49
575.72	1731.27
576.08	1717.35
576.43	1702.25
576.78	1687.67
577.13	1673.31
577.49	1659.30
577.84	1645.87
578.19	1631.55
578.54	1617.49
578.90	1602.90
579.25	1588.24
579.60	1575.09
579.95	1561.80
580.30	1548.33
580.66	1534.70
581.01	1520.98
581.36	1507.24
581.71	1494.50
582.06	1481.64
582.42	1469.01
582.77	1456.36
583.12	1443.68
583.47	1430.94
583.82	1418.31
584.17	1405.30
584.53	1392.02
584.88	1379.12
585.23	1365.83
585.58	1353.39
585.93	1341.05
586.28	1329.47
586.63	1317.93
586.98	1305.86
587.34	1293.93
587.69	1281.74
588.04	1269.84
588.39	1258.32
588.74	1246.94
589.09	1235.30
589.44	1223.34
589.79	1211.96
590.14	1200.72
590.49	1189.44
590.84	1178.26
591.19	1167.51
591.54	1156.56
591.89	1145.72
592.25	1135.06
592.60	1124.13
592.95	1113.53
593.30	1103.16
593.65	1092.54
594.00	1081.93
594.35	1071.96
594.70	1061.49
595.05	1051.90
595.40	1042.19
595.75	1032.38
596.10	1023.10
596.45	1013.52
596.80	1004.30
597.15	994.79
597.50	985.46
597.85	976.54
598.19	967.44
598.54	958.39
598.89	949.83
599.24	941.51
599.59	933.08
599.94	925.50
600.29	917.70
600.64	909.64
600.99	901.22
601.34	893.16
601.69	884.77
602.04	877.07
602.39	869.20
602.74	861.38
603.08	853.55
603.43	845.66
603.78	837.99
604.13	830.45
604.48	822.92
604.83	815.56
605.18	808.09
605.53	800.76
605.87	793.27
606.22	786.07
606.57	778.82
606.92	771.44
607.27	763.99
607.62	756.87
607.96	750.13
608.31	743.86
608.66	737.40
609.01	731.21
609.36	725.13
609.70	718.82
610.05	712.51
610.40	706.42
610.75	700.33
611.10	694.53
611.44	688.57
611.79	682.77
612.14	676.90
612.49	671.08
612.83	665.56
613.18	660.15
613.53	654.65
613.88	649.19
614.22	644.14
614.57	639.02
614.92	633.74
615.27	628.58
615.61	623.43
615.96	618.38
616.31	613.31
616.65	608.31
617.00	603.49
617.35	598.80
617.70	594.17
618.04	589.54
618.39	584.88
618.74	580.46
619.08	576.03
619.43	571.73
619.78	567.46
620.12	563.16
620.47	559.03
620.82	554.98
621.16	550.94
621.51	546.80
621.85	542.73
622.20	538.83
622.55	534.93
622.89	531.13
623.24	527.29
623.59	523.51
623.93	519.88
624.28	516.33
624.62	512.88
624.97	509.45
625.32	506.05
625.66	502.58
626.01	499.05
626.35	495.60
626.70	492.18
627.04	488.94
627.39	485.63
627.73	482.49
628.08	479.46
628.43	476.40
628.77	473.42
629.12	470.53
629.46	467.64
629.81	464.71
630.15	461.73
630.50	458.89
630.84	456.09
631.19	453.32
631.53	450.67
631.88	447.98
632.22	445.30
632.57	442.88
632.91	440.51
633.26	438.25
633.60	436.00
633.95	433.81
634.29	431.51
634.64	429.31
634.98	426.90
635.32	424.63
635.67	422.56
636.01	420.40
636.36	418.29
636.70	416.34
637.05	414.39
637.39	412.45
637.73	410.54
638.08	408.73
638.42	406.89
638.77	404.92
639.11	402.89
639.45	400.97
639.80	398.98
640.14	397.09
640.49	395.17
640.83	393.22
641.17	391.38
641.52	389.57
641.86	387.78
642.20	386.19
642.55	384.45
642.89	382.73
643.23	381.10
643.58	379.62
643.92	377.99
644.26	376.42
644.61	374.89
644.95	373.32
645.29	371.68
645.64	370.11
645.98	368.60
646.32	367.19
646.66	365.76
647.01	364.36
647.35	363.02
647.69	361.65
648.04	360.42
648.38	359.09
648.72	357.79
649.06	356.47
649.41	355.17
649.75	353.91
650.09	352.67
650.43	351.45
650.78	350.16
651.12	348.94
651.46	347.76
651.80	346.62
652.14	345.48
652.49	344.41
652.83	343.28
653.17	342.20
653.51	341.16
653.85	340.19
654.20	339.15
654.54	338.02
654.88	336.98
655.22	335.97
655.56	334.94
655.90	333.98
656.25	333.04
656.59	332.08
656.93	331.20
657.27	330.32
657.61	329.37
657.95	328.46
658.29	327.55
658.64	326.68
658.98	325.79
659.32	324.93
659.66	324.13
660.00	323.36
660.34	322.56
660.68	321.73
661.02	320.85
661.36	319.99
661.70	319.21
662.05	318.44
662.39	317.67
662.73	317.00
663.07	316.30
663.41	315.57
663.75	314.85
664.09	314.10
664.43	313.31
664.77	312.63
665.11	311.91
665.45	311.25
665.79	310.57
666.13	309.86
666.47	309.14
666.81	308.38
667.15	307.60
667.49	306.94
667.83	306.35
668.17	305.72
668.51	305.15
668.85	304.57
669.19	304.01
669.53	303.37
669.87	302.71
670.21	302.09
670.55	301.50
670.89	300.97
671.23	300.43
671.57	299.89
671.91	299.40
672.25	298.92
672.58	298.42
672.92	297.87
673.26	297.42
673.60	296.96
673.94	296.50
674.28	296.08
674.62	295.61
674.96	295.08
675.30	294.62
675.64	294.12
675.97	293.61
676.31	293.07
676.65	292.57
676.99	292.16
677.33	291.65
677.67	291.20
678.01	290.67
678.34	290.19
678.68	289.74
679.02	289.23
679.36	288.75
679.70	288.24
680.04	287.78
680.37	287.30
680.71	286.87
681.05	286.45
681.39	285.98
681.73	285.50
682.06	285.03
682.40	284.58
682.74	284.18
683.08	283.84
683.42	283.43
683.75	283.06
684.09	282.59
684.43	282.20
684.77	281.77
685.10	281.40
685.44	281.02
685.78	280.62
686.12	280.24
686.45	279.82
686.79	279.43
687.13	279.06
687.46	278.64
687.80	278.24
688.14	277.80
688.48	277.45
688.81	277.06
689.15	276.73
689.49	276.35
689.82	275.93
690.16	275.46
690.50	275.08
690.83	274.69
691.17	274.29
691.51	273.92
691.84	273.56
692.18	273.16
692.52	272.74
692.85	272.34
693.19	272.00
693.52	271.63
693.86	271.26
694.20	270.88
694.53	270.54
694.87	270.15
695.21	269.78
695.54	269.41
695.88	269.04
696.21	268.62
696.55	268.25
696.88	267.91
697.22	267.56
697.56	267.23
697.89	266.83
698.23	266.48
698.56	266.10
698.90	265.75
699.23	265.39
699.57	265.04
699.90	264.69
700.24	264.32
700.58	264.00
700.91	263.70
701.25	263.48
701.58	263.20
701.92	262.92
702.25	262.61
702.59	262.28
702.92	261.96
703.26	261.66
703.59	261.33
703.93	261.12
704.26	260.82
704.60	260.49
704.93	260.18
705.26	259.86
705.60	259.61
705.93	259.29
706.27	259.02
706.60	258.78
706.94	258.53
707.27	258.20
707.61	257.89
707.94	257.56
708.27	257.14
708.61	256.79
708.94	256.47
709.28	256.18
709.61	255.88
709.94	255.62
710.28	255.36
710.61	255.13
710.95	254.75
711.28	254.53
711.61	254.27
711.95	254.05
712.28	253.80
712.61	253.51
712.95	253.34
713.28	253.14
713.61	252.85
713.95	252.56
714.28	252.35
714.61	252.09
714.95	251.86
715.28	251.63
715.61	251.40
715.95	251.17
716.28	250.95
716.61	250.76
716.95	250.51
717.28	250.28
717.61	250.03
717.94	249.81
718.28	249.51
718.61	249.29
718.94	249.04
719.27	248.82
719.61	248.63
719.94	248.37
720.27	248.09
720.60	247.87
720.94	247.67
721.27	247.46
721.60	247.29
721.93	247.08
722.27	246.91
722.60	246.75
722.93	246.54
723.26	246.35
723.59	246.12
723.93	245.94
724.26	245.75
724.59	245.58
724.92	245.40
725.25	245.27
725.59	245.10
725.92	244.97
726.25	244.80
726.58	244.62
726.91	244.43
727.24	244.29
727.57	244.14
727.91	243.95
728.24	243.80
728.57	243.64
728.90	243.49
729.23	243.30
729.56	243.19
729.89	243.03
730.22	242.88
730.55	242.74
730.89	242.58
731.22	242.41
731.55	242.26
731.88	242.10
732.21	241.93
732.54	241.76
732.87	241.60
733.20	241.46
733.53	241.33
733.86	241.20
734.19	241.04
734.52	240.92
734.85	240.89
735.18	240.72
735.51	240.61
735.84	240.48
736.17	240.38
736.50	240.17
736.83	240.19
737.16	240.06
737.49	239.93
737.82	239.79
738.15	239.70
738.48	239.57
738.81	239.45
739.14	239.32
739.47	239.19
739.80	239.05
740.13	238.95
740.46	238.80
740.79	238.68
741.12	238.54
741.45	238.40
741.78	238.20
742.11	238.13
742.44	237.98
742.77	237.88
743.10	237.75
743.43	237.63
743.75	237.39
744.08	237.45
744.41	237.34
744.74	237.22
745.07	237.10
745.40	237.02
745.73	236.98
746.06	236.88
746.39	236.82
746.71	236.72
747.04	236.60
747.37	236.52
747.70	236.44
748.03	236.35
748.36	236.29
748.68	236.20
749.01	236.07
749.34	235.98
749.67	235.91
750.00	235.83
750.33	235.82
750.65	235.75
750.98	235.49
751.31	235.42
751.64	235.35
751.97	235.32
752.29	235.21
752.62	235.07
752.95	234.98
753.28	234.87
753.60	234.76
753.93	234.71
754.26	234.64
754.59	234.51
754.91	234.43
755.24	234.33
755.57	234.31
755.90	234.22
756.22	234.13
756.55	234.01
756.88	233.92
757.20	233.76
757.53	233.65
757.86	233.58
758.19	233.51
758.51	233.44
758.84	233.31
759.17	233.22
759.49	233.14
759.82	233.14
760.15	233.07
760.47	233.01
760.80	232.91
761.13	232.85
761.45	232.80
761.78	232.73
762.11	232.66
762.43	232.54
762.76	232.49
763.08	232.45
763.41	232.39
763.74	232.33
764.06	232.28
764.39	232.21
764.71	232.17
765.04	232.09
765.37	232.02
765.69	231.96
766.02	231.91
766.34	231.85
766.67	231.72
767.00	231.70
767.32	231.73
767.65	231.76
767.97	231.70
768.30	231.65
768.62	231.61
768.95	231.55
769.27	231.49
769.60	231.46
769.92	231.39
770.25	231.34
770.57	231.27
770.90	231.23
771.22	231.18
771.55	231.13
771.87	231.10
772.20	231.06
772.52	231.14
772.85	231.25
773.17	231.22
773.50	231.19
773.82	231.12
774.15	231.01
774.47	230.86
774.80	230.80
775.12	230.77
775.45	230.73
775.77	230.69
776.09	230.67
776.42	230.63
776.74	230.64
777.07	230.60
777.39	230.57
777.72	230.53
778.04	230.51
778.36	230.46
778.69	230.43
779.01	230.40
779.33	230.25
779.66	230.06
779.98	230.04
780.31	230.02
780.63	230.05
780.95	230.05
781.28	230.04
781.60	230.01
781.92	229.99
782.25	229.96
782.57	229.94
782.89	229.90
783.22	229.86
783.54	229.79
783.86	229.78
784.19	229.74
784.51	229.76
784.83	229.72
785.16	229.70
785.48	229.68
785.80	229.67
786.12	229.66
786.45	229.64
786.77	229.62
787.09	229.58
787.42	229.52
787.74	229.49
788.06	229.47
788.38	229.45
788.71	229.42
789.03	229.41
789.35	229.41
789.67	229.38
789.99	229.38
790.32	229.36
790.64	229.35
790.96	229.44
791.28	229.36
791.61	229.34
791.93	229.34
792.25	229.31
792.57	229.38
792.89	229.34
793.21	229.34
793.54	229.29
793.86	229.26
794.18	229.24
794.50	229.20
794.82	229.18
795.14	229.18
795.47	229.18
795.79	229.15
796.11	229.09
796.43	229.06
796.75	229.04
797.07	229.02
797.39	228.99
797.71	228.87
798.04	228.87
798.36	228.87
798.68	228.84
799.00	228.81
799.32	228.72
799.64	228.73
799.96	228.72
800.28	228.72
800.60	228.71
800.92	228.68
801.24	228.67
801.56	228.66
801.89	228.65
802.21	228.64
802.53	228.60
802.85	228.60
803.17	228.67
803.49	228.63
803.81	228.61
804.13	228.59
804.45	228.57
804.77	228.56
805.09	228.54
805.41	228.53
805.73	228.50
806.05	228.46
806.37	228.43
806.69	228.39
807.01	228.37
807.33	228.38
807.65	228.32
807.97	228.36
808.28	228.33
808.60	228.31
808.92	228.27
809.24	228.35
809.56	228.32
809.88	228.25
810.20	228.24
810.52	228.25
810.84	228.23
811.16	228.20
811.48	228.18
811.80	228.21
812.12	228.20
812.43	228.20
812.75	228.21
813.07	228.18
813.39	228.18
813.71	228.18
814.03	228.14
814.35	228.14
814.67	228.09
814.98	228.08
815.30	228.07
815.62	228.05
815.94	227.95
816.26	227.96
816.58	227.92
816.89	227.91
817.21	227.89
817.53	227.89
817.85	227.89
818.17	227.89
818.48	227.83
818.80	227.84
819.12	227.82
819.44	227.79
819.76	227.76
820.07	227.74
820.39	227.72
820.71	227.72
821.03	227.73
821.34	227.72
821.66	227.72
821.98	227.72
822.30	227.71
822.61	227.78
822.93	227.75
823.25	227.76
823.57	227.74
823.88	227.74
824.20	227.72
824.52	227.72
824.83	227.71
825.15	227.70
825.47	227.68
825.79	227.69
826.10	227.67
826.42	227.68
826.74	227.69
827.05	227.69
827.37	227.68
827.69	227.65
828.00	227.64
828.32	227.63
828.64	227.62
828.95	227.69
829.27	227.65
829.58	227.63
829.90	227.65
830.22	227.67
830.53	227.65
830.85	227.65
831.17	227.63
831.48	227.61
831.80	227.60
832.11	227.59
832.43	227.57
832.75	227.57
833.06	227.62
833.38	227.59
833.69	227.58
834.01	227.59
834.32	227.59
834.64	227.58
834.96	227.57
835.27	227.55
835.59	227.51
835.90	227.48
836.22	227.48
836.53	227.45
836.85	227.43
837.16	227.55
837.48	227.54
837.79	227.58
838.11	227.59
838.42	227.59
838.74	227.60
839.05	227.60
839.37	227.59
839.68	227.52
840.00	227.50
840.31	227.52
840.63	227.50
840.94	227.49
841.26	227.47
841.57	227.47
841.88	227.49
842.20	227.47
842.51	227.45
842.83	227.44
843.14	227.54
843.46	227.52
843.77	227.46
844.08	227.45
844.40	227.41
844.71	227.39
845.03	227.38
845.34	227.37
845.65	227.36
845.97	227.36
846.28	227.36
846.60	227.38
846.91	227.36
847.22	227.36
847.54	227.38
847.85	227.38
848.16	227.37
848.48	227.34
848.79	227.40
849.10	227.41
849.42	227.40
849.73	227.29
850.04	227.29
850.36	227.22
850.67	227.23
850.98	227.22
851.30	227.24
851.61	227.23
851.92	227.23
852.23	227.28
852.55	227.28
852.86	227.29
853.17	227.29
853.49	227.31
853.80	227.32
854.11	227.32
854.42	227.34
854.74	227.33
855.05	227.32
855.36	227.26
855.67	227.26
855.99	227.27
856.30	227.42
856.61	227.41
856.92	227.42
857.23	227.44
857.55	227.44
857.86	227.43
858.17	227.45
858.48	227.42
858.79	227.37
859.11	227.38
859.42	227.37
859.73	227.36
860.04	227.35
860.35	227.30
860.66	227.27
860.98	227.27
861.29	227.27
861.60	227.27
861.91	227.29
862.22	227.27
862.53	227.25
862.84	227.09
863.16	227.11
863.47	227.09
863.78	227.06
864.09	227.06
864.40	227.05
864.71	227.03
865.02	227.05
865.33	227.03
865.64	227.00
865.95	227.00
866.27	227.05
866.58	227.04
866.89	227.06
867.20	227.06
867.51	227.04
867.82	227.03
868.13	227.05
868.44	227.02
868.75	227.03
869.06	227.05
869.37	227.06
869.68	227.04
869.99	227.06
870.30	227.08
870.61	227.10
870.92	227.10
871.23	227.09
871.54	227.11
871.85	227.15
872.16	227.18
872.47	227.16
872.78	227.10
873.09	227.11
873.40	227.10
873.71	227.10
874.02	227.11
874.33	227.11
874.64	227.09
874.95	227.13
875.26	227.09
875.56	227.09
875.87	227.09
876.18	227.07
876.49	227.19
876.80	227.17
877.11	227.14
877.42	227.14
877.73	227.15
878.04	227.13
878.35	227.12
878.66	227.11
878.96	227.12
879.27	227.11
879.58	227.10
879.89	227.10
880.20	227.13
880.51	227.13
880.82	227.13
881.12	227.14
881.43	227.10
881.74	227.10
882.05	227.08
882.36	227.08
882.67	227.10
882.97	226.96
883.28	226.94
883.59	226.94
883.90	226.96
884.21	226.97
884.51	226.96
884.82	226.95
885.13	226.95
885.44	226.94
885.74	226.96
886.05	226.97
886.36	226.96
886.67	226.92
886.98	226.98
887.28	226.99
887.59	226.98
887.90	226.99
888.20	226.99
888.51	227.02
888.82	226.99
889.13	227.01
889.43	227.13
889.74	227.13
890.05	227.14
890.35	227.12
890.66	227.09
890.97	227.08
891.28	227.07
891.58	227.07
891.89	227.06
892.20	227.04
892.50	227.02
892.81	227.01
893.12	227.00
893.42	226.94
893.73	226.94
894.04	226.94
894.34	226.95
894.65	226.93
894.95	226.91
895.26	226.92
895.57	226.96
895.87	226.84
896.18	226.86
896.48	226.86
896.79	226.86
897.10	226.89
897.40	226.89
897.71	226.91
898.01	226.91
898.32	226.92
898.63	226.92
898.93	226.92
899.24	226.93
899.54	226.93
899.85	226.92
900.15	226.92
900.46	226.92
900.76	226.93
901.07	226.96
901.38	226.95
901.68	226.97
901.99	226.92
902.29	226.93
902.60	226.92
902.90	226.91
903.21	226.89
903.51	226.88
903.82	226.91
904.12	226.90
904.43	226.91
904.73	226.90
905.03	226.92
905.34	227.05
905.64	227.04
905.95	227.04
906.25	227.03
906.56	227.03
906.86	227.02
907.17	227.01
907.47	227.00
907.77	227.00
908.08	226.98
908.38	226.98
908.69	226.98
908.99	227.01
909.30	227.02
909.60	227.03
909.90	227.04
910.21	227.01
910.51	226.99
910.81	226.99
911.12	227.00
911.42	227.00
911.73	226.86
912.03	226.89
912.33	226.91
912.64	226.91
912.94	226.88
913.24	226.86
913.55	226.85
913.85	226.84
914.15	226.86
914.46	226.86
914.76	226.85
915.06	226.84
915.37	226.81
915.67	226.79
915.97	226.79
916.27	226.75
916.58	226.75
916.88	226.77
917.18	226.75
917.49	226.83
917.79	226.82
918.09	226.83
918.39	226.85
918.70	226.84
919.00	226.84
919.30	226.91
919.60	226.91
919.91	226.90
920.21	226.91
920.51	226.87
920.81	226.87
921.12	226.89
921.42	226.89
921.72	226.88
922.02	226.90
922.32	226.92
922.63	226.94
922.93	227.00
923.23	227.00
923.53	226.98
923.83	226.89
924.13	226.90
924.44	226.89
924.74	226.90
925.04	226.94
925.34	226.94
925.64	226.87
925.94	226.87
926.24	226.94
926.55	226.93
926.85	226.95
927.15	226.94
927.45	226.94
927.75	226.93
928.05	226.94
928.35	226.92
928.65	226.92
928.95	226.93
929.26	226.86
929.56	226.88
929.86	226.90
930.16	226.90
930.46	226.90
930.76	226.91
931.06	226.86
931.36	226.82
931.66	226.84
931.96	226.87
932.26	226.87
932.56	226.82
932.86	226.84
933.16	226.84
933.46	226.83
933.76	226.81
934.06	226.84
934.36	226.89
934.66	226.88
934.96	226.86
935.26	226.88
935.56	226.90
935.86	226.87
936.16	226.85
936.46	226.85
936.76	226.83
937.06	226.81
937.36	226.81
937.66	226.82
937.96	226.81
938.26	226.77
938.56	226.78
938.86	226.79
939.16	226.80
939.46	226.81
939.76	226.82
940.06	226.82
940.35	226.81
940.65	226.74
940.95	226.77
941.25	226.73
941.55	226.70
941.85	226.69
942.15	226.72
942.45	226.75
942.75	226.75
943.04	226.75
943.34	226.77
943.64	226.76
943.94	226.73
944.24	226.72
944.54	226.73
944.84	226.73
945.13	226.70
945.43	226.69
945.73	226.68
946.03	226.68
946.33	226.65
946.62	226.64
946.92	226.64
947.22	226.64
947.52	226.65
947.82	226.66
948.11	226.63
948.41	226.60
948.71	226.55
949.01	226.55
949.31	226.55
949.60	226.54
949.90	226.56
950.20	226.56
950.50	226.56
950.79	226.55
951.09	226.55
951.39	226.55
951.69	226.54
951.98	226.56
952.28	226.56
952.58	226.55
952.87	226.55
953.17	226.56
953.47	226.56
953.76	226.55
954.06	226.54
954.36	226.54
954.66	226.53
954.95	226.57
955.25	226.58
955.55	226.59
955.84	226.58
956.14	226.59
956.44	226.59
956.73	226.58
957.03	226.59
957.32	226.61
957.62	226.60
957.92	226.63
958.21	226.62
958.51	226.75
958.81	226.77
959.10	226.79
959.40	226.81
959.69	226.82
959.99	226.83
960.29	226.85
960.58	226.85
960.88	226.90
961.17	226.89
961.47	226.90
961.76	226.89
962.06	226.91
962.36	226.90
962.65	226.91
962.95	226.91
963.24	226.89
963.54	226.88
963.83	226.89
964.13	226.88
964.42	226.87
964.72	226.77
965.01	226.75
965.31	226.74
965.60	226.70
965.90	226.77
966.19	226.75
966.49	226.75
966.78	226.75
967.08	226.74
967.37	226.74
967.67	226.74
967.96	226.76
968.26	226.75
968.55	226.77
968.85	226.76
969.14	226.77
969.43	226.79
969.73	226.78
970.02	226.77
970.32	226.77
970.61	226.74
970.91	226.71
971.20	226.72
971.49	226.71
971.79	226.73
972.08	226.64
972.38	226.65
972.67	226.65
972.96	226.67
973.26	226.64
973.55	226.68
973.85	226.67
974.14	226.66
974.43	226.67
974.73	226.65
975.02	226.65
975.31	226.65
975.61	226.64
975.90	226.64
976.19	226.63
976.49	226.64
976.78	226.66
977.07	226.66
977.37	226.66
977.66	226.67
977.95	226.64
978.24	226.66
978.54	226.69
978.83	226.69
979.12	226.68
979.42	226.68
979.71	226.65
980.00	226.64
980.29	226.63
980.59	226.61
980.88	226.64
981.17	226.63
981.46	226.62
981.76	226.61
982.05	226.65
982.34	226.66
982.63	226.65
982.93	226.66
983.22	226.68
983.51	226.69
983.80	226.71
984.09	226.75
984.39	226.74
984.68	226.71
984.97	226.74
985.26	226.71
985.55	226.72
985.85	226.69
986.14	226.72
986.43	226.74
986.72	226.74
987.01	226.70
987.30	226.71
987.59	226.70
987.89	226.71
988.18	226.67
988.47	226.65
988.76	226.65
989.05	226.62
989.34	226.60
989.63	226.63
989.92	226.61
990.22	226.58
990.51	226.57
990.80	226.57
991.09	226.56
991.38	226.58
991.67	226.57
991.96	226.57
992.25	226.58
992.54	226.56
992.83	226.56
993.12	226.56
993.41	226.57
993.70	226.63
993.99	226.63
994.28	226.65
994.58	226.68
994.87	226.66
995.16	226.67
995.45	226.65
995.74	226.61
996.03	226.63
996.32	226.65
996.61	226.68
996.90	226.68
997.19	226.66
997.48	226.66
997.77	226.65
998.06	226.65
998.34	226.64
998.63	226.63
998.92	226.64
999.21	226.66
999.50	226.65
999.79	226.60
1000.08	226.61
1000.37	226.62
1000.66	226.59
1000.95	226.63
1001.24	226.65
1001.53	226.68
1001.82	226.69
1002.11	226.66
1002.40	226.66
1002.68	226.66
1002.97	226.76
1003.26	226.75
1003.55	226.73
1003.84	226.73
1004.13	226.78
1004.42	226.78
1004.71	226.78
1004.99	226.76
1005.28	226.78
1005.57	226.79
1005.86	226.78
1006.15	226.76
1006.44	226.74
1006.72	226.76
1007.01	226.73
1007.30	226.71
1007.59	226.69
1007.88	226.69
1008.17	226.70
1008.45	226.69
1008.74	226.66
1009.03	226.60
1009.32	226.60
1009.60	226.61
1009.89	226.61
1010.18	226.56
1010.47	226.54
1010.76	226.54
1011.04	226.56
1011.33	226.54
1011.62	226.54
1011.91	226.56
1012.19	226.57
1012.48	226.59
1012.77	226.59
1013.05	226.64
1013.34	226.64
1013.63	226.63
1013.92	226.63
1014.20	226.62
1014.49	226.62
1014.78	226.62
1015.06	226.57
1015.35	226.58
1015.64	226.59
1015.92	226.62
1016.21	226.63
1016.50	226.64
1016.78	226.66
1017.07	226.67
1017.36	226.66
1017.64	226.64
1017.93	226.65
1018.22	226.64
1018.50	226.63
1018.79	226.63
1019.08	226.59
1019.36	226.62
1019.65	226.60
1019.93	226.65
1020.22	226.66
1020.51	226.72
1020.79	226.73
1021.08	226.33
1021.36	226.53
1021.65	226.83
1021.94	226.74
1022.22	226.88
1022.51	226.19
1022.79	227.41
1023.08	226.59
1023.36	228.08
1023.65	226.44
>>>>>End Processed Spectral Data<<<<<
