SpectraSuite Data File
++++++++++++++++++++++++++++++++++++
Date: Fri Oct 02 18:33:02 EDT 2015
User: lab3
Dark Spectrum Present: No
Reference Spectrum Present: No
Number of Sampled Component Spectra: 1
Spectrometers: USB2E7196
Integration Time (usec): 46000 (USB2E7196)
Spectra Averaged: 1500 (USB2E7196)
Boxcar Smoothing: 10 (USB2E7196)
Correct for Electrical Dark: No (USB2E7196)
Strobe/Lamp Enabled: No (USB2E7196)
Correct for Detector Non-linearity: No (USB2E7196)
Correct for Stray Light: No (USB2E7196)
Number of Pixels in Processed Spectrum: 2048
>>>>>Begin Processed Spectral Data<<<<<
339.09	0.00
339.48	215.18
339.86	216.87
340.24	218.27
340.63	219.65
341.01	222.86
341.39	222.39
341.78	223.74
342.16	225.02
342.54	225.31
342.93	213.72
343.31	224.51
343.69	225.06
344.07	225.53
344.46	225.96
344.84	226.34
345.22	226.56
345.60	226.82
345.99	227.01
346.37	227.13
346.75	227.24
347.13	227.31
347.52	227.38
347.90	227.48
348.28	227.51
348.66	227.57
349.05	227.55
349.43	227.60
349.81	227.66
350.19	227.72
350.57	227.79
350.96	227.87
351.34	227.96
351.72	228.05
352.10	228.15
352.48	228.22
352.87	228.27
353.25	228.33
353.63	228.38
354.01	228.44
354.39	228.52
354.77	228.61
355.15	228.72
355.54	228.77
355.92	228.80
356.30	228.87
356.68	229.01
357.06	229.09
357.44	229.13
357.82	229.20
358.20	229.32
358.58	229.38
358.97	229.45
359.35	229.54
359.73	229.61
360.11	229.66
360.49	229.72
360.87	229.77
361.25	229.84
361.63	229.93
362.01	229.98
362.39	230.01
362.77	230.05
363.15	230.07
363.53	230.10
363.91	230.14
364.29	230.17
364.67	230.07
365.05	230.09
365.43	230.13
365.81	230.15
366.19	230.16
366.57	230.21
366.95	230.21
367.33	230.18
367.71	230.17
368.09	230.20
368.47	230.20
368.85	230.18
369.23	230.20
369.61	230.14
369.99	230.16
370.37	230.16
370.75	230.23
371.13	230.20
371.51	230.15
371.89	230.14
372.27	230.12
372.65	230.11
373.03	230.07
373.41	230.03
373.78	229.98
374.16	229.88
374.54	229.80
374.92	229.75
375.30	229.72
375.68	229.65
376.06	229.60
376.44	229.54
376.82	229.51
377.19	229.46
377.57	229.41
377.95	229.32
378.33	229.26
378.71	229.10
379.09	229.05
379.47	229.02
379.84	228.95
380.22	228.89
380.60	228.82
380.98	228.77
381.36	228.72
381.73	228.66
382.11	228.63
382.49	228.59
382.87	228.53
383.25	228.47
383.62	228.59
384.00	228.52
384.38	228.48
384.76	228.46
385.13	228.46
385.51	228.41
385.89	228.37
386.27	228.32
386.64	228.30
387.02	228.26
387.40	228.21
387.78	228.19
388.15	228.16
388.53	228.13
388.91	228.10
389.29	228.05
389.66	228.06
390.04	228.02
390.42	228.01
390.79	228.00
391.17	227.98
391.55	227.82
391.92	227.80
392.30	227.80
392.68	227.77
393.05	227.75
393.43	227.75
393.81	227.75
394.18	227.74
394.56	227.74
394.94	227.77
395.31	227.76
395.69	227.80
396.06	227.83
396.44	227.86
396.82	227.88
397.19	227.96
397.57	227.97
397.95	228.01
398.32	228.01
398.70	228.05
399.07	228.11
399.45	228.15
399.82	228.19
400.20	228.23
400.58	228.28
400.95	228.29
401.33	228.37
401.70	228.52
402.08	228.62
402.45	228.71
402.83	228.83
403.20	228.94
403.58	229.03
403.95	229.16
404.33	229.30
404.71	229.44
405.08	229.65
405.46	229.82
405.83	230.00
406.21	230.18
406.58	230.40
406.96	230.61
407.33	230.85
407.70	231.12
408.08	231.49
408.45	231.81
408.83	232.16
409.20	232.47
409.58	232.76
409.95	233.15
410.33	233.57
410.70	233.96
411.08	234.44
411.45	234.94
411.82	235.44
412.20	236.02
412.57	236.70
412.95	237.22
413.32	237.92
413.69	238.63
414.07	239.39
414.44	240.21
414.82	241.06
415.19	242.05
415.56	243.05
415.94	244.09
416.31	245.26
416.68	246.43
417.06	247.78
417.43	249.03
417.81	250.49
418.18	251.97
418.55	253.59
418.93	255.28
419.30	257.02
419.67	258.90
420.04	260.81
420.42	262.80
420.79	265.13
421.16	267.46
421.54	269.84
421.91	272.33
422.28	274.90
422.66	277.67
423.03	280.32
423.40	283.10
423.77	286.07
424.15	289.11
424.52	292.29
424.89	295.74
425.26	299.15
425.64	302.33
426.01	305.89
426.38	309.54
426.75	313.30
427.13	317.15
427.50	321.18
427.87	325.38
428.24	329.62
428.61	333.68
428.99	338.09
429.36	342.90
429.73	347.52
430.10	352.14
430.47	356.85
430.85	361.71
431.22	366.94
431.59	372.32
431.96	377.56
432.33	383.39
432.70	388.92
433.08	395.48
433.45	401.67
433.82	407.80
434.19	414.63
434.56	421.36
434.93	427.85
435.30	434.29
435.68	441.56
436.05	448.67
436.42	455.74
436.79	462.19
437.16	469.18
437.53	476.63
437.90	484.09
438.27	491.40
438.64	499.28
439.01	506.42
439.38	512.92
439.75	519.20
440.13	526.29
440.50	533.02
440.87	538.35
441.24	544.18
441.61	550.54
441.98	555.14
442.35	560.62
442.72	566.19
443.09	571.48
443.46	574.79
443.83	577.19
444.20	579.18
444.57	582.18
444.94	583.80
445.31	585.51
445.68	586.94
446.05	587.91
446.42	587.38
446.79	586.70
447.16	586.08
447.53	585.49
447.90	583.02
448.27	580.66
448.64	577.19
449.01	574.72
449.37	569.97
449.74	565.69
450.11	560.20
450.48	554.24
450.85	548.29
451.22	543.18
451.59	538.20
451.96	533.69
452.33	527.18
452.70	521.43
453.07	514.42
453.43	507.44
453.80	500.67
454.17	494.22
454.54	488.27
454.91	481.56
455.28	475.31
455.65	469.39
456.02	463.19
456.38	458.18
456.75	451.74
457.12	446.56
457.49	441.33
457.86	436.44
458.23	432.14
458.59	427.38
458.96	422.51
459.33	418.22
459.70	413.88
460.07	410.61
460.43	406.73
460.80	403.13
461.17	400.01
461.54	396.61
461.91	393.44
462.27	390.20
462.64	387.61
463.01	384.58
463.38	381.57
463.74	378.82
464.11	376.43
464.48	374.29
464.85	371.93
465.21	370.15
465.58	368.17
465.95	365.88
466.32	364.09
466.68	362.31
467.05	360.53
467.42	358.77
467.78	356.87
468.15	355.13
468.52	353.86
468.88	352.14
469.25	350.57
469.62	349.33
469.98	347.99
470.35	346.77
470.72	345.70
471.08	344.58
471.45	343.64
471.82	342.60
472.18	341.48
472.55	340.77
472.92	339.88
473.28	339.18
473.65	338.41
474.02	337.69
474.38	337.08
474.75	336.73
475.11	336.25
475.48	336.02
475.85	335.76
476.21	335.62
476.58	335.54
476.94	335.67
477.31	335.74
477.67	335.81
478.04	336.00
478.41	336.27
478.77	336.67
479.14	336.93
479.50	337.42
479.87	338.06
480.23	338.69
480.60	339.33
480.96	339.95
481.33	340.90
481.69	341.82
482.06	342.74
482.42	343.58
482.79	344.64
483.15	345.86
483.52	347.26
483.88	348.61
484.25	350.04
484.61	351.53
484.98	353.14
485.34	354.98
485.71	356.88
486.07	358.92
486.44	360.95
486.80	363.22
487.17	365.58
487.53	368.14
487.90	370.84
488.26	373.78
488.62	376.89
488.99	379.98
489.35	383.27
489.72	386.82
490.08	390.55
490.44	394.42
490.81	398.41
491.17	402.51
491.54	406.92
491.90	411.49
492.26	416.38
492.63	421.49
492.99	426.82
493.36	432.35
493.72	438.16
494.08	444.13
494.45	450.46
494.81	457.03
495.17	463.82
495.54	470.97
495.90	478.40
496.26	486.00
496.63	493.85
496.99	502.00
497.35	510.54
497.72	519.36
498.08	528.39
498.44	537.73
498.80	547.63
499.17	557.77
499.53	568.21
499.89	579.03
500.26	590.05
500.62	601.40
500.98	613.35
501.34	625.49
501.71	638.10
502.07	650.92
502.43	664.29
502.79	677.83
503.16	691.84
503.52	706.06
503.88	720.70
504.24	735.80
504.60	751.11
504.97	766.87
505.33	783.08
505.69	800.13
506.05	817.53
506.41	834.86
506.78	852.42
507.14	870.48
507.50	888.98
507.86	907.86
508.22	926.92
508.59	945.84
508.95	965.58
509.31	986.07
509.67	1007.20
510.03	1028.33
510.39	1049.59
510.75	1071.06
511.12	1092.78
511.48	1114.64
511.84	1136.57
512.20	1158.93
512.56	1182.13
512.92	1205.34
513.28	1228.28
513.64	1251.48
514.00	1275.12
514.37	1299.01
514.73	1322.97
515.09	1346.81
515.45	1371.02
515.81	1395.38
516.17	1419.96
516.53	1443.98
516.89	1467.94
517.25	1492.10
517.61	1516.20
517.97	1540.74
518.33	1564.80
518.69	1588.82
519.05	1613.40
519.41	1638.27
519.77	1663.30
520.13	1687.64
520.49	1711.95
520.85	1736.60
521.21	1760.76
521.57	1785.39
521.93	1809.56
522.29	1834.20
522.65	1858.35
523.01	1882.42
523.37	1906.16
523.73	1930.61
524.09	1954.89
524.45	1978.95
524.81	2002.64
525.17	2026.14
525.53	2049.13
525.89	2072.53
526.25	2095.95
526.61	2118.35
526.97	2140.94
527.33	2163.51
527.68	2185.81
528.04	2207.34
528.40	2227.91
528.76	2248.91
529.12	2269.32
529.48	2289.37
529.84	2307.74
530.20	2326.78
530.56	2345.28
530.91	2363.91
531.27	2382.15
531.63	2399.56
531.99	2416.57
532.35	2432.94
532.71	2449.49
533.07	2466.58
533.42	2482.00
533.78	2498.40
534.14	2515.02
534.50	2530.64
534.86	2546.03
535.21	2559.59
535.57	2573.59
535.93	2587.44
536.29	2600.04
536.65	2612.59
537.00	2624.52
537.36	2637.30
537.72	2648.58
538.08	2659.40
538.44	2669.63
538.79	2679.45
539.15	2688.43
539.51	2696.99
539.87	2704.93
540.22	2710.90
540.58	2717.09
540.94	2724.44
541.29	2730.18
541.65	2734.17
542.01	2737.41
542.37	2740.06
542.72	2744.04
543.08	2746.32
543.44	2749.23
543.79	2751.05
544.15	2752.00
544.51	2753.41
544.87	2753.67
545.22	2753.15
545.58	2752.02
545.94	2750.83
546.29	2748.35
546.65	2745.90
547.01	2743.43
547.36	2741.64
547.72	2739.95
548.07	2736.45
548.43	2731.44
548.79	2725.52
549.14	2720.96
549.50	2716.64
549.86	2711.33
550.21	2704.80
550.57	2699.30
550.92	2691.39
551.28	2684.17
551.64	2677.23
551.99	2669.69
552.35	2661.60
552.70	2653.86
553.06	2646.32
553.41	2638.13
553.77	2629.75
554.13	2621.31
554.48	2611.94
554.84	2601.36
555.19	2591.31
555.55	2581.30
555.90	2571.27
556.26	2561.80
556.61	2551.16
556.97	2538.88
557.32	2527.13
557.68	2515.35
558.03	2503.34
558.39	2492.52
558.74	2481.94
559.10	2469.58
559.45	2457.58
559.81	2446.13
560.16	2433.94
560.52	2421.99
560.87	2410.45
561.23	2398.04
561.58	2385.72
561.94	2373.10
562.29	2359.90
562.64	2347.38
563.00	2334.47
563.35	2322.12
563.71	2309.48
564.06	2296.69
564.42	2284.67
564.77	2272.01
565.12	2259.24
565.48	2246.40
565.83	2233.57
566.19	2220.82
566.54	2208.06
566.89	2194.04
567.25	2180.25
567.60	2167.85
567.96	2154.53
568.31	2139.82
568.66	2125.86
569.02	2113.00
569.37	2100.06
569.72	2087.68
570.08	2073.97
570.43	2059.98
570.78	2045.72
571.14	2030.80
571.49	2016.59
571.84	2002.91
572.20	1987.95
572.55	1973.29
572.90	1958.46
573.26	1943.64
573.61	1928.29
573.96	1913.40
574.31	1898.83
574.67	1884.24
575.02	1868.63
575.37	1853.10
575.72	1838.44
576.08	1824.05
576.43	1808.50
576.78	1793.40
577.13	1778.55
577.49	1764.07
577.84	1750.17
578.19	1735.30
578.54	1720.64
578.90	1705.46
579.25	1690.18
579.60	1676.57
579.95	1662.79
580.30	1648.83
580.66	1634.62
581.01	1620.34
581.36	1606.01
581.71	1592.71
582.06	1579.25
582.42	1566.00
582.77	1552.84
583.12	1539.58
583.47	1526.24
583.82	1513.00
584.17	1499.40
584.53	1485.46
584.88	1471.91
585.23	1457.92
585.58	1444.78
585.93	1431.89
586.28	1419.74
586.63	1407.55
586.98	1394.86
587.34	1382.22
587.69	1369.28
588.04	1356.73
588.39	1344.54
588.74	1332.53
589.09	1320.24
589.44	1307.54
589.79	1295.53
590.14	1283.58
590.49	1271.57
590.84	1259.69
591.19	1248.27
591.54	1236.62
591.89	1225.12
592.25	1213.80
592.60	1202.14
592.95	1190.89
593.30	1179.82
593.65	1168.43
594.00	1157.15
594.35	1146.47
594.70	1135.34
595.05	1125.15
595.40	1114.77
595.75	1104.28
596.10	1094.33
596.45	1084.07
596.80	1074.20
597.15	1064.05
597.50	1054.08
597.85	1044.50
598.19	1034.73
598.54	1025.02
598.89	1015.79
599.24	1006.89
599.59	997.79
599.94	989.64
600.29	981.22
600.64	972.53
600.99	963.49
601.34	954.84
601.69	945.81
602.04	937.47
602.39	928.99
602.74	920.55
603.08	912.04
603.43	903.52
603.78	895.19
604.13	887.02
604.48	878.81
604.83	870.81
605.18	862.73
605.53	854.82
605.87	846.66
606.22	838.87
606.57	831.02
606.92	823.05
607.27	815.00
607.62	807.33
607.96	800.05
608.31	793.20
608.66	786.15
609.01	779.41
609.36	772.78
609.70	765.88
610.05	758.98
610.40	752.38
610.75	745.73
611.10	739.43
611.44	732.99
611.79	726.64
612.14	720.19
612.49	713.88
612.83	707.86
613.18	701.99
613.53	695.99
613.88	690.02
614.22	684.48
614.57	678.87
614.92	673.08
615.27	667.44
615.61	661.86
615.96	656.32
616.31	650.79
616.65	645.30
617.00	640.06
617.35	634.95
617.70	629.86
618.04	624.80
618.39	619.69
618.74	614.83
619.08	609.99
619.43	605.31
619.78	600.64
620.12	595.90
620.47	591.36
620.82	586.91
621.16	582.49
621.51	577.93
621.85	573.43
622.20	569.13
622.55	564.82
622.89	560.58
623.24	556.36
623.59	552.19
623.93	548.20
624.28	544.29
624.62	540.45
624.97	536.64
625.32	532.87
625.66	529.02
626.01	525.11
626.35	521.31
626.70	517.54
627.04	513.94
627.39	510.31
627.73	506.83
628.08	503.44
628.43	500.06
628.77	496.79
629.12	493.61
629.46	490.44
629.81	487.18
630.15	483.93
630.50	480.80
630.84	477.71
631.19	474.66
631.53	471.72
631.88	468.77
632.22	465.84
632.57	463.18
632.91	460.57
633.26	458.06
633.60	455.54
633.95	453.10
634.29	450.57
634.64	448.11
634.98	445.43
635.32	442.92
635.67	440.60
636.01	438.20
636.36	435.86
636.70	433.67
637.05	431.48
637.39	429.31
637.73	427.14
638.08	425.12
638.42	423.06
638.77	420.87
639.11	418.62
639.45	416.46
639.80	414.24
640.14	412.12
640.49	409.97
640.83	407.80
641.17	405.73
641.52	403.71
641.86	401.70
642.20	399.93
642.55	397.99
642.89	396.07
643.23	394.23
643.58	392.58
643.92	390.79
644.26	389.05
644.61	387.39
644.95	385.67
645.29	383.88
645.64	382.13
645.98	380.44
646.32	378.88
646.66	377.31
647.01	375.75
647.35	374.26
647.69	372.75
648.04	371.38
648.38	369.91
648.72	368.46
649.06	367.03
649.41	365.59
649.75	364.21
650.09	362.86
650.43	361.52
650.78	360.09
651.12	358.71
651.46	357.39
651.80	356.11
652.14	354.84
652.49	353.62
652.83	352.36
653.17	351.16
653.51	349.99
653.85	348.90
654.20	347.75
654.54	346.53
654.88	345.39
655.22	344.26
655.56	343.13
655.90	342.08
656.25	341.04
656.59	339.99
656.93	339.00
657.27	338.00
657.61	336.97
657.95	335.97
658.29	334.97
658.64	334.03
658.98	333.06
659.32	332.13
659.66	331.25
660.00	330.40
660.34	329.55
660.68	328.64
661.02	327.68
661.36	326.77
661.70	325.91
662.05	325.05
662.39	324.21
662.73	323.45
663.07	322.67
663.41	321.86
663.75	321.05
664.09	320.26
664.43	319.41
664.77	318.64
665.11	317.84
665.45	317.11
665.79	316.37
666.13	315.58
666.47	314.81
666.81	314.01
667.15	313.18
667.49	312.46
667.83	311.81
668.17	311.13
668.51	310.50
668.85	309.88
669.19	309.31
669.53	308.63
669.87	307.94
670.21	307.27
670.55	306.64
670.89	306.08
671.23	305.47
671.57	304.89
671.91	304.37
672.25	303.85
672.58	303.32
672.92	302.71
673.26	302.19
673.60	301.68
673.94	301.17
674.28	300.70
674.62	300.19
674.96	299.63
675.30	299.12
675.64	298.57
675.97	298.02
676.31	297.43
676.65	296.90
676.99	296.44
677.33	295.90
677.67	295.39
678.01	294.83
678.34	294.34
678.68	293.88
679.02	293.33
679.36	292.82
679.70	292.30
680.04	291.83
680.37	291.34
680.71	290.88
681.05	290.43
681.39	289.93
681.73	289.41
682.06	288.91
682.40	288.44
682.74	288.02
683.08	287.64
683.42	287.20
683.75	286.80
684.09	286.30
684.43	285.87
684.77	285.44
685.10	285.06
685.44	284.63
685.78	284.21
686.12	283.83
686.45	283.40
686.79	282.98
687.13	282.57
687.46	282.13
687.80	281.72
688.14	281.26
688.48	280.88
688.81	280.47
689.15	280.10
689.49	279.69
689.82	279.27
690.16	278.79
690.50	278.38
690.83	277.97
691.17	277.58
691.51	277.18
691.84	276.80
692.18	276.37
692.52	275.94
692.85	275.53
693.19	275.15
693.52	274.76
693.86	274.36
694.20	273.98
694.53	273.60
694.87	273.20
695.21	272.81
695.54	272.41
695.88	272.02
696.21	271.61
696.55	271.22
696.88	270.85
697.22	270.48
697.56	270.11
697.89	269.68
698.23	269.30
698.56	268.90
698.90	268.53
699.23	268.15
699.57	267.78
699.90	267.39
700.24	266.99
700.58	266.65
700.91	266.34
701.25	266.10
701.58	265.81
701.92	265.50
702.25	265.17
702.59	264.82
702.92	264.48
703.26	264.13
703.59	263.79
703.93	263.55
704.26	263.23
704.60	262.89
704.93	262.57
705.26	262.23
705.60	261.95
705.93	261.60
706.27	261.31
706.60	261.04
706.94	260.79
707.27	260.46
707.61	260.14
707.94	259.79
708.27	259.36
708.61	258.99
708.94	258.65
709.28	258.35
709.61	258.04
709.94	257.76
710.28	257.49
710.61	257.24
710.95	256.85
711.28	256.64
711.61	256.37
711.95	256.12
712.28	255.84
712.61	255.56
712.95	255.37
713.28	255.17
713.61	254.87
713.95	254.55
714.28	254.31
714.61	254.03
714.95	253.77
715.28	253.51
715.61	253.27
715.95	253.05
716.28	252.80
716.61	252.59
716.95	252.34
717.28	252.10
717.61	251.85
717.94	251.62
718.28	251.29
718.61	251.05
718.94	250.79
719.27	250.57
719.61	250.36
719.94	250.09
720.27	249.78
720.60	249.56
720.94	249.34
721.27	249.12
721.60	248.94
721.93	248.74
722.27	248.57
722.60	248.37
722.93	248.15
723.26	247.95
723.59	247.71
723.93	247.53
724.26	247.34
724.59	247.13
724.92	246.94
725.25	246.80
725.59	246.62
725.92	246.47
726.25	246.29
726.58	246.11
726.91	245.93
727.24	245.78
727.57	245.60
727.91	245.42
728.24	245.27
728.57	245.09
728.90	244.92
729.23	244.71
729.56	244.59
729.89	244.42
730.22	244.25
730.55	244.09
730.89	243.92
731.22	243.76
731.55	243.61
731.88	243.45
732.21	243.26
732.54	243.12
732.87	242.96
733.20	242.80
733.53	242.65
733.86	242.51
734.19	242.34
734.52	242.22
734.85	242.15
735.18	241.97
735.51	241.86
735.84	241.73
736.17	241.63
736.50	241.43
736.83	241.44
737.16	241.31
737.49	241.18
737.82	241.04
738.15	240.93
738.48	240.79
738.81	240.65
739.14	240.51
739.47	240.36
739.80	240.23
740.13	240.11
740.46	239.97
740.79	239.82
741.12	239.69
741.45	239.54
741.78	239.35
742.11	239.26
742.44	239.11
742.77	238.98
743.10	238.84
743.43	238.71
743.75	238.46
744.08	238.53
744.41	238.41
744.74	238.29
745.07	238.15
745.40	238.06
745.73	238.01
746.06	237.91
746.39	237.81
746.71	237.70
747.04	237.59
747.37	237.48
747.70	237.40
748.03	237.31
748.36	237.22
748.68	237.12
749.01	236.99
749.34	236.89
749.67	236.81
750.00	236.73
750.33	236.73
750.65	236.63
750.98	236.35
751.31	236.26
751.64	236.18
751.97	236.15
752.29	236.05
752.62	235.89
752.95	235.79
753.28	235.69
753.60	235.59
753.93	235.53
754.26	235.46
754.59	235.33
754.91	235.24
755.24	235.14
755.57	235.11
755.90	235.02
756.22	234.93
756.55	234.82
756.88	234.72
757.20	234.55
757.53	234.44
757.86	234.35
758.19	234.28
758.51	234.20
758.84	234.06
759.17	233.97
759.49	233.91
759.82	233.90
760.15	233.85
760.47	233.77
760.80	233.67
761.13	233.61
761.45	233.55
761.78	233.47
762.11	233.41
762.43	233.27
762.76	233.21
763.08	233.16
763.41	233.11
763.74	233.05
764.06	232.99
764.39	232.94
764.71	232.89
765.04	232.82
765.37	232.75
765.69	232.70
766.02	232.63
766.34	232.57
766.67	232.46
767.00	232.43
767.32	232.46
767.65	232.48
767.97	232.40
768.30	232.36
768.62	232.31
768.95	232.24
769.27	232.19
769.60	232.16
769.92	232.09
770.25	232.02
770.57	231.96
770.90	231.91
771.22	231.85
771.55	231.80
771.87	231.76
772.20	231.73
772.52	231.78
772.85	231.89
773.17	231.86
773.50	231.80
773.82	231.73
774.15	231.63
774.47	231.51
774.80	231.46
775.12	231.42
775.45	231.38
775.77	231.35
776.09	231.31
776.42	231.27
776.74	231.27
777.07	231.23
777.39	231.21
777.72	231.16
778.04	231.14
778.36	231.09
778.69	231.05
779.01	231.02
779.33	230.88
779.66	230.70
779.98	230.64
780.31	230.62
780.63	230.65
780.95	230.64
781.28	230.61
781.60	230.57
781.92	230.54
782.25	230.51
782.57	230.48
782.89	230.46
783.22	230.42
783.54	230.36
783.86	230.35
784.19	230.31
784.51	230.32
784.83	230.28
785.16	230.25
785.48	230.24
785.80	230.21
786.12	230.19
786.45	230.16
786.77	230.16
787.09	230.12
787.42	230.04
787.74	230.02
788.06	230.00
788.38	229.98
788.71	229.95
789.03	229.93
789.35	229.92
789.67	229.88
789.99	229.87
790.32	229.84
790.64	229.83
790.96	229.92
791.28	229.86
791.61	229.83
791.93	229.83
792.25	229.79
792.57	229.87
792.89	229.83
793.21	229.82
793.54	229.79
793.86	229.76
794.18	229.75
794.50	229.70
794.82	229.68
795.14	229.67
795.47	229.68
795.79	229.66
796.11	229.62
796.43	229.59
796.75	229.57
797.07	229.56
797.39	229.53
797.71	229.42
798.04	229.41
798.36	229.41
798.68	229.39
799.00	229.38
799.32	229.30
799.64	229.31
799.96	229.29
800.28	229.30
800.60	229.28
800.92	229.27
801.24	229.25
801.56	229.26
801.89	229.23
802.21	229.21
802.53	229.17
802.85	229.19
803.17	229.24
803.49	229.20
803.81	229.16
804.13	229.14
804.45	229.11
804.77	229.10
805.09	229.08
805.41	229.05
805.73	229.01
806.05	228.96
806.37	228.93
806.69	228.91
807.01	228.88
807.33	228.87
807.65	228.82
807.97	228.86
808.28	228.82
808.60	228.81
808.92	228.77
809.24	228.84
809.56	228.80
809.88	228.74
810.20	228.74
810.52	228.76
810.84	228.73
811.16	228.71
811.48	228.69
811.80	228.72
812.12	228.71
812.43	228.73
812.75	228.73
813.07	228.71
813.39	228.70
813.71	228.68
814.03	228.65
814.35	228.65
814.67	228.60
814.98	228.59
815.30	228.58
815.62	228.56
815.94	228.47
816.26	228.48
816.58	228.45
816.89	228.45
817.21	228.41
817.53	228.42
817.85	228.42
818.17	228.41
818.48	228.35
818.80	228.37
819.12	228.34
819.44	228.32
819.76	228.29
820.07	228.28
820.39	228.28
820.71	228.29
821.03	228.28
821.34	228.26
821.66	228.27
821.98	228.27
822.30	228.25
822.61	228.33
822.93	228.29
823.25	228.28
823.57	228.25
823.88	228.26
824.20	228.25
824.52	228.27
824.83	228.26
825.15	228.24
825.47	228.22
825.79	228.23
826.10	228.22
826.42	228.21
826.74	228.22
827.05	228.21
827.37	228.20
827.69	228.19
828.00	228.18
828.32	228.18
828.64	228.15
828.95	228.22
829.27	228.17
829.58	228.18
829.90	228.20
830.22	228.21
830.53	228.19
830.85	228.18
831.17	228.15
831.48	228.14
831.80	228.14
832.11	228.14
832.43	228.11
832.75	228.11
833.06	228.17
833.38	228.13
833.69	228.12
834.01	228.12
834.32	228.12
834.64	228.10
834.96	228.09
835.27	228.09
835.59	228.04
835.90	228.02
836.22	228.01
836.53	227.97
836.85	227.95
837.16	228.08
837.48	228.07
837.79	228.11
838.11	228.11
838.42	228.11
838.74	228.11
839.05	228.10
839.37	228.09
839.68	228.01
840.00	228.01
840.31	228.02
840.63	228.00
840.94	227.98
841.26	227.96
841.57	227.95
841.88	227.96
842.20	227.93
842.51	227.91
842.83	227.91
843.14	228.02
843.46	228.01
843.77	227.92
844.08	227.92
844.40	227.87
844.71	227.86
845.03	227.84
845.34	227.83
845.65	227.82
845.97	227.82
846.28	227.82
846.60	227.83
846.91	227.80
847.22	227.80
847.54	227.82
847.85	227.83
848.16	227.81
848.48	227.80
848.79	227.84
849.10	227.86
849.42	227.86
849.73	227.75
850.04	227.74
850.36	227.70
850.67	227.71
850.98	227.72
851.30	227.73
851.61	227.72
851.92	227.71
852.23	227.75
852.55	227.75
852.86	227.75
853.17	227.76
853.49	227.78
853.80	227.80
854.11	227.80
854.42	227.82
854.74	227.81
855.05	227.80
855.36	227.73
855.67	227.73
855.99	227.72
856.30	227.86
856.61	227.86
856.92	227.87
857.23	227.87
857.55	227.84
857.86	227.82
858.17	227.84
858.48	227.81
858.79	227.78
859.11	227.78
859.42	227.76
859.73	227.74
860.04	227.74
860.35	227.69
860.66	227.66
860.98	227.65
861.29	227.66
861.60	227.66
861.91	227.70
862.22	227.67
862.53	227.66
862.84	227.51
863.16	227.53
863.47	227.50
863.78	227.48
864.09	227.50
864.40	227.52
864.71	227.52
865.02	227.54
865.33	227.52
865.64	227.50
865.95	227.51
866.27	227.59
866.58	227.58
866.89	227.60
867.20	227.60
867.51	227.57
867.82	227.56
868.13	227.60
868.44	227.57
868.75	227.59
869.06	227.59
869.37	227.61
869.68	227.58
869.99	227.60
870.30	227.60
870.61	227.61
870.92	227.58
871.23	227.57
871.54	227.59
871.85	227.63
872.16	227.64
872.47	227.62
872.78	227.55
873.09	227.55
873.40	227.53
873.71	227.54
874.02	227.55
874.33	227.53
874.64	227.49
874.95	227.50
875.26	227.47
875.56	227.46
875.87	227.45
876.18	227.43
876.49	227.55
876.80	227.54
877.11	227.52
877.42	227.53
877.73	227.52
878.04	227.49
878.35	227.49
878.66	227.48
878.96	227.49
879.27	227.48
879.58	227.49
879.89	227.48
880.20	227.51
880.51	227.49
880.82	227.50
881.12	227.51
881.43	227.49
881.74	227.48
882.05	227.48
882.36	227.48
882.67	227.49
882.97	227.35
883.28	227.33
883.59	227.32
883.90	227.33
884.21	227.35
884.51	227.35
884.82	227.33
885.13	227.33
885.44	227.32
885.74	227.32
886.05	227.31
886.36	227.30
886.67	227.27
886.98	227.34
887.28	227.36
887.59	227.35
887.90	227.36
888.20	227.35
888.51	227.37
888.82	227.35
889.13	227.36
889.43	227.47
889.74	227.48
890.05	227.48
890.35	227.46
890.66	227.44
890.97	227.42
891.28	227.41
891.58	227.40
891.89	227.41
892.20	227.40
892.50	227.39
892.81	227.40
893.12	227.40
893.42	227.33
893.73	227.33
894.04	227.32
894.34	227.33
894.65	227.33
894.95	227.32
895.26	227.33
895.57	227.39
895.87	227.28
896.18	227.29
896.48	227.31
896.79	227.32
897.10	227.33
897.40	227.34
897.71	227.36
898.01	227.35
898.32	227.35
898.63	227.35
898.93	227.36
899.24	227.36
899.54	227.35
899.85	227.34
900.15	227.34
900.46	227.34
900.76	227.35
901.07	227.35
901.38	227.34
901.68	227.35
901.99	227.29
902.29	227.30
902.60	227.28
902.90	227.28
903.21	227.28
903.51	227.27
903.82	227.30
904.12	227.29
904.43	227.30
904.73	227.30
905.03	227.31
905.34	227.43
905.64	227.43
905.95	227.42
906.25	227.41
906.56	227.41
906.86	227.41
907.17	227.39
907.47	227.40
907.77	227.38
908.08	227.35
908.38	227.37
908.69	227.38
908.99	227.40
909.30	227.40
909.60	227.40
909.90	227.40
910.21	227.35
910.51	227.34
910.81	227.33
911.12	227.34
911.42	227.33
911.73	227.20
912.03	227.20
912.33	227.23
912.64	227.23
912.94	227.20
913.24	227.19
913.55	227.18
913.85	227.17
914.15	227.20
914.46	227.22
914.76	227.19
915.06	227.18
915.37	227.16
915.67	227.15
915.97	227.15
916.27	227.13
916.58	227.15
916.88	227.15
917.18	227.15
917.49	227.23
917.79	227.23
918.09	227.25
918.39	227.28
918.70	227.28
919.00	227.28
919.30	227.35
919.60	227.35
919.91	227.33
920.21	227.34
920.51	227.31
920.81	227.30
921.12	227.31
921.42	227.32
921.72	227.32
922.02	227.32
922.32	227.33
922.63	227.34
922.93	227.40
923.23	227.40
923.53	227.38
923.83	227.30
924.13	227.31
924.44	227.30
924.74	227.32
925.04	227.34
925.34	227.34
925.64	227.28
925.94	227.29
926.24	227.36
926.55	227.35
926.85	227.37
927.15	227.38
927.45	227.38
927.75	227.37
928.05	227.37
928.35	227.36
928.65	227.38
928.95	227.39
929.26	227.33
929.56	227.35
929.86	227.37
930.16	227.36
930.46	227.34
930.76	227.34
931.06	227.28
931.36	227.24
931.66	227.26
931.96	227.27
932.26	227.27
932.56	227.22
932.86	227.23
933.16	227.22
933.46	227.21
933.76	227.19
934.06	227.22
934.36	227.25
934.66	227.25
934.96	227.23
935.26	227.24
935.56	227.26
935.86	227.22
936.16	227.21
936.46	227.20
936.76	227.20
937.06	227.17
937.36	227.18
937.66	227.19
937.96	227.18
938.26	227.16
938.56	227.15
938.86	227.16
939.16	227.19
939.46	227.20
939.76	227.22
940.06	227.20
940.35	227.18
940.65	227.13
940.95	227.14
941.25	227.12
941.55	227.10
941.85	227.10
942.15	227.13
942.45	227.16
942.75	227.15
943.04	227.16
943.34	227.19
943.64	227.19
943.94	227.18
944.24	227.18
944.54	227.19
944.84	227.18
945.13	227.17
945.43	227.14
945.73	227.13
946.03	227.10
946.33	227.10
946.62	227.08
946.92	227.09
947.22	227.09
947.52	227.10
947.82	227.10
948.11	227.09
948.41	227.07
948.71	227.03
949.01	227.04
949.31	227.04
949.60	227.02
949.90	227.04
950.20	227.03
950.50	227.03
950.79	227.01
951.09	227.03
951.39	227.02
951.69	227.01
951.98	227.04
952.28	227.05
952.58	227.04
952.87	227.04
953.17	227.06
953.47	227.04
953.76	227.04
954.06	227.02
954.36	227.00
954.66	227.00
954.95	227.02
955.25	227.03
955.55	227.04
955.84	227.03
956.14	227.03
956.44	227.04
956.73	227.01
957.03	227.03
957.32	227.02
957.62	227.03
957.92	227.04
958.21	227.02
958.51	227.17
958.81	227.19
959.10	227.21
959.40	227.23
959.69	227.24
959.99	227.26
960.29	227.27
960.58	227.27
960.88	227.31
961.17	227.30
961.47	227.30
961.76	227.29
962.06	227.31
962.36	227.29
962.65	227.30
962.95	227.32
963.24	227.31
963.54	227.32
963.83	227.32
964.13	227.33
964.42	227.32
964.72	227.21
965.01	227.21
965.31	227.20
965.60	227.17
965.90	227.25
966.19	227.22
966.49	227.23
966.78	227.23
967.08	227.21
967.37	227.21
967.67	227.21
967.96	227.23
968.26	227.23
968.55	227.25
968.85	227.24
969.14	227.24
969.43	227.24
969.73	227.22
970.02	227.21
970.32	227.20
970.61	227.19
970.91	227.15
971.20	227.14
971.49	227.13
971.79	227.14
972.08	227.05
972.38	227.06
972.67	227.05
972.96	227.07
973.26	227.05
973.55	227.09
973.85	227.08
974.14	227.05
974.43	227.05
974.73	227.04
975.02	227.03
975.31	227.03
975.61	227.03
975.90	227.03
976.19	227.02
976.49	227.02
976.78	227.03
977.07	227.03
977.37	227.05
977.66	227.06
977.95	227.04
978.24	227.05
978.54	227.08
978.83	227.07
979.12	227.06
979.42	227.06
979.71	227.03
980.00	227.03
980.29	227.04
980.59	227.02
980.88	227.05
981.17	227.05
981.46	227.05
981.76	227.04
982.05	227.08
982.34	227.09
982.63	227.09
982.93	227.07
983.22	227.11
983.51	227.11
983.80	227.13
984.09	227.15
984.39	227.14
984.68	227.12
984.97	227.14
985.26	227.12
985.55	227.14
985.85	227.12
986.14	227.14
986.43	227.16
986.72	227.16
987.01	227.11
987.30	227.12
987.59	227.11
987.89	227.12
988.18	227.07
988.47	227.06
988.76	227.04
989.05	227.03
989.34	227.01
989.63	227.04
989.92	227.01
990.22	226.99
990.51	226.99
990.80	226.96
991.09	226.97
991.38	226.99
991.67	226.97
991.96	226.96
992.25	226.96
992.54	226.93
992.83	226.93
993.12	226.94
993.41	226.95
993.70	227.00
993.99	227.02
994.28	227.04
994.58	227.07
994.87	227.07
995.16	227.07
995.45	227.06
995.74	227.01
996.03	227.03
996.32	227.04
996.61	227.07
996.90	227.09
997.19	227.08
997.48	227.08
997.77	227.07
998.06	227.08
998.34	227.06
998.63	227.06
998.92	227.05
999.21	227.07
999.50	227.06
999.79	227.01
1000.08	227.01
1000.37	227.00
1000.66	226.98
1000.95	227.02
1001.24	227.02
1001.53	227.04
1001.82	227.04
1002.11	227.01
1002.40	227.03
1002.68	227.06
1002.97	227.13
1003.26	227.12
1003.55	227.09
1003.84	227.10
1004.13	227.15
1004.42	227.15
1004.71	227.14
1004.99	227.14
1005.28	227.17
1005.57	227.16
1005.86	227.16
1006.15	227.15
1006.44	227.12
1006.72	227.14
1007.01	227.12
1007.30	227.11
1007.59	227.10
1007.88	227.11
1008.17	227.12
1008.45	227.09
1008.74	227.03
1009.03	226.97
1009.32	226.97
1009.60	226.98
1009.89	226.97
1010.18	226.92
1010.47	226.91
1010.76	226.92
1011.04	226.93
1011.33	226.91
1011.62	226.93
1011.91	226.94
1012.19	226.95
1012.48	226.96
1012.77	226.97
1013.05	227.01
1013.34	227.02
1013.63	227.01
1013.92	227.02
1014.20	227.01
1014.49	227.02
1014.78	227.03
1015.06	226.99
1015.35	227.00
1015.64	227.02
1015.92	227.04
1016.21	227.05
1016.50	227.06
1016.78	227.07
1017.07	227.08
1017.36	227.06
1017.64	227.05
1017.93	227.06
1018.22	227.04
1018.50	227.03
1018.79	227.03
1019.08	226.99
1019.36	227.00
1019.65	226.99
1019.93	227.01
1020.22	227.03
1020.51	227.09
1020.79	227.08
1021.08	226.80
1021.36	226.77
1021.65	226.98
1021.94	227.01
1022.22	227.11
1022.51	226.85
1022.79	227.48
1023.08	227.20
1023.36	228.44
1023.65	226.76
>>>>>End Processed Spectral Data<<<<<
