SpectraSuite Data File
++++++++++++++++++++++++++++++++++++
Date: Fri Oct 02 16:49:39 EDT 2015
User: lab3
Dark Spectrum Present: No
Reference Spectrum Present: No
Number of Sampled Component Spectra: 1
Spectrometers: USB2E7196
Integration Time (usec): 46000 (USB2E7196)
Spectra Averaged: 1200 (USB2E7196)
Boxcar Smoothing: 10 (USB2E7196)
Correct for Electrical Dark: No (USB2E7196)
Strobe/Lamp Enabled: No (USB2E7196)
Correct for Detector Non-linearity: No (USB2E7196)
Correct for Stray Light: No (USB2E7196)
Number of Pixels in Processed Spectrum: 2048
>>>>>Begin Processed Spectral Data<<<<<
339.09	0.00
339.48	214.41
339.86	216.02
340.24	217.27
340.63	218.90
341.01	221.99
341.39	221.40
341.78	222.85
342.16	224.09
342.54	224.34
342.93	212.91
343.31	223.67
343.69	224.21
344.07	224.67
344.46	225.10
344.84	225.49
345.22	225.71
345.60	225.96
345.99	226.15
346.37	226.28
346.75	226.39
347.13	226.46
347.52	226.53
347.90	226.61
348.28	226.64
348.66	226.69
349.05	226.68
349.43	226.73
349.81	226.78
350.19	226.83
350.57	226.89
350.96	226.97
351.34	227.06
351.72	227.15
352.10	227.25
352.48	227.31
352.87	227.36
353.25	227.42
353.63	227.48
354.01	227.54
354.39	227.62
354.77	227.69
355.15	227.79
355.54	227.83
355.92	227.85
356.30	227.93
356.68	228.08
357.06	228.15
357.44	228.19
357.82	228.23
358.20	228.35
358.58	228.41
358.97	228.46
359.35	228.53
359.73	228.60
360.11	228.65
360.49	228.70
360.87	228.74
361.25	228.79
361.63	228.88
362.01	228.94
362.39	228.96
362.77	229.01
363.15	229.03
363.53	229.07
363.91	229.11
364.29	229.13
364.67	229.02
365.05	229.05
365.43	229.09
365.81	229.12
366.19	229.13
366.57	229.19
366.95	229.19
367.33	229.16
367.71	229.16
368.09	229.18
368.47	229.18
368.85	229.17
369.23	229.18
369.61	229.12
369.99	229.14
370.37	229.15
370.75	229.21
371.13	229.18
371.51	229.13
371.89	229.11
372.27	229.10
372.65	229.08
373.03	229.04
373.41	228.99
373.78	228.95
374.16	228.85
374.54	228.76
374.92	228.72
375.30	228.69
375.68	228.63
376.06	228.58
376.44	228.53
376.82	228.49
377.19	228.45
377.57	228.41
377.95	228.32
378.33	228.25
378.71	228.09
379.09	228.06
379.47	228.03
379.84	227.96
380.22	227.90
380.60	227.83
380.98	227.79
381.36	227.75
381.73	227.69
382.11	227.65
382.49	227.62
382.87	227.56
383.25	227.52
383.62	227.62
384.00	227.55
384.38	227.51
384.76	227.51
385.13	227.50
385.51	227.46
385.89	227.41
386.27	227.38
386.64	227.37
387.02	227.32
387.40	227.28
387.78	227.26
388.15	227.23
388.53	227.20
388.91	227.17
389.29	227.13
389.66	227.13
390.04	227.09
390.42	227.09
390.79	227.08
391.17	227.06
391.55	226.91
391.92	226.89
392.30	226.90
392.68	226.86
393.05	226.84
393.43	226.84
393.81	226.85
394.18	226.82
394.56	226.81
394.94	226.84
395.31	226.84
395.69	226.89
396.06	226.93
396.44	226.96
396.82	226.96
397.19	227.04
397.57	227.06
397.95	227.11
398.32	227.11
398.70	227.15
399.07	227.22
399.45	227.25
399.82	227.30
400.20	227.33
400.58	227.39
400.95	227.40
401.33	227.48
401.70	227.63
402.08	227.75
402.45	227.83
402.83	227.95
403.20	228.07
403.58	228.15
403.95	228.28
404.33	228.42
404.71	228.58
405.08	228.79
405.46	228.95
405.83	229.14
406.21	229.33
406.58	229.56
406.96	229.76
407.33	230.02
407.70	230.31
408.08	230.70
408.45	231.03
408.83	231.39
409.20	231.72
409.58	232.02
409.95	232.43
410.33	232.88
410.70	233.29
411.08	233.77
411.45	234.30
411.82	234.82
412.20	235.43
412.57	236.14
412.95	236.70
413.32	237.45
413.69	238.21
414.07	239.00
414.44	239.86
414.82	240.76
415.19	241.79
415.56	242.83
415.94	243.91
416.31	245.14
416.68	246.38
417.06	247.80
417.43	249.14
417.81	250.67
418.18	252.23
418.55	253.94
418.93	255.71
419.30	257.57
419.67	259.56
420.04	261.58
420.42	263.68
420.79	266.12
421.16	268.58
421.54	271.06
421.91	273.68
422.28	276.39
422.66	279.30
423.03	282.11
423.40	285.05
423.77	288.20
424.15	291.41
424.52	294.75
424.89	298.39
425.26	301.99
425.64	305.34
426.01	309.11
426.38	312.97
426.75	316.94
427.13	321.01
427.50	325.29
427.87	329.72
428.24	334.19
428.61	338.51
428.99	343.17
429.36	348.28
429.73	353.17
430.10	358.05
430.47	363.08
430.85	368.22
431.22	373.76
431.59	379.44
431.96	385.01
432.33	391.19
432.70	397.08
433.08	404.03
433.45	410.61
433.82	417.10
434.19	424.34
434.56	431.50
434.93	438.41
435.30	445.23
435.68	452.95
436.05	460.53
436.42	468.06
436.79	474.95
437.16	482.38
437.53	490.32
437.90	498.29
438.27	506.08
438.64	514.48
439.01	522.09
439.38	529.08
439.75	535.78
440.13	543.32
440.50	550.48
440.87	556.19
441.24	562.41
441.61	569.19
441.98	574.11
442.35	579.96
442.72	585.90
443.09	591.55
443.46	595.08
443.83	597.64
444.20	599.73
444.57	602.91
444.94	604.65
445.31	606.45
445.68	607.95
446.05	608.98
446.42	608.40
446.79	607.63
447.16	606.92
447.53	606.26
447.90	603.63
448.27	601.10
448.64	597.37
449.01	594.73
449.37	589.67
449.74	585.09
450.11	579.24
450.48	572.86
450.85	566.51
451.22	561.06
451.59	555.72
451.96	550.93
452.33	544.03
452.70	537.89
453.07	530.45
453.43	523.03
453.80	515.84
454.17	508.98
454.54	502.67
454.91	495.54
455.28	488.90
455.65	482.63
456.02	476.00
456.38	470.69
456.75	463.85
457.12	458.35
457.49	452.81
457.86	447.59
458.23	443.03
458.59	437.99
458.96	432.83
459.33	428.31
459.70	423.67
460.07	420.17
460.43	416.05
460.80	412.21
461.17	408.89
461.54	405.27
461.91	401.89
462.27	398.48
462.64	395.73
463.01	392.53
463.38	389.32
463.74	386.45
464.11	383.89
464.48	381.61
464.85	379.13
465.21	377.25
465.58	375.16
465.95	372.74
466.32	370.83
466.68	368.95
467.05	367.07
467.42	365.24
467.78	363.24
468.15	361.42
468.52	360.09
468.88	358.28
469.25	356.63
469.62	355.34
469.98	353.90
470.35	352.63
470.72	351.50
471.08	350.33
471.45	349.35
471.82	348.27
472.18	347.11
472.55	346.36
472.92	345.42
473.28	344.68
473.65	343.90
474.02	343.12
474.38	342.48
474.75	342.11
475.11	341.59
475.48	341.35
475.85	341.08
476.21	340.95
476.58	340.86
476.94	341.01
477.31	341.09
477.67	341.19
478.04	341.41
478.41	341.71
478.77	342.15
479.14	342.43
479.50	342.94
479.87	343.62
480.23	344.32
480.60	344.98
480.96	345.65
481.33	346.64
481.69	347.65
482.06	348.65
482.42	349.55
482.79	350.67
483.15	351.96
483.52	353.45
483.88	354.88
484.25	356.40
484.61	357.97
484.98	359.67
485.34	361.60
485.71	363.61
486.07	365.76
486.44	367.90
486.80	370.30
487.17	372.79
487.53	375.50
487.90	378.34
488.26	381.42
488.62	384.69
488.99	387.94
489.35	391.38
489.72	395.11
490.08	399.04
490.44	403.09
490.81	407.31
491.17	411.62
491.54	416.24
491.90	421.03
492.26	426.15
492.63	431.50
492.99	437.09
493.36	442.88
493.72	448.97
494.08	455.20
494.45	461.82
494.81	468.68
495.17	475.72
495.54	483.17
495.90	490.94
496.26	498.87
496.63	507.03
496.99	515.53
497.35	524.39
497.72	533.55
498.08	542.92
498.44	552.61
498.80	562.88
499.17	573.38
499.53	584.21
499.89	595.42
500.26	606.82
500.62	618.51
500.98	630.83
501.34	643.34
501.71	656.35
502.07	669.54
502.43	683.28
502.79	697.26
503.16	711.65
503.52	726.24
503.88	741.25
504.24	756.70
504.60	772.37
504.97	788.51
505.33	805.04
505.69	822.43
506.05	840.17
506.41	857.81
506.78	875.69
507.14	894.03
507.50	912.84
507.86	931.96
508.22	951.33
508.59	970.50
508.95	990.45
509.31	1011.17
509.67	1032.53
510.03	1053.84
510.39	1075.19
510.75	1096.75
511.12	1118.55
511.48	1140.52
511.84	1162.55
512.20	1184.89
512.56	1208.05
512.92	1231.21
513.28	1254.06
513.64	1277.04
514.00	1300.43
514.37	1324.13
514.73	1347.87
515.09	1371.42
515.45	1395.30
515.81	1419.28
516.17	1443.40
516.53	1466.99
516.89	1490.39
517.25	1513.97
517.61	1537.50
517.97	1561.42
518.33	1584.77
518.69	1608.04
519.05	1631.81
519.41	1655.76
519.77	1679.91
520.13	1703.36
520.49	1726.68
520.85	1750.31
521.21	1773.49
521.57	1797.05
521.93	1820.10
522.29	1843.56
522.65	1866.47
523.01	1889.32
523.37	1911.80
523.73	1934.90
524.09	1957.76
524.45	1980.40
524.81	2002.57
525.17	2024.48
525.53	2045.85
525.89	2067.69
526.25	2089.47
526.61	2110.22
526.97	2131.11
527.33	2151.87
527.68	2172.33
528.04	2192.07
528.40	2210.75
528.76	2229.74
529.12	2248.17
529.48	2266.18
529.84	2282.53
530.20	2299.39
530.56	2315.73
530.91	2332.14
531.27	2348.25
531.63	2363.46
531.99	2378.30
532.35	2392.50
532.71	2406.85
533.07	2421.68
533.42	2434.73
533.78	2448.70
534.14	2462.87
534.50	2476.06
534.86	2489.09
535.21	2500.27
535.57	2511.85
535.93	2523.29
536.29	2533.55
536.65	2543.72
537.00	2553.25
537.36	2563.59
537.72	2572.60
538.08	2581.05
538.44	2588.86
538.79	2596.24
539.15	2602.93
539.51	2609.15
539.87	2614.72
540.22	2618.46
540.58	2622.30
540.94	2627.32
541.29	2630.84
541.65	2632.65
542.01	2633.87
542.37	2634.36
542.72	2636.09
543.08	2636.33
543.44	2637.07
543.79	2636.83
544.15	2635.73
544.51	2634.96
544.87	2633.13
545.22	2630.63
545.58	2627.47
545.94	2624.38
546.29	2620.00
546.65	2615.64
547.01	2611.23
547.36	2607.47
547.72	2603.81
548.07	2598.59
548.43	2591.94
548.79	2584.42
549.14	2578.03
549.50	2571.92
549.86	2564.99
550.21	2557.00
550.57	2549.83
550.92	2540.53
551.28	2531.79
551.64	2523.33
551.99	2514.55
552.35	2505.19
552.70	2496.10
553.06	2487.36
553.41	2478.02
553.77	2468.53
554.13	2458.87
554.48	2448.47
554.84	2436.98
555.19	2425.94
555.55	2414.96
555.90	2404.07
556.26	2393.68
556.61	2382.29
556.97	2369.35
557.32	2356.95
557.68	2344.47
558.03	2331.82
558.39	2320.28
558.74	2309.04
559.10	2296.21
559.45	2283.56
559.81	2271.50
560.16	2258.87
560.52	2246.48
560.87	2234.34
561.23	2221.46
561.58	2208.82
561.94	2195.88
562.29	2182.41
562.64	2169.64
563.00	2156.57
563.35	2143.88
563.71	2130.97
564.06	2118.06
564.42	2105.79
564.77	2092.96
565.12	2080.10
565.48	2067.20
565.83	2054.33
566.19	2041.56
566.54	2028.80
566.89	2015.00
567.25	2001.40
567.60	1989.01
567.96	1975.84
568.31	1961.42
568.66	1947.71
569.02	1935.02
569.37	1922.27
569.72	1910.09
570.08	1896.64
570.43	1882.84
570.78	1868.93
571.14	1854.51
571.49	1840.66
571.84	1827.40
572.20	1813.01
572.55	1798.87
572.90	1784.64
573.26	1770.40
573.61	1755.71
573.96	1741.48
574.31	1727.45
574.67	1713.47
575.02	1698.59
575.37	1683.72
575.72	1669.78
576.08	1656.11
576.43	1641.37
576.78	1627.12
577.13	1613.10
577.49	1599.46
577.84	1586.39
578.19	1572.49
578.54	1558.74
578.90	1544.54
579.25	1530.21
579.60	1517.39
579.95	1504.48
580.30	1491.38
580.66	1478.09
581.01	1464.76
581.36	1451.39
581.71	1439.01
582.06	1426.48
582.42	1414.18
582.77	1402.00
583.12	1389.77
583.47	1377.39
583.82	1365.16
584.17	1352.58
584.53	1339.68
584.88	1327.20
585.23	1314.35
585.58	1302.28
585.93	1290.34
586.28	1279.11
586.63	1267.91
586.98	1256.26
587.34	1244.69
587.69	1232.93
588.04	1221.47
588.39	1210.39
588.74	1199.43
589.09	1188.26
589.44	1176.72
589.79	1165.75
590.14	1154.90
590.49	1143.96
590.84	1133.21
591.19	1122.80
591.54	1112.24
591.89	1101.87
592.25	1091.62
592.60	1081.10
592.95	1070.90
593.30	1060.93
593.65	1050.68
594.00	1040.55
594.35	1030.97
594.70	1020.93
595.05	1011.73
595.40	1002.42
595.75	992.99
596.10	984.03
596.45	974.85
596.80	966.02
597.15	956.97
597.50	948.04
597.85	939.49
598.19	930.80
598.54	922.20
598.89	913.96
599.24	905.99
599.59	897.85
599.94	890.56
600.29	883.11
600.64	875.40
600.99	867.41
601.34	859.75
601.69	851.72
602.04	844.37
602.39	836.85
602.74	829.39
603.08	821.89
603.43	814.40
603.78	807.05
604.13	799.84
604.48	792.63
604.83	785.59
605.18	778.43
605.53	771.44
605.87	764.28
606.22	757.45
606.57	750.56
606.92	743.61
607.27	736.56
607.62	729.81
607.96	723.44
608.31	717.43
608.66	711.25
609.01	705.35
609.36	699.56
609.70	693.56
610.05	687.55
610.40	681.77
610.75	675.98
611.10	670.51
611.44	664.88
611.79	659.34
612.14	653.75
612.49	648.26
612.83	643.04
613.18	637.92
613.53	632.69
613.88	627.52
614.22	622.73
614.57	617.90
614.92	612.89
615.27	607.99
615.61	603.13
615.96	598.36
616.31	593.58
616.65	588.85
617.00	584.31
617.35	579.88
617.70	575.50
618.04	571.16
618.39	566.75
618.74	562.58
619.08	558.43
619.43	554.39
619.78	550.38
620.12	546.32
620.47	542.42
620.82	538.61
621.16	534.81
621.51	530.91
621.85	527.06
622.20	523.40
622.55	519.75
622.89	516.16
623.24	512.57
623.59	509.02
623.93	505.60
624.28	502.25
624.62	499.01
624.97	495.81
625.32	492.56
625.66	489.29
626.01	485.97
626.35	482.73
626.70	479.52
627.04	476.44
627.39	473.35
627.73	470.39
628.08	467.51
628.43	464.63
628.77	461.82
629.12	459.11
629.46	456.41
629.81	453.64
630.15	450.89
630.50	448.20
630.84	445.57
631.19	442.98
631.53	440.50
631.88	437.97
632.22	435.47
632.57	433.23
632.91	431.00
633.26	428.86
633.60	426.74
633.95	424.69
634.29	422.57
634.64	420.49
634.98	418.22
635.32	416.12
635.67	414.20
636.01	412.18
636.36	410.20
636.70	408.35
637.05	406.50
637.39	404.66
637.73	402.85
638.08	401.15
638.42	399.44
638.77	397.60
639.11	395.71
639.45	393.89
639.80	392.00
640.14	390.24
640.49	388.46
640.83	386.62
641.17	384.89
641.52	383.20
641.86	381.50
642.20	380.01
642.55	378.36
642.89	376.74
643.23	375.21
643.58	373.82
643.92	372.31
644.26	370.86
644.61	369.45
644.95	368.00
645.29	366.48
645.64	364.99
645.98	363.56
646.32	362.25
646.66	360.91
647.01	359.59
647.35	358.31
647.69	357.01
648.04	355.85
648.38	354.59
648.72	353.36
649.06	352.14
649.41	350.93
649.75	349.76
650.09	348.59
650.43	347.41
650.78	346.20
651.12	345.02
651.46	343.89
651.80	342.78
652.14	341.70
652.49	340.66
652.83	339.60
653.17	338.59
653.51	337.60
653.85	336.66
654.20	335.68
654.54	334.61
654.88	333.63
655.22	332.67
655.56	331.68
655.90	330.77
656.25	329.87
656.59	328.97
656.93	328.11
657.27	327.27
657.61	326.38
657.95	325.52
658.29	324.66
658.64	323.84
658.98	323.00
659.32	322.19
659.66	321.42
660.00	320.67
660.34	319.92
660.68	319.13
661.02	318.30
661.36	317.50
661.70	316.76
662.05	316.02
662.39	315.29
662.73	314.66
663.07	314.00
663.41	313.32
663.75	312.60
664.09	311.90
664.43	311.15
664.77	310.48
665.11	309.79
665.45	309.14
665.79	308.51
666.13	307.84
666.47	307.15
666.81	306.45
667.15	305.71
667.49	305.07
667.83	304.48
668.17	303.87
668.51	303.31
668.85	302.78
669.19	302.27
669.53	301.65
669.87	301.03
670.21	300.43
670.55	299.86
670.89	299.37
671.23	298.83
671.57	298.30
671.91	297.81
672.25	297.34
672.58	296.88
672.92	296.33
673.26	295.87
673.60	295.40
673.94	294.95
674.28	294.53
674.62	294.07
674.96	293.56
675.30	293.11
675.64	292.62
675.97	292.10
676.31	291.56
676.65	291.08
676.99	290.66
677.33	290.16
677.67	289.71
678.01	289.18
678.34	288.73
678.68	288.32
679.02	287.83
679.36	287.36
679.70	286.88
680.04	286.43
680.37	285.96
680.71	285.54
681.05	285.12
681.39	284.66
681.73	284.18
682.06	283.72
682.40	283.28
682.74	282.89
683.08	282.54
683.42	282.12
683.75	281.74
684.09	281.28
684.43	280.88
684.77	280.46
685.10	280.09
685.44	279.70
685.78	279.31
686.12	278.94
686.45	278.54
686.79	278.12
687.13	277.76
687.46	277.36
687.80	276.97
688.14	276.54
688.48	276.18
688.81	275.80
689.15	275.45
689.49	275.05
689.82	274.65
690.16	274.19
690.50	273.82
690.83	273.43
691.17	273.04
691.51	272.68
691.84	272.32
692.18	271.93
692.52	271.51
692.85	271.13
693.19	270.79
693.52	270.42
693.86	270.05
694.20	269.67
694.53	269.31
694.87	268.93
695.21	268.55
695.54	268.17
695.88	267.80
696.21	267.41
696.55	267.06
696.88	266.70
697.22	266.35
697.56	266.00
697.89	265.61
698.23	265.27
698.56	264.89
698.90	264.55
699.23	264.18
699.57	263.83
699.90	263.47
700.24	263.08
700.58	262.78
700.91	262.50
701.25	262.28
701.58	262.01
701.92	261.72
702.25	261.44
702.59	261.12
702.92	260.81
703.26	260.49
703.59	260.17
703.93	259.95
704.26	259.65
704.60	259.34
704.93	259.04
705.26	258.71
705.60	258.46
705.93	258.12
706.27	257.87
706.60	257.62
706.94	257.38
707.27	257.07
707.61	256.76
707.94	256.43
708.27	256.02
708.61	255.66
708.94	255.34
709.28	255.05
709.61	254.75
709.94	254.48
710.28	254.24
710.61	254.00
710.95	253.63
711.28	253.45
711.61	253.19
711.95	252.96
712.28	252.71
712.61	252.44
712.95	252.27
713.28	252.07
713.61	251.78
713.95	251.49
714.28	251.26
714.61	251.01
714.95	250.78
715.28	250.55
715.61	250.34
715.95	250.12
716.28	249.91
716.61	249.73
716.95	249.50
717.28	249.28
717.61	249.05
717.94	248.83
718.28	248.53
718.61	248.31
718.94	248.08
719.27	247.87
719.61	247.68
719.94	247.45
720.27	247.17
720.60	246.97
720.94	246.77
721.27	246.58
721.60	246.40
721.93	246.20
722.27	246.04
722.60	245.86
722.93	245.66
723.26	245.46
723.59	245.23
723.93	245.05
724.26	244.87
724.59	244.67
724.92	244.50
725.25	244.37
725.59	244.20
725.92	244.05
726.25	243.88
726.58	243.71
726.91	243.53
727.24	243.37
727.57	243.21
727.91	243.03
728.24	242.90
728.57	242.73
728.90	242.58
729.23	242.39
729.56	242.28
729.89	242.12
730.22	241.96
730.55	241.83
730.89	241.67
731.22	241.52
731.55	241.37
731.88	241.22
732.21	241.05
732.54	240.91
732.87	240.78
733.20	240.65
733.53	240.51
733.86	240.38
734.19	240.22
734.52	240.11
734.85	240.07
735.18	239.90
735.51	239.80
735.84	239.67
736.17	239.58
736.50	239.38
736.83	239.41
737.16	239.28
737.49	239.16
737.82	239.04
738.15	238.95
738.48	238.83
738.81	238.71
739.14	238.58
739.47	238.45
739.80	238.31
740.13	238.20
740.46	238.07
740.79	237.93
741.12	237.82
741.45	237.68
741.78	237.49
742.11	237.41
742.44	237.27
742.77	237.18
743.10	237.05
743.43	236.93
743.75	236.69
744.08	236.78
744.41	236.67
744.74	236.57
745.07	236.43
745.40	236.35
745.73	236.30
746.06	236.21
746.39	236.14
746.71	236.05
747.04	235.93
747.37	235.83
747.70	235.76
748.03	235.68
748.36	235.62
748.68	235.52
749.01	235.39
749.34	235.30
749.67	235.21
750.00	235.15
750.33	235.16
750.65	235.08
750.98	234.80
751.31	234.71
751.64	234.63
751.97	234.61
752.29	234.51
752.62	234.36
752.95	234.27
753.28	234.17
753.60	234.07
753.93	234.03
754.26	233.96
754.59	233.83
754.91	233.73
755.24	233.62
755.57	233.60
755.90	233.53
756.22	233.44
756.55	233.33
756.88	233.23
757.20	233.07
757.53	232.96
757.86	232.88
758.19	232.81
758.51	232.73
758.84	232.60
759.17	232.52
759.49	232.45
759.82	232.44
760.15	232.37
760.47	232.31
760.80	232.20
761.13	232.15
761.45	232.09
761.78	232.03
762.11	231.98
762.43	231.85
762.76	231.79
763.08	231.74
763.41	231.69
763.74	231.64
764.06	231.59
764.39	231.54
764.71	231.48
765.04	231.42
765.37	231.35
765.69	231.30
766.02	231.25
766.34	231.18
766.67	231.09
767.00	231.06
767.32	231.07
767.65	231.10
767.97	231.04
768.30	231.01
768.62	230.96
768.95	230.90
769.27	230.84
769.60	230.80
769.92	230.74
770.25	230.68
770.57	230.60
770.90	230.56
771.22	230.50
771.55	230.45
771.87	230.42
772.20	230.38
772.52	230.44
772.85	230.55
773.17	230.51
773.50	230.47
773.82	230.41
774.15	230.31
774.47	230.20
774.80	230.15
775.12	230.10
775.45	230.05
775.77	230.03
776.09	230.01
776.42	229.97
776.74	229.98
777.07	229.95
777.39	229.92
777.72	229.87
778.04	229.86
778.36	229.81
778.69	229.78
779.01	229.77
779.33	229.64
779.66	229.47
779.98	229.43
780.31	229.40
780.63	229.43
780.95	229.43
781.28	229.40
781.60	229.36
781.92	229.34
782.25	229.32
782.57	229.30
782.89	229.26
783.22	229.23
783.54	229.18
783.86	229.16
784.19	229.13
784.51	229.15
784.83	229.11
785.16	229.10
785.48	229.08
785.80	229.04
786.12	229.03
786.45	229.00
786.77	228.99
787.09	228.96
787.42	228.88
787.74	228.86
788.06	228.84
788.38	228.83
788.71	228.81
789.03	228.79
789.35	228.79
789.67	228.75
789.99	228.75
790.32	228.71
790.64	228.71
790.96	228.81
791.28	228.74
791.61	228.73
791.93	228.71
792.25	228.68
792.57	228.76
792.89	228.71
793.21	228.72
793.54	228.69
793.86	228.65
794.18	228.64
794.50	228.61
794.82	228.60
795.14	228.59
795.47	228.59
795.79	228.58
796.11	228.53
796.43	228.52
796.75	228.51
797.07	228.50
797.39	228.47
797.71	228.34
798.04	228.34
798.36	228.33
798.68	228.30
799.00	228.30
799.32	228.22
799.64	228.22
799.96	228.20
800.28	228.20
800.60	228.19
800.92	228.18
801.24	228.16
801.56	228.15
801.89	228.12
802.21	228.11
802.53	228.07
802.85	228.09
803.17	228.13
803.49	228.09
803.81	228.06
804.13	228.04
804.45	228.01
804.77	228.01
805.09	227.99
805.41	227.98
805.73	227.94
806.05	227.89
806.37	227.87
806.69	227.85
807.01	227.83
807.33	227.82
807.65	227.77
807.97	227.81
808.28	227.79
808.60	227.78
808.92	227.74
809.24	227.81
809.56	227.77
809.88	227.72
810.20	227.71
810.52	227.73
810.84	227.69
811.16	227.67
811.48	227.65
811.80	227.69
812.12	227.67
812.43	227.70
812.75	227.70
813.07	227.68
813.39	227.67
813.71	227.65
814.03	227.64
814.35	227.63
814.67	227.58
814.98	227.56
815.30	227.56
815.62	227.53
815.94	227.44
816.26	227.44
816.58	227.39
816.89	227.40
817.21	227.35
817.53	227.36
817.85	227.37
818.17	227.37
818.48	227.31
818.80	227.32
819.12	227.29
819.44	227.25
819.76	227.23
820.07	227.23
820.39	227.22
820.71	227.22
821.03	227.21
821.34	227.19
821.66	227.19
821.98	227.20
822.30	227.19
822.61	227.26
822.93	227.24
823.25	227.24
823.57	227.22
823.88	227.25
824.20	227.25
824.52	227.26
824.83	227.25
825.15	227.23
825.47	227.22
825.79	227.22
826.10	227.21
826.42	227.21
826.74	227.21
827.05	227.20
827.37	227.21
827.69	227.20
828.00	227.21
828.32	227.20
828.64	227.17
828.95	227.24
829.27	227.20
829.58	227.20
829.90	227.22
830.22	227.23
830.53	227.20
830.85	227.18
831.17	227.13
831.48	227.12
831.80	227.12
832.11	227.11
832.43	227.08
832.75	227.08
833.06	227.15
833.38	227.10
833.69	227.09
834.01	227.09
834.32	227.08
834.64	227.06
834.96	227.06
835.27	227.07
835.59	227.02
835.90	226.99
836.22	226.99
836.53	226.95
836.85	226.94
837.16	227.05
837.48	227.06
837.79	227.11
838.11	227.11
838.42	227.10
838.74	227.11
839.05	227.11
839.37	227.11
839.68	227.03
840.00	227.03
840.31	227.05
840.63	227.03
840.94	227.02
841.26	227.00
841.57	226.99
841.88	226.99
842.20	226.98
842.51	226.96
842.83	226.94
843.14	227.05
843.46	227.05
843.77	226.97
844.08	226.96
844.40	226.90
844.71	226.89
845.03	226.88
845.34	226.87
845.65	226.86
845.97	226.85
846.28	226.85
846.60	226.85
846.91	226.84
847.22	226.83
847.54	226.85
847.85	226.87
848.16	226.85
848.48	226.83
848.79	226.88
849.10	226.90
849.42	226.90
849.73	226.79
850.04	226.79
850.36	226.74
850.67	226.76
850.98	226.77
851.30	226.77
851.61	226.76
851.92	226.75
852.23	226.78
852.55	226.78
852.86	226.77
853.17	226.78
853.49	226.80
853.80	226.83
854.11	226.84
854.42	226.84
854.74	226.83
855.05	226.83
855.36	226.75
855.67	226.75
855.99	226.74
856.30	226.88
856.61	226.88
856.92	226.89
857.23	226.89
857.55	226.87
857.86	226.86
858.17	226.88
858.48	226.85
858.79	226.82
859.11	226.83
859.42	226.82
859.73	226.80
860.04	226.79
860.35	226.75
860.66	226.71
860.98	226.69
861.29	226.71
861.60	226.70
861.91	226.73
862.22	226.70
862.53	226.69
862.84	226.53
863.16	226.55
863.47	226.52
863.78	226.50
864.09	226.51
864.40	226.52
864.71	226.51
865.02	226.53
865.33	226.52
865.64	226.49
865.95	226.49
866.27	226.56
866.58	226.54
866.89	226.55
867.20	226.55
867.51	226.54
867.82	226.52
868.13	226.56
868.44	226.52
868.75	226.55
869.06	226.55
869.37	226.55
869.68	226.53
869.99	226.55
870.30	226.56
870.61	226.56
870.92	226.55
871.23	226.54
871.54	226.55
871.85	226.58
872.16	226.61
872.47	226.60
872.78	226.53
873.09	226.54
873.40	226.52
873.71	226.53
874.02	226.54
874.33	226.53
874.64	226.50
874.95	226.52
875.26	226.50
875.56	226.50
875.87	226.49
876.18	226.49
876.49	226.61
876.80	226.60
877.11	226.58
877.42	226.58
877.73	226.58
878.04	226.56
878.35	226.55
878.66	226.54
878.96	226.54
879.27	226.54
879.58	226.54
879.89	226.54
880.20	226.56
880.51	226.55
880.82	226.55
881.12	226.57
881.43	226.54
881.74	226.54
882.05	226.52
882.36	226.53
882.67	226.55
882.97	226.40
883.28	226.40
883.59	226.40
883.90	226.42
884.21	226.43
884.51	226.43
884.82	226.41
885.13	226.41
885.44	226.42
885.74	226.42
886.05	226.42
886.36	226.42
886.67	226.37
886.98	226.44
887.28	226.46
887.59	226.45
887.90	226.48
888.20	226.46
888.51	226.49
888.82	226.48
889.13	226.48
889.43	226.59
889.74	226.59
890.05	226.58
890.35	226.57
890.66	226.55
890.97	226.53
891.28	226.52
891.58	226.51
891.89	226.51
892.20	226.50
892.50	226.48
892.81	226.48
893.12	226.48
893.42	226.41
893.73	226.40
894.04	226.40
894.34	226.40
894.65	226.40
894.95	226.38
895.26	226.38
895.57	226.44
895.87	226.32
896.18	226.35
896.48	226.36
896.79	226.35
897.10	226.37
897.40	226.38
897.71	226.41
898.01	226.40
898.32	226.42
898.63	226.42
898.93	226.43
899.24	226.42
899.54	226.41
899.85	226.42
900.15	226.42
900.46	226.43
900.76	226.44
901.07	226.44
901.38	226.43
901.68	226.45
901.99	226.38
902.29	226.38
902.60	226.35
902.90	226.34
903.21	226.34
903.51	226.32
903.82	226.35
904.12	226.35
904.43	226.36
904.73	226.36
905.03	226.36
905.34	226.48
905.64	226.48
905.95	226.48
906.25	226.48
906.56	226.47
906.86	226.46
907.17	226.45
907.47	226.45
907.77	226.45
908.08	226.43
908.38	226.44
908.69	226.45
908.99	226.48
909.30	226.49
909.60	226.49
909.90	226.50
910.21	226.46
910.51	226.43
910.81	226.42
911.12	226.42
911.42	226.42
911.73	226.28
912.03	226.29
912.33	226.32
912.64	226.31
912.94	226.30
913.24	226.28
913.55	226.27
913.85	226.26
914.15	226.29
914.46	226.30
914.76	226.28
915.06	226.27
915.37	226.25
915.67	226.23
915.97	226.23
916.27	226.20
916.58	226.22
916.88	226.23
917.18	226.22
917.49	226.30
917.79	226.29
918.09	226.32
918.39	226.35
918.70	226.33
919.00	226.33
919.30	226.39
919.60	226.40
919.91	226.38
920.21	226.38
920.51	226.34
920.81	226.33
921.12	226.36
921.42	226.35
921.72	226.35
922.02	226.36
922.32	226.38
922.63	226.38
922.93	226.45
923.23	226.45
923.53	226.45
923.83	226.36
924.13	226.37
924.44	226.35
924.74	226.36
925.04	226.39
925.34	226.39
925.64	226.34
925.94	226.33
926.24	226.41
926.55	226.39
926.85	226.41
927.15	226.41
927.45	226.41
927.75	226.40
928.05	226.40
928.35	226.40
928.65	226.40
928.95	226.41
929.26	226.34
929.56	226.37
929.86	226.38
930.16	226.38
930.46	226.38
930.76	226.40
931.06	226.35
931.36	226.32
931.66	226.33
931.96	226.35
932.26	226.36
932.56	226.30
932.86	226.31
933.16	226.31
933.46	226.31
933.76	226.28
934.06	226.32
934.36	226.37
934.66	226.37
934.96	226.35
935.26	226.36
935.56	226.39
935.86	226.34
936.16	226.33
936.46	226.32
936.76	226.30
937.06	226.28
937.36	226.28
937.66	226.29
937.96	226.28
938.26	226.26
938.56	226.25
938.86	226.26
939.16	226.29
939.46	226.30
939.76	226.31
940.06	226.30
940.35	226.27
940.65	226.21
940.95	226.21
941.25	226.18
941.55	226.16
941.85	226.14
942.15	226.16
942.45	226.20
942.75	226.20
943.04	226.21
943.34	226.24
943.64	226.23
943.94	226.20
944.24	226.20
944.54	226.22
944.84	226.22
945.13	226.20
945.43	226.17
945.73	226.18
946.03	226.16
946.33	226.16
946.62	226.14
946.92	226.14
947.22	226.16
947.52	226.18
947.82	226.21
948.11	226.19
948.41	226.17
948.71	226.13
949.01	226.14
949.31	226.12
949.60	226.11
949.90	226.13
950.20	226.13
950.50	226.13
950.79	226.12
951.09	226.14
951.39	226.13
951.69	226.12
951.98	226.13
952.28	226.14
952.58	226.15
952.87	226.15
953.17	226.17
953.47	226.15
953.76	226.14
954.06	226.11
954.36	226.09
954.66	226.09
954.95	226.14
955.25	226.14
955.55	226.15
955.84	226.13
956.14	226.14
956.44	226.14
956.73	226.12
957.03	226.13
957.32	226.14
957.62	226.13
957.92	226.15
958.21	226.14
958.51	226.29
958.81	226.30
959.10	226.31
959.40	226.34
959.69	226.34
959.99	226.36
960.29	226.37
960.58	226.37
960.88	226.42
961.17	226.39
961.47	226.41
961.76	226.39
962.06	226.41
962.36	226.40
962.65	226.41
962.95	226.42
963.24	226.41
963.54	226.41
963.83	226.42
964.13	226.42
964.42	226.40
964.72	226.29
965.01	226.29
965.31	226.28
965.60	226.25
965.90	226.33
966.19	226.30
966.49	226.30
966.78	226.30
967.08	226.29
967.37	226.29
967.67	226.27
967.96	226.30
968.26	226.30
968.55	226.32
968.85	226.32
969.14	226.31
969.43	226.31
969.73	226.29
970.02	226.28
970.32	226.28
970.61	226.26
970.91	226.23
971.20	226.20
971.49	226.19
971.79	226.20
972.08	226.11
972.38	226.12
972.67	226.12
972.96	226.15
973.26	226.12
973.55	226.16
973.85	226.15
974.14	226.14
974.43	226.14
974.73	226.12
975.02	226.10
975.31	226.11
975.61	226.11
975.90	226.11
976.19	226.10
976.49	226.11
976.78	226.12
977.07	226.13
977.37	226.14
977.66	226.15
977.95	226.13
978.24	226.15
978.54	226.18
978.83	226.17
979.12	226.16
979.42	226.16
979.71	226.12
980.00	226.13
980.29	226.13
980.59	226.11
980.88	226.14
981.17	226.14
981.46	226.14
981.76	226.14
982.05	226.17
982.34	226.18
982.63	226.17
982.93	226.17
983.22	226.20
983.51	226.21
983.80	226.22
984.09	226.23
984.39	226.22
984.68	226.21
984.97	226.21
985.26	226.20
985.55	226.21
985.85	226.19
986.14	226.20
986.43	226.21
986.72	226.21
987.01	226.17
987.30	226.18
987.59	226.17
987.89	226.17
988.18	226.14
988.47	226.12
988.76	226.11
989.05	226.11
989.34	226.08
989.63	226.12
989.92	226.10
990.22	226.07
990.51	226.07
990.80	226.05
991.09	226.06
991.38	226.07
991.67	226.06
991.96	226.05
992.25	226.05
992.54	226.04
992.83	226.04
993.12	226.03
993.41	226.05
993.70	226.10
993.99	226.12
994.28	226.14
994.58	226.17
994.87	226.15
995.16	226.15
995.45	226.15
995.74	226.10
996.03	226.13
996.32	226.17
996.61	226.20
996.90	226.20
997.19	226.19
997.48	226.20
997.77	226.19
998.06	226.20
998.34	226.19
998.63	226.18
998.92	226.18
999.21	226.20
999.50	226.21
999.79	226.16
1000.08	226.17
1000.37	226.16
1000.66	226.14
1000.95	226.18
1001.24	226.19
1001.53	226.21
1001.82	226.20
1002.11	226.16
1002.40	226.16
1002.68	226.18
1002.97	226.28
1003.26	226.27
1003.55	226.25
1003.84	226.26
1004.13	226.30
1004.42	226.30
1004.71	226.31
1004.99	226.29
1005.28	226.32
1005.57	226.30
1005.86	226.29
1006.15	226.28
1006.44	226.27
1006.72	226.28
1007.01	226.25
1007.30	226.26
1007.59	226.25
1007.88	226.24
1008.17	226.24
1008.45	226.23
1008.74	226.19
1009.03	226.12
1009.32	226.12
1009.60	226.12
1009.89	226.11
1010.18	226.07
1010.47	226.07
1010.76	226.06
1011.04	226.08
1011.33	226.07
1011.62	226.09
1011.91	226.10
1012.19	226.10
1012.48	226.11
1012.77	226.11
1013.05	226.16
1013.34	226.14
1013.63	226.14
1013.92	226.15
1014.20	226.15
1014.49	226.15
1014.78	226.16
1015.06	226.12
1015.35	226.13
1015.64	226.15
1015.92	226.16
1016.21	226.16
1016.50	226.16
1016.78	226.19
1017.07	226.18
1017.36	226.17
1017.64	226.15
1017.93	226.16
1018.22	226.15
1018.50	226.14
1018.79	226.12
1019.08	226.07
1019.36	226.08
1019.65	226.08
1019.93	226.12
1020.22	226.14
1020.51	226.21
1020.79	226.19
1021.08	225.96
1021.36	225.83
1021.65	225.88
1021.94	225.98
1022.22	226.16
1022.51	225.94
1022.79	226.84
1023.08	226.46
1023.36	227.70
1023.65	225.74
>>>>>End Processed Spectral Data<<<<<
