SpectraSuite Data File
++++++++++++++++++++++++++++++++++++
Date: Sun Oct 04 18:20:32 EDT 2015
User: lab3
Dark Spectrum Present: No
Reference Spectrum Present: No
Number of Sampled Component Spectra: 1
Spectrometers: USB2E7196
Integration Time (usec): 46000 (USB2E7196)
Spectra Averaged: 24000 (USB2E7196)
Boxcar Smoothing: 10 (USB2E7196)
Correct for Electrical Dark: No (USB2E7196)
Strobe/Lamp Enabled: No (USB2E7196)
Correct for Detector Non-linearity: No (USB2E7196)
Correct for Stray Light: No (USB2E7196)
Number of Pixels in Processed Spectrum: 2048
>>>>>Begin Processed Spectral Data<<<<<
339.09	0.00
339.48	214.39
339.86	215.85
340.24	217.19
340.63	218.64
341.01	221.87
341.39	221.36
341.78	222.72
342.16	223.95
342.54	224.33
342.93	212.80
343.31	223.55
343.69	224.08
344.07	224.54
344.46	224.98
344.84	225.37
345.22	225.60
345.60	225.86
345.99	226.05
346.37	226.19
346.75	226.30
347.13	226.39
347.52	226.46
347.90	226.55
348.28	226.59
348.66	226.66
349.05	226.65
349.43	226.71
349.81	226.77
350.19	226.83
350.57	226.91
350.96	226.99
351.34	227.09
351.72	227.19
352.10	227.30
352.48	227.37
352.87	227.43
353.25	227.49
353.63	227.55
354.01	227.61
354.39	227.69
354.77	227.77
355.15	227.87
355.54	227.92
355.92	227.95
356.30	228.03
356.68	228.18
357.06	228.26
357.44	228.30
357.82	228.36
358.20	228.48
358.58	228.54
358.97	228.60
359.35	228.68
359.73	228.77
360.11	228.82
360.49	228.88
360.87	228.93
361.25	228.99
361.63	229.08
362.01	229.13
362.39	229.16
362.77	229.21
363.15	229.23
363.53	229.27
363.91	229.30
364.29	229.33
364.67	229.23
365.05	229.25
365.43	229.29
365.81	229.32
366.19	229.33
366.57	229.39
366.95	229.39
367.33	229.36
367.71	229.36
368.09	229.38
368.47	229.37
368.85	229.36
369.23	229.38
369.61	229.32
369.99	229.34
370.37	229.34
370.75	229.41
371.13	229.38
371.51	229.34
371.89	229.32
372.27	229.30
372.65	229.28
373.03	229.24
373.41	229.19
373.78	229.14
374.16	229.04
374.54	228.96
374.92	228.91
375.30	228.88
375.68	228.81
376.06	228.77
376.44	228.71
376.82	228.67
377.19	228.62
377.57	228.57
377.95	228.48
378.33	228.42
378.71	228.26
379.09	228.22
379.47	228.18
379.84	228.12
380.22	228.06
380.60	227.99
380.98	227.94
381.36	227.89
381.73	227.83
382.11	227.81
382.49	227.77
382.87	227.71
383.25	227.67
383.62	227.77
384.00	227.70
384.38	227.67
384.76	227.66
385.13	227.65
385.51	227.62
385.89	227.56
386.27	227.54
386.64	227.52
387.02	227.47
387.40	227.43
387.78	227.41
388.15	227.38
388.53	227.36
388.91	227.33
389.29	227.30
389.66	227.29
390.04	227.25
390.42	227.25
390.79	227.24
391.17	227.23
391.55	227.07
391.92	227.07
392.30	227.07
392.68	227.04
393.05	227.02
393.43	227.02
393.81	227.03
394.18	227.01
394.56	227.01
394.94	227.05
395.31	227.05
395.69	227.10
396.06	227.14
396.44	227.17
396.82	227.18
397.19	227.27
397.57	227.29
397.95	227.34
398.32	227.34
398.70	227.39
399.07	227.46
399.45	227.51
399.82	227.56
400.20	227.60
400.58	227.67
400.95	227.69
401.33	227.79
401.70	227.96
402.08	228.07
402.45	228.17
402.83	228.30
403.20	228.43
403.58	228.53
403.95	228.69
404.33	228.85
404.71	229.02
405.08	229.25
405.46	229.44
405.83	229.65
406.21	229.88
406.58	230.13
406.96	230.38
407.33	230.66
407.70	230.98
408.08	231.41
408.45	231.78
408.83	232.20
409.20	232.57
409.58	232.92
409.95	233.39
410.33	233.90
410.70	234.38
411.08	234.95
411.45	235.55
411.82	236.15
412.20	236.84
412.57	237.66
412.95	238.32
413.32	239.17
413.69	240.04
414.07	240.96
414.44	241.96
414.82	242.98
415.19	244.18
415.56	245.39
415.94	246.66
416.31	248.07
416.68	249.49
417.06	251.13
417.43	252.66
417.81	254.43
418.18	256.23
418.55	258.20
418.93	260.26
419.30	262.40
419.67	264.67
420.04	267.00
420.42	269.44
420.79	272.24
421.16	275.08
421.54	277.95
421.91	280.97
422.28	284.11
422.66	287.49
423.03	290.71
423.40	294.09
423.77	297.73
424.15	301.45
424.52	305.32
424.89	309.51
425.26	313.68
425.64	317.56
426.01	321.92
426.38	326.38
426.75	330.97
427.13	335.68
427.50	340.61
427.87	345.74
428.24	350.93
428.61	355.92
428.99	361.31
429.36	367.23
429.73	372.88
430.10	378.53
430.47	384.31
430.85	390.26
431.22	396.64
431.59	403.18
431.96	409.59
432.33	416.70
432.70	423.46
433.08	431.43
433.45	438.99
433.82	446.43
434.19	454.73
434.56	462.92
434.93	470.85
435.30	478.67
435.68	487.52
436.05	496.19
436.42	504.83
436.79	512.72
437.16	521.21
437.53	530.32
437.90	539.44
438.27	548.36
438.64	558.00
439.01	566.73
439.38	574.73
439.75	582.41
440.13	591.09
440.50	599.34
440.87	605.89
441.24	613.04
441.61	620.84
441.98	626.49
442.35	633.24
442.72	640.10
443.09	646.64
443.46	650.74
443.83	653.71
444.20	656.17
444.57	659.90
444.94	661.94
445.31	664.08
445.68	665.84
446.05	667.12
446.42	666.56
446.79	665.75
447.16	665.04
447.53	664.36
447.90	661.44
448.27	658.63
448.64	654.43
449.01	651.47
449.37	645.73
449.74	640.56
450.11	633.88
450.48	626.61
450.85	619.37
451.22	613.17
451.59	607.13
451.96	601.66
452.33	593.75
452.70	586.74
453.07	578.20
453.43	569.73
453.80	561.48
454.17	553.59
454.54	546.35
454.91	538.17
455.28	530.52
455.65	523.29
456.02	515.64
456.38	509.52
456.75	501.64
457.12	495.31
457.49	488.91
457.86	482.91
458.23	477.65
458.59	471.80
458.96	465.80
459.33	460.52
459.70	455.14
460.07	451.07
460.43	446.28
460.80	441.80
461.17	437.91
461.54	433.66
461.91	429.70
462.27	425.67
462.64	422.43
463.01	418.68
463.38	414.91
463.74	411.54
464.11	408.53
464.48	405.84
464.85	402.89
465.21	400.66
465.58	398.16
465.95	395.30
466.32	393.03
466.68	390.80
467.05	388.55
467.42	386.36
467.78	383.98
468.15	381.79
468.52	380.19
468.88	378.03
469.25	376.06
469.62	374.48
469.98	372.76
470.35	371.23
470.72	369.84
471.08	368.42
471.45	367.22
471.82	365.88
472.18	364.46
472.55	363.54
472.92	362.37
473.28	361.46
473.65	360.47
474.02	359.52
474.38	358.71
474.75	358.22
475.11	357.54
475.48	357.20
475.85	356.82
476.21	356.60
476.58	356.42
476.94	356.51
477.31	356.53
477.67	356.57
478.04	356.73
478.41	357.00
478.77	357.40
479.14	357.64
479.50	358.16
479.87	358.86
480.23	359.57
480.60	360.26
480.96	360.95
481.33	362.00
481.69	363.05
482.06	364.10
482.42	365.04
482.79	366.24
483.15	367.64
483.52	369.23
483.88	370.75
484.25	372.39
484.61	374.08
484.98	375.93
485.34	378.01
485.71	380.18
486.07	382.52
486.44	384.86
486.80	387.46
487.17	390.16
487.53	393.12
487.90	396.20
488.26	399.56
488.62	403.12
488.99	406.69
489.35	410.44
489.72	414.53
490.08	418.83
490.44	423.26
490.81	427.86
491.17	432.58
491.54	437.64
491.90	442.86
492.26	448.46
492.63	454.31
492.99	460.41
493.36	466.73
493.72	473.38
494.08	480.19
494.45	487.43
494.81	494.95
495.17	502.68
495.54	510.86
495.90	519.35
496.26	528.02
496.63	536.94
496.99	546.20
497.35	555.87
497.72	565.87
498.08	576.08
498.44	586.66
498.80	597.87
499.17	609.37
499.53	621.20
499.89	633.42
500.26	645.88
500.62	658.68
500.98	672.15
501.34	685.82
501.71	700.04
502.07	714.45
502.43	729.42
502.79	744.62
503.16	760.31
503.52	776.20
503.88	792.58
504.24	809.47
504.60	826.56
504.97	844.17
505.33	862.22
505.69	881.24
506.05	900.62
506.41	919.91
506.78	939.39
507.14	959.38
507.50	979.85
507.86	1000.68
508.22	1021.72
508.59	1042.55
508.95	1064.28
509.31	1086.85
509.67	1110.15
510.03	1133.44
510.39	1156.71
510.75	1180.15
511.12	1203.88
511.48	1227.75
511.84	1251.63
512.20	1275.97
512.56	1301.24
512.92	1326.50
513.28	1351.26
513.64	1376.27
514.00	1401.80
514.37	1427.64
514.73	1453.47
515.09	1479.14
515.45	1505.12
515.81	1531.26
516.17	1557.55
516.53	1583.22
516.89	1608.69
517.25	1634.40
517.61	1659.94
517.97	1686.01
518.33	1711.56
518.69	1736.97
519.05	1762.89
519.41	1789.07
519.77	1815.40
520.13	1840.90
520.49	1866.29
520.85	1892.15
521.21	1917.49
521.57	1943.24
521.93	1968.37
522.29	1994.04
522.65	2019.14
523.01	2044.25
523.37	2068.83
523.73	2094.14
524.09	2119.16
524.45	2143.93
524.81	2168.22
525.17	2192.34
525.53	2215.74
525.89	2239.62
526.25	2263.62
526.61	2286.63
526.97	2309.76
527.33	2332.83
527.68	2355.51
528.04	2377.31
528.40	2398.11
528.76	2419.08
529.12	2439.46
529.48	2459.57
529.84	2477.73
530.20	2496.57
530.56	2514.67
530.91	2532.94
531.27	2550.91
531.63	2567.88
531.99	2584.41
532.35	2600.16
532.71	2616.10
533.07	2632.79
533.42	2647.42
533.78	2663.13
534.14	2678.98
534.50	2693.81
534.86	2708.38
535.21	2720.93
535.57	2734.07
535.93	2746.93
536.29	2758.66
536.65	2770.21
537.00	2780.98
537.36	2792.74
537.72	2802.98
538.08	2812.80
538.44	2821.83
538.79	2830.30
539.15	2838.10
539.51	2845.49
539.87	2852.20
540.22	2856.85
540.58	2861.56
540.94	2867.66
541.29	2871.91
541.65	2874.25
542.01	2875.89
542.37	2876.85
542.72	2879.26
543.08	2879.79
543.44	2880.93
543.79	2881.03
544.15	2880.18
544.51	2879.74
544.87	2878.09
545.22	2875.69
545.58	2872.55
545.94	2869.56
546.29	2865.21
546.65	2860.81
547.01	2856.34
547.36	2852.70
547.72	2849.14
548.07	2843.77
548.43	2836.84
548.79	2828.94
549.14	2822.49
549.50	2816.28
549.86	2809.11
550.21	2800.74
550.57	2793.40
550.92	2783.69
551.28	2774.55
551.64	2765.90
551.99	2756.87
552.35	2747.15
552.70	2737.73
553.06	2728.65
553.41	2718.91
553.77	2708.88
554.13	2698.76
554.48	2687.77
554.84	2675.49
555.19	2663.71
555.55	2652.01
555.90	2640.45
556.26	2629.42
556.61	2617.26
556.97	2603.40
557.32	2590.03
557.68	2576.62
558.03	2563.02
558.39	2550.69
558.74	2538.66
559.10	2524.75
559.45	2511.03
559.81	2498.08
560.16	2484.50
560.52	2471.17
560.87	2458.21
561.23	2444.52
561.58	2430.98
561.94	2417.05
562.29	2402.51
562.64	2388.77
563.00	2374.69
563.35	2361.06
563.71	2347.24
564.06	2333.27
564.42	2320.17
564.77	2306.53
565.12	2292.80
565.48	2279.05
565.83	2265.30
566.19	2251.62
566.54	2237.87
566.89	2222.95
567.25	2208.31
567.60	2194.96
567.96	2180.71
568.31	2165.13
568.66	2150.29
569.02	2136.58
569.37	2122.87
569.72	2109.74
570.08	2095.27
570.43	2080.44
570.78	2065.39
571.14	2049.64
571.49	2034.68
571.84	2020.22
572.20	2004.45
572.55	1988.98
572.90	1973.39
573.26	1957.82
573.61	1941.77
573.96	1926.24
574.31	1911.03
574.67	1895.71
575.02	1879.42
575.37	1863.17
575.72	1847.84
576.08	1832.82
576.43	1816.76
576.78	1801.10
577.13	1785.73
577.49	1770.73
577.84	1756.41
578.19	1741.10
578.54	1726.04
578.90	1710.39
579.25	1694.65
579.60	1680.57
579.95	1666.32
580.30	1651.86
580.66	1637.18
581.01	1622.42
581.36	1607.66
581.71	1593.96
582.06	1580.12
582.42	1566.48
582.77	1552.93
583.12	1539.31
583.47	1525.58
583.82	1511.95
584.17	1498.03
584.53	1483.75
584.88	1469.85
585.23	1455.52
585.58	1442.06
585.93	1428.82
586.28	1416.28
586.63	1403.74
586.98	1390.70
587.34	1377.74
587.69	1364.59
588.04	1351.76
588.39	1339.31
588.74	1326.98
589.09	1314.39
589.44	1301.44
589.79	1289.21
590.14	1277.06
590.49	1264.82
590.84	1252.71
591.19	1241.00
591.54	1229.08
591.89	1217.31
592.25	1205.75
592.60	1193.81
592.95	1182.31
593.30	1170.99
593.65	1159.42
594.00	1147.97
594.35	1137.15
594.70	1125.91
595.05	1115.57
595.40	1105.10
595.75	1094.48
596.10	1084.39
596.45	1074.01
596.80	1063.96
597.15	1053.64
597.50	1043.50
597.85	1033.75
598.19	1023.85
598.54	1014.04
598.89	1004.67
599.24	995.65
599.59	986.41
599.94	978.12
600.29	969.63
600.64	960.87
600.99	951.73
601.34	942.98
601.69	933.88
602.04	925.48
602.39	916.88
602.74	908.32
603.08	899.74
603.43	891.15
603.78	882.72
604.13	874.48
604.48	866.20
604.83	858.14
605.18	849.99
605.53	842.04
605.87	833.89
606.22	826.05
606.57	818.12
606.92	810.16
607.27	802.09
607.62	794.36
607.96	787.03
608.31	780.14
608.66	773.02
609.01	766.21
609.36	759.50
609.70	752.56
610.05	745.63
610.40	738.95
610.75	732.28
611.10	725.96
611.44	719.46
611.79	713.09
612.14	706.64
612.49	700.29
612.83	694.22
613.18	688.30
613.53	682.28
613.88	676.30
614.22	670.71
614.57	665.08
614.92	659.27
615.27	653.58
615.61	647.94
615.96	642.38
616.31	636.79
616.65	631.27
617.00	625.98
617.35	620.76
617.70	615.62
618.04	610.53
618.39	605.38
618.74	600.46
619.08	595.57
619.43	590.81
619.78	586.07
620.12	581.26
620.47	576.63
620.82	572.11
621.16	567.61
621.51	563.03
621.85	558.48
622.20	554.13
622.55	549.80
622.89	545.54
623.24	541.28
623.59	537.07
623.93	533.02
624.28	529.04
624.62	525.18
624.97	521.35
625.32	517.49
625.66	513.58
626.01	509.66
626.35	505.81
626.70	502.00
627.04	498.35
627.39	494.66
627.73	491.13
628.08	487.69
628.43	484.24
628.77	480.86
629.12	477.60
629.46	474.35
629.81	471.03
630.15	467.72
630.50	464.51
630.84	461.36
631.19	458.26
631.53	455.27
631.88	452.24
632.22	449.23
632.57	446.50
632.91	443.79
633.26	441.17
633.60	438.56
633.95	436.02
634.29	433.39
634.64	430.84
634.98	428.09
635.32	425.49
635.67	423.09
636.01	420.61
636.36	418.19
636.70	415.90
637.05	413.60
637.39	411.34
637.73	409.09
638.08	406.95
638.42	404.79
638.77	402.50
639.11	400.17
639.45	397.92
639.80	395.62
640.14	393.43
640.49	391.22
640.83	389.00
641.17	386.88
641.52	384.79
641.86	382.73
642.20	380.88
642.55	378.88
642.89	376.89
643.23	375.00
643.58	373.27
643.92	371.42
644.26	369.62
644.61	367.88
644.95	366.11
645.29	364.27
645.64	362.46
645.98	360.74
646.32	359.14
646.66	357.53
647.01	355.93
647.35	354.38
647.69	352.82
648.04	351.38
648.38	349.87
648.72	348.39
649.06	346.92
649.41	345.45
649.75	344.03
650.09	342.64
650.43	341.25
650.78	339.81
651.12	338.42
651.46	337.09
651.80	335.77
652.14	334.47
652.49	333.24
652.83	331.98
653.17	330.76
653.51	329.57
653.85	328.43
654.20	327.26
654.54	326.02
654.88	324.86
655.22	323.74
655.56	322.61
655.90	321.54
656.25	320.51
656.59	319.44
656.93	318.45
657.27	317.48
657.61	316.45
657.95	315.47
658.29	314.48
658.64	313.55
658.98	312.61
659.32	311.71
659.66	310.85
660.00	310.02
660.34	309.18
660.68	308.31
661.02	307.42
661.36	306.57
661.70	305.77
662.05	304.97
662.39	304.18
662.73	303.47
663.07	302.76
663.41	302.01
663.75	301.27
664.09	300.54
664.43	299.77
664.77	299.07
665.11	298.34
665.45	297.67
665.79	297.00
666.13	296.30
666.47	295.59
666.81	294.88
667.15	294.15
667.49	293.51
667.83	292.93
668.17	292.31
668.51	291.74
668.85	291.19
669.19	290.68
669.53	290.07
669.87	289.46
670.21	288.87
670.55	288.32
670.89	287.84
671.23	287.32
671.57	286.82
671.91	286.36
672.25	285.92
672.58	285.49
672.92	284.97
673.26	284.54
673.60	284.12
673.94	283.70
674.28	283.32
674.62	282.90
674.96	282.44
675.30	282.04
675.64	281.61
675.97	281.16
676.31	280.68
676.65	280.27
676.99	279.91
677.33	279.48
677.67	279.09
678.01	278.62
678.34	278.23
678.68	277.86
679.02	277.43
679.36	277.02
679.70	276.61
680.04	276.25
680.37	275.87
680.71	275.50
681.05	275.16
681.39	274.78
681.73	274.38
682.06	273.99
682.40	273.63
682.74	273.31
683.08	273.04
683.42	272.71
683.75	272.41
684.09	272.03
684.43	271.72
684.77	271.39
685.10	271.11
685.44	270.80
685.78	270.49
686.12	270.20
686.45	269.89
686.79	269.57
687.13	269.28
687.46	268.96
687.80	268.67
688.14	268.32
688.48	268.03
688.81	267.74
689.15	267.48
689.49	267.17
689.82	266.86
690.16	266.49
690.50	266.21
690.83	265.91
691.17	265.61
691.51	265.32
691.84	265.05
692.18	264.74
692.52	264.43
692.85	264.14
693.19	263.89
693.52	263.61
693.86	263.33
694.20	263.04
694.53	262.78
694.87	262.48
695.21	262.20
695.54	261.92
695.88	261.64
696.21	261.33
696.55	261.07
696.88	260.79
697.22	260.53
697.56	260.26
697.89	259.96
698.23	259.70
698.56	259.41
698.90	259.15
699.23	258.86
699.57	258.59
699.90	258.31
700.24	258.02
700.58	257.78
700.91	257.57
701.25	257.43
701.58	257.23
701.92	257.02
702.25	256.79
702.59	256.53
702.92	256.30
703.26	256.05
703.59	255.79
703.93	255.64
704.26	255.42
704.60	255.17
704.93	254.93
705.26	254.67
705.60	254.48
705.93	254.21
706.27	254.01
706.60	253.83
706.94	253.64
707.27	253.38
707.61	253.14
707.94	252.87
708.27	252.51
708.61	252.22
708.94	251.96
709.28	251.74
709.61	251.50
709.94	251.30
710.28	251.10
710.61	250.91
710.95	250.59
711.28	250.45
711.61	250.24
711.95	250.07
712.28	249.85
712.61	249.61
712.95	249.49
713.28	249.34
713.61	249.10
713.95	248.86
714.28	248.68
714.61	248.47
714.95	248.27
715.28	248.08
715.61	247.90
715.95	247.73
716.28	247.54
716.61	247.39
716.95	247.19
717.28	247.00
717.61	246.81
717.94	246.63
718.28	246.36
718.61	246.18
718.94	245.97
719.27	245.80
719.61	245.64
719.94	245.42
720.27	245.17
720.60	244.99
720.94	244.83
721.27	244.66
721.60	244.51
721.93	244.34
722.27	244.21
722.60	244.06
722.93	243.87
723.26	243.71
723.59	243.51
723.93	243.36
724.26	243.20
724.59	243.03
724.92	242.89
725.25	242.78
725.59	242.63
725.92	242.50
726.25	242.36
726.58	242.21
726.91	242.05
727.24	241.93
727.57	241.78
727.91	241.62
728.24	241.50
728.57	241.35
728.90	241.23
729.23	241.04
729.56	240.96
729.89	240.82
730.22	240.67
730.55	240.54
730.89	240.40
731.22	240.26
731.55	240.13
731.88	239.99
732.21	239.84
732.54	239.70
732.87	239.57
733.20	239.45
733.53	239.33
733.86	239.22
734.19	239.07
734.52	238.97
734.85	238.94
735.18	238.79
735.51	238.71
735.84	238.59
736.17	238.52
736.50	238.34
736.83	238.38
737.16	238.27
737.49	238.17
737.82	238.06
738.15	237.97
738.48	237.87
738.81	237.75
739.14	237.64
739.47	237.52
739.80	237.41
740.13	237.31
740.46	237.19
740.79	237.07
741.12	236.97
741.45	236.84
741.78	236.67
742.11	236.60
742.44	236.47
742.77	236.38
743.10	236.26
743.43	236.16
743.75	235.93
744.08	236.03
744.41	235.92
744.74	235.82
745.07	235.70
745.40	235.63
745.73	235.59
746.06	235.51
746.39	235.44
746.71	235.35
747.04	235.24
747.37	235.16
747.70	235.10
748.03	235.02
748.36	234.96
748.68	234.88
749.01	234.76
749.34	234.68
749.67	234.60
750.00	234.53
750.33	234.55
750.65	234.48
750.98	234.21
751.31	234.14
751.64	234.07
751.97	234.07
752.29	233.98
752.62	233.84
752.95	233.76
753.28	233.67
753.60	233.59
753.93	233.55
754.26	233.48
754.59	233.37
754.91	233.28
755.24	233.20
755.57	233.18
755.90	233.11
756.22	233.03
756.55	232.93
756.88	232.84
757.20	232.68
757.53	232.57
757.86	232.50
758.19	232.44
758.51	232.37
758.84	232.24
759.17	232.16
759.49	232.10
759.82	232.10
760.15	232.05
760.47	231.99
760.80	231.89
761.13	231.85
761.45	231.79
761.78	231.74
762.11	231.68
762.43	231.56
762.76	231.51
763.08	231.47
763.41	231.42
763.74	231.38
764.06	231.33
764.39	231.28
764.71	231.23
765.04	231.17
765.37	231.11
765.69	231.06
766.02	231.01
766.34	230.95
766.67	230.86
767.00	230.83
767.32	230.86
767.65	230.89
767.97	230.83
768.30	230.80
768.62	230.75
768.95	230.69
769.27	230.64
769.60	230.62
769.92	230.55
770.25	230.49
770.57	230.43
770.90	230.38
771.22	230.33
771.55	230.29
771.87	230.26
772.20	230.22
772.52	230.29
772.85	230.40
773.17	230.37
773.50	230.33
773.82	230.27
774.15	230.17
774.47	230.05
774.80	230.01
775.12	229.96
775.45	229.93
775.77	229.90
776.09	229.88
776.42	229.85
776.74	229.86
777.07	229.83
777.39	229.81
777.72	229.77
778.04	229.76
778.36	229.72
778.69	229.70
779.01	229.68
779.33	229.54
779.66	229.36
779.98	229.33
780.31	229.31
780.63	229.33
780.95	229.33
781.28	229.31
781.60	229.27
781.92	229.25
782.25	229.23
782.57	229.20
782.89	229.17
783.22	229.14
783.54	229.08
783.86	229.07
784.19	229.04
784.51	229.05
784.83	229.01
785.16	228.99
785.48	228.97
785.80	228.94
786.12	228.93
786.45	228.91
786.77	228.90
787.09	228.87
787.42	228.81
787.74	228.79
788.06	228.77
788.38	228.75
788.71	228.73
789.03	228.71
789.35	228.71
789.67	228.67
789.99	228.66
790.32	228.63
790.64	228.62
790.96	228.72
791.28	228.66
791.61	228.64
791.93	228.63
792.25	228.60
792.57	228.67
792.89	228.63
793.21	228.62
793.54	228.59
793.86	228.56
794.18	228.55
794.50	228.51
794.82	228.49
795.14	228.49
795.47	228.50
795.79	228.48
796.11	228.43
796.43	228.42
796.75	228.40
797.07	228.39
797.39	228.37
797.71	228.25
798.04	228.24
798.36	228.23
798.68	228.22
799.00	228.21
799.32	228.13
799.64	228.14
799.96	228.12
800.28	228.13
800.60	228.12
800.92	228.11
801.24	228.09
801.56	228.09
801.89	228.06
802.21	228.05
802.53	228.02
802.85	228.04
803.17	228.08
803.49	228.04
803.81	228.02
804.13	228.00
804.45	227.97
804.77	227.97
805.09	227.96
805.41	227.93
805.73	227.90
806.05	227.85
806.37	227.83
806.69	227.80
807.01	227.78
807.33	227.78
807.65	227.72
807.97	227.77
808.28	227.74
808.60	227.73
808.92	227.70
809.24	227.77
809.56	227.73
809.88	227.68
810.20	227.67
810.52	227.69
810.84	227.66
811.16	227.64
811.48	227.62
811.80	227.65
812.12	227.64
812.43	227.66
812.75	227.66
813.07	227.64
813.39	227.63
813.71	227.61
814.03	227.59
814.35	227.59
814.67	227.53
814.98	227.51
815.30	227.50
815.62	227.48
815.94	227.38
816.26	227.39
816.58	227.36
816.89	227.36
817.21	227.33
817.53	227.33
817.85	227.33
818.17	227.32
818.48	227.26
818.80	227.28
819.12	227.25
819.44	227.22
819.76	227.20
820.07	227.19
820.39	227.18
820.71	227.19
821.03	227.18
821.34	227.17
821.66	227.18
821.98	227.19
822.30	227.18
822.61	227.25
822.93	227.22
823.25	227.21
823.57	227.19
823.88	227.20
824.20	227.19
824.52	227.21
824.83	227.20
825.15	227.18
825.47	227.16
825.79	227.17
826.10	227.16
826.42	227.15
826.74	227.15
827.05	227.14
827.37	227.14
827.69	227.12
828.00	227.12
828.32	227.11
828.64	227.09
828.95	227.15
829.27	227.11
829.58	227.10
829.90	227.12
830.22	227.13
830.53	227.10
830.85	227.08
831.17	227.05
831.48	227.04
831.80	227.05
832.11	227.03
832.43	227.01
832.75	227.00
833.06	227.08
833.38	227.04
833.69	227.03
834.01	227.03
834.32	227.02
834.64	227.01
834.96	227.01
835.27	227.00
835.59	226.95
835.90	226.93
836.22	226.92
836.53	226.89
836.85	226.87
837.16	227.00
837.48	226.99
837.79	227.03
838.11	227.03
838.42	227.03
838.74	227.04
839.05	227.03
839.37	227.03
839.68	226.94
840.00	226.94
840.31	226.95
840.63	226.94
840.94	226.92
841.26	226.91
841.57	226.90
841.88	226.91
842.20	226.89
842.51	226.87
842.83	226.87
843.14	226.98
843.46	226.97
843.77	226.90
844.08	226.89
844.40	226.85
844.71	226.83
845.03	226.81
845.34	226.80
845.65	226.79
845.97	226.79
846.28	226.80
846.60	226.80
846.91	226.78
847.22	226.77
847.54	226.80
847.85	226.81
848.16	226.79
848.48	226.77
848.79	226.81
849.10	226.83
849.42	226.83
849.73	226.71
850.04	226.71
850.36	226.66
850.67	226.68
850.98	226.68
851.30	226.70
851.61	226.69
851.92	226.69
852.23	226.73
852.55	226.74
852.86	226.74
853.17	226.74
853.49	226.77
853.80	226.79
854.11	226.79
854.42	226.81
854.74	226.80
855.05	226.80
855.36	226.73
855.67	226.73
855.99	226.73
856.30	226.88
856.61	226.87
856.92	226.88
857.23	226.88
857.55	226.87
857.86	226.86
858.17	226.88
858.48	226.85
858.79	226.82
859.11	226.83
859.42	226.82
859.73	226.80
860.04	226.79
860.35	226.75
860.66	226.71
860.98	226.71
861.29	226.72
861.60	226.72
861.91	226.75
862.22	226.73
862.53	226.71
862.84	226.56
863.16	226.58
863.47	226.56
863.78	226.54
864.09	226.55
864.40	226.56
864.71	226.55
865.02	226.57
865.33	226.56
865.64	226.54
865.95	226.53
866.27	226.61
866.58	226.59
866.89	226.61
867.20	226.61
867.51	226.59
867.82	226.58
868.13	226.61
868.44	226.59
868.75	226.61
869.06	226.62
869.37	226.63
869.68	226.60
869.99	226.62
870.30	226.63
870.61	226.64
870.92	226.62
871.23	226.60
871.54	226.62
871.85	226.65
872.16	226.66
872.47	226.65
872.78	226.58
873.09	226.59
873.40	226.58
873.71	226.59
874.02	226.60
874.33	226.58
874.64	226.55
874.95	226.58
875.26	226.54
875.56	226.54
875.87	226.53
876.18	226.53
876.49	226.65
876.80	226.64
877.11	226.61
877.42	226.62
877.73	226.62
878.04	226.60
878.35	226.60
878.66	226.60
878.96	226.59
879.27	226.59
879.58	226.58
879.89	226.58
880.20	226.61
880.51	226.60
880.82	226.61
881.12	226.61
881.43	226.59
881.74	226.57
882.05	226.56
882.36	226.57
882.67	226.58
882.97	226.44
883.28	226.43
883.59	226.43
883.90	226.44
884.21	226.46
884.51	226.45
884.82	226.43
885.13	226.43
885.44	226.43
885.74	226.43
886.05	226.42
886.36	226.42
886.67	226.37
886.98	226.43
887.28	226.44
887.59	226.44
887.90	226.45
888.20	226.45
888.51	226.47
888.82	226.44
889.13	226.45
889.43	226.56
889.74	226.55
890.05	226.55
890.35	226.54
890.66	226.51
890.97	226.50
891.28	226.49
891.58	226.49
891.89	226.49
892.20	226.47
892.50	226.46
892.81	226.45
893.12	226.45
893.42	226.39
893.73	226.39
894.04	226.38
894.34	226.39
894.65	226.38
894.95	226.37
895.26	226.38
895.57	226.43
895.87	226.30
896.18	226.33
896.48	226.33
896.79	226.33
897.10	226.35
897.40	226.36
897.71	226.37
898.01	226.36
898.32	226.37
898.63	226.37
898.93	226.38
899.24	226.38
899.54	226.37
899.85	226.37
900.15	226.36
900.46	226.36
900.76	226.37
901.07	226.37
901.38	226.36
901.68	226.38
901.99	226.31
902.29	226.32
902.60	226.31
902.90	226.29
903.21	226.29
903.51	226.28
903.82	226.31
904.12	226.31
904.43	226.32
904.73	226.31
905.03	226.32
905.34	226.43
905.64	226.43
905.95	226.43
906.25	226.42
906.56	226.42
906.86	226.42
907.17	226.41
907.47	226.42
907.77	226.41
908.08	226.38
908.38	226.39
908.69	226.39
908.99	226.41
909.30	226.42
909.60	226.42
909.90	226.42
910.21	226.38
910.51	226.36
910.81	226.36
911.12	226.36
911.42	226.37
911.73	226.23
912.03	226.24
912.33	226.27
912.64	226.26
912.94	226.25
913.24	226.23
913.55	226.22
913.85	226.21
914.15	226.24
914.46	226.25
914.76	226.24
915.06	226.23
915.37	226.21
915.67	226.20
915.97	226.20
916.27	226.18
916.58	226.19
916.88	226.19
917.18	226.18
917.49	226.26
917.79	226.25
918.09	226.27
918.39	226.30
918.70	226.29
919.00	226.30
919.30	226.36
919.60	226.36
919.91	226.35
920.21	226.35
920.51	226.32
920.81	226.32
921.12	226.34
921.42	226.33
921.72	226.34
922.02	226.35
922.32	226.36
922.63	226.37
922.93	226.44
923.23	226.45
923.53	226.44
923.83	226.35
924.13	226.36
924.44	226.36
924.74	226.37
925.04	226.40
925.34	226.40
925.64	226.34
925.94	226.34
926.24	226.41
926.55	226.40
926.85	226.42
927.15	226.42
927.45	226.41
927.75	226.41
928.05	226.41
928.35	226.40
928.65	226.42
928.95	226.43
929.26	226.36
929.56	226.39
929.86	226.40
930.16	226.39
930.46	226.38
930.76	226.38
931.06	226.32
931.36	226.29
931.66	226.31
931.96	226.32
932.26	226.33
932.56	226.28
932.86	226.29
933.16	226.29
933.46	226.27
933.76	226.25
934.06	226.28
934.36	226.32
934.66	226.32
934.96	226.30
935.26	226.30
935.56	226.32
935.86	226.28
936.16	226.27
936.46	226.26
936.76	226.25
937.06	226.23
937.36	226.24
937.66	226.25
937.96	226.24
938.26	226.21
938.56	226.20
938.86	226.21
939.16	226.23
939.46	226.24
939.76	226.25
940.06	226.25
940.35	226.23
940.65	226.17
940.95	226.18
941.25	226.15
941.55	226.13
941.85	226.12
942.15	226.15
942.45	226.18
942.75	226.18
943.04	226.18
943.34	226.21
943.64	226.19
943.94	226.18
944.24	226.18
944.54	226.19
944.84	226.18
945.13	226.16
945.43	226.14
945.73	226.13
946.03	226.12
946.33	226.11
946.62	226.10
946.92	226.10
947.22	226.10
947.52	226.11
947.82	226.13
948.11	226.11
948.41	226.08
948.71	226.05
949.01	226.06
949.31	226.05
949.60	226.03
949.90	226.06
950.20	226.05
950.50	226.05
950.79	226.04
951.09	226.06
951.39	226.06
951.69	226.04
951.98	226.06
952.28	226.07
952.58	226.07
952.87	226.08
953.17	226.09
953.47	226.08
953.76	226.07
954.06	226.05
954.36	226.04
954.66	226.04
954.95	226.07
955.25	226.08
955.55	226.09
955.84	226.08
956.14	226.08
956.44	226.09
956.73	226.07
957.03	226.08
957.32	226.08
957.62	226.08
957.92	226.11
958.21	226.09
958.51	226.23
958.81	226.25
959.10	226.26
959.40	226.29
959.69	226.30
959.99	226.32
960.29	226.32
960.58	226.32
960.88	226.37
961.17	226.35
961.47	226.36
961.76	226.35
962.06	226.37
962.36	226.35
962.65	226.36
962.95	226.37
963.24	226.35
963.54	226.36
963.83	226.37
964.13	226.36
964.42	226.34
964.72	226.24
965.01	226.24
965.31	226.22
965.60	226.19
965.90	226.27
966.19	226.24
966.49	226.25
966.78	226.25
967.08	226.23
967.37	226.23
967.67	226.21
967.96	226.23
968.26	226.23
968.55	226.24
968.85	226.24
969.14	226.24
969.43	226.24
969.73	226.23
970.02	226.22
970.32	226.21
970.61	226.20
970.91	226.16
971.20	226.14
971.49	226.13
971.79	226.15
972.08	226.06
972.38	226.07
972.67	226.06
972.96	226.08
973.26	226.06
973.55	226.09
973.85	226.09
974.14	226.07
974.43	226.08
974.73	226.05
975.02	226.04
975.31	226.04
975.61	226.04
975.90	226.04
976.19	226.02
976.49	226.03
976.78	226.05
977.07	226.05
977.37	226.06
977.66	226.07
977.95	226.05
978.24	226.06
978.54	226.09
978.83	226.08
979.12	226.07
979.42	226.07
979.71	226.05
980.00	226.05
980.29	226.05
980.59	226.03
980.88	226.06
981.17	226.06
981.46	226.06
981.76	226.06
982.05	226.10
982.34	226.11
982.63	226.11
982.93	226.11
983.22	226.14
983.51	226.14
983.80	226.16
984.09	226.18
984.39	226.17
984.68	226.15
984.97	226.15
985.26	226.14
985.55	226.15
985.85	226.13
986.14	226.15
986.43	226.16
986.72	226.16
987.01	226.12
987.30	226.12
987.59	226.11
987.89	226.12
988.18	226.08
988.47	226.07
988.76	226.05
989.05	226.04
989.34	226.02
989.63	226.05
989.92	226.03
990.22	226.01
990.51	226.01
990.80	226.00
991.09	226.01
991.38	226.03
991.67	226.02
991.96	226.01
992.25	226.01
992.54	225.99
992.83	225.99
993.12	225.98
993.41	226.00
993.70	226.06
993.99	226.08
994.28	226.10
994.58	226.11
994.87	226.10
995.16	226.10
995.45	226.09
995.74	226.05
996.03	226.07
996.32	226.09
996.61	226.11
996.90	226.11
997.19	226.10
997.48	226.10
997.77	226.09
998.06	226.10
998.34	226.08
998.63	226.08
998.92	226.09
999.21	226.11
999.50	226.11
999.79	226.06
1000.08	226.06
1000.37	226.06
1000.66	226.04
1000.95	226.08
1001.24	226.09
1001.53	226.10
1001.82	226.10
1002.11	226.07
1002.40	226.08
1002.68	226.11
1002.97	226.19
1003.26	226.18
1003.55	226.16
1003.84	226.17
1004.13	226.21
1004.42	226.21
1004.71	226.21
1004.99	226.20
1005.28	226.22
1005.57	226.22
1005.86	226.20
1006.15	226.19
1006.44	226.17
1006.72	226.19
1007.01	226.17
1007.30	226.17
1007.59	226.15
1007.88	226.15
1008.17	226.16
1008.45	226.13
1008.74	226.08
1009.03	226.02
1009.32	226.03
1009.60	226.03
1009.89	226.01
1010.18	225.96
1010.47	225.96
1010.76	225.96
1011.04	225.96
1011.33	225.95
1011.62	225.96
1011.91	225.97
1012.19	225.97
1012.48	225.98
1012.77	225.98
1013.05	226.02
1013.34	226.02
1013.63	226.01
1013.92	226.02
1014.20	226.01
1014.49	226.02
1014.78	226.03
1015.06	225.99
1015.35	225.99
1015.64	226.01
1015.92	226.03
1016.21	226.05
1016.50	226.05
1016.78	226.06
1017.07	226.07
1017.36	226.05
1017.64	226.03
1017.93	226.04
1018.22	226.02
1018.50	226.02
1018.79	226.02
1019.08	225.97
1019.36	225.98
1019.65	225.97
1019.93	226.00
1020.22	226.02
1020.51	226.08
1020.79	226.07
1021.08	225.84
1021.36	225.80
1021.65	226.03
1021.94	225.95
1022.22	226.08
1022.51	225.76
1022.79	226.59
1023.08	226.18
1023.36	227.49
1023.65	225.72
>>>>>End Processed Spectral Data<<<<<
