SpectraSuite Data File
++++++++++++++++++++++++++++++++++++
Date: Fri Oct 02 16:46:49 EDT 2015
User: lab3
Dark Spectrum Present: No
Reference Spectrum Present: No
Number of Sampled Component Spectra: 1
Spectrometers: USB2E7196
Integration Time (usec): 46000 (USB2E7196)
Spectra Averaged: 1200 (USB2E7196)
Boxcar Smoothing: 10 (USB2E7196)
Correct for Electrical Dark: No (USB2E7196)
Strobe/Lamp Enabled: No (USB2E7196)
Correct for Detector Non-linearity: No (USB2E7196)
Correct for Stray Light: No (USB2E7196)
Number of Pixels in Processed Spectrum: 2048
>>>>>Begin Processed Spectral Data<<<<<
339.09	0.00
339.48	214.51
339.86	216.00
340.24	217.36
340.63	218.83
341.01	221.98
341.39	221.35
341.78	222.94
342.16	223.97
342.54	224.34
342.93	212.88
343.31	223.63
343.69	224.17
344.07	224.63
344.46	225.05
344.84	225.44
345.22	225.65
345.60	225.91
345.99	226.10
346.37	226.23
346.75	226.34
347.13	226.41
347.52	226.47
347.90	226.56
348.28	226.59
348.66	226.65
349.05	226.64
349.43	226.69
349.81	226.76
350.19	226.81
350.57	226.88
350.96	226.96
351.34	227.04
351.72	227.13
352.10	227.23
352.48	227.30
352.87	227.35
353.25	227.41
353.63	227.46
354.01	227.52
354.39	227.60
354.77	227.67
355.15	227.78
355.54	227.83
355.92	227.85
356.30	227.93
356.68	228.07
357.06	228.14
357.44	228.18
357.82	228.23
358.20	228.35
358.58	228.40
358.97	228.46
359.35	228.54
359.73	228.62
360.11	228.67
360.49	228.73
360.87	228.78
361.25	228.84
361.63	228.92
362.01	228.98
362.39	229.00
362.77	229.05
363.15	229.08
363.53	229.11
363.91	229.14
364.29	229.16
364.67	229.06
365.05	229.08
365.43	229.13
365.81	229.16
366.19	229.18
366.57	229.24
366.95	229.24
367.33	229.21
367.71	229.20
368.09	229.23
368.47	229.21
368.85	229.20
369.23	229.21
369.61	229.15
369.99	229.17
370.37	229.16
370.75	229.24
371.13	229.21
371.51	229.17
371.89	229.15
372.27	229.13
372.65	229.12
373.03	229.07
373.41	229.03
373.78	228.98
374.16	228.88
374.54	228.80
374.92	228.74
375.30	228.71
375.68	228.64
376.06	228.60
376.44	228.55
376.82	228.52
377.19	228.48
377.57	228.43
377.95	228.34
378.33	228.28
378.71	228.11
379.09	228.07
379.47	228.03
379.84	227.97
380.22	227.91
380.60	227.83
380.98	227.79
381.36	227.74
381.73	227.67
382.11	227.65
382.49	227.61
382.87	227.55
383.25	227.50
383.62	227.62
384.00	227.54
384.38	227.51
384.76	227.49
385.13	227.49
385.51	227.45
385.89	227.40
386.27	227.37
386.64	227.37
387.02	227.32
387.40	227.28
387.78	227.26
388.15	227.23
388.53	227.20
388.91	227.17
389.29	227.13
389.66	227.13
390.04	227.09
390.42	227.08
390.79	227.08
391.17	227.06
391.55	226.90
391.92	226.89
392.30	226.89
392.68	226.84
393.05	226.82
393.43	226.82
393.81	226.82
394.18	226.81
394.56	226.79
394.94	226.82
395.31	226.81
395.69	226.86
396.06	226.89
396.44	226.92
396.82	226.92
397.19	227.02
397.57	227.03
397.95	227.07
398.32	227.07
398.70	227.11
399.07	227.18
399.45	227.22
399.82	227.27
400.20	227.30
400.58	227.37
400.95	227.39
401.33	227.48
401.70	227.63
402.08	227.73
402.45	227.82
402.83	227.94
403.20	228.05
403.58	228.14
403.95	228.28
404.33	228.42
404.71	228.58
405.08	228.78
405.46	228.93
405.83	229.12
406.21	229.31
406.58	229.53
406.96	229.74
407.33	229.99
407.70	230.26
408.08	230.64
408.45	230.96
408.83	231.32
409.20	231.65
409.58	231.93
409.95	232.34
410.33	232.78
410.70	233.20
411.08	233.69
411.45	234.21
411.82	234.74
412.20	235.35
412.57	236.06
412.95	236.63
413.32	237.38
413.69	238.13
414.07	238.93
414.44	239.81
414.82	240.70
415.19	241.74
415.56	242.81
415.94	243.90
416.31	245.14
416.68	246.37
417.06	247.79
417.43	249.14
417.81	250.68
418.18	252.24
418.55	253.92
418.93	255.71
419.30	257.56
419.67	259.52
420.04	261.53
420.42	263.64
420.79	266.08
421.16	268.54
421.54	271.03
421.91	273.66
422.28	276.36
422.66	279.28
423.03	282.06
423.40	284.97
423.77	288.11
424.15	291.32
424.52	294.67
424.89	298.29
425.26	301.88
425.64	305.23
426.01	308.98
426.38	312.84
426.75	316.81
427.13	320.89
427.50	325.16
427.87	329.60
428.24	334.07
428.61	338.37
428.99	343.04
429.36	348.16
429.73	353.04
430.10	357.94
430.47	362.95
430.85	368.13
431.22	373.67
431.59	379.37
431.96	384.92
432.33	391.12
432.70	397.02
433.08	403.98
433.45	410.55
433.82	417.04
434.19	424.29
434.56	431.43
434.93	438.33
435.30	445.18
435.68	452.90
436.05	460.46
436.42	468.00
436.79	474.89
437.16	482.31
437.53	490.23
437.90	498.17
438.27	505.96
438.64	514.35
439.01	521.97
439.38	528.93
439.75	535.64
440.13	543.16
440.50	550.33
440.87	556.00
441.24	562.22
441.61	569.00
441.98	573.91
442.35	579.75
442.72	585.68
443.09	591.33
443.46	594.87
443.83	597.45
444.20	599.56
444.57	602.73
444.94	604.49
445.31	606.31
445.68	607.80
446.05	608.81
446.42	608.27
446.79	607.51
447.16	606.80
447.53	606.13
447.90	603.50
448.27	600.97
448.64	597.29
449.01	594.65
449.37	589.60
449.74	585.00
450.11	579.16
450.48	572.80
450.85	566.42
451.22	560.94
451.59	555.62
451.96	550.79
452.33	543.87
452.70	537.71
453.07	530.26
453.43	522.85
453.80	515.67
454.17	508.76
454.54	502.45
454.91	495.32
455.28	488.67
455.65	482.41
456.02	475.80
456.38	470.48
456.75	463.63
457.12	458.14
457.49	452.62
457.86	447.40
458.23	442.84
458.59	437.81
458.96	432.66
459.33	428.14
459.70	423.53
460.07	420.03
460.43	415.93
460.80	412.09
461.17	408.77
461.54	405.15
461.91	401.80
462.27	398.37
462.64	395.63
463.01	392.44
463.38	389.22
463.74	386.33
464.11	383.78
464.48	381.52
464.85	379.03
465.21	377.17
465.58	375.08
465.95	372.68
466.32	370.76
466.68	368.87
467.05	366.98
467.42	365.14
467.78	363.14
468.15	361.29
468.52	359.96
468.88	358.16
469.25	356.52
469.62	355.23
469.98	353.81
470.35	352.53
470.72	351.38
471.08	350.22
471.45	349.24
471.82	348.15
472.18	346.98
472.55	346.24
472.92	345.30
473.28	344.57
473.65	343.76
474.02	343.02
474.38	342.40
474.75	342.05
475.11	341.53
475.48	341.31
475.85	341.07
476.21	340.94
476.58	340.86
476.94	341.01
477.31	341.07
477.67	341.17
478.04	341.39
478.41	341.69
478.77	342.14
479.14	342.41
479.50	342.94
479.87	343.61
480.23	344.29
480.60	344.95
480.96	345.62
481.33	346.62
481.69	347.62
482.06	348.59
482.42	349.49
482.79	350.62
483.15	351.92
483.52	353.39
483.88	354.80
484.25	356.32
484.61	357.91
484.98	359.62
485.34	361.55
485.71	363.57
486.07	365.72
486.44	367.85
486.80	370.24
487.17	372.71
487.53	375.43
487.90	378.27
488.26	381.37
488.62	384.63
488.99	387.91
489.35	391.34
489.72	395.07
490.08	398.99
490.44	403.04
490.81	407.23
491.17	411.56
491.54	416.18
491.90	420.96
492.26	426.06
492.63	431.41
492.99	436.98
493.36	442.76
493.72	448.85
494.08	455.08
494.45	461.71
494.81	468.60
495.17	475.62
495.54	483.06
495.90	490.79
496.26	498.72
496.63	506.87
496.99	515.35
497.35	524.21
497.72	533.36
498.08	542.71
498.44	552.40
498.80	562.65
499.17	573.17
499.53	584.01
499.89	595.21
500.26	606.62
500.62	618.31
500.98	630.61
501.34	643.08
501.71	656.09
502.07	669.27
502.43	682.98
502.79	696.96
503.16	711.36
503.52	725.97
503.88	740.96
504.24	756.42
504.60	772.09
504.97	788.24
505.33	804.76
505.69	822.18
506.05	839.91
506.41	857.58
506.78	875.42
507.14	893.73
507.50	912.51
507.86	931.61
508.22	950.96
508.59	970.15
508.95	990.14
509.31	1010.79
509.67	1032.12
510.03	1053.44
510.39	1074.79
510.75	1096.33
511.12	1118.09
511.48	1140.03
511.84	1161.99
512.20	1184.29
512.56	1207.44
512.92	1230.61
513.28	1253.43
513.64	1276.40
514.00	1299.76
514.37	1323.47
514.73	1347.16
515.09	1370.69
515.45	1394.55
515.81	1418.56
516.17	1442.62
516.53	1466.21
516.89	1489.61
517.25	1513.19
517.61	1536.68
517.97	1560.57
518.33	1583.93
518.69	1607.19
519.05	1630.95
519.41	1654.87
519.77	1679.05
520.13	1702.43
520.49	1725.80
520.85	1749.38
521.21	1772.58
521.57	1796.16
521.93	1819.18
522.29	1842.68
522.65	1865.58
523.01	1888.41
523.37	1910.79
523.73	1933.95
524.09	1956.75
524.45	1979.38
524.81	2001.56
525.17	2023.49
525.53	2044.89
525.89	2066.75
526.25	2088.54
526.61	2109.27
526.97	2130.13
527.33	2150.81
527.68	2171.27
528.04	2190.92
528.40	2209.63
528.76	2228.53
529.12	2246.94
529.48	2265.01
529.84	2281.30
530.20	2298.23
530.56	2314.55
530.91	2330.97
531.27	2347.01
531.63	2362.25
531.99	2377.04
532.35	2391.20
532.71	2405.51
533.07	2420.33
533.42	2433.33
533.78	2447.29
534.14	2461.50
534.50	2474.80
534.86	2487.91
535.21	2499.09
535.57	2510.73
535.93	2522.19
536.29	2532.53
536.65	2542.69
537.00	2552.17
537.36	2562.57
537.72	2571.60
538.08	2580.02
538.44	2587.87
538.79	2595.31
539.15	2601.96
539.51	2608.20
539.87	2613.83
540.22	2617.59
540.58	2621.45
540.94	2626.46
541.29	2629.98
541.65	2631.86
542.01	2632.97
542.37	2633.40
542.72	2635.16
543.08	2635.32
543.44	2636.04
543.79	2635.74
544.15	2634.68
544.51	2633.92
544.87	2632.10
545.22	2629.58
545.58	2626.51
545.94	2623.35
546.29	2618.97
546.65	2614.66
547.01	2610.24
547.36	2606.51
547.72	2602.90
548.07	2597.62
548.43	2590.95
548.79	2583.45
549.14	2577.09
549.50	2571.07
549.86	2564.18
550.21	2556.26
550.57	2549.14
550.92	2539.87
551.28	2531.13
551.64	2522.66
551.99	2513.90
552.35	2504.55
552.70	2495.43
553.06	2486.67
553.41	2477.36
553.77	2467.84
554.13	2458.22
554.48	2447.90
554.84	2436.38
555.19	2425.29
555.55	2414.33
555.90	2403.52
556.26	2393.10
556.61	2381.65
556.97	2368.71
557.32	2356.26
557.68	2343.79
558.03	2331.14
558.39	2319.62
558.74	2308.38
559.10	2295.64
559.45	2282.95
559.81	2270.86
560.16	2258.28
560.52	2245.89
560.87	2233.84
561.23	2221.01
561.58	2208.32
561.94	2195.36
562.29	2181.89
562.64	2169.13
563.00	2156.04
563.35	2143.32
563.71	2130.43
564.06	2117.51
564.42	2105.29
564.77	2092.52
565.12	2079.60
565.48	2066.67
565.83	2053.77
566.19	2041.01
566.54	2028.16
566.89	2014.41
567.25	2000.80
567.60	1988.40
567.96	1975.20
568.31	1960.73
568.66	1946.95
569.02	1934.27
569.37	1921.53
569.72	1909.32
570.08	1895.91
570.43	1882.20
570.78	1868.33
571.14	1853.92
571.49	1840.09
571.84	1826.78
572.20	1812.40
572.55	1798.23
572.90	1784.02
573.26	1769.80
573.61	1755.16
573.96	1740.98
574.31	1726.92
574.67	1713.00
575.02	1698.09
575.37	1683.26
575.72	1669.33
576.08	1655.71
576.43	1641.03
576.78	1626.75
577.13	1612.72
577.49	1599.06
577.84	1586.00
578.19	1572.08
578.54	1558.30
578.90	1544.06
579.25	1529.77
579.60	1516.93
579.95	1504.07
580.30	1491.01
580.66	1477.74
581.01	1464.41
581.36	1451.01
581.71	1438.60
582.06	1426.07
582.42	1413.83
582.77	1401.66
583.12	1389.42
583.47	1377.05
583.82	1364.85
584.17	1352.31
584.53	1339.52
584.88	1327.06
585.23	1314.21
585.58	1302.15
585.93	1290.28
586.28	1279.10
586.63	1267.87
586.98	1256.24
587.34	1244.66
587.69	1232.85
588.04	1221.37
588.39	1210.24
588.74	1199.32
589.09	1188.17
589.44	1176.63
589.79	1165.64
590.14	1154.79
590.49	1143.87
590.84	1133.09
591.19	1122.62
591.54	1112.03
591.89	1101.59
592.25	1091.36
592.60	1080.84
592.95	1070.65
593.30	1060.66
593.65	1050.42
594.00	1040.29
594.35	1030.71
594.70	1020.69
595.05	1011.46
595.40	1002.16
595.75	992.75
596.10	983.80
596.45	974.65
596.80	965.80
597.15	956.74
597.50	947.82
597.85	939.28
598.19	930.61
598.54	921.99
598.89	913.77
599.24	905.81
599.59	897.64
599.94	890.32
600.29	882.84
600.64	875.16
600.99	867.16
601.34	859.45
601.69	851.41
602.04	844.06
602.39	836.57
602.74	829.13
603.08	821.64
603.43	814.12
603.78	806.78
604.13	799.58
604.48	792.38
604.83	785.34
605.18	778.20
605.53	771.21
605.87	764.10
606.22	757.24
606.57	750.33
606.92	743.37
607.27	736.34
607.62	729.60
607.96	723.19
608.31	717.19
608.66	711.06
609.01	705.19
609.36	699.38
609.70	693.39
610.05	687.37
610.40	681.58
610.75	675.79
611.10	670.31
611.44	664.66
611.79	659.12
612.14	653.54
612.49	648.04
612.83	642.81
613.18	637.70
613.53	632.52
613.88	627.38
614.22	622.58
614.57	617.72
614.92	612.69
615.27	607.80
615.61	602.95
615.96	598.18
616.31	593.37
616.65	588.64
617.00	584.10
617.35	579.66
617.70	575.26
618.04	570.93
618.39	566.51
618.74	562.35
619.08	558.21
619.43	554.18
619.78	550.15
620.12	546.11
620.47	542.20
620.82	538.38
621.16	534.60
621.51	530.74
621.85	526.92
622.20	523.27
622.55	519.62
622.89	516.03
623.24	512.45
623.59	508.91
623.93	505.50
624.28	502.18
624.62	498.94
624.97	495.75
625.32	492.51
625.66	489.23
626.01	485.92
626.35	482.67
626.70	479.46
627.04	476.46
627.39	473.33
627.73	470.38
628.08	467.51
628.43	464.62
628.77	461.80
629.12	459.07
629.46	456.39
629.81	453.62
630.15	450.84
630.50	448.17
630.84	445.54
631.19	442.97
631.53	440.47
631.88	437.95
632.22	435.45
632.57	433.22
632.91	431.02
633.26	428.89
633.60	426.78
633.95	424.70
634.29	422.53
634.64	420.46
634.98	418.21
635.32	416.10
635.67	414.16
636.01	412.15
636.36	410.18
636.70	408.32
637.05	406.49
637.39	404.68
637.73	402.88
638.08	401.21
638.42	399.49
638.77	397.66
639.11	395.77
639.45	393.94
639.80	392.05
640.14	390.26
640.49	388.47
640.83	386.66
641.17	384.92
641.52	383.25
641.86	381.57
642.20	380.09
642.55	378.45
642.89	376.84
643.23	375.30
643.58	373.91
643.92	372.41
644.26	370.95
644.61	369.53
644.95	368.07
645.29	366.53
645.64	365.03
645.98	363.62
646.32	362.31
646.66	360.98
647.01	359.66
647.35	358.41
647.69	357.11
648.04	355.95
648.38	354.70
648.72	353.46
649.06	352.23
649.41	351.00
649.75	349.83
650.09	348.67
650.43	347.52
650.78	346.31
651.12	345.14
651.46	344.01
651.80	342.91
652.14	341.83
652.49	340.80
652.83	339.73
653.17	338.69
653.51	337.69
653.85	336.77
654.20	335.78
654.54	334.72
654.88	333.73
655.22	332.76
655.56	331.77
655.90	330.86
656.25	329.96
656.59	329.05
656.93	328.20
657.27	327.36
657.61	326.45
657.95	325.58
658.29	324.70
658.64	323.87
658.98	323.02
659.32	322.21
659.66	321.44
660.00	320.70
660.34	319.95
660.68	319.16
661.02	318.32
661.36	317.53
661.70	316.78
662.05	316.05
662.39	315.31
662.73	314.68
663.07	314.02
663.41	313.32
663.75	312.62
664.09	311.90
664.43	311.15
664.77	310.50
665.11	309.79
665.45	309.16
665.79	308.53
666.13	307.85
666.47	307.16
666.81	306.45
667.15	305.71
667.49	305.07
667.83	304.49
668.17	303.89
668.51	303.31
668.85	302.77
669.19	302.26
669.53	301.65
669.87	301.01
670.21	300.40
670.55	299.84
670.89	299.34
671.23	298.80
671.57	298.27
671.91	297.78
672.25	297.32
672.58	296.85
672.92	296.30
673.26	295.83
673.60	295.37
673.94	294.92
674.28	294.51
674.62	294.05
674.96	293.53
675.30	293.07
675.64	292.57
675.97	292.05
676.31	291.51
676.65	291.03
676.99	290.62
677.33	290.12
677.67	289.66
678.01	289.13
678.34	288.69
678.68	288.27
679.02	287.77
679.36	287.29
679.70	286.81
680.04	286.37
680.37	285.92
680.71	285.48
681.05	285.06
681.39	284.60
681.73	284.12
682.06	283.66
682.40	283.23
682.74	282.84
683.08	282.50
683.42	282.09
683.75	281.72
684.09	281.25
684.43	280.85
684.77	280.44
685.10	280.07
685.44	279.68
685.78	279.28
686.12	278.92
686.45	278.52
686.79	278.12
687.13	277.75
687.46	277.33
687.80	276.94
688.14	276.51
688.48	276.13
688.81	275.74
689.15	275.40
689.49	275.00
689.82	274.60
690.16	274.16
690.50	273.78
690.83	273.40
691.17	273.01
691.51	272.64
691.84	272.28
692.18	271.89
692.52	271.49
692.85	271.10
693.19	270.76
693.52	270.39
693.86	270.01
694.20	269.65
694.53	269.30
694.87	268.93
695.21	268.57
695.54	268.21
695.88	267.84
696.21	267.45
696.55	267.10
696.88	266.74
697.22	266.39
697.56	266.03
697.89	265.63
698.23	265.28
698.56	264.91
698.90	264.58
699.23	264.20
699.57	263.85
699.90	263.48
700.24	263.10
700.58	262.78
700.91	262.50
701.25	262.28
701.58	262.00
701.92	261.71
702.25	261.40
702.59	261.07
702.92	260.75
703.26	260.44
703.59	260.10
703.93	259.87
704.26	259.57
704.60	259.24
704.93	258.94
705.26	258.62
705.60	258.35
705.93	258.03
706.27	257.77
706.60	257.52
706.94	257.28
707.27	256.96
707.61	256.64
707.94	256.32
708.27	255.90
708.61	255.56
708.94	255.25
709.28	254.96
709.61	254.67
709.94	254.41
710.28	254.15
710.61	253.93
710.95	253.58
711.28	253.39
711.61	253.14
711.95	252.91
712.28	252.66
712.61	252.39
712.95	252.21
713.28	252.03
713.61	251.74
713.95	251.45
714.28	251.24
714.61	250.99
714.95	250.76
715.28	250.52
715.61	250.30
715.95	250.09
716.28	249.86
716.61	249.68
716.95	249.44
717.28	249.22
717.61	248.98
717.94	248.77
718.28	248.46
718.61	248.24
718.94	248.00
719.27	247.79
719.61	247.58
719.94	247.34
720.27	247.05
720.60	246.85
720.94	246.66
721.27	246.45
721.60	246.28
721.93	246.08
722.27	245.93
722.60	245.75
722.93	245.55
723.26	245.37
723.59	245.15
723.93	244.98
724.26	244.79
724.59	244.60
724.92	244.43
725.25	244.31
725.59	244.14
725.92	244.00
726.25	243.84
726.58	243.67
726.91	243.49
727.24	243.35
727.57	243.19
727.91	243.02
728.24	242.87
728.57	242.69
728.90	242.54
729.23	242.34
729.56	242.23
729.89	242.07
730.22	241.90
730.55	241.75
730.89	241.59
731.22	241.44
731.55	241.30
731.88	241.15
732.21	240.96
732.54	240.81
732.87	240.66
733.20	240.53
733.53	240.40
733.86	240.27
734.19	240.12
734.52	240.01
734.85	239.96
735.18	239.81
735.51	239.72
735.84	239.60
736.17	239.50
736.50	239.32
736.83	239.34
737.16	239.24
737.49	239.12
737.82	239.00
738.15	238.90
738.48	238.78
738.81	238.65
739.14	238.53
739.47	238.42
739.80	238.29
740.13	238.18
740.46	238.03
740.79	237.91
741.12	237.78
741.45	237.63
741.78	237.46
742.11	237.36
742.44	237.22
742.77	237.12
743.10	236.98
743.43	236.86
743.75	236.62
744.08	236.70
744.41	236.57
744.74	236.46
745.07	236.32
745.40	236.26
745.73	236.21
746.06	236.12
746.39	236.04
746.71	235.95
747.04	235.84
747.37	235.76
747.70	235.69
748.03	235.61
748.36	235.55
748.68	235.44
749.01	235.32
749.34	235.24
749.67	235.16
750.00	235.09
750.33	235.10
750.65	235.03
750.98	234.76
751.31	234.68
751.64	234.60
751.97	234.60
752.29	234.49
752.62	234.35
752.95	234.25
753.28	234.15
753.60	234.05
753.93	234.00
754.26	233.92
754.59	233.80
754.91	233.71
755.24	233.63
755.57	233.61
755.90	233.51
756.22	233.42
756.55	233.32
756.88	233.22
757.20	233.05
757.53	232.95
757.86	232.88
758.19	232.82
758.51	232.76
758.84	232.62
759.17	232.53
759.49	232.47
759.82	232.47
760.15	232.42
760.47	232.36
760.80	232.27
761.13	232.22
761.45	232.16
761.78	232.10
762.11	232.03
762.43	231.92
762.76	231.87
763.08	231.83
763.41	231.77
763.74	231.72
764.06	231.67
764.39	231.61
764.71	231.56
765.04	231.49
765.37	231.42
765.69	231.37
766.02	231.32
766.34	231.27
766.67	231.17
767.00	231.14
767.32	231.14
767.65	231.16
767.97	231.09
768.30	231.05
768.62	231.00
768.95	230.93
769.27	230.87
769.60	230.84
769.92	230.77
770.25	230.71
770.57	230.65
770.90	230.59
771.22	230.55
771.55	230.50
771.87	230.46
772.20	230.42
772.52	230.49
772.85	230.60
773.17	230.56
773.50	230.51
773.82	230.45
774.15	230.35
774.47	230.23
774.80	230.19
775.12	230.16
775.45	230.12
775.77	230.10
776.09	230.06
776.42	230.03
776.74	230.04
777.07	229.99
777.39	229.97
777.72	229.93
778.04	229.91
778.36	229.88
778.69	229.85
779.01	229.83
779.33	229.68
779.66	229.51
779.98	229.47
780.31	229.45
780.63	229.48
780.95	229.48
781.28	229.44
781.60	229.41
781.92	229.37
782.25	229.35
782.57	229.32
782.89	229.29
783.22	229.25
783.54	229.21
783.86	229.19
784.19	229.15
784.51	229.17
784.83	229.14
785.16	229.11
785.48	229.08
785.80	229.06
786.12	229.04
786.45	229.01
786.77	229.01
787.09	228.97
787.42	228.90
787.74	228.87
788.06	228.86
788.38	228.84
788.71	228.81
789.03	228.80
789.35	228.80
789.67	228.76
789.99	228.74
790.32	228.71
790.64	228.71
790.96	228.81
791.28	228.74
791.61	228.71
791.93	228.70
792.25	228.68
792.57	228.75
792.89	228.73
793.21	228.72
793.54	228.68
793.86	228.65
794.18	228.64
794.50	228.60
794.82	228.58
795.14	228.57
795.47	228.58
795.79	228.57
796.11	228.52
796.43	228.51
796.75	228.49
797.07	228.48
797.39	228.46
797.71	228.34
798.04	228.34
798.36	228.33
798.68	228.31
799.00	228.31
799.32	228.23
799.64	228.22
799.96	228.21
800.28	228.21
800.60	228.20
800.92	228.20
801.24	228.18
801.56	228.19
801.89	228.17
802.21	228.16
802.53	228.12
802.85	228.13
803.17	228.17
803.49	228.13
803.81	228.11
804.13	228.09
804.45	228.06
804.77	228.05
805.09	228.04
805.41	228.02
805.73	227.97
806.05	227.92
806.37	227.89
806.69	227.87
807.01	227.85
807.33	227.85
807.65	227.79
807.97	227.83
808.28	227.80
808.60	227.79
808.92	227.76
809.24	227.83
809.56	227.80
809.88	227.75
810.20	227.74
810.52	227.76
810.84	227.72
811.16	227.71
811.48	227.69
811.80	227.72
812.12	227.71
812.43	227.73
812.75	227.73
813.07	227.72
813.39	227.72
813.71	227.70
814.03	227.67
814.35	227.67
814.67	227.61
814.98	227.58
815.30	227.57
815.62	227.54
815.94	227.45
816.26	227.45
816.58	227.42
816.89	227.42
817.21	227.38
817.53	227.39
817.85	227.39
818.17	227.37
818.48	227.30
818.80	227.32
819.12	227.29
819.44	227.25
819.76	227.24
820.07	227.22
820.39	227.20
820.71	227.20
821.03	227.21
821.34	227.19
821.66	227.20
821.98	227.20
822.30	227.19
822.61	227.25
822.93	227.22
823.25	227.21
823.57	227.18
823.88	227.19
824.20	227.18
824.52	227.20
824.83	227.19
825.15	227.17
825.47	227.15
825.79	227.16
826.10	227.15
826.42	227.14
826.74	227.14
827.05	227.13
827.37	227.14
827.69	227.11
828.00	227.12
828.32	227.12
828.64	227.09
828.95	227.15
829.27	227.12
829.58	227.12
829.90	227.14
830.22	227.14
830.53	227.11
830.85	227.10
831.17	227.06
831.48	227.06
831.80	227.07
832.11	227.06
832.43	227.03
832.75	227.03
833.06	227.10
833.38	227.06
833.69	227.05
834.01	227.04
834.32	227.04
834.64	227.02
834.96	227.01
835.27	227.01
835.59	226.96
835.90	226.94
836.22	226.94
836.53	226.90
836.85	226.89
837.16	227.02
837.48	227.01
837.79	227.04
838.11	227.05
838.42	227.05
838.74	227.05
839.05	227.04
839.37	227.03
839.68	226.96
840.00	226.96
840.31	226.98
840.63	226.97
840.94	226.96
841.26	226.94
841.57	226.93
841.88	226.93
842.20	226.91
842.51	226.88
842.83	226.87
843.14	226.99
843.46	226.98
843.77	226.90
844.08	226.90
844.40	226.86
844.71	226.85
845.03	226.84
845.34	226.82
845.65	226.81
845.97	226.81
846.28	226.82
846.60	226.81
846.91	226.79
847.22	226.78
847.54	226.80
847.85	226.81
848.16	226.80
848.48	226.77
848.79	226.82
849.10	226.83
849.42	226.85
849.73	226.72
850.04	226.73
850.36	226.69
850.67	226.70
850.98	226.70
851.30	226.70
851.61	226.69
851.92	226.69
852.23	226.73
852.55	226.73
852.86	226.72
853.17	226.73
853.49	226.75
853.80	226.77
854.11	226.78
854.42	226.80
854.74	226.79
855.05	226.80
855.36	226.73
855.67	226.74
855.99	226.73
856.30	226.88
856.61	226.86
856.92	226.86
857.23	226.86
857.55	226.83
857.86	226.83
858.17	226.85
858.48	226.82
858.79	226.78
859.11	226.79
859.42	226.79
859.73	226.77
860.04	226.77
860.35	226.74
860.66	226.69
860.98	226.68
861.29	226.70
861.60	226.69
861.91	226.71
862.22	226.69
862.53	226.67
862.84	226.52
863.16	226.54
863.47	226.53
863.78	226.50
864.09	226.51
864.40	226.52
864.71	226.52
865.02	226.54
865.33	226.52
865.64	226.50
865.95	226.49
866.27	226.57
866.58	226.55
866.89	226.56
867.20	226.55
867.51	226.53
867.82	226.51
868.13	226.54
868.44	226.52
868.75	226.54
869.06	226.54
869.37	226.56
869.68	226.53
869.99	226.56
870.30	226.57
870.61	226.58
870.92	226.55
871.23	226.54
871.54	226.56
871.85	226.59
872.16	226.60
872.47	226.60
872.78	226.52
873.09	226.53
873.40	226.52
873.71	226.53
874.02	226.54
874.33	226.53
874.64	226.50
874.95	226.52
875.26	226.49
875.56	226.50
875.87	226.49
876.18	226.48
876.49	226.59
876.80	226.58
877.11	226.55
877.42	226.57
877.73	226.58
878.04	226.55
878.35	226.53
878.66	226.53
878.96	226.53
879.27	226.52
879.58	226.52
879.89	226.52
880.20	226.55
880.51	226.54
880.82	226.55
881.12	226.55
881.43	226.52
881.74	226.50
882.05	226.49
882.36	226.50
882.67	226.52
882.97	226.38
883.28	226.38
883.59	226.39
883.90	226.39
884.21	226.41
884.51	226.42
884.82	226.40
885.13	226.40
885.44	226.40
885.74	226.41
886.05	226.40
886.36	226.40
886.67	226.36
886.98	226.42
887.28	226.43
887.59	226.43
887.90	226.44
888.20	226.44
888.51	226.46
888.82	226.43
889.13	226.44
889.43	226.56
889.74	226.55
890.05	226.54
890.35	226.51
890.66	226.49
890.97	226.46
891.28	226.46
891.58	226.46
891.89	226.45
892.20	226.44
892.50	226.43
892.81	226.41
893.12	226.41
893.42	226.35
893.73	226.35
894.04	226.36
894.34	226.38
894.65	226.37
894.95	226.37
895.26	226.37
895.57	226.41
895.87	226.28
896.18	226.31
896.48	226.32
896.79	226.33
897.10	226.34
897.40	226.35
897.71	226.37
898.01	226.36
898.32	226.38
898.63	226.37
898.93	226.39
899.24	226.39
899.54	226.39
899.85	226.40
900.15	226.38
900.46	226.37
900.76	226.36
901.07	226.36
901.38	226.35
901.68	226.38
901.99	226.32
902.29	226.33
902.60	226.31
902.90	226.29
903.21	226.29
903.51	226.28
903.82	226.31
904.12	226.29
904.43	226.30
904.73	226.30
905.03	226.31
905.34	226.42
905.64	226.41
905.95	226.40
906.25	226.37
906.56	226.39
906.86	226.39
907.17	226.40
907.47	226.41
907.77	226.40
908.08	226.37
908.38	226.36
908.69	226.37
908.99	226.40
909.30	226.40
909.60	226.40
909.90	226.41
910.21	226.39
910.51	226.37
910.81	226.37
911.12	226.36
911.42	226.37
911.73	226.24
912.03	226.25
912.33	226.29
912.64	226.29
912.94	226.26
913.24	226.25
913.55	226.24
913.85	226.23
914.15	226.26
914.46	226.28
914.76	226.28
915.06	226.27
915.37	226.24
915.67	226.23
915.97	226.24
916.27	226.21
916.58	226.21
916.88	226.21
917.18	226.20
917.49	226.30
917.79	226.29
918.09	226.31
918.39	226.35
918.70	226.35
919.00	226.35
919.30	226.42
919.60	226.42
919.91	226.39
920.21	226.40
920.51	226.37
920.81	226.36
921.12	226.40
921.42	226.39
921.72	226.41
922.02	226.41
922.32	226.44
922.63	226.45
922.93	226.52
923.23	226.53
923.53	226.53
923.83	226.44
924.13	226.45
924.44	226.45
924.74	226.47
925.04	226.48
925.34	226.48
925.64	226.42
925.94	226.42
926.24	226.49
926.55	226.48
926.85	226.49
927.15	226.49
927.45	226.48
927.75	226.47
928.05	226.48
928.35	226.47
928.65	226.48
928.95	226.48
929.26	226.42
929.56	226.43
929.86	226.44
930.16	226.44
930.46	226.42
930.76	226.42
931.06	226.36
931.36	226.33
931.66	226.35
931.96	226.36
932.26	226.38
932.56	226.33
932.86	226.34
933.16	226.34
933.46	226.33
933.76	226.32
934.06	226.35
934.36	226.39
934.66	226.38
934.96	226.36
935.26	226.36
935.56	226.38
935.86	226.35
936.16	226.34
936.46	226.32
936.76	226.31
937.06	226.29
937.36	226.30
937.66	226.31
937.96	226.31
938.26	226.29
938.56	226.27
938.86	226.27
939.16	226.29
939.46	226.29
939.76	226.30
940.06	226.29
940.35	226.27
940.65	226.20
940.95	226.21
941.25	226.18
941.55	226.17
941.85	226.15
942.15	226.18
942.45	226.21
942.75	226.22
943.04	226.22
943.34	226.25
943.64	226.23
943.94	226.21
944.24	226.21
944.54	226.22
944.84	226.22
945.13	226.20
945.43	226.19
945.73	226.17
946.03	226.16
946.33	226.15
946.62	226.14
946.92	226.15
947.22	226.15
947.52	226.16
947.82	226.18
948.11	226.17
948.41	226.14
948.71	226.10
949.01	226.11
949.31	226.10
949.60	226.09
949.90	226.10
950.20	226.10
950.50	226.09
950.79	226.08
951.09	226.10
951.39	226.10
951.69	226.09
951.98	226.12
952.28	226.13
952.58	226.13
952.87	226.13
953.17	226.15
953.47	226.13
953.76	226.13
954.06	226.11
954.36	226.10
954.66	226.10
954.95	226.13
955.25	226.13
955.55	226.15
955.84	226.14
956.14	226.14
956.44	226.15
956.73	226.13
957.03	226.14
957.32	226.14
957.62	226.14
957.92	226.16
958.21	226.14
958.51	226.28
958.81	226.29
959.10	226.31
959.40	226.34
959.69	226.35
959.99	226.37
960.29	226.37
960.58	226.37
960.88	226.40
961.17	226.38
961.47	226.40
961.76	226.39
962.06	226.40
962.36	226.40
962.65	226.40
962.95	226.42
963.24	226.39
963.54	226.39
963.83	226.40
964.13	226.39
964.42	226.37
964.72	226.28
965.01	226.27
965.31	226.26
965.60	226.23
965.90	226.29
966.19	226.26
966.49	226.27
966.78	226.27
967.08	226.26
967.37	226.27
967.67	226.24
967.96	226.26
968.26	226.25
968.55	226.26
968.85	226.25
969.14	226.26
969.43	226.26
969.73	226.26
970.02	226.26
970.32	226.25
970.61	226.24
970.91	226.19
971.20	226.17
971.49	226.16
971.79	226.18
972.08	226.10
972.38	226.11
972.67	226.10
972.96	226.12
973.26	226.10
973.55	226.13
973.85	226.13
974.14	226.12
974.43	226.14
974.73	226.11
975.02	226.11
975.31	226.10
975.61	226.11
975.90	226.09
976.19	226.08
976.49	226.08
976.78	226.10
977.07	226.09
977.37	226.11
977.66	226.13
977.95	226.11
978.24	226.12
978.54	226.15
978.83	226.14
979.12	226.12
979.42	226.13
979.71	226.11
980.00	226.10
980.29	226.11
980.59	226.08
980.88	226.11
981.17	226.11
981.46	226.11
981.76	226.11
982.05	226.16
982.34	226.17
982.63	226.17
982.93	226.18
983.22	226.21
983.51	226.21
983.80	226.23
984.09	226.24
984.39	226.23
984.68	226.21
984.97	226.22
985.26	226.20
985.55	226.21
985.85	226.19
986.14	226.20
986.43	226.21
986.72	226.22
987.01	226.18
987.30	226.18
987.59	226.16
987.89	226.16
988.18	226.11
988.47	226.10
988.76	226.10
989.05	226.08
989.34	226.06
989.63	226.09
989.92	226.06
990.22	226.04
990.51	226.03
990.80	226.02
991.09	226.04
991.38	226.06
991.67	226.05
991.96	226.04
992.25	226.05
992.54	226.02
992.83	226.02
993.12	226.01
993.41	226.03
993.70	226.10
993.99	226.12
994.28	226.14
994.58	226.17
994.87	226.15
995.16	226.15
995.45	226.13
995.74	226.09
996.03	226.11
996.32	226.14
996.61	226.16
996.90	226.16
997.19	226.15
997.48	226.15
997.77	226.14
998.06	226.14
998.34	226.13
998.63	226.13
998.92	226.13
999.21	226.16
999.50	226.16
999.79	226.11
1000.08	226.11
1000.37	226.11
1000.66	226.08
1000.95	226.11
1001.24	226.12
1001.53	226.14
1001.82	226.14
1002.11	226.12
1002.40	226.13
1002.68	226.16
1002.97	226.25
1003.26	226.24
1003.55	226.21
1003.84	226.22
1004.13	226.27
1004.42	226.26
1004.71	226.26
1004.99	226.24
1005.28	226.26
1005.57	226.24
1005.86	226.23
1006.15	226.22
1006.44	226.20
1006.72	226.22
1007.01	226.19
1007.30	226.18
1007.59	226.17
1007.88	226.17
1008.17	226.17
1008.45	226.13
1008.74	226.08
1009.03	226.01
1009.32	226.01
1009.60	226.01
1009.89	226.00
1010.18	225.95
1010.47	225.95
1010.76	225.94
1011.04	225.95
1011.33	225.95
1011.62	225.97
1011.91	225.98
1012.19	225.99
1012.48	226.00
1012.77	225.99
1013.05	226.03
1013.34	226.04
1013.63	226.03
1013.92	226.04
1014.20	226.04
1014.49	226.05
1014.78	226.06
1015.06	226.02
1015.35	226.02
1015.64	226.03
1015.92	226.04
1016.21	226.05
1016.50	226.05
1016.78	226.07
1017.07	226.07
1017.36	226.04
1017.64	226.03
1017.93	226.04
1018.22	226.03
1018.50	226.02
1018.79	226.02
1019.08	225.98
1019.36	225.99
1019.65	225.98
1019.93	226.01
1020.22	226.02
1020.51	226.08
1020.79	226.07
1021.08	225.87
1021.36	225.86
1021.65	226.05
1021.94	226.07
1022.22	226.20
1022.51	225.68
1022.79	226.75
1023.08	226.13
1023.36	227.47
1023.65	225.68
>>>>>End Processed Spectral Data<<<<<
