SpectraSuite Data File
++++++++++++++++++++++++++++++++++++
Date: Sat Oct 03 18:28:38 EDT 2015
User: lab3
Dark Spectrum Present: No
Reference Spectrum Present: No
Number of Sampled Component Spectra: 1
Spectrometers: USB2E7196
Integration Time (usec): 46000 (USB2E7196)
Spectra Averaged: 24000 (USB2E7196)
Boxcar Smoothing: 10 (USB2E7196)
Correct for Electrical Dark: No (USB2E7196)
Strobe/Lamp Enabled: No (USB2E7196)
Correct for Detector Non-linearity: No (USB2E7196)
Correct for Stray Light: No (USB2E7196)
Number of Pixels in Processed Spectrum: 2048
>>>>>Begin Processed Spectral Data<<<<<
339.09	0.00
339.48	214.63
339.86	216.16
340.24	217.46
340.63	218.92
341.01	222.19
341.39	221.60
341.78	222.97
342.16	224.18
342.54	224.60
342.93	213.05
343.31	223.81
343.69	224.35
344.07	224.81
344.46	225.25
344.84	225.64
345.22	225.86
345.60	226.12
345.99	226.31
346.37	226.45
346.75	226.56
347.13	226.63
347.52	226.71
347.90	226.80
348.28	226.84
348.66	226.90
349.05	226.90
349.43	226.95
349.81	227.01
350.19	227.07
350.57	227.14
350.96	227.22
351.34	227.32
351.72	227.41
352.10	227.52
352.48	227.59
352.87	227.65
353.25	227.71
353.63	227.77
354.01	227.83
354.39	227.91
354.77	227.99
355.15	228.10
355.54	228.15
355.92	228.18
356.30	228.25
356.68	228.40
357.06	228.48
357.44	228.52
357.82	228.58
358.20	228.70
358.58	228.76
358.97	228.83
359.35	228.91
359.73	228.99
360.11	229.04
360.49	229.10
360.87	229.15
361.25	229.21
361.63	229.30
362.01	229.36
362.39	229.38
362.77	229.43
363.15	229.45
363.53	229.49
363.91	229.53
364.29	229.55
364.67	229.45
365.05	229.47
365.43	229.51
365.81	229.54
366.19	229.56
366.57	229.62
366.95	229.62
367.33	229.59
367.71	229.58
368.09	229.60
368.47	229.60
368.85	229.59
369.23	229.60
369.61	229.54
369.99	229.56
370.37	229.56
370.75	229.63
371.13	229.60
371.51	229.56
371.89	229.54
372.27	229.52
372.65	229.50
373.03	229.45
373.41	229.41
373.78	229.36
374.16	229.25
374.54	229.17
374.92	229.12
375.30	229.08
375.68	229.01
376.06	228.96
376.44	228.90
376.82	228.86
377.19	228.82
377.57	228.76
377.95	228.67
378.33	228.61
378.71	228.45
379.09	228.41
379.47	228.38
379.84	228.31
380.22	228.25
380.60	228.18
380.98	228.13
381.36	228.09
381.73	228.02
382.11	228.00
382.49	227.96
382.87	227.91
383.25	227.86
383.62	227.96
384.00	227.90
384.38	227.86
384.76	227.84
385.13	227.84
385.51	227.80
385.89	227.75
386.27	227.72
386.64	227.70
387.02	227.65
387.40	227.61
387.78	227.59
388.15	227.56
388.53	227.53
388.91	227.50
389.29	227.47
389.66	227.46
390.04	227.43
390.42	227.43
390.79	227.41
391.17	227.40
391.55	227.24
391.92	227.23
392.30	227.24
392.68	227.20
393.05	227.18
393.43	227.18
393.81	227.19
394.18	227.17
394.56	227.17
394.94	227.21
395.31	227.21
395.69	227.26
396.06	227.29
396.44	227.31
396.82	227.33
397.19	227.41
397.57	227.43
397.95	227.48
398.32	227.47
398.70	227.52
399.07	227.59
399.45	227.63
399.82	227.68
400.20	227.72
400.58	227.78
400.95	227.80
401.33	227.89
401.70	228.05
402.08	228.15
402.45	228.24
402.83	228.36
403.20	228.48
403.58	228.58
403.95	228.72
404.33	228.88
404.71	229.02
405.08	229.24
405.46	229.41
405.83	229.61
406.21	229.81
406.58	230.04
406.96	230.27
407.33	230.53
407.70	230.82
408.08	231.22
408.45	231.57
408.83	231.95
409.20	232.29
409.58	232.61
409.95	233.03
410.33	233.50
410.70	233.93
411.08	234.44
411.45	234.99
411.82	235.54
412.20	236.17
412.57	236.92
412.95	237.51
413.32	238.28
413.69	239.07
414.07	239.91
414.44	240.82
414.82	241.75
415.19	242.83
415.56	243.94
415.94	245.08
416.31	246.36
416.68	247.65
417.06	249.13
417.43	250.53
417.81	252.13
418.18	253.77
418.55	255.55
418.93	257.41
419.30	259.35
419.67	261.42
420.04	263.53
420.42	265.73
420.79	268.28
421.16	270.85
421.54	273.46
421.91	276.20
422.28	279.03
422.66	282.08
423.03	285.00
423.40	288.06
423.77	291.33
424.15	294.70
424.52	298.19
424.89	301.98
425.26	305.74
425.64	309.24
426.01	313.18
426.38	317.20
426.75	321.34
427.13	325.59
427.50	330.04
427.87	334.67
428.24	339.34
428.61	343.84
428.99	348.70
429.36	354.03
429.73	359.12
430.10	364.22
430.47	369.43
430.85	374.80
431.22	380.56
431.59	386.48
431.96	392.25
432.33	398.67
432.70	404.77
433.08	411.98
433.45	418.80
433.82	425.52
434.19	433.02
434.56	440.42
434.93	447.56
435.30	454.63
435.68	462.61
436.05	470.43
436.42	478.22
436.79	485.32
437.16	493.00
437.53	501.23
437.90	509.45
438.27	517.50
438.64	526.20
439.01	534.08
439.38	541.28
439.75	548.21
440.13	556.02
440.50	563.45
440.87	569.34
441.24	575.77
441.61	582.80
441.98	587.90
442.35	593.97
442.72	600.16
443.09	606.05
443.46	609.76
443.83	612.45
444.20	614.69
444.57	618.06
444.94	619.92
445.31	621.84
445.68	623.46
446.05	624.61
446.42	624.11
446.79	623.42
447.16	622.79
447.53	622.20
447.90	619.60
448.27	617.08
448.64	613.33
449.01	610.69
449.37	605.55
449.74	600.90
450.11	594.92
450.48	588.39
450.85	581.89
451.22	576.31
451.59	570.87
451.96	565.96
452.33	558.84
452.70	552.53
453.07	544.84
453.43	537.19
453.80	529.76
454.17	522.65
454.54	516.12
454.91	508.73
455.28	501.82
455.65	495.30
456.02	488.42
456.38	482.90
456.75	475.79
457.12	470.07
457.49	464.30
457.86	458.88
458.23	454.14
458.59	448.86
458.96	443.46
459.33	438.71
459.70	433.88
460.07	430.21
460.43	425.89
460.80	421.86
461.17	418.36
461.54	414.55
461.91	410.99
462.27	407.37
462.64	404.47
463.01	401.11
463.38	397.73
463.74	394.69
464.11	392.00
464.48	389.59
464.85	386.94
465.21	384.96
465.58	382.73
465.95	380.16
466.32	378.13
466.68	376.13
467.05	374.12
467.42	372.16
467.78	370.03
468.15	368.07
468.52	366.65
468.88	364.73
469.25	362.97
469.62	361.58
469.98	360.05
470.35	358.69
470.72	357.46
471.08	356.21
471.45	355.15
471.82	353.97
472.18	352.72
472.55	351.90
472.92	350.88
473.28	350.07
473.65	349.21
474.02	348.38
474.38	347.68
474.75	347.26
475.11	346.68
475.48	346.40
475.85	346.09
476.21	345.92
476.58	345.79
476.94	345.91
477.31	345.95
477.67	346.02
478.04	346.21
478.41	346.48
478.77	346.89
479.14	347.14
479.50	347.64
479.87	348.31
480.23	348.98
480.60	349.64
480.96	350.31
481.33	351.31
481.69	352.30
482.06	353.29
482.42	354.20
482.79	355.33
483.15	356.65
483.52	358.14
483.88	359.58
484.25	361.12
484.61	362.72
484.98	364.46
485.34	366.41
485.71	368.46
486.07	370.65
486.44	372.83
486.80	375.27
487.17	377.81
487.53	380.58
487.90	383.48
488.26	386.63
488.62	389.97
488.99	393.31
489.35	396.83
489.72	400.64
490.08	404.66
490.44	408.80
490.81	413.11
491.17	417.52
491.54	422.26
491.90	427.16
492.26	432.39
492.63	437.87
492.99	443.58
493.36	449.50
493.72	455.73
494.08	462.11
494.45	468.89
494.81	475.92
495.17	483.16
495.54	490.79
495.90	498.73
496.26	506.85
496.63	515.22
496.99	523.92
497.35	533.02
497.72	542.40
498.08	551.99
498.44	561.92
498.80	572.45
499.17	583.22
499.53	594.33
499.89	605.82
500.26	617.53
500.62	629.56
500.98	642.22
501.34	655.06
501.71	668.43
502.07	682.02
502.43	696.14
502.79	710.48
503.16	725.28
503.52	740.25
503.88	755.69
504.24	771.59
504.60	787.71
504.97	804.31
505.33	821.37
505.69	839.35
506.05	857.65
506.41	875.87
506.78	894.30
507.14	913.27
507.50	932.64
507.86	952.39
508.22	972.33
508.59	992.10
508.95	1012.71
509.31	1034.09
509.67	1056.15
510.03	1078.20
510.39	1100.32
510.75	1122.62
511.12	1145.20
511.48	1167.92
511.84	1190.66
512.20	1213.86
512.56	1237.94
512.92	1262.01
513.28	1285.64
513.64	1309.58
514.00	1333.99
514.37	1358.69
514.73	1383.36
515.09	1407.92
515.45	1432.81
515.81	1457.82
516.17	1482.96
516.53	1507.58
516.89	1532.07
517.25	1556.76
517.61	1581.28
517.97	1606.26
518.33	1630.80
518.69	1655.25
519.05	1680.21
519.41	1705.47
519.77	1730.84
520.13	1755.47
520.49	1780.03
520.85	1804.98
521.21	1829.43
521.57	1854.26
521.93	1878.53
522.29	1903.31
522.65	1927.57
523.01	1951.78
523.37	1975.63
523.73	2000.24
524.09	2024.47
524.45	2048.43
524.81	2072.05
525.17	2095.58
525.53	2118.48
525.89	2141.79
526.25	2165.17
526.61	2187.51
526.97	2209.95
527.33	2232.40
527.68	2254.51
528.04	2275.75
528.40	2296.02
528.76	2316.64
529.12	2336.66
529.48	2356.38
529.84	2374.25
530.20	2392.81
530.56	2410.72
530.91	2428.82
531.27	2446.52
531.63	2463.32
531.99	2479.83
532.35	2495.48
532.71	2511.26
533.07	2527.69
533.42	2542.36
533.78	2557.97
534.14	2573.78
534.50	2588.56
534.86	2603.06
535.21	2615.59
535.57	2628.78
535.93	2641.76
536.29	2653.46
536.65	2665.00
537.00	2675.79
537.36	2687.58
537.72	2697.97
538.08	2707.85
538.44	2717.04
538.79	2725.74
539.15	2733.74
539.51	2741.23
539.87	2748.15
540.22	2753.07
540.58	2758.15
540.94	2764.41
541.29	2768.95
541.65	2771.74
542.01	2773.86
542.37	2775.41
542.72	2778.30
543.08	2779.38
543.44	2781.08
543.79	2781.77
544.15	2781.63
544.51	2781.92
544.87	2781.08
545.22	2779.34
545.58	2776.92
545.94	2774.55
546.29	2770.89
546.65	2767.23
547.01	2763.64
547.36	2760.78
547.72	2757.97
548.07	2753.40
548.43	2747.32
548.79	2740.30
549.14	2734.64
549.50	2729.17
549.86	2722.64
550.21	2715.02
550.57	2708.43
550.92	2699.44
551.28	2691.12
551.64	2683.18
551.99	2674.74
552.35	2665.58
552.70	2656.85
553.06	2648.41
553.41	2639.25
553.77	2630.01
554.13	2620.68
554.48	2610.38
554.84	2598.91
555.19	2587.93
555.55	2577.00
555.90	2566.18
556.26	2555.98
556.61	2544.57
556.97	2531.50
557.32	2518.95
557.68	2506.39
558.03	2493.62
558.39	2482.11
558.74	2470.83
559.10	2457.80
559.45	2445.06
559.81	2432.99
560.16	2420.14
560.52	2407.65
560.87	2395.60
561.23	2382.61
561.58	2369.68
561.94	2356.49
562.29	2342.64
562.64	2329.64
563.00	2316.30
563.35	2303.35
563.71	2290.19
564.06	2276.93
564.42	2264.54
564.77	2251.61
565.12	2238.51
565.48	2225.34
565.83	2212.13
566.19	2199.04
566.54	2185.85
566.89	2171.58
567.25	2157.49
567.60	2144.85
567.96	2131.22
568.31	2116.20
568.66	2102.00
569.02	2088.97
569.37	2075.86
569.72	2063.33
570.08	2049.48
570.43	2035.28
570.78	2020.91
571.14	2005.83
571.49	1991.49
571.84	1977.69
572.20	1962.61
572.55	1947.89
572.90	1932.98
573.26	1918.17
573.61	1902.80
573.96	1887.90
574.31	1873.26
574.67	1858.68
575.02	1842.99
575.37	1827.51
575.72	1812.86
576.08	1798.44
576.43	1782.91
576.78	1767.86
577.13	1753.02
577.49	1738.52
577.84	1724.64
578.19	1709.81
578.54	1695.18
578.90	1680.04
579.25	1664.80
579.60	1651.22
579.95	1637.40
580.30	1623.45
580.66	1609.19
581.01	1594.96
581.36	1580.79
581.71	1567.57
582.06	1554.20
582.42	1541.06
582.77	1527.93
583.12	1514.82
583.47	1501.64
583.82	1488.55
584.17	1475.06
584.53	1461.27
584.88	1447.89
585.23	1434.06
585.58	1421.06
585.93	1408.26
586.28	1396.19
586.63	1384.08
586.98	1371.47
587.34	1358.96
587.69	1346.26
588.04	1333.85
588.39	1321.79
588.74	1309.79
589.09	1297.59
589.44	1285.01
589.79	1273.09
590.14	1261.22
590.49	1249.27
590.84	1237.45
591.19	1226.08
591.54	1214.52
591.89	1203.11
592.25	1191.89
592.60	1180.33
592.95	1169.17
593.30	1158.26
593.65	1147.04
594.00	1135.96
594.35	1125.45
594.70	1114.54
595.05	1104.45
595.40	1094.23
595.75	1083.84
596.10	1074.04
596.45	1063.96
596.80	1054.21
597.15	1044.24
597.50	1034.43
597.85	1024.98
598.19	1015.37
598.54	1005.81
598.89	996.72
599.24	987.95
599.59	978.97
599.94	970.88
600.29	962.58
600.64	953.97
600.99	945.01
601.34	936.41
601.69	927.52
602.04	919.25
602.39	910.82
602.74	902.48
603.08	894.09
603.43	885.68
603.78	877.44
604.13	869.34
604.48	861.20
604.83	853.27
605.18	845.31
605.53	837.49
605.87	829.47
606.22	821.77
606.57	814.02
606.92	806.17
607.27	798.24
607.62	790.66
607.96	783.48
608.31	776.74
608.66	769.80
609.01	763.13
609.36	756.57
609.70	749.78
610.05	743.00
610.40	736.47
610.75	729.91
611.10	723.69
611.44	717.35
611.79	711.12
612.14	704.79
612.49	698.54
612.83	692.59
613.18	686.78
613.53	680.88
613.88	674.98
614.22	669.49
614.57	663.95
614.92	658.23
615.27	652.64
615.61	647.12
615.96	641.64
616.31	636.15
616.65	630.71
617.00	625.51
617.35	620.41
617.70	615.35
618.04	610.32
618.39	605.23
618.74	600.37
619.08	595.57
619.43	590.87
619.78	586.19
620.12	581.49
620.47	576.94
620.82	572.49
621.16	568.06
621.51	563.53
621.85	559.05
622.20	554.76
622.55	550.51
622.89	546.31
623.24	542.13
623.59	537.98
623.93	534.00
624.28	530.13
624.62	526.33
624.97	522.57
625.32	518.79
625.66	514.97
626.01	511.11
626.35	507.31
626.70	503.57
627.04	500.01
627.39	496.37
627.73	492.90
628.08	489.53
628.43	486.16
628.77	482.86
629.12	479.67
629.46	476.50
629.81	473.24
630.15	469.98
630.50	466.81
630.84	463.71
631.19	460.66
631.53	457.69
631.88	454.69
632.22	451.73
632.57	449.03
632.91	446.37
633.26	443.80
633.60	441.25
633.95	438.74
634.29	436.15
634.64	433.64
634.98	430.94
635.32	428.38
635.67	426.00
636.01	423.57
636.36	421.18
636.70	418.92
637.05	416.67
637.39	414.45
637.73	412.25
638.08	410.16
638.42	408.04
638.77	405.80
639.11	403.52
639.45	401.32
639.80	399.06
640.14	396.92
640.49	394.74
640.83	392.56
641.17	390.48
641.52	388.44
641.86	386.42
642.20	384.61
642.55	382.64
642.89	380.71
643.23	378.86
643.58	377.18
643.92	375.36
644.26	373.60
644.61	371.89
644.95	370.16
645.29	368.36
645.64	366.58
645.98	364.89
646.32	363.31
646.66	361.73
647.01	360.17
647.35	358.65
647.69	357.12
648.04	355.71
648.38	354.22
648.72	352.75
649.06	351.29
649.41	349.84
649.75	348.44
650.09	347.06
650.43	345.70
650.78	344.28
651.12	342.90
651.46	341.58
651.80	340.28
652.14	339.00
652.49	337.78
652.83	336.53
653.17	335.32
653.51	334.15
653.85	333.02
654.20	331.86
654.54	330.62
654.88	329.48
655.22	328.37
655.56	327.24
655.90	326.18
656.25	325.14
656.59	324.09
656.93	323.11
657.27	322.13
657.61	321.10
657.95	320.12
658.29	319.14
658.64	318.21
658.98	317.26
659.32	316.36
659.66	315.49
660.00	314.65
660.34	313.81
660.68	312.93
661.02	312.04
661.36	311.18
661.70	310.37
662.05	309.57
662.39	308.78
662.73	308.06
663.07	307.35
663.41	306.60
663.75	305.85
664.09	305.10
664.43	304.32
664.77	303.62
665.11	302.87
665.45	302.19
665.79	301.52
666.13	300.81
666.47	300.09
666.81	299.36
667.15	298.60
667.49	297.95
667.83	297.36
668.17	296.74
668.51	296.16
668.85	295.60
669.19	295.07
669.53	294.45
669.87	293.82
670.21	293.22
670.55	292.66
670.89	292.17
671.23	291.63
671.57	291.12
671.91	290.64
672.25	290.18
672.58	289.73
672.92	289.19
673.26	288.75
673.60	288.30
673.94	287.87
674.28	287.48
674.62	287.05
674.96	286.56
675.30	286.13
675.64	285.67
675.97	285.20
676.31	284.71
676.65	284.27
676.99	283.90
677.33	283.44
677.67	283.03
678.01	282.54
678.34	282.13
678.68	281.74
679.02	281.29
679.36	280.87
679.70	280.43
680.04	280.04
680.37	279.64
680.71	279.25
681.05	278.88
681.39	278.47
681.73	278.05
682.06	277.64
682.40	277.26
682.74	276.93
683.08	276.63
683.42	276.27
683.75	275.95
684.09	275.55
684.43	275.22
684.77	274.87
685.10	274.57
685.44	274.24
685.78	273.91
686.12	273.60
686.45	273.26
686.79	272.92
687.13	272.61
687.46	272.27
687.80	271.94
688.14	271.58
688.48	271.27
688.81	270.96
689.15	270.67
689.49	270.34
689.82	270.00
690.16	269.61
690.50	269.29
690.83	268.97
691.17	268.64
691.51	268.32
691.84	268.02
692.18	267.69
692.52	267.35
692.85	267.03
693.19	266.75
693.52	266.44
693.86	266.13
694.20	265.83
694.53	265.54
694.87	265.22
695.21	264.91
695.54	264.61
695.88	264.31
696.21	263.97
696.55	263.69
696.88	263.39
697.22	263.11
697.56	262.81
697.89	262.49
698.23	262.21
698.56	261.89
698.90	261.60
699.23	261.29
699.57	261.00
699.90	260.70
700.24	260.38
700.58	260.12
700.91	259.88
701.25	259.71
701.58	259.49
701.92	259.25
702.25	259.00
702.59	258.72
702.92	258.46
703.26	258.19
703.59	257.91
703.93	257.74
704.26	257.48
704.60	257.21
704.93	256.95
705.26	256.67
705.60	256.45
705.93	256.17
706.27	255.96
706.60	255.75
706.94	255.55
707.27	255.27
707.61	255.01
707.94	254.73
708.27	254.35
708.61	254.04
708.94	253.76
709.28	253.52
709.61	253.27
709.94	253.05
710.28	252.83
710.61	252.63
710.95	252.29
711.28	252.14
711.61	251.92
711.95	251.73
712.28	251.49
712.61	251.25
712.95	251.10
713.28	250.94
713.61	250.69
713.95	250.43
714.28	250.23
714.61	250.01
714.95	249.80
715.28	249.59
715.61	249.40
715.95	249.21
716.28	249.02
716.61	248.85
716.95	248.64
717.28	248.43
717.61	248.22
717.94	248.03
718.28	247.74
718.61	247.54
718.94	247.33
719.27	247.14
719.61	246.97
719.94	246.75
720.27	246.48
720.60	246.30
720.94	246.12
721.27	245.94
721.60	245.78
721.93	245.60
722.27	245.46
722.60	245.30
722.93	245.10
723.26	244.93
723.59	244.72
723.93	244.56
724.26	244.40
724.59	244.23
724.92	244.07
725.25	243.96
725.59	243.80
725.92	243.66
726.25	243.51
726.58	243.35
726.91	243.19
727.24	243.06
727.57	242.91
727.91	242.74
728.24	242.61
728.57	242.45
728.90	242.32
729.23	242.13
729.56	242.03
729.89	241.89
730.22	241.73
730.55	241.59
730.89	241.44
731.22	241.30
731.55	241.16
731.88	241.02
732.21	240.85
732.54	240.71
732.87	240.57
733.20	240.45
733.53	240.32
733.86	240.19
734.19	240.04
734.52	239.93
734.85	239.89
735.18	239.74
735.51	239.64
735.84	239.52
736.17	239.44
736.50	239.25
736.83	239.28
737.16	239.17
737.49	239.06
737.82	238.94
738.15	238.85
738.48	238.73
738.81	238.61
739.14	238.49
739.47	238.37
739.80	238.25
740.13	238.14
740.46	238.01
740.79	237.88
741.12	237.77
741.45	237.64
741.78	237.46
742.11	237.39
742.44	237.25
742.77	237.15
743.10	237.03
743.43	236.92
743.75	236.68
744.08	236.77
744.41	236.66
744.74	236.56
745.07	236.43
745.40	236.35
745.73	236.31
746.06	236.22
746.39	236.15
746.71	236.05
747.04	235.94
747.37	235.85
747.70	235.79
748.03	235.71
748.36	235.64
748.68	235.56
749.01	235.43
749.34	235.35
749.67	235.26
750.00	235.20
750.33	235.21
750.65	235.13
750.98	234.86
751.31	234.78
751.64	234.71
751.97	234.70
752.29	234.61
752.62	234.47
752.95	234.38
753.28	234.28
753.60	234.20
753.93	234.15
754.26	234.08
754.59	233.97
754.91	233.87
755.24	233.78
755.57	233.76
755.90	233.68
756.22	233.60
756.55	233.50
756.88	233.40
757.20	233.24
757.53	233.13
757.86	233.06
758.19	232.99
758.51	232.91
758.84	232.78
759.17	232.70
759.49	232.64
759.82	232.63
760.15	232.58
760.47	232.52
760.80	232.42
761.13	232.37
761.45	232.31
761.78	232.26
762.11	232.20
762.43	232.08
762.76	232.02
763.08	231.98
763.41	231.93
763.74	231.88
764.06	231.83
764.39	231.78
764.71	231.72
765.04	231.66
765.37	231.60
765.69	231.55
766.02	231.49
766.34	231.44
766.67	231.34
767.00	231.31
767.32	231.33
767.65	231.36
767.97	231.30
768.30	231.25
768.62	231.20
768.95	231.14
769.27	231.09
769.60	231.06
769.92	230.99
770.25	230.92
770.57	230.86
770.90	230.82
771.22	230.76
771.55	230.72
771.87	230.69
772.20	230.65
772.52	230.71
772.85	230.82
773.17	230.79
773.50	230.74
773.82	230.68
774.15	230.58
774.47	230.46
774.80	230.41
775.12	230.37
775.45	230.34
775.77	230.31
776.09	230.29
776.42	230.26
776.74	230.27
777.07	230.24
777.39	230.21
777.72	230.17
778.04	230.16
778.36	230.12
778.69	230.09
779.01	230.07
779.33	229.93
779.66	229.76
779.98	229.72
780.31	229.70
780.63	229.73
780.95	229.72
781.28	229.70
781.60	229.66
781.92	229.64
782.25	229.61
782.57	229.58
782.89	229.54
783.22	229.51
783.54	229.45
783.86	229.44
784.19	229.41
784.51	229.42
784.83	229.38
785.16	229.36
785.48	229.33
785.80	229.31
786.12	229.30
786.45	229.28
786.77	229.26
787.09	229.23
787.42	229.17
787.74	229.15
788.06	229.13
788.38	229.11
788.71	229.08
789.03	229.07
789.35	229.06
789.67	229.03
789.99	229.02
790.32	228.99
790.64	228.98
790.96	229.08
791.28	229.02
791.61	228.99
791.93	228.98
792.25	228.96
792.57	229.03
792.89	228.99
793.21	228.98
793.54	228.95
793.86	228.92
794.18	228.90
794.50	228.86
794.82	228.84
795.14	228.84
795.47	228.84
795.79	228.83
796.11	228.78
796.43	228.76
796.75	228.74
797.07	228.74
797.39	228.71
797.71	228.59
798.04	228.58
798.36	228.58
798.68	228.56
799.00	228.55
799.32	228.47
799.64	228.48
799.96	228.46
800.28	228.47
800.60	228.45
800.92	228.44
801.24	228.42
801.56	228.42
801.89	228.39
802.21	228.38
802.53	228.35
802.85	228.36
803.17	228.41
803.49	228.37
803.81	228.34
804.13	228.32
804.45	228.30
804.77	228.30
805.09	228.28
805.41	228.26
805.73	228.22
806.05	228.17
806.37	228.15
806.69	228.13
807.01	228.10
807.33	228.10
807.65	228.04
807.97	228.09
808.28	228.06
808.60	228.05
808.92	228.02
809.24	228.09
809.56	228.05
809.88	227.99
810.20	227.99
810.52	228.01
810.84	227.98
811.16	227.96
811.48	227.94
811.80	227.97
812.12	227.96
812.43	227.98
812.75	227.98
813.07	227.96
813.39	227.96
813.71	227.93
814.03	227.91
814.35	227.91
814.67	227.85
814.98	227.83
815.30	227.82
815.62	227.79
815.94	227.70
816.26	227.71
816.58	227.67
816.89	227.68
817.21	227.64
817.53	227.64
817.85	227.64
818.17	227.62
818.48	227.56
818.80	227.58
819.12	227.55
819.44	227.52
819.76	227.50
820.07	227.49
820.39	227.48
820.71	227.49
821.03	227.48
821.34	227.46
821.66	227.47
821.98	227.48
822.30	227.47
822.61	227.54
822.93	227.51
823.25	227.50
823.57	227.48
823.88	227.49
824.20	227.48
824.52	227.50
824.83	227.49
825.15	227.47
825.47	227.45
825.79	227.46
826.10	227.45
826.42	227.44
826.74	227.45
827.05	227.44
827.37	227.43
827.69	227.42
828.00	227.42
828.32	227.42
828.64	227.39
828.95	227.45
829.27	227.41
829.58	227.41
829.90	227.43
830.22	227.43
830.53	227.40
830.85	227.39
831.17	227.35
831.48	227.35
831.80	227.35
832.11	227.34
832.43	227.31
832.75	227.31
833.06	227.38
833.38	227.34
833.69	227.33
834.01	227.33
834.32	227.33
834.64	227.31
834.96	227.30
835.27	227.30
835.59	227.25
835.90	227.22
836.22	227.21
836.53	227.18
836.85	227.16
837.16	227.29
837.48	227.29
837.79	227.33
838.11	227.33
838.42	227.32
838.74	227.33
839.05	227.32
839.37	227.31
839.68	227.23
840.00	227.22
840.31	227.24
840.63	227.22
840.94	227.21
841.26	227.20
841.57	227.19
841.88	227.20
842.20	227.18
842.51	227.16
842.83	227.15
843.14	227.27
843.46	227.26
843.77	227.18
844.08	227.18
844.40	227.13
844.71	227.12
845.03	227.10
845.34	227.09
845.65	227.08
845.97	227.08
846.28	227.09
846.60	227.09
846.91	227.07
847.22	227.06
847.54	227.09
847.85	227.09
848.16	227.08
848.48	227.05
848.79	227.10
849.10	227.11
849.42	227.11
849.73	226.99
850.04	226.99
850.36	226.95
850.67	226.97
850.98	226.97
851.30	226.98
851.61	226.97
851.92	226.97
852.23	227.01
852.55	227.01
852.86	227.01
853.17	227.02
853.49	227.04
853.80	227.07
854.11	227.07
854.42	227.09
854.74	227.08
855.05	227.08
855.36	227.02
855.67	227.02
855.99	227.02
856.30	227.17
856.61	227.16
856.92	227.16
857.23	227.16
857.55	227.15
857.86	227.14
858.17	227.16
858.48	227.13
858.79	227.10
859.11	227.11
859.42	227.10
859.73	227.08
860.04	227.07
860.35	227.03
860.66	226.99
860.98	226.98
861.29	227.00
861.60	226.99
861.91	227.02
862.22	226.99
862.53	226.98
862.84	226.82
863.16	226.85
863.47	226.82
863.78	226.80
864.09	226.81
864.40	226.82
864.71	226.82
865.02	226.83
865.33	226.82
865.64	226.79
865.95	226.79
866.27	226.87
866.58	226.85
866.89	226.87
867.20	226.87
867.51	226.85
867.82	226.84
868.13	226.88
868.44	226.85
868.75	226.87
869.06	226.88
869.37	226.89
869.68	226.86
869.99	226.88
870.30	226.89
870.61	226.90
870.92	226.88
871.23	226.87
871.54	226.88
871.85	226.91
872.16	226.92
872.47	226.91
872.78	226.84
873.09	226.85
873.40	226.84
873.71	226.85
874.02	226.86
874.33	226.85
874.64	226.81
874.95	226.84
875.26	226.81
875.56	226.80
875.87	226.80
876.18	226.79
876.49	226.92
876.80	226.90
877.11	226.88
877.42	226.89
877.73	226.89
878.04	226.86
878.35	226.86
878.66	226.86
878.96	226.86
879.27	226.85
879.58	226.85
879.89	226.84
880.20	226.87
880.51	226.86
880.82	226.87
881.12	226.87
881.43	226.84
881.74	226.83
882.05	226.83
882.36	226.83
882.67	226.84
882.97	226.71
883.28	226.70
883.59	226.70
883.90	226.71
884.21	226.72
884.51	226.72
884.82	226.70
885.13	226.69
885.44	226.69
885.74	226.69
886.05	226.69
886.36	226.69
886.67	226.64
886.98	226.70
887.28	226.71
887.59	226.71
887.90	226.72
888.20	226.71
888.51	226.74
888.82	226.72
889.13	226.72
889.43	226.83
889.74	226.82
890.05	226.82
890.35	226.80
890.66	226.78
890.97	226.77
891.28	226.76
891.58	226.76
891.89	226.76
892.20	226.74
892.50	226.73
892.81	226.72
893.12	226.72
893.42	226.66
893.73	226.66
894.04	226.65
894.34	226.66
894.65	226.66
894.95	226.65
895.26	226.65
895.57	226.71
895.87	226.58
896.18	226.60
896.48	226.61
896.79	226.61
897.10	226.63
897.40	226.63
897.71	226.65
898.01	226.64
898.32	226.65
898.63	226.65
898.93	226.66
899.24	226.66
899.54	226.66
899.85	226.65
900.15	226.64
900.46	226.64
900.76	226.65
901.07	226.65
901.38	226.64
901.68	226.65
901.99	226.59
902.29	226.60
902.60	226.59
902.90	226.57
903.21	226.57
903.51	226.56
903.82	226.59
904.12	226.59
904.43	226.59
904.73	226.59
905.03	226.59
905.34	226.71
905.64	226.70
905.95	226.70
906.25	226.70
906.56	226.70
906.86	226.70
907.17	226.69
907.47	226.69
907.77	226.69
908.08	226.66
908.38	226.67
908.69	226.67
908.99	226.69
909.30	226.70
909.60	226.70
909.90	226.70
910.21	226.67
910.51	226.65
910.81	226.65
911.12	226.65
911.42	226.65
911.73	226.52
912.03	226.53
912.33	226.56
912.64	226.55
912.94	226.54
913.24	226.52
913.55	226.51
913.85	226.50
914.15	226.53
914.46	226.54
914.76	226.53
915.06	226.52
915.37	226.49
915.67	226.49
915.97	226.49
916.27	226.46
916.58	226.47
916.88	226.47
917.18	226.46
917.49	226.54
917.79	226.54
918.09	226.55
918.39	226.58
918.70	226.57
919.00	226.58
919.30	226.64
919.60	226.63
919.91	226.62
920.21	226.63
920.51	226.60
920.81	226.59
921.12	226.61
921.42	226.61
921.72	226.61
922.02	226.62
922.32	226.64
922.63	226.64
922.93	226.71
923.23	226.72
923.53	226.71
923.83	226.62
924.13	226.63
924.44	226.63
924.74	226.65
925.04	226.67
925.34	226.67
925.64	226.62
925.94	226.62
926.24	226.69
926.55	226.68
926.85	226.70
927.15	226.70
927.45	226.69
927.75	226.69
928.05	226.69
928.35	226.69
928.65	226.70
928.95	226.71
929.26	226.65
929.56	226.67
929.86	226.69
930.16	226.68
930.46	226.67
930.76	226.67
931.06	226.61
931.36	226.57
931.66	226.59
931.96	226.61
932.26	226.61
932.56	226.56
932.86	226.57
933.16	226.57
933.46	226.56
933.76	226.54
934.06	226.56
934.36	226.60
934.66	226.60
934.96	226.58
935.26	226.58
935.56	226.60
935.86	226.56
936.16	226.54
936.46	226.53
936.76	226.53
937.06	226.51
937.36	226.52
937.66	226.53
937.96	226.52
938.26	226.49
938.56	226.48
938.86	226.49
939.16	226.51
939.46	226.52
939.76	226.53
940.06	226.53
940.35	226.51
940.65	226.45
940.95	226.46
941.25	226.43
941.55	226.42
941.85	226.41
942.15	226.44
942.45	226.47
942.75	226.47
943.04	226.48
943.34	226.50
943.64	226.49
943.94	226.48
944.24	226.48
944.54	226.49
944.84	226.49
945.13	226.47
945.43	226.44
945.73	226.43
946.03	226.42
946.33	226.41
946.62	226.40
946.92	226.39
947.22	226.40
947.52	226.41
947.82	226.43
948.11	226.41
948.41	226.39
948.71	226.35
949.01	226.35
949.31	226.35
949.60	226.33
949.90	226.35
950.20	226.35
950.50	226.34
950.79	226.33
951.09	226.35
951.39	226.35
951.69	226.34
951.98	226.37
952.28	226.38
952.58	226.38
952.87	226.38
953.17	226.40
953.47	226.39
953.76	226.38
954.06	226.36
954.36	226.34
954.66	226.34
954.95	226.37
955.25	226.38
955.55	226.39
955.84	226.37
956.14	226.38
956.44	226.39
956.73	226.37
957.03	226.38
957.32	226.38
957.62	226.37
957.92	226.40
958.21	226.38
958.51	226.52
958.81	226.54
959.10	226.55
959.40	226.58
959.69	226.58
959.99	226.60
960.29	226.61
960.58	226.61
960.88	226.65
961.17	226.64
961.47	226.65
961.76	226.63
962.06	226.66
962.36	226.64
962.65	226.64
962.95	226.65
963.24	226.64
963.54	226.64
963.83	226.66
964.13	226.65
964.42	226.63
964.72	226.53
965.01	226.53
965.31	226.52
965.60	226.48
965.90	226.56
966.19	226.53
966.49	226.54
966.78	226.53
967.08	226.52
967.37	226.52
967.67	226.50
967.96	226.52
968.26	226.51
968.55	226.53
968.85	226.53
969.14	226.52
969.43	226.53
969.73	226.51
970.02	226.50
970.32	226.49
970.61	226.48
970.91	226.44
971.20	226.42
971.49	226.41
971.79	226.43
972.08	226.34
972.38	226.35
972.67	226.34
972.96	226.36
973.26	226.33
973.55	226.37
973.85	226.37
974.14	226.35
974.43	226.36
974.73	226.34
975.02	226.32
975.31	226.32
975.61	226.32
975.90	226.31
976.19	226.31
976.49	226.32
976.78	226.32
977.07	226.32
977.37	226.33
977.66	226.35
977.95	226.33
978.24	226.34
978.54	226.37
978.83	226.36
979.12	226.35
979.42	226.35
979.71	226.32
980.00	226.32
980.29	226.33
980.59	226.31
980.88	226.34
981.17	226.34
981.46	226.34
981.76	226.34
982.05	226.38
982.34	226.39
982.63	226.39
982.93	226.39
983.22	226.42
983.51	226.43
983.80	226.44
984.09	226.46
984.39	226.45
984.68	226.43
984.97	226.44
985.26	226.43
985.55	226.44
985.85	226.42
986.14	226.44
986.43	226.45
986.72	226.45
987.01	226.41
987.30	226.41
987.59	226.40
987.89	226.40
988.18	226.36
988.47	226.35
988.76	226.34
989.05	226.33
989.34	226.31
989.63	226.34
989.92	226.32
990.22	226.31
990.51	226.30
990.80	226.29
991.09	226.30
991.38	226.32
991.67	226.30
991.96	226.30
992.25	226.29
992.54	226.27
992.83	226.27
993.12	226.27
993.41	226.29
993.70	226.34
993.99	226.36
994.28	226.38
994.58	226.40
994.87	226.39
995.16	226.39
995.45	226.38
995.74	226.33
996.03	226.35
996.32	226.37
996.61	226.39
996.90	226.39
997.19	226.38
997.48	226.38
997.77	226.37
998.06	226.38
998.34	226.37
998.63	226.37
998.92	226.38
999.21	226.40
999.50	226.40
999.79	226.36
1000.08	226.35
1000.37	226.35
1000.66	226.33
1000.95	226.36
1001.24	226.37
1001.53	226.39
1001.82	226.39
1002.11	226.36
1002.40	226.37
1002.68	226.39
1002.97	226.48
1003.26	226.47
1003.55	226.45
1003.84	226.46
1004.13	226.50
1004.42	226.50
1004.71	226.49
1004.99	226.48
1005.28	226.51
1005.57	226.50
1005.86	226.49
1006.15	226.48
1006.44	226.46
1006.72	226.47
1007.01	226.45
1007.30	226.45
1007.59	226.44
1007.88	226.44
1008.17	226.45
1008.45	226.42
1008.74	226.37
1009.03	226.31
1009.32	226.31
1009.60	226.31
1009.89	226.30
1010.18	226.25
1010.47	226.24
1010.76	226.24
1011.04	226.24
1011.33	226.23
1011.62	226.24
1011.91	226.25
1012.19	226.26
1012.48	226.26
1012.77	226.26
1013.05	226.31
1013.34	226.30
1013.63	226.30
1013.92	226.31
1014.20	226.30
1014.49	226.31
1014.78	226.32
1015.06	226.28
1015.35	226.28
1015.64	226.30
1015.92	226.32
1016.21	226.33
1016.50	226.33
1016.78	226.34
1017.07	226.35
1017.36	226.33
1017.64	226.31
1017.93	226.32
1018.22	226.31
1018.50	226.31
1018.79	226.30
1019.08	226.25
1019.36	226.26
1019.65	226.25
1019.93	226.28
1020.22	226.30
1020.51	226.36
1020.79	226.34
1021.08	226.09
1021.36	226.09
1021.65	226.29
1021.94	226.21
1022.22	226.38
1022.51	226.04
1022.79	226.89
1023.08	226.47
1023.36	227.78
1023.65	225.94
>>>>>End Processed Spectral Data<<<<<
