SpectraSuite Data File
++++++++++++++++++++++++++++++++++++
Date: Fri Oct 02 17:02:51 EDT 2015
User: lab3
Dark Spectrum Present: No
Reference Spectrum Present: No
Number of Sampled Component Spectra: 1
Spectrometers: USB2E7196
Integration Time (usec): 46000 (USB2E7196)
Spectra Averaged: 1200 (USB2E7196)
Boxcar Smoothing: 10 (USB2E7196)
Correct for Electrical Dark: No (USB2E7196)
Strobe/Lamp Enabled: No (USB2E7196)
Correct for Detector Non-linearity: No (USB2E7196)
Correct for Stray Light: No (USB2E7196)
Number of Pixels in Processed Spectrum: 2048
>>>>>Begin Processed Spectral Data<<<<<
339.09	0.00
339.48	214.68
339.86	216.16
340.24	217.58
340.63	218.88
341.01	222.31
341.39	221.73
341.78	223.20
342.16	224.30
342.54	224.88
342.93	213.16
343.31	223.93
343.69	224.47
344.07	224.94
344.46	225.37
344.84	225.76
345.22	225.98
345.60	226.23
345.99	226.42
346.37	226.56
346.75	226.66
347.13	226.74
347.52	226.82
347.90	226.91
348.28	226.94
348.66	227.00
349.05	226.99
349.43	227.03
349.81	227.09
350.19	227.14
350.57	227.20
350.96	227.28
351.34	227.37
351.72	227.47
352.10	227.57
352.48	227.64
352.87	227.70
353.25	227.76
353.63	227.83
354.01	227.89
354.39	227.95
354.77	228.03
355.15	228.13
355.54	228.17
355.92	228.19
356.30	228.27
356.68	228.42
357.06	228.50
357.44	228.55
357.82	228.61
358.20	228.73
358.58	228.78
358.97	228.84
359.35	228.92
359.73	228.99
360.11	229.04
360.49	229.10
360.87	229.14
361.25	229.22
361.63	229.30
362.01	229.35
362.39	229.37
362.77	229.42
363.15	229.45
363.53	229.49
363.91	229.52
364.29	229.54
364.67	229.43
365.05	229.45
365.43	229.50
365.81	229.53
366.19	229.55
366.57	229.60
366.95	229.60
367.33	229.58
367.71	229.58
368.09	229.60
368.47	229.59
368.85	229.58
369.23	229.58
369.61	229.52
369.99	229.53
370.37	229.54
370.75	229.60
371.13	229.57
371.51	229.53
371.89	229.50
372.27	229.47
372.65	229.46
373.03	229.41
373.41	229.35
373.78	229.30
374.16	229.19
374.54	229.11
374.92	229.05
375.30	229.01
375.68	228.94
376.06	228.89
376.44	228.84
376.82	228.79
377.19	228.74
377.57	228.69
377.95	228.61
378.33	228.55
378.71	228.39
379.09	228.33
379.47	228.30
379.84	228.24
380.22	228.18
380.60	228.11
380.98	228.06
381.36	228.02
381.73	227.96
382.11	227.93
382.49	227.90
382.87	227.84
383.25	227.79
383.62	227.91
384.00	227.85
384.38	227.81
384.76	227.80
385.13	227.79
385.51	227.75
385.89	227.69
386.27	227.66
386.64	227.64
387.02	227.60
387.40	227.55
387.78	227.53
388.15	227.52
388.53	227.48
388.91	227.46
389.29	227.43
389.66	227.43
390.04	227.39
390.42	227.38
390.79	227.37
391.17	227.35
391.55	227.18
391.92	227.17
392.30	227.17
392.68	227.13
393.05	227.11
393.43	227.11
393.81	227.12
394.18	227.10
394.56	227.10
394.94	227.12
395.31	227.12
395.69	227.17
396.06	227.20
396.44	227.23
396.82	227.23
397.19	227.32
397.57	227.32
397.95	227.37
398.32	227.37
398.70	227.43
399.07	227.48
399.45	227.51
399.82	227.56
400.20	227.60
400.58	227.66
400.95	227.67
401.33	227.74
401.70	227.91
402.08	228.00
402.45	228.10
402.83	228.21
403.20	228.34
403.58	228.42
403.95	228.57
404.33	228.71
404.71	228.86
405.08	229.06
405.46	229.23
405.83	229.42
406.21	229.61
406.58	229.81
406.96	230.04
407.33	230.31
407.70	230.58
408.08	230.98
408.45	231.31
408.83	231.67
409.20	232.00
409.58	232.28
409.95	232.70
410.33	233.13
410.70	233.55
411.08	234.02
411.45	234.54
411.82	235.06
412.20	235.67
412.57	236.38
412.95	236.95
413.32	237.69
413.69	238.45
414.07	239.25
414.44	240.14
414.82	241.02
415.19	242.06
415.56	243.11
415.94	244.21
416.31	245.44
416.68	246.68
417.06	248.11
417.43	249.45
417.81	250.98
418.18	252.57
418.55	254.28
418.93	256.05
419.30	257.91
419.67	259.88
420.04	261.90
420.42	264.01
420.79	266.44
421.16	268.91
421.54	271.41
421.91	274.02
422.28	276.73
422.66	279.66
423.03	282.46
423.40	285.39
423.77	288.54
424.15	291.76
424.52	295.13
424.89	298.77
425.26	302.38
425.64	305.75
426.01	309.53
426.38	313.39
426.75	317.38
427.13	321.48
427.50	325.76
427.87	330.22
428.24	334.73
428.61	339.06
428.99	343.75
429.36	348.89
429.73	353.80
430.10	358.73
430.47	363.76
430.85	368.95
431.22	374.51
431.59	380.22
431.96	385.81
432.33	392.02
432.70	397.94
433.08	404.92
433.45	411.52
433.82	418.04
434.19	425.32
434.56	432.50
434.93	439.45
435.30	446.31
435.68	454.06
436.05	461.67
436.42	469.24
436.79	476.15
437.16	483.61
437.53	491.59
437.90	499.60
438.27	507.42
438.64	515.86
439.01	523.52
439.38	530.51
439.75	537.25
440.13	544.83
440.50	552.02
440.87	557.74
441.24	564.01
441.61	570.83
441.98	575.76
442.35	581.59
442.72	587.53
443.09	593.19
443.46	596.73
443.83	599.29
444.20	601.40
444.57	604.58
444.94	606.30
445.31	608.07
445.68	609.53
446.05	610.55
446.42	609.94
446.79	609.14
447.16	608.39
447.53	607.70
447.90	605.03
448.27	602.46
448.64	598.70
449.01	595.98
449.37	590.86
449.74	586.23
450.11	580.34
450.48	573.92
450.85	567.52
451.22	562.02
451.59	556.66
451.96	551.77
452.33	544.83
452.70	538.66
453.07	531.17
453.43	523.71
453.80	516.48
454.17	509.59
454.54	503.23
454.91	496.09
455.28	489.41
455.65	483.09
456.02	476.45
456.38	471.13
456.75	464.28
457.12	458.78
457.49	453.24
457.86	448.01
458.23	443.46
458.59	438.40
458.96	433.23
459.33	428.68
459.70	424.06
460.07	420.55
460.43	416.43
460.80	412.59
461.17	409.28
461.54	405.66
461.91	402.28
462.27	398.85
462.64	396.10
463.01	392.91
463.38	389.69
463.74	386.81
464.11	384.25
464.48	381.97
464.85	379.48
465.21	377.61
465.58	375.51
465.95	373.08
466.32	371.17
466.68	369.29
467.05	367.41
467.42	365.55
467.78	363.55
468.15	361.72
468.52	360.39
468.88	358.56
469.25	356.91
469.62	355.61
469.98	354.19
470.35	352.93
470.72	351.79
471.08	350.63
471.45	349.65
471.82	348.55
472.18	347.38
472.55	346.63
472.92	345.68
473.28	344.95
473.65	344.16
474.02	343.39
474.38	342.77
474.75	342.40
475.11	341.90
475.48	341.67
475.85	341.39
476.21	341.25
476.58	341.17
476.94	341.32
477.31	341.39
477.67	341.49
478.04	341.69
478.41	341.99
478.77	342.43
479.14	342.71
479.50	343.25
479.87	343.94
480.23	344.64
480.60	345.32
480.96	345.99
481.33	346.99
481.69	348.01
482.06	348.99
482.42	349.89
482.79	351.01
483.15	352.33
483.52	353.82
483.88	355.25
484.25	356.77
484.61	358.34
484.98	360.04
485.34	361.97
485.71	363.98
486.07	366.12
486.44	368.27
486.80	370.67
487.17	373.17
487.53	375.89
487.90	378.73
488.26	381.83
488.62	385.11
488.99	388.37
489.35	391.81
489.72	395.54
490.08	399.49
490.44	403.55
490.81	407.76
491.17	412.08
491.54	416.73
491.90	421.53
492.26	426.69
492.63	432.07
492.99	437.67
493.36	443.48
493.72	449.57
494.08	455.84
494.45	462.47
494.81	469.35
495.17	476.44
495.54	483.90
495.90	491.68
496.26	499.63
496.63	507.83
496.99	516.33
497.35	525.23
497.72	534.41
498.08	543.80
498.44	553.52
498.80	563.82
499.17	574.34
499.53	585.22
499.89	596.45
500.26	607.90
500.62	619.66
500.98	632.03
501.34	644.58
501.71	657.61
502.07	670.84
502.43	684.62
502.79	698.61
503.16	713.06
503.52	727.68
503.88	742.73
504.24	758.22
504.60	773.92
504.97	790.12
505.33	806.72
505.69	824.20
506.05	842.01
506.41	859.70
506.78	877.61
507.14	895.99
507.50	914.83
507.86	933.99
508.22	953.38
508.59	972.60
508.95	992.64
509.31	1013.39
509.67	1034.78
510.03	1056.14
510.39	1077.56
510.75	1099.20
511.12	1121.06
511.48	1143.06
511.84	1165.16
512.20	1187.59
512.56	1210.80
512.92	1234.08
513.28	1256.92
513.64	1279.96
514.00	1303.41
514.37	1327.18
514.73	1350.95
515.09	1374.58
515.45	1398.52
515.81	1422.55
516.17	1446.73
516.53	1470.33
516.89	1493.79
517.25	1517.46
517.61	1541.04
517.97	1565.01
518.33	1588.41
518.69	1611.76
519.05	1635.59
519.41	1659.60
519.77	1683.77
520.13	1707.21
520.49	1730.53
520.85	1754.23
521.21	1777.43
521.57	1801.07
521.93	1824.12
522.29	1847.60
522.65	1870.52
523.01	1893.40
523.37	1915.87
523.73	1939.04
524.09	1961.95
524.45	1984.63
524.81	2006.86
525.17	2028.81
525.53	2050.20
525.89	2072.00
526.25	2093.82
526.61	2114.60
526.97	2135.49
527.33	2156.31
527.68	2176.85
528.04	2196.60
528.40	2215.32
528.76	2234.33
529.12	2252.77
529.48	2270.88
529.84	2287.25
530.20	2304.26
530.56	2320.59
530.91	2337.06
531.27	2353.11
531.63	2368.35
531.99	2383.21
532.35	2397.38
532.71	2411.69
533.07	2426.55
533.42	2439.65
533.78	2453.65
534.14	2467.88
534.50	2481.09
534.86	2494.09
535.21	2505.26
535.57	2516.82
535.93	2528.19
536.29	2538.44
536.65	2548.57
537.00	2558.10
537.36	2568.43
537.72	2577.33
538.08	2585.80
538.44	2593.61
538.79	2601.03
539.15	2607.71
539.51	2613.90
539.87	2619.49
540.22	2623.26
540.58	2627.06
540.94	2632.11
541.29	2635.56
541.65	2637.29
542.01	2638.50
542.37	2638.92
542.72	2640.62
543.08	2640.86
543.44	2641.58
543.79	2641.32
544.15	2640.21
544.51	2639.42
544.87	2637.64
545.22	2635.11
545.58	2631.92
545.94	2628.76
546.29	2624.39
546.65	2620.01
547.01	2615.56
547.36	2611.83
547.72	2608.05
548.07	2602.78
548.43	2596.04
548.79	2588.51
549.14	2582.19
549.50	2576.00
549.86	2569.05
550.21	2561.05
550.57	2553.82
550.92	2544.56
551.28	2535.80
551.64	2527.30
551.99	2518.42
552.35	2509.00
552.70	2499.90
553.06	2491.16
553.41	2481.89
553.77	2472.31
554.13	2462.60
554.48	2452.18
554.84	2440.58
555.19	2429.60
555.55	2418.62
555.90	2407.71
556.26	2397.28
556.61	2385.78
556.97	2372.87
557.32	2360.50
557.68	2348.00
558.03	2335.34
558.39	2323.72
558.74	2312.43
559.10	2299.60
559.45	2286.93
559.81	2274.91
560.16	2262.27
560.52	2249.81
560.87	2237.57
561.23	2224.69
561.58	2212.08
561.94	2199.09
562.29	2185.60
562.64	2172.78
563.00	2159.63
563.35	2146.97
563.71	2134.02
564.06	2121.07
564.42	2108.76
564.77	2095.86
565.12	2082.99
565.48	2070.10
565.83	2057.23
566.19	2044.44
566.54	2031.64
566.89	2017.88
567.25	2004.17
567.60	1991.70
567.96	1978.53
568.31	1964.11
568.66	1950.40
569.02	1937.64
569.37	1924.95
569.72	1912.77
570.08	1899.31
570.43	1885.56
570.78	1871.60
571.14	1857.17
571.49	1843.38
571.84	1830.09
572.20	1815.74
572.55	1801.60
572.90	1787.32
573.26	1773.09
573.61	1758.38
573.96	1744.15
574.31	1730.11
574.67	1716.11
575.02	1701.25
575.37	1686.34
575.72	1672.38
576.08	1658.69
576.43	1643.99
576.78	1629.67
577.13	1615.61
577.49	1602.00
577.84	1588.94
578.19	1574.99
578.54	1561.23
578.90	1547.02
579.25	1532.71
579.60	1519.86
579.95	1506.93
580.30	1493.84
580.66	1480.53
581.01	1467.18
581.36	1453.82
581.71	1441.43
582.06	1428.92
582.42	1416.66
582.77	1404.50
583.12	1392.25
583.47	1379.85
583.82	1367.60
584.17	1355.02
584.53	1342.15
584.88	1329.60
585.23	1316.72
585.58	1304.61
585.93	1292.72
586.28	1281.45
586.63	1270.22
586.98	1258.53
587.34	1246.90
587.69	1235.08
588.04	1223.58
588.39	1212.48
588.74	1201.47
589.09	1190.27
589.44	1178.72
589.79	1167.73
590.14	1156.87
590.49	1145.93
590.84	1135.16
591.19	1124.72
591.54	1114.14
591.89	1103.71
592.25	1093.48
592.60	1082.96
592.95	1072.78
593.30	1062.75
593.65	1052.48
594.00	1042.29
594.35	1032.69
594.70	1022.67
595.05	1013.50
595.40	1004.20
595.75	994.75
596.10	985.82
596.45	976.63
596.80	967.74
597.15	958.66
597.50	949.69
597.85	941.11
598.19	932.41
598.54	923.75
598.89	915.49
599.24	907.50
599.59	899.34
599.94	892.04
600.29	884.58
600.64	876.88
600.99	868.85
601.34	861.19
601.69	853.15
602.04	845.80
602.39	838.26
602.74	830.77
603.08	823.28
603.43	815.75
603.78	808.36
604.13	801.15
604.48	793.89
604.83	786.83
605.18	779.67
605.53	772.69
605.87	765.55
606.22	758.72
606.57	751.83
606.92	744.85
607.27	737.77
607.62	730.99
607.96	724.59
608.31	718.58
608.66	712.37
609.01	706.47
609.36	700.64
609.70	694.62
610.05	688.59
610.40	682.79
610.75	677.01
611.10	671.53
611.44	665.89
611.79	660.37
612.14	654.76
612.49	649.28
612.83	644.03
613.18	638.90
613.53	633.68
613.88	628.50
614.22	623.71
614.57	618.86
614.92	613.85
615.27	608.93
615.61	604.06
615.96	599.29
616.31	594.51
616.65	589.79
617.00	585.24
617.35	580.80
617.70	576.41
618.04	572.06
618.39	567.64
618.74	563.45
619.08	559.29
619.43	555.26
619.78	551.24
620.12	547.16
620.47	543.25
620.82	539.44
621.16	535.62
621.51	531.72
621.85	527.86
622.20	524.19
622.55	520.53
622.89	516.94
623.24	513.33
623.59	509.76
623.93	506.33
624.28	502.98
624.62	499.74
624.97	496.52
625.32	493.28
625.66	489.99
626.01	486.65
626.35	483.40
626.70	480.19
627.04	477.09
627.39	474.00
627.73	471.03
628.08	468.13
628.43	465.24
628.77	462.43
629.12	459.71
629.46	457.01
629.81	454.24
630.15	451.46
630.50	448.79
630.84	446.14
631.19	443.54
631.53	441.04
631.88	438.51
632.22	436.01
632.57	433.75
632.91	431.52
633.26	429.40
633.60	427.28
633.95	425.21
634.29	423.09
634.64	421.01
634.98	418.74
635.32	416.64
635.67	414.71
636.01	412.66
636.36	410.68
636.70	408.84
637.05	406.98
637.39	405.16
637.73	403.35
638.08	401.67
638.42	399.95
638.77	398.13
639.11	396.22
639.45	394.41
639.80	392.52
640.14	390.76
640.49	388.96
640.83	387.13
641.17	385.40
641.52	383.69
641.86	382.00
642.20	380.51
642.55	378.85
642.89	377.21
643.23	375.68
643.58	374.29
643.92	372.76
644.26	371.30
644.61	369.88
644.95	368.42
645.29	366.88
645.64	365.37
645.98	363.93
646.32	362.61
646.66	361.25
647.01	359.92
647.35	358.64
647.69	357.33
648.04	356.15
648.38	354.89
648.72	353.66
649.06	352.42
649.41	351.20
649.75	350.04
650.09	348.88
650.43	347.71
650.78	346.50
651.12	345.32
651.46	344.18
651.80	343.06
652.14	341.98
652.49	340.94
652.83	339.88
653.17	338.85
653.51	337.85
653.85	336.92
654.20	335.93
654.54	334.85
654.88	333.88
655.22	332.91
655.56	331.93
655.90	331.01
656.25	330.11
656.59	329.18
656.93	328.32
657.27	327.47
657.61	326.56
657.95	325.70
658.29	324.82
658.64	324.00
658.98	323.17
659.32	322.36
659.66	321.59
660.00	320.83
660.34	320.09
660.68	319.29
661.02	318.45
661.36	317.67
661.70	316.92
662.05	316.18
662.39	315.46
662.73	314.80
663.07	314.15
663.41	313.46
663.75	312.75
664.09	312.04
664.43	311.29
664.77	310.63
665.11	309.93
665.45	309.29
665.79	308.64
666.13	307.96
666.47	307.27
666.81	306.56
667.15	305.82
667.49	305.18
667.83	304.61
668.17	304.01
668.51	303.45
668.85	302.91
669.19	302.39
669.53	301.77
669.87	301.14
670.21	300.52
670.55	299.95
670.89	299.46
671.23	298.92
671.57	298.40
671.91	297.91
672.25	297.44
672.58	296.97
672.92	296.41
673.26	295.95
673.60	295.48
673.94	295.04
674.28	294.62
674.62	294.16
674.96	293.65
675.30	293.20
675.64	292.71
675.97	292.20
676.31	291.67
676.65	291.19
676.99	290.79
677.33	290.29
677.67	289.85
678.01	289.32
678.34	288.86
678.68	288.44
679.02	287.95
679.36	287.47
679.70	287.00
680.04	286.58
680.37	286.12
680.71	285.69
681.05	285.26
681.39	284.80
681.73	284.32
682.06	283.85
682.40	283.41
682.74	283.01
683.08	282.66
683.42	282.26
683.75	281.89
684.09	281.42
684.43	281.03
684.77	280.62
685.10	280.27
685.44	279.88
685.78	279.49
686.12	279.13
686.45	278.74
686.79	278.33
687.13	277.94
687.46	277.54
687.80	277.16
688.14	276.73
688.48	276.37
688.81	275.97
689.15	275.63
689.49	275.24
689.82	274.85
690.16	274.39
690.50	274.00
690.83	273.62
691.17	273.23
691.51	272.86
691.84	272.50
692.18	272.09
692.52	271.68
692.85	271.30
693.19	270.95
693.52	270.57
693.86	270.20
694.20	269.84
694.53	269.49
694.87	269.10
695.21	268.75
695.54	268.38
695.88	268.03
696.21	267.64
696.55	267.28
696.88	266.93
697.22	266.60
697.56	266.26
697.89	265.85
698.23	265.50
698.56	265.12
698.90	264.78
699.23	264.42
699.57	264.08
699.90	263.73
700.24	263.36
700.58	263.04
700.91	262.75
701.25	262.54
701.58	262.26
701.92	261.99
702.25	261.68
702.59	261.35
702.92	261.03
703.26	260.71
703.59	260.38
703.93	260.16
704.26	259.86
704.60	259.54
704.93	259.23
705.26	258.93
705.60	258.68
705.93	258.35
706.27	258.10
706.60	257.84
706.94	257.60
707.27	257.27
707.61	256.98
707.94	256.65
708.27	256.23
708.61	255.89
708.94	255.57
709.28	255.29
709.61	255.02
709.94	254.77
710.28	254.52
710.61	254.30
710.95	253.92
711.28	253.73
711.61	253.47
711.95	253.25
712.28	252.98
712.61	252.70
712.95	252.52
713.28	252.33
713.61	252.04
713.95	251.76
714.28	251.53
714.61	251.27
714.95	251.03
715.28	250.80
715.61	250.57
715.95	250.35
716.28	250.13
716.61	249.92
716.95	249.68
717.28	249.46
717.61	249.21
717.94	249.01
718.28	248.70
718.61	248.49
718.94	248.26
719.27	248.06
719.61	247.87
719.94	247.61
720.27	247.34
720.60	247.14
720.94	246.94
721.27	246.75
721.60	246.57
721.93	246.38
722.27	246.22
722.60	246.04
722.93	245.83
723.26	245.64
723.59	245.43
723.93	245.25
724.26	245.07
724.59	244.88
724.92	244.71
725.25	244.58
725.59	244.40
725.92	244.25
726.25	244.08
726.58	243.91
726.91	243.75
727.24	243.59
727.57	243.44
727.91	243.26
728.24	243.13
728.57	242.96
728.90	242.82
729.23	242.63
729.56	242.53
729.89	242.38
730.22	242.22
730.55	242.07
730.89	241.92
731.22	241.76
731.55	241.60
731.88	241.45
732.21	241.28
732.54	241.13
732.87	241.00
733.20	240.87
733.53	240.73
733.86	240.60
734.19	240.44
734.52	240.32
734.85	240.28
735.18	240.11
735.51	240.01
735.84	239.88
736.17	239.79
736.50	239.60
736.83	239.63
737.16	239.51
737.49	239.39
737.82	239.26
738.15	239.17
738.48	239.05
738.81	238.94
739.14	238.81
739.47	238.68
739.80	238.55
740.13	238.44
740.46	238.30
740.79	238.17
741.12	238.06
741.45	237.92
741.78	237.73
742.11	237.66
742.44	237.51
742.77	237.42
743.10	237.29
743.43	237.17
743.75	236.93
744.08	237.02
744.41	236.91
744.74	236.81
745.07	236.67
745.40	236.59
745.73	236.55
746.06	236.45
746.39	236.37
746.71	236.27
747.04	236.16
747.37	236.07
747.70	236.01
748.03	235.93
748.36	235.85
748.68	235.76
749.01	235.63
749.34	235.54
749.67	235.45
750.00	235.38
750.33	235.39
750.65	235.31
750.98	235.05
751.31	234.96
751.64	234.88
751.97	234.85
752.29	234.76
752.62	234.62
752.95	234.53
753.28	234.43
753.60	234.35
753.93	234.30
754.26	234.24
754.59	234.10
754.91	234.01
755.24	233.91
755.57	233.89
755.90	233.82
756.22	233.73
756.55	233.63
756.88	233.52
757.20	233.35
757.53	233.24
757.86	233.16
758.19	233.09
758.51	233.01
758.84	232.89
759.17	232.80
759.49	232.74
759.82	232.73
760.15	232.67
760.47	232.60
760.80	232.49
761.13	232.45
761.45	232.40
761.78	232.35
762.11	232.29
762.43	232.15
762.76	232.09
763.08	232.05
763.41	232.00
763.74	231.95
764.06	231.88
764.39	231.84
764.71	231.78
765.04	231.71
765.37	231.65
765.69	231.60
766.02	231.54
766.34	231.49
766.67	231.38
767.00	231.36
767.32	231.37
767.65	231.41
767.97	231.34
768.30	231.29
768.62	231.23
768.95	231.18
769.27	231.14
769.60	231.11
769.92	231.04
770.25	230.99
770.57	230.93
770.90	230.90
771.22	230.84
771.55	230.81
771.87	230.78
772.20	230.74
772.52	230.82
772.85	230.94
773.17	230.89
773.50	230.85
773.82	230.79
774.15	230.69
774.47	230.56
774.80	230.52
775.12	230.49
775.45	230.46
775.77	230.43
776.09	230.41
776.42	230.37
776.74	230.39
777.07	230.35
777.39	230.32
777.72	230.28
778.04	230.26
778.36	230.22
778.69	230.19
779.01	230.17
779.33	230.02
779.66	229.84
779.98	229.82
780.31	229.79
780.63	229.81
780.95	229.81
781.28	229.78
781.60	229.76
781.92	229.74
782.25	229.71
782.57	229.67
782.89	229.64
783.22	229.61
783.54	229.55
783.86	229.54
784.19	229.50
784.51	229.52
784.83	229.49
785.16	229.46
785.48	229.45
785.80	229.42
786.12	229.42
786.45	229.39
786.77	229.38
787.09	229.35
787.42	229.29
787.74	229.26
788.06	229.24
788.38	229.20
788.71	229.17
789.03	229.15
789.35	229.16
789.67	229.13
789.99	229.13
790.32	229.10
790.64	229.09
790.96	229.19
791.28	229.12
791.61	229.09
791.93	229.08
792.25	229.04
792.57	229.11
792.89	229.06
793.21	229.05
793.54	229.02
793.86	228.99
794.18	228.98
794.50	228.94
794.82	228.93
795.14	228.93
795.47	228.93
795.79	228.92
796.11	228.87
796.43	228.84
796.75	228.82
797.07	228.80
797.39	228.78
797.71	228.66
798.04	228.66
798.36	228.65
798.68	228.63
799.00	228.64
799.32	228.55
799.64	228.56
799.96	228.54
800.28	228.55
800.60	228.53
800.92	228.51
801.24	228.49
801.56	228.48
801.89	228.46
802.21	228.45
802.53	228.41
802.85	228.42
803.17	228.49
803.49	228.45
803.81	228.43
804.13	228.40
804.45	228.36
804.77	228.36
805.09	228.35
805.41	228.33
805.73	228.28
806.05	228.24
806.37	228.22
806.69	228.20
807.01	228.17
807.33	228.17
807.65	228.12
807.97	228.17
808.28	228.14
808.60	228.13
808.92	228.09
809.24	228.16
809.56	228.13
809.88	228.07
810.20	228.06
810.52	228.08
810.84	228.04
811.16	228.01
811.48	227.99
811.80	228.03
812.12	228.02
812.43	228.04
812.75	228.03
813.07	228.01
813.39	228.01
813.71	227.99
814.03	227.96
814.35	227.96
814.67	227.89
814.98	227.87
815.30	227.86
815.62	227.84
815.94	227.75
816.26	227.74
816.58	227.72
816.89	227.72
817.21	227.68
817.53	227.69
817.85	227.70
818.17	227.68
818.48	227.61
818.80	227.63
819.12	227.60
819.44	227.57
819.76	227.55
820.07	227.53
820.39	227.52
820.71	227.53
821.03	227.53
821.34	227.52
821.66	227.53
821.98	227.54
822.30	227.53
822.61	227.60
822.93	227.58
823.25	227.56
823.57	227.54
823.88	227.55
824.20	227.55
824.52	227.56
824.83	227.56
825.15	227.54
825.47	227.53
825.79	227.54
826.10	227.53
826.42	227.52
826.74	227.52
827.05	227.53
827.37	227.52
827.69	227.51
828.00	227.51
828.32	227.51
828.64	227.48
828.95	227.55
829.27	227.49
829.58	227.50
829.90	227.51
830.22	227.52
830.53	227.49
830.85	227.47
831.17	227.43
831.48	227.42
831.80	227.42
832.11	227.40
832.43	227.38
832.75	227.38
833.06	227.46
833.38	227.42
833.69	227.41
834.01	227.41
834.32	227.40
834.64	227.37
834.96	227.37
835.27	227.36
835.59	227.31
835.90	227.30
836.22	227.29
836.53	227.26
836.85	227.24
837.16	227.35
837.48	227.35
837.79	227.40
838.11	227.41
838.42	227.41
838.74	227.42
839.05	227.41
839.37	227.40
839.68	227.32
840.00	227.32
840.31	227.33
840.63	227.31
840.94	227.30
841.26	227.29
841.57	227.28
841.88	227.29
842.20	227.26
842.51	227.24
842.83	227.23
843.14	227.35
843.46	227.34
843.77	227.27
844.08	227.27
844.40	227.22
844.71	227.19
845.03	227.17
845.34	227.15
845.65	227.14
845.97	227.14
846.28	227.14
846.60	227.14
846.91	227.12
847.22	227.10
847.54	227.12
847.85	227.13
848.16	227.11
848.48	227.09
848.79	227.14
849.10	227.15
849.42	227.14
849.73	227.03
850.04	227.02
850.36	226.97
850.67	226.99
850.98	226.99
851.30	227.01
851.61	227.00
851.92	227.00
852.23	227.04
852.55	227.03
852.86	227.03
853.17	227.03
853.49	227.05
853.80	227.07
854.11	227.08
854.42	227.09
854.74	227.07
855.05	227.08
855.36	227.01
855.67	227.00
855.99	227.01
856.30	227.15
856.61	227.15
856.92	227.15
857.23	227.15
857.55	227.13
857.86	227.12
858.17	227.14
858.48	227.12
858.79	227.09
859.11	227.11
859.42	227.11
859.73	227.08
860.04	227.08
860.35	227.05
860.66	227.01
860.98	227.00
861.29	227.03
861.60	227.01
861.91	227.04
862.22	227.03
862.53	227.00
862.84	226.85
863.16	226.87
863.47	226.85
863.78	226.83
864.09	226.85
864.40	226.86
864.71	226.86
865.02	226.88
865.33	226.86
865.64	226.83
865.95	226.83
866.27	226.91
866.58	226.90
866.89	226.90
867.20	226.91
867.51	226.90
867.82	226.88
868.13	226.93
868.44	226.91
868.75	226.93
869.06	226.95
869.37	226.97
869.68	226.94
869.99	226.97
870.30	226.98
870.61	226.98
870.92	226.95
871.23	226.94
871.54	226.95
871.85	226.98
872.16	227.01
872.47	227.00
872.78	226.93
873.09	226.93
873.40	226.93
873.71	226.93
874.02	226.93
874.33	226.93
874.64	226.89
874.95	226.91
875.26	226.88
875.56	226.88
875.87	226.87
876.18	226.86
876.49	226.98
876.80	226.96
877.11	226.94
877.42	226.96
877.73	226.95
878.04	226.93
878.35	226.93
878.66	226.93
878.96	226.93
879.27	226.93
879.58	226.91
879.89	226.90
880.20	226.94
880.51	226.94
880.82	226.95
881.12	226.97
881.43	226.94
881.74	226.91
882.05	226.90
882.36	226.90
882.67	226.91
882.97	226.77
883.28	226.76
883.59	226.77
883.90	226.78
884.21	226.81
884.51	226.80
884.82	226.78
885.13	226.77
885.44	226.77
885.74	226.77
886.05	226.76
886.36	226.77
886.67	226.72
886.98	226.77
887.28	226.78
887.59	226.77
887.90	226.78
888.20	226.78
888.51	226.81
888.82	226.78
889.13	226.79
889.43	226.90
889.74	226.90
890.05	226.89
890.35	226.87
890.66	226.85
890.97	226.84
891.28	226.84
891.58	226.83
891.89	226.83
892.20	226.81
892.50	226.81
892.81	226.80
893.12	226.80
893.42	226.73
893.73	226.74
894.04	226.74
894.34	226.75
894.65	226.75
894.95	226.74
895.26	226.74
895.57	226.79
895.87	226.67
896.18	226.70
896.48	226.71
896.79	226.70
897.10	226.71
897.40	226.72
897.71	226.73
898.01	226.73
898.32	226.75
898.63	226.74
898.93	226.74
899.24	226.74
899.54	226.74
899.85	226.74
900.15	226.73
900.46	226.73
900.76	226.74
901.07	226.73
901.38	226.72
901.68	226.74
901.99	226.68
902.29	226.70
902.60	226.68
902.90	226.66
903.21	226.66
903.51	226.65
903.82	226.67
904.12	226.68
904.43	226.69
904.73	226.68
905.03	226.70
905.34	226.82
905.64	226.81
905.95	226.81
906.25	226.81
906.56	226.81
906.86	226.81
907.17	226.80
907.47	226.80
907.77	226.81
908.08	226.78
908.38	226.79
908.69	226.80
908.99	226.82
909.30	226.83
909.60	226.82
909.90	226.82
910.21	226.79
910.51	226.76
910.81	226.76
911.12	226.77
911.42	226.76
911.73	226.64
912.03	226.66
912.33	226.68
912.64	226.67
912.94	226.65
913.24	226.63
913.55	226.62
913.85	226.61
914.15	226.63
914.46	226.65
914.76	226.63
915.06	226.62
915.37	226.60
915.67	226.59
915.97	226.60
916.27	226.57
916.58	226.58
916.88	226.57
917.18	226.56
917.49	226.63
917.79	226.63
918.09	226.64
918.39	226.67
918.70	226.65
919.00	226.66
919.30	226.73
919.60	226.72
919.91	226.70
920.21	226.72
920.51	226.68
920.81	226.66
921.12	226.68
921.42	226.68
921.72	226.68
922.02	226.70
922.32	226.71
922.63	226.73
922.93	226.79
923.23	226.80
923.53	226.79
923.83	226.71
924.13	226.73
924.44	226.72
924.74	226.74
925.04	226.77
925.34	226.76
925.64	226.71
925.94	226.71
926.24	226.79
926.55	226.78
926.85	226.79
927.15	226.79
927.45	226.79
927.75	226.77
928.05	226.78
928.35	226.77
928.65	226.80
928.95	226.80
929.26	226.74
929.56	226.76
929.86	226.78
930.16	226.77
930.46	226.75
930.76	226.75
931.06	226.69
931.36	226.66
931.66	226.68
931.96	226.69
932.26	226.71
932.56	226.64
932.86	226.65
933.16	226.65
933.46	226.64
933.76	226.63
934.06	226.65
934.36	226.70
934.66	226.70
934.96	226.66
935.26	226.66
935.56	226.68
935.86	226.65
936.16	226.63
936.46	226.63
936.76	226.62
937.06	226.60
937.36	226.61
937.66	226.62
937.96	226.62
938.26	226.59
938.56	226.57
938.86	226.59
939.16	226.62
939.46	226.63
939.76	226.64
940.06	226.64
940.35	226.61
940.65	226.54
940.95	226.55
941.25	226.52
941.55	226.51
941.85	226.51
942.15	226.53
942.45	226.56
942.75	226.55
943.04	226.56
943.34	226.60
943.64	226.59
943.94	226.57
944.24	226.56
944.54	226.57
944.84	226.56
945.13	226.53
945.43	226.51
945.73	226.50
946.03	226.49
946.33	226.48
946.62	226.47
946.92	226.46
947.22	226.46
947.52	226.47
947.82	226.48
948.11	226.46
948.41	226.43
948.71	226.40
949.01	226.41
949.31	226.39
949.60	226.37
949.90	226.38
950.20	226.38
950.50	226.38
950.79	226.37
951.09	226.39
951.39	226.39
951.69	226.38
951.98	226.41
952.28	226.40
952.58	226.40
952.87	226.41
953.17	226.43
953.47	226.43
953.76	226.41
954.06	226.40
954.36	226.39
954.66	226.39
954.95	226.42
955.25	226.42
955.55	226.43
955.84	226.42
956.14	226.43
956.44	226.43
956.73	226.42
957.03	226.42
957.32	226.42
957.62	226.41
957.92	226.44
958.21	226.42
958.51	226.58
958.81	226.59
959.10	226.60
959.40	226.63
959.69	226.62
959.99	226.65
960.29	226.66
960.58	226.64
960.88	226.69
961.17	226.67
961.47	226.69
961.76	226.68
962.06	226.69
962.36	226.67
962.65	226.69
962.95	226.69
963.24	226.68
963.54	226.69
963.83	226.70
964.13	226.69
964.42	226.68
964.72	226.57
965.01	226.57
965.31	226.57
965.60	226.54
965.90	226.62
966.19	226.58
966.49	226.60
966.78	226.60
967.08	226.59
967.37	226.59
967.67	226.56
967.96	226.59
968.26	226.59
968.55	226.61
968.85	226.60
969.14	226.60
969.43	226.61
969.73	226.59
970.02	226.58
970.32	226.57
970.61	226.55
970.91	226.52
971.20	226.51
971.49	226.49
971.79	226.50
972.08	226.41
972.38	226.43
972.67	226.42
972.96	226.44
973.26	226.41
973.55	226.46
973.85	226.46
974.14	226.44
974.43	226.44
974.73	226.42
975.02	226.40
975.31	226.40
975.61	226.40
975.90	226.39
976.19	226.39
976.49	226.40
976.78	226.40
977.07	226.40
977.37	226.41
977.66	226.42
977.95	226.40
978.24	226.42
978.54	226.44
978.83	226.42
979.12	226.41
979.42	226.40
979.71	226.37
980.00	226.36
980.29	226.36
980.59	226.34
980.88	226.37
981.17	226.39
981.46	226.39
981.76	226.39
982.05	226.42
982.34	226.43
982.63	226.43
982.93	226.44
983.22	226.46
983.51	226.47
983.80	226.49
984.09	226.51
984.39	226.50
984.68	226.48
984.97	226.49
985.26	226.49
985.55	226.50
985.85	226.47
986.14	226.49
986.43	226.51
986.72	226.50
987.01	226.46
987.30	226.46
987.59	226.46
987.89	226.46
988.18	226.42
988.47	226.41
988.76	226.40
989.05	226.40
989.34	226.38
989.63	226.41
989.92	226.40
990.22	226.37
990.51	226.37
990.80	226.36
991.09	226.38
991.38	226.40
991.67	226.39
991.96	226.39
992.25	226.40
992.54	226.39
992.83	226.39
993.12	226.40
993.41	226.42
993.70	226.46
993.99	226.49
994.28	226.51
994.58	226.53
994.87	226.52
995.16	226.52
995.45	226.51
995.74	226.47
996.03	226.48
996.32	226.51
996.61	226.53
996.90	226.54
997.19	226.52
997.48	226.52
997.77	226.51
998.06	226.51
998.34	226.49
998.63	226.49
998.92	226.49
999.21	226.51
999.50	226.50
999.79	226.46
1000.08	226.45
1000.37	226.45
1000.66	226.43
1000.95	226.47
1001.24	226.48
1001.53	226.48
1001.82	226.49
1002.11	226.46
1002.40	226.48
1002.68	226.50
1002.97	226.59
1003.26	226.59
1003.55	226.57
1003.84	226.57
1004.13	226.62
1004.42	226.62
1004.71	226.62
1004.99	226.61
1005.28	226.64
1005.57	226.64
1005.86	226.62
1006.15	226.62
1006.44	226.60
1006.72	226.62
1007.01	226.59
1007.30	226.59
1007.59	226.58
1007.88	226.58
1008.17	226.59
1008.45	226.55
1008.74	226.50
1009.03	226.44
1009.32	226.43
1009.60	226.44
1009.89	226.42
1010.18	226.37
1010.47	226.36
1010.76	226.37
1011.04	226.37
1011.33	226.36
1011.62	226.37
1011.91	226.38
1012.19	226.38
1012.48	226.38
1012.77	226.37
1013.05	226.42
1013.34	226.40
1013.63	226.40
1013.92	226.39
1014.20	226.38
1014.49	226.39
1014.78	226.39
1015.06	226.35
1015.35	226.36
1015.64	226.37
1015.92	226.39
1016.21	226.40
1016.50	226.41
1016.78	226.42
1017.07	226.43
1017.36	226.41
1017.64	226.39
1017.93	226.40
1018.22	226.39
1018.50	226.39
1018.79	226.39
1019.08	226.35
1019.36	226.36
1019.65	226.35
1019.93	226.39
1020.22	226.41
1020.51	226.47
1020.79	226.47
1021.08	226.31
1021.36	226.19
1021.65	226.44
1021.94	226.35
1022.22	226.54
1022.51	226.18
1022.79	227.00
1023.08	226.50
1023.36	227.87
1023.65	226.23
>>>>>End Processed Spectral Data<<<<<
