SpectraSuite Data File
++++++++++++++++++++++++++++++++++++
Date: Fri Oct 02 22:41:32 EDT 2015
User: lab3
Dark Spectrum Present: No
Reference Spectrum Present: No
Number of Sampled Component Spectra: 1
Spectrometers: USB2E7196
Integration Time (usec): 46000 (USB2E7196)
Spectra Averaged: 12000 (USB2E7196)
Boxcar Smoothing: 10 (USB2E7196)
Correct for Electrical Dark: No (USB2E7196)
Strobe/Lamp Enabled: No (USB2E7196)
Correct for Detector Non-linearity: No (USB2E7196)
Correct for Stray Light: No (USB2E7196)
Number of Pixels in Processed Spectrum: 2048
>>>>>Begin Processed Spectral Data<<<<<
339.09	0.00
339.48	215.08
339.86	216.59
340.24	217.91
340.63	219.37
341.01	222.62
341.39	222.07
341.78	223.42
342.16	224.63
342.54	225.05
342.93	213.47
343.31	224.26
343.69	224.79
344.07	225.25
344.46	225.69
344.84	226.07
345.22	226.30
345.60	226.55
345.99	226.75
346.37	226.89
346.75	227.00
347.13	227.08
347.52	227.14
347.90	227.24
348.28	227.28
348.66	227.34
349.05	227.34
349.43	227.39
349.81	227.45
350.19	227.51
350.57	227.58
350.96	227.66
351.34	227.76
351.72	227.85
352.10	227.97
352.48	228.04
352.87	228.09
353.25	228.16
353.63	228.22
354.01	228.28
354.39	228.36
354.77	228.44
355.15	228.54
355.54	228.60
355.92	228.62
356.30	228.70
356.68	228.85
357.06	228.93
357.44	228.97
357.82	229.03
358.20	229.15
358.58	229.21
358.97	229.27
359.35	229.36
359.73	229.44
360.11	229.49
360.49	229.55
360.87	229.61
361.25	229.67
361.63	229.76
362.01	229.81
362.39	229.84
362.77	229.89
363.15	229.91
363.53	229.94
363.91	229.98
364.29	230.00
364.67	229.90
365.05	229.92
365.43	229.96
365.81	229.99
366.19	230.00
366.57	230.06
366.95	230.06
367.33	230.03
367.71	230.02
368.09	230.04
368.47	230.03
368.85	230.02
369.23	230.03
369.61	229.96
369.99	229.98
370.37	229.99
370.75	230.06
371.13	230.02
371.51	229.98
371.89	229.96
372.27	229.94
372.65	229.92
373.03	229.88
373.41	229.84
373.78	229.79
374.16	229.68
374.54	229.60
374.92	229.55
375.30	229.52
375.68	229.45
376.06	229.40
376.44	229.35
376.82	229.31
377.19	229.26
377.57	229.21
377.95	229.12
378.33	229.05
378.71	228.89
379.09	228.84
379.47	228.81
379.84	228.75
380.22	228.68
380.60	228.61
380.98	228.56
381.36	228.51
381.73	228.45
382.11	228.42
382.49	228.38
382.87	228.32
383.25	228.27
383.62	228.37
384.00	228.30
384.38	228.26
384.76	228.25
385.13	228.24
385.51	228.20
385.89	228.15
386.27	228.12
386.64	228.11
387.02	228.06
387.40	228.01
387.78	227.99
388.15	227.96
388.53	227.93
388.91	227.90
389.29	227.86
389.66	227.86
390.04	227.82
390.42	227.82
390.79	227.81
391.17	227.79
391.55	227.63
391.92	227.62
392.30	227.63
392.68	227.59
393.05	227.57
393.43	227.57
393.81	227.57
394.18	227.55
394.56	227.55
394.94	227.59
395.31	227.58
395.69	227.63
396.06	227.66
396.44	227.69
396.82	227.70
397.19	227.79
397.57	227.80
397.95	227.85
398.32	227.84
398.70	227.89
399.07	227.96
399.45	227.99
399.82	228.04
400.20	228.07
400.58	228.13
400.95	228.14
401.33	228.22
401.70	228.37
402.08	228.48
402.45	228.56
402.83	228.68
403.20	228.79
403.58	228.88
403.95	229.01
404.33	229.17
404.71	229.31
405.08	229.51
405.46	229.67
405.83	229.85
406.21	230.04
406.58	230.26
406.96	230.47
407.33	230.72
407.70	230.99
408.08	231.37
408.45	231.69
408.83	232.05
409.20	232.37
409.58	232.66
409.95	233.05
410.33	233.48
410.70	233.88
411.08	234.36
411.45	234.87
411.82	235.38
412.20	235.96
412.57	236.66
412.95	237.20
413.32	237.92
413.69	238.65
414.07	239.43
414.44	240.28
414.82	241.14
415.19	242.15
415.56	243.17
415.94	244.23
416.31	245.42
416.68	246.61
417.06	248.00
417.43	249.29
417.81	250.78
418.18	252.30
418.55	253.96
418.93	255.68
419.30	257.48
419.67	259.39
420.04	261.35
420.42	263.39
420.79	265.75
421.16	268.13
421.54	270.56
421.91	273.09
422.28	275.71
422.66	278.53
423.03	281.24
423.40	284.07
423.77	287.10
424.15	290.20
424.52	293.44
424.89	296.94
425.26	300.42
425.64	303.65
426.01	307.29
426.38	311.00
426.75	314.84
427.13	318.77
427.50	322.89
427.87	327.16
428.24	331.49
428.61	335.64
428.99	340.12
429.36	345.04
429.73	349.75
430.10	354.46
430.47	359.28
430.85	364.23
431.22	369.56
431.59	375.05
431.96	380.39
432.33	386.32
432.70	391.97
433.08	398.65
433.45	404.96
433.82	411.19
434.19	418.13
434.56	424.98
434.93	431.58
435.30	438.12
435.68	445.51
436.05	452.74
436.42	459.94
436.79	466.52
437.16	473.62
437.53	481.22
437.90	488.82
438.27	496.26
438.64	504.28
439.01	511.55
439.38	518.20
439.75	524.60
440.13	531.82
440.50	538.67
440.87	544.10
441.24	550.06
441.61	556.55
441.98	561.26
442.35	566.86
442.72	572.56
443.09	577.99
443.46	581.40
443.83	583.88
444.20	585.93
444.57	589.02
444.94	590.72
445.31	592.50
445.68	593.99
446.05	595.04
446.42	594.55
446.79	593.88
447.16	593.28
447.53	592.71
447.90	590.26
448.27	587.90
448.64	584.41
449.01	581.95
449.37	577.17
449.74	572.84
450.11	567.29
450.48	561.25
450.85	555.20
451.22	550.02
451.59	544.97
451.96	540.40
452.33	533.80
452.70	527.95
453.07	520.81
453.43	513.71
453.80	506.82
454.17	500.24
454.54	494.18
454.91	487.35
455.28	480.96
455.65	474.94
456.02	468.60
456.38	463.49
456.75	456.90
457.12	451.61
457.49	446.27
457.86	441.25
458.23	436.87
458.59	432.00
458.96	427.02
459.33	422.65
459.70	418.20
460.07	414.83
460.43	410.85
460.80	407.15
461.17	403.95
461.54	400.45
461.91	397.20
462.27	393.89
462.64	391.23
463.01	388.13
463.38	385.03
463.74	382.22
464.11	379.76
464.48	377.55
464.85	375.14
465.21	373.33
465.58	371.30
465.95	368.96
466.32	367.10
466.68	365.28
467.05	363.44
467.42	361.64
467.78	359.70
468.15	357.91
468.52	356.62
468.88	354.85
469.25	353.25
469.62	351.99
469.98	350.60
470.35	349.36
470.72	348.25
471.08	347.11
471.45	346.16
471.82	345.09
472.18	343.94
472.55	343.21
472.92	342.28
473.28	341.56
473.65	340.78
474.02	340.03
474.38	339.41
474.75	339.05
475.11	338.54
475.48	338.30
475.85	338.04
476.21	337.90
476.58	337.81
476.94	337.94
477.31	338.00
477.67	338.08
478.04	338.27
478.41	338.56
478.77	338.97
479.14	339.22
479.50	339.71
479.87	340.36
480.23	341.00
480.60	341.64
480.96	342.27
481.33	343.23
481.69	344.18
482.06	345.12
482.42	345.99
482.79	347.07
483.15	348.31
483.52	349.73
483.88	351.09
484.25	352.56
484.61	354.08
484.98	355.72
485.34	357.58
485.71	359.51
486.07	361.59
486.44	363.65
486.80	365.96
487.17	368.35
487.53	370.97
487.90	373.71
488.26	376.70
488.62	379.86
488.99	383.01
489.35	386.33
489.72	389.93
490.08	393.72
490.44	397.64
490.81	401.70
491.17	405.88
491.54	410.36
491.90	415.01
492.26	419.96
492.63	425.15
492.99	430.57
493.36	436.17
493.72	442.07
494.08	448.12
494.45	454.55
494.81	461.22
495.17	468.09
495.54	475.33
495.90	482.86
496.26	490.56
496.63	498.52
496.99	506.78
497.35	515.43
497.72	524.35
498.08	533.49
498.44	542.96
498.80	552.97
499.17	563.24
499.53	573.80
499.89	584.76
500.26	595.93
500.62	607.41
500.98	619.50
501.34	631.76
501.71	644.54
502.07	657.51
502.43	671.02
502.79	684.73
503.16	698.89
503.52	713.27
503.88	728.06
504.24	743.30
504.60	758.75
504.97	774.69
505.33	791.05
505.69	808.30
506.05	825.86
506.41	843.35
506.78	861.05
507.14	879.27
507.50	897.94
507.86	916.96
508.22	936.19
508.59	955.26
508.95	975.17
509.31	995.81
509.67	1017.10
510.03	1038.37
510.39	1059.75
510.75	1081.35
511.12	1103.21
511.48	1125.23
511.84	1147.34
512.20	1169.88
512.56	1193.23
512.92	1216.59
513.28	1239.61
513.64	1262.92
514.00	1286.67
514.37	1310.68
514.73	1334.74
515.09	1358.71
515.45	1383.01
515.81	1407.44
516.17	1432.07
516.53	1456.16
516.89	1480.15
517.25	1504.38
517.61	1528.56
517.97	1553.19
518.33	1577.30
518.69	1601.34
519.05	1625.92
519.41	1650.78
519.77	1675.76
520.13	1700.10
520.49	1724.36
520.85	1748.99
521.21	1773.09
521.57	1797.67
521.93	1821.80
522.29	1846.36
522.65	1870.44
523.01	1894.50
523.37	1918.20
523.73	1942.57
524.09	1966.74
524.45	1990.68
524.81	2014.21
525.17	2037.62
525.53	2060.44
525.89	2083.73
526.25	2107.04
526.61	2129.34
526.97	2151.80
527.33	2174.23
527.68	2196.31
528.04	2217.66
528.40	2238.06
528.76	2258.89
529.12	2279.14
529.48	2299.00
529.84	2317.15
530.20	2335.94
530.56	2354.12
530.91	2372.48
531.27	2390.50
531.63	2407.68
531.99	2424.44
532.35	2440.56
532.71	2456.73
533.07	2473.60
533.42	2488.57
533.78	2504.66
534.14	2520.91
534.50	2536.12
534.86	2551.17
535.21	2564.38
535.57	2578.08
535.93	2591.56
536.29	2603.82
536.65	2616.01
537.00	2627.58
537.36	2640.02
537.72	2650.93
538.08	2661.46
538.44	2671.35
538.79	2680.79
539.15	2689.40
539.51	2697.63
539.87	2705.18
540.22	2710.89
540.58	2716.65
540.94	2723.79
541.29	2729.07
541.65	2732.64
542.01	2735.61
542.37	2737.87
542.72	2741.46
543.08	2743.35
543.44	2745.81
543.79	2747.22
544.15	2747.75
544.51	2748.71
544.87	2748.55
545.22	2747.68
545.58	2746.13
545.94	2744.62
546.29	2741.78
546.65	2738.95
547.01	2736.10
547.36	2733.99
547.72	2731.82
548.07	2727.96
548.43	2722.57
548.79	2716.37
549.14	2711.49
549.50	2706.76
549.86	2701.11
550.21	2694.34
550.57	2688.50
550.92	2680.41
551.28	2672.99
551.64	2665.81
551.99	2658.10
552.35	2649.76
552.70	2641.73
553.06	2633.97
553.41	2625.53
553.77	2616.87
554.13	2608.15
554.48	2598.55
554.84	2587.77
555.19	2577.59
555.55	2567.39
555.90	2557.20
556.26	2547.52
556.61	2536.75
556.97	2524.37
557.32	2512.55
557.68	2500.61
558.03	2488.49
558.39	2477.50
558.74	2466.74
559.10	2454.26
559.45	2442.10
559.81	2430.58
560.16	2418.37
560.52	2406.34
560.87	2394.66
561.23	2382.19
561.58	2369.87
561.94	2357.15
562.29	2343.87
562.64	2331.29
563.00	2318.35
563.35	2305.98
563.71	2293.37
564.06	2280.57
564.42	2268.54
564.77	2255.81
565.12	2243.05
565.48	2230.22
565.83	2217.41
566.19	2204.65
566.54	2191.89
566.89	2177.95
567.25	2164.19
567.60	2151.72
567.96	2138.39
568.31	2123.73
568.66	2109.87
569.02	2097.06
569.37	2084.21
569.72	2071.89
570.08	2058.27
570.43	2044.40
570.78	2030.20
571.14	2015.33
571.49	2001.19
571.84	1987.59
572.20	1972.71
572.55	1958.17
572.90	1943.43
573.26	1928.68
573.61	1913.45
573.96	1898.65
574.31	1884.13
574.67	1869.56
575.02	1854.05
575.37	1838.60
575.72	1824.04
576.08	1809.73
576.43	1794.28
576.78	1779.27
577.13	1764.53
577.49	1750.14
577.84	1736.33
578.19	1721.55
578.54	1707.04
578.90	1692.02
579.25	1676.86
579.60	1663.31
579.95	1649.56
580.30	1635.71
580.66	1621.60
581.01	1607.38
581.36	1593.19
581.71	1580.02
582.06	1566.70
582.42	1553.61
582.77	1540.54
583.12	1527.38
583.47	1514.13
583.82	1501.00
584.17	1487.54
584.53	1473.70
584.88	1460.23
585.23	1446.29
585.58	1433.27
585.93	1420.44
586.28	1408.34
586.63	1396.27
586.98	1383.68
587.34	1371.14
587.69	1358.33
588.04	1345.85
588.39	1333.79
588.74	1321.82
589.09	1309.61
589.44	1297.02
589.79	1285.09
590.14	1273.26
590.49	1261.39
590.84	1249.62
591.19	1238.27
591.54	1226.72
591.89	1215.35
592.25	1204.12
592.60	1192.58
592.95	1181.41
593.30	1170.42
593.65	1159.10
594.00	1147.90
594.35	1137.31
594.70	1126.33
595.05	1116.24
595.40	1106.02
595.75	1095.64
596.10	1085.81
596.45	1075.65
596.80	1065.83
597.15	1055.78
597.50	1045.88
597.85	1036.36
598.19	1026.69
598.54	1017.09
598.89	1007.91
599.24	999.06
599.59	990.06
599.94	982.00
600.29	973.67
600.64	965.05
600.99	956.07
601.34	947.50
601.69	938.58
602.04	930.32
602.39	921.90
602.74	913.50
603.08	905.10
603.43	896.65
603.78	888.39
604.13	880.31
604.48	872.18
604.83	864.26
605.18	856.23
605.53	848.36
605.87	840.28
606.22	832.58
606.57	824.78
606.92	816.87
607.27	808.87
607.62	801.25
607.96	794.04
608.31	787.28
608.66	780.29
609.01	773.60
609.36	767.00
609.70	760.13
610.05	753.29
610.40	746.71
610.75	740.12
611.10	733.87
611.44	727.46
611.79	721.15
612.14	714.77
612.49	708.50
612.83	702.53
613.18	696.69
613.53	690.71
613.88	684.80
614.22	679.33
614.57	673.76
614.92	668.00
615.27	662.39
615.61	656.82
615.96	651.31
616.31	645.79
616.65	640.35
617.00	635.17
617.35	630.05
617.70	624.99
618.04	619.96
618.39	614.88
618.74	610.06
619.08	605.27
619.43	600.59
619.78	595.94
620.12	591.22
620.47	586.70
620.82	582.28
621.16	577.85
621.51	573.29
621.85	568.82
622.20	564.53
622.55	560.26
622.89	556.06
623.24	551.86
623.59	547.72
623.93	543.73
624.28	539.81
624.62	535.99
624.97	532.21
625.32	528.43
625.66	524.57
626.01	520.67
626.35	516.87
626.70	513.11
627.04	509.51
627.39	505.88
627.73	502.40
628.08	499.01
628.43	495.63
628.77	492.35
629.12	489.17
629.46	485.97
629.81	482.70
630.15	479.44
630.50	476.29
630.84	473.18
631.19	470.14
631.53	467.21
631.88	464.25
632.22	461.31
632.57	458.64
632.91	456.02
633.26	453.49
633.60	450.95
633.95	448.50
634.29	445.95
634.64	443.47
634.98	440.79
635.32	438.28
635.67	435.95
636.01	433.54
636.36	431.18
636.70	428.99
637.05	426.77
637.39	424.59
637.73	422.44
638.08	420.39
638.42	418.30
638.77	416.09
639.11	413.82
639.45	411.65
639.80	409.42
640.14	407.30
640.49	405.16
640.83	403.00
641.17	400.94
641.52	398.91
641.86	396.90
642.20	395.12
642.55	393.16
642.89	391.24
643.23	389.41
643.58	387.74
643.92	385.92
644.26	384.19
644.61	382.51
644.95	380.78
645.29	378.99
645.64	377.22
645.98	375.53
646.32	373.98
646.66	372.40
647.01	370.83
647.35	369.32
647.69	367.79
648.04	366.41
648.38	364.93
648.72	363.48
649.06	362.03
649.41	360.60
649.75	359.22
650.09	357.85
650.43	356.49
650.78	355.07
651.12	353.69
651.46	352.36
651.80	351.06
652.14	349.80
652.49	348.58
652.83	347.34
653.17	346.15
653.51	344.99
653.85	343.88
654.20	342.72
654.54	341.50
654.88	340.36
655.22	339.24
655.56	338.11
655.90	337.04
656.25	336.01
656.59	334.95
656.93	333.96
657.27	332.99
657.61	331.94
657.95	330.95
658.29	329.96
658.64	329.02
658.98	328.07
659.32	327.14
659.66	326.26
660.00	325.39
660.34	324.53
660.68	323.63
661.02	322.69
661.36	321.79
661.70	320.94
662.05	320.10
662.39	319.26
662.73	318.52
663.07	317.77
663.41	316.98
663.75	316.19
664.09	315.40
664.43	314.57
664.77	313.83
665.11	313.05
665.45	312.33
665.79	311.62
666.13	310.87
666.47	310.11
666.81	309.34
667.15	308.54
667.49	307.85
667.83	307.22
668.17	306.56
668.51	305.95
668.85	305.36
669.19	304.79
669.53	304.14
669.87	303.46
670.21	302.81
670.55	302.20
670.89	301.66
671.23	301.09
671.57	300.52
671.91	300.00
672.25	299.50
672.58	298.99
672.92	298.40
673.26	297.92
673.60	297.43
673.94	296.95
674.28	296.51
674.62	296.03
674.96	295.49
675.30	295.00
675.64	294.48
675.97	293.96
676.31	293.41
676.65	292.91
676.99	292.48
677.33	291.97
677.67	291.51
678.01	290.96
678.34	290.50
678.68	290.07
679.02	289.56
679.36	289.08
679.70	288.59
680.04	288.15
680.37	287.68
680.71	287.24
681.05	286.82
681.39	286.35
681.73	285.86
682.06	285.39
682.40	284.95
682.74	284.56
683.08	284.21
683.42	283.79
683.75	283.41
684.09	282.95
684.43	282.56
684.77	282.15
685.10	281.79
685.44	281.40
685.78	281.01
686.12	280.65
686.45	280.26
686.79	279.86
687.13	279.49
687.46	279.08
687.80	278.70
688.14	278.27
688.48	277.91
688.81	277.53
689.15	277.20
689.49	276.81
689.82	276.41
690.16	275.95
690.50	275.58
690.83	275.19
691.17	274.81
691.51	274.44
691.84	274.08
692.18	273.68
692.52	273.28
692.85	272.89
693.19	272.55
693.52	272.19
693.86	271.82
694.20	271.46
694.53	271.12
694.87	270.73
695.21	270.37
695.54	270.00
695.88	269.64
696.21	269.25
696.55	268.91
696.88	268.56
697.22	268.22
697.56	267.87
697.89	267.48
698.23	267.14
698.56	266.77
698.90	266.43
699.23	266.06
699.57	265.72
699.90	265.37
700.24	264.99
700.58	264.68
700.91	264.39
701.25	264.17
701.58	263.89
701.92	263.61
702.25	263.31
702.59	262.99
702.92	262.67
703.26	262.35
703.59	262.01
703.93	261.80
704.26	261.50
704.60	261.18
704.93	260.87
705.26	260.55
705.60	260.29
705.93	259.96
706.27	259.70
706.60	259.45
706.94	259.19
707.27	258.87
707.61	258.56
707.94	258.24
708.27	257.82
708.61	257.48
708.94	257.16
709.28	256.87
709.61	256.58
709.94	256.32
710.28	256.07
710.61	255.84
710.95	255.47
711.28	255.28
711.61	255.02
711.95	254.79
712.28	254.53
712.61	254.24
712.95	254.07
713.28	253.88
713.61	253.59
713.95	253.29
714.28	253.06
714.61	252.81
714.95	252.57
715.28	252.34
715.61	252.10
715.95	251.89
716.28	251.66
716.61	251.47
716.95	251.23
717.28	250.99
717.61	250.75
717.94	250.53
718.28	250.22
718.61	249.99
718.94	249.76
719.27	249.55
719.61	249.36
719.94	249.11
720.27	248.82
720.60	248.62
720.94	248.42
721.27	248.22
721.60	248.05
721.93	247.84
722.27	247.67
722.60	247.49
722.93	247.27
723.26	247.08
723.59	246.85
723.93	246.67
724.26	246.48
724.59	246.29
724.92	246.12
725.25	245.99
725.59	245.81
725.92	245.66
726.25	245.49
726.58	245.31
726.91	245.13
727.24	244.98
727.57	244.81
727.91	244.63
728.24	244.49
728.57	244.31
728.90	244.17
729.23	243.96
729.56	243.85
729.89	243.69
730.22	243.52
730.55	243.37
730.89	243.21
731.22	243.05
731.55	242.89
731.88	242.74
732.21	242.56
732.54	242.40
732.87	242.25
733.20	242.11
733.53	241.97
733.86	241.83
734.19	241.67
734.52	241.54
734.85	241.49
735.18	241.32
735.51	241.21
735.84	241.08
736.17	240.98
736.50	240.78
736.83	240.80
737.16	240.67
737.49	240.56
737.82	240.42
738.15	240.31
738.48	240.18
738.81	240.05
739.14	239.92
739.47	239.79
739.80	239.65
740.13	239.53
740.46	239.39
740.79	239.25
741.12	239.13
741.45	238.98
741.78	238.79
742.11	238.70
742.44	238.55
742.77	238.45
743.10	238.31
743.43	238.20
743.75	237.95
744.08	238.03
744.41	237.90
744.74	237.79
745.07	237.65
745.40	237.57
745.73	237.52
746.06	237.42
746.39	237.33
746.71	237.22
747.04	237.11
747.37	237.01
747.70	236.94
748.03	236.85
748.36	236.78
748.68	236.68
749.01	236.55
749.34	236.46
749.67	236.37
750.00	236.29
750.33	236.29
750.65	236.21
750.98	235.93
751.31	235.84
751.64	235.76
751.97	235.74
752.29	235.64
752.62	235.49
752.95	235.40
753.28	235.30
753.60	235.21
753.93	235.15
754.26	235.07
754.59	234.94
754.91	234.84
755.24	234.74
755.57	234.72
755.90	234.63
756.22	234.53
756.55	234.43
756.88	234.31
757.20	234.15
757.53	234.03
757.86	233.95
758.19	233.88
758.51	233.80
758.84	233.66
759.17	233.57
759.49	233.51
759.82	233.50
760.15	233.44
760.47	233.37
760.80	233.26
761.13	233.22
761.45	233.15
761.78	233.10
762.11	233.04
762.43	232.91
762.76	232.85
763.08	232.81
763.41	232.75
763.74	232.70
764.06	232.64
764.39	232.60
764.71	232.54
765.04	232.47
765.37	232.40
765.69	232.35
766.02	232.30
766.34	232.23
766.67	232.13
767.00	232.09
767.32	232.11
767.65	232.14
767.97	232.07
768.30	232.03
768.62	231.97
768.95	231.91
769.27	231.85
769.60	231.82
769.92	231.75
770.25	231.68
770.57	231.61
770.90	231.56
771.22	231.50
771.55	231.46
771.87	231.42
772.20	231.38
772.52	231.44
772.85	231.54
773.17	231.50
773.50	231.45
773.82	231.39
774.15	231.28
774.47	231.16
774.80	231.11
775.12	231.07
775.45	231.03
775.77	231.00
776.09	230.97
776.42	230.93
776.74	230.94
777.07	230.91
777.39	230.88
777.72	230.83
778.04	230.82
778.36	230.78
778.69	230.75
779.01	230.73
779.33	230.58
779.66	230.41
779.98	230.37
780.31	230.35
780.63	230.37
780.95	230.36
781.28	230.34
781.60	230.31
781.92	230.28
782.25	230.25
782.57	230.22
782.89	230.18
783.22	230.14
783.54	230.08
783.86	230.07
784.19	230.04
784.51	230.05
784.83	230.01
785.16	229.98
785.48	229.96
785.80	229.93
786.12	229.92
786.45	229.89
786.77	229.88
787.09	229.85
787.42	229.78
787.74	229.76
788.06	229.74
788.38	229.71
788.71	229.69
789.03	229.67
789.35	229.66
789.67	229.63
789.99	229.62
790.32	229.59
790.64	229.58
790.96	229.68
791.28	229.61
791.61	229.59
791.93	229.57
792.25	229.54
792.57	229.61
792.89	229.57
793.21	229.56
793.54	229.53
793.86	229.49
794.18	229.48
794.50	229.44
794.82	229.41
795.14	229.41
795.47	229.41
795.79	229.39
796.11	229.35
796.43	229.33
796.75	229.31
797.07	229.30
797.39	229.28
797.71	229.15
798.04	229.14
798.36	229.14
798.68	229.12
799.00	229.11
799.32	229.04
799.64	229.04
799.96	229.02
800.28	229.03
800.60	229.02
800.92	229.01
801.24	228.99
801.56	228.98
801.89	228.95
802.21	228.94
802.53	228.91
802.85	228.92
803.17	228.97
803.49	228.92
803.81	228.90
804.13	228.87
804.45	228.85
804.77	228.84
805.09	228.82
805.41	228.79
805.73	228.76
806.05	228.71
806.37	228.68
806.69	228.66
807.01	228.63
807.33	228.63
807.65	228.57
807.97	228.62
808.28	228.59
808.60	228.58
808.92	228.55
809.24	228.62
809.56	228.58
809.88	228.52
810.20	228.52
810.52	228.54
810.84	228.51
811.16	228.49
811.48	228.47
811.80	228.51
812.12	228.49
812.43	228.51
812.75	228.51
813.07	228.48
813.39	228.48
813.71	228.46
814.03	228.43
814.35	228.43
814.67	228.37
814.98	228.34
815.30	228.33
815.62	228.31
815.94	228.21
816.26	228.21
816.58	228.18
816.89	228.18
817.21	228.15
817.53	228.15
817.85	228.15
818.17	228.14
818.48	228.07
818.80	228.09
819.12	228.06
819.44	228.03
819.76	228.01
820.07	228.00
820.39	227.99
820.71	228.00
821.03	227.99
821.34	227.98
821.66	227.99
821.98	228.00
822.30	227.99
822.61	228.06
822.93	228.03
823.25	228.03
823.57	228.01
823.88	228.01
824.20	228.00
824.52	228.02
824.83	228.01
825.15	227.99
825.47	227.97
825.79	227.98
826.10	227.97
826.42	227.97
826.74	227.96
827.05	227.96
827.37	227.96
827.69	227.94
828.00	227.95
828.32	227.94
828.64	227.91
828.95	227.97
829.27	227.93
829.58	227.93
829.90	227.95
830.22	227.95
830.53	227.92
830.85	227.90
831.17	227.86
831.48	227.86
831.80	227.86
832.11	227.85
832.43	227.82
832.75	227.81
833.06	227.89
833.38	227.85
833.69	227.84
834.01	227.84
834.32	227.83
834.64	227.81
834.96	227.80
835.27	227.80
835.59	227.75
835.90	227.73
836.22	227.72
836.53	227.69
836.85	227.67
837.16	227.80
837.48	227.80
837.79	227.84
838.11	227.84
838.42	227.83
838.74	227.84
839.05	227.84
839.37	227.83
839.68	227.74
840.00	227.74
840.31	227.75
840.63	227.74
840.94	227.72
841.26	227.70
841.57	227.70
841.88	227.70
842.20	227.68
842.51	227.66
842.83	227.65
843.14	227.76
843.46	227.76
843.77	227.68
844.08	227.67
844.40	227.63
844.71	227.61
845.03	227.60
845.34	227.58
845.65	227.57
845.97	227.57
846.28	227.58
846.60	227.58
846.91	227.56
847.22	227.55
847.54	227.58
847.85	227.59
848.16	227.57
848.48	227.54
848.79	227.59
849.10	227.61
849.42	227.61
849.73	227.49
850.04	227.49
850.36	227.44
850.67	227.46
850.98	227.46
851.30	227.47
851.61	227.47
851.92	227.46
852.23	227.50
852.55	227.50
852.86	227.50
853.17	227.51
853.49	227.53
853.80	227.55
854.11	227.56
854.42	227.57
854.74	227.56
855.05	227.56
855.36	227.49
855.67	227.49
855.99	227.50
856.30	227.64
856.61	227.64
856.92	227.64
857.23	227.65
857.55	227.63
857.86	227.62
858.17	227.64
858.48	227.62
858.79	227.59
859.11	227.60
859.42	227.59
859.73	227.57
860.04	227.56
860.35	227.53
860.66	227.49
860.98	227.48
861.29	227.50
861.60	227.49
861.91	227.52
862.22	227.49
862.53	227.47
862.84	227.32
863.16	227.34
863.47	227.32
863.78	227.30
864.09	227.31
864.40	227.31
864.71	227.31
865.02	227.32
865.33	227.31
865.64	227.28
865.95	227.28
866.27	227.36
866.58	227.34
866.89	227.36
867.20	227.36
867.51	227.34
867.82	227.33
868.13	227.36
868.44	227.34
868.75	227.36
869.06	227.36
869.37	227.37
869.68	227.34
869.99	227.36
870.30	227.37
870.61	227.38
870.92	227.36
871.23	227.35
871.54	227.37
871.85	227.40
872.16	227.41
872.47	227.40
872.78	227.33
873.09	227.34
873.40	227.33
873.71	227.33
874.02	227.34
874.33	227.33
874.64	227.30
874.95	227.32
875.26	227.30
875.56	227.29
875.87	227.29
876.18	227.28
876.49	227.39
876.80	227.38
877.11	227.35
877.42	227.36
877.73	227.36
878.04	227.34
878.35	227.34
878.66	227.34
878.96	227.34
879.27	227.33
879.58	227.32
879.89	227.32
880.20	227.36
880.51	227.35
880.82	227.35
881.12	227.36
881.43	227.33
881.74	227.32
882.05	227.32
882.36	227.32
882.67	227.33
882.97	227.20
883.28	227.19
883.59	227.19
883.90	227.20
884.21	227.22
884.51	227.21
884.82	227.19
885.13	227.19
885.44	227.19
885.74	227.19
886.05	227.18
886.36	227.18
886.67	227.13
886.98	227.19
887.28	227.20
887.59	227.20
887.90	227.21
888.20	227.21
888.51	227.23
888.82	227.21
889.13	227.22
889.43	227.33
889.74	227.32
890.05	227.32
890.35	227.30
890.66	227.28
890.97	227.26
891.28	227.25
891.58	227.25
891.89	227.25
892.20	227.24
892.50	227.23
892.81	227.22
893.12	227.22
893.42	227.15
893.73	227.15
894.04	227.15
894.34	227.15
894.65	227.14
894.95	227.13
895.26	227.14
895.57	227.19
895.87	227.06
896.18	227.09
896.48	227.09
896.79	227.09
897.10	227.11
897.40	227.11
897.71	227.13
898.01	227.11
898.32	227.13
898.63	227.13
898.93	227.14
899.24	227.14
899.54	227.14
899.85	227.13
900.15	227.12
900.46	227.12
900.76	227.13
901.07	227.13
901.38	227.13
901.68	227.14
901.99	227.07
902.29	227.08
902.60	227.07
902.90	227.06
903.21	227.06
903.51	227.05
903.82	227.07
904.12	227.07
904.43	227.08
904.73	227.07
905.03	227.08
905.34	227.19
905.64	227.18
905.95	227.18
906.25	227.18
906.56	227.18
906.86	227.18
907.17	227.16
907.47	227.17
907.77	227.16
908.08	227.13
908.38	227.14
908.69	227.14
908.99	227.16
909.30	227.17
909.60	227.17
909.90	227.17
910.21	227.14
910.51	227.12
910.81	227.12
911.12	227.13
911.42	227.12
911.73	226.99
912.03	227.01
912.33	227.04
912.64	227.02
912.94	227.01
913.24	226.99
913.55	226.98
913.85	226.98
914.15	227.00
914.46	227.02
914.76	227.00
915.06	227.00
915.37	226.97
915.67	226.97
915.97	226.97
916.27	226.94
916.58	226.95
916.88	226.95
917.18	226.94
917.49	227.02
917.79	227.02
918.09	227.04
918.39	227.06
918.70	227.05
919.00	227.06
919.30	227.12
919.60	227.12
919.91	227.11
920.21	227.11
920.51	227.09
920.81	227.08
921.12	227.10
921.42	227.10
921.72	227.10
922.02	227.11
922.32	227.13
922.63	227.13
922.93	227.20
923.23	227.21
923.53	227.20
923.83	227.11
924.13	227.12
924.44	227.12
924.74	227.13
925.04	227.16
925.34	227.16
925.64	227.10
925.94	227.10
926.24	227.17
926.55	227.16
926.85	227.17
927.15	227.17
927.45	227.17
927.75	227.16
928.05	227.16
928.35	227.15
928.65	227.17
928.95	227.17
929.26	227.11
929.56	227.13
929.86	227.15
930.16	227.14
930.46	227.12
930.76	227.13
931.06	227.07
931.36	227.03
931.66	227.05
931.96	227.07
932.26	227.07
932.56	227.02
932.86	227.03
933.16	227.03
933.46	227.02
933.76	227.00
934.06	227.03
934.36	227.07
934.66	227.06
934.96	227.04
935.26	227.04
935.56	227.06
935.86	227.03
936.16	227.01
936.46	227.00
936.76	226.99
937.06	226.97
937.36	226.98
937.66	226.99
937.96	226.98
938.26	226.96
938.56	226.95
938.86	226.96
939.16	226.98
939.46	226.99
939.76	226.99
940.06	226.99
940.35	226.97
940.65	226.91
940.95	226.92
941.25	226.89
941.55	226.88
941.85	226.87
942.15	226.89
942.45	226.93
942.75	226.93
943.04	226.94
943.34	226.96
943.64	226.95
943.94	226.93
944.24	226.93
944.54	226.94
944.84	226.94
945.13	226.92
945.43	226.89
945.73	226.89
946.03	226.88
946.33	226.87
946.62	226.86
946.92	226.85
947.22	226.86
947.52	226.87
947.82	226.89
948.11	226.87
948.41	226.85
948.71	226.81
949.01	226.82
949.31	226.81
949.60	226.80
949.90	226.82
950.20	226.82
950.50	226.81
950.79	226.80
951.09	226.82
951.39	226.82
951.69	226.81
951.98	226.83
952.28	226.84
952.58	226.84
952.87	226.84
953.17	226.86
953.47	226.84
953.76	226.84
954.06	226.81
954.36	226.80
954.66	226.80
954.95	226.83
955.25	226.84
955.55	226.85
955.84	226.83
956.14	226.83
956.44	226.85
956.73	226.83
957.03	226.84
957.32	226.83
957.62	226.83
957.92	226.85
958.21	226.84
958.51	226.98
958.81	226.99
959.10	227.01
959.40	227.03
959.69	227.04
959.99	227.06
960.29	227.07
960.58	227.06
960.88	227.11
961.17	227.09
961.47	227.10
961.76	227.09
962.06	227.10
962.36	227.09
962.65	227.09
962.95	227.10
963.24	227.09
963.54	227.09
963.83	227.11
964.13	227.10
964.42	227.09
964.72	226.98
965.01	226.98
965.31	226.97
965.60	226.94
965.90	227.02
966.19	226.99
966.49	226.99
966.78	226.99
967.08	226.97
967.37	226.98
967.67	226.96
967.96	226.98
968.26	226.97
968.55	226.99
968.85	226.98
969.14	226.98
969.43	226.98
969.73	226.96
970.02	226.96
970.32	226.95
970.61	226.93
970.91	226.89
971.20	226.87
971.49	226.86
971.79	226.87
972.08	226.78
972.38	226.80
972.67	226.79
972.96	226.81
973.26	226.79
973.55	226.82
973.85	226.82
974.14	226.80
974.43	226.81
974.73	226.79
975.02	226.78
975.31	226.78
975.61	226.78
975.90	226.77
976.19	226.75
976.49	226.76
976.78	226.77
977.07	226.77
977.37	226.78
977.66	226.80
977.95	226.78
978.24	226.79
978.54	226.82
978.83	226.81
979.12	226.80
979.42	226.80
979.71	226.77
980.00	226.77
980.29	226.78
980.59	226.75
980.88	226.79
981.17	226.79
981.46	226.79
981.76	226.79
982.05	226.83
982.34	226.84
982.63	226.85
982.93	226.85
983.22	226.88
983.51	226.89
983.80	226.90
984.09	226.92
984.39	226.91
984.68	226.89
984.97	226.90
985.26	226.89
985.55	226.90
985.85	226.88
986.14	226.90
986.43	226.91
986.72	226.91
987.01	226.87
987.30	226.87
987.59	226.87
987.89	226.87
988.18	226.83
988.47	226.82
988.76	226.80
989.05	226.79
989.34	226.77
989.63	226.81
989.92	226.78
990.22	226.77
990.51	226.77
990.80	226.76
991.09	226.77
991.38	226.79
991.67	226.77
991.96	226.76
992.25	226.76
992.54	226.74
992.83	226.74
993.12	226.74
993.41	226.76
993.70	226.81
993.99	226.83
994.28	226.85
994.58	226.88
994.87	226.86
995.16	226.86
995.45	226.86
995.74	226.81
996.03	226.83
996.32	226.85
996.61	226.88
996.90	226.87
997.19	226.87
997.48	226.87
997.77	226.86
998.06	226.87
998.34	226.86
998.63	226.86
998.92	226.86
999.21	226.88
999.50	226.88
999.79	226.84
1000.08	226.83
1000.37	226.83
1000.66	226.81
1000.95	226.84
1001.24	226.85
1001.53	226.86
1001.82	226.86
1002.11	226.83
1002.40	226.84
1002.68	226.87
1002.97	226.95
1003.26	226.94
1003.55	226.92
1003.84	226.93
1004.13	226.97
1004.42	226.97
1004.71	226.96
1004.99	226.96
1005.28	226.99
1005.57	226.97
1005.86	226.96
1006.15	226.95
1006.44	226.93
1006.72	226.95
1007.01	226.93
1007.30	226.93
1007.59	226.92
1007.88	226.92
1008.17	226.93
1008.45	226.90
1008.74	226.85
1009.03	226.79
1009.32	226.79
1009.60	226.79
1009.89	226.78
1010.18	226.73
1010.47	226.72
1010.76	226.72
1011.04	226.72
1011.33	226.71
1011.62	226.72
1011.91	226.73
1012.19	226.74
1012.48	226.74
1012.77	226.74
1013.05	226.78
1013.34	226.78
1013.63	226.77
1013.92	226.78
1014.20	226.77
1014.49	226.77
1014.78	226.79
1015.06	226.75
1015.35	226.75
1015.64	226.77
1015.92	226.79
1016.21	226.80
1016.50	226.80
1016.78	226.82
1017.07	226.83
1017.36	226.81
1017.64	226.79
1017.93	226.80
1018.22	226.78
1018.50	226.78
1018.79	226.77
1019.08	226.73
1019.36	226.74
1019.65	226.73
1019.93	226.76
1020.22	226.78
1020.51	226.85
1020.79	226.83
1021.08	226.57
1021.36	226.56
1021.65	226.73
1021.94	226.71
1022.22	226.88
1022.51	226.51
1022.79	227.36
1023.08	226.96
1023.36	228.29
1023.65	226.53
>>>>>End Processed Spectral Data<<<<<
