SpectraSuite Data File
++++++++++++++++++++++++++++++++++++
Date: Fri Oct 02 18:25:58 EDT 2015
User: lab3
Dark Spectrum Present: No
Reference Spectrum Present: No
Number of Sampled Component Spectra: 1
Spectrometers: USB2E7196
Integration Time (usec): 46000 (USB2E7196)
Spectra Averaged: 1500 (USB2E7196)
Boxcar Smoothing: 10 (USB2E7196)
Correct for Electrical Dark: No (USB2E7196)
Strobe/Lamp Enabled: No (USB2E7196)
Correct for Detector Non-linearity: No (USB2E7196)
Correct for Stray Light: No (USB2E7196)
Number of Pixels in Processed Spectrum: 2048
>>>>>Begin Processed Spectral Data<<<<<
339.09	0.00
339.48	215.56
339.86	217.12
340.24	218.27
340.63	219.85
341.01	223.06
341.39	222.52
341.78	224.03
342.16	225.27
342.54	225.58
342.93	213.94
343.31	224.75
343.69	225.29
344.07	225.74
344.46	226.18
344.84	226.57
345.22	226.80
345.60	227.06
345.99	227.24
346.37	227.37
346.75	227.49
347.13	227.57
347.52	227.64
347.90	227.74
348.28	227.76
348.66	227.83
349.05	227.83
349.43	227.89
349.81	227.95
350.19	228.00
350.57	228.08
350.96	228.16
351.34	228.24
351.72	228.34
352.10	228.45
352.48	228.52
352.87	228.57
353.25	228.64
353.63	228.70
354.01	228.77
354.39	228.84
354.77	228.90
355.15	229.01
355.54	229.05
355.92	229.08
356.30	229.16
356.68	229.30
357.06	229.38
357.44	229.42
357.82	229.48
358.20	229.60
358.58	229.65
358.97	229.72
359.35	229.82
359.73	229.89
360.11	229.93
360.49	229.99
360.87	230.05
361.25	230.10
361.63	230.18
362.01	230.24
362.39	230.26
362.77	230.32
363.15	230.35
363.53	230.38
363.91	230.41
364.29	230.43
364.67	230.34
365.05	230.35
365.43	230.38
365.81	230.42
366.19	230.44
366.57	230.49
366.95	230.49
367.33	230.46
367.71	230.47
368.09	230.49
368.47	230.48
368.85	230.47
369.23	230.48
369.61	230.42
369.99	230.44
370.37	230.45
370.75	230.52
371.13	230.48
371.51	230.44
371.89	230.43
372.27	230.41
372.65	230.38
373.03	230.35
373.41	230.30
373.78	230.25
374.16	230.14
374.54	230.05
374.92	229.99
375.30	229.94
375.68	229.87
376.06	229.82
376.44	229.77
376.82	229.72
377.19	229.66
377.57	229.61
377.95	229.52
378.33	229.46
378.71	229.31
379.09	229.25
379.47	229.23
379.84	229.16
380.22	229.09
380.60	229.02
380.98	228.97
381.36	228.91
381.73	228.84
382.11	228.82
382.49	228.78
382.87	228.73
383.25	228.68
383.62	228.79
384.00	228.72
384.38	228.68
384.76	228.66
385.13	228.67
385.51	228.63
385.89	228.58
386.27	228.54
386.64	228.52
387.02	228.47
387.40	228.42
387.78	228.40
388.15	228.38
388.53	228.35
388.91	228.33
389.29	228.30
389.66	228.31
390.04	228.28
390.42	228.29
390.79	228.27
391.17	228.25
391.55	228.09
391.92	228.08
392.30	228.08
392.68	228.05
393.05	228.02
393.43	228.01
393.81	228.02
394.18	228.00
394.56	228.01
394.94	228.03
395.31	228.03
395.69	228.08
396.06	228.11
396.44	228.12
396.82	228.13
397.19	228.21
397.57	228.22
397.95	228.27
398.32	228.26
398.70	228.30
399.07	228.36
399.45	228.41
399.82	228.46
400.20	228.49
400.58	228.54
400.95	228.56
401.33	228.64
401.70	228.80
402.08	228.89
402.45	228.97
402.83	229.09
403.20	229.20
403.58	229.29
403.95	229.43
404.33	229.57
404.71	229.72
405.08	229.92
405.46	230.07
405.83	230.25
406.21	230.44
406.58	230.65
406.96	230.86
407.33	231.10
407.70	231.37
408.08	231.75
408.45	232.07
408.83	232.41
409.20	232.73
409.58	233.02
409.95	233.42
410.33	233.84
410.70	234.24
411.08	234.70
411.45	235.20
411.82	235.70
412.20	236.28
412.57	236.96
412.95	237.49
413.32	238.19
413.69	238.91
414.07	239.68
414.44	240.51
414.82	241.35
415.19	242.35
415.56	243.34
415.94	244.38
416.31	245.54
416.68	246.72
417.06	248.06
417.43	249.33
417.81	250.77
418.18	252.26
418.55	253.87
418.93	255.55
419.30	257.30
419.67	259.17
420.04	261.08
420.42	263.06
420.79	265.38
421.16	267.70
421.54	270.08
421.91	272.56
422.28	275.12
422.66	277.88
423.03	280.52
423.40	283.30
423.77	286.25
424.15	289.29
424.52	292.45
424.89	295.88
425.26	299.28
425.64	302.44
426.01	306.00
426.38	309.63
426.75	313.37
427.13	317.23
427.50	321.25
427.87	325.42
428.24	329.66
428.61	333.71
428.99	338.10
429.36	342.91
429.73	347.51
430.10	352.12
430.47	356.84
430.85	361.70
431.22	366.91
431.59	372.28
431.96	377.50
432.33	383.31
432.70	388.85
433.08	395.37
433.45	401.56
433.82	407.63
434.19	414.43
434.56	421.15
434.93	427.61
435.30	434.02
435.68	441.26
436.05	448.35
436.42	455.40
436.79	461.84
437.16	468.79
437.53	476.21
437.90	483.64
438.27	490.91
438.64	498.75
439.01	505.86
439.38	512.35
439.75	518.62
440.13	525.67
440.50	532.37
440.87	537.69
441.24	543.48
441.61	549.84
441.98	554.45
442.35	559.92
442.72	565.50
443.09	570.79
443.46	574.11
443.83	576.51
444.20	578.50
444.57	581.51
444.94	583.16
445.31	584.90
445.68	586.34
446.05	587.36
446.42	586.86
446.79	586.22
447.16	585.61
447.53	585.04
447.90	582.64
448.27	580.33
448.64	576.89
449.01	574.49
449.37	569.80
449.74	565.54
450.11	560.11
450.48	554.17
450.85	548.26
451.22	543.18
451.59	538.23
451.96	533.76
452.33	527.29
452.70	521.57
453.07	514.57
453.43	507.64
453.80	500.90
454.17	494.47
454.54	488.54
454.91	481.86
455.28	475.61
455.65	469.72
456.02	463.51
456.38	458.51
456.75	452.08
457.12	446.92
457.49	441.71
457.86	436.80
458.23	432.53
458.59	427.78
458.96	422.93
459.33	418.65
459.70	414.30
460.07	411.02
460.43	407.13
460.80	403.53
461.17	400.38
461.54	396.97
461.91	393.80
462.27	390.56
462.64	387.98
463.01	384.96
463.38	381.93
463.74	379.21
464.11	376.81
464.48	374.66
464.85	372.31
465.21	370.54
465.58	368.55
465.95	366.26
466.32	364.46
466.68	362.68
467.05	360.90
467.42	359.14
467.78	357.24
468.15	355.50
468.52	354.25
468.88	352.55
469.25	350.98
469.62	349.76
469.98	348.40
470.35	347.18
470.72	346.09
471.08	344.99
471.45	344.05
471.82	343.02
472.18	341.91
472.55	341.21
472.92	340.30
473.28	339.60
473.65	338.84
474.02	338.11
474.38	337.52
474.75	337.16
475.11	336.68
475.48	336.46
475.85	336.22
476.21	336.09
476.58	336.01
476.94	336.15
477.31	336.21
477.67	336.31
478.04	336.51
478.41	336.81
478.77	337.21
479.14	337.47
479.50	337.96
479.87	338.60
480.23	339.23
480.60	339.86
480.96	340.50
481.33	341.43
481.69	342.37
482.06	343.29
482.42	344.14
482.79	345.20
483.15	346.42
483.52	347.81
483.88	349.15
484.25	350.57
484.61	352.06
484.98	353.66
485.34	355.48
485.71	357.38
486.07	359.41
486.44	361.43
486.80	363.69
487.17	366.03
487.53	368.59
487.90	371.29
488.26	374.22
488.62	377.31
488.99	380.40
489.35	383.66
489.72	387.20
490.08	390.92
490.44	394.77
490.81	398.76
491.17	402.86
491.54	407.27
491.90	411.83
492.26	416.70
492.63	421.82
492.99	427.14
493.36	432.65
493.72	438.47
494.08	444.42
494.45	450.75
494.81	457.33
495.17	464.09
495.54	471.22
495.90	478.63
496.26	486.22
496.63	494.06
496.99	502.20
497.35	510.72
497.72	519.52
498.08	528.51
498.44	537.84
498.80	547.73
499.17	557.87
499.53	568.30
499.89	579.11
500.26	590.12
500.62	601.45
500.98	613.37
501.34	625.46
501.71	638.08
502.07	650.88
502.43	664.22
502.79	677.76
503.16	691.75
503.52	705.94
503.88	720.58
504.24	735.64
504.60	750.92
504.97	766.69
505.33	782.88
505.69	799.95
506.05	817.34
506.41	834.63
506.78	852.15
507.14	870.17
507.50	888.63
507.86	907.47
508.22	926.54
508.59	945.43
508.95	965.18
509.31	985.64
509.67	1006.72
510.03	1027.81
510.39	1049.06
510.75	1070.51
511.12	1092.23
511.48	1114.03
511.84	1135.99
512.20	1158.37
512.56	1181.55
512.92	1204.74
513.28	1227.59
513.64	1250.75
514.00	1274.37
514.37	1298.24
514.73	1322.16
515.09	1346.03
515.45	1370.20
515.81	1394.48
516.17	1418.99
516.53	1442.97
516.89	1466.88
517.25	1491.02
517.61	1515.11
517.97	1539.60
518.33	1563.63
518.69	1587.60
519.05	1612.17
519.41	1636.97
519.77	1661.89
520.13	1686.19
520.49	1710.44
520.85	1735.09
521.21	1759.18
521.57	1783.75
521.93	1807.84
522.29	1832.39
522.65	1856.44
523.01	1880.51
523.37	1904.26
523.73	1928.66
524.09	1952.86
524.45	1976.84
524.81	2000.48
525.17	2023.91
525.53	2046.81
525.89	2070.13
526.25	2093.50
526.61	2115.86
526.97	2138.36
527.33	2160.87
527.68	2183.03
528.04	2204.48
528.40	2224.94
528.76	2245.92
529.12	2266.29
529.48	2286.29
529.84	2304.62
530.20	2323.64
530.56	2342.02
530.91	2360.58
531.27	2378.78
531.63	2396.17
531.99	2413.23
532.35	2429.57
532.71	2446.00
533.07	2463.07
533.42	2478.41
533.78	2494.74
534.14	2511.26
534.50	2526.77
534.86	2542.10
535.21	2555.61
535.57	2569.59
535.93	2583.35
536.29	2595.87
536.65	2608.35
537.00	2620.23
537.36	2632.97
537.72	2644.11
538.08	2654.90
538.44	2665.06
538.79	2674.80
539.15	2683.67
539.51	2692.09
539.87	2699.88
540.22	2705.88
540.58	2712.01
540.94	2719.36
541.29	2725.02
541.65	2728.92
542.01	2732.20
542.37	2734.84
542.72	2738.79
543.08	2741.06
543.44	2743.91
543.79	2745.65
544.15	2746.55
544.51	2747.92
544.87	2748.14
545.22	2747.59
545.58	2746.41
545.94	2745.17
546.29	2742.66
546.65	2740.23
547.01	2737.80
547.36	2736.05
547.72	2734.20
548.07	2730.64
548.43	2725.58
548.79	2719.67
549.14	2715.07
549.50	2710.65
549.86	2705.27
550.21	2698.76
550.57	2693.23
550.92	2685.40
551.28	2678.24
551.64	2671.27
551.99	2663.70
552.35	2655.57
552.70	2647.81
553.06	2640.32
553.41	2632.14
553.77	2623.78
554.13	2615.28
554.48	2605.82
554.84	2595.24
555.19	2585.32
555.55	2575.40
555.90	2565.42
556.26	2555.94
556.61	2545.37
556.97	2533.15
557.32	2521.50
557.68	2509.71
558.03	2497.71
558.39	2486.84
558.74	2476.27
559.10	2463.97
559.45	2452.03
559.81	2440.69
560.16	2428.56
560.52	2416.63
560.87	2405.08
561.23	2392.62
561.58	2380.42
561.94	2367.82
562.29	2354.61
562.64	2342.11
563.00	2329.20
563.35	2316.89
563.71	2304.31
564.06	2291.54
564.42	2279.56
564.77	2266.87
565.12	2254.12
565.48	2241.32
565.83	2228.56
566.19	2215.78
566.54	2203.02
566.89	2189.02
567.25	2175.23
567.60	2162.80
567.96	2149.50
568.31	2134.84
568.66	2120.98
569.02	2108.13
569.37	2095.25
569.72	2082.93
570.08	2069.25
570.43	2055.31
570.78	2041.01
571.14	2026.08
571.49	2011.92
571.84	1998.28
572.20	1983.36
572.55	1968.78
572.90	1953.95
573.26	1939.10
573.61	1923.78
573.96	1908.90
574.31	1894.32
574.67	1879.70
575.02	1864.10
575.37	1848.54
575.72	1833.93
576.08	1819.54
576.43	1803.94
576.78	1788.84
577.13	1774.07
577.49	1759.61
577.84	1745.69
578.19	1730.86
578.54	1716.26
578.90	1701.14
579.25	1685.90
579.60	1672.28
579.95	1658.42
580.30	1644.52
580.66	1630.38
581.01	1616.11
581.36	1601.85
581.71	1588.63
582.06	1575.18
582.42	1562.02
582.77	1548.88
583.12	1535.62
583.47	1522.30
583.82	1509.14
584.17	1495.57
584.53	1481.59
584.88	1468.04
585.23	1454.04
585.58	1440.95
585.93	1428.05
586.28	1415.90
586.63	1403.74
586.98	1391.06
587.34	1378.45
587.69	1365.55
588.04	1352.97
588.39	1340.84
588.74	1328.78
589.09	1316.49
589.44	1303.87
589.79	1291.86
590.14	1279.99
590.49	1268.02
590.84	1256.19
591.19	1244.80
591.54	1233.20
591.89	1221.79
592.25	1210.48
592.60	1198.86
592.95	1187.64
593.30	1176.62
593.65	1165.26
594.00	1154.00
594.35	1143.37
594.70	1132.33
595.05	1122.17
595.40	1111.89
595.75	1101.43
596.10	1091.57
596.45	1081.33
596.80	1071.46
597.15	1061.39
597.50	1051.42
597.85	1041.88
598.19	1032.15
598.54	1022.48
598.89	1013.27
599.24	1004.38
599.59	995.36
599.94	987.24
600.29	978.87
600.64	970.18
600.99	961.15
601.34	952.52
601.69	943.55
602.04	935.24
602.39	926.79
602.74	918.35
603.08	909.89
603.43	901.40
603.78	893.11
604.13	884.99
604.48	876.80
604.83	868.82
605.18	860.75
605.53	852.84
605.87	844.71
606.22	836.98
606.57	829.14
606.92	821.17
607.27	813.14
607.62	805.49
607.96	798.22
608.31	791.43
608.66	784.43
609.01	777.72
609.36	771.12
609.70	764.21
610.05	757.36
610.40	750.76
610.75	744.16
611.10	737.89
611.44	731.44
611.79	725.11
612.14	718.71
612.49	712.43
612.83	706.44
613.18	700.59
613.53	694.56
613.88	688.64
614.22	683.15
614.57	677.56
614.92	671.78
615.27	666.18
615.61	660.60
615.96	655.07
616.31	649.53
616.65	644.07
617.00	638.87
617.35	633.76
617.70	628.68
618.04	623.61
618.39	618.51
618.74	613.72
619.08	608.92
619.43	604.24
619.78	599.58
620.12	594.87
620.47	590.34
620.82	585.94
621.16	581.50
621.51	576.94
621.85	572.46
622.20	568.19
622.55	563.91
622.89	559.68
623.24	555.48
623.59	551.35
623.93	547.37
624.28	543.45
624.62	539.65
624.97	535.88
625.32	532.11
625.66	528.27
626.01	524.36
626.35	520.56
626.70	516.82
627.04	513.22
627.39	509.59
627.73	506.14
628.08	502.77
628.43	499.39
628.77	496.13
629.12	492.97
629.46	489.78
629.81	486.54
630.15	483.31
630.50	480.18
630.84	477.10
631.19	474.06
631.53	471.15
631.88	468.20
632.22	465.27
632.57	462.64
632.91	460.05
633.26	457.55
633.60	455.04
633.95	452.59
634.29	450.06
634.64	447.60
634.98	444.93
635.32	442.42
635.67	440.12
636.01	437.71
636.36	435.38
636.70	433.22
637.05	431.03
637.39	428.87
637.73	426.73
638.08	424.71
638.42	422.63
638.77	420.44
639.11	418.20
639.45	416.04
639.80	413.83
640.14	411.73
640.49	409.62
640.83	407.48
641.17	405.43
641.52	403.43
641.86	401.46
642.20	399.69
642.55	397.75
642.89	395.86
643.23	394.05
643.58	392.40
643.92	390.60
644.26	388.88
644.61	387.21
644.95	385.51
645.29	383.73
645.64	381.99
645.98	380.32
646.32	378.78
646.66	377.23
647.01	375.69
647.35	374.19
647.69	372.65
648.04	371.29
648.38	369.84
648.72	368.41
649.06	366.98
649.41	365.56
649.75	364.20
650.09	362.84
650.43	361.50
650.78	360.09
651.12	358.73
651.46	357.40
651.80	356.13
652.14	354.87
652.49	353.66
652.83	352.43
653.17	351.23
653.51	350.08
653.85	348.97
654.20	347.82
654.54	346.60
654.88	345.48
655.22	344.36
655.56	343.23
655.90	342.17
656.25	341.13
656.59	340.08
656.93	339.09
657.27	338.11
657.61	337.06
657.95	336.07
658.29	335.07
658.64	334.14
658.98	333.19
659.32	332.27
659.66	331.39
660.00	330.53
660.34	329.67
660.68	328.76
661.02	327.81
661.36	326.91
661.70	326.05
662.05	325.19
662.39	324.34
662.73	323.58
663.07	322.81
663.41	322.01
663.75	321.19
664.09	320.40
664.43	319.56
664.77	318.81
665.11	318.00
665.45	317.27
665.79	316.54
666.13	315.75
666.47	314.96
666.81	314.15
667.15	313.31
667.49	312.61
667.83	311.95
668.17	311.27
668.51	310.64
668.85	310.04
669.19	309.45
669.53	308.78
669.87	308.09
670.21	307.42
670.55	306.80
670.89	306.24
671.23	305.65
671.57	305.06
671.91	304.52
672.25	304.00
672.58	303.46
672.92	302.85
673.26	302.34
673.60	301.83
673.94	301.32
674.28	300.86
674.62	300.34
674.96	299.78
675.30	299.28
675.64	298.73
675.97	298.17
676.31	297.59
676.65	297.06
676.99	296.60
677.33	296.05
677.67	295.56
678.01	294.99
678.34	294.49
678.68	294.03
679.02	293.49
679.36	292.97
679.70	292.46
680.04	291.99
680.37	291.50
680.71	291.03
681.05	290.58
681.39	290.08
681.73	289.57
682.06	289.07
682.40	288.60
682.74	288.18
683.08	287.80
683.42	287.37
683.75	286.96
684.09	286.46
684.43	286.06
684.77	285.61
685.10	285.22
685.44	284.81
685.78	284.39
686.12	283.99
686.45	283.57
686.79	283.13
687.13	282.72
687.46	282.29
687.80	281.88
688.14	281.43
688.48	281.04
688.81	280.63
689.15	280.27
689.49	279.86
689.82	279.44
690.16	278.96
690.50	278.57
690.83	278.15
691.17	277.75
691.51	277.33
691.84	276.96
692.18	276.53
692.52	276.10
692.85	275.69
693.19	275.33
693.52	274.93
693.86	274.55
694.20	274.17
694.53	273.79
694.87	273.38
695.21	272.98
695.54	272.59
695.88	272.20
696.21	271.78
696.55	271.41
696.88	271.03
697.22	270.65
697.56	270.26
697.89	269.85
698.23	269.48
698.56	269.08
698.90	268.72
699.23	268.31
699.57	267.94
699.90	267.56
700.24	267.16
700.58	266.83
700.91	266.51
701.25	266.27
701.58	265.98
701.92	265.67
702.25	265.34
702.59	264.99
702.92	264.65
703.26	264.32
703.59	263.97
703.93	263.73
704.26	263.41
704.60	263.07
704.93	262.74
705.26	262.40
705.60	262.13
705.93	261.77
706.27	261.49
706.60	261.23
706.94	260.95
707.27	260.61
707.61	260.28
707.94	259.94
708.27	259.50
708.61	259.13
708.94	258.80
709.28	258.49
709.61	258.18
709.94	257.91
710.28	257.64
710.61	257.38
710.95	257.01
711.28	256.81
711.61	256.54
711.95	256.31
712.28	256.04
712.61	255.74
712.95	255.56
713.28	255.36
713.61	255.06
713.95	254.77
714.28	254.52
714.61	254.25
714.95	253.99
715.28	253.74
715.61	253.50
715.95	253.28
716.28	253.05
716.61	252.85
716.95	252.58
717.28	252.34
717.61	252.08
717.94	251.83
718.28	251.50
718.61	251.25
718.94	251.00
719.27	250.77
719.61	250.56
719.94	250.31
720.27	250.00
720.60	249.78
720.94	249.57
721.27	249.36
721.60	249.17
721.93	248.96
722.27	248.79
722.60	248.59
722.93	248.37
723.26	248.15
723.59	247.91
723.93	247.74
724.26	247.54
724.59	247.35
724.92	247.18
725.25	247.05
725.59	246.88
725.92	246.73
726.25	246.54
726.58	246.37
726.91	246.18
727.24	246.03
727.57	245.85
727.91	245.67
728.24	245.52
728.57	245.34
728.90	245.18
729.23	244.95
729.56	244.83
729.89	244.66
730.22	244.50
730.55	244.34
730.89	244.17
731.22	244.01
731.55	243.84
731.88	243.67
732.21	243.47
732.54	243.29
732.87	243.14
733.20	242.99
733.53	242.83
733.86	242.68
734.19	242.51
734.52	242.38
734.85	242.32
735.18	242.14
735.51	242.04
735.84	241.90
736.17	241.80
736.50	241.60
736.83	241.61
737.16	241.48
737.49	241.36
737.82	241.23
738.15	241.12
738.48	240.99
738.81	240.85
739.14	240.72
739.47	240.59
739.80	240.45
740.13	240.33
740.46	240.18
740.79	240.03
741.12	239.90
741.45	239.74
741.78	239.54
742.11	239.45
742.44	239.30
742.77	239.19
743.10	239.05
743.43	238.93
743.75	238.68
744.08	238.75
744.41	238.63
744.74	238.51
745.07	238.36
745.40	238.28
745.73	238.22
746.06	238.13
746.39	238.04
746.71	237.91
747.04	237.80
747.37	237.70
747.70	237.62
748.03	237.54
748.36	237.47
748.68	237.37
749.01	237.23
749.34	237.13
749.67	237.04
750.00	236.95
750.33	236.96
750.65	236.87
750.98	236.59
751.31	236.49
751.64	236.42
751.97	236.39
752.29	236.28
752.62	236.13
752.95	236.03
753.28	235.92
753.60	235.84
753.93	235.78
754.26	235.70
754.59	235.57
754.91	235.46
755.24	235.36
755.57	235.33
755.90	235.25
756.22	235.15
756.55	235.04
756.88	234.93
757.20	234.76
757.53	234.64
757.86	234.55
758.19	234.47
758.51	234.38
758.84	234.24
759.17	234.15
759.49	234.08
759.82	234.06
760.15	234.00
760.47	233.93
760.80	233.82
761.13	233.78
761.45	233.71
761.78	233.65
762.11	233.58
762.43	233.46
762.76	233.39
763.08	233.35
763.41	233.29
763.74	233.24
764.06	233.18
764.39	233.13
764.71	233.08
765.04	233.01
765.37	232.95
765.69	232.89
766.02	232.83
766.34	232.77
766.67	232.67
767.00	232.64
767.32	232.65
767.65	232.67
767.97	232.60
768.30	232.56
768.62	232.51
768.95	232.44
769.27	232.38
769.60	232.34
769.92	232.26
770.25	232.20
770.57	232.13
770.90	232.08
771.22	232.02
771.55	231.98
771.87	231.94
772.20	231.88
772.52	231.94
772.85	232.05
773.17	232.00
773.50	231.95
773.82	231.88
774.15	231.78
774.47	231.66
774.80	231.60
775.12	231.56
775.45	231.52
775.77	231.49
776.09	231.47
776.42	231.44
776.74	231.45
777.07	231.40
777.39	231.38
777.72	231.34
778.04	231.32
778.36	231.27
778.69	231.25
779.01	231.22
779.33	231.08
779.66	230.90
779.98	230.86
780.31	230.84
780.63	230.86
780.95	230.85
781.28	230.82
781.60	230.79
781.92	230.76
782.25	230.73
782.57	230.70
782.89	230.66
783.22	230.62
783.54	230.56
783.86	230.55
784.19	230.51
784.51	230.52
784.83	230.48
785.16	230.45
785.48	230.43
785.80	230.40
786.12	230.39
786.45	230.36
786.77	230.36
787.09	230.33
787.42	230.26
787.74	230.24
788.06	230.22
788.38	230.20
788.71	230.17
789.03	230.16
789.35	230.15
789.67	230.11
789.99	230.10
790.32	230.06
790.64	230.05
790.96	230.15
791.28	230.08
791.61	230.06
791.93	230.05
792.25	230.02
792.57	230.08
792.89	230.05
793.21	230.04
793.54	230.01
793.86	229.97
794.18	229.96
794.50	229.91
794.82	229.90
795.14	229.89
795.47	229.88
795.79	229.87
796.11	229.82
796.43	229.81
796.75	229.79
797.07	229.79
797.39	229.76
797.71	229.64
798.04	229.64
798.36	229.62
798.68	229.61
799.00	229.61
799.32	229.54
799.64	229.54
799.96	229.53
800.28	229.53
800.60	229.51
800.92	229.50
801.24	229.48
801.56	229.47
801.89	229.45
802.21	229.44
802.53	229.39
802.85	229.40
803.17	229.45
803.49	229.41
803.81	229.39
804.13	229.37
804.45	229.34
804.77	229.33
805.09	229.32
805.41	229.29
805.73	229.26
806.05	229.20
806.37	229.17
806.69	229.13
807.01	229.12
807.33	229.11
807.65	229.05
807.97	229.10
808.28	229.08
808.60	229.07
808.92	229.04
809.24	229.11
809.56	229.08
809.88	229.03
810.20	229.02
810.52	229.04
810.84	229.02
811.16	229.00
811.48	228.98
811.80	229.01
812.12	229.00
812.43	229.01
812.75	229.01
813.07	229.00
813.39	228.99
813.71	228.96
814.03	228.95
814.35	228.96
814.67	228.90
814.98	228.87
815.30	228.86
815.62	228.82
815.94	228.73
816.26	228.73
816.58	228.69
816.89	228.69
817.21	228.65
817.53	228.65
817.85	228.64
818.17	228.64
818.48	228.58
818.80	228.60
819.12	228.57
819.44	228.54
819.76	228.52
820.07	228.51
820.39	228.51
820.71	228.50
821.03	228.48
821.34	228.47
821.66	228.48
821.98	228.48
822.30	228.47
822.61	228.53
822.93	228.50
823.25	228.49
823.57	228.47
823.88	228.48
824.20	228.48
824.52	228.48
824.83	228.46
825.15	228.45
825.47	228.42
825.79	228.43
826.10	228.42
826.42	228.41
826.74	228.41
827.05	228.40
827.37	228.39
827.69	228.37
828.00	228.38
828.32	228.36
828.64	228.35
828.95	228.41
829.27	228.37
829.58	228.37
829.90	228.39
830.22	228.39
830.53	228.35
830.85	228.33
831.17	228.29
831.48	228.30
831.80	228.29
832.11	228.28
832.43	228.26
832.75	228.25
833.06	228.32
833.38	228.28
833.69	228.28
834.01	228.29
834.32	228.28
834.64	228.26
834.96	228.26
835.27	228.25
835.59	228.20
835.90	228.18
836.22	228.17
836.53	228.14
836.85	228.13
837.16	228.26
837.48	228.26
837.79	228.30
838.11	228.29
838.42	228.30
838.74	228.30
839.05	228.28
839.37	228.27
839.68	228.19
840.00	228.19
840.31	228.19
840.63	228.17
840.94	228.16
841.26	228.14
841.57	228.14
841.88	228.15
842.20	228.12
842.51	228.11
842.83	228.10
843.14	228.20
843.46	228.19
843.77	228.10
844.08	228.10
844.40	228.05
844.71	228.04
845.03	228.02
845.34	228.01
845.65	228.01
845.97	228.01
846.28	228.01
846.60	228.02
846.91	227.99
847.22	227.99
847.54	228.01
847.85	228.03
848.16	228.00
848.48	227.98
848.79	228.03
849.10	228.05
849.42	228.06
849.73	227.94
850.04	227.94
850.36	227.89
850.67	227.91
850.98	227.91
851.30	227.92
851.61	227.91
851.92	227.91
852.23	227.94
852.55	227.96
852.86	227.96
853.17	227.97
853.49	228.00
853.80	228.03
854.11	228.02
854.42	228.03
854.74	228.02
855.05	228.03
855.36	227.96
855.67	227.96
855.99	227.96
856.30	228.11
856.61	228.11
856.92	228.11
857.23	228.12
857.55	228.11
857.86	228.10
858.17	228.12
858.48	228.10
858.79	228.07
859.11	228.08
859.42	228.07
859.73	228.05
860.04	228.05
860.35	228.00
860.66	227.97
860.98	227.96
861.29	227.98
861.60	227.98
861.91	228.00
862.22	227.97
862.53	227.94
862.84	227.78
863.16	227.81
863.47	227.79
863.78	227.77
864.09	227.77
864.40	227.78
864.71	227.78
865.02	227.79
865.33	227.78
865.64	227.75
865.95	227.75
866.27	227.82
866.58	227.80
866.89	227.81
867.20	227.80
867.51	227.78
867.82	227.77
868.13	227.79
868.44	227.77
868.75	227.79
869.06	227.80
869.37	227.82
869.68	227.78
869.99	227.81
870.30	227.81
870.61	227.82
870.92	227.80
871.23	227.78
871.54	227.79
871.85	227.81
872.16	227.82
872.47	227.81
872.78	227.74
873.09	227.75
873.40	227.74
873.71	227.76
874.02	227.76
874.33	227.75
874.64	227.72
874.95	227.74
875.26	227.72
875.56	227.71
875.87	227.70
876.18	227.69
876.49	227.80
876.80	227.80
877.11	227.76
877.42	227.77
877.73	227.77
878.04	227.76
878.35	227.76
878.66	227.77
878.96	227.76
879.27	227.75
879.58	227.74
879.89	227.73
880.20	227.76
880.51	227.76
880.82	227.76
881.12	227.77
881.43	227.75
881.74	227.74
882.05	227.74
882.36	227.74
882.67	227.75
882.97	227.62
883.28	227.61
883.59	227.61
883.90	227.63
884.21	227.64
884.51	227.62
884.82	227.61
885.13	227.60
885.44	227.61
885.74	227.61
886.05	227.61
886.36	227.62
886.67	227.59
886.98	227.64
887.28	227.67
887.59	227.66
887.90	227.67
888.20	227.66
888.51	227.68
888.82	227.67
889.13	227.67
889.43	227.77
889.74	227.76
890.05	227.76
890.35	227.75
890.66	227.72
890.97	227.72
891.28	227.70
891.58	227.69
891.89	227.69
892.20	227.68
892.50	227.66
892.81	227.64
893.12	227.63
893.42	227.56
893.73	227.56
894.04	227.56
894.34	227.56
894.65	227.56
894.95	227.55
895.26	227.55
895.57	227.61
895.87	227.50
896.18	227.52
896.48	227.53
896.79	227.53
897.10	227.55
897.40	227.56
897.71	227.58
898.01	227.57
898.32	227.58
898.63	227.59
898.93	227.59
899.24	227.60
899.54	227.61
899.85	227.60
900.15	227.59
900.46	227.59
900.76	227.61
901.07	227.60
901.38	227.60
901.68	227.61
901.99	227.54
902.29	227.55
902.60	227.53
902.90	227.52
903.21	227.51
903.51	227.50
903.82	227.52
904.12	227.51
904.43	227.51
904.73	227.51
905.03	227.50
905.34	227.62
905.64	227.62
905.95	227.61
906.25	227.61
906.56	227.61
906.86	227.61
907.17	227.60
907.47	227.61
907.77	227.60
908.08	227.57
908.38	227.58
908.69	227.58
908.99	227.60
909.30	227.61
909.60	227.61
909.90	227.62
910.21	227.59
910.51	227.57
910.81	227.57
911.12	227.58
911.42	227.59
911.73	227.47
912.03	227.47
912.33	227.50
912.64	227.48
912.94	227.46
913.24	227.43
913.55	227.42
913.85	227.42
914.15	227.43
914.46	227.45
914.76	227.44
915.06	227.44
915.37	227.41
915.67	227.40
915.97	227.41
916.27	227.38
916.58	227.39
916.88	227.40
917.18	227.39
917.49	227.47
917.79	227.47
918.09	227.48
918.39	227.51
918.70	227.50
919.00	227.51
919.30	227.58
919.60	227.59
919.91	227.58
920.21	227.58
920.51	227.56
920.81	227.55
921.12	227.57
921.42	227.57
921.72	227.58
922.02	227.58
922.32	227.59
922.63	227.60
922.93	227.66
923.23	227.66
923.53	227.65
923.83	227.56
924.13	227.56
924.44	227.56
924.74	227.58
925.04	227.61
925.34	227.60
925.64	227.55
925.94	227.55
926.24	227.62
926.55	227.61
926.85	227.63
927.15	227.62
927.45	227.61
927.75	227.61
928.05	227.61
928.35	227.61
928.65	227.63
928.95	227.64
929.26	227.57
929.56	227.60
929.86	227.61
930.16	227.61
930.46	227.61
930.76	227.60
931.06	227.54
931.36	227.51
931.66	227.53
931.96	227.55
932.26	227.55
932.56	227.50
932.86	227.50
933.16	227.50
933.46	227.49
933.76	227.48
934.06	227.50
934.36	227.54
934.66	227.53
934.96	227.51
935.26	227.51
935.56	227.53
935.86	227.50
936.16	227.48
936.46	227.47
936.76	227.45
937.06	227.43
937.36	227.45
937.66	227.44
937.96	227.43
938.26	227.40
938.56	227.40
938.86	227.40
939.16	227.43
939.46	227.43
939.76	227.44
940.06	227.43
940.35	227.40
940.65	227.33
940.95	227.34
941.25	227.31
941.55	227.29
941.85	227.28
942.15	227.30
942.45	227.33
942.75	227.33
943.04	227.34
943.34	227.36
943.64	227.34
943.94	227.32
944.24	227.31
944.54	227.32
944.84	227.30
945.13	227.28
945.43	227.26
945.73	227.26
946.03	227.25
946.33	227.25
946.62	227.24
946.92	227.23
947.22	227.24
947.52	227.25
947.82	227.26
948.11	227.25
948.41	227.22
948.71	227.19
949.01	227.21
949.31	227.20
949.60	227.19
949.90	227.21
950.20	227.21
950.50	227.21
950.79	227.20
951.09	227.22
951.39	227.22
951.69	227.20
951.98	227.22
952.28	227.22
952.58	227.21
952.87	227.21
953.17	227.23
953.47	227.21
953.76	227.21
954.06	227.19
954.36	227.18
954.66	227.18
954.95	227.21
955.25	227.22
955.55	227.23
955.84	227.21
956.14	227.22
956.44	227.23
956.73	227.21
957.03	227.22
957.32	227.22
957.62	227.23
957.92	227.26
958.21	227.24
958.51	227.38
958.81	227.41
959.10	227.43
959.40	227.45
959.69	227.46
959.99	227.48
960.29	227.49
960.58	227.48
960.88	227.53
961.17	227.52
961.47	227.52
961.76	227.51
962.06	227.54
962.36	227.53
962.65	227.53
962.95	227.55
963.24	227.53
963.54	227.53
963.83	227.54
964.13	227.53
964.42	227.52
964.72	227.42
965.01	227.42
965.31	227.41
965.60	227.38
965.90	227.46
966.19	227.43
966.49	227.44
966.78	227.44
967.08	227.43
967.37	227.43
967.67	227.41
967.96	227.43
968.26	227.42
968.55	227.43
968.85	227.43
969.14	227.42
969.43	227.43
969.73	227.42
970.02	227.41
970.32	227.42
970.61	227.40
970.91	227.37
971.20	227.34
971.49	227.33
971.79	227.35
972.08	227.27
972.38	227.28
972.67	227.27
972.96	227.29
973.26	227.26
973.55	227.30
973.85	227.29
974.14	227.28
974.43	227.29
974.73	227.27
975.02	227.25
975.31	227.25
975.61	227.25
975.90	227.24
976.19	227.24
976.49	227.24
976.78	227.24
977.07	227.24
977.37	227.25
977.66	227.26
977.95	227.25
978.24	227.26
978.54	227.29
978.83	227.29
979.12	227.28
979.42	227.28
979.71	227.26
980.00	227.26
980.29	227.26
980.59	227.24
980.88	227.28
981.17	227.28
981.46	227.28
981.76	227.27
982.05	227.31
982.34	227.30
982.63	227.30
982.93	227.30
983.22	227.34
983.51	227.34
983.80	227.36
984.09	227.36
984.39	227.35
984.68	227.32
984.97	227.33
985.26	227.32
985.55	227.32
985.85	227.30
986.14	227.33
986.43	227.34
986.72	227.34
987.01	227.30
987.30	227.30
987.59	227.29
987.89	227.29
988.18	227.25
988.47	227.25
988.76	227.24
989.05	227.22
989.34	227.20
989.63	227.23
989.92	227.20
990.22	227.18
990.51	227.18
990.80	227.17
991.09	227.18
991.38	227.19
991.67	227.17
991.96	227.16
992.25	227.15
992.54	227.13
992.83	227.12
993.12	227.11
993.41	227.14
993.70	227.19
993.99	227.22
994.28	227.23
994.58	227.25
994.87	227.24
995.16	227.25
995.45	227.24
995.74	227.19
996.03	227.21
996.32	227.24
996.61	227.26
996.90	227.26
997.19	227.25
997.48	227.26
997.77	227.25
998.06	227.26
998.34	227.25
998.63	227.25
998.92	227.26
999.21	227.28
999.50	227.28
999.79	227.24
1000.08	227.24
1000.37	227.24
1000.66	227.23
1000.95	227.26
1001.24	227.27
1001.53	227.29
1001.82	227.30
1002.11	227.28
1002.40	227.29
1002.68	227.32
1002.97	227.41
1003.26	227.41
1003.55	227.38
1003.84	227.39
1004.13	227.45
1004.42	227.44
1004.71	227.45
1004.99	227.44
1005.28	227.46
1005.57	227.46
1005.86	227.44
1006.15	227.42
1006.44	227.41
1006.72	227.42
1007.01	227.40
1007.30	227.40
1007.59	227.39
1007.88	227.38
1008.17	227.38
1008.45	227.35
1008.74	227.30
1009.03	227.24
1009.32	227.24
1009.60	227.24
1009.89	227.23
1010.18	227.18
1010.47	227.18
1010.76	227.18
1011.04	227.17
1011.33	227.17
1011.62	227.18
1011.91	227.19
1012.19	227.19
1012.48	227.19
1012.77	227.18
1013.05	227.22
1013.34	227.23
1013.63	227.21
1013.92	227.22
1014.20	227.23
1014.49	227.23
1014.78	227.25
1015.06	227.22
1015.35	227.23
1015.64	227.25
1015.92	227.28
1016.21	227.29
1016.50	227.29
1016.78	227.31
1017.07	227.32
1017.36	227.30
1017.64	227.28
1017.93	227.29
1018.22	227.28
1018.50	227.27
1018.79	227.27
1019.08	227.23
1019.36	227.23
1019.65	227.22
1019.93	227.24
1020.22	227.26
1020.51	227.32
1020.79	227.29
1021.08	227.12
1021.36	226.86
1021.65	227.26
1021.94	227.12
1022.22	227.16
1022.51	226.91
1022.79	227.72
1023.08	227.57
1023.36	228.54
1023.65	226.83
>>>>>End Processed Spectral Data<<<<<
