SpectraSuite Data File
++++++++++++++++++++++++++++++++++++
Date: Fri Oct 02 17:28:46 EDT 2015
User: lab3
Dark Spectrum Present: No
Reference Spectrum Present: No
Number of Sampled Component Spectra: 1
Spectrometers: USB2E7196
Integration Time (usec): 46000 (USB2E7196)
Spectra Averaged: 600 (USB2E7196)
Boxcar Smoothing: 10 (USB2E7196)
Correct for Electrical Dark: No (USB2E7196)
Strobe/Lamp Enabled: No (USB2E7196)
Correct for Detector Non-linearity: No (USB2E7196)
Correct for Stray Light: No (USB2E7196)
Number of Pixels in Processed Spectrum: 2048
>>>>>Begin Processed Spectral Data<<<<<
339.09	0.00
339.48	215.30
339.86	216.50
340.24	217.85
340.63	219.25
341.01	222.51
341.39	222.20
341.78	223.40
342.16	224.70
342.54	225.21
342.93	213.54
343.31	224.32
343.69	224.85
344.07	225.32
344.46	225.76
344.84	226.16
345.22	226.38
345.60	226.63
345.99	226.83
346.37	226.96
346.75	227.06
347.13	227.12
347.52	227.19
347.90	227.27
348.28	227.31
348.66	227.37
349.05	227.37
349.43	227.42
349.81	227.49
350.19	227.55
350.57	227.62
350.96	227.69
351.34	227.79
351.72	227.89
352.10	227.98
352.48	228.05
352.87	228.11
353.25	228.17
353.63	228.25
354.01	228.31
354.39	228.37
354.77	228.46
355.15	228.56
355.54	228.60
355.92	228.64
356.30	228.71
356.68	228.86
357.06	228.94
357.44	228.98
357.82	229.04
358.20	229.14
358.58	229.19
358.97	229.24
359.35	229.32
359.73	229.41
360.11	229.47
360.49	229.52
360.87	229.57
361.25	229.63
361.63	229.71
362.01	229.76
362.39	229.81
362.77	229.86
363.15	229.89
363.53	229.93
363.91	229.98
364.29	229.99
364.67	229.90
365.05	229.91
365.43	229.95
365.81	229.97
366.19	229.98
366.57	230.04
366.95	230.06
367.33	230.04
367.71	230.02
368.09	230.05
368.47	230.06
368.85	230.04
369.23	230.05
369.61	230.00
369.99	230.02
370.37	230.00
370.75	230.09
371.13	230.05
371.51	230.01
371.89	229.96
372.27	229.94
372.65	229.91
373.03	229.88
373.41	229.83
373.78	229.78
374.16	229.70
374.54	229.61
374.92	229.54
375.30	229.50
375.68	229.42
376.06	229.38
376.44	229.31
376.82	229.28
377.19	229.23
377.57	229.19
377.95	229.11
378.33	229.05
378.71	228.88
379.09	228.85
379.47	228.83
379.84	228.77
380.22	228.71
380.60	228.64
380.98	228.58
381.36	228.55
381.73	228.47
382.11	228.46
382.49	228.42
382.87	228.36
383.25	228.31
383.62	228.42
384.00	228.35
384.38	228.31
384.76	228.29
385.13	228.27
385.51	228.23
385.89	228.16
386.27	228.14
386.64	228.11
387.02	228.04
387.40	228.00
387.78	227.99
388.15	227.97
388.53	227.95
388.91	227.93
389.29	227.88
389.66	227.88
390.04	227.83
390.42	227.83
390.79	227.82
391.17	227.80
391.55	227.66
391.92	227.64
392.30	227.63
392.68	227.60
393.05	227.58
393.43	227.59
393.81	227.60
394.18	227.58
394.56	227.59
394.94	227.65
395.31	227.64
395.69	227.67
396.06	227.70
396.44	227.71
396.82	227.72
397.19	227.81
397.57	227.83
397.95	227.89
398.32	227.88
398.70	227.93
399.07	228.00
399.45	228.05
399.82	228.09
400.20	228.13
400.58	228.17
400.95	228.19
401.33	228.27
401.70	228.41
402.08	228.50
402.45	228.58
402.83	228.68
403.20	228.79
403.58	228.87
403.95	229.01
404.33	229.17
404.71	229.32
405.08	229.52
405.46	229.68
405.83	229.86
406.21	230.05
406.58	230.27
406.96	230.48
407.33	230.70
407.70	230.98
408.08	231.36
408.45	231.70
408.83	232.04
409.20	232.34
409.58	232.63
409.95	233.03
410.33	233.46
410.70	233.86
411.08	234.35
411.45	234.85
411.82	235.36
412.20	235.93
412.57	236.61
412.95	237.16
413.32	237.87
413.69	238.60
414.07	239.38
414.44	240.21
414.82	241.06
415.19	242.08
415.56	243.11
415.94	244.17
416.31	245.36
416.68	246.56
417.06	247.96
417.43	249.26
417.81	250.75
418.18	252.26
418.55	253.91
418.93	255.63
419.30	257.44
419.67	259.34
420.04	261.30
420.42	263.34
420.79	265.70
421.16	268.08
421.54	270.50
421.91	273.03
422.28	275.66
422.66	278.50
423.03	281.23
423.40	284.07
423.77	287.10
424.15	290.21
424.52	293.45
424.89	296.99
425.26	300.48
425.64	303.74
426.01	307.40
426.38	311.16
426.75	315.00
427.13	318.98
427.50	323.15
427.87	327.48
428.24	331.84
428.61	336.03
428.99	340.56
429.36	345.54
429.73	350.29
430.10	355.08
430.47	359.96
430.85	364.96
431.22	370.34
431.59	375.88
431.96	381.28
432.33	387.32
432.70	393.04
433.08	399.81
433.45	406.20
433.82	412.50
434.19	419.54
434.56	426.49
434.93	433.19
435.30	439.80
435.68	447.32
436.05	454.67
436.42	461.98
436.79	468.67
437.16	475.89
437.53	483.62
437.90	491.32
438.27	498.85
438.64	507.00
439.01	514.36
439.38	521.13
439.75	527.62
440.13	534.90
440.50	541.84
440.87	547.34
441.24	553.34
441.61	559.91
441.98	564.66
442.35	570.31
442.72	576.06
443.09	581.50
443.46	584.87
443.83	587.32
444.20	589.35
444.57	592.38
444.94	594.01
445.31	595.70
445.68	597.11
446.05	598.07
446.42	597.45
446.79	596.69
447.16	595.99
447.53	595.28
447.90	592.70
448.27	590.20
448.64	586.56
449.01	583.96
449.37	579.03
449.74	574.54
450.11	568.80
450.48	562.60
450.85	556.40
451.22	551.07
451.59	545.88
451.96	541.16
452.33	534.44
452.70	528.48
453.07	521.22
453.43	514.00
453.80	507.04
454.17	500.37
454.54	494.21
454.91	487.25
455.28	480.81
455.65	474.72
456.02	468.33
456.38	463.17
456.75	456.53
457.12	451.18
457.49	445.81
457.86	440.78
458.23	436.34
458.59	431.46
458.96	426.45
459.33	422.06
459.70	417.60
460.07	414.22
460.43	410.24
460.80	406.56
461.17	403.34
461.54	399.85
461.91	396.59
462.27	393.29
462.64	390.64
463.01	387.56
463.38	384.45
463.74	381.64
464.11	379.16
464.48	376.96
464.85	374.56
465.21	372.77
465.58	370.73
465.95	368.42
466.32	366.57
466.68	364.75
467.05	362.93
467.42	361.12
467.78	359.18
468.15	357.41
468.52	356.11
468.88	354.36
469.25	352.75
469.62	351.51
469.98	350.13
470.35	348.91
470.72	347.81
471.08	346.68
471.45	345.74
471.82	344.71
472.18	343.59
472.55	342.88
472.92	341.96
473.28	341.26
473.65	340.50
474.02	339.77
474.38	339.16
474.75	338.80
475.11	338.33
475.48	338.12
475.85	337.84
476.21	337.70
476.58	337.65
476.94	337.80
477.31	337.85
477.67	337.94
478.04	338.14
478.41	338.42
478.77	338.85
479.14	339.12
479.50	339.63
479.87	340.28
480.23	340.95
480.60	341.60
480.96	342.25
481.33	343.21
481.69	344.19
482.06	345.16
482.42	346.07
482.79	347.17
483.15	348.42
483.52	349.87
483.88	351.28
484.25	352.72
484.61	354.26
484.98	355.92
485.34	357.81
485.71	359.77
486.07	361.87
486.44	363.96
486.80	366.28
487.17	368.70
487.53	371.34
487.90	374.10
488.26	377.13
488.62	380.29
488.99	383.50
489.35	386.85
489.72	390.49
490.08	394.30
490.44	398.23
490.81	402.36
491.17	406.57
491.54	411.08
491.90	415.79
492.26	420.78
492.63	426.03
492.99	431.51
493.36	437.15
493.72	443.10
494.08	449.22
494.45	455.72
494.81	462.45
495.17	469.39
495.54	476.66
495.90	484.23
496.26	492.01
496.63	499.99
496.99	508.33
497.35	517.04
497.72	526.00
498.08	535.20
498.44	544.71
498.80	554.81
499.17	565.15
499.53	575.77
499.89	586.83
500.26	598.05
500.62	609.55
500.98	621.72
501.34	634.03
501.71	646.86
502.07	659.86
502.43	673.40
502.79	687.16
503.16	701.41
503.52	715.84
503.88	730.71
504.24	746.01
504.60	761.50
504.97	777.49
505.33	793.93
505.69	811.20
506.05	828.81
506.41	846.34
506.78	864.05
507.14	882.32
507.50	900.96
507.86	919.95
508.22	939.18
508.59	958.28
508.95	978.20
509.31	998.80
509.67	1020.10
510.03	1041.37
510.39	1062.70
510.75	1084.28
511.12	1106.11
511.48	1128.09
511.84	1150.14
512.20	1172.58
512.56	1195.82
512.92	1219.11
513.28	1242.09
513.64	1265.24
514.00	1288.81
514.37	1312.68
514.73	1336.55
515.09	1360.33
515.45	1384.48
515.81	1408.80
516.17	1433.23
516.53	1457.11
516.89	1480.90
517.25	1504.90
517.61	1528.84
517.97	1553.26
518.33	1577.06
518.69	1600.84
519.05	1625.11
519.41	1649.70
519.77	1674.36
520.13	1698.39
520.49	1722.38
520.85	1746.70
521.21	1770.48
521.57	1794.74
521.93	1818.42
522.29	1842.58
522.65	1866.33
523.01	1890.01
523.37	1913.28
523.73	1937.25
524.09	1961.01
524.45	1984.51
524.81	2007.61
525.17	2030.51
525.53	2052.78
525.89	2075.57
526.25	2098.31
526.61	2120.09
526.97	2141.97
527.33	2163.89
527.68	2185.44
528.04	2206.22
528.40	2226.02
528.76	2246.33
529.12	2265.98
529.48	2285.27
529.84	2302.91
530.20	2321.10
530.56	2338.72
530.91	2356.44
531.27	2373.77
531.63	2390.37
531.99	2406.61
532.35	2422.15
532.71	2437.68
533.07	2453.97
533.42	2468.47
533.78	2483.88
534.14	2499.48
534.50	2514.09
534.86	2528.51
535.21	2541.04
535.57	2554.05
535.93	2566.88
536.29	2578.44
536.65	2589.97
537.00	2601.01
537.36	2612.77
537.72	2623.03
538.08	2632.89
538.44	2642.10
538.79	2650.95
539.15	2658.93
539.51	2666.46
539.87	2673.38
540.22	2678.54
540.58	2683.74
540.94	2690.08
541.29	2694.88
541.65	2697.91
542.01	2700.37
542.37	2702.10
542.72	2705.17
543.08	2706.51
543.44	2708.41
543.79	2709.39
544.15	2709.41
544.51	2709.86
544.87	2709.22
545.22	2707.80
545.58	2705.72
545.94	2703.81
546.29	2700.50
546.65	2697.17
547.01	2693.82
547.36	2691.21
547.72	2688.54
548.07	2684.22
548.43	2678.41
548.79	2671.83
549.14	2666.48
549.50	2661.28
549.86	2655.26
550.21	2648.13
550.57	2641.94
550.92	2633.48
551.28	2625.61
551.64	2618.00
551.99	2609.91
552.35	2601.25
552.70	2592.94
553.06	2584.87
553.41	2576.12
553.77	2567.19
554.13	2558.19
554.48	2548.32
554.84	2537.27
555.19	2526.85
555.55	2516.42
555.90	2506.12
556.26	2496.18
556.61	2485.14
556.97	2472.51
557.32	2460.45
557.68	2448.32
558.03	2435.97
558.39	2424.77
558.74	2413.75
559.10	2401.18
559.45	2388.87
559.81	2377.21
560.16	2364.84
560.52	2352.67
560.87	2340.77
561.23	2328.11
561.58	2315.70
561.94	2302.89
562.29	2289.57
562.64	2276.91
563.00	2263.93
563.35	2251.39
563.71	2238.58
564.06	2225.77
564.42	2213.62
564.77	2200.83
565.12	2187.96
565.48	2175.09
565.83	2162.25
566.19	2149.52
566.54	2136.77
566.89	2122.81
567.25	2109.03
567.60	2096.52
567.96	2083.23
568.31	2068.66
568.66	2054.82
569.02	2041.95
569.37	2029.11
569.72	2016.77
570.08	2003.19
570.43	1989.22
570.78	1975.01
571.14	1960.25
571.49	1946.14
571.84	1932.68
572.20	1917.90
572.55	1903.46
572.90	1888.82
573.26	1874.19
573.61	1859.06
573.96	1844.33
574.31	1829.92
574.67	1815.48
575.02	1800.17
575.37	1784.85
575.72	1770.39
576.08	1756.26
576.43	1741.01
576.78	1726.20
577.13	1711.68
577.49	1697.47
577.84	1683.90
578.19	1669.42
578.54	1655.15
578.90	1640.37
579.25	1625.48
579.60	1612.20
579.95	1598.67
580.30	1585.05
580.66	1571.14
581.01	1557.24
581.36	1543.30
581.71	1530.38
582.06	1517.31
582.42	1504.49
582.77	1491.73
583.12	1478.86
583.47	1465.87
583.82	1452.99
584.17	1439.78
584.53	1426.21
584.88	1413.04
585.23	1399.48
585.58	1386.72
585.93	1374.22
586.28	1362.44
586.63	1350.58
586.98	1338.22
587.34	1326.03
587.69	1313.53
588.04	1301.39
588.39	1289.60
588.74	1277.94
589.09	1266.02
589.44	1253.75
589.79	1242.11
590.14	1230.54
590.49	1219.00
590.84	1207.59
591.19	1196.62
591.54	1185.43
591.89	1174.38
592.25	1163.43
592.60	1152.21
592.95	1141.39
593.30	1130.72
593.65	1119.72
594.00	1108.89
594.35	1098.68
594.70	1088.02
595.05	1078.26
595.40	1068.39
595.75	1058.34
596.10	1048.84
596.45	1039.04
596.80	1029.55
597.15	1019.80
597.50	1010.27
597.85	1001.10
598.19	991.75
598.54	982.47
598.89	973.62
599.24	965.07
599.59	956.39
599.94	948.58
600.29	940.60
600.64	932.29
600.99	923.73
601.34	915.45
601.69	906.86
602.04	898.91
602.39	890.79
602.74	882.72
603.08	874.64
603.43	866.54
603.78	858.61
604.13	850.87
604.48	843.11
604.83	835.53
605.18	827.81
605.53	820.30
605.87	812.56
606.22	805.17
606.57	797.74
606.92	790.17
607.27	782.53
607.62	775.21
607.96	768.31
608.31	761.76
608.66	755.12
609.01	748.68
609.36	742.37
609.70	735.85
610.05	729.31
610.40	723.01
610.75	716.72
611.10	710.74
611.44	704.64
611.79	698.61
612.14	692.49
612.49	686.49
612.83	680.76
613.18	675.16
613.53	669.50
613.88	663.84
614.22	658.63
614.57	653.33
614.92	647.84
615.27	642.49
615.61	637.22
615.96	631.96
616.31	626.73
616.65	621.57
617.00	616.60
617.35	611.75
617.70	606.97
618.04	602.22
618.39	597.42
618.74	592.82
619.08	588.29
619.43	583.87
619.78	579.47
620.12	575.01
620.47	570.74
620.82	566.52
621.16	562.35
621.51	558.05
621.85	553.83
622.20	549.79
622.55	545.77
622.89	541.82
623.24	537.85
623.59	533.95
623.93	530.22
624.28	526.54
624.62	522.99
624.97	519.46
625.32	515.91
625.66	512.30
626.01	508.64
626.35	505.06
626.70	501.51
627.04	498.17
627.39	494.75
627.73	491.51
628.08	488.34
628.43	485.16
628.77	482.08
629.12	479.07
629.46	476.10
629.81	473.06
630.15	470.00
630.50	467.07
630.84	464.15
631.19	461.28
631.53	458.54
631.88	455.74
632.22	452.96
632.57	450.46
632.91	448.02
633.26	445.65
633.60	443.30
633.95	441.03
634.29	438.62
634.64	436.34
634.98	433.81
635.32	431.48
635.67	429.33
636.01	427.09
636.36	424.92
636.70	422.88
637.05	420.80
637.39	418.77
637.73	416.75
638.08	414.88
638.42	412.93
638.77	410.88
639.11	408.80
639.45	406.79
639.80	404.73
640.14	402.74
640.49	400.74
640.83	398.72
641.17	396.80
641.52	394.89
641.86	393.03
642.20	391.34
642.55	389.51
642.89	387.73
643.23	386.02
643.58	384.47
643.92	382.79
644.26	381.18
644.61	379.61
644.95	378.01
645.29	376.34
645.64	374.69
645.98	373.12
646.32	371.66
646.66	370.16
647.01	368.70
647.35	367.28
647.69	365.86
648.04	364.58
648.38	363.20
648.72	361.87
649.06	360.51
649.41	359.21
649.75	357.93
650.09	356.61
650.43	355.33
650.78	354.01
651.12	352.70
651.46	351.45
651.80	350.24
652.14	349.06
652.49	347.90
652.83	346.75
653.17	345.63
653.51	344.52
653.85	343.50
654.20	342.40
654.54	341.24
654.88	340.17
655.22	339.13
655.56	338.08
655.90	337.09
656.25	336.11
656.59	335.10
656.93	334.15
657.27	333.24
657.61	332.26
657.95	331.30
658.29	330.38
658.64	329.49
658.98	328.59
659.32	327.70
659.66	326.88
660.00	326.06
660.34	325.25
660.68	324.40
661.02	323.50
661.36	322.64
661.70	321.83
662.05	321.02
662.39	320.20
662.73	319.47
663.07	318.72
663.41	317.96
663.75	317.20
664.09	316.43
664.43	315.61
664.77	314.90
665.11	314.15
665.45	313.45
665.79	312.75
666.13	312.00
666.47	311.26
666.81	310.48
667.15	309.69
667.49	309.02
667.83	308.40
668.17	307.76
668.51	307.17
668.85	306.60
669.19	306.07
669.53	305.43
669.87	304.77
670.21	304.14
670.55	303.55
670.89	303.02
671.23	302.47
671.57	301.92
671.91	301.40
672.25	300.91
672.58	300.41
672.92	299.84
673.26	299.35
673.60	298.87
673.94	298.41
674.28	297.97
674.62	297.47
674.96	296.93
675.30	296.45
675.64	295.93
675.97	295.41
676.31	294.84
676.65	294.34
676.99	293.90
677.33	293.39
677.67	292.91
678.01	292.35
678.34	291.89
678.68	291.45
679.02	290.94
679.36	290.43
679.70	289.92
680.04	289.48
680.37	289.00
680.71	288.55
681.05	288.10
681.39	287.63
681.73	287.12
682.06	286.63
682.40	286.17
682.74	285.76
683.08	285.38
683.42	284.96
683.75	284.58
684.09	284.10
684.43	283.69
684.77	283.27
685.10	282.90
685.44	282.47
685.78	282.06
686.12	281.67
686.45	281.28
686.79	280.86
687.13	280.46
687.46	280.04
687.80	279.65
688.14	279.21
688.48	278.83
688.81	278.44
689.15	278.10
689.49	277.70
689.82	277.29
690.16	276.82
690.50	276.43
690.83	276.02
691.17	275.64
691.51	275.26
691.84	274.89
692.18	274.47
692.52	274.07
692.85	273.66
693.19	273.32
693.52	272.94
693.86	272.56
694.20	272.18
694.53	271.83
694.87	271.44
695.21	271.06
695.54	270.68
695.88	270.30
696.21	269.89
696.55	269.53
696.88	269.17
697.22	268.81
697.56	268.45
697.89	268.05
698.23	267.67
698.56	267.28
698.90	266.93
699.23	266.57
699.57	266.20
699.90	265.84
700.24	265.46
700.58	265.12
700.91	264.83
701.25	264.61
701.58	264.32
701.92	264.02
702.25	263.71
702.59	263.38
702.92	263.07
703.26	262.74
703.59	262.39
703.93	262.16
704.26	261.84
704.60	261.51
704.93	261.20
705.26	260.88
705.60	260.62
705.93	260.28
706.27	260.00
706.60	259.74
706.94	259.49
707.27	259.14
707.61	258.84
707.94	258.50
708.27	258.08
708.61	257.71
708.94	257.40
709.28	257.10
709.61	256.78
709.94	256.51
710.28	256.27
710.61	256.01
710.95	255.63
711.28	255.44
711.61	255.17
711.95	254.93
712.28	254.66
712.61	254.36
712.95	254.18
713.28	253.97
713.61	253.68
713.95	253.38
714.28	253.14
714.61	252.88
714.95	252.64
715.28	252.38
715.61	252.17
715.95	251.94
716.28	251.71
716.61	251.53
716.95	251.28
717.28	251.03
717.61	250.80
717.94	250.59
718.28	250.26
718.61	250.03
718.94	249.78
719.27	249.58
719.61	249.39
719.94	249.15
720.27	248.87
720.60	248.67
720.94	248.47
721.27	248.28
721.60	248.10
721.93	247.89
722.27	247.74
722.60	247.54
722.93	247.33
723.26	247.11
723.59	246.88
723.93	246.71
724.26	246.53
724.59	246.32
724.92	246.13
725.25	246.01
725.59	245.84
725.92	245.69
726.25	245.51
726.58	245.32
726.91	245.13
727.24	244.98
727.57	244.79
727.91	244.60
728.24	244.43
728.57	244.25
728.90	244.10
729.23	243.88
729.56	243.75
729.89	243.58
730.22	243.41
730.55	243.25
730.89	243.08
731.22	242.91
731.55	242.75
731.88	242.60
732.21	242.41
732.54	242.25
732.87	242.10
733.20	241.95
733.53	241.80
733.86	241.67
734.19	241.49
734.52	241.37
734.85	241.33
735.18	241.16
735.51	241.06
735.84	240.92
736.17	240.83
736.50	240.62
736.83	240.65
737.16	240.53
737.49	240.42
737.82	240.28
738.15	240.17
738.48	240.06
738.81	239.94
739.14	239.81
739.47	239.70
739.80	239.56
740.13	239.43
740.46	239.30
740.79	239.16
741.12	239.04
741.45	238.90
741.78	238.70
742.11	238.61
742.44	238.46
742.77	238.37
743.10	238.22
743.43	238.11
743.75	237.88
744.08	237.96
744.41	237.84
744.74	237.73
745.07	237.60
745.40	237.50
745.73	237.44
746.06	237.34
746.39	237.25
746.71	237.14
747.04	237.03
747.37	236.93
747.70	236.85
748.03	236.76
748.36	236.69
748.68	236.59
749.01	236.46
749.34	236.38
749.67	236.30
750.00	236.23
750.33	236.23
750.65	236.14
750.98	235.85
751.31	235.76
751.64	235.68
751.97	235.67
752.29	235.57
752.62	235.44
752.95	235.35
753.28	235.24
753.60	235.15
753.93	235.11
754.26	235.03
754.59	234.89
754.91	234.80
755.24	234.72
755.57	234.69
755.90	234.61
756.22	234.50
756.55	234.39
756.88	234.28
757.20	234.11
757.53	234.00
757.86	233.92
758.19	233.86
758.51	233.78
758.84	233.63
759.17	233.54
759.49	233.47
759.82	233.47
760.15	233.42
760.47	233.35
760.80	233.24
761.13	233.20
761.45	233.16
761.78	233.08
762.11	233.02
762.43	232.89
762.76	232.82
763.08	232.77
763.41	232.73
763.74	232.68
764.06	232.63
764.39	232.59
764.71	232.52
765.04	232.45
765.37	232.39
765.69	232.33
766.02	232.28
766.34	232.22
766.67	232.12
767.00	232.07
767.32	232.09
767.65	232.12
767.97	232.04
768.30	232.00
768.62	231.95
768.95	231.89
769.27	231.84
769.60	231.81
769.92	231.75
770.25	231.69
770.57	231.62
770.90	231.57
771.22	231.51
771.55	231.47
771.87	231.44
772.20	231.38
772.52	231.44
772.85	231.55
773.17	231.50
773.50	231.43
773.82	231.38
774.15	231.27
774.47	231.14
774.80	231.10
775.12	231.05
775.45	231.02
775.77	230.99
776.09	230.96
776.42	230.93
776.74	230.93
777.07	230.89
777.39	230.88
777.72	230.84
778.04	230.82
778.36	230.78
778.69	230.75
779.01	230.73
779.33	230.60
779.66	230.42
779.98	230.39
780.31	230.38
780.63	230.40
780.95	230.39
781.28	230.36
781.60	230.32
781.92	230.30
782.25	230.26
782.57	230.23
782.89	230.20
783.22	230.15
783.54	230.10
783.86	230.07
784.19	230.04
784.51	230.05
784.83	230.00
785.16	229.98
785.48	229.96
785.80	229.94
786.12	229.94
786.45	229.91
786.77	229.90
787.09	229.86
787.42	229.77
787.74	229.76
788.06	229.74
788.38	229.71
788.71	229.67
789.03	229.65
789.35	229.63
789.67	229.60
789.99	229.59
790.32	229.55
790.64	229.54
790.96	229.64
791.28	229.57
791.61	229.56
791.93	229.53
792.25	229.49
792.57	229.54
792.89	229.50
793.21	229.49
793.54	229.46
793.86	229.44
794.18	229.44
794.50	229.40
794.82	229.38
795.14	229.38
795.47	229.38
795.79	229.37
796.11	229.34
796.43	229.30
796.75	229.29
797.07	229.28
797.39	229.26
797.71	229.13
798.04	229.13
798.36	229.13
798.68	229.11
799.00	229.10
799.32	229.05
799.64	229.04
799.96	229.03
800.28	229.04
800.60	229.01
800.92	229.00
801.24	228.98
801.56	228.99
801.89	228.96
802.21	228.96
802.53	228.93
802.85	228.94
803.17	229.00
803.49	228.97
803.81	228.94
804.13	228.91
804.45	228.90
804.77	228.90
805.09	228.88
805.41	228.85
805.73	228.83
806.05	228.77
806.37	228.76
806.69	228.73
807.01	228.71
807.33	228.71
807.65	228.66
807.97	228.70
808.28	228.67
808.60	228.66
808.92	228.62
809.24	228.69
809.56	228.67
809.88	228.61
810.20	228.60
810.52	228.62
810.84	228.59
811.16	228.57
811.48	228.54
811.80	228.57
812.12	228.57
812.43	228.57
812.75	228.56
813.07	228.55
813.39	228.54
813.71	228.53
814.03	228.51
814.35	228.50
814.67	228.44
814.98	228.43
815.30	228.43
815.62	228.39
815.94	228.30
816.26	228.31
816.58	228.28
816.89	228.27
817.21	228.23
817.53	228.25
817.85	228.23
818.17	228.22
818.48	228.18
818.80	228.19
819.12	228.18
819.44	228.14
819.76	228.11
820.07	228.10
820.39	228.08
820.71	228.08
821.03	228.08
821.34	228.05
821.66	228.06
821.98	228.05
822.30	228.05
822.61	228.11
822.93	228.07
823.25	228.07
823.57	228.05
823.88	228.05
824.20	228.04
824.52	228.07
824.83	228.06
825.15	228.03
825.47	228.01
825.79	228.01
826.10	228.02
826.42	228.01
826.74	228.02
827.05	228.00
827.37	228.00
827.69	227.99
828.00	228.00
828.32	227.99
828.64	227.97
828.95	228.04
829.27	228.00
829.58	227.98
829.90	227.99
830.22	228.00
830.53	227.98
830.85	227.96
831.17	227.92
831.48	227.91
831.80	227.90
832.11	227.89
832.43	227.85
832.75	227.84
833.06	227.91
833.38	227.88
833.69	227.87
834.01	227.86
834.32	227.87
834.64	227.85
834.96	227.84
835.27	227.84
835.59	227.78
835.90	227.77
836.22	227.78
836.53	227.75
836.85	227.73
837.16	227.85
837.48	227.85
837.79	227.90
838.11	227.89
838.42	227.89
838.74	227.91
839.05	227.90
839.37	227.90
839.68	227.82
840.00	227.81
840.31	227.83
840.63	227.82
840.94	227.80
841.26	227.79
841.57	227.78
841.88	227.80
842.20	227.78
842.51	227.75
842.83	227.74
843.14	227.85
843.46	227.84
843.77	227.77
844.08	227.76
844.40	227.70
844.71	227.69
845.03	227.69
845.34	227.67
845.65	227.65
845.97	227.65
846.28	227.66
846.60	227.67
846.91	227.64
847.22	227.62
847.54	227.64
847.85	227.65
848.16	227.65
848.48	227.62
848.79	227.66
849.10	227.66
849.42	227.67
849.73	227.56
850.04	227.57
850.36	227.52
850.67	227.54
850.98	227.54
851.30	227.54
851.61	227.55
851.92	227.54
852.23	227.59
852.55	227.60
852.86	227.59
853.17	227.59
853.49	227.61
853.80	227.62
854.11	227.62
854.42	227.62
854.74	227.61
855.05	227.60
855.36	227.54
855.67	227.56
855.99	227.55
856.30	227.69
856.61	227.68
856.92	227.68
857.23	227.66
857.55	227.66
857.86	227.65
858.17	227.66
858.48	227.64
858.79	227.61
859.11	227.61
859.42	227.60
859.73	227.59
860.04	227.59
860.35	227.56
860.66	227.53
860.98	227.54
861.29	227.54
861.60	227.54
861.91	227.57
862.22	227.54
862.53	227.50
862.84	227.36
863.16	227.37
863.47	227.35
863.78	227.33
864.09	227.33
864.40	227.32
864.71	227.33
865.02	227.34
865.33	227.32
865.64	227.29
865.95	227.30
866.27	227.37
866.58	227.36
866.89	227.37
867.20	227.36
867.51	227.34
867.82	227.33
868.13	227.36
868.44	227.33
868.75	227.34
869.06	227.35
869.37	227.35
869.68	227.33
869.99	227.36
870.30	227.38
870.61	227.39
870.92	227.37
871.23	227.34
871.54	227.36
871.85	227.39
872.16	227.40
872.47	227.38
872.78	227.32
873.09	227.32
873.40	227.31
873.71	227.32
874.02	227.32
874.33	227.31
874.64	227.29
874.95	227.32
875.26	227.29
875.56	227.30
875.87	227.30
876.18	227.29
876.49	227.42
876.80	227.40
877.11	227.38
877.42	227.39
877.73	227.40
878.04	227.38
878.35	227.38
878.66	227.38
878.96	227.38
879.27	227.37
879.58	227.36
879.89	227.37
880.20	227.40
880.51	227.39
880.82	227.38
881.12	227.39
881.43	227.36
881.74	227.36
882.05	227.34
882.36	227.35
882.67	227.36
882.97	227.22
883.28	227.20
883.59	227.20
883.90	227.21
884.21	227.24
884.51	227.23
884.82	227.21
885.13	227.21
885.44	227.22
885.74	227.22
886.05	227.23
886.36	227.22
886.67	227.18
886.98	227.23
887.28	227.24
887.59	227.23
887.90	227.24
888.20	227.24
888.51	227.26
888.82	227.25
889.13	227.27
889.43	227.38
889.74	227.39
890.05	227.38
890.35	227.36
890.66	227.34
890.97	227.32
891.28	227.32
891.58	227.31
891.89	227.30
892.20	227.28
892.50	227.27
892.81	227.25
893.12	227.24
893.42	227.19
893.73	227.20
894.04	227.19
894.34	227.21
894.65	227.21
894.95	227.18
895.26	227.20
895.57	227.24
895.87	227.12
896.18	227.14
896.48	227.14
896.79	227.15
897.10	227.16
897.40	227.17
897.71	227.17
898.01	227.15
898.32	227.16
898.63	227.16
898.93	227.15
899.24	227.17
899.54	227.16
899.85	227.15
900.15	227.15
900.46	227.17
900.76	227.17
901.07	227.15
901.38	227.15
901.68	227.15
901.99	227.09
902.29	227.10
902.60	227.09
902.90	227.08
903.21	227.07
903.51	227.04
903.82	227.08
904.12	227.08
904.43	227.10
904.73	227.10
905.03	227.11
905.34	227.23
905.64	227.23
905.95	227.26
906.25	227.26
906.56	227.26
906.86	227.24
907.17	227.22
907.47	227.23
907.77	227.22
908.08	227.17
908.38	227.18
908.69	227.17
908.99	227.18
909.30	227.18
909.60	227.18
909.90	227.20
910.21	227.15
910.51	227.15
910.81	227.13
911.12	227.12
911.42	227.12
911.73	226.99
912.03	227.00
912.33	227.01
912.64	226.99
912.94	226.98
913.24	226.98
913.55	226.98
913.85	226.98
914.15	227.02
914.46	227.04
914.76	227.03
915.06	227.03
915.37	227.00
915.67	227.01
915.97	227.02
916.27	226.99
916.58	227.00
916.88	226.99
917.18	226.99
917.49	227.08
917.79	227.08
918.09	227.09
918.39	227.12
918.70	227.12
919.00	227.14
919.30	227.19
919.60	227.17
919.91	227.16
920.21	227.16
920.51	227.13
920.81	227.12
921.12	227.13
921.42	227.13
921.72	227.14
922.02	227.13
922.32	227.14
922.63	227.14
922.93	227.22
923.23	227.21
923.53	227.20
923.83	227.12
924.13	227.12
924.44	227.13
924.74	227.13
925.04	227.14
925.34	227.13
925.64	227.08
925.94	227.08
926.24	227.15
926.55	227.14
926.85	227.15
927.15	227.15
927.45	227.15
927.75	227.15
928.05	227.18
928.35	227.17
928.65	227.18
928.95	227.20
929.26	227.14
929.56	227.18
929.86	227.20
930.16	227.19
930.46	227.17
930.76	227.17
931.06	227.12
931.36	227.10
931.66	227.12
931.96	227.14
932.26	227.14
932.56	227.08
932.86	227.09
933.16	227.09
933.46	227.10
933.76	227.08
934.06	227.12
934.36	227.15
934.66	227.15
934.96	227.13
935.26	227.13
935.56	227.14
935.86	227.10
936.16	227.08
936.46	227.07
936.76	227.08
937.06	227.06
937.36	227.07
937.66	227.07
937.96	227.06
938.26	227.04
938.56	227.03
938.86	227.04
939.16	227.07
939.46	227.07
939.76	227.07
940.06	227.07
940.35	227.05
940.65	226.97
940.95	226.97
941.25	226.94
941.55	226.93
941.85	226.93
942.15	226.96
942.45	226.99
942.75	226.98
943.04	226.99
943.34	227.02
943.64	226.99
943.94	226.98
944.24	226.97
944.54	226.97
944.84	226.97
945.13	226.96
945.43	226.94
945.73	226.94
946.03	226.93
946.33	226.91
946.62	226.89
946.92	226.89
947.22	226.92
947.52	226.93
947.82	226.95
948.11	226.93
948.41	226.89
948.71	226.87
949.01	226.88
949.31	226.88
949.60	226.87
949.90	226.90
950.20	226.90
950.50	226.90
950.79	226.90
951.09	226.93
951.39	226.92
951.69	226.91
951.98	226.93
952.28	226.92
952.58	226.93
952.87	226.93
953.17	226.95
953.47	226.92
953.76	226.90
954.06	226.87
954.36	226.87
954.66	226.86
954.95	226.90
955.25	226.91
955.55	226.92
955.84	226.90
956.14	226.91
956.44	226.91
956.73	226.90
957.03	226.91
957.32	226.90
957.62	226.91
957.92	226.93
958.21	226.93
958.51	227.08
958.81	227.09
959.10	227.09
959.40	227.11
959.69	227.13
959.99	227.15
960.29	227.16
960.58	227.15
960.88	227.21
961.17	227.19
961.47	227.19
961.76	227.18
962.06	227.19
962.36	227.17
962.65	227.18
962.95	227.17
963.24	227.15
963.54	227.16
963.83	227.15
964.13	227.14
964.42	227.13
964.72	227.01
965.01	227.01
965.31	227.01
965.60	226.98
965.90	227.05
966.19	227.02
966.49	227.02
966.78	227.02
967.08	226.98
967.37	226.99
967.67	226.98
967.96	226.99
968.26	226.99
968.55	227.00
968.85	227.01
969.14	227.01
969.43	227.02
969.73	227.00
970.02	226.99
970.32	226.99
970.61	226.97
970.91	226.93
971.20	226.92
971.49	226.92
971.79	226.95
972.08	226.86
972.38	226.88
972.67	226.88
972.96	226.90
973.26	226.90
973.55	226.92
973.85	226.91
974.14	226.91
974.43	226.91
974.73	226.89
975.02	226.86
975.31	226.86
975.61	226.86
975.90	226.86
976.19	226.85
976.49	226.87
976.78	226.86
977.07	226.87
977.37	226.87
977.66	226.89
977.95	226.84
978.24	226.86
978.54	226.89
978.83	226.87
979.12	226.86
979.42	226.85
979.71	226.84
980.00	226.84
980.29	226.84
980.59	226.81
980.88	226.84
981.17	226.84
981.46	226.84
981.76	226.84
982.05	226.87
982.34	226.89
982.63	226.88
982.93	226.88
983.22	226.90
983.51	226.92
983.80	226.93
984.09	226.95
984.39	226.94
984.68	226.93
984.97	226.93
985.26	226.92
985.55	226.94
985.85	226.91
986.14	226.93
986.43	226.95
986.72	226.95
987.01	226.91
987.30	226.92
987.59	226.91
987.89	226.91
988.18	226.88
988.47	226.87
988.76	226.86
989.05	226.86
989.34	226.84
989.63	226.86
989.92	226.86
990.22	226.83
990.51	226.82
990.80	226.79
991.09	226.79
991.38	226.80
991.67	226.78
991.96	226.76
992.25	226.75
992.54	226.72
992.83	226.72
993.12	226.73
993.41	226.74
993.70	226.79
993.99	226.80
994.28	226.81
994.58	226.84
994.87	226.81
995.16	226.81
995.45	226.80
995.74	226.75
996.03	226.75
996.32	226.77
996.61	226.80
996.90	226.82
997.19	226.81
997.48	226.81
997.77	226.79
998.06	226.80
998.34	226.79
998.63	226.79
998.92	226.79
999.21	226.80
999.50	226.79
999.79	226.75
1000.08	226.75
1000.37	226.75
1000.66	226.74
1000.95	226.77
1001.24	226.77
1001.53	226.79
1001.82	226.78
1002.11	226.75
1002.40	226.77
1002.68	226.79
1002.97	226.87
1003.26	226.86
1003.55	226.86
1003.84	226.87
1004.13	226.92
1004.42	226.90
1004.71	226.89
1004.99	226.89
1005.28	226.92
1005.57	226.91
1005.86	226.89
1006.15	226.88
1006.44	226.86
1006.72	226.87
1007.01	226.84
1007.30	226.84
1007.59	226.83
1007.88	226.84
1008.17	226.86
1008.45	226.84
1008.74	226.79
1009.03	226.71
1009.32	226.72
1009.60	226.73
1009.89	226.72
1010.18	226.67
1010.47	226.67
1010.76	226.69
1011.04	226.69
1011.33	226.68
1011.62	226.70
1011.91	226.73
1012.19	226.73
1012.48	226.74
1012.77	226.76
1013.05	226.81
1013.34	226.83
1013.63	226.81
1013.92	226.82
1014.20	226.82
1014.49	226.82
1014.78	226.85
1015.06	226.83
1015.35	226.83
1015.64	226.84
1015.92	226.86
1016.21	226.88
1016.50	226.89
1016.78	226.89
1017.07	226.91
1017.36	226.89
1017.64	226.87
1017.93	226.88
1018.22	226.86
1018.50	226.85
1018.79	226.83
1019.08	226.79
1019.36	226.78
1019.65	226.78
1019.93	226.81
1020.22	226.83
1020.51	226.89
1020.79	226.86
1021.08	226.53
1021.36	226.48
1021.65	226.79
1021.94	226.71
1022.22	226.88
1022.51	226.62
1022.79	227.42
1023.08	227.02
1023.36	228.20
1023.65	226.34
>>>>>End Processed Spectral Data<<<<<
