SpectraSuite Data File
++++++++++++++++++++++++++++++++++++
Date: Fri Oct 02 15:34:05 EDT 2015
User: lab3
Dark Spectrum Present: No
Reference Spectrum Present: No
Number of Sampled Component Spectra: 1
Spectrometers: USB2E7196
Integration Time (usec): 46000 (USB2E7196)
Spectra Averaged: 210 (USB2E7196)
Boxcar Smoothing: 10 (USB2E7196)
Correct for Electrical Dark: No (USB2E7196)
Strobe/Lamp Enabled: No (USB2E7196)
Correct for Detector Non-linearity: No (USB2E7196)
Correct for Stray Light: No (USB2E7196)
Number of Pixels in Processed Spectrum: 2048
>>>>>Begin Processed Spectral Data<<<<<
339.09	0.00
339.48	213.64
339.86	215.34
340.24	216.80
340.63	218.32
341.01	221.71
341.39	220.61
341.78	222.32
342.16	223.42
342.54	223.93
342.93	212.30
343.31	223.01
343.69	223.55
344.07	224.01
344.46	224.42
344.84	224.78
345.22	225.00
345.60	225.25
345.99	225.45
346.37	225.57
346.75	225.66
347.13	225.76
347.52	225.83
347.90	225.92
348.28	225.95
348.66	225.98
349.05	225.96
349.43	225.99
349.81	226.05
350.19	226.10
350.57	226.15
350.96	226.21
351.34	226.32
351.72	226.40
352.10	226.52
352.48	226.59
352.87	226.64
353.25	226.69
353.63	226.73
354.01	226.77
354.39	226.85
354.77	226.91
355.15	227.01
355.54	227.08
355.92	227.10
356.30	227.16
356.68	227.29
357.06	227.38
357.44	227.44
357.82	227.47
358.20	227.58
358.58	227.65
358.97	227.71
359.35	227.78
359.73	227.89
360.11	227.92
360.49	227.95
360.87	228.02
361.25	228.06
361.63	228.16
362.01	228.19
362.39	228.22
362.77	228.28
363.15	228.26
363.53	228.27
363.91	228.30
364.29	228.32
364.67	228.25
365.05	228.28
365.43	228.31
365.81	228.35
366.19	228.38
366.57	228.43
366.95	228.46
367.33	228.44
367.71	228.42
368.09	228.42
368.47	228.44
368.85	228.42
369.23	228.44
369.61	228.38
369.99	228.41
370.37	228.39
370.75	228.48
371.13	228.46
371.51	228.41
371.89	228.38
372.27	228.36
372.65	228.31
373.03	228.25
373.41	228.19
373.78	228.16
374.16	228.04
374.54	227.96
374.92	227.92
375.30	227.88
375.68	227.81
376.06	227.79
376.44	227.74
376.82	227.68
377.19	227.64
377.57	227.59
377.95	227.50
378.33	227.46
378.71	227.30
379.09	227.27
379.47	227.23
379.84	227.17
380.22	227.11
380.60	227.03
380.98	226.99
381.36	226.94
381.73	226.89
382.11	226.86
382.49	226.81
382.87	226.74
383.25	226.68
383.62	226.78
384.00	226.68
384.38	226.65
384.76	226.66
385.13	226.66
385.51	226.64
385.89	226.61
386.27	226.56
386.64	226.54
387.02	226.49
387.40	226.46
387.78	226.43
388.15	226.41
388.53	226.40
388.91	226.39
389.29	226.38
389.66	226.34
390.04	226.33
390.42	226.34
390.79	226.32
391.17	226.29
391.55	226.15
391.92	226.17
392.30	226.16
392.68	226.11
393.05	226.10
393.43	226.09
393.81	226.10
394.18	226.09
394.56	226.09
394.94	226.12
395.31	226.15
395.69	226.22
396.06	226.24
396.44	226.26
396.82	226.26
397.19	226.34
397.57	226.38
397.95	226.41
398.32	226.41
398.70	226.46
399.07	226.55
399.45	226.59
399.82	226.61
400.20	226.65
400.58	226.71
400.95	226.70
401.33	226.79
401.70	226.93
402.08	227.05
402.45	227.12
402.83	227.24
403.20	227.31
403.58	227.39
403.95	227.55
404.33	227.70
404.71	227.83
405.08	228.03
405.46	228.19
405.83	228.39
406.21	228.59
406.58	228.81
406.96	229.01
407.33	229.25
407.70	229.53
408.08	229.93
408.45	230.26
408.83	230.62
409.20	230.95
409.58	231.24
409.95	231.63
410.33	232.07
410.70	232.47
411.08	232.98
411.45	233.50
411.82	234.01
412.20	234.61
412.57	235.33
412.95	235.89
413.32	236.62
413.69	237.36
414.07	238.17
414.44	239.01
414.82	239.89
415.19	240.92
415.56	241.97
415.94	243.03
416.31	244.25
416.68	245.48
417.06	246.90
417.43	248.22
417.81	249.73
418.18	251.28
418.55	252.97
418.93	254.72
419.30	256.55
419.67	258.50
420.04	260.50
420.42	262.56
420.79	264.97
421.16	267.39
421.54	269.85
421.91	272.42
422.28	275.11
422.66	277.98
423.03	280.75
423.40	283.63
423.77	286.76
424.15	289.95
424.52	293.27
424.89	296.85
425.26	300.42
425.64	303.75
426.01	307.49
426.38	311.30
426.75	315.26
427.13	319.30
427.50	323.54
427.87	327.92
428.24	332.35
428.61	336.61
428.99	341.21
429.36	346.27
429.73	351.10
430.10	355.96
430.47	360.96
430.85	366.02
431.22	371.49
431.59	377.11
431.96	382.59
432.33	388.70
432.70	394.52
433.08	401.38
433.45	407.85
433.82	414.27
434.19	421.41
434.56	428.44
434.93	435.25
435.30	442.00
435.68	449.61
436.05	457.08
436.42	464.50
436.79	471.35
437.16	478.70
437.53	486.54
437.90	494.39
438.27	502.06
438.64	510.40
439.01	517.94
439.38	524.86
439.75	531.48
440.13	538.98
440.50	546.06
440.87	551.70
441.24	557.88
441.61	564.59
441.98	569.48
442.35	575.26
442.72	581.17
443.09	586.79
443.46	590.35
443.83	592.92
444.20	595.04
444.57	598.21
444.94	599.98
445.31	601.80
445.68	603.34
446.05	604.42
446.42	603.92
446.79	603.21
447.16	602.52
447.53	601.91
447.90	599.33
448.27	596.90
448.64	593.24
449.01	590.66
449.37	585.69
449.74	581.21
450.11	575.51
450.48	569.25
450.85	562.95
451.22	557.56
451.59	552.32
451.96	547.63
452.33	540.79
452.70	534.71
453.07	527.34
453.43	519.98
453.80	512.84
454.17	506.03
454.54	499.77
454.91	492.73
455.28	486.15
455.65	479.94
456.02	473.40
456.38	468.16
456.75	461.41
457.12	455.95
457.49	450.46
457.86	445.29
458.23	440.80
458.59	435.81
458.96	430.74
459.33	426.24
459.70	421.67
460.07	418.22
460.43	414.14
460.80	410.35
461.17	407.06
461.54	403.49
461.91	400.17
462.27	396.76
462.64	394.04
463.01	390.86
463.38	387.71
463.74	384.81
464.11	382.30
464.48	380.03
464.85	377.57
465.21	375.73
465.58	373.65
465.95	371.18
466.32	369.30
466.68	367.39
467.05	365.54
467.42	363.66
467.78	361.67
468.15	359.86
468.52	358.58
468.88	356.78
469.25	355.14
469.62	353.87
469.98	352.47
470.35	351.22
470.72	350.10
471.08	348.91
471.45	347.96
471.82	346.86
472.18	345.69
472.55	344.95
472.92	344.00
473.28	343.27
473.65	342.48
474.02	341.74
474.38	341.15
474.75	340.79
475.11	340.29
475.48	340.06
475.85	339.79
476.21	339.64
476.58	339.56
476.94	339.73
477.31	339.78
477.67	339.88
478.04	340.06
478.41	340.35
478.77	340.78
479.14	341.06
479.50	341.60
479.87	342.27
480.23	342.95
480.60	343.61
480.96	344.26
481.33	345.27
481.69	346.24
482.06	347.21
482.42	348.13
482.79	349.23
483.15	350.50
483.52	351.98
483.88	353.39
484.25	354.89
484.61	356.39
484.98	358.08
485.34	359.98
485.71	361.99
486.07	364.08
486.44	366.24
486.80	368.62
487.17	371.07
487.53	373.78
487.90	376.60
488.26	379.69
488.62	382.94
488.99	386.16
489.35	389.54
489.72	393.23
490.08	397.10
490.44	401.13
490.81	405.37
491.17	409.65
491.54	414.22
491.90	418.99
492.26	424.10
492.63	429.37
492.99	434.93
493.36	440.65
493.72	446.71
494.08	452.85
494.45	459.39
494.81	466.22
495.17	473.20
495.54	480.57
495.90	488.24
496.26	496.13
496.63	504.20
496.99	512.65
497.35	521.45
497.72	530.53
498.08	539.82
498.44	549.35
498.80	559.51
499.17	569.92
499.53	580.72
499.89	591.80
500.26	603.22
500.62	614.82
500.98	627.15
501.34	639.53
501.71	652.48
502.07	665.58
502.43	679.11
502.79	693.00
503.16	707.30
503.52	721.84
503.88	736.74
504.24	752.16
504.60	767.67
504.97	783.70
505.33	800.09
505.69	817.42
506.05	835.04
506.41	852.67
506.78	870.40
507.14	888.56
507.50	907.18
507.86	926.16
508.22	945.30
508.59	964.30
508.95	984.17
509.31	1004.62
509.67	1025.82
510.03	1047.07
510.39	1068.25
510.75	1089.59
511.12	1111.29
511.48	1133.09
511.84	1154.87
512.20	1177.02
512.56	1200.00
512.92	1223.01
513.28	1245.58
513.64	1268.26
514.00	1291.33
514.37	1314.92
514.73	1338.37
515.09	1361.67
515.45	1385.27
515.81	1409.21
516.17	1433.01
516.53	1456.48
516.89	1479.76
517.25	1503.29
517.61	1526.67
517.97	1550.41
518.33	1573.51
518.69	1596.44
519.05	1619.81
519.41	1643.40
519.77	1667.41
520.13	1690.58
520.49	1713.69
520.85	1737.00
521.21	1760.22
521.57	1783.68
521.93	1806.48
522.29	1829.83
522.65	1852.57
523.01	1875.19
523.37	1897.35
523.73	1920.37
524.09	1942.85
524.45	1965.27
524.81	1987.10
525.17	2008.68
525.53	2029.85
525.89	2051.71
526.25	2073.50
526.61	2094.26
526.97	2115.01
527.33	2135.35
527.68	2155.56
528.04	2175.24
528.40	2194.02
528.76	2212.45
529.12	2230.61
529.48	2248.67
529.84	2264.75
530.20	2281.44
530.56	2297.69
530.91	2313.91
531.27	2329.65
531.63	2344.73
531.99	2359.24
532.35	2373.26
532.71	2387.50
533.07	2402.07
533.42	2414.58
533.78	2428.05
534.14	2441.93
534.50	2455.06
534.86	2468.04
535.21	2479.11
535.57	2490.49
535.93	2501.67
536.29	2511.94
536.65	2521.98
537.00	2530.94
537.36	2541.19
537.72	2550.29
538.08	2558.51
538.44	2566.15
538.79	2573.64
539.15	2580.30
539.51	2586.64
539.87	2592.21
540.22	2595.86
540.58	2599.57
540.94	2604.70
541.29	2608.37
541.65	2610.25
542.01	2611.37
542.37	2611.84
542.72	2613.52
543.08	2613.65
543.44	2614.37
543.79	2614.15
544.15	2613.11
544.51	2612.47
544.87	2610.59
545.22	2607.94
545.58	2604.65
545.94	2601.41
546.29	2596.80
546.65	2592.37
547.01	2587.76
547.36	2583.76
547.72	2579.92
548.07	2574.84
548.43	2568.29
548.79	2560.77
549.14	2554.32
549.50	2548.24
549.86	2541.13
550.21	2533.25
550.57	2525.93
550.92	2516.50
551.28	2507.73
551.64	2499.09
551.99	2490.25
552.35	2480.92
552.70	2471.80
553.06	2463.28
553.41	2454.11
553.77	2444.81
554.13	2435.22
554.48	2425.13
554.84	2413.78
555.19	2402.76
555.55	2391.83
555.90	2380.89
556.26	2370.43
556.61	2358.95
556.97	2346.24
557.32	2334.01
557.68	2321.56
558.03	2308.91
558.39	2297.52
558.74	2286.37
559.10	2273.77
559.45	2261.26
559.81	2249.13
560.16	2236.75
560.52	2224.47
560.87	2212.45
561.23	2199.70
561.58	2187.04
561.94	2174.02
562.29	2160.67
562.64	2147.96
563.00	2134.90
563.35	2122.28
563.71	2109.52
564.06	2096.84
564.42	2084.53
564.77	2071.82
565.12	2059.15
565.48	2046.55
565.83	2033.69
566.19	2021.04
566.54	2008.35
566.89	1994.76
567.25	1981.35
567.60	1968.89
567.96	1955.84
568.31	1941.44
568.66	1927.55
569.02	1915.01
569.37	1902.35
569.72	1890.22
570.08	1877.09
570.43	1863.31
570.78	1849.41
571.14	1835.09
571.49	1821.26
571.84	1807.99
572.20	1793.80
572.55	1779.62
572.90	1765.37
573.26	1751.31
573.61	1736.72
573.96	1722.54
574.31	1708.46
574.67	1694.64
575.02	1679.90
575.37	1665.00
575.72	1651.09
576.08	1637.78
576.43	1623.15
576.78	1609.02
577.13	1595.06
577.49	1581.55
577.84	1568.76
578.19	1555.19
578.54	1541.52
578.90	1527.55
579.25	1513.51
579.60	1500.75
579.95	1488.07
580.30	1475.25
580.66	1462.03
581.01	1448.82
581.36	1435.60
581.71	1423.32
582.06	1410.85
582.42	1398.64
582.77	1386.64
583.12	1374.72
583.47	1362.31
583.82	1350.34
584.17	1337.96
584.53	1325.31
584.88	1312.89
585.23	1300.19
585.58	1288.21
585.93	1276.49
586.28	1265.34
586.63	1254.05
586.98	1242.56
587.34	1231.01
587.69	1219.34
588.04	1208.08
588.39	1197.11
588.74	1186.37
589.09	1175.50
589.44	1164.23
589.79	1153.41
590.14	1142.70
590.49	1131.87
590.84	1121.27
591.19	1110.86
591.54	1100.28
591.89	1089.96
592.25	1079.81
592.60	1069.36
592.95	1059.19
593.30	1049.22
593.65	1039.16
594.00	1029.21
594.35	1019.75
594.70	1009.81
595.05	1000.56
595.40	991.41
595.75	982.05
596.10	973.08
596.45	963.90
596.80	955.09
597.15	946.17
597.50	937.41
597.85	929.02
598.19	920.47
598.54	911.91
598.89	903.88
599.24	895.97
599.59	887.95
599.94	880.67
600.29	873.25
600.64	865.69
600.99	857.71
601.34	850.15
601.69	842.22
602.04	834.97
602.39	827.61
602.74	820.27
603.08	812.94
603.43	805.48
603.78	798.19
604.13	791.04
604.48	783.87
604.83	776.84
605.18	769.75
605.53	762.85
605.87	755.94
606.22	749.15
606.57	742.45
606.92	735.57
607.27	728.73
607.62	722.18
607.96	715.89
608.31	709.99
608.66	703.87
609.01	698.04
609.36	692.37
609.70	686.47
610.05	680.46
610.40	674.76
610.75	669.10
611.10	663.79
611.44	658.29
611.79	652.93
612.14	647.43
612.49	641.96
612.83	636.83
613.18	631.66
613.53	626.57
613.88	621.46
614.22	616.72
614.57	611.91
614.92	607.01
615.27	602.18
615.61	597.40
615.96	592.70
616.31	588.00
616.65	583.32
617.00	578.85
617.35	574.48
617.70	570.13
618.04	565.91
618.39	561.53
618.74	557.40
619.08	553.31
619.43	549.32
619.78	545.36
620.12	541.37
620.47	537.58
620.82	533.78
621.16	530.05
621.51	526.28
621.85	522.52
622.20	518.88
622.55	515.29
622.89	511.76
623.24	508.30
623.59	504.78
623.93	501.39
624.28	498.11
624.62	494.92
624.97	491.81
625.32	488.57
625.66	485.36
626.01	482.13
626.35	478.90
626.70	475.76
627.04	472.75
627.39	469.71
627.73	466.77
628.08	463.94
628.43	461.11
628.77	458.37
629.12	455.70
629.46	453.05
629.81	450.39
630.15	447.67
630.50	445.02
630.84	442.49
631.19	439.98
631.53	437.58
631.88	435.12
632.22	432.65
632.57	430.48
632.91	428.35
633.26	426.25
633.60	424.20
633.95	422.20
634.29	420.16
634.64	418.14
634.98	416.02
635.32	413.94
635.67	412.05
636.01	410.08
636.36	408.16
636.70	406.30
637.05	404.43
637.39	402.67
637.73	400.94
638.08	399.25
638.42	397.58
638.77	395.78
639.11	393.95
639.45	392.17
639.80	390.35
640.14	388.58
640.49	386.82
640.83	385.05
641.17	383.34
641.52	381.64
641.86	379.99
642.20	378.48
642.55	376.89
642.89	375.34
643.23	373.81
643.58	372.43
643.92	370.99
644.26	369.59
644.61	368.22
644.95	366.76
645.29	365.29
645.64	363.81
645.98	362.42
646.32	361.09
646.66	359.78
647.01	358.46
647.35	357.19
647.69	355.90
648.04	354.76
648.38	353.50
648.72	352.33
649.06	351.13
649.41	349.93
649.75	348.78
650.09	347.62
650.43	346.50
650.78	345.31
651.12	344.16
651.46	343.06
651.80	341.96
652.14	340.91
652.49	339.89
652.83	338.89
653.17	337.90
653.51	336.95
653.85	336.05
654.20	335.08
654.54	334.08
654.88	333.13
655.22	332.18
655.56	331.26
655.90	330.34
656.25	329.47
656.59	328.61
656.93	327.78
657.27	326.96
657.61	326.06
657.95	325.25
658.29	324.38
658.64	323.56
658.98	322.72
659.32	321.94
659.66	321.16
660.00	320.39
660.34	319.63
660.68	318.87
661.02	318.05
661.36	317.30
661.70	316.57
662.05	315.84
662.39	315.09
662.73	314.43
663.07	313.79
663.41	313.09
663.75	312.36
664.09	311.66
664.43	310.94
664.77	310.29
665.11	309.59
665.45	308.97
665.79	308.35
666.13	307.72
666.47	307.04
666.81	306.37
667.15	305.64
667.49	305.01
667.83	304.41
668.17	303.83
668.51	303.25
668.85	302.68
669.19	302.17
669.53	301.59
669.87	300.97
670.21	300.36
670.55	299.78
670.89	299.29
671.23	298.75
671.57	298.19
671.91	297.71
672.25	297.22
672.58	296.73
672.92	296.18
673.26	295.68
673.60	295.20
673.94	294.72
674.28	294.30
674.62	293.86
674.96	293.36
675.30	292.90
675.64	292.43
675.97	291.94
676.31	291.41
676.65	290.94
676.99	290.53
677.33	290.04
677.67	289.59
678.01	289.06
678.34	288.58
678.68	288.15
679.02	287.66
679.36	287.20
679.70	286.72
680.04	286.28
680.37	285.85
680.71	285.40
681.05	285.00
681.39	284.54
681.73	284.04
682.06	283.58
682.40	283.13
682.74	282.71
683.08	282.37
683.42	281.99
683.75	281.61
684.09	281.14
684.43	280.76
684.77	280.33
685.10	279.96
685.44	279.57
685.78	279.16
686.12	278.80
686.45	278.40
686.79	277.99
687.13	277.62
687.46	277.19
687.80	276.83
688.14	276.37
688.48	275.99
688.81	275.60
689.15	275.24
689.49	274.84
689.82	274.45
690.16	273.97
690.50	273.57
690.83	273.16
691.17	272.79
691.51	272.40
691.84	272.06
692.18	271.68
692.52	271.30
692.85	270.93
693.19	270.58
693.52	270.19
693.86	269.82
694.20	269.44
694.53	269.07
694.87	268.68
695.21	268.32
695.54	267.96
695.88	267.59
696.21	267.17
696.55	266.81
696.88	266.46
697.22	266.10
697.56	265.75
697.89	265.36
698.23	265.00
698.56	264.61
698.90	264.24
699.23	263.84
699.57	263.47
699.90	263.08
700.24	262.70
700.58	262.37
700.91	262.07
701.25	261.82
701.58	261.57
701.92	261.28
702.25	260.98
702.59	260.66
702.92	260.34
703.26	260.03
703.59	259.71
703.93	259.50
704.26	259.20
704.60	258.88
704.93	258.56
705.26	258.25
705.60	257.99
705.93	257.64
706.27	257.40
706.60	257.16
706.94	256.95
707.27	256.61
707.61	256.32
707.94	256.04
708.27	255.62
708.61	255.27
708.94	254.95
709.28	254.64
709.61	254.35
709.94	254.09
710.28	253.82
710.61	253.58
710.95	253.17
711.28	252.98
711.61	252.70
711.95	252.48
712.28	252.19
712.61	251.92
712.95	251.77
713.28	251.58
713.61	251.27
713.95	250.95
714.28	250.72
714.61	250.47
714.95	250.18
715.28	249.96
715.61	249.75
715.95	249.55
716.28	249.34
716.61	249.15
716.95	248.90
717.28	248.68
717.61	248.43
717.94	248.21
718.28	247.88
718.61	247.64
718.94	247.39
719.27	247.17
719.61	246.99
719.94	246.74
720.27	246.44
720.60	246.24
720.94	246.06
721.27	245.86
721.60	245.67
721.93	245.48
722.27	245.33
722.60	245.13
722.93	244.89
723.26	244.70
723.59	244.47
723.93	244.30
724.26	244.10
724.59	243.92
724.92	243.76
725.25	243.65
725.59	243.51
725.92	243.37
726.25	243.21
726.58	243.04
726.91	242.85
727.24	242.71
727.57	242.54
727.91	242.36
728.24	242.22
728.57	242.04
728.90	241.90
729.23	241.69
729.56	241.59
729.89	241.42
730.22	241.24
730.55	241.09
730.89	240.97
731.22	240.82
731.55	240.67
731.88	240.52
732.21	240.35
732.54	240.19
732.87	240.03
733.20	239.90
733.53	239.72
733.86	239.60
734.19	239.42
734.52	239.33
734.85	239.28
735.18	239.13
735.51	239.03
735.84	238.91
736.17	238.82
736.50	238.61
736.83	238.65
737.16	238.54
737.49	238.42
737.82	238.26
738.15	238.15
738.48	238.02
738.81	237.88
739.14	237.75
739.47	237.62
739.80	237.48
740.13	237.38
740.46	237.26
740.79	237.13
741.12	237.01
741.45	236.87
741.78	236.68
742.11	236.59
742.44	236.43
742.77	236.33
743.10	236.21
743.43	236.08
743.75	235.84
744.08	235.93
744.41	235.81
744.74	235.71
745.07	235.58
745.40	235.50
745.73	235.47
746.06	235.37
746.39	235.28
746.71	235.19
747.04	235.08
747.37	234.99
747.70	234.93
748.03	234.84
748.36	234.76
748.68	234.66
749.01	234.54
749.34	234.46
749.67	234.37
750.00	234.29
750.33	234.31
750.65	234.21
750.98	233.95
751.31	233.89
751.64	233.78
751.97	233.78
752.29	233.69
752.62	233.54
752.95	233.46
753.28	233.38
753.60	233.28
753.93	233.24
754.26	233.17
754.59	233.04
754.91	232.95
755.24	232.85
755.57	232.82
755.90	232.76
756.22	232.67
756.55	232.56
756.88	232.47
757.20	232.30
757.53	232.20
757.86	232.11
758.19	232.03
758.51	231.99
758.84	231.86
759.17	231.77
759.49	231.72
759.82	231.68
760.15	231.62
760.47	231.55
760.80	231.43
761.13	231.39
761.45	231.33
761.78	231.30
762.11	231.26
762.43	231.14
762.76	231.06
763.08	231.01
763.41	230.97
763.74	230.90
764.06	230.84
764.39	230.80
764.71	230.75
765.04	230.69
765.37	230.62
765.69	230.59
766.02	230.55
766.34	230.50
766.67	230.41
767.00	230.39
767.32	230.40
767.65	230.45
767.97	230.39
768.30	230.34
768.62	230.26
768.95	230.20
769.27	230.15
769.60	230.15
769.92	230.08
770.25	230.00
770.57	229.94
770.90	229.89
771.22	229.81
771.55	229.78
771.87	229.74
772.20	229.68
772.52	229.73
772.85	229.82
773.17	229.78
773.50	229.75
773.82	229.70
774.15	229.61
774.47	229.48
774.80	229.44
775.12	229.40
775.45	229.36
775.77	229.32
776.09	229.30
776.42	229.25
776.74	229.26
777.07	229.21
777.39	229.19
777.72	229.18
778.04	229.17
778.36	229.13
778.69	229.08
779.01	229.08
779.33	228.93
779.66	228.75
779.98	228.71
780.31	228.69
780.63	228.70
780.95	228.69
781.28	228.67
781.60	228.64
781.92	228.62
782.25	228.62
782.57	228.60
782.89	228.56
783.22	228.51
783.54	228.48
783.86	228.49
784.19	228.45
784.51	228.46
784.83	228.43
785.16	228.37
785.48	228.35
785.80	228.29
786.12	228.28
786.45	228.27
786.77	228.25
787.09	228.22
787.42	228.15
787.74	228.11
788.06	228.08
788.38	228.04
788.71	228.01
789.03	227.98
789.35	227.97
789.67	227.94
789.99	227.94
790.32	227.89
790.64	227.87
790.96	227.99
791.28	227.91
791.61	227.89
791.93	227.90
792.25	227.87
792.57	227.96
792.89	227.92
793.21	227.91
793.54	227.88
793.86	227.84
794.18	227.80
794.50	227.79
794.82	227.77
795.14	227.76
795.47	227.75
795.79	227.74
796.11	227.69
796.43	227.68
796.75	227.64
797.07	227.62
797.39	227.61
797.71	227.47
798.04	227.47
798.36	227.47
798.68	227.45
799.00	227.44
799.32	227.37
799.64	227.35
799.96	227.34
800.28	227.35
800.60	227.31
800.92	227.33
801.24	227.29
801.56	227.28
801.89	227.27
802.21	227.27
802.53	227.24
802.85	227.28
803.17	227.33
803.49	227.29
803.81	227.26
804.13	227.23
804.45	227.21
804.77	227.20
805.09	227.17
805.41	227.13
805.73	227.11
806.05	227.09
806.37	227.08
806.69	227.05
807.01	227.04
807.33	227.07
807.65	226.99
807.97	227.05
808.28	227.00
808.60	226.97
808.92	226.94
809.24	226.97
809.56	226.92
809.88	226.85
810.20	226.85
810.52	226.88
810.84	226.83
811.16	226.80
811.48	226.76
811.80	226.78
812.12	226.80
812.43	226.80
812.75	226.79
813.07	226.78
813.39	226.78
813.71	226.75
814.03	226.72
814.35	226.73
814.67	226.66
814.98	226.67
815.30	226.67
815.62	226.65
815.94	226.57
816.26	226.58
816.58	226.57
816.89	226.56
817.21	226.51
817.53	226.54
817.85	226.55
818.17	226.57
818.48	226.53
818.80	226.53
819.12	226.50
819.44	226.46
819.76	226.42
820.07	226.42
820.39	226.42
820.71	226.42
821.03	226.43
821.34	226.44
821.66	226.48
821.98	226.48
822.30	226.46
822.61	226.55
822.93	226.52
823.25	226.50
823.57	226.48
823.88	226.51
824.20	226.50
824.52	226.52
824.83	226.50
825.15	226.47
825.47	226.47
825.79	226.48
826.10	226.48
826.42	226.49
826.74	226.51
827.05	226.49
827.37	226.51
827.69	226.47
828.00	226.46
828.32	226.43
828.64	226.40
828.95	226.49
829.27	226.44
829.58	226.46
829.90	226.47
830.22	226.48
830.53	226.45
830.85	226.43
831.17	226.39
831.48	226.37
831.80	226.37
832.11	226.35
832.43	226.31
832.75	226.32
833.06	226.39
833.38	226.34
833.69	226.33
834.01	226.32
834.32	226.32
834.64	226.31
834.96	226.29
835.27	226.28
835.59	226.23
835.90	226.21
836.22	226.19
836.53	226.15
836.85	226.14
837.16	226.27
837.48	226.28
837.79	226.32
838.11	226.35
838.42	226.36
838.74	226.38
839.05	226.40
839.37	226.38
839.68	226.29
840.00	226.29
840.31	226.29
840.63	226.26
840.94	226.24
841.26	226.23
841.57	226.23
841.88	226.24
842.20	226.23
842.51	226.19
842.83	226.18
843.14	226.30
843.46	226.28
843.77	226.16
844.08	226.16
844.40	226.12
844.71	226.09
845.03	226.06
845.34	226.04
845.65	226.03
845.97	226.02
846.28	226.04
846.60	226.05
846.91	226.01
847.22	226.00
847.54	226.02
847.85	226.02
848.16	226.01
848.48	225.99
848.79	226.01
849.10	226.04
849.42	226.04
849.73	225.94
850.04	225.94
850.36	225.92
850.67	225.91
850.98	225.92
851.30	225.95
851.61	225.94
851.92	225.93
852.23	225.97
852.55	225.98
852.86	225.96
853.17	225.96
853.49	226.01
853.80	226.05
854.11	226.08
854.42	226.09
854.74	226.06
855.05	226.04
855.36	225.99
855.67	225.98
855.99	225.98
856.30	226.10
856.61	226.10
856.92	226.11
857.23	226.13
857.55	226.10
857.86	226.07
858.17	226.10
858.48	226.08
858.79	226.03
859.11	226.03
859.42	226.04
859.73	226.03
860.04	226.02
860.35	225.97
860.66	225.91
860.98	225.90
861.29	225.94
861.60	225.95
861.91	225.98
862.22	225.97
862.53	225.96
862.84	225.82
863.16	225.84
863.47	225.81
863.78	225.80
864.09	225.82
864.40	225.82
864.71	225.81
865.02	225.83
865.33	225.81
865.64	225.78
865.95	225.77
866.27	225.83
866.58	225.82
866.89	225.83
867.20	225.84
867.51	225.82
867.82	225.78
868.13	225.82
868.44	225.79
868.75	225.80
869.06	225.79
869.37	225.81
869.68	225.78
869.99	225.80
870.30	225.80
870.61	225.80
870.92	225.79
871.23	225.78
871.54	225.77
871.85	225.80
872.16	225.84
872.47	225.82
872.78	225.75
873.09	225.74
873.40	225.73
873.71	225.74
874.02	225.74
874.33	225.75
874.64	225.70
874.95	225.71
875.26	225.69
875.56	225.68
875.87	225.68
876.18	225.68
876.49	225.82
876.80	225.81
877.11	225.80
877.42	225.81
877.73	225.84
878.04	225.85
878.35	225.84
878.66	225.84
878.96	225.85
879.27	225.86
879.58	225.88
879.89	225.86
880.20	225.93
880.51	225.92
880.82	225.90
881.12	225.92
881.43	225.90
881.74	225.89
882.05	225.90
882.36	225.89
882.67	225.91
882.97	225.75
883.28	225.73
883.59	225.72
883.90	225.73
884.21	225.73
884.51	225.72
884.82	225.70
885.13	225.69
885.44	225.68
885.74	225.67
886.05	225.65
886.36	225.65
886.67	225.60
886.98	225.66
887.28	225.69
887.59	225.69
887.90	225.69
888.20	225.68
888.51	225.68
888.82	225.66
889.13	225.67
889.43	225.79
889.74	225.79
890.05	225.80
890.35	225.76
890.66	225.75
890.97	225.74
891.28	225.73
891.58	225.73
891.89	225.73
892.20	225.73
892.50	225.74
892.81	225.73
893.12	225.71
893.42	225.65
893.73	225.65
894.04	225.63
894.34	225.63
894.65	225.65
894.95	225.66
895.26	225.69
895.57	225.75
895.87	225.63
896.18	225.64
896.48	225.64
896.79	225.65
897.10	225.65
897.40	225.67
897.71	225.69
898.01	225.67
898.32	225.67
898.63	225.66
898.93	225.65
899.24	225.67
899.54	225.69
899.85	225.71
900.15	225.69
900.46	225.71
900.76	225.74
901.07	225.73
901.38	225.73
901.68	225.72
901.99	225.66
902.29	225.69
902.60	225.69
902.90	225.67
903.21	225.68
903.51	225.66
903.82	225.68
904.12	225.66
904.43	225.69
904.73	225.69
905.03	225.71
905.34	225.84
905.64	225.82
905.95	225.82
906.25	225.80
906.56	225.81
906.86	225.79
907.17	225.78
907.47	225.80
907.77	225.77
908.08	225.75
908.38	225.74
908.69	225.75
908.99	225.77
909.30	225.77
909.60	225.77
909.90	225.78
910.21	225.75
910.51	225.75
910.81	225.74
911.12	225.72
911.42	225.71
911.73	225.56
912.03	225.56
912.33	225.58
912.64	225.56
912.94	225.53
913.24	225.52
913.55	225.50
913.85	225.48
914.15	225.50
914.46	225.52
914.76	225.51
915.06	225.48
915.37	225.45
915.67	225.44
915.97	225.44
916.27	225.41
916.58	225.41
916.88	225.40
917.18	225.38
917.49	225.49
917.79	225.47
918.09	225.51
918.39	225.53
918.70	225.53
919.00	225.55
919.30	225.59
919.60	225.58
919.91	225.55
920.21	225.55
920.51	225.52
920.81	225.52
921.12	225.55
921.42	225.56
921.72	225.57
922.02	225.58
922.32	225.60
922.63	225.60
922.93	225.68
923.23	225.69
923.53	225.68
923.83	225.60
924.13	225.64
924.44	225.66
924.74	225.68
925.04	225.68
925.34	225.67
925.64	225.62
925.94	225.62
926.24	225.71
926.55	225.71
926.85	225.71
927.15	225.70
927.45	225.70
927.75	225.70
928.05	225.69
928.35	225.69
928.65	225.70
928.95	225.73
929.26	225.67
929.56	225.68
929.86	225.71
930.16	225.68
930.46	225.68
930.76	225.67
931.06	225.63
931.36	225.61
931.66	225.65
931.96	225.68
932.26	225.70
932.56	225.67
932.86	225.68
933.16	225.70
933.46	225.69
933.76	225.66
934.06	225.70
934.36	225.77
934.66	225.76
934.96	225.74
935.26	225.73
935.56	225.74
935.86	225.72
936.16	225.70
936.46	225.69
936.76	225.68
937.06	225.67
937.36	225.67
937.66	225.69
937.96	225.67
938.26	225.65
938.56	225.62
938.86	225.61
939.16	225.63
939.46	225.64
939.76	225.65
940.06	225.63
940.35	225.61
940.65	225.54
940.95	225.55
941.25	225.52
941.55	225.49
941.85	225.47
942.15	225.51
942.45	225.52
942.75	225.53
943.04	225.51
943.34	225.52
943.64	225.50
943.94	225.47
944.24	225.47
944.54	225.47
944.84	225.50
945.13	225.47
945.43	225.45
945.73	225.44
946.03	225.43
946.33	225.43
946.62	225.40
946.92	225.39
947.22	225.38
947.52	225.37
947.82	225.40
948.11	225.40
948.41	225.35
948.71	225.33
949.01	225.33
949.31	225.32
949.60	225.31
949.90	225.33
950.20	225.33
950.50	225.32
950.79	225.31
951.09	225.31
951.39	225.30
951.69	225.29
951.98	225.31
952.28	225.32
952.58	225.31
952.87	225.31
953.17	225.35
953.47	225.36
953.76	225.36
954.06	225.34
954.36	225.33
954.66	225.32
954.95	225.36
955.25	225.37
955.55	225.39
955.84	225.34
956.14	225.35
956.44	225.34
956.73	225.32
957.03	225.33
957.32	225.32
957.62	225.32
957.92	225.33
958.21	225.33
958.51	225.47
958.81	225.49
959.10	225.52
959.40	225.52
959.69	225.50
959.99	225.52
960.29	225.50
960.58	225.49
960.88	225.56
961.17	225.54
961.47	225.52
961.76	225.50
962.06	225.55
962.36	225.54
962.65	225.56
962.95	225.57
963.24	225.55
963.54	225.59
963.83	225.62
964.13	225.63
964.42	225.62
964.72	225.52
965.01	225.52
965.31	225.49
965.60	225.47
965.90	225.58
966.19	225.55
966.49	225.58
966.78	225.59
967.08	225.59
967.37	225.59
967.67	225.58
967.96	225.60
968.26	225.60
968.55	225.63
968.85	225.60
969.14	225.59
969.43	225.60
969.73	225.57
970.02	225.58
970.32	225.56
970.61	225.52
970.91	225.47
971.20	225.44
971.49	225.43
971.79	225.43
972.08	225.31
972.38	225.31
972.67	225.31
972.96	225.30
973.26	225.27
973.55	225.29
973.85	225.30
974.14	225.28
974.43	225.28
974.73	225.23
975.02	225.21
975.31	225.22
975.61	225.22
975.90	225.21
976.19	225.17
976.49	225.17
976.78	225.18
977.07	225.18
977.37	225.18
977.66	225.20
977.95	225.20
978.24	225.24
978.54	225.29
978.83	225.28
979.12	225.27
979.42	225.27
979.71	225.25
980.00	225.25
980.29	225.26
980.59	225.24
980.88	225.29
981.17	225.31
981.46	225.32
981.76	225.31
982.05	225.36
982.34	225.35
982.63	225.36
982.93	225.36
983.22	225.39
983.51	225.42
983.80	225.45
984.09	225.44
984.39	225.41
984.68	225.37
984.97	225.38
985.26	225.38
985.55	225.39
985.85	225.37
986.14	225.39
986.43	225.40
986.72	225.39
987.01	225.34
987.30	225.36
987.59	225.32
987.89	225.32
988.18	225.27
988.47	225.26
988.76	225.22
989.05	225.24
989.34	225.21
989.63	225.24
989.92	225.20
990.22	225.20
990.51	225.18
990.80	225.20
991.09	225.19
991.38	225.20
991.67	225.20
991.96	225.19
992.25	225.19
992.54	225.18
992.83	225.18
993.12	225.19
993.41	225.19
993.70	225.24
993.99	225.29
994.28	225.29
994.58	225.33
994.87	225.34
995.16	225.31
995.45	225.34
995.74	225.26
996.03	225.28
996.32	225.30
996.61	225.35
996.90	225.34
997.19	225.34
997.48	225.34
997.77	225.30
998.06	225.30
998.34	225.29
998.63	225.29
998.92	225.28
999.21	225.30
999.50	225.30
999.79	225.27
1000.08	225.26
1000.37	225.27
1000.66	225.24
1000.95	225.28
1001.24	225.30
1001.53	225.30
1001.82	225.30
1002.11	225.29
1002.40	225.29
1002.68	225.29
1002.97	225.37
1003.26	225.35
1003.55	225.34
1003.84	225.36
1004.13	225.40
1004.42	225.41
1004.71	225.41
1004.99	225.43
1005.28	225.47
1005.57	225.45
1005.86	225.43
1006.15	225.43
1006.44	225.41
1006.72	225.42
1007.01	225.40
1007.30	225.39
1007.59	225.37
1007.88	225.39
1008.17	225.38
1008.45	225.37
1008.74	225.34
1009.03	225.29
1009.32	225.29
1009.60	225.27
1009.89	225.27
1010.18	225.23
1010.47	225.22
1010.76	225.20
1011.04	225.19
1011.33	225.16
1011.62	225.18
1011.91	225.20
1012.19	225.20
1012.48	225.21
1012.77	225.23
1013.05	225.27
1013.34	225.27
1013.63	225.25
1013.92	225.25
1014.20	225.25
1014.49	225.24
1014.78	225.26
1015.06	225.23
1015.35	225.24
1015.64	225.26
1015.92	225.30
1016.21	225.29
1016.50	225.29
1016.78	225.32
1017.07	225.32
1017.36	225.29
1017.64	225.28
1017.93	225.29
1018.22	225.28
1018.50	225.27
1018.79	225.25
1019.08	225.21
1019.36	225.24
1019.65	225.25
1019.93	225.31
1020.22	225.33
1020.51	225.40
1020.79	225.40
1021.08	225.38
1021.36	224.83
1021.65	225.23
1021.94	225.40
1022.22	225.52
1022.51	225.14
1022.79	226.16
1023.08	225.51
1023.36	226.75
1023.65	225.35
>>>>>End Processed Spectral Data<<<<<
