SpectraSuite Data File
++++++++++++++++++++++++++++++++++++
Date: Sat Oct 03 13:27:09 EDT 2015
User: lab3
Dark Spectrum Present: No
Reference Spectrum Present: No
Number of Sampled Component Spectra: 1
Spectrometers: USB2E7196
Integration Time (usec): 46000 (USB2E7196)
Spectra Averaged: 12000 (USB2E7196)
Boxcar Smoothing: 10 (USB2E7196)
Correct for Electrical Dark: No (USB2E7196)
Strobe/Lamp Enabled: No (USB2E7196)
Correct for Detector Non-linearity: No (USB2E7196)
Correct for Stray Light: No (USB2E7196)
Number of Pixels in Processed Spectrum: 2048
>>>>>Begin Processed Spectral Data<<<<<
339.09	0.00
339.48	213.28
339.86	214.77
340.24	216.11
340.63	217.52
341.01	220.86
341.39	220.27
341.78	221.60
342.16	222.92
342.54	223.25
342.93	211.78
343.31	222.48
343.69	223.02
344.07	223.48
344.46	223.92
344.84	224.31
345.22	224.53
345.60	224.79
345.99	224.99
346.37	225.12
346.75	225.23
347.13	225.31
347.52	225.38
347.90	225.47
348.28	225.51
348.66	225.57
349.05	225.56
349.43	225.62
349.81	225.68
350.19	225.73
350.57	225.80
350.96	225.89
351.34	225.98
351.72	226.08
352.10	226.18
352.48	226.25
352.87	226.31
353.25	226.37
353.63	226.43
354.01	226.50
354.39	226.57
354.77	226.65
355.15	226.75
355.54	226.80
355.92	226.83
356.30	226.90
356.68	227.05
357.06	227.13
357.44	227.18
357.82	227.24
358.20	227.36
358.58	227.42
358.97	227.48
359.35	227.56
359.73	227.65
360.11	227.70
360.49	227.76
360.87	227.80
361.25	227.87
361.63	227.96
362.01	228.01
362.39	228.04
362.77	228.08
363.15	228.11
363.53	228.14
363.91	228.18
364.29	228.20
364.67	228.10
365.05	228.12
365.43	228.15
365.81	228.18
366.19	228.19
366.57	228.25
366.95	228.25
367.33	228.22
367.71	228.21
368.09	228.24
368.47	228.23
368.85	228.22
369.23	228.23
369.61	228.17
369.99	228.18
370.37	228.18
370.75	228.26
371.13	228.23
371.51	228.19
371.89	228.17
372.27	228.15
372.65	228.13
373.03	228.09
373.41	228.05
373.78	228.00
374.16	227.89
374.54	227.81
374.92	227.76
375.30	227.72
375.68	227.65
376.06	227.60
376.44	227.55
376.82	227.51
377.19	227.46
377.57	227.41
377.95	227.32
378.33	227.26
378.71	227.09
379.09	227.05
379.47	227.02
379.84	226.95
380.22	226.89
380.60	226.82
380.98	226.77
381.36	226.72
381.73	226.66
382.11	226.64
382.49	226.60
382.87	226.54
383.25	226.49
383.62	226.60
384.00	226.53
384.38	226.49
384.76	226.48
385.13	226.48
385.51	226.44
385.89	226.39
386.27	226.35
386.64	226.34
387.02	226.29
387.40	226.25
387.78	226.23
388.15	226.20
388.53	226.17
388.91	226.14
389.29	226.11
389.66	226.11
390.04	226.07
390.42	226.06
390.79	226.05
391.17	226.03
391.55	225.88
391.92	225.87
392.30	225.87
392.68	225.83
393.05	225.80
393.43	225.80
393.81	225.81
394.18	225.79
394.56	225.79
394.94	225.83
395.31	225.83
395.69	225.87
396.06	225.90
396.44	225.93
396.82	225.94
397.19	226.04
397.57	226.04
397.95	226.09
398.32	226.09
398.70	226.14
399.07	226.20
399.45	226.24
399.82	226.29
400.20	226.33
400.58	226.39
400.95	226.40
401.33	226.49
401.70	226.65
402.08	226.76
402.45	226.85
402.83	226.97
403.20	227.08
403.58	227.18
403.95	227.33
404.33	227.48
404.71	227.63
405.08	227.84
405.46	228.02
405.83	228.21
406.21	228.41
406.58	228.63
406.96	228.86
407.33	229.11
407.70	229.40
408.08	229.80
408.45	230.14
408.83	230.52
409.20	230.85
409.58	231.16
409.95	231.57
410.33	232.03
410.70	232.46
411.08	232.96
411.45	233.49
411.82	234.03
412.20	234.65
412.57	235.39
412.95	235.97
413.32	236.72
413.69	237.49
414.07	238.32
414.44	239.21
414.82	240.12
415.19	241.19
415.56	242.27
415.94	243.39
416.31	244.64
416.68	245.90
417.06	247.37
417.43	248.73
417.81	250.31
418.18	251.91
418.55	253.66
418.93	255.48
419.30	257.38
419.67	259.40
420.04	261.47
420.42	263.63
420.79	266.13
421.16	268.65
421.54	271.21
421.91	273.88
422.28	276.66
422.66	279.65
423.03	282.51
423.40	285.51
423.77	288.72
424.15	292.01
424.52	295.44
424.89	299.15
425.26	302.84
425.64	306.27
426.01	310.12
426.38	314.07
426.75	318.13
427.13	322.30
427.50	326.65
427.87	331.19
428.24	335.77
428.61	340.17
428.99	344.93
429.36	350.16
429.73	355.15
430.10	360.14
430.47	365.25
430.85	370.50
431.22	376.14
431.59	381.93
431.96	387.59
432.33	393.87
432.70	399.84
433.08	406.89
433.45	413.57
433.82	420.17
434.19	427.51
434.56	434.75
434.93	441.74
435.30	448.66
435.68	456.48
436.05	464.14
436.42	471.77
436.79	478.73
437.16	486.24
437.53	494.29
437.90	502.36
438.27	510.24
438.64	518.77
439.01	526.49
439.38	533.55
439.75	540.36
440.13	548.02
440.50	555.32
440.87	561.10
441.24	567.43
441.61	574.32
441.98	579.36
442.35	585.32
442.72	591.41
443.09	597.20
443.46	600.85
443.83	603.52
444.20	605.74
444.57	609.06
444.94	610.92
445.31	612.85
445.68	614.47
446.05	615.63
446.42	615.17
446.79	614.53
447.16	613.95
447.53	613.41
447.90	610.87
448.27	608.43
448.64	604.79
449.01	602.22
449.37	597.20
449.74	592.66
450.11	586.82
450.48	580.44
450.85	574.07
451.22	568.63
451.59	563.31
451.96	558.51
452.33	551.54
452.70	545.36
453.07	537.83
453.43	530.32
453.80	523.04
454.17	516.07
454.54	509.65
454.91	502.40
455.28	495.62
455.65	489.23
456.02	482.49
456.38	477.07
456.75	470.09
457.12	464.47
457.49	458.81
457.86	453.48
458.23	448.83
458.59	443.66
458.96	438.36
459.33	433.70
459.70	428.95
460.07	425.35
460.43	421.12
460.80	417.16
461.17	413.73
461.54	409.99
461.91	406.51
462.27	402.97
462.64	400.13
463.01	396.83
463.38	393.51
463.74	390.53
464.11	387.89
464.48	385.53
464.85	382.94
465.21	380.99
465.58	378.80
465.95	376.28
466.32	374.29
466.68	372.33
467.05	370.36
467.42	368.43
467.78	366.35
468.15	364.42
468.52	363.02
468.88	361.14
469.25	359.42
469.62	358.06
469.98	356.55
470.35	355.22
470.72	354.01
471.08	352.78
471.45	351.74
471.82	350.58
472.18	349.35
472.55	348.56
472.92	347.56
473.28	346.77
473.65	345.92
474.02	345.12
474.38	344.43
474.75	344.02
475.11	343.45
475.48	343.17
475.85	342.88
476.21	342.71
476.58	342.59
476.94	342.70
477.31	342.74
477.67	342.81
478.04	342.99
478.41	343.27
478.77	343.68
479.14	343.93
479.50	344.43
479.87	345.09
480.23	345.75
480.60	346.40
480.96	347.06
481.33	348.06
481.69	349.03
482.06	350.01
482.42	350.91
482.79	352.03
483.15	353.32
483.52	354.80
483.88	356.22
484.25	357.74
484.61	359.32
484.98	361.03
485.34	362.96
485.71	364.98
486.07	367.14
486.44	369.29
486.80	371.69
487.17	374.19
487.53	376.93
487.90	379.79
488.26	382.90
488.62	386.19
488.99	389.48
489.35	392.95
489.72	396.70
490.08	400.66
490.44	404.74
490.81	408.99
491.17	413.34
491.54	418.02
491.90	422.84
492.26	428.00
492.63	433.40
492.99	439.04
493.36	444.88
493.72	451.03
494.08	457.32
494.45	464.01
494.81	470.95
495.17	478.08
495.54	485.61
495.90	493.45
496.26	501.47
496.63	509.73
496.99	518.31
497.35	527.29
497.72	536.57
498.08	546.05
498.44	555.84
498.80	566.23
499.17	576.87
499.53	587.85
499.89	599.20
500.26	610.80
500.62	622.68
500.98	635.19
501.34	647.90
501.71	661.13
502.07	674.55
502.43	688.50
502.79	702.69
503.16	717.34
503.52	732.16
503.88	747.43
504.24	763.16
504.60	779.10
504.97	795.53
505.33	812.38
505.69	830.16
506.05	848.29
506.41	866.36
506.78	884.62
507.14	903.39
507.50	922.59
507.86	942.14
508.22	961.93
508.59	981.53
508.95	1001.93
509.31	1023.06
509.67	1044.92
510.03	1066.80
510.39	1088.74
510.75	1110.82
511.12	1133.21
511.48	1155.79
511.84	1178.35
512.20	1201.32
512.56	1225.21
512.92	1249.13
513.28	1272.61
513.64	1296.35
514.00	1320.56
514.37	1345.11
514.73	1369.60
515.09	1393.97
515.45	1418.64
515.81	1443.53
516.17	1468.49
516.53	1493.04
516.89	1517.46
517.25	1542.03
517.61	1566.39
517.97	1591.22
518.33	1615.63
518.69	1639.99
519.05	1664.75
519.41	1689.83
519.77	1715.19
520.13	1739.73
520.49	1764.21
520.85	1789.01
521.21	1813.44
521.57	1838.18
521.93	1862.33
522.29	1887.08
522.65	1911.24
523.01	1935.40
523.37	1959.16
523.73	1983.69
524.09	2007.81
524.45	2031.73
524.81	2055.33
525.17	2078.84
525.53	2101.77
525.89	2125.07
526.25	2148.39
526.61	2170.73
526.97	2193.15
527.33	2215.47
527.68	2237.59
528.04	2258.87
528.40	2279.22
528.76	2299.73
529.12	2319.80
529.48	2339.64
529.84	2357.53
530.20	2376.10
530.56	2394.05
530.91	2412.15
531.27	2429.87
531.63	2446.76
531.99	2463.20
532.35	2478.86
532.71	2494.73
533.07	2511.21
533.42	2525.97
533.78	2541.61
534.14	2557.49
534.50	2572.49
534.86	2587.17
535.21	2599.84
535.57	2613.09
535.93	2626.17
536.29	2638.10
536.65	2649.74
537.00	2660.58
537.36	2672.49
537.72	2683.09
538.08	2693.08
538.44	2702.32
538.79	2711.21
539.15	2719.36
539.51	2727.15
539.87	2734.36
540.22	2739.43
540.58	2744.62
540.94	2750.92
541.29	2755.75
541.65	2758.80
542.01	2761.03
542.37	2762.67
542.72	2765.68
543.08	2766.92
543.44	2768.77
543.79	2769.59
544.15	2769.64
544.51	2770.06
544.87	2769.37
545.22	2767.85
545.58	2765.69
545.94	2763.49
546.29	2760.04
546.65	2756.55
547.01	2752.97
547.36	2750.11
547.72	2747.54
548.07	2743.15
548.43	2737.35
548.79	2730.43
549.14	2724.82
549.50	2719.60
549.86	2713.31
550.21	2705.89
550.57	2699.48
550.92	2690.72
551.28	2682.46
551.64	2674.64
551.99	2666.41
552.35	2657.54
552.70	2648.93
553.06	2640.64
553.41	2631.72
553.77	2622.63
554.13	2613.50
554.48	2603.51
554.84	2592.24
555.19	2581.32
555.55	2570.54
555.90	2559.86
556.26	2549.86
556.61	2538.64
556.97	2525.74
557.32	2513.34
557.68	2501.00
558.03	2488.33
558.39	2476.95
558.74	2465.91
559.10	2453.07
559.45	2440.42
559.81	2428.37
560.16	2415.65
560.52	2403.27
560.87	2391.35
561.23	2378.52
561.58	2365.66
561.94	2352.55
562.29	2338.89
562.64	2325.98
563.00	2312.79
563.35	2299.91
563.71	2286.84
564.06	2273.77
564.42	2261.47
564.77	2248.66
565.12	2235.66
565.48	2222.60
565.83	2209.46
566.19	2196.46
566.54	2183.43
566.89	2169.34
567.25	2155.32
567.60	2142.77
567.96	2129.28
568.31	2114.38
568.66	2100.18
569.02	2087.22
569.37	2074.23
569.72	2061.71
570.08	2047.95
570.43	2033.78
570.78	2019.57
571.14	2004.61
571.49	1990.22
571.84	1976.40
572.20	1961.40
572.55	1946.62
572.90	1931.81
573.26	1917.07
573.61	1901.81
573.96	1886.98
574.31	1872.37
574.67	1857.90
575.02	1842.29
575.37	1826.83
575.72	1812.17
576.08	1797.81
576.43	1782.35
576.78	1767.30
577.13	1752.53
577.49	1738.09
577.84	1724.25
578.19	1709.48
578.54	1694.86
578.90	1679.78
579.25	1664.61
579.60	1651.02
579.95	1637.32
580.30	1623.44
580.66	1609.25
581.01	1595.03
581.36	1580.79
581.71	1567.50
582.06	1554.16
582.42	1541.06
582.77	1528.00
583.12	1514.95
583.47	1501.81
583.82	1488.76
584.17	1475.32
584.53	1461.59
584.88	1448.22
585.23	1434.49
585.58	1421.51
585.93	1408.70
586.28	1396.67
586.63	1384.55
586.98	1372.01
587.34	1359.56
587.69	1346.81
588.04	1334.39
588.39	1322.32
588.74	1310.39
589.09	1298.28
589.44	1285.70
589.79	1273.74
590.14	1261.89
590.49	1249.94
590.84	1238.17
591.19	1226.79
591.54	1215.24
591.89	1203.80
592.25	1192.61
592.60	1181.01
592.95	1169.81
593.30	1158.91
593.65	1147.70
594.00	1136.66
594.35	1126.13
594.70	1115.16
595.05	1105.04
595.40	1094.82
595.75	1084.43
596.10	1074.59
596.45	1064.51
596.80	1054.78
597.15	1044.79
597.50	1034.96
597.85	1025.56
598.19	1015.97
598.54	1006.40
598.89	997.32
599.24	988.55
599.59	979.54
599.94	971.45
600.29	963.17
600.64	954.60
600.99	945.68
601.34	937.06
601.69	928.15
602.04	919.92
602.39	911.50
602.74	903.17
603.08	894.79
603.43	886.38
603.78	878.15
604.13	870.04
604.48	861.96
604.83	854.02
605.18	846.04
605.53	838.21
605.87	830.23
606.22	822.50
606.57	814.75
606.92	806.93
607.27	799.02
607.62	791.42
607.96	784.21
608.31	777.46
608.66	770.52
609.01	763.83
609.36	757.25
609.70	750.50
610.05	743.70
610.40	737.18
610.75	730.62
611.10	724.41
611.44	718.05
611.79	711.79
612.14	705.46
612.49	699.18
612.83	693.21
613.18	687.38
613.53	681.47
613.88	675.55
614.22	670.01
614.57	664.46
614.92	658.77
615.27	653.17
615.61	647.62
615.96	642.14
616.31	636.67
616.65	631.23
617.00	625.99
617.35	620.89
617.70	615.81
618.04	610.81
618.39	605.69
618.74	600.83
619.08	596.03
619.43	591.33
619.78	586.65
620.12	581.94
620.47	577.38
620.82	572.94
621.16	568.55
621.51	564.05
621.85	559.57
622.20	555.26
622.55	551.00
622.89	546.81
623.24	542.64
623.59	538.48
623.93	534.50
624.28	530.63
624.62	526.82
624.97	523.06
625.32	519.27
625.66	515.44
626.01	511.58
626.35	507.77
626.70	504.02
627.04	500.45
627.39	496.80
627.73	493.33
628.08	489.95
628.43	486.56
628.77	483.25
629.12	480.06
629.46	476.91
629.81	473.64
630.15	470.36
630.50	467.19
630.84	464.07
631.19	461.01
631.53	458.04
631.88	455.05
632.22	452.07
632.57	449.37
632.91	446.71
633.26	444.15
633.60	441.61
633.95	439.11
634.29	436.54
634.64	434.04
634.98	431.35
635.32	428.79
635.67	426.42
636.01	423.99
636.36	421.60
636.70	419.33
637.05	417.08
637.39	414.87
637.73	412.67
638.08	410.61
638.42	408.52
638.77	406.29
639.11	404.00
639.45	401.81
639.80	399.56
640.14	397.40
640.49	395.24
640.83	393.05
641.17	390.96
641.52	388.92
641.86	386.90
642.20	385.07
642.55	383.11
642.89	381.16
643.23	379.32
643.58	377.63
643.92	375.82
644.26	374.06
644.61	372.36
644.95	370.63
645.29	368.82
645.64	367.03
645.98	365.34
646.32	363.76
646.66	362.17
647.01	360.60
647.35	359.08
647.69	357.54
648.04	356.13
648.38	354.64
648.72	353.16
649.06	351.70
649.41	350.24
649.75	348.84
650.09	347.47
650.43	346.09
650.78	344.67
651.12	343.29
651.46	341.97
651.80	340.66
652.14	339.38
652.49	338.15
652.83	336.90
653.17	335.69
653.51	334.51
653.85	333.39
654.20	332.23
654.54	330.99
654.88	329.84
655.22	328.72
655.56	327.59
655.90	326.53
656.25	325.49
656.59	324.44
656.93	323.46
657.27	322.48
657.61	321.44
657.95	320.46
658.29	319.47
658.64	318.53
658.98	317.58
659.32	316.66
659.66	315.79
660.00	314.95
660.34	314.10
660.68	313.22
661.02	312.32
661.36	311.46
661.70	310.64
662.05	309.84
662.39	309.04
662.73	308.31
663.07	307.60
663.41	306.84
663.75	306.08
664.09	305.33
664.43	304.53
664.77	303.83
665.11	303.07
665.45	302.38
665.79	301.70
666.13	300.99
666.47	300.27
666.81	299.53
667.15	298.77
667.49	298.10
667.83	297.50
668.17	296.87
668.51	296.29
668.85	295.73
669.19	295.21
669.53	294.58
669.87	293.95
670.21	293.34
670.55	292.77
670.89	292.28
671.23	291.74
671.57	291.21
671.91	290.72
672.25	290.27
672.58	289.81
672.92	289.27
673.26	288.81
673.60	288.36
673.94	287.93
674.28	287.53
674.62	287.08
674.96	286.58
675.30	286.15
675.64	285.69
675.97	285.20
676.31	284.69
676.65	284.24
676.99	283.86
677.33	283.39
677.67	282.96
678.01	282.46
678.34	282.05
678.68	281.65
679.02	281.19
679.36	280.76
679.70	280.31
680.04	279.91
680.37	279.50
680.71	279.12
681.05	278.74
681.39	278.32
681.73	277.89
682.06	277.48
682.40	277.08
682.74	276.73
683.08	276.43
683.42	276.07
683.75	275.74
684.09	275.32
684.43	274.98
684.77	274.63
685.10	274.32
685.44	273.98
685.78	273.64
686.12	273.33
686.45	272.98
686.79	272.62
687.13	272.31
687.46	271.95
687.80	271.62
688.14	271.23
688.48	270.92
688.81	270.59
689.15	270.31
689.49	269.97
689.82	269.62
690.16	269.22
690.50	268.90
690.83	268.57
691.17	268.24
691.51	267.91
691.84	267.60
692.18	267.26
692.52	266.91
692.85	266.58
693.19	266.30
693.52	265.98
693.86	265.66
694.20	265.35
694.53	265.05
694.87	264.72
695.21	264.42
695.54	264.11
695.88	263.79
696.21	263.44
696.55	263.15
696.88	262.84
697.22	262.54
697.56	262.24
697.89	261.90
698.23	261.61
698.56	261.29
698.90	260.99
699.23	260.68
699.57	260.37
699.90	260.06
700.24	259.73
700.58	259.46
700.91	259.21
701.25	259.04
701.58	258.81
701.92	258.57
702.25	258.31
702.59	258.02
702.92	257.76
703.26	257.48
703.59	257.20
703.93	257.02
704.26	256.76
704.60	256.49
704.93	256.21
705.26	255.93
705.60	255.71
705.93	255.41
706.27	255.19
706.60	254.97
706.94	254.77
707.27	254.48
707.61	254.21
707.94	253.93
708.27	253.54
708.61	253.22
708.94	252.94
709.28	252.68
709.61	252.43
709.94	252.19
710.28	251.97
710.61	251.76
710.95	251.42
711.28	251.27
711.61	251.04
711.95	250.84
712.28	250.60
712.61	250.35
712.95	250.20
713.28	250.03
713.61	249.78
713.95	249.50
714.28	249.30
714.61	249.08
714.95	248.86
715.28	248.64
715.61	248.45
715.95	248.26
716.28	248.05
716.61	247.88
716.95	247.66
717.28	247.45
717.61	247.24
717.94	247.04
718.28	246.75
718.61	246.54
718.94	246.31
719.27	246.12
719.61	245.95
719.94	245.73
720.27	245.45
720.60	245.27
720.94	245.08
721.27	244.90
721.60	244.74
721.93	244.55
722.27	244.41
722.60	244.25
722.93	244.05
723.26	243.87
723.59	243.66
723.93	243.50
724.26	243.33
724.59	243.15
724.92	242.99
725.25	242.87
725.59	242.71
725.92	242.58
726.25	242.42
726.58	242.26
726.91	242.09
727.24	241.96
727.57	241.81
727.91	241.63
728.24	241.50
728.57	241.34
728.90	241.20
729.23	241.01
729.56	240.91
729.89	240.76
730.22	240.60
730.55	240.46
730.89	240.31
731.22	240.16
731.55	240.02
731.88	239.87
732.21	239.70
732.54	239.56
732.87	239.42
733.20	239.30
733.53	239.16
733.86	239.04
734.19	238.89
734.52	238.78
734.85	238.74
735.18	238.58
735.51	238.49
735.84	238.36
736.17	238.28
736.50	238.09
736.83	238.12
737.16	238.01
737.49	237.90
737.82	237.78
738.15	237.69
738.48	237.57
738.81	237.45
739.14	237.33
739.47	237.21
739.80	237.09
740.13	236.98
740.46	236.85
740.79	236.72
741.12	236.61
741.45	236.47
741.78	236.28
742.11	236.21
742.44	236.07
742.77	235.98
743.10	235.85
743.43	235.74
743.75	235.50
744.08	235.59
744.41	235.48
744.74	235.37
745.07	235.24
745.40	235.17
745.73	235.12
746.06	235.03
746.39	234.96
746.71	234.85
747.04	234.75
747.37	234.65
747.70	234.59
748.03	234.51
748.36	234.44
748.68	234.35
749.01	234.22
749.34	234.14
749.67	234.06
750.00	233.99
750.33	234.00
750.65	233.92
750.98	233.65
751.31	233.57
751.64	233.49
751.97	233.48
752.29	233.38
752.62	233.24
752.95	233.15
753.28	233.05
753.60	232.97
753.93	232.92
754.26	232.85
754.59	232.73
754.91	232.64
755.24	232.54
755.57	232.52
755.90	232.45
756.22	232.36
756.55	232.26
756.88	232.15
757.20	231.99
757.53	231.88
757.86	231.81
758.19	231.75
758.51	231.67
758.84	231.53
759.17	231.45
759.49	231.38
759.82	231.38
760.15	231.33
760.47	231.26
760.80	231.16
761.13	231.11
761.45	231.05
761.78	231.00
762.11	230.94
762.43	230.81
762.76	230.75
763.08	230.71
763.41	230.66
763.74	230.61
764.06	230.55
764.39	230.51
764.71	230.45
765.04	230.38
765.37	230.31
765.69	230.26
766.02	230.21
766.34	230.16
766.67	230.06
767.00	230.03
767.32	230.05
767.65	230.08
767.97	230.01
768.30	229.98
768.62	229.93
768.95	229.87
769.27	229.82
769.60	229.79
769.92	229.72
770.25	229.66
770.57	229.59
770.90	229.54
771.22	229.49
771.55	229.45
771.87	229.42
772.20	229.37
772.52	229.44
772.85	229.55
773.17	229.52
773.50	229.47
773.82	229.40
774.15	229.30
774.47	229.18
774.80	229.13
775.12	229.09
775.45	229.05
775.77	229.02
776.09	229.00
776.42	228.96
776.74	228.97
777.07	228.93
777.39	228.91
777.72	228.87
778.04	228.86
778.36	228.81
778.69	228.78
779.01	228.77
779.33	228.62
779.66	228.45
779.98	228.41
780.31	228.39
780.63	228.41
780.95	228.41
781.28	228.38
781.60	228.35
781.92	228.33
782.25	228.30
782.57	228.28
782.89	228.24
783.22	228.21
783.54	228.16
783.86	228.14
784.19	228.11
784.51	228.12
784.83	228.08
785.16	228.06
785.48	228.04
785.80	228.01
786.12	228.01
786.45	227.98
786.77	227.97
787.09	227.94
787.42	227.86
787.74	227.85
788.06	227.83
788.38	227.81
788.71	227.78
789.03	227.76
789.35	227.76
789.67	227.72
789.99	227.71
790.32	227.68
790.64	227.67
790.96	227.77
791.28	227.70
791.61	227.68
791.93	227.67
792.25	227.64
792.57	227.71
792.89	227.67
793.21	227.66
793.54	227.63
793.86	227.60
794.18	227.59
794.50	227.55
794.82	227.53
795.14	227.53
795.47	227.53
795.79	227.52
796.11	227.47
796.43	227.45
796.75	227.43
797.07	227.43
797.39	227.40
797.71	227.28
798.04	227.27
798.36	227.27
798.68	227.25
799.00	227.24
799.32	227.16
799.64	227.17
799.96	227.15
800.28	227.16
800.60	227.14
800.92	227.13
801.24	227.11
801.56	227.10
801.89	227.08
802.21	227.07
802.53	227.03
802.85	227.05
803.17	227.09
803.49	227.05
803.81	227.03
804.13	227.00
804.45	226.98
804.77	226.97
805.09	226.96
805.41	226.94
805.73	226.90
806.05	226.86
806.37	226.83
806.69	226.81
807.01	226.78
807.33	226.78
807.65	226.72
807.97	226.77
808.28	226.74
808.60	226.73
808.92	226.70
809.24	226.77
809.56	226.74
809.88	226.68
810.20	226.68
810.52	226.69
810.84	226.67
811.16	226.64
811.48	226.63
811.80	226.66
812.12	226.65
812.43	226.66
812.75	226.66
813.07	226.64
813.39	226.64
813.71	226.61
814.03	226.59
814.35	226.59
814.67	226.53
814.98	226.51
815.30	226.49
815.62	226.46
815.94	226.37
816.26	226.37
816.58	226.34
816.89	226.34
817.21	226.30
817.53	226.31
817.85	226.31
818.17	226.30
818.48	226.24
818.80	226.25
819.12	226.22
819.44	226.19
819.76	226.17
820.07	226.16
820.39	226.15
820.71	226.16
821.03	226.15
821.34	226.13
821.66	226.15
821.98	226.15
822.30	226.15
822.61	226.22
822.93	226.19
823.25	226.18
823.57	226.16
823.88	226.17
824.20	226.16
824.52	226.17
824.83	226.15
825.15	226.14
825.47	226.12
825.79	226.13
826.10	226.11
826.42	226.11
826.74	226.11
827.05	226.10
827.37	226.09
827.69	226.08
828.00	226.08
828.32	226.07
828.64	226.05
828.95	226.11
829.27	226.07
829.58	226.06
829.90	226.08
830.22	226.08
830.53	226.06
830.85	226.04
831.17	226.01
831.48	226.00
831.80	226.00
832.11	225.99
832.43	225.97
832.75	225.96
833.06	226.04
833.38	226.00
833.69	225.99
834.01	225.98
834.32	225.98
834.64	225.96
834.96	225.96
835.27	225.95
835.59	225.90
835.90	225.88
836.22	225.87
836.53	225.84
836.85	225.83
837.16	225.95
837.48	225.95
837.79	225.99
838.11	225.99
838.42	225.98
838.74	226.00
839.05	225.99
839.37	225.98
839.68	225.89
840.00	225.89
840.31	225.91
840.63	225.89
840.94	225.88
841.26	225.86
841.57	225.85
841.88	225.86
842.20	225.84
842.51	225.82
842.83	225.82
843.14	225.93
843.46	225.93
843.77	225.85
844.08	225.84
844.40	225.80
844.71	225.78
845.03	225.77
845.34	225.75
845.65	225.75
845.97	225.75
846.28	225.76
846.60	225.77
846.91	225.75
847.22	225.74
847.54	225.77
847.85	225.77
848.16	225.76
848.48	225.73
848.79	225.78
849.10	225.80
849.42	225.80
849.73	225.68
850.04	225.68
850.36	225.63
850.67	225.65
850.98	225.66
851.30	225.67
851.61	225.66
851.92	225.65
852.23	225.69
852.55	225.70
852.86	225.69
853.17	225.71
853.49	225.73
853.80	225.75
854.11	225.76
854.42	225.77
854.74	225.76
855.05	225.76
855.36	225.70
855.67	225.70
855.99	225.70
856.30	225.84
856.61	225.84
856.92	225.84
857.23	225.84
857.55	225.82
857.86	225.81
858.17	225.83
858.48	225.81
858.79	225.78
859.11	225.78
859.42	225.77
859.73	225.75
860.04	225.74
860.35	225.70
860.66	225.66
860.98	225.65
861.29	225.66
861.60	225.65
861.91	225.68
862.22	225.66
862.53	225.64
862.84	225.48
863.16	225.50
863.47	225.48
863.78	225.46
864.09	225.47
864.40	225.48
864.71	225.47
865.02	225.49
865.33	225.47
865.64	225.45
865.95	225.45
866.27	225.53
866.58	225.51
866.89	225.53
867.20	225.53
867.51	225.51
867.82	225.50
868.13	225.54
868.44	225.51
868.75	225.53
869.06	225.53
869.37	225.55
869.68	225.52
869.99	225.54
870.30	225.55
870.61	225.56
870.92	225.54
871.23	225.53
871.54	225.54
871.85	225.57
872.16	225.58
872.47	225.57
872.78	225.50
873.09	225.50
873.40	225.49
873.71	225.50
874.02	225.51
874.33	225.50
874.64	225.47
874.95	225.49
875.26	225.46
875.56	225.46
875.87	225.45
876.18	225.44
876.49	225.56
876.80	225.55
877.11	225.53
877.42	225.53
877.73	225.53
878.04	225.51
878.35	225.51
878.66	225.51
878.96	225.50
879.27	225.50
879.58	225.49
879.89	225.48
880.20	225.51
880.51	225.50
880.82	225.50
881.12	225.51
881.43	225.48
881.74	225.47
882.05	225.47
882.36	225.48
882.67	225.48
882.97	225.34
883.28	225.33
883.59	225.33
883.90	225.34
884.21	225.36
884.51	225.36
884.82	225.33
885.13	225.34
885.44	225.34
885.74	225.34
886.05	225.33
886.36	225.33
886.67	225.29
886.98	225.35
887.28	225.36
887.59	225.36
887.90	225.37
888.20	225.37
888.51	225.39
888.82	225.37
889.13	225.39
889.43	225.50
889.74	225.49
890.05	225.49
890.35	225.48
890.66	225.46
890.97	225.44
891.28	225.43
891.58	225.43
891.89	225.43
892.20	225.42
892.50	225.41
892.81	225.40
893.12	225.40
893.42	225.34
893.73	225.34
894.04	225.34
894.34	225.34
894.65	225.34
894.95	225.32
895.26	225.33
895.57	225.38
895.87	225.25
896.18	225.27
896.48	225.27
896.79	225.27
897.10	225.29
897.40	225.30
897.71	225.31
898.01	225.30
898.32	225.31
898.63	225.31
898.93	225.32
899.24	225.32
899.54	225.31
899.85	225.30
900.15	225.30
900.46	225.30
900.76	225.30
901.07	225.30
901.38	225.30
901.68	225.31
901.99	225.25
902.29	225.26
902.60	225.25
902.90	225.24
903.21	225.23
903.51	225.22
903.82	225.25
904.12	225.25
904.43	225.26
904.73	225.25
905.03	225.25
905.34	225.37
905.64	225.37
905.95	225.37
906.25	225.36
906.56	225.36
906.86	225.36
907.17	225.34
907.47	225.35
907.77	225.34
908.08	225.31
908.38	225.31
908.69	225.32
908.99	225.34
909.30	225.35
909.60	225.35
909.90	225.35
910.21	225.31
910.51	225.29
910.81	225.29
911.12	225.30
911.42	225.30
911.73	225.16
912.03	225.18
912.33	225.20
912.64	225.19
912.94	225.18
913.24	225.17
913.55	225.16
913.85	225.15
914.15	225.17
914.46	225.19
914.76	225.18
915.06	225.17
915.37	225.15
915.67	225.13
915.97	225.13
916.27	225.11
916.58	225.12
916.88	225.12
917.18	225.11
917.49	225.19
917.79	225.18
918.09	225.20
918.39	225.23
918.70	225.22
919.00	225.23
919.30	225.29
919.60	225.29
919.91	225.28
920.21	225.28
920.51	225.25
920.81	225.25
921.12	225.27
921.42	225.27
921.72	225.28
922.02	225.29
922.32	225.31
922.63	225.31
922.93	225.39
923.23	225.39
923.53	225.38
923.83	225.30
924.13	225.31
924.44	225.31
924.74	225.33
925.04	225.36
925.34	225.35
925.64	225.29
925.94	225.29
926.24	225.37
926.55	225.35
926.85	225.37
927.15	225.36
927.45	225.36
927.75	225.36
928.05	225.36
928.35	225.35
928.65	225.36
928.95	225.37
929.26	225.31
929.56	225.33
929.86	225.35
930.16	225.34
930.46	225.33
930.76	225.33
931.06	225.27
931.36	225.24
931.66	225.26
931.96	225.27
932.26	225.28
932.56	225.22
932.86	225.24
933.16	225.23
933.46	225.23
933.76	225.21
934.06	225.23
934.36	225.27
934.66	225.27
934.96	225.25
935.26	225.25
935.56	225.27
935.86	225.24
936.16	225.21
936.46	225.21
936.76	225.20
937.06	225.18
937.36	225.19
937.66	225.20
937.96	225.19
938.26	225.16
938.56	225.15
938.86	225.15
939.16	225.18
939.46	225.19
939.76	225.20
940.06	225.20
940.35	225.17
940.65	225.11
940.95	225.12
941.25	225.09
941.55	225.07
941.85	225.06
942.15	225.09
942.45	225.13
942.75	225.12
943.04	225.13
943.34	225.15
943.64	225.14
943.94	225.12
944.24	225.12
944.54	225.13
944.84	225.13
945.13	225.11
945.43	225.09
945.73	225.08
946.03	225.06
946.33	225.05
946.62	225.04
946.92	225.04
947.22	225.04
947.52	225.06
947.82	225.07
948.11	225.06
948.41	225.03
948.71	224.99
949.01	225.00
949.31	224.99
949.60	224.98
949.90	225.00
950.20	224.99
950.50	224.99
950.79	224.98
951.09	225.00
951.39	225.00
951.69	224.99
951.98	225.01
952.28	225.02
952.58	225.02
952.87	225.02
953.17	225.03
953.47	225.02
953.76	225.01
954.06	224.99
954.36	224.98
954.66	224.98
954.95	225.01
955.25	225.02
955.55	225.03
955.84	225.01
956.14	225.01
956.44	225.02
956.73	225.00
957.03	225.01
957.32	225.01
957.62	225.01
957.92	225.04
958.21	225.02
958.51	225.17
958.81	225.19
959.10	225.20
959.40	225.23
959.69	225.24
959.99	225.26
960.29	225.26
960.58	225.26
960.88	225.31
961.17	225.29
961.47	225.30
961.76	225.29
962.06	225.31
962.36	225.30
962.65	225.30
962.95	225.31
963.24	225.30
963.54	225.30
963.83	225.31
964.13	225.29
964.42	225.28
964.72	225.17
965.01	225.17
965.31	225.16
965.60	225.13
965.90	225.21
966.19	225.18
966.49	225.19
966.78	225.19
967.08	225.17
967.37	225.17
967.67	225.15
967.96	225.17
968.26	225.17
968.55	225.19
968.85	225.18
969.14	225.18
969.43	225.18
969.73	225.17
970.02	225.16
970.32	225.15
970.61	225.14
970.91	225.10
971.20	225.08
971.49	225.07
971.79	225.08
972.08	224.99
972.38	225.01
972.67	225.00
972.96	225.01
973.26	224.99
973.55	225.03
973.85	225.02
974.14	225.00
974.43	225.01
974.73	224.99
975.02	224.98
975.31	224.98
975.61	224.98
975.90	224.97
976.19	224.96
976.49	224.97
976.78	224.98
977.07	224.98
977.37	224.99
977.66	225.00
977.95	224.98
978.24	225.00
978.54	225.02
978.83	225.01
979.12	225.00
979.42	225.00
979.71	224.98
980.00	224.98
980.29	224.99
980.59	224.97
980.88	225.00
981.17	225.00
981.46	225.00
981.76	224.99
982.05	225.03
982.34	225.04
982.63	225.04
982.93	225.04
983.22	225.08
983.51	225.09
983.80	225.10
984.09	225.12
984.39	225.11
984.68	225.09
984.97	225.10
985.26	225.09
985.55	225.10
985.85	225.08
986.14	225.09
986.43	225.10
986.72	225.10
987.01	225.06
987.30	225.06
987.59	225.05
987.89	225.05
988.18	225.02
988.47	225.01
988.76	224.99
989.05	224.98
989.34	224.96
989.63	224.99
989.92	224.97
990.22	224.95
990.51	224.95
990.80	224.94
991.09	224.94
991.38	224.96
991.67	224.95
991.96	224.94
992.25	224.94
992.54	224.92
992.83	224.92
993.12	224.92
993.41	224.95
993.70	225.00
993.99	225.02
994.28	225.03
994.58	225.05
994.87	225.04
995.16	225.04
995.45	225.03
995.74	224.98
996.03	225.00
996.32	225.02
996.61	225.05
996.90	225.05
997.19	225.04
997.48	225.04
997.77	225.02
998.06	225.03
998.34	225.02
998.63	225.02
998.92	225.02
999.21	225.04
999.50	225.03
999.79	224.99
1000.08	224.98
1000.37	224.99
1000.66	224.97
1000.95	225.00
1001.24	225.01
1001.53	225.03
1001.82	225.02
1002.11	224.99
1002.40	225.00
1002.68	225.03
1002.97	225.12
1003.26	225.11
1003.55	225.09
1003.84	225.10
1004.13	225.14
1004.42	225.13
1004.71	225.14
1004.99	225.13
1005.28	225.16
1005.57	225.14
1005.86	225.13
1006.15	225.12
1006.44	225.10
1006.72	225.12
1007.01	225.09
1007.30	225.09
1007.59	225.08
1007.88	225.08
1008.17	225.09
1008.45	225.06
1008.74	225.01
1009.03	224.95
1009.32	224.96
1009.60	224.96
1009.89	224.95
1010.18	224.90
1010.47	224.89
1010.76	224.89
1011.04	224.89
1011.33	224.89
1011.62	224.90
1011.91	224.91
1012.19	224.92
1012.48	224.92
1012.77	224.92
1013.05	224.96
1013.34	224.96
1013.63	224.96
1013.92	224.96
1014.20	224.95
1014.49	224.96
1014.78	224.97
1015.06	224.93
1015.35	224.93
1015.64	224.95
1015.92	224.97
1016.21	224.98
1016.50	224.98
1016.78	225.00
1017.07	225.00
1017.36	224.98
1017.64	224.96
1017.93	224.97
1018.22	224.96
1018.50	224.96
1018.79	224.95
1019.08	224.91
1019.36	224.91
1019.65	224.90
1019.93	224.94
1020.22	224.95
1020.51	225.02
1020.79	225.00
1021.08	224.78
1021.36	224.70
1021.65	224.95
1021.94	224.95
1022.22	224.98
1022.51	224.70
1022.79	225.52
1023.08	225.12
1023.36	226.48
1023.65	224.67
>>>>>End Processed Spectral Data<<<<<
