SpectraSuite Data File
++++++++++++++++++++++++++++++++++++
Date: Fri Oct 02 16:54:22 EDT 2015
User: lab3
Dark Spectrum Present: No
Reference Spectrum Present: No
Number of Sampled Component Spectra: 1
Spectrometers: USB2E7196
Integration Time (usec): 46000 (USB2E7196)
Spectra Averaged: 1200 (USB2E7196)
Boxcar Smoothing: 10 (USB2E7196)
Correct for Electrical Dark: No (USB2E7196)
Strobe/Lamp Enabled: No (USB2E7196)
Correct for Detector Non-linearity: No (USB2E7196)
Correct for Stray Light: No (USB2E7196)
Number of Pixels in Processed Spectrum: 2048
>>>>>Begin Processed Spectral Data<<<<<
339.09	0.00
339.48	214.30
339.86	215.96
340.24	217.18
340.63	218.86
341.01	222.02
341.39	221.31
341.78	222.88
342.16	224.09
342.54	224.33
342.93	212.86
343.31	223.61
343.69	224.16
344.07	224.61
344.46	225.05
344.84	225.43
345.22	225.66
345.60	225.92
345.99	226.11
346.37	226.24
346.75	226.35
347.13	226.43
347.52	226.51
347.90	226.60
348.28	226.64
348.66	226.69
349.05	226.69
349.43	226.76
349.81	226.81
350.19	226.86
350.57	226.92
350.96	227.00
351.34	227.11
351.72	227.21
352.10	227.32
352.48	227.39
352.87	227.44
353.25	227.51
353.63	227.57
354.01	227.64
354.39	227.73
354.77	227.80
355.15	227.91
355.54	227.95
355.92	227.98
356.30	228.06
356.68	228.22
357.06	228.30
357.44	228.35
357.82	228.42
358.20	228.54
358.58	228.62
358.97	228.67
359.35	228.75
359.73	228.84
360.11	228.89
360.49	228.95
360.87	229.00
361.25	229.07
361.63	229.16
362.01	229.21
362.39	229.24
362.77	229.29
363.15	229.31
363.53	229.35
363.91	229.39
364.29	229.41
364.67	229.29
365.05	229.32
365.43	229.34
365.81	229.37
366.19	229.39
366.57	229.44
366.95	229.44
367.33	229.41
367.71	229.41
368.09	229.43
368.47	229.42
368.85	229.41
369.23	229.42
369.61	229.36
369.99	229.37
370.37	229.37
370.75	229.45
371.13	229.42
371.51	229.38
371.89	229.35
372.27	229.34
372.65	229.32
373.03	229.29
373.41	229.24
373.78	229.19
374.16	229.09
374.54	229.00
374.92	228.95
375.30	228.90
375.68	228.83
376.06	228.78
376.44	228.72
376.82	228.67
377.19	228.62
377.57	228.58
377.95	228.49
378.33	228.42
378.71	228.26
379.09	228.21
379.47	228.18
379.84	228.11
380.22	228.04
380.60	227.97
380.98	227.91
381.36	227.86
381.73	227.80
382.11	227.78
382.49	227.75
382.87	227.68
383.25	227.64
383.62	227.74
384.00	227.67
384.38	227.63
384.76	227.62
385.13	227.62
385.51	227.57
385.89	227.53
386.27	227.49
386.64	227.47
387.02	227.42
387.40	227.37
387.78	227.35
388.15	227.32
388.53	227.29
388.91	227.26
389.29	227.22
389.66	227.22
390.04	227.17
390.42	227.17
390.79	227.17
391.17	227.15
391.55	227.00
391.92	226.99
392.30	226.99
392.68	226.94
393.05	226.91
393.43	226.90
393.81	226.91
394.18	226.89
394.56	226.89
394.94	226.93
395.31	226.93
395.69	226.97
396.06	227.00
396.44	227.03
396.82	227.04
397.19	227.13
397.57	227.13
397.95	227.20
398.32	227.18
398.70	227.23
399.07	227.30
399.45	227.33
399.82	227.39
400.20	227.42
400.58	227.48
400.95	227.50
401.33	227.59
401.70	227.74
402.08	227.84
402.45	227.93
402.83	228.04
403.20	228.14
403.58	228.23
403.95	228.37
404.33	228.52
404.71	228.66
405.08	228.85
405.46	229.02
405.83	229.20
406.21	229.40
406.58	229.62
406.96	229.83
407.33	230.08
407.70	230.36
408.08	230.75
408.45	231.09
408.83	231.45
409.20	231.79
409.58	232.08
409.95	232.49
410.33	232.93
410.70	233.35
411.08	233.85
411.45	234.38
411.82	234.91
412.20	235.52
412.57	236.25
412.95	236.82
413.32	237.55
413.69	238.31
414.07	239.10
414.44	239.97
414.82	240.86
415.19	241.89
415.56	242.94
415.94	244.03
416.31	245.25
416.68	246.48
417.06	247.91
417.43	249.26
417.81	250.79
418.18	252.35
418.55	254.05
418.93	255.81
419.30	257.65
419.67	259.62
420.04	261.63
420.42	263.73
420.79	266.18
421.16	268.64
421.54	271.14
421.91	273.76
422.28	276.46
422.66	279.37
423.03	282.18
423.40	285.12
423.77	288.27
424.15	291.49
424.52	294.84
424.89	298.46
425.26	302.05
425.64	305.41
426.01	309.18
426.38	313.05
426.75	317.03
427.13	321.12
427.50	325.39
427.87	329.84
428.24	334.33
428.61	338.66
428.99	343.33
429.36	348.45
429.73	353.34
430.10	358.26
430.47	363.29
430.85	368.45
431.22	374.00
431.59	379.70
431.96	385.28
432.33	391.47
432.70	397.39
433.08	404.36
433.45	410.94
433.82	417.45
434.19	424.72
434.56	431.89
434.93	438.79
435.30	445.66
435.68	453.40
436.05	460.99
436.42	468.51
436.79	475.40
437.16	482.83
437.53	490.81
437.90	498.80
438.27	506.58
438.64	515.01
439.01	522.65
439.38	529.65
439.75	536.33
440.13	543.90
440.50	551.07
440.87	556.77
441.24	563.02
441.61	569.83
441.98	574.76
442.35	580.61
442.72	586.58
443.09	592.23
443.46	595.77
443.83	598.33
444.20	600.44
444.57	603.64
444.94	605.38
445.31	607.17
445.68	608.63
446.05	609.67
446.42	609.07
446.79	608.29
447.16	607.57
447.53	606.89
447.90	604.24
448.27	601.70
448.64	597.99
449.01	595.32
449.37	590.21
449.74	585.59
450.11	579.71
450.48	573.31
450.85	566.89
451.22	561.41
451.59	556.07
451.96	551.23
452.33	544.28
452.70	538.12
453.07	530.65
453.43	523.22
453.80	516.01
454.17	509.11
454.54	502.76
454.91	495.62
455.28	488.96
455.65	482.67
456.02	476.04
456.38	470.69
456.75	463.84
457.12	458.35
457.49	452.81
457.86	447.59
458.23	443.03
458.59	437.99
458.96	432.83
459.33	428.29
459.70	423.67
460.07	420.18
460.43	416.05
460.80	412.20
461.17	408.88
461.54	405.28
461.91	401.92
462.27	398.50
462.64	395.75
463.01	392.57
463.38	389.37
463.74	386.48
464.11	383.94
464.48	381.66
464.85	379.16
465.21	377.30
465.58	375.20
465.95	372.78
466.32	370.87
466.68	368.99
467.05	367.10
467.42	365.26
467.78	363.26
468.15	361.44
468.52	360.12
468.88	358.31
469.25	356.65
469.62	355.35
469.98	353.94
470.35	352.66
470.72	351.50
471.08	350.33
471.45	349.36
471.82	348.26
472.18	347.09
472.55	346.35
472.92	345.41
473.28	344.67
473.65	343.88
474.02	343.13
474.38	342.51
474.75	342.15
475.11	341.65
475.48	341.41
475.85	341.15
476.21	341.02
476.58	340.95
476.94	341.09
477.31	341.15
477.67	341.24
478.04	341.47
478.41	341.78
478.77	342.22
479.14	342.50
479.50	343.03
479.87	343.70
480.23	344.38
480.60	345.05
480.96	345.71
481.33	346.71
481.69	347.70
482.06	348.68
482.42	349.58
482.79	350.69
483.15	351.99
483.52	353.48
483.88	354.90
484.25	356.41
484.61	357.99
484.98	359.70
485.34	361.63
485.71	363.64
486.07	365.78
486.44	367.93
486.80	370.32
487.17	372.81
487.53	375.53
487.90	378.38
488.26	381.49
488.62	384.76
488.99	388.03
489.35	391.48
489.72	395.21
490.08	399.14
490.44	403.19
490.81	407.40
491.17	411.71
491.54	416.33
491.90	421.12
492.26	426.24
492.63	431.61
492.99	437.20
493.36	442.97
493.72	449.06
494.08	455.31
494.45	461.94
494.81	468.81
495.17	475.87
495.54	483.32
495.90	491.08
496.26	499.03
496.63	507.21
496.99	515.69
497.35	524.58
497.72	533.76
498.08	543.14
498.44	552.83
498.80	563.10
499.17	573.65
499.53	584.51
499.89	595.74
500.26	607.18
500.62	618.90
500.98	631.26
501.34	643.79
501.71	656.81
502.07	670.01
502.43	683.76
502.79	697.76
503.16	712.18
503.52	726.79
503.88	741.80
504.24	757.29
504.60	773.01
504.97	789.17
505.33	805.74
505.69	823.19
506.05	840.99
506.41	858.70
506.78	876.58
507.14	894.93
507.50	913.74
507.86	932.88
508.22	952.27
508.59	971.45
508.95	991.43
509.31	1012.15
509.67	1033.54
510.03	1054.88
510.39	1076.28
510.75	1097.85
511.12	1119.71
511.48	1141.69
511.84	1163.73
512.20	1186.08
512.56	1209.25
512.92	1232.47
513.28	1255.31
513.64	1278.30
514.00	1301.71
514.37	1325.44
514.73	1349.17
515.09	1372.75
515.45	1396.64
515.81	1420.64
516.17	1444.81
516.53	1468.41
516.89	1491.88
517.25	1515.51
517.61	1539.05
517.97	1563.00
518.33	1586.41
518.69	1609.70
519.05	1633.51
519.41	1657.46
519.77	1681.65
520.13	1705.12
520.49	1728.49
520.85	1752.14
521.21	1775.36
521.57	1798.99
521.93	1822.05
522.29	1845.52
522.65	1868.47
523.01	1891.37
523.37	1913.84
523.73	1936.98
524.09	1959.89
524.45	1982.50
524.81	2004.72
525.17	2026.71
525.53	2048.09
525.89	2069.92
526.25	2091.74
526.61	2112.52
526.97	2133.42
527.33	2154.20
527.68	2174.67
528.04	2194.38
528.40	2213.14
528.76	2232.10
529.12	2250.52
529.48	2268.62
529.84	2284.97
530.20	2301.92
530.56	2318.23
530.91	2334.66
531.27	2350.71
531.63	2365.97
531.99	2380.83
532.35	2394.99
532.71	2409.28
533.07	2424.09
533.42	2437.14
533.78	2451.08
534.14	2465.29
534.50	2478.54
534.86	2491.57
535.21	2502.77
535.57	2514.35
535.93	2525.73
536.29	2536.04
536.65	2546.18
537.00	2555.70
537.36	2566.08
537.72	2575.04
538.08	2583.47
538.44	2591.32
538.79	2598.77
539.15	2605.38
539.51	2611.64
539.87	2617.23
540.22	2620.95
540.58	2624.85
540.94	2629.91
541.29	2633.43
541.65	2635.18
542.01	2636.34
542.37	2636.83
542.72	2638.55
543.08	2638.77
543.44	2639.50
543.79	2639.24
544.15	2638.15
544.51	2637.36
544.87	2635.52
545.22	2633.00
545.58	2629.89
545.94	2626.72
546.29	2622.32
546.65	2618.01
547.01	2613.55
547.36	2609.78
547.72	2606.13
548.07	2600.85
548.43	2594.13
548.79	2586.60
549.14	2580.23
549.50	2574.10
549.86	2567.13
550.21	2559.11
550.57	2551.94
550.92	2542.66
551.28	2533.90
551.64	2525.42
551.99	2516.58
552.35	2507.25
552.70	2498.17
553.06	2489.40
553.41	2480.09
553.77	2470.57
554.13	2460.86
554.48	2450.48
554.84	2438.94
555.19	2427.89
555.55	2416.91
555.90	2406.06
556.26	2395.66
556.61	2384.24
556.97	2371.31
557.32	2358.91
557.68	2346.46
558.03	2333.78
558.39	2322.23
558.74	2310.92
559.10	2298.10
559.45	2285.42
559.81	2273.32
560.16	2260.69
560.52	2248.28
560.87	2236.17
561.23	2223.31
561.58	2210.69
561.94	2197.73
562.29	2184.25
562.64	2171.46
563.00	2158.31
563.35	2145.62
563.71	2132.68
564.06	2119.76
564.42	2107.54
564.77	2094.71
565.12	2081.81
565.48	2068.93
565.83	2056.02
566.19	2043.31
566.54	2030.54
566.89	2016.79
567.25	2003.16
567.60	1990.73
567.96	1977.53
568.31	1963.09
568.66	1949.36
569.02	1936.65
569.37	1923.88
569.72	1911.70
570.08	1898.26
570.43	1884.53
570.78	1870.58
571.14	1856.13
571.49	1842.28
571.84	1828.96
572.20	1814.57
572.55	1800.45
572.90	1786.17
573.26	1771.94
573.61	1757.24
573.96	1742.98
574.31	1728.91
574.67	1714.93
575.02	1700.05
575.37	1685.17
575.72	1671.18
576.08	1657.46
576.43	1642.74
576.78	1628.46
577.13	1614.42
577.49	1600.77
577.84	1587.67
578.19	1573.76
578.54	1560.02
578.90	1545.80
579.25	1531.50
579.60	1518.65
579.95	1505.71
580.30	1492.63
580.66	1479.36
581.01	1465.97
581.36	1452.60
581.71	1440.23
582.06	1427.70
582.42	1415.42
582.77	1403.23
583.12	1390.99
583.47	1378.64
583.82	1366.37
584.17	1353.79
584.53	1340.94
584.88	1328.44
585.23	1315.58
585.58	1303.48
585.93	1291.57
586.28	1280.37
586.63	1269.12
586.98	1257.44
587.34	1245.84
587.69	1234.01
588.04	1222.52
588.39	1211.42
588.74	1200.44
589.09	1189.22
589.44	1177.67
589.79	1166.71
590.14	1155.88
590.49	1144.96
590.84	1134.18
591.19	1123.74
591.54	1113.19
591.89	1102.76
592.25	1092.52
592.60	1081.99
592.95	1071.80
593.30	1061.80
593.65	1051.53
594.00	1041.38
594.35	1031.79
594.70	1021.81
595.05	1012.63
595.40	1003.30
595.75	993.90
596.10	984.93
596.45	975.76
596.80	966.89
597.15	957.82
597.50	948.86
597.85	940.33
598.19	931.62
598.54	923.01
598.89	914.74
599.24	906.78
599.59	898.63
599.94	891.33
600.29	883.88
600.64	876.16
600.99	868.15
601.34	860.48
601.69	852.46
602.04	845.08
602.39	837.54
602.74	830.08
603.08	822.60
603.43	815.10
603.78	807.74
604.13	800.55
604.48	793.31
604.83	786.26
605.18	779.08
605.53	772.09
605.87	764.93
606.22	758.09
606.57	751.19
606.92	744.22
607.27	737.17
607.62	730.42
607.96	724.03
608.31	718.03
608.66	711.85
609.01	705.95
609.36	700.14
609.70	694.12
610.05	688.10
610.40	682.30
610.75	676.52
611.10	671.02
611.44	665.36
611.79	659.82
612.14	654.23
612.49	648.74
612.83	643.49
613.18	638.39
613.53	633.17
613.88	628.00
614.22	623.23
614.57	618.37
614.92	613.35
615.27	608.44
615.61	603.58
615.96	598.80
616.31	594.03
616.65	589.30
617.00	584.75
617.35	580.30
617.70	575.90
618.04	571.55
618.39	567.15
618.74	562.99
619.08	558.85
619.43	554.80
619.78	550.78
620.12	546.73
620.47	542.82
620.82	539.01
621.16	535.21
621.51	531.31
621.85	527.46
622.20	523.80
622.55	520.15
622.89	516.55
623.24	512.93
623.59	509.35
623.93	505.93
624.28	502.59
624.62	499.35
624.97	496.13
625.32	492.91
625.66	489.63
626.01	486.30
626.35	483.06
626.70	479.84
627.04	476.81
627.39	473.71
627.73	470.74
628.08	467.84
628.43	464.95
628.77	462.13
629.12	459.42
629.46	456.70
629.81	453.92
630.15	451.15
630.50	448.50
630.84	445.86
631.19	443.26
631.53	440.78
631.88	438.25
632.22	435.72
632.57	433.48
632.91	431.26
633.26	429.13
633.60	426.98
633.95	424.93
634.29	422.75
634.64	420.67
634.98	418.42
635.32	416.33
635.67	414.39
636.01	412.38
636.36	410.38
636.70	408.54
637.05	406.71
637.39	404.87
637.73	403.07
638.08	401.37
638.42	399.65
638.77	397.82
639.11	395.92
639.45	394.11
639.80	392.21
640.14	390.44
640.49	388.63
640.83	386.82
641.17	385.08
641.52	383.39
641.86	381.70
642.20	380.22
642.55	378.56
642.89	376.93
643.23	375.39
643.58	374.01
643.92	372.49
644.26	371.02
644.61	369.62
644.95	368.17
645.29	366.64
645.64	365.14
645.98	363.70
646.32	362.38
646.66	361.05
647.01	359.74
647.35	358.46
647.69	357.16
648.04	356.00
648.38	354.74
648.72	353.49
649.06	352.26
649.41	351.04
649.75	349.87
650.09	348.71
650.43	347.55
650.78	346.35
651.12	345.18
651.46	344.04
651.80	342.92
652.14	341.83
652.49	340.79
652.83	339.73
653.17	338.70
653.51	337.71
653.85	336.77
654.20	335.77
654.54	334.71
654.88	333.73
655.22	332.77
655.56	331.79
655.90	330.88
656.25	329.99
656.59	329.07
656.93	328.21
657.27	327.37
657.61	326.47
657.95	325.59
658.29	324.72
658.64	323.90
658.98	323.07
659.32	322.25
659.66	321.50
660.00	320.74
660.34	319.99
660.68	319.20
661.02	318.37
661.36	317.58
661.70	316.82
662.05	316.09
662.39	315.35
662.73	314.68
663.07	314.02
663.41	313.32
663.75	312.61
664.09	311.91
664.43	311.16
664.77	310.49
665.11	309.79
665.45	309.14
665.79	308.50
666.13	307.82
666.47	307.14
666.81	306.42
667.15	305.69
667.49	305.05
667.83	304.47
668.17	303.87
668.51	303.30
668.85	302.77
669.19	302.26
669.53	301.64
669.87	301.02
670.21	300.41
670.55	299.85
670.89	299.35
671.23	298.81
671.57	298.28
671.91	297.80
672.25	297.34
672.58	296.88
672.92	296.33
673.26	295.87
673.60	295.41
673.94	294.95
674.28	294.53
674.62	294.07
674.96	293.56
675.30	293.11
675.64	292.63
675.97	292.10
676.31	291.56
676.65	291.09
676.99	290.68
677.33	290.18
677.67	289.72
678.01	289.20
678.34	288.75
678.68	288.32
679.02	287.83
679.36	287.35
679.70	286.85
680.04	286.41
680.37	285.96
680.71	285.53
681.05	285.11
681.39	284.65
681.73	284.18
682.06	283.70
682.40	283.25
682.74	282.85
683.08	282.52
683.42	282.10
683.75	281.72
684.09	281.25
684.43	280.88
684.77	280.46
685.10	280.10
685.44	279.70
685.78	279.31
686.12	278.94
686.45	278.54
686.79	278.15
687.13	277.78
687.46	277.38
687.80	276.98
688.14	276.55
688.48	276.19
688.81	275.80
689.15	275.48
689.49	275.08
689.82	274.67
690.16	274.21
690.50	273.85
690.83	273.47
691.17	273.09
691.51	272.71
691.84	272.37
692.18	271.97
692.52	271.58
692.85	271.21
693.19	270.87
693.52	270.49
693.86	270.12
694.20	269.75
694.53	269.40
694.87	269.03
695.21	268.66
695.54	268.29
695.88	267.94
696.21	267.54
696.55	267.20
696.88	266.86
697.22	266.51
697.56	266.16
697.89	265.76
698.23	265.41
698.56	265.03
698.90	264.67
699.23	264.31
699.57	263.95
699.90	263.58
700.24	263.21
700.58	262.90
700.91	262.62
701.25	262.39
701.58	262.12
701.92	261.83
702.25	261.52
702.59	261.19
702.92	260.87
703.26	260.56
703.59	260.23
703.93	260.01
704.26	259.71
704.60	259.38
704.93	259.06
705.26	258.74
705.60	258.47
705.93	258.15
706.27	257.90
706.60	257.65
706.94	257.41
707.27	257.08
707.61	256.78
707.94	256.44
708.27	256.03
708.61	255.68
708.94	255.37
709.28	255.09
709.61	254.79
709.94	254.53
710.28	254.27
710.61	254.03
710.95	253.66
711.28	253.48
711.61	253.23
711.95	253.01
712.28	252.75
712.61	252.48
712.95	252.30
713.28	252.11
713.61	251.81
713.95	251.52
714.28	251.30
714.61	251.04
714.95	250.81
715.28	250.56
715.61	250.34
715.95	250.13
716.28	249.91
716.61	249.73
716.95	249.49
717.28	249.27
717.61	249.04
717.94	248.81
718.28	248.50
718.61	248.28
718.94	248.04
719.27	247.84
719.61	247.64
719.94	247.39
720.27	247.11
720.60	246.91
720.94	246.71
721.27	246.51
721.60	246.35
721.93	246.15
722.27	245.99
722.60	245.81
722.93	245.59
723.26	245.40
723.59	245.18
723.93	245.00
724.26	244.82
724.59	244.64
724.92	244.48
725.25	244.35
725.59	244.19
725.92	244.05
726.25	243.90
726.58	243.74
726.91	243.58
727.24	243.45
727.57	243.29
727.91	243.11
728.24	242.98
728.57	242.79
728.90	242.65
729.23	242.46
729.56	242.36
729.89	242.21
730.22	242.05
730.55	241.90
730.89	241.75
731.22	241.59
731.55	241.45
731.88	241.31
732.21	241.12
732.54	240.97
732.87	240.82
733.20	240.68
733.53	240.53
733.86	240.39
734.19	240.22
734.52	240.12
734.85	240.07
735.18	239.91
735.51	239.82
735.84	239.70
736.17	239.61
736.50	239.42
736.83	239.43
737.16	239.31
737.49	239.19
737.82	239.05
738.15	238.95
738.48	238.83
738.81	238.70
739.14	238.58
739.47	238.46
739.80	238.33
740.13	238.21
740.46	238.09
740.79	237.95
741.12	237.83
741.45	237.67
741.78	237.49
742.11	237.41
742.44	237.28
742.77	237.18
743.10	237.05
743.43	236.94
743.75	236.70
744.08	236.80
744.41	236.68
744.74	236.58
745.07	236.44
745.40	236.35
745.73	236.31
746.06	236.21
746.39	236.13
746.71	236.02
747.04	235.92
747.37	235.81
747.70	235.75
748.03	235.66
748.36	235.59
748.68	235.50
749.01	235.36
749.34	235.27
749.67	235.18
750.00	235.11
750.33	235.11
750.65	235.04
750.98	234.75
751.31	234.68
751.64	234.61
751.97	234.60
752.29	234.51
752.62	234.37
752.95	234.29
753.28	234.18
753.60	234.09
753.93	234.04
754.26	233.98
754.59	233.85
754.91	233.75
755.24	233.66
755.57	233.65
755.90	233.57
756.22	233.49
756.55	233.40
756.88	233.29
757.20	233.14
757.53	233.02
757.86	232.95
758.19	232.87
758.51	232.80
758.84	232.65
759.17	232.57
759.49	232.51
759.82	232.49
760.15	232.45
760.47	232.39
760.80	232.29
761.13	232.24
761.45	232.18
761.78	232.13
762.11	232.07
762.43	231.94
762.76	231.88
763.08	231.83
763.41	231.77
763.74	231.71
764.06	231.65
764.39	231.60
764.71	231.55
765.04	231.49
765.37	231.43
765.69	231.39
766.02	231.33
766.34	231.26
766.67	231.16
767.00	231.13
767.32	231.15
767.65	231.18
767.97	231.12
768.30	231.08
768.62	231.03
768.95	230.98
769.27	230.93
769.60	230.90
769.92	230.83
770.25	230.77
770.57	230.71
770.90	230.66
771.22	230.61
771.55	230.57
771.87	230.53
772.20	230.49
772.52	230.56
772.85	230.68
773.17	230.65
773.50	230.60
773.82	230.54
774.15	230.43
774.47	230.30
774.80	230.25
775.12	230.21
775.45	230.16
775.77	230.13
776.09	230.11
776.42	230.08
776.74	230.10
777.07	230.06
777.39	230.04
777.72	230.00
778.04	229.98
778.36	229.94
778.69	229.92
779.01	229.90
779.33	229.75
779.66	229.57
779.98	229.53
780.31	229.51
780.63	229.54
780.95	229.53
781.28	229.51
781.60	229.48
781.92	229.46
782.25	229.43
782.57	229.40
782.89	229.36
783.22	229.32
783.54	229.26
783.86	229.25
784.19	229.23
784.51	229.24
784.83	229.20
785.16	229.18
785.48	229.15
785.80	229.12
786.12	229.11
786.45	229.08
786.77	229.07
787.09	229.04
787.42	228.97
787.74	228.94
788.06	228.92
788.38	228.90
788.71	228.87
789.03	228.86
789.35	228.87
789.67	228.84
789.99	228.83
790.32	228.79
790.64	228.77
790.96	228.86
791.28	228.80
791.61	228.77
791.93	228.76
792.25	228.74
792.57	228.81
792.89	228.78
793.21	228.78
793.54	228.74
793.86	228.71
794.18	228.70
794.50	228.66
794.82	228.64
795.14	228.65
795.47	228.65
795.79	228.62
796.11	228.56
796.43	228.54
796.75	228.52
797.07	228.53
797.39	228.51
797.71	228.39
798.04	228.38
798.36	228.39
798.68	228.37
799.00	228.36
799.32	228.28
799.64	228.28
799.96	228.25
800.28	228.27
800.60	228.25
800.92	228.25
801.24	228.23
801.56	228.22
801.89	228.19
802.21	228.19
802.53	228.16
802.85	228.18
803.17	228.23
803.49	228.19
803.81	228.16
804.13	228.14
804.45	228.11
804.77	228.11
805.09	228.08
805.41	228.06
805.73	228.03
806.05	227.98
806.37	227.95
806.69	227.93
807.01	227.90
807.33	227.90
807.65	227.85
807.97	227.90
808.28	227.87
808.60	227.85
808.92	227.82
809.24	227.89
809.56	227.86
809.88	227.80
810.20	227.79
810.52	227.81
810.84	227.78
811.16	227.76
811.48	227.73
811.80	227.78
812.12	227.76
812.43	227.77
812.75	227.76
813.07	227.75
813.39	227.74
813.71	227.72
814.03	227.69
814.35	227.68
814.67	227.63
814.98	227.62
815.30	227.61
815.62	227.59
815.94	227.50
816.26	227.51
816.58	227.47
816.89	227.48
817.21	227.43
817.53	227.44
817.85	227.44
818.17	227.43
818.48	227.37
818.80	227.40
819.12	227.37
819.44	227.34
819.76	227.32
820.07	227.32
820.39	227.30
820.71	227.32
821.03	227.32
821.34	227.29
821.66	227.29
821.98	227.30
822.30	227.29
822.61	227.35
822.93	227.33
823.25	227.33
823.57	227.31
823.88	227.32
824.20	227.31
824.52	227.31
824.83	227.30
825.15	227.28
825.47	227.26
825.79	227.28
826.10	227.27
826.42	227.27
826.74	227.26
827.05	227.25
827.37	227.24
827.69	227.22
828.00	227.23
828.32	227.23
828.64	227.21
828.95	227.26
829.27	227.21
829.58	227.22
829.90	227.23
830.22	227.23
830.53	227.20
830.85	227.18
831.17	227.14
831.48	227.14
831.80	227.14
832.11	227.12
832.43	227.09
832.75	227.07
833.06	227.15
833.38	227.12
833.69	227.11
834.01	227.10
834.32	227.09
834.64	227.07
834.96	227.05
835.27	227.04
835.59	227.00
835.90	226.98
836.22	226.96
836.53	226.93
836.85	226.91
837.16	227.03
837.48	227.03
837.79	227.08
838.11	227.07
838.42	227.08
838.74	227.08
839.05	227.07
839.37	227.07
839.68	226.98
840.00	226.97
840.31	227.00
840.63	226.98
840.94	226.97
841.26	226.96
841.57	226.96
841.88	226.98
842.20	226.95
842.51	226.93
842.83	226.93
843.14	227.04
843.46	227.03
843.77	226.97
844.08	226.97
844.40	226.94
844.71	226.92
845.03	226.92
845.34	226.91
845.65	226.90
845.97	226.91
846.28	226.92
846.60	226.92
846.91	226.89
847.22	226.88
847.54	226.90
847.85	226.91
848.16	226.89
848.48	226.86
848.79	226.91
849.10	226.93
849.42	226.93
849.73	226.82
850.04	226.81
850.36	226.76
850.67	226.76
850.98	226.75
851.30	226.76
851.61	226.75
851.92	226.74
852.23	226.78
852.55	226.78
852.86	226.78
853.17	226.78
853.49	226.82
853.80	226.85
854.11	226.86
854.42	226.86
854.74	226.85
855.05	226.87
855.36	226.80
855.67	226.79
855.99	226.80
856.30	226.94
856.61	226.94
856.92	226.95
857.23	226.96
857.55	226.95
857.86	226.94
858.17	226.96
858.48	226.95
858.79	226.91
859.11	226.92
859.42	226.92
859.73	226.91
860.04	226.90
860.35	226.87
860.66	226.84
860.98	226.84
861.29	226.85
861.60	226.83
861.91	226.86
862.22	226.86
862.53	226.83
862.84	226.69
863.16	226.70
863.47	226.68
863.78	226.66
864.09	226.67
864.40	226.67
864.71	226.67
865.02	226.68
865.33	226.68
865.64	226.64
865.95	226.64
866.27	226.72
866.58	226.70
866.89	226.72
867.20	226.71
867.51	226.70
867.82	226.69
868.13	226.72
868.44	226.69
868.75	226.70
869.06	226.71
869.37	226.72
869.68	226.70
869.99	226.72
870.30	226.73
870.61	226.74
870.92	226.72
871.23	226.71
871.54	226.72
871.85	226.76
872.16	226.77
872.47	226.76
872.78	226.69
873.09	226.69
873.40	226.67
873.71	226.67
874.02	226.67
874.33	226.66
874.64	226.64
874.95	226.66
875.26	226.63
875.56	226.62
875.87	226.60
876.18	226.59
876.49	226.71
876.80	226.70
877.11	226.68
877.42	226.68
877.73	226.68
878.04	226.66
878.35	226.65
878.66	226.65
878.96	226.64
879.27	226.64
879.58	226.64
879.89	226.64
880.20	226.68
880.51	226.68
880.82	226.68
881.12	226.69
881.43	226.66
881.74	226.65
882.05	226.65
882.36	226.67
882.67	226.68
882.97	226.55
883.28	226.53
883.59	226.53
883.90	226.53
884.21	226.54
884.51	226.54
884.82	226.52
885.13	226.51
885.44	226.52
885.74	226.51
886.05	226.49
886.36	226.48
886.67	226.43
886.98	226.50
887.28	226.51
887.59	226.51
887.90	226.50
888.20	226.49
888.51	226.52
888.82	226.50
889.13	226.50
889.43	226.62
889.74	226.61
890.05	226.61
890.35	226.60
890.66	226.58
890.97	226.56
891.28	226.55
891.58	226.55
891.89	226.55
892.20	226.54
892.50	226.53
892.81	226.52
893.12	226.52
893.42	226.46
893.73	226.46
894.04	226.46
894.34	226.49
894.65	226.48
894.95	226.47
895.26	226.47
895.57	226.53
895.87	226.40
896.18	226.42
896.48	226.42
896.79	226.42
897.10	226.44
897.40	226.45
897.71	226.47
898.01	226.45
898.32	226.47
898.63	226.47
898.93	226.48
899.24	226.49
899.54	226.49
899.85	226.49
900.15	226.48
900.46	226.48
900.76	226.49
901.07	226.50
901.38	226.49
901.68	226.51
901.99	226.45
902.29	226.46
902.60	226.46
902.90	226.46
903.21	226.46
903.51	226.45
903.82	226.47
904.12	226.47
904.43	226.48
904.73	226.47
905.03	226.47
905.34	226.58
905.64	226.57
905.95	226.57
906.25	226.56
906.56	226.56
906.86	226.56
907.17	226.53
907.47	226.53
907.77	226.52
908.08	226.48
908.38	226.48
908.69	226.49
908.99	226.50
909.30	226.51
909.60	226.51
909.90	226.52
910.21	226.48
910.51	226.47
910.81	226.48
911.12	226.49
911.42	226.49
911.73	226.37
912.03	226.38
912.33	226.41
912.64	226.40
912.94	226.38
913.24	226.36
913.55	226.36
913.85	226.35
914.15	226.39
914.46	226.41
914.76	226.40
915.06	226.38
915.37	226.36
915.67	226.34
915.97	226.36
916.27	226.32
916.58	226.34
916.88	226.34
917.18	226.33
917.49	226.40
917.79	226.39
918.09	226.41
918.39	226.44
918.70	226.42
919.00	226.43
919.30	226.50
919.60	226.49
919.91	226.48
920.21	226.49
920.51	226.46
920.81	226.45
921.12	226.47
921.42	226.47
921.72	226.47
922.02	226.48
922.32	226.48
922.63	226.49
922.93	226.55
923.23	226.55
923.53	226.53
923.83	226.46
924.13	226.47
924.44	226.47
924.74	226.48
925.04	226.51
925.34	226.50
925.64	226.45
925.94	226.45
926.24	226.52
926.55	226.51
926.85	226.52
927.15	226.52
927.45	226.52
927.75	226.51
928.05	226.51
928.35	226.51
928.65	226.52
928.95	226.53
929.26	226.46
929.56	226.50
929.86	226.52
930.16	226.51
930.46	226.50
930.76	226.51
931.06	226.45
931.36	226.43
931.66	226.45
931.96	226.45
932.26	226.46
932.56	226.40
932.86	226.42
933.16	226.42
933.46	226.41
933.76	226.40
934.06	226.43
934.36	226.47
934.66	226.46
934.96	226.44
935.26	226.46
935.56	226.48
935.86	226.44
936.16	226.41
936.46	226.41
936.76	226.40
937.06	226.38
937.36	226.39
937.66	226.40
937.96	226.39
938.26	226.37
938.56	226.36
938.86	226.38
939.16	226.40
939.46	226.41
939.76	226.42
940.06	226.42
940.35	226.39
940.65	226.33
940.95	226.35
941.25	226.31
941.55	226.28
941.85	226.27
942.15	226.30
942.45	226.35
942.75	226.35
943.04	226.36
943.34	226.37
943.64	226.35
943.94	226.32
944.24	226.32
944.54	226.34
944.84	226.32
945.13	226.30
945.43	226.28
945.73	226.27
946.03	226.26
946.33	226.24
946.62	226.23
946.92	226.23
947.22	226.24
947.52	226.25
947.82	226.27
948.11	226.27
948.41	226.23
948.71	226.19
949.01	226.19
949.31	226.17
949.60	226.17
949.90	226.19
950.20	226.20
950.50	226.19
950.79	226.17
951.09	226.20
951.39	226.19
951.69	226.17
951.98	226.20
952.28	226.20
952.58	226.20
952.87	226.21
953.17	226.22
953.47	226.19
953.76	226.20
954.06	226.17
954.36	226.15
954.66	226.15
954.95	226.19
955.25	226.19
955.55	226.20
955.84	226.18
956.14	226.19
956.44	226.20
956.73	226.18
957.03	226.19
957.32	226.19
957.62	226.19
957.92	226.22
958.21	226.20
958.51	226.35
958.81	226.37
959.10	226.37
959.40	226.39
959.69	226.41
959.99	226.43
960.29	226.43
960.58	226.43
960.88	226.47
961.17	226.46
961.47	226.46
961.76	226.45
962.06	226.47
962.36	226.45
962.65	226.45
962.95	226.45
963.24	226.44
963.54	226.44
963.83	226.45
964.13	226.45
964.42	226.44
964.72	226.33
965.01	226.33
965.31	226.34
965.60	226.32
965.90	226.39
966.19	226.36
966.49	226.38
966.78	226.36
967.08	226.36
967.37	226.35
967.67	226.34
967.96	226.36
968.26	226.36
968.55	226.37
968.85	226.37
969.14	226.36
969.43	226.37
969.73	226.35
970.02	226.35
970.32	226.33
970.61	226.31
970.91	226.28
971.20	226.26
971.49	226.23
971.79	226.24
972.08	226.16
972.38	226.17
972.67	226.16
972.96	226.18
973.26	226.16
973.55	226.21
973.85	226.21
974.14	226.20
974.43	226.21
974.73	226.18
975.02	226.18
975.31	226.18
975.61	226.18
975.90	226.17
976.19	226.16
976.49	226.18
976.78	226.19
977.07	226.18
977.37	226.19
977.66	226.21
977.95	226.19
978.24	226.20
978.54	226.22
978.83	226.21
979.12	226.21
979.42	226.21
979.71	226.17
980.00	226.16
980.29	226.18
980.59	226.16
980.88	226.19
981.17	226.18
981.46	226.19
981.76	226.19
982.05	226.23
982.34	226.24
982.63	226.25
982.93	226.25
983.22	226.29
983.51	226.31
983.80	226.32
984.09	226.34
984.39	226.32
984.68	226.32
984.97	226.32
985.26	226.31
985.55	226.32
985.85	226.30
986.14	226.32
986.43	226.32
986.72	226.32
987.01	226.28
987.30	226.28
987.59	226.27
987.89	226.27
988.18	226.24
988.47	226.22
988.76	226.21
989.05	226.20
989.34	226.18
989.63	226.20
989.92	226.18
990.22	226.16
990.51	226.16
990.80	226.15
991.09	226.16
991.38	226.18
991.67	226.16
991.96	226.15
992.25	226.16
992.54	226.13
992.83	226.14
993.12	226.14
993.41	226.16
993.70	226.21
993.99	226.23
994.28	226.24
994.58	226.26
994.87	226.24
995.16	226.24
995.45	226.23
995.74	226.18
996.03	226.20
996.32	226.22
996.61	226.25
996.90	226.24
997.19	226.24
997.48	226.24
997.77	226.24
998.06	226.23
998.34	226.22
998.63	226.23
998.92	226.22
999.21	226.23
999.50	226.24
999.79	226.20
1000.08	226.18
1000.37	226.19
1000.66	226.17
1000.95	226.21
1001.24	226.21
1001.53	226.23
1001.82	226.22
1002.11	226.19
1002.40	226.20
1002.68	226.22
1002.97	226.31
1003.26	226.30
1003.55	226.27
1003.84	226.28
1004.13	226.33
1004.42	226.32
1004.71	226.33
1004.99	226.32
1005.28	226.35
1005.57	226.34
1005.86	226.32
1006.15	226.32
1006.44	226.30
1006.72	226.32
1007.01	226.30
1007.30	226.29
1007.59	226.28
1007.88	226.29
1008.17	226.29
1008.45	226.26
1008.74	226.21
1009.03	226.15
1009.32	226.16
1009.60	226.17
1009.89	226.16
1010.18	226.11
1010.47	226.10
1010.76	226.09
1011.04	226.10
1011.33	226.10
1011.62	226.12
1011.91	226.12
1012.19	226.14
1012.48	226.14
1012.77	226.13
1013.05	226.17
1013.34	226.16
1013.63	226.15
1013.92	226.16
1014.20	226.16
1014.49	226.17
1014.78	226.19
1015.06	226.13
1015.35	226.12
1015.64	226.12
1015.92	226.15
1016.21	226.15
1016.50	226.16
1016.78	226.17
1017.07	226.18
1017.36	226.16
1017.64	226.14
1017.93	226.15
1018.22	226.14
1018.50	226.12
1018.79	226.13
1019.08	226.09
1019.36	226.11
1019.65	226.11
1019.93	226.14
1020.22	226.16
1020.51	226.22
1020.79	226.20
1021.08	225.93
1021.36	225.69
1021.65	226.34
1021.94	226.24
1022.22	226.38
1022.51	225.97
1022.79	226.80
1023.08	226.28
1023.36	227.60
1023.65	225.81
>>>>>End Processed Spectral Data<<<<<
