SpectraSuite Data File
++++++++++++++++++++++++++++++++++++
Date: Fri Oct 02 16:00:38 EDT 2015
User: lab3
Dark Spectrum Present: No
Reference Spectrum Present: No
Number of Sampled Component Spectra: 1
Spectrometers: USB2E7196
Integration Time (usec): 46000 (USB2E7196)
Spectra Averaged: 1200 (USB2E7196)
Boxcar Smoothing: 10 (USB2E7196)
Correct for Electrical Dark: No (USB2E7196)
Strobe/Lamp Enabled: No (USB2E7196)
Correct for Detector Non-linearity: No (USB2E7196)
Correct for Stray Light: No (USB2E7196)
Number of Pixels in Processed Spectrum: 2048
>>>>>Begin Processed Spectral Data<<<<<
339.09	0.00
339.48	214.44
339.86	215.94
340.24	217.30
340.63	218.78
341.01	222.12
341.39	221.33
341.78	222.77
342.16	224.06
342.54	224.35
342.93	212.90
343.31	223.65
343.69	224.19
344.07	224.64
344.46	225.07
344.84	225.46
345.22	225.68
345.60	225.94
345.99	226.14
346.37	226.28
346.75	226.39
347.13	226.47
347.52	226.54
347.90	226.62
348.28	226.65
348.66	226.71
349.05	226.71
349.43	226.75
349.81	226.81
350.19	226.86
350.57	226.93
350.96	227.00
351.34	227.10
351.72	227.19
352.10	227.31
352.48	227.38
352.87	227.43
353.25	227.50
353.63	227.56
354.01	227.62
354.39	227.69
354.77	227.78
355.15	227.88
355.54	227.93
355.92	227.96
356.30	228.05
356.68	228.20
357.06	228.28
357.44	228.33
357.82	228.39
358.20	228.50
358.58	228.56
358.97	228.62
359.35	228.71
359.73	228.79
360.11	228.85
360.49	228.91
360.87	228.96
361.25	229.02
361.63	229.11
362.01	229.17
362.39	229.21
362.77	229.25
363.15	229.28
363.53	229.31
363.91	229.35
364.29	229.36
364.67	229.27
365.05	229.29
365.43	229.33
365.81	229.37
366.19	229.39
366.57	229.46
366.95	229.46
367.33	229.43
367.71	229.42
368.09	229.44
368.47	229.44
368.85	229.43
369.23	229.43
369.61	229.37
369.99	229.37
370.37	229.37
370.75	229.43
371.13	229.39
371.51	229.35
371.89	229.33
372.27	229.32
372.65	229.29
373.03	229.25
373.41	229.20
373.78	229.15
374.16	229.04
374.54	228.95
374.92	228.90
375.30	228.85
375.68	228.79
376.06	228.74
376.44	228.68
376.82	228.65
377.19	228.61
377.57	228.55
377.95	228.45
378.33	228.40
378.71	228.23
379.09	228.17
379.47	228.14
379.84	228.08
380.22	228.01
380.60	227.94
380.98	227.89
381.36	227.84
381.73	227.77
382.11	227.75
382.49	227.71
382.87	227.65
383.25	227.61
383.62	227.71
384.00	227.64
384.38	227.60
384.76	227.58
385.13	227.58
385.51	227.55
385.89	227.50
386.27	227.46
386.64	227.45
387.02	227.41
387.40	227.37
387.78	227.34
388.15	227.32
388.53	227.28
388.91	227.25
389.29	227.20
389.66	227.20
390.04	227.15
390.42	227.16
390.79	227.13
391.17	227.11
391.55	226.95
391.92	226.94
392.30	226.93
392.68	226.89
393.05	226.86
393.43	226.86
393.81	226.87
394.18	226.84
394.56	226.84
394.94	226.87
395.31	226.88
395.69	226.93
396.06	226.95
396.44	226.98
396.82	226.99
397.19	227.08
397.57	227.08
397.95	227.14
398.32	227.12
398.70	227.17
399.07	227.24
399.45	227.28
399.82	227.33
400.20	227.37
400.58	227.44
400.95	227.44
401.33	227.53
401.70	227.68
402.08	227.78
402.45	227.87
402.83	227.98
403.20	228.08
403.58	228.16
403.95	228.30
404.33	228.45
404.71	228.59
405.08	228.80
405.46	228.97
405.83	229.15
406.21	229.35
406.58	229.56
406.96	229.78
407.33	230.02
407.70	230.30
408.08	230.67
408.45	231.00
408.83	231.36
409.20	231.68
409.58	231.97
409.95	232.38
410.33	232.82
410.70	233.23
411.08	233.72
411.45	234.25
411.82	234.76
412.20	235.35
412.57	236.07
412.95	236.62
413.32	237.36
413.69	238.11
414.07	238.90
414.44	239.77
414.82	240.66
415.19	241.70
415.56	242.75
415.94	243.83
416.31	245.05
416.68	246.26
417.06	247.69
417.43	249.03
417.81	250.56
418.18	252.12
418.55	253.83
418.93	255.60
419.30	257.44
419.67	259.43
420.04	261.45
420.42	263.55
420.79	265.99
421.16	268.45
421.54	270.94
421.91	273.55
422.28	276.26
422.66	279.18
423.03	281.97
423.40	284.90
423.77	288.04
424.15	291.25
424.52	294.61
424.89	298.24
425.26	301.83
425.64	305.20
426.01	308.95
426.38	312.79
426.75	316.78
427.13	320.86
427.50	325.12
427.87	329.56
428.24	334.05
428.61	338.35
428.99	343.01
429.36	348.14
429.73	353.04
430.10	357.93
430.47	362.95
430.85	368.11
431.22	373.66
431.59	379.35
431.96	384.93
432.33	391.11
432.70	397.02
433.08	403.99
433.45	410.55
433.82	417.06
434.19	424.33
434.56	431.49
434.93	438.40
435.30	445.23
435.68	452.97
436.05	460.56
436.42	468.11
436.79	475.00
437.16	482.43
437.53	490.38
437.90	498.37
438.27	506.17
438.64	514.59
439.01	522.21
439.38	529.20
439.75	535.91
440.13	543.48
440.50	550.66
440.87	556.38
441.24	562.64
441.61	569.43
441.98	574.34
442.35	580.16
442.72	586.10
443.09	591.77
443.46	595.31
443.83	597.86
444.20	599.95
444.57	603.13
444.94	604.87
445.31	606.66
445.68	608.14
446.05	609.11
446.42	608.50
446.79	607.71
447.16	606.96
447.53	606.26
447.90	603.57
448.27	600.99
448.64	597.22
449.01	594.50
449.37	589.38
449.74	584.75
450.11	578.86
450.48	572.46
450.85	566.03
451.22	560.51
451.59	555.15
451.96	550.30
452.33	543.34
452.70	537.16
453.07	529.68
453.43	522.23
453.80	515.03
454.17	508.13
454.54	501.80
454.91	494.69
455.28	488.03
455.65	481.76
456.02	475.14
456.38	469.81
456.75	462.97
457.12	457.49
457.49	451.96
457.86	446.75
458.23	442.21
458.59	437.18
458.96	432.05
459.33	427.51
459.70	422.90
460.07	419.41
460.43	415.32
460.80	411.48
461.17	408.15
461.54	404.56
461.91	401.21
462.27	397.79
462.64	395.05
463.01	391.87
463.38	388.67
463.74	385.79
464.11	383.26
464.48	380.97
464.85	378.51
465.21	376.65
465.58	374.57
465.95	372.16
466.32	370.27
466.68	368.38
467.05	366.50
467.42	364.66
467.78	362.66
468.15	360.83
468.52	359.52
468.88	357.70
469.25	356.05
469.62	354.77
469.98	353.36
470.35	352.08
470.72	350.94
471.08	349.77
471.45	348.79
471.82	347.71
472.18	346.57
472.55	345.82
472.92	344.88
473.28	344.15
473.65	343.36
474.02	342.61
474.38	342.00
474.75	341.65
475.11	341.13
475.48	340.91
475.85	340.67
476.21	340.54
476.58	340.46
476.94	340.61
477.31	340.69
477.67	340.79
478.04	341.01
478.41	341.33
478.77	341.77
479.14	342.05
479.50	342.57
479.87	343.26
480.23	343.94
480.60	344.61
480.96	345.28
481.33	346.25
481.69	347.23
482.06	348.22
482.42	349.12
482.79	350.26
483.15	351.56
483.52	353.03
483.88	354.45
484.25	355.96
484.61	357.54
484.98	359.23
485.34	361.15
485.71	363.15
486.07	365.30
486.44	367.45
486.80	369.83
487.17	372.32
487.53	375.02
487.90	377.85
488.26	380.97
488.62	384.23
488.99	387.50
489.35	390.96
489.72	394.69
490.08	398.60
490.44	402.65
490.81	406.86
491.17	411.18
491.54	415.80
491.90	420.61
492.26	425.74
492.63	431.11
492.99	436.71
493.36	442.49
493.72	448.58
494.08	454.84
494.45	461.47
494.81	468.34
495.17	475.39
495.54	482.83
495.90	490.58
496.26	498.53
496.63	506.72
496.99	515.20
497.35	524.08
497.72	533.28
498.08	542.67
498.44	552.39
498.80	562.64
499.17	573.21
499.53	584.10
499.89	595.34
500.26	606.78
500.62	618.47
500.98	630.84
501.34	643.35
501.71	656.38
502.07	669.56
502.43	683.29
502.79	697.30
503.16	711.74
503.52	726.38
503.88	741.44
504.24	756.95
504.60	772.66
504.97	788.82
505.33	805.34
505.69	822.79
506.05	840.52
506.41	858.23
506.78	876.07
507.14	894.39
507.50	913.17
507.86	932.28
508.22	951.65
508.59	970.85
508.95	990.91
509.31	1011.66
509.67	1033.09
510.03	1054.49
510.39	1075.85
510.75	1097.48
511.12	1119.34
511.48	1141.35
511.84	1163.41
512.20	1185.85
512.56	1209.08
512.92	1232.34
513.28	1255.17
513.64	1278.16
514.00	1301.55
514.37	1325.28
514.73	1349.08
515.09	1372.70
515.45	1396.64
515.81	1420.74
516.17	1444.82
516.53	1468.40
516.89	1491.90
517.25	1515.62
517.61	1539.20
517.97	1563.19
518.33	1586.48
518.69	1609.74
519.05	1633.52
519.41	1657.43
519.77	1681.51
520.13	1704.92
520.49	1728.24
520.85	1751.83
521.21	1775.13
521.57	1798.85
521.93	1821.99
522.29	1845.47
522.65	1868.45
523.01	1891.33
523.37	1913.82
523.73	1937.11
524.09	1959.97
524.45	1982.64
524.81	2004.76
525.17	2026.66
525.53	2048.11
525.89	2070.11
526.25	2092.09
526.61	2113.04
526.97	2134.04
527.33	2154.88
527.68	2175.44
528.04	2195.26
528.40	2214.03
528.76	2232.98
529.12	2251.23
529.48	2269.38
529.84	2285.70
530.20	2302.68
530.56	2319.08
530.91	2335.53
531.27	2351.57
531.63	2366.78
531.99	2381.54
532.35	2395.75
532.71	2410.06
533.07	2424.72
533.42	2437.51
533.78	2451.32
534.14	2465.39
534.50	2478.46
534.86	2491.43
535.21	2502.47
535.57	2514.08
535.93	2525.54
536.29	2535.78
536.65	2546.00
537.00	2555.40
537.36	2565.82
537.72	2574.78
538.08	2583.14
538.44	2591.01
538.79	2598.45
539.15	2605.19
539.51	2611.46
539.87	2617.01
540.22	2620.84
540.58	2624.74
540.94	2630.04
541.29	2633.58
541.65	2635.31
542.01	2636.62
542.37	2637.18
542.72	2638.92
543.08	2639.15
543.44	2639.92
543.79	2639.73
544.15	2638.72
544.51	2637.93
544.87	2636.00
545.22	2633.33
545.58	2630.11
545.94	2626.78
546.29	2622.27
546.65	2617.87
547.01	2613.35
547.36	2609.55
547.72	2605.55
548.07	2600.32
548.43	2593.62
548.79	2586.06
549.14	2579.64
549.50	2573.49
549.86	2566.32
550.21	2558.38
550.57	2550.96
550.92	2541.47
551.28	2532.69
551.64	2524.11
551.99	2515.21
552.35	2505.79
552.70	2496.71
553.06	2488.16
553.41	2479.02
553.77	2469.58
554.13	2459.78
554.48	2449.46
554.84	2437.97
555.19	2427.18
555.55	2416.18
555.90	2405.14
556.26	2394.59
556.61	2383.14
556.97	2370.28
557.32	2358.06
557.68	2345.43
558.03	2332.83
558.39	2321.33
558.74	2309.94
559.10	2297.13
559.45	2284.47
559.81	2272.40
560.16	2259.87
560.52	2247.32
560.87	2235.00
561.23	2222.00
561.58	2209.42
561.94	2196.34
562.29	2182.88
562.64	2169.92
563.00	2156.69
563.35	2144.07
563.71	2131.18
564.06	2118.24
564.42	2105.76
564.77	2092.83
565.12	2080.04
565.48	2067.22
565.83	2054.39
566.19	2041.72
566.54	2028.82
566.89	2015.14
567.25	2001.59
567.60	1989.07
567.96	1975.96
568.31	1961.54
568.66	1947.89
569.02	1935.23
569.37	1922.49
569.72	1910.27
570.08	1896.86
570.43	1883.16
570.78	1869.09
571.14	1854.68
571.49	1840.85
571.84	1827.61
572.20	1813.25
572.55	1799.14
572.90	1784.82
573.26	1770.49
573.61	1755.67
573.96	1741.43
574.31	1727.21
574.67	1713.09
575.02	1698.18
575.37	1683.10
575.72	1669.08
576.08	1655.34
576.43	1640.57
576.78	1626.30
577.13	1612.24
577.49	1598.74
577.84	1585.73
578.19	1571.91
578.54	1558.22
578.90	1544.10
579.25	1529.89
579.60	1517.05
579.95	1504.13
580.30	1491.00
580.66	1477.66
581.01	1464.31
581.36	1450.99
581.71	1438.70
582.06	1426.14
582.42	1413.78
582.77	1401.68
583.12	1389.46
583.47	1377.08
583.82	1364.87
584.17	1352.32
584.53	1339.42
584.88	1326.77
585.23	1313.85
585.58	1301.76
585.93	1289.85
586.28	1278.52
586.63	1267.17
586.98	1255.44
587.34	1243.76
587.69	1232.01
588.04	1220.58
588.39	1209.57
588.74	1198.63
589.09	1187.46
589.44	1175.97
589.79	1165.02
590.14	1154.18
590.49	1143.28
590.84	1132.50
591.19	1121.98
591.54	1111.36
591.89	1100.93
592.25	1090.70
592.60	1080.16
592.95	1069.87
593.30	1059.81
593.65	1049.60
594.00	1039.42
594.35	1029.86
594.70	1019.91
595.05	1010.71
595.40	1001.48
595.75	992.05
596.10	983.04
596.45	973.86
596.80	964.97
597.15	955.98
597.50	947.03
597.85	938.52
598.19	929.85
598.54	921.26
598.89	912.99
599.24	905.01
599.59	896.93
599.94	889.66
600.29	882.22
600.64	874.47
600.99	866.42
601.34	858.76
601.69	850.73
602.04	843.32
602.39	835.80
602.74	828.27
603.08	820.77
603.43	813.26
603.78	805.86
604.13	798.68
604.48	791.38
604.83	784.34
605.18	777.09
605.53	770.12
605.87	763.03
606.22	756.27
606.57	749.41
606.92	742.41
607.27	735.41
607.62	728.75
607.96	722.43
608.31	716.44
608.66	710.31
609.01	704.41
609.36	698.68
609.70	692.68
610.05	686.68
610.40	680.93
610.75	675.19
611.10	669.74
611.44	664.15
611.79	658.70
612.14	653.14
612.49	647.72
612.83	642.49
613.18	637.37
613.53	632.14
613.88	626.99
614.22	622.25
614.57	617.40
614.92	612.34
615.27	607.43
615.61	602.57
615.96	597.79
616.31	593.03
616.65	588.32
617.00	583.79
617.35	579.35
617.70	574.97
618.04	570.67
618.39	566.32
618.74	562.15
619.08	558.02
619.43	554.00
619.78	550.00
620.12	545.98
620.47	542.10
620.82	538.30
621.16	534.53
621.51	530.66
621.85	526.86
622.20	523.26
622.55	519.66
622.89	516.10
623.24	512.55
623.59	509.03
623.93	505.59
624.28	502.26
624.62	499.07
624.97	495.87
625.32	492.63
625.66	489.34
626.01	486.06
626.35	482.84
626.70	479.62
627.04	476.63
627.39	473.55
627.73	470.61
628.08	467.74
628.43	464.86
628.77	462.08
629.12	459.40
629.46	456.69
629.81	453.96
630.15	451.24
630.50	448.59
630.84	445.98
631.19	443.47
631.53	441.03
631.88	438.52
632.22	436.04
632.57	433.85
632.91	431.67
633.26	429.53
633.60	427.43
633.95	425.43
634.29	423.29
634.64	421.24
634.98	419.01
635.32	416.95
635.67	415.03
636.01	413.00
636.36	411.04
636.70	409.21
637.05	407.36
637.39	405.56
637.73	403.81
638.08	402.13
638.42	400.40
638.77	398.57
639.11	396.71
639.45	394.93
639.80	393.09
640.14	391.33
640.49	389.57
640.83	387.76
641.17	386.02
641.52	384.32
641.86	382.64
642.20	381.16
642.55	379.52
642.89	377.92
643.23	376.39
643.58	375.01
643.92	373.49
644.26	372.03
644.61	370.60
644.95	369.14
645.29	367.62
645.64	366.13
645.98	364.72
646.32	363.41
646.66	362.05
647.01	360.71
647.35	359.44
647.69	358.16
648.04	357.01
648.38	355.76
648.72	354.55
649.06	353.34
649.41	352.12
649.75	350.95
650.09	349.79
650.43	348.65
650.78	347.43
651.12	346.27
651.46	345.16
651.80	344.07
652.14	343.00
652.49	341.99
652.83	340.95
653.17	339.93
653.51	338.96
653.85	338.06
654.20	337.10
654.54	336.05
654.88	335.09
655.22	334.13
655.56	333.16
655.90	332.23
656.25	331.36
656.59	330.46
656.93	329.61
657.27	328.77
657.61	327.87
657.95	327.04
658.29	326.18
658.64	325.37
658.98	324.54
659.32	323.72
659.66	322.93
660.00	322.18
660.34	321.42
660.68	320.63
661.02	319.81
661.36	319.01
661.70	318.26
662.05	317.52
662.39	316.78
662.73	316.13
663.07	315.49
663.41	314.80
663.75	314.09
664.09	313.39
664.43	312.64
664.77	311.98
665.11	311.26
665.45	310.63
665.79	309.99
666.13	309.32
666.47	308.63
666.81	307.93
667.15	307.19
667.49	306.56
667.83	305.97
668.17	305.34
668.51	304.75
668.85	304.21
669.19	303.69
669.53	303.08
669.87	302.43
670.21	301.81
670.55	301.21
670.89	300.70
671.23	300.14
671.57	299.61
671.91	299.10
672.25	298.63
672.58	298.16
672.92	297.59
673.26	297.12
673.60	296.64
673.94	296.19
674.28	295.77
674.62	295.30
674.96	294.78
675.30	294.33
675.64	293.84
675.97	293.32
676.31	292.79
676.65	292.30
676.99	291.88
677.33	291.39
677.67	290.94
678.01	290.40
678.34	289.95
678.68	289.51
679.02	289.02
679.36	288.54
679.70	288.03
680.04	287.59
680.37	287.13
680.71	286.70
681.05	286.28
681.39	285.80
681.73	285.31
682.06	284.85
682.40	284.39
682.74	283.99
683.08	283.63
683.42	283.20
683.75	282.82
684.09	282.36
684.43	281.95
684.77	281.51
685.10	281.13
685.44	280.73
685.78	280.33
686.12	279.95
686.45	279.53
686.79	279.12
687.13	278.73
687.46	278.30
687.80	277.91
688.14	277.45
688.48	277.05
688.81	276.66
689.15	276.30
689.49	275.90
689.82	275.48
690.16	275.02
690.50	274.64
690.83	274.23
691.17	273.82
691.51	273.45
691.84	273.10
692.18	272.69
692.52	272.28
692.85	271.88
693.19	271.54
693.52	271.16
693.86	270.79
694.20	270.41
694.53	270.05
694.87	269.65
695.21	269.27
695.54	268.91
695.88	268.53
696.21	268.13
696.55	267.77
696.88	267.42
697.22	267.06
697.56	266.69
697.89	266.30
698.23	265.95
698.56	265.54
698.90	265.17
699.23	264.80
699.57	264.43
699.90	264.06
700.24	263.66
700.58	263.34
700.91	263.05
701.25	262.82
701.58	262.54
701.92	262.26
702.25	261.95
702.59	261.62
702.92	261.30
703.26	260.97
703.59	260.63
703.93	260.40
704.26	260.09
704.60	259.77
704.93	259.44
705.26	259.12
705.60	258.87
705.93	258.54
706.27	258.29
706.60	258.04
706.94	257.80
707.27	257.46
707.61	257.15
707.94	256.81
708.27	256.39
708.61	256.03
708.94	255.70
709.28	255.40
709.61	255.09
709.94	254.83
710.28	254.57
710.61	254.33
710.95	253.95
711.28	253.78
711.61	253.51
711.95	253.28
712.28	253.01
712.61	252.72
712.95	252.54
713.28	252.33
713.61	252.03
713.95	251.73
714.28	251.51
714.61	251.24
714.95	250.99
715.28	250.76
715.61	250.54
715.95	250.32
716.28	250.09
716.61	249.90
716.95	249.65
717.28	249.41
717.61	249.17
717.94	248.95
718.28	248.63
718.61	248.40
718.94	248.16
719.27	247.95
719.61	247.76
719.94	247.51
720.27	247.24
720.60	247.03
720.94	246.83
721.27	246.64
721.60	246.46
721.93	246.26
722.27	246.11
722.60	245.93
722.93	245.72
723.26	245.53
723.59	245.32
723.93	245.14
724.26	244.96
724.59	244.77
724.92	244.61
725.25	244.49
725.59	244.32
725.92	244.16
726.25	244.00
726.58	243.84
726.91	243.65
727.24	243.50
727.57	243.35
727.91	243.17
728.24	243.03
728.57	242.86
728.90	242.71
729.23	242.51
729.56	242.41
729.89	242.24
730.22	242.08
730.55	241.92
730.89	241.77
731.22	241.62
731.55	241.48
731.88	241.32
732.21	241.13
732.54	240.97
732.87	240.84
733.20	240.70
733.53	240.55
733.86	240.42
734.19	240.27
734.52	240.15
734.85	240.11
735.18	239.95
735.51	239.85
735.84	239.72
736.17	239.63
736.50	239.44
736.83	239.47
737.16	239.36
737.49	239.25
737.82	239.12
738.15	239.02
738.48	238.90
738.81	238.78
739.14	238.65
739.47	238.54
739.80	238.41
740.13	238.31
740.46	238.18
740.79	238.05
741.12	237.93
741.45	237.78
741.78	237.60
742.11	237.52
742.44	237.37
742.77	237.27
743.10	237.15
743.43	237.04
743.75	236.80
744.08	236.87
744.41	236.76
744.74	236.64
745.07	236.51
745.40	236.44
745.73	236.39
746.06	236.30
746.39	236.21
746.71	236.11
747.04	235.99
747.37	235.90
747.70	235.82
748.03	235.75
748.36	235.68
748.68	235.58
749.01	235.46
749.34	235.38
749.67	235.29
750.00	235.22
750.33	235.22
750.65	235.14
750.98	234.88
751.31	234.79
751.64	234.72
751.97	234.70
752.29	234.60
752.62	234.45
752.95	234.37
753.28	234.26
753.60	234.17
753.93	234.12
754.26	234.05
754.59	233.93
754.91	233.83
755.24	233.74
755.57	233.73
755.90	233.64
756.22	233.54
756.55	233.44
756.88	233.33
757.20	233.17
757.53	233.05
757.86	232.97
758.19	232.90
758.51	232.82
758.84	232.68
759.17	232.59
759.49	232.54
759.82	232.53
760.15	232.48
760.47	232.42
760.80	232.32
761.13	232.27
761.45	232.20
761.78	232.14
762.11	232.09
762.43	231.96
762.76	231.91
763.08	231.87
763.41	231.82
763.74	231.78
764.06	231.72
764.39	231.66
764.71	231.62
765.04	231.55
765.37	231.49
765.69	231.45
766.02	231.40
766.34	231.33
766.67	231.22
767.00	231.19
767.32	231.20
767.65	231.21
767.97	231.14
768.30	231.10
768.62	231.05
768.95	230.98
769.27	230.94
769.60	230.90
769.92	230.84
770.25	230.77
770.57	230.69
770.90	230.64
771.22	230.60
771.55	230.55
771.87	230.51
772.20	230.46
772.52	230.52
772.85	230.64
773.17	230.61
773.50	230.56
773.82	230.49
774.15	230.39
774.47	230.29
774.80	230.25
775.12	230.21
775.45	230.18
775.77	230.15
776.09	230.12
776.42	230.09
776.74	230.09
777.07	230.05
777.39	230.04
777.72	230.00
778.04	229.98
778.36	229.95
778.69	229.92
779.01	229.90
779.33	229.76
779.66	229.58
779.98	229.55
780.31	229.53
780.63	229.56
780.95	229.56
781.28	229.53
781.60	229.50
781.92	229.48
782.25	229.45
782.57	229.42
782.89	229.40
783.22	229.36
783.54	229.30
783.86	229.29
784.19	229.26
784.51	229.27
784.83	229.23
785.16	229.21
785.48	229.17
785.80	229.15
786.12	229.14
786.45	229.12
786.77	229.11
787.09	229.08
787.42	229.01
787.74	228.98
788.06	228.98
788.38	228.96
788.71	228.92
789.03	228.90
789.35	228.90
789.67	228.85
789.99	228.85
790.32	228.81
790.64	228.81
790.96	228.90
791.28	228.84
791.61	228.82
791.93	228.81
792.25	228.79
792.57	228.86
792.89	228.82
793.21	228.81
793.54	228.77
793.86	228.74
794.18	228.73
794.50	228.69
794.82	228.66
795.14	228.66
795.47	228.66
795.79	228.65
796.11	228.60
796.43	228.58
796.75	228.57
797.07	228.57
797.39	228.54
797.71	228.40
798.04	228.40
798.36	228.39
798.68	228.36
799.00	228.35
799.32	228.27
799.64	228.30
799.96	228.28
800.28	228.30
800.60	228.29
800.92	228.27
801.24	228.25
801.56	228.25
801.89	228.22
802.21	228.21
802.53	228.17
802.85	228.19
803.17	228.24
803.49	228.19
803.81	228.16
804.13	228.14
804.45	228.13
804.77	228.12
805.09	228.11
805.41	228.09
805.73	228.07
806.05	228.02
806.37	228.00
806.69	227.96
807.01	227.94
807.33	227.93
807.65	227.88
807.97	227.93
808.28	227.92
808.60	227.91
808.92	227.88
809.24	227.96
809.56	227.92
809.88	227.87
810.20	227.87
810.52	227.90
810.84	227.87
811.16	227.85
811.48	227.84
811.80	227.87
812.12	227.85
812.43	227.85
812.75	227.84
813.07	227.81
813.39	227.81
813.71	227.79
814.03	227.77
814.35	227.77
814.67	227.71
814.98	227.68
815.30	227.67
815.62	227.65
815.94	227.55
816.26	227.55
816.58	227.52
816.89	227.51
817.21	227.47
817.53	227.48
817.85	227.47
818.17	227.45
818.48	227.39
818.80	227.41
819.12	227.40
819.44	227.38
819.76	227.36
820.07	227.35
820.39	227.33
820.71	227.33
821.03	227.34
821.34	227.32
821.66	227.34
821.98	227.34
822.30	227.32
822.61	227.39
822.93	227.36
823.25	227.35
823.57	227.33
823.88	227.34
824.20	227.32
824.52	227.35
824.83	227.34
825.15	227.31
825.47	227.29
825.79	227.29
826.10	227.28
826.42	227.27
826.74	227.28
827.05	227.27
827.37	227.27
827.69	227.25
828.00	227.25
828.32	227.24
828.64	227.21
828.95	227.27
829.27	227.23
829.58	227.23
829.90	227.25
830.22	227.25
830.53	227.22
830.85	227.21
831.17	227.17
831.48	227.16
831.80	227.17
832.11	227.17
832.43	227.13
832.75	227.12
833.06	227.19
833.38	227.16
833.69	227.16
834.01	227.15
834.32	227.14
834.64	227.12
834.96	227.12
835.27	227.12
835.59	227.07
835.90	227.04
836.22	227.04
836.53	227.00
836.85	226.99
837.16	227.11
837.48	227.10
837.79	227.14
838.11	227.15
838.42	227.13
838.74	227.14
839.05	227.15
839.37	227.16
839.68	227.08
840.00	227.07
840.31	227.08
840.63	227.07
840.94	227.05
841.26	227.04
841.57	227.03
841.88	227.05
842.20	227.03
842.51	227.02
842.83	227.00
843.14	227.12
843.46	227.11
843.77	227.03
844.08	227.03
844.40	227.00
844.71	226.98
845.03	226.97
845.34	226.96
845.65	226.95
845.97	226.94
846.28	226.94
846.60	226.94
846.91	226.91
847.22	226.90
847.54	226.93
847.85	226.94
848.16	226.92
848.48	226.88
848.79	226.92
849.10	226.92
849.42	226.93
849.73	226.82
850.04	226.83
850.36	226.77
850.67	226.79
850.98	226.79
851.30	226.79
851.61	226.80
851.92	226.79
852.23	226.82
852.55	226.82
852.86	226.82
853.17	226.84
853.49	226.86
853.80	226.88
854.11	226.89
854.42	226.91
854.74	226.90
855.05	226.92
855.36	226.85
855.67	226.85
855.99	226.85
856.30	226.99
856.61	226.97
856.92	226.98
857.23	226.99
857.55	226.98
857.86	226.97
858.17	226.98
858.48	226.96
858.79	226.93
859.11	226.95
859.42	226.94
859.73	226.92
860.04	226.91
860.35	226.87
860.66	226.82
860.98	226.82
861.29	226.83
861.60	226.81
861.91	226.84
862.22	226.83
862.53	226.81
862.84	226.65
863.16	226.68
863.47	226.66
863.78	226.64
864.09	226.63
864.40	226.64
864.71	226.64
865.02	226.64
865.33	226.62
865.64	226.59
865.95	226.60
866.27	226.69
866.58	226.67
866.89	226.69
867.20	226.69
867.51	226.66
867.82	226.66
868.13	226.69
868.44	226.66
868.75	226.69
869.06	226.70
869.37	226.72
869.68	226.69
869.99	226.72
870.30	226.72
870.61	226.73
870.92	226.71
871.23	226.70
871.54	226.72
871.85	226.75
872.16	226.76
872.47	226.75
872.78	226.67
873.09	226.68
873.40	226.66
873.71	226.67
874.02	226.68
874.33	226.67
874.64	226.65
874.95	226.67
875.26	226.63
875.56	226.63
875.87	226.62
876.18	226.61
876.49	226.73
876.80	226.73
877.11	226.72
877.42	226.71
877.73	226.72
878.04	226.69
878.35	226.68
878.66	226.69
878.96	226.69
879.27	226.68
879.58	226.67
879.89	226.67
880.20	226.69
880.51	226.68
880.82	226.68
881.12	226.68
881.43	226.66
881.74	226.65
882.05	226.66
882.36	226.66
882.67	226.66
882.97	226.52
883.28	226.52
883.59	226.50
883.90	226.52
884.21	226.53
884.51	226.54
884.82	226.52
885.13	226.51
885.44	226.50
885.74	226.51
886.05	226.50
886.36	226.51
886.67	226.47
886.98	226.54
887.28	226.55
887.59	226.54
887.90	226.54
888.20	226.54
888.51	226.55
888.82	226.53
889.13	226.53
889.43	226.64
889.74	226.63
890.05	226.63
890.35	226.61
890.66	226.59
890.97	226.57
891.28	226.56
891.58	226.56
891.89	226.56
892.20	226.54
892.50	226.52
892.81	226.50
893.12	226.49
893.42	226.42
893.73	226.43
894.04	226.42
894.34	226.44
894.65	226.43
894.95	226.41
895.26	226.43
895.57	226.47
895.87	226.34
896.18	226.37
896.48	226.37
896.79	226.38
897.10	226.40
897.40	226.41
897.71	226.43
898.01	226.42
898.32	226.44
898.63	226.45
898.93	226.46
899.24	226.47
899.54	226.47
899.85	226.47
900.15	226.46
900.46	226.45
900.76	226.46
901.07	226.46
901.38	226.45
901.68	226.46
901.99	226.40
902.29	226.41
902.60	226.39
902.90	226.38
903.21	226.38
903.51	226.36
903.82	226.39
904.12	226.40
904.43	226.41
904.73	226.39
905.03	226.40
905.34	226.51
905.64	226.51
905.95	226.51
906.25	226.51
906.56	226.51
906.86	226.50
907.17	226.49
907.47	226.50
907.77	226.49
908.08	226.45
908.38	226.47
908.69	226.48
908.99	226.50
909.30	226.49
909.60	226.48
909.90	226.49
910.21	226.45
910.51	226.42
910.81	226.42
911.12	226.43
911.42	226.43
911.73	226.30
912.03	226.31
912.33	226.34
912.64	226.32
912.94	226.31
913.24	226.30
913.55	226.28
913.85	226.28
914.15	226.30
914.46	226.32
914.76	226.31
915.06	226.30
915.37	226.28
915.67	226.28
915.97	226.28
916.27	226.26
916.58	226.27
916.88	226.27
917.18	226.26
917.49	226.35
917.79	226.34
918.09	226.36
918.39	226.38
918.70	226.37
919.00	226.39
919.30	226.44
919.60	226.44
919.91	226.44
920.21	226.44
920.51	226.42
920.81	226.41
921.12	226.43
921.42	226.42
921.72	226.44
922.02	226.45
922.32	226.47
922.63	226.46
922.93	226.52
923.23	226.52
923.53	226.51
923.83	226.41
924.13	226.43
924.44	226.42
924.74	226.45
925.04	226.47
925.34	226.47
925.64	226.41
925.94	226.41
926.24	226.48
926.55	226.46
926.85	226.48
927.15	226.46
927.45	226.47
927.75	226.47
928.05	226.46
928.35	226.46
928.65	226.46
928.95	226.48
929.26	226.42
929.56	226.46
929.86	226.48
930.16	226.47
930.46	226.45
930.76	226.46
931.06	226.40
931.36	226.37
931.66	226.39
931.96	226.41
932.26	226.42
932.56	226.37
932.86	226.38
933.16	226.38
933.46	226.37
933.76	226.36
934.06	226.39
934.36	226.44
934.66	226.43
934.96	226.42
935.26	226.43
935.56	226.45
935.86	226.41
936.16	226.37
936.46	226.37
936.76	226.37
937.06	226.35
937.36	226.35
937.66	226.35
937.96	226.34
938.26	226.31
938.56	226.31
938.86	226.33
939.16	226.35
939.46	226.36
939.76	226.38
940.06	226.37
940.35	226.34
940.65	226.27
940.95	226.27
941.25	226.24
941.55	226.21
941.85	226.21
942.15	226.24
942.45	226.28
942.75	226.29
943.04	226.30
943.34	226.32
943.64	226.32
943.94	226.30
944.24	226.30
944.54	226.31
944.84	226.30
945.13	226.28
945.43	226.26
945.73	226.25
946.03	226.24
946.33	226.23
946.62	226.21
946.92	226.21
947.22	226.23
947.52	226.24
947.82	226.26
948.11	226.24
948.41	226.21
948.71	226.17
949.01	226.17
949.31	226.16
949.60	226.15
949.90	226.18
950.20	226.16
950.50	226.17
950.79	226.17
951.09	226.18
951.39	226.18
951.69	226.16
951.98	226.19
952.28	226.19
952.58	226.18
952.87	226.20
953.17	226.22
953.47	226.20
953.76	226.20
954.06	226.17
954.36	226.16
954.66	226.16
954.95	226.20
955.25	226.21
955.55	226.22
955.84	226.20
956.14	226.21
956.44	226.22
956.73	226.20
957.03	226.21
957.32	226.21
957.62	226.21
957.92	226.24
958.21	226.23
958.51	226.38
958.81	226.40
959.10	226.41
959.40	226.44
959.69	226.45
959.99	226.47
960.29	226.47
960.58	226.46
960.88	226.51
961.17	226.49
961.47	226.49
961.76	226.48
962.06	226.50
962.36	226.48
962.65	226.48
962.95	226.49
963.24	226.47
963.54	226.46
963.83	226.47
964.13	226.45
964.42	226.44
964.72	226.33
965.01	226.33
965.31	226.32
965.60	226.29
965.90	226.36
966.19	226.33
966.49	226.33
966.78	226.34
967.08	226.33
967.37	226.33
967.67	226.32
967.96	226.34
968.26	226.33
968.55	226.35
968.85	226.35
969.14	226.35
969.43	226.36
969.73	226.34
970.02	226.33
970.32	226.33
970.61	226.31
970.91	226.29
971.20	226.28
971.49	226.26
971.79	226.27
972.08	226.19
972.38	226.22
972.67	226.22
972.96	226.24
973.26	226.21
973.55	226.24
973.85	226.24
974.14	226.23
974.43	226.24
974.73	226.21
975.02	226.19
975.31	226.19
975.61	226.18
975.90	226.18
976.19	226.19
976.49	226.20
976.78	226.19
977.07	226.19
977.37	226.19
977.66	226.21
977.95	226.19
978.24	226.20
978.54	226.22
978.83	226.21
979.12	226.20
979.42	226.20
979.71	226.19
980.00	226.18
980.29	226.19
980.59	226.18
980.88	226.21
981.17	226.22
981.46	226.22
981.76	226.22
982.05	226.27
982.34	226.27
982.63	226.26
982.93	226.27
983.22	226.30
983.51	226.31
983.80	226.32
984.09	226.33
984.39	226.33
984.68	226.30
984.97	226.30
985.26	226.28
985.55	226.29
985.85	226.26
986.14	226.28
986.43	226.30
986.72	226.28
987.01	226.25
987.30	226.24
987.59	226.23
987.89	226.24
988.18	226.19
988.47	226.18
988.76	226.16
989.05	226.14
989.34	226.12
989.63	226.15
989.92	226.14
990.22	226.12
990.51	226.11
990.80	226.10
991.09	226.12
991.38	226.13
991.67	226.12
991.96	226.11
992.25	226.10
992.54	226.07
992.83	226.07
993.12	226.07
993.41	226.09
993.70	226.15
993.99	226.16
994.28	226.19
994.58	226.22
994.87	226.22
995.16	226.21
995.45	226.21
995.74	226.18
996.03	226.19
996.32	226.22
996.61	226.25
996.90	226.25
997.19	226.25
997.48	226.25
997.77	226.24
998.06	226.25
998.34	226.24
998.63	226.24
998.92	226.24
999.21	226.26
999.50	226.26
999.79	226.21
1000.08	226.21
1000.37	226.20
1000.66	226.19
1000.95	226.22
1001.24	226.24
1001.53	226.26
1001.82	226.25
1002.11	226.22
1002.40	226.22
1002.68	226.25
1002.97	226.34
1003.26	226.32
1003.55	226.30
1003.84	226.32
1004.13	226.36
1004.42	226.36
1004.71	226.36
1004.99	226.35
1005.28	226.37
1005.57	226.36
1005.86	226.36
1006.15	226.34
1006.44	226.31
1006.72	226.32
1007.01	226.29
1007.30	226.29
1007.59	226.27
1007.88	226.27
1008.17	226.28
1008.45	226.26
1008.74	226.20
1009.03	226.13
1009.32	226.14
1009.60	226.14
1009.89	226.11
1010.18	226.06
1010.47	226.05
1010.76	226.06
1011.04	226.06
1011.33	226.04
1011.62	226.05
1011.91	226.06
1012.19	226.07
1012.48	226.08
1012.77	226.08
1013.05	226.13
1013.34	226.12
1013.63	226.12
1013.92	226.13
1014.20	226.12
1014.49	226.12
1014.78	226.13
1015.06	226.10
1015.35	226.09
1015.64	226.11
1015.92	226.13
1016.21	226.15
1016.50	226.16
1016.78	226.17
1017.07	226.19
1017.36	226.17
1017.64	226.16
1017.93	226.16
1018.22	226.14
1018.50	226.14
1018.79	226.14
1019.08	226.09
1019.36	226.10
1019.65	226.08
1019.93	226.12
1020.22	226.14
1020.51	226.21
1020.79	226.20
1021.08	225.97
1021.36	225.83
1021.65	226.29
1021.94	225.99
1022.22	226.14
1022.51	225.82
1022.79	226.83
1023.08	226.25
1023.36	227.67
1023.65	225.88
>>>>>End Processed Spectral Data<<<<<
