SpectraSuite Data File
++++++++++++++++++++++++++++++++++++
Date: Fri Oct 02 20:19:03 EDT 2015
User: lab3
Dark Spectrum Present: No
Reference Spectrum Present: No
Number of Sampled Component Spectra: 1
Spectrometers: USB2E7196
Integration Time (usec): 46000 (USB2E7196)
Spectra Averaged: 4500 (USB2E7196)
Boxcar Smoothing: 10 (USB2E7196)
Correct for Electrical Dark: No (USB2E7196)
Strobe/Lamp Enabled: No (USB2E7196)
Correct for Detector Non-linearity: No (USB2E7196)
Correct for Stray Light: No (USB2E7196)
Number of Pixels in Processed Spectrum: 2048
>>>>>Begin Processed Spectral Data<<<<<
339.09	0.00
339.48	215.15
339.86	216.64
340.24	218.07
340.63	219.48
341.01	222.63
341.39	222.15
341.78	223.56
342.16	224.73
342.54	225.17
342.93	213.58
343.31	224.38
343.69	224.91
344.07	225.38
344.46	225.81
344.84	226.20
345.22	226.42
345.60	226.68
345.99	226.87
346.37	227.01
346.75	227.12
347.13	227.19
347.52	227.26
347.90	227.35
348.28	227.38
348.66	227.44
349.05	227.44
349.43	227.49
349.81	227.55
350.19	227.60
350.57	227.67
350.96	227.75
351.34	227.84
351.72	227.93
352.10	228.04
352.48	228.11
352.87	228.16
353.25	228.23
353.63	228.30
354.01	228.36
354.39	228.44
354.77	228.51
355.15	228.63
355.54	228.68
355.92	228.70
356.30	228.79
356.68	228.94
357.06	229.02
357.44	229.07
357.82	229.13
358.20	229.25
358.58	229.31
358.97	229.38
359.35	229.47
359.73	229.55
360.11	229.60
360.49	229.67
360.87	229.72
361.25	229.79
361.63	229.88
362.01	229.93
362.39	229.96
362.77	230.01
363.15	230.04
363.53	230.08
363.91	230.11
364.29	230.14
364.67	230.04
365.05	230.06
365.43	230.09
365.81	230.13
366.19	230.15
366.57	230.21
366.95	230.21
367.33	230.18
367.71	230.18
368.09	230.20
368.47	230.19
368.85	230.18
369.23	230.19
369.61	230.13
369.99	230.15
370.37	230.15
370.75	230.22
371.13	230.19
371.51	230.15
371.89	230.13
372.27	230.10
372.65	230.08
373.03	230.04
373.41	230.00
373.78	229.95
374.16	229.85
374.54	229.76
374.92	229.71
375.30	229.67
375.68	229.60
376.06	229.55
376.44	229.50
376.82	229.46
377.19	229.40
377.57	229.35
377.95	229.26
378.33	229.19
378.71	229.04
379.09	228.99
379.47	228.96
379.84	228.89
380.22	228.83
380.60	228.76
380.98	228.71
381.36	228.66
381.73	228.60
382.11	228.57
382.49	228.53
382.87	228.47
383.25	228.42
383.62	228.53
384.00	228.45
384.38	228.41
384.76	228.40
385.13	228.40
385.51	228.36
385.89	228.30
386.27	228.27
386.64	228.25
387.02	228.20
387.40	228.16
387.78	228.13
388.15	228.11
388.53	228.08
388.91	228.05
389.29	228.02
389.66	228.01
390.04	227.98
390.42	227.97
390.79	227.96
391.17	227.94
391.55	227.79
391.92	227.78
392.30	227.78
392.68	227.74
393.05	227.71
393.43	227.71
393.81	227.72
394.18	227.70
394.56	227.70
394.94	227.72
395.31	227.73
395.69	227.77
396.06	227.80
396.44	227.83
396.82	227.83
397.19	227.92
397.57	227.93
397.95	227.97
398.32	227.96
398.70	228.00
399.07	228.07
399.45	228.10
399.82	228.15
400.20	228.19
400.58	228.25
400.95	228.26
401.33	228.34
401.70	228.49
402.08	228.59
402.45	228.67
402.83	228.79
403.20	228.89
403.58	228.98
403.95	229.12
404.33	229.27
404.71	229.41
405.08	229.62
405.46	229.78
405.83	229.96
406.21	230.15
406.58	230.36
406.96	230.57
407.33	230.82
407.70	231.08
408.08	231.46
408.45	231.78
408.83	232.14
409.20	232.46
409.58	232.75
409.95	233.14
410.33	233.57
410.70	233.97
411.08	234.45
411.45	234.94
411.82	235.44
412.20	236.03
412.57	236.72
412.95	237.25
413.32	237.96
413.69	238.69
414.07	239.45
414.44	240.29
414.82	241.13
415.19	242.13
415.56	243.14
415.94	244.18
416.31	245.35
416.68	246.53
417.06	247.89
417.43	249.17
417.81	250.65
418.18	252.14
418.55	253.78
418.93	255.48
419.30	257.25
419.67	259.14
420.04	261.07
420.42	263.09
420.79	265.44
421.16	267.79
421.54	270.19
421.91	272.69
422.28	275.28
422.66	278.07
423.03	280.74
423.40	283.54
423.77	286.54
424.15	289.61
424.52	292.81
424.89	296.26
425.26	299.70
425.64	302.89
426.01	306.49
426.38	310.16
426.75	313.95
427.13	317.82
427.50	321.89
427.87	326.11
428.24	330.37
428.61	334.47
428.99	338.90
429.36	343.75
429.73	348.40
430.10	353.06
430.47	357.82
430.85	362.72
431.22	367.99
431.59	373.40
431.96	378.68
432.33	384.55
432.70	390.13
433.08	396.72
433.45	402.97
433.82	409.12
434.19	415.98
434.56	422.75
434.93	429.30
435.30	435.76
435.68	443.07
436.05	450.22
436.42	457.34
436.79	463.84
437.16	470.86
437.53	478.36
437.90	485.88
438.27	493.23
438.64	501.16
439.01	508.34
439.38	514.91
439.75	521.24
440.13	528.37
440.50	535.16
440.87	540.53
441.24	546.40
441.61	552.82
441.98	557.47
442.35	562.99
442.72	568.62
443.09	573.97
443.46	577.33
443.83	579.78
444.20	581.80
444.57	584.85
444.94	586.54
445.31	588.29
445.68	589.74
446.05	590.77
446.42	590.28
446.79	589.61
447.16	589.00
447.53	588.43
447.90	586.01
448.27	583.67
448.64	580.22
449.01	577.79
449.37	573.06
449.74	568.78
450.11	563.29
450.48	557.31
450.85	551.33
451.22	546.21
451.59	541.21
451.96	536.68
452.33	530.15
452.70	524.37
453.07	517.32
453.43	510.29
453.80	503.49
454.17	496.99
454.54	491.01
454.91	484.26
455.28	477.94
455.65	471.99
456.02	465.72
456.38	460.66
456.75	454.14
457.12	448.92
457.49	443.65
457.86	438.69
458.23	434.36
458.59	429.55
458.96	424.63
459.33	420.31
459.70	415.91
460.07	412.59
460.43	408.65
460.80	405.00
461.17	401.83
461.54	398.38
461.91	395.17
462.27	391.90
462.64	389.27
463.01	386.23
463.38	383.16
463.74	380.39
464.11	377.95
464.48	375.77
464.85	373.39
465.21	371.60
465.58	369.59
465.95	367.28
466.32	365.45
466.68	363.65
467.05	361.84
467.42	360.08
467.78	358.16
468.15	356.41
468.52	355.13
468.88	353.40
469.25	351.82
469.62	350.58
469.98	349.20
470.35	347.98
470.72	346.88
471.08	345.76
471.45	344.82
471.82	343.77
472.18	342.65
472.55	341.92
472.92	341.01
473.28	340.31
473.65	339.53
474.02	338.80
474.38	338.19
474.75	337.83
475.11	337.33
475.48	337.10
475.85	336.85
476.21	336.72
476.58	336.63
476.94	336.76
477.31	336.82
477.67	336.91
478.04	337.11
478.41	337.40
478.77	337.81
479.14	338.07
479.50	338.56
479.87	339.20
480.23	339.85
480.60	340.48
480.96	341.11
481.33	342.06
481.69	343.00
482.06	343.94
482.42	344.80
482.79	345.86
483.15	347.10
483.52	348.51
483.88	349.86
484.25	351.31
484.61	352.81
484.98	354.45
485.34	356.29
485.71	358.21
486.07	360.26
486.44	362.30
486.80	364.59
487.17	366.97
487.53	369.56
487.90	372.28
488.26	375.24
488.62	378.37
488.99	381.48
489.35	384.78
489.72	388.35
490.08	392.11
490.44	395.99
490.81	400.02
491.17	404.15
491.54	408.60
491.90	413.21
492.26	418.12
492.63	423.26
492.99	428.63
493.36	434.19
493.72	440.04
494.08	446.03
494.45	452.40
494.81	459.02
495.17	465.83
495.54	473.00
495.90	480.47
496.26	488.10
496.63	496.00
496.99	504.19
497.35	512.78
497.72	521.65
498.08	530.71
498.44	540.10
498.80	550.04
499.17	560.24
499.53	570.71
499.89	581.58
500.26	592.66
500.62	604.02
500.98	616.02
501.34	628.19
501.71	640.87
502.07	653.75
502.43	667.16
502.79	680.76
503.16	694.81
503.52	709.08
503.88	723.79
504.24	738.92
504.60	754.27
504.97	770.10
505.33	786.33
505.69	803.47
506.05	820.90
506.41	838.26
506.78	855.87
507.14	873.99
507.50	892.54
507.86	911.45
508.22	930.60
508.59	949.56
508.95	969.36
509.31	989.91
509.67	1011.08
510.03	1032.24
510.39	1053.52
510.75	1075.02
511.12	1096.78
511.48	1118.68
511.84	1140.72
512.20	1163.14
512.56	1186.37
512.92	1209.63
513.28	1232.55
513.64	1255.79
514.00	1279.47
514.37	1303.37
514.73	1327.34
515.09	1351.23
515.45	1375.49
515.81	1399.83
516.17	1424.40
516.53	1448.41
516.89	1472.33
517.25	1496.49
517.61	1520.58
517.97	1545.15
518.33	1569.21
518.69	1593.20
519.05	1617.75
519.41	1642.54
519.77	1667.47
520.13	1691.77
520.49	1716.01
520.85	1740.63
521.21	1764.70
521.57	1789.25
521.93	1813.35
522.29	1837.89
522.65	1861.94
523.01	1885.95
523.37	1909.64
523.73	1933.99
524.09	1958.18
524.45	1982.14
524.81	2005.68
525.17	2029.13
525.53	2051.97
525.89	2075.29
526.25	2098.62
526.61	2120.94
526.97	2143.42
527.33	2165.91
527.68	2188.04
528.04	2209.44
528.40	2229.88
528.76	2250.80
529.12	2271.09
529.48	2290.99
529.84	2309.24
530.20	2328.13
530.56	2346.42
530.91	2364.90
531.27	2383.03
531.63	2400.31
531.99	2417.18
532.35	2433.44
532.71	2449.71
533.07	2466.65
533.42	2481.84
533.78	2498.04
534.14	2514.40
534.50	2529.73
534.86	2544.88
535.21	2558.23
535.57	2572.04
535.93	2585.64
536.29	2597.98
536.65	2610.33
537.00	2622.07
537.36	2634.64
537.72	2645.66
538.08	2656.32
538.44	2666.32
538.79	2675.89
539.15	2684.61
539.51	2692.94
539.87	2700.57
540.22	2706.45
540.58	2712.37
540.94	2719.56
541.29	2724.98
541.65	2728.70
542.01	2731.81
542.37	2734.25
542.72	2737.99
543.08	2740.06
543.44	2742.69
543.79	2744.26
544.15	2744.96
544.51	2746.08
544.87	2746.09
545.22	2745.39
545.58	2744.00
545.94	2742.64
546.29	2739.94
546.65	2737.32
547.01	2734.67
547.36	2732.75
547.72	2730.69
548.07	2727.00
548.43	2721.76
548.79	2715.77
549.14	2711.02
549.50	2706.45
549.86	2700.96
550.21	2694.33
550.57	2688.61
550.92	2680.66
551.28	2673.39
551.64	2666.32
551.99	2658.71
552.35	2650.45
552.70	2642.53
553.06	2634.87
553.41	2626.52
553.77	2618.01
554.13	2609.37
554.48	2599.82
554.84	2589.14
555.19	2579.09
555.55	2568.99
555.90	2558.88
556.26	2549.26
556.61	2538.60
556.97	2526.30
557.32	2514.55
557.68	2502.66
558.03	2490.64
558.39	2479.73
558.74	2469.06
559.10	2456.69
559.45	2444.64
559.81	2433.22
560.16	2421.05
560.52	2409.13
560.87	2397.54
561.23	2385.10
561.58	2372.86
561.94	2360.21
562.29	2347.00
562.64	2334.48
563.00	2321.63
563.35	2309.32
563.71	2296.75
564.06	2283.96
564.42	2271.95
564.77	2259.28
565.12	2246.57
565.48	2233.78
565.83	2220.99
566.19	2208.24
566.54	2195.50
566.89	2181.55
567.25	2167.82
567.60	2155.40
567.96	2142.09
568.31	2127.46
568.66	2113.64
569.02	2100.83
569.37	2087.98
569.72	2075.68
570.08	2062.06
570.43	2048.17
570.78	2033.97
571.14	2019.10
571.49	2005.00
571.84	1991.43
572.20	1976.56
572.55	1962.04
572.90	1947.28
573.26	1932.53
573.61	1917.29
573.96	1902.47
574.31	1887.96
574.67	1873.38
575.02	1857.87
575.37	1842.42
575.72	1827.82
576.08	1813.47
576.43	1798.00
576.78	1782.99
577.13	1768.25
577.49	1753.82
577.84	1739.98
578.19	1725.20
578.54	1710.66
578.90	1695.61
579.25	1680.41
579.60	1666.85
579.95	1653.06
580.30	1639.19
580.66	1625.07
581.01	1610.83
581.36	1596.62
581.71	1583.43
582.06	1570.09
582.42	1556.96
582.77	1543.85
583.12	1530.66
583.47	1517.40
583.82	1504.24
584.17	1490.75
584.53	1476.88
584.88	1463.40
585.23	1449.43
585.58	1436.39
585.93	1423.55
586.28	1411.43
586.63	1399.34
586.98	1386.71
587.34	1374.15
587.69	1361.32
588.04	1348.80
588.39	1336.71
588.74	1324.73
589.09	1312.48
589.44	1299.85
589.79	1287.92
590.14	1276.07
590.49	1264.17
590.84	1252.38
591.19	1241.03
591.54	1229.46
591.89	1218.06
592.25	1206.79
592.60	1195.23
592.95	1184.04
593.30	1173.02
593.65	1161.69
594.00	1150.45
594.35	1139.84
594.70	1128.86
595.05	1118.74
595.40	1108.51
595.75	1098.12
596.10	1088.28
596.45	1078.10
596.80	1068.26
597.15	1058.20
597.50	1048.28
597.85	1038.74
598.19	1029.06
598.54	1019.45
598.89	1010.26
599.24	1001.39
599.59	992.40
599.94	984.34
600.29	975.99
600.64	967.36
600.99	958.36
601.34	949.77
601.69	940.83
602.04	932.55
602.39	924.11
602.74	915.67
603.08	907.23
603.43	898.75
603.78	890.47
604.13	882.38
604.48	874.22
604.83	866.28
605.18	858.25
605.53	850.36
605.87	842.24
606.22	834.51
606.57	826.70
606.92	818.75
607.27	810.72
607.62	803.10
607.96	795.88
608.31	789.10
608.66	782.11
609.01	775.42
609.36	768.81
609.70	761.93
610.05	755.10
610.40	748.52
610.75	741.93
611.10	735.67
611.44	729.26
611.79	722.96
612.14	716.57
612.49	710.28
612.83	704.30
613.18	698.45
613.53	692.47
613.88	686.57
614.22	681.10
614.57	675.52
614.92	669.75
615.27	664.14
615.61	658.57
615.96	653.05
616.31	647.53
616.65	642.08
617.00	636.90
617.35	631.79
617.70	626.74
618.04	621.70
618.39	616.61
618.74	611.79
619.08	607.00
619.43	602.32
619.78	597.68
620.12	592.96
620.47	588.45
620.82	584.04
621.16	579.60
621.51	575.03
621.85	570.57
622.20	566.29
622.55	562.01
622.89	557.80
623.24	553.60
623.59	549.46
623.93	545.48
624.28	541.55
624.62	537.74
624.97	533.96
625.32	530.18
625.66	526.34
626.01	522.46
626.35	518.66
626.70	514.91
627.04	511.32
627.39	507.70
627.73	504.23
628.08	500.84
628.43	497.47
628.77	494.21
629.12	491.04
629.46	487.84
629.81	484.58
630.15	481.35
630.50	478.21
630.84	475.11
631.19	472.09
631.53	469.17
631.88	466.21
632.22	463.27
632.57	460.62
632.91	458.01
633.26	455.48
633.60	452.96
633.95	450.51
634.29	447.97
634.64	445.51
634.98	442.83
635.32	440.33
635.67	438.00
636.01	435.60
636.36	433.26
636.70	431.09
637.05	428.90
637.39	426.72
637.73	424.56
638.08	422.53
638.42	420.44
638.77	418.24
639.11	415.98
639.45	413.84
639.80	411.62
640.14	409.51
640.49	407.37
640.83	405.22
641.17	403.17
641.52	401.15
641.86	399.17
642.20	397.40
642.55	395.45
642.89	393.54
643.23	391.71
643.58	390.06
643.92	388.25
644.26	386.51
644.61	384.84
644.95	383.12
645.29	381.35
645.64	379.58
645.98	377.90
646.32	376.35
646.66	374.77
647.01	373.21
647.35	371.71
647.69	370.19
648.04	368.81
648.38	367.34
648.72	365.90
649.06	364.45
649.41	363.02
649.75	361.65
650.09	360.29
650.43	358.94
650.78	357.52
651.12	356.15
651.46	354.83
651.80	353.54
652.14	352.29
652.49	351.07
652.83	349.85
653.17	348.65
653.51	347.50
653.85	346.41
654.20	345.25
654.54	344.03
654.88	342.89
655.22	341.78
655.56	340.65
655.90	339.59
656.25	338.56
656.59	337.51
656.93	336.52
657.27	335.54
657.61	334.50
657.95	333.51
658.29	332.52
658.64	331.59
658.98	330.64
659.32	329.71
659.66	328.83
660.00	327.98
660.34	327.12
660.68	326.21
661.02	325.27
661.36	324.37
661.70	323.51
662.05	322.68
662.39	321.84
662.73	321.08
663.07	320.32
663.41	319.53
663.75	318.72
664.09	317.92
664.43	317.09
664.77	316.34
665.11	315.55
665.45	314.82
665.79	314.09
666.13	313.32
666.47	312.55
666.81	311.77
667.15	310.95
667.49	310.25
667.83	309.61
668.17	308.94
668.51	308.33
668.85	307.73
669.19	307.15
669.53	306.48
669.87	305.80
670.21	305.14
670.55	304.52
670.89	303.99
671.23	303.40
671.57	302.83
671.91	302.30
672.25	301.79
672.58	301.26
672.92	300.66
673.26	300.17
673.60	299.67
673.94	299.18
674.28	298.72
674.62	298.22
674.96	297.67
675.30	297.19
675.64	296.65
675.97	296.11
676.31	295.55
676.65	295.04
676.99	294.59
677.33	294.07
677.67	293.58
678.01	293.02
678.34	292.54
678.68	292.10
679.02	291.58
679.36	291.09
679.70	290.58
680.04	290.13
680.37	289.65
680.71	289.20
681.05	288.76
681.39	288.27
681.73	287.77
682.06	287.28
682.40	286.82
682.74	286.42
683.08	286.05
683.42	285.62
683.75	285.23
684.09	284.76
684.43	284.35
684.77	283.93
685.10	283.56
685.44	283.15
685.78	282.74
686.12	282.36
686.45	281.95
686.79	281.54
687.13	281.15
687.46	280.73
687.80	280.33
688.14	279.89
688.48	279.52
688.81	279.12
689.15	278.77
689.49	278.36
689.82	277.95
690.16	277.48
690.50	277.09
690.83	276.68
691.17	276.29
691.51	275.89
691.84	275.52
692.18	275.11
692.52	274.69
692.85	274.29
693.19	273.94
693.52	273.56
693.86	273.17
694.20	272.79
694.53	272.43
694.87	272.04
695.21	271.66
695.54	271.28
695.88	270.91
696.21	270.51
696.55	270.15
696.88	269.79
697.22	269.42
697.56	269.07
697.89	268.66
698.23	268.31
698.56	267.92
698.90	267.56
699.23	267.18
699.57	266.82
699.90	266.46
700.24	266.08
700.58	265.75
700.91	265.45
701.25	265.22
701.58	264.94
701.92	264.64
702.25	264.33
702.59	264.00
702.92	263.67
703.26	263.33
703.59	262.99
703.93	262.76
704.26	262.45
704.60	262.12
704.93	261.81
705.26	261.48
705.60	261.21
705.93	260.87
706.27	260.60
706.60	260.33
706.94	260.07
707.27	259.73
707.61	259.42
707.94	259.08
708.27	258.66
708.61	258.31
708.94	257.98
709.28	257.68
709.61	257.38
709.94	257.12
710.28	256.86
710.61	256.62
710.95	256.24
711.28	256.03
711.61	255.76
711.95	255.52
712.28	255.25
712.61	254.96
712.95	254.78
713.28	254.58
713.61	254.29
713.95	253.98
714.28	253.74
714.61	253.47
714.95	253.22
715.28	252.98
715.61	252.74
715.95	252.52
716.28	252.29
716.61	252.08
716.95	251.83
717.28	251.59
717.61	251.34
717.94	251.11
718.28	250.80
718.61	250.57
718.94	250.32
719.27	250.10
719.61	249.90
719.94	249.64
720.27	249.35
720.60	249.14
720.94	248.93
721.27	248.73
721.60	248.55
721.93	248.34
722.27	248.18
722.60	247.99
722.93	247.77
723.26	247.56
723.59	247.33
723.93	247.14
724.26	246.96
724.59	246.76
724.92	246.58
725.25	246.44
725.59	246.26
725.92	246.11
726.25	245.94
726.58	245.76
726.91	245.58
727.24	245.42
727.57	245.25
727.91	245.06
728.24	244.92
728.57	244.74
728.90	244.58
729.23	244.37
729.56	244.26
729.89	244.09
730.22	243.91
730.55	243.76
730.89	243.60
731.22	243.43
731.55	243.28
731.88	243.12
732.21	242.94
732.54	242.78
732.87	242.62
733.20	242.48
733.53	242.33
733.86	242.19
734.19	242.02
734.52	241.89
734.85	241.83
735.18	241.66
735.51	241.55
735.84	241.41
736.17	241.31
736.50	241.11
736.83	241.12
737.16	241.00
737.49	240.87
737.82	240.74
738.15	240.63
738.48	240.51
738.81	240.37
739.14	240.23
739.47	240.09
739.80	239.96
740.13	239.84
740.46	239.69
740.79	239.55
741.12	239.43
741.45	239.28
741.78	239.09
742.11	239.00
742.44	238.84
742.77	238.74
743.10	238.60
743.43	238.48
743.75	238.24
744.08	238.31
744.41	238.19
744.74	238.08
745.07	237.94
745.40	237.85
745.73	237.80
746.06	237.70
746.39	237.62
746.71	237.51
747.04	237.39
747.37	237.29
747.70	237.22
748.03	237.13
748.36	237.05
748.68	236.95
749.01	236.81
749.34	236.72
749.67	236.63
750.00	236.55
750.33	236.55
750.65	236.46
750.98	236.19
751.31	236.10
751.64	236.01
751.97	235.99
752.29	235.89
752.62	235.74
752.95	235.65
753.28	235.54
753.60	235.45
753.93	235.39
754.26	235.31
754.59	235.18
754.91	235.08
755.24	234.99
755.57	234.96
755.90	234.88
756.22	234.77
756.55	234.67
756.88	234.56
757.20	234.39
757.53	234.27
757.86	234.19
758.19	234.11
758.51	234.03
758.84	233.89
759.17	233.80
759.49	233.73
759.82	233.72
760.15	233.66
760.47	233.58
760.80	233.48
761.13	233.43
761.45	233.36
761.78	233.30
762.11	233.24
762.43	233.10
762.76	233.04
763.08	233.00
763.41	232.95
763.74	232.90
764.06	232.84
764.39	232.79
764.71	232.73
765.04	232.66
765.37	232.59
765.69	232.53
766.02	232.48
766.34	232.41
766.67	232.31
767.00	232.28
767.32	232.29
767.65	232.32
767.97	232.25
768.30	232.21
768.62	232.16
768.95	232.09
769.27	232.04
769.60	232.00
769.92	231.93
770.25	231.86
770.57	231.79
770.90	231.74
771.22	231.68
771.55	231.64
771.87	231.60
772.20	231.55
772.52	231.61
772.85	231.72
773.17	231.68
773.50	231.63
773.82	231.56
774.15	231.45
774.47	231.33
774.80	231.27
775.12	231.23
775.45	231.19
775.77	231.16
776.09	231.13
776.42	231.10
776.74	231.10
777.07	231.06
777.39	231.04
777.72	231.00
778.04	230.97
778.36	230.93
778.69	230.90
779.01	230.88
779.33	230.74
779.66	230.56
779.98	230.53
780.31	230.50
780.63	230.52
780.95	230.52
781.28	230.49
781.60	230.45
781.92	230.42
782.25	230.40
782.57	230.37
782.89	230.33
783.22	230.30
783.54	230.24
783.86	230.22
784.19	230.19
784.51	230.20
784.83	230.16
785.16	230.13
785.48	230.11
785.80	230.08
786.12	230.07
786.45	230.04
786.77	230.03
787.09	229.99
787.42	229.93
787.74	229.91
788.06	229.89
788.38	229.86
788.71	229.83
789.03	229.81
789.35	229.81
789.67	229.76
789.99	229.75
790.32	229.71
790.64	229.70
790.96	229.80
791.28	229.74
791.61	229.71
791.93	229.70
792.25	229.67
792.57	229.74
792.89	229.69
793.21	229.69
793.54	229.66
793.86	229.62
794.18	229.61
794.50	229.56
794.82	229.54
795.14	229.55
795.47	229.55
795.79	229.53
796.11	229.48
796.43	229.47
796.75	229.45
797.07	229.45
797.39	229.42
797.71	229.30
798.04	229.29
798.36	229.29
798.68	229.27
799.00	229.26
799.32	229.18
799.64	229.18
799.96	229.16
800.28	229.17
800.60	229.16
800.92	229.15
801.24	229.13
801.56	229.13
801.89	229.10
802.21	229.09
802.53	229.05
802.85	229.07
803.17	229.12
803.49	229.08
803.81	229.05
804.13	229.03
804.45	229.00
804.77	229.00
805.09	228.98
805.41	228.95
805.73	228.92
806.05	228.87
806.37	228.85
806.69	228.82
807.01	228.80
807.33	228.80
807.65	228.74
807.97	228.79
808.28	228.75
808.60	228.73
808.92	228.70
809.24	228.77
809.56	228.73
809.88	228.67
810.20	228.68
810.52	228.69
810.84	228.66
811.16	228.64
811.48	228.61
811.80	228.65
812.12	228.64
812.43	228.65
812.75	228.65
813.07	228.63
813.39	228.63
813.71	228.61
814.03	228.59
814.35	228.58
814.67	228.52
814.98	228.51
815.30	228.50
815.62	228.47
815.94	228.38
816.26	228.38
816.58	228.35
816.89	228.34
817.21	228.31
817.53	228.31
817.85	228.30
818.17	228.30
818.48	228.23
818.80	228.25
819.12	228.21
819.44	228.18
819.76	228.16
820.07	228.15
820.39	228.14
820.71	228.14
821.03	228.13
821.34	228.12
821.66	228.13
821.98	228.13
822.30	228.12
822.61	228.19
822.93	228.16
823.25	228.16
823.57	228.14
823.88	228.15
824.20	228.14
824.52	228.16
824.83	228.15
825.15	228.13
825.47	228.12
825.79	228.12
826.10	228.11
826.42	228.10
826.74	228.10
827.05	228.09
827.37	228.09
827.69	228.08
828.00	228.08
828.32	228.06
828.64	228.03
828.95	228.10
829.27	228.05
829.58	228.05
829.90	228.07
830.22	228.07
830.53	228.05
830.85	228.03
831.17	227.99
831.48	227.98
831.80	227.98
832.11	227.97
832.43	227.94
832.75	227.94
833.06	228.01
833.38	227.97
833.69	227.96
834.01	227.96
834.32	227.95
834.64	227.94
834.96	227.94
835.27	227.94
835.59	227.89
835.90	227.87
836.22	227.87
836.53	227.83
836.85	227.81
837.16	227.93
837.48	227.93
837.79	227.97
838.11	227.97
838.42	227.97
838.74	227.98
839.05	227.97
839.37	227.96
839.68	227.88
840.00	227.88
840.31	227.89
840.63	227.88
840.94	227.87
841.26	227.85
841.57	227.84
841.88	227.85
842.20	227.82
842.51	227.80
842.83	227.79
843.14	227.91
843.46	227.90
843.77	227.83
844.08	227.82
844.40	227.78
844.71	227.76
845.03	227.75
845.34	227.73
845.65	227.72
845.97	227.72
846.28	227.73
846.60	227.73
846.91	227.70
847.22	227.69
847.54	227.71
847.85	227.72
848.16	227.71
848.48	227.68
848.79	227.73
849.10	227.74
849.42	227.75
849.73	227.63
850.04	227.63
850.36	227.59
850.67	227.61
850.98	227.61
851.30	227.62
851.61	227.61
851.92	227.61
852.23	227.65
852.55	227.66
852.86	227.66
853.17	227.68
853.49	227.71
853.80	227.73
854.11	227.74
854.42	227.74
854.74	227.73
855.05	227.74
855.36	227.68
855.67	227.68
855.99	227.67
856.30	227.82
856.61	227.81
856.92	227.81
857.23	227.81
857.55	227.80
857.86	227.79
858.17	227.80
858.48	227.78
858.79	227.75
859.11	227.75
859.42	227.74
859.73	227.72
860.04	227.71
860.35	227.67
860.66	227.63
860.98	227.63
861.29	227.64
861.60	227.63
861.91	227.65
862.22	227.62
862.53	227.60
862.84	227.46
863.16	227.48
863.47	227.46
863.78	227.45
864.09	227.45
864.40	227.46
864.71	227.46
865.02	227.48
865.33	227.46
865.64	227.44
865.95	227.44
866.27	227.52
866.58	227.50
866.89	227.52
867.20	227.52
867.51	227.50
867.82	227.49
868.13	227.53
868.44	227.50
868.75	227.53
869.06	227.54
869.37	227.54
869.68	227.51
869.99	227.53
870.30	227.53
870.61	227.54
870.92	227.53
871.23	227.51
871.54	227.52
871.85	227.55
872.16	227.57
872.47	227.56
872.78	227.49
873.09	227.50
873.40	227.48
873.71	227.49
874.02	227.50
874.33	227.49
874.64	227.46
874.95	227.49
875.26	227.46
875.56	227.45
875.87	227.45
876.18	227.45
876.49	227.56
876.80	227.55
877.11	227.52
877.42	227.53
877.73	227.53
878.04	227.51
878.35	227.50
878.66	227.50
878.96	227.49
879.27	227.48
879.58	227.48
879.89	227.47
880.20	227.51
880.51	227.50
880.82	227.50
881.12	227.51
881.43	227.48
881.74	227.46
882.05	227.46
882.36	227.47
882.67	227.47
882.97	227.34
883.28	227.33
883.59	227.33
883.90	227.34
884.21	227.36
884.51	227.35
884.82	227.34
885.13	227.33
885.44	227.33
885.74	227.33
886.05	227.33
886.36	227.33
886.67	227.28
886.98	227.34
887.28	227.35
887.59	227.34
887.90	227.35
888.20	227.35
888.51	227.37
888.82	227.35
889.13	227.35
889.43	227.45
889.74	227.45
890.05	227.45
890.35	227.43
890.66	227.41
890.97	227.40
891.28	227.38
891.58	227.37
891.89	227.37
892.20	227.35
892.50	227.34
892.81	227.33
893.12	227.33
893.42	227.26
893.73	227.26
894.04	227.26
894.34	227.28
894.65	227.27
894.95	227.25
895.26	227.26
895.57	227.32
895.87	227.20
896.18	227.22
896.48	227.23
896.79	227.23
897.10	227.25
897.40	227.25
897.71	227.27
898.01	227.26
898.32	227.28
898.63	227.27
898.93	227.28
899.24	227.28
899.54	227.28
899.85	227.28
900.15	227.27
900.46	227.26
900.76	227.26
901.07	227.26
901.38	227.26
901.68	227.27
901.99	227.20
902.29	227.21
902.60	227.19
902.90	227.18
903.21	227.17
903.51	227.16
903.82	227.18
904.12	227.17
904.43	227.18
904.73	227.18
905.03	227.19
905.34	227.30
905.64	227.30
905.95	227.30
906.25	227.29
906.56	227.29
906.86	227.29
907.17	227.28
907.47	227.29
907.77	227.28
908.08	227.25
908.38	227.27
908.69	227.27
908.99	227.29
909.30	227.30
909.60	227.30
909.90	227.31
910.21	227.28
910.51	227.26
910.81	227.26
911.12	227.26
911.42	227.26
911.73	227.14
912.03	227.14
912.33	227.17
912.64	227.16
912.94	227.15
913.24	227.13
913.55	227.12
913.85	227.11
914.15	227.14
914.46	227.15
914.76	227.14
915.06	227.13
915.37	227.10
915.67	227.09
915.97	227.10
916.27	227.07
916.58	227.07
916.88	227.07
917.18	227.05
917.49	227.14
917.79	227.13
918.09	227.15
918.39	227.18
918.70	227.16
919.00	227.17
919.30	227.23
919.60	227.23
919.91	227.22
920.21	227.23
920.51	227.21
920.81	227.19
921.12	227.21
921.42	227.21
921.72	227.22
922.02	227.23
922.32	227.24
922.63	227.25
922.93	227.32
923.23	227.33
923.53	227.32
923.83	227.23
924.13	227.24
924.44	227.24
924.74	227.26
925.04	227.28
925.34	227.27
925.64	227.22
925.94	227.22
926.24	227.29
926.55	227.28
926.85	227.29
927.15	227.30
927.45	227.29
927.75	227.29
928.05	227.29
928.35	227.27
928.65	227.29
928.95	227.29
929.26	227.24
929.56	227.26
929.86	227.28
930.16	227.27
930.46	227.26
930.76	227.25
931.06	227.19
931.36	227.16
931.66	227.18
931.96	227.19
932.26	227.20
932.56	227.14
932.86	227.15
933.16	227.15
933.46	227.14
933.76	227.12
934.06	227.15
934.36	227.19
934.66	227.19
934.96	227.17
935.26	227.18
935.56	227.20
935.86	227.16
936.16	227.15
936.46	227.14
936.76	227.14
937.06	227.13
937.36	227.14
937.66	227.15
937.96	227.14
938.26	227.11
938.56	227.10
938.86	227.11
939.16	227.14
939.46	227.14
939.76	227.16
940.06	227.16
940.35	227.14
940.65	227.07
940.95	227.08
941.25	227.06
941.55	227.04
941.85	227.03
942.15	227.07
942.45	227.10
942.75	227.10
943.04	227.10
943.34	227.12
943.64	227.10
943.94	227.08
944.24	227.08
944.54	227.09
944.84	227.09
945.13	227.07
945.43	227.04
945.73	227.04
946.03	227.03
946.33	227.01
946.62	227.00
946.92	227.00
947.22	227.01
947.52	227.02
947.82	227.04
948.11	227.02
948.41	226.99
948.71	226.95
949.01	226.96
949.31	226.95
949.60	226.94
949.90	226.97
950.20	226.97
950.50	226.97
950.79	226.96
951.09	226.97
951.39	226.98
951.69	226.96
951.98	226.99
952.28	227.00
952.58	227.00
952.87	227.00
953.17	227.01
953.47	226.99
953.76	226.99
954.06	226.97
954.36	226.95
954.66	226.95
954.95	226.98
955.25	226.98
955.55	227.00
955.84	226.97
956.14	226.98
956.44	226.99
956.73	226.97
957.03	226.98
957.32	226.98
957.62	226.98
957.92	227.00
958.21	226.99
958.51	227.13
958.81	227.14
959.10	227.16
959.40	227.18
959.69	227.19
959.99	227.21
960.29	227.22
960.58	227.22
960.88	227.26
961.17	227.25
961.47	227.26
961.76	227.25
962.06	227.27
962.36	227.25
962.65	227.26
962.95	227.27
963.24	227.25
963.54	227.25
963.83	227.26
964.13	227.25
964.42	227.24
964.72	227.14
965.01	227.14
965.31	227.13
965.60	227.10
965.90	227.17
966.19	227.14
966.49	227.15
966.78	227.15
967.08	227.14
967.37	227.14
967.67	227.12
967.96	227.14
968.26	227.13
968.55	227.15
968.85	227.14
969.14	227.14
969.43	227.15
969.73	227.13
970.02	227.12
970.32	227.11
970.61	227.10
970.91	227.06
971.20	227.05
971.49	227.04
971.79	227.05
972.08	226.97
972.38	226.99
972.67	226.97
972.96	226.99
973.26	226.96
973.55	227.00
973.85	226.99
974.14	226.98
974.43	226.99
974.73	226.96
975.02	226.95
975.31	226.95
975.61	226.95
975.90	226.94
976.19	226.93
976.49	226.93
976.78	226.94
977.07	226.94
977.37	226.95
977.66	226.96
977.95	226.94
978.24	226.95
978.54	226.97
978.83	226.97
979.12	226.96
979.42	226.97
979.71	226.94
980.00	226.94
980.29	226.95
980.59	226.93
980.88	226.97
981.17	226.97
981.46	226.97
981.76	226.97
982.05	227.01
982.34	227.02
982.63	227.02
982.93	227.02
983.22	227.05
983.51	227.05
983.80	227.07
984.09	227.09
984.39	227.07
984.68	227.05
984.97	227.06
985.26	227.05
985.55	227.06
985.85	227.04
986.14	227.05
986.43	227.06
986.72	227.06
987.01	227.02
987.30	227.02
987.59	227.01
987.89	227.01
988.18	226.97
988.47	226.96
988.76	226.94
989.05	226.94
989.34	226.92
989.63	226.95
989.92	226.93
990.22	226.91
990.51	226.91
990.80	226.90
991.09	226.91
991.38	226.92
991.67	226.91
991.96	226.90
992.25	226.90
992.54	226.88
992.83	226.88
993.12	226.88
993.41	226.89
993.70	226.95
993.99	226.96
994.28	226.98
994.58	227.00
994.87	227.00
995.16	227.00
995.45	226.98
995.74	226.93
996.03	226.95
996.32	226.97
996.61	226.99
996.90	226.99
997.19	226.98
997.48	226.98
997.77	226.96
998.06	226.97
998.34	226.96
998.63	226.95
998.92	226.96
999.21	226.98
999.50	226.98
999.79	226.93
1000.08	226.92
1000.37	226.92
1000.66	226.90
1000.95	226.93
1001.24	226.94
1001.53	226.95
1001.82	226.96
1002.11	226.93
1002.40	226.94
1002.68	226.97
1002.97	227.06
1003.26	227.05
1003.55	227.02
1003.84	227.03
1004.13	227.08
1004.42	227.08
1004.71	227.08
1004.99	227.07
1005.28	227.10
1005.57	227.09
1005.86	227.07
1006.15	227.07
1006.44	227.05
1006.72	227.07
1007.01	227.05
1007.30	227.05
1007.59	227.03
1007.88	227.03
1008.17	227.03
1008.45	227.01
1008.74	226.96
1009.03	226.90
1009.32	226.90
1009.60	226.91
1009.89	226.89
1010.18	226.84
1010.47	226.83
1010.76	226.83
1011.04	226.83
1011.33	226.83
1011.62	226.84
1011.91	226.86
1012.19	226.86
1012.48	226.86
1012.77	226.86
1013.05	226.90
1013.34	226.90
1013.63	226.91
1013.92	226.92
1014.20	226.90
1014.49	226.91
1014.78	226.93
1015.06	226.89
1015.35	226.89
1015.64	226.91
1015.92	226.93
1016.21	226.94
1016.50	226.95
1016.78	226.97
1017.07	226.97
1017.36	226.95
1017.64	226.93
1017.93	226.94
1018.22	226.93
1018.50	226.94
1018.79	226.93
1019.08	226.89
1019.36	226.89
1019.65	226.88
1019.93	226.91
1020.22	226.93
1020.51	227.00
1020.79	226.98
1021.08	226.81
1021.36	226.77
1021.65	226.90
1021.94	226.83
1022.22	226.98
1022.51	226.67
1022.79	227.50
1023.08	227.12
1023.36	228.39
1023.65	226.63
>>>>>End Processed Spectral Data<<<<<
