SpectraSuite Data File
++++++++++++++++++++++++++++++++++++
Date: Fri Oct 02 16:34:34 EDT 2015
User: lab3
Dark Spectrum Present: No
Reference Spectrum Present: No
Number of Sampled Component Spectra: 1
Spectrometers: USB2E7196
Integration Time (usec): 46000 (USB2E7196)
Spectra Averaged: 1200 (USB2E7196)
Boxcar Smoothing: 10 (USB2E7196)
Correct for Electrical Dark: No (USB2E7196)
Strobe/Lamp Enabled: No (USB2E7196)
Correct for Detector Non-linearity: No (USB2E7196)
Correct for Stray Light: No (USB2E7196)
Number of Pixels in Processed Spectrum: 2048
>>>>>Begin Processed Spectral Data<<<<<
339.09	0.00
339.48	214.55
339.86	216.23
340.24	217.51
340.63	219.07
341.01	222.16
341.39	221.69
341.78	222.90
342.16	224.22
342.54	224.72
342.93	213.06
343.31	223.81
343.69	224.35
344.07	224.81
344.46	225.23
344.84	225.61
345.22	225.84
345.60	226.09
345.99	226.28
346.37	226.42
346.75	226.52
347.13	226.60
347.52	226.67
347.90	226.76
348.28	226.80
348.66	226.86
349.05	226.85
349.43	226.90
349.81	226.96
350.19	227.01
350.57	227.07
350.96	227.15
351.34	227.25
351.72	227.34
352.10	227.45
352.48	227.52
352.87	227.56
353.25	227.62
353.63	227.68
354.01	227.75
354.39	227.83
354.77	227.90
355.15	228.01
355.54	228.06
355.92	228.09
356.30	228.17
356.68	228.30
357.06	228.38
357.44	228.42
357.82	228.48
358.20	228.60
358.58	228.66
358.97	228.72
359.35	228.79
359.73	228.87
360.11	228.93
360.49	228.98
360.87	229.04
361.25	229.11
361.63	229.19
362.01	229.23
362.39	229.25
362.77	229.30
363.15	229.31
363.53	229.33
363.91	229.36
364.29	229.37
364.67	229.28
365.05	229.31
365.43	229.35
365.81	229.37
366.19	229.38
366.57	229.44
366.95	229.44
367.33	229.42
367.71	229.42
368.09	229.43
368.47	229.42
368.85	229.41
369.23	229.41
369.61	229.35
369.99	229.37
370.37	229.37
370.75	229.44
371.13	229.41
371.51	229.38
371.89	229.36
372.27	229.35
372.65	229.33
373.03	229.29
373.41	229.24
373.78	229.18
374.16	229.08
374.54	228.99
374.92	228.94
375.30	228.89
375.68	228.82
376.06	228.77
376.44	228.71
376.82	228.67
377.19	228.62
377.57	228.58
377.95	228.48
378.33	228.42
378.71	228.25
379.09	228.20
379.47	228.16
379.84	228.10
380.22	228.02
380.60	227.94
380.98	227.89
381.36	227.83
381.73	227.77
382.11	227.75
382.49	227.70
382.87	227.64
383.25	227.61
383.62	227.72
384.00	227.66
384.38	227.62
384.76	227.60
385.13	227.60
385.51	227.57
385.89	227.52
386.27	227.48
386.64	227.48
387.02	227.42
387.40	227.39
387.78	227.37
388.15	227.35
388.53	227.33
388.91	227.31
389.29	227.28
389.66	227.27
390.04	227.23
390.42	227.23
390.79	227.21
391.17	227.19
391.55	227.03
391.92	227.02
392.30	227.02
392.68	226.98
393.05	226.95
393.43	226.95
393.81	226.95
394.18	226.94
394.56	226.94
394.94	226.99
395.31	226.98
395.69	227.02
396.06	227.05
396.44	227.07
396.82	227.08
397.19	227.16
397.57	227.18
397.95	227.23
398.32	227.23
398.70	227.28
399.07	227.34
399.45	227.38
399.82	227.43
400.20	227.46
400.58	227.53
400.95	227.55
401.33	227.63
401.70	227.79
402.08	227.90
402.45	227.98
402.83	228.10
403.20	228.22
403.58	228.31
403.95	228.46
404.33	228.61
404.71	228.75
405.08	228.97
405.46	229.14
405.83	229.32
406.21	229.51
406.58	229.74
406.96	229.95
407.33	230.20
407.70	230.48
408.08	230.87
408.45	231.20
408.83	231.55
409.20	231.88
409.58	232.17
409.95	232.58
410.33	233.03
410.70	233.43
411.08	233.92
411.45	234.44
411.82	234.94
412.20	235.54
412.57	236.26
412.95	236.82
413.32	237.55
413.69	238.31
414.07	239.13
414.44	239.99
414.82	240.88
415.19	241.91
415.56	242.97
415.94	244.06
416.31	245.28
416.68	246.51
417.06	247.93
417.43	249.26
417.81	250.79
418.18	252.34
418.55	254.05
418.93	255.83
419.30	257.68
419.67	259.65
420.04	261.67
420.42	263.76
420.79	266.19
421.16	268.64
421.54	271.13
421.91	273.74
422.28	276.43
422.66	279.34
423.03	282.13
423.40	285.05
423.77	288.19
424.15	291.38
424.52	294.72
424.89	298.34
425.26	301.94
425.64	305.27
426.01	309.03
426.38	312.86
426.75	316.81
427.13	320.88
427.50	325.13
427.87	329.55
428.24	334.03
428.61	338.32
428.99	342.96
429.36	348.03
429.73	352.90
430.10	357.76
430.47	362.76
430.85	367.90
431.22	373.42
431.59	379.08
431.96	384.60
432.33	390.75
432.70	396.60
433.08	403.52
433.45	410.08
433.82	416.53
434.19	423.76
434.56	430.89
434.93	437.77
435.30	444.56
435.68	452.23
436.05	459.75
436.42	467.25
436.79	474.11
437.16	481.51
437.53	489.42
437.90	497.37
438.27	505.11
438.64	513.45
439.01	521.00
439.38	527.94
439.75	534.63
440.13	542.17
440.50	549.33
440.87	554.99
441.24	561.18
441.61	567.96
441.98	572.86
442.35	578.68
442.72	584.60
443.09	590.25
443.46	593.80
443.83	596.37
444.20	598.49
444.57	601.69
444.94	603.45
445.31	605.28
445.68	606.79
446.05	607.86
446.42	607.34
446.79	606.64
447.16	605.98
447.53	605.35
447.90	602.74
448.27	600.26
448.64	596.59
449.01	593.96
449.37	588.92
449.74	584.39
450.11	578.59
450.48	572.27
450.85	565.96
451.22	560.54
451.59	555.26
451.96	550.50
452.33	543.62
452.70	537.52
453.07	530.09
453.43	522.70
453.80	515.56
454.17	508.72
454.54	502.43
454.91	495.33
455.28	488.71
455.65	482.46
456.02	475.88
456.38	470.59
456.75	463.79
457.12	458.33
457.49	452.79
457.86	447.60
458.23	443.08
458.59	438.04
458.96	432.89
459.33	428.36
459.70	423.76
460.07	420.29
460.43	416.20
460.80	412.37
461.17	409.06
461.54	405.44
461.91	402.08
462.27	398.65
462.64	395.91
463.01	392.72
463.38	389.52
463.74	386.64
464.11	384.10
464.48	381.84
464.85	379.36
465.21	377.51
465.58	375.42
465.95	373.00
466.32	371.10
466.68	369.23
467.05	367.36
467.42	365.51
467.78	363.49
468.15	361.65
468.52	360.33
468.88	358.51
469.25	356.86
469.62	355.57
469.98	354.15
470.35	352.86
470.72	351.72
471.08	350.57
471.45	349.58
471.82	348.48
472.18	347.32
472.55	346.58
472.92	345.63
473.28	344.89
473.65	344.09
474.02	343.34
474.38	342.70
474.75	342.32
475.11	341.80
475.48	341.58
475.85	341.33
476.21	341.19
476.58	341.11
476.94	341.25
477.31	341.31
477.67	341.40
478.04	341.63
478.41	341.92
478.77	342.33
479.14	342.60
479.50	343.13
479.87	343.80
480.23	344.47
480.60	345.13
480.96	345.81
481.33	346.80
481.69	347.78
482.06	348.77
482.42	349.67
482.79	350.79
483.15	352.07
483.52	353.54
483.88	354.96
484.25	356.48
484.61	358.06
484.98	359.77
485.34	361.71
485.71	363.71
486.07	365.87
486.44	368.02
486.80	370.42
487.17	372.90
487.53	375.61
487.90	378.45
488.26	381.55
488.62	384.77
488.99	388.01
489.35	391.45
489.72	395.16
490.08	399.07
490.44	403.11
490.81	407.34
491.17	411.64
491.54	416.26
491.90	421.02
492.26	426.11
492.63	431.45
492.99	437.01
493.36	442.78
493.72	448.85
494.08	455.06
494.45	461.66
494.81	468.50
495.17	475.51
495.54	482.90
495.90	490.63
496.26	498.56
496.63	506.70
496.99	515.18
497.35	524.02
497.72	533.14
498.08	542.50
498.44	552.16
498.80	562.40
499.17	572.88
499.53	583.70
499.89	594.88
500.26	606.26
500.62	617.91
500.98	630.22
501.34	642.65
501.71	655.67
502.07	668.82
502.43	682.48
502.79	696.44
503.16	710.84
503.52	725.39
503.88	740.38
504.24	755.83
504.60	771.43
504.97	787.50
505.33	803.95
505.69	821.31
506.05	838.94
506.41	856.57
506.78	874.33
507.14	892.59
507.50	911.30
507.86	930.33
508.22	949.62
508.59	968.74
508.95	988.68
509.31	1009.22
509.67	1030.54
510.03	1051.80
510.39	1073.04
510.75	1094.45
511.12	1116.14
511.48	1137.97
511.84	1159.87
512.20	1182.13
512.56	1205.25
512.92	1228.41
513.28	1251.09
513.64	1273.99
514.00	1297.30
514.37	1320.97
514.73	1344.62
515.09	1368.10
515.45	1391.87
515.81	1415.82
516.17	1439.77
516.53	1463.34
516.89	1486.79
517.25	1510.33
517.61	1533.79
517.97	1557.67
518.33	1580.93
518.69	1604.15
519.05	1627.83
519.41	1651.67
519.77	1675.83
520.13	1699.16
520.49	1722.42
520.85	1745.93
521.21	1769.13
521.57	1792.67
521.93	1815.63
522.29	1839.08
522.65	1861.90
523.01	1884.73
523.37	1907.12
523.73	1930.32
524.09	1953.01
524.45	1975.53
524.81	1997.63
525.17	2019.40
525.53	2040.74
525.89	2062.65
526.25	2084.51
526.61	2105.26
526.97	2126.08
527.33	2146.73
527.68	2167.15
528.04	2186.91
528.40	2205.72
528.76	2224.51
529.12	2242.84
529.48	2260.97
529.84	2277.13
530.20	2294.02
530.56	2310.34
530.91	2326.69
531.27	2342.61
531.63	2357.86
531.99	2372.56
532.35	2386.71
532.71	2401.12
533.07	2415.87
533.42	2428.72
533.78	2442.50
534.14	2456.62
534.50	2469.98
534.86	2483.04
535.21	2494.21
535.57	2505.78
535.93	2517.21
536.29	2527.56
536.65	2537.70
537.00	2547.06
537.36	2557.51
537.72	2566.61
538.08	2575.02
538.44	2582.89
538.79	2590.41
539.15	2597.02
539.51	2603.35
539.87	2608.89
540.22	2612.57
540.58	2616.34
540.94	2621.39
541.29	2625.01
541.65	2626.89
542.01	2628.00
542.37	2628.48
542.72	2630.19
543.08	2630.32
543.44	2631.03
543.79	2630.79
544.15	2629.78
544.51	2629.07
544.87	2627.25
545.22	2624.75
545.58	2621.51
545.94	2618.29
546.29	2613.81
546.65	2609.52
547.01	2605.05
547.36	2601.32
547.72	2597.73
548.07	2592.64
548.43	2586.23
548.79	2578.75
549.14	2572.39
549.50	2566.48
549.86	2559.45
550.21	2551.63
550.57	2544.52
550.92	2535.22
551.28	2526.54
551.64	2518.06
551.99	2509.27
552.35	2499.94
552.70	2490.75
553.06	2482.30
553.41	2473.15
553.77	2463.76
554.13	2454.18
554.48	2444.00
554.84	2432.55
555.19	2421.48
555.55	2410.47
555.90	2399.57
556.26	2389.16
556.61	2377.76
556.97	2364.85
557.32	2352.59
557.68	2340.10
558.03	2327.39
558.39	2315.91
558.74	2304.69
559.10	2291.93
559.45	2279.27
559.81	2267.15
560.16	2254.70
560.52	2242.28
560.87	2230.23
561.23	2217.45
561.58	2204.74
561.94	2191.71
562.29	2178.29
562.64	2165.50
563.00	2152.47
563.35	2139.68
563.71	2126.83
564.06	2113.93
564.42	2101.64
564.77	2088.83
565.12	2075.97
565.48	2063.21
565.83	2050.28
566.19	2037.56
566.54	2024.80
566.89	2011.15
567.25	1997.69
567.60	1985.29
567.96	1972.12
568.31	1957.61
568.66	1943.73
569.02	1931.14
569.37	1918.40
569.72	1906.23
570.08	1892.95
570.43	1879.22
570.78	1865.34
571.14	1850.95
571.49	1837.17
571.84	1823.87
572.20	1809.50
572.55	1795.29
572.90	1781.04
573.26	1766.89
573.61	1752.20
573.96	1737.98
574.31	1723.86
574.67	1709.88
575.02	1694.95
575.37	1679.99
575.72	1666.05
576.08	1652.50
576.43	1637.79
576.78	1623.58
577.13	1609.55
577.49	1595.91
577.84	1582.87
578.19	1569.09
578.54	1555.33
578.90	1541.13
579.25	1526.85
579.60	1514.07
579.95	1501.28
580.30	1488.27
580.66	1474.94
581.01	1461.61
581.36	1448.27
581.71	1435.88
582.06	1423.37
582.42	1411.11
582.77	1399.05
583.12	1386.93
583.47	1374.53
583.82	1362.43
584.17	1349.95
584.53	1337.18
584.88	1324.73
585.23	1311.97
585.58	1299.86
585.93	1288.03
586.28	1276.81
586.63	1265.54
586.98	1253.92
587.34	1242.36
587.69	1230.58
588.04	1219.20
588.39	1208.18
588.74	1197.31
589.09	1186.24
589.44	1174.81
589.79	1163.86
590.14	1153.03
590.49	1142.12
590.84	1131.38
591.19	1120.87
591.54	1110.23
591.89	1099.82
592.25	1089.58
592.60	1079.05
592.95	1068.85
593.30	1058.84
593.65	1048.71
594.00	1038.61
594.35	1029.01
594.70	1018.97
595.05	1009.70
595.40	1000.43
595.75	990.99
596.10	981.98
596.45	972.83
596.80	963.99
597.15	954.98
597.50	946.08
597.85	937.57
598.19	928.89
598.54	920.27
598.89	912.08
599.24	904.12
599.59	895.99
599.94	888.65
600.29	881.21
600.64	873.50
600.99	865.44
601.34	857.80
601.69	849.78
602.04	842.42
602.39	834.94
602.74	827.54
603.08	820.10
603.43	812.61
603.78	805.30
604.13	798.05
604.48	790.80
604.83	783.74
605.18	776.59
605.53	769.68
605.87	762.62
606.22	755.80
606.57	748.94
606.92	742.00
607.27	735.06
607.62	728.34
607.96	721.99
608.31	716.03
608.66	709.87
609.01	704.02
609.36	698.27
609.70	692.34
610.05	686.31
610.40	680.56
610.75	674.82
611.10	669.33
611.44	663.77
611.79	658.32
612.14	652.77
612.49	647.27
612.83	642.03
613.18	636.90
613.53	631.71
613.88	626.55
614.22	621.78
614.57	616.93
614.92	611.96
615.27	607.06
615.61	602.22
615.96	597.47
616.31	592.71
616.65	588.02
617.00	583.47
617.35	579.02
617.70	574.61
618.04	570.29
618.39	565.92
618.74	561.73
619.08	557.59
619.43	553.56
619.78	549.55
620.12	545.53
620.47	541.64
620.82	537.85
621.16	534.12
621.51	530.28
621.85	526.46
622.20	522.80
622.55	519.19
622.89	515.63
623.24	512.06
623.59	508.52
623.93	505.10
624.28	501.78
624.62	498.57
624.97	495.40
625.32	492.17
625.66	488.89
626.01	485.61
626.35	482.36
626.70	479.16
627.04	476.13
627.39	473.05
627.73	470.09
628.08	467.21
628.43	464.32
628.77	461.50
629.12	458.81
629.46	456.16
629.81	453.41
630.15	450.67
630.50	448.01
630.84	445.40
631.19	442.84
631.53	440.39
631.88	437.86
632.22	435.35
632.57	433.11
632.91	430.92
633.26	428.81
633.60	426.70
633.95	424.65
634.29	422.53
634.64	420.46
634.98	418.24
635.32	416.16
635.67	414.24
636.01	412.24
636.36	410.26
636.70	408.39
637.05	406.55
637.39	404.74
637.73	402.98
638.08	401.30
638.42	399.60
638.77	397.80
639.11	395.92
639.45	394.14
639.80	392.28
640.14	390.51
640.49	388.72
640.83	386.92
641.17	385.19
641.52	383.53
641.86	381.89
642.20	380.40
642.55	378.77
642.89	377.16
643.23	375.64
643.58	374.25
643.92	372.76
644.26	371.30
644.61	369.88
644.95	368.42
645.29	366.89
645.64	365.38
645.98	363.95
646.32	362.65
646.66	361.31
647.01	360.00
647.35	358.73
647.69	357.44
648.04	356.28
648.38	355.04
648.72	353.81
649.06	352.56
649.41	351.35
649.75	350.18
650.09	349.03
650.43	347.85
650.78	346.64
651.12	345.48
651.46	344.35
651.80	343.26
652.14	342.17
652.49	341.15
652.83	340.10
653.17	339.09
653.51	338.11
653.85	337.17
654.20	336.19
654.54	335.13
654.88	334.15
655.22	333.18
655.56	332.21
655.90	331.28
656.25	330.41
656.59	329.50
656.93	328.64
657.27	327.78
657.61	326.90
657.95	326.05
658.29	325.17
658.64	324.35
658.98	323.51
659.32	322.68
659.66	321.92
660.00	321.16
660.34	320.40
660.68	319.62
661.02	318.82
661.36	318.04
661.70	317.29
662.05	316.54
662.39	315.80
662.73	315.15
663.07	314.51
663.41	313.81
663.75	313.10
664.09	312.40
664.43	311.66
664.77	311.00
665.11	310.30
665.45	309.67
665.79	309.03
666.13	308.37
666.47	307.69
666.81	306.98
667.15	306.26
667.49	305.62
667.83	305.02
668.17	304.40
668.51	303.81
668.85	303.27
669.19	302.77
669.53	302.17
669.87	301.54
670.21	300.91
670.55	300.33
670.89	299.84
671.23	299.29
671.57	298.77
671.91	298.28
672.25	297.81
672.58	297.34
672.92	296.79
673.26	296.32
673.60	295.86
673.94	295.40
674.28	294.98
674.62	294.52
674.96	294.00
675.30	293.56
675.64	293.07
675.97	292.55
676.31	292.03
676.65	291.54
676.99	291.12
677.33	290.64
677.67	290.17
678.01	289.64
678.34	289.19
678.68	288.76
679.02	288.27
679.36	287.79
679.70	287.31
680.04	286.86
680.37	286.41
680.71	285.97
681.05	285.56
681.39	285.10
681.73	284.63
682.06	284.18
682.40	283.72
682.74	283.34
683.08	283.00
683.42	282.58
683.75	282.20
684.09	281.74
684.43	281.33
684.77	280.92
685.10	280.57
685.44	280.18
685.78	279.78
686.12	279.41
686.45	279.00
686.79	278.59
687.13	278.22
687.46	277.81
687.80	277.42
688.14	276.98
688.48	276.60
688.81	276.21
689.15	275.84
689.49	275.44
689.82	275.04
690.16	274.58
690.50	274.19
690.83	273.81
691.17	273.42
691.51	273.05
691.84	272.70
692.18	272.30
692.52	271.90
692.85	271.51
693.19	271.16
693.52	270.79
693.86	270.43
694.20	270.05
694.53	269.69
694.87	269.31
695.21	268.94
695.54	268.58
695.88	268.20
696.21	267.80
696.55	267.44
696.88	267.09
697.22	266.73
697.56	266.39
697.89	265.99
698.23	265.63
698.56	265.24
698.90	264.89
699.23	264.52
699.57	264.16
699.90	263.79
700.24	263.40
700.58	263.08
700.91	262.78
701.25	262.56
701.58	262.29
701.92	262.01
702.25	261.71
702.59	261.38
702.92	261.08
703.26	260.76
703.59	260.42
703.93	260.20
704.26	259.91
704.60	259.58
704.93	259.27
705.26	258.95
705.60	258.70
705.93	258.37
706.27	258.11
706.60	257.86
706.94	257.62
707.27	257.30
707.61	257.00
707.94	256.68
708.27	256.25
708.61	255.90
708.94	255.57
709.28	255.28
709.61	254.98
709.94	254.72
710.28	254.46
710.61	254.22
710.95	253.84
711.28	253.66
711.61	253.39
711.95	253.17
712.28	252.90
712.61	252.61
712.95	252.42
713.28	252.23
713.61	251.95
713.95	251.65
714.28	251.44
714.61	251.18
714.95	250.94
715.28	250.71
715.61	250.49
715.95	250.27
716.28	250.05
716.61	249.87
716.95	249.64
717.28	249.42
717.61	249.18
717.94	248.97
718.28	248.65
718.61	248.44
718.94	248.20
719.27	247.99
719.61	247.81
719.94	247.57
720.27	247.29
720.60	247.08
720.94	246.89
721.27	246.69
721.60	246.51
721.93	246.32
722.27	246.16
722.60	245.99
722.93	245.79
723.26	245.61
723.59	245.37
723.93	245.19
724.26	245.01
724.59	244.83
724.92	244.66
725.25	244.54
725.59	244.36
725.92	244.21
726.25	244.05
726.58	243.89
726.91	243.71
727.24	243.57
727.57	243.40
727.91	243.22
728.24	243.09
728.57	242.92
728.90	242.77
729.23	242.58
729.56	242.47
729.89	242.31
730.22	242.13
730.55	241.99
730.89	241.85
731.22	241.69
731.55	241.54
731.88	241.39
732.21	241.22
732.54	241.06
732.87	240.93
733.20	240.80
733.53	240.64
733.86	240.52
734.19	240.35
734.52	240.23
734.85	240.19
735.18	240.02
735.51	239.92
735.84	239.78
736.17	239.69
736.50	239.50
736.83	239.53
737.16	239.42
737.49	239.31
737.82	239.19
738.15	239.09
738.48	238.97
738.81	238.85
739.14	238.72
739.47	238.61
739.80	238.47
740.13	238.35
740.46	238.23
740.79	238.09
741.12	237.99
741.45	237.86
741.78	237.67
742.11	237.60
742.44	237.46
742.77	237.37
743.10	237.24
743.43	237.13
743.75	236.89
744.08	236.97
744.41	236.86
744.74	236.75
745.07	236.63
745.40	236.54
745.73	236.49
746.06	236.40
746.39	236.31
746.71	236.21
747.04	236.11
747.37	236.02
747.70	235.95
748.03	235.86
748.36	235.79
748.68	235.70
749.01	235.57
749.34	235.49
749.67	235.40
750.00	235.33
750.33	235.33
750.65	235.24
750.98	234.97
751.31	234.88
751.64	234.79
751.97	234.77
752.29	234.68
752.62	234.54
752.95	234.45
753.28	234.35
753.60	234.27
753.93	234.21
754.26	234.13
754.59	234.01
754.91	233.92
755.24	233.83
755.57	233.80
755.90	233.72
756.22	233.63
756.55	233.52
756.88	233.43
757.20	233.27
757.53	233.16
757.86	233.09
758.19	233.02
758.51	232.94
758.84	232.82
759.17	232.74
759.49	232.68
759.82	232.67
760.15	232.62
760.47	232.55
760.80	232.44
761.13	232.40
761.45	232.34
761.78	232.28
762.11	232.22
762.43	232.09
762.76	232.03
763.08	231.98
763.41	231.93
763.74	231.88
764.06	231.82
764.39	231.77
764.71	231.72
765.04	231.66
765.37	231.61
765.69	231.55
766.02	231.48
766.34	231.42
766.67	231.31
767.00	231.29
767.32	231.30
767.65	231.33
767.97	231.26
768.30	231.22
768.62	231.16
768.95	231.09
769.27	231.04
769.60	231.01
769.92	230.94
770.25	230.87
770.57	230.80
770.90	230.75
771.22	230.70
771.55	230.64
771.87	230.60
772.20	230.54
772.52	230.61
772.85	230.73
773.17	230.69
773.50	230.65
773.82	230.58
774.15	230.48
774.47	230.36
774.80	230.32
775.12	230.28
775.45	230.25
775.77	230.23
776.09	230.20
776.42	230.17
776.74	230.18
777.07	230.14
777.39	230.11
777.72	230.07
778.04	230.07
778.36	230.03
778.69	229.99
779.01	229.98
779.33	229.83
779.66	229.66
779.98	229.62
780.31	229.59
780.63	229.62
780.95	229.63
781.28	229.60
781.60	229.57
781.92	229.55
782.25	229.52
782.57	229.49
782.89	229.46
783.22	229.42
783.54	229.37
783.86	229.36
784.19	229.34
784.51	229.35
784.83	229.30
785.16	229.27
785.48	229.25
785.80	229.21
786.12	229.21
786.45	229.18
786.77	229.17
787.09	229.13
787.42	229.05
787.74	229.03
788.06	229.01
788.38	228.98
788.71	228.95
789.03	228.93
789.35	228.93
789.67	228.89
789.99	228.89
790.32	228.86
790.64	228.84
790.96	228.94
791.28	228.87
791.61	228.85
791.93	228.84
792.25	228.81
792.57	228.89
792.89	228.84
793.21	228.84
793.54	228.81
793.86	228.80
794.18	228.78
794.50	228.76
794.82	228.74
795.14	228.74
795.47	228.74
795.79	228.73
796.11	228.69
796.43	228.66
796.75	228.64
797.07	228.63
797.39	228.61
797.71	228.49
798.04	228.48
798.36	228.48
798.68	228.46
799.00	228.46
799.32	228.39
799.64	228.39
799.96	228.37
800.28	228.38
800.60	228.35
800.92	228.34
801.24	228.31
801.56	228.31
801.89	228.28
802.21	228.28
802.53	228.24
802.85	228.25
803.17	228.30
803.49	228.28
803.81	228.25
804.13	228.23
804.45	228.21
804.77	228.21
805.09	228.19
805.41	228.17
805.73	228.14
806.05	228.09
806.37	228.06
806.69	228.05
807.01	228.02
807.33	228.03
807.65	227.99
807.97	228.03
808.28	227.99
808.60	227.98
808.92	227.95
809.24	228.02
809.56	227.99
809.88	227.93
810.20	227.92
810.52	227.93
810.84	227.90
811.16	227.87
811.48	227.85
811.80	227.89
812.12	227.88
812.43	227.89
812.75	227.89
813.07	227.87
813.39	227.87
813.71	227.84
814.03	227.82
814.35	227.81
814.67	227.75
814.98	227.73
815.30	227.72
815.62	227.70
815.94	227.61
816.26	227.61
816.58	227.57
816.89	227.57
817.21	227.54
817.53	227.55
817.85	227.55
818.17	227.54
818.48	227.48
818.80	227.49
819.12	227.47
819.44	227.45
819.76	227.44
820.07	227.44
820.39	227.43
820.71	227.43
821.03	227.43
821.34	227.41
821.66	227.42
821.98	227.43
822.30	227.41
822.61	227.49
822.93	227.47
823.25	227.48
823.57	227.46
823.88	227.46
824.20	227.45
824.52	227.46
824.83	227.46
825.15	227.44
825.47	227.43
825.79	227.43
826.10	227.41
826.42	227.38
826.74	227.38
827.05	227.38
827.37	227.38
827.69	227.36
828.00	227.36
828.32	227.35
828.64	227.32
828.95	227.39
829.27	227.34
829.58	227.33
829.90	227.35
830.22	227.36
830.53	227.33
830.85	227.32
831.17	227.28
831.48	227.28
831.80	227.28
832.11	227.27
832.43	227.25
832.75	227.25
833.06	227.33
833.38	227.29
833.69	227.27
834.01	227.27
834.32	227.27
834.64	227.26
834.96	227.26
835.27	227.26
835.59	227.22
835.90	227.19
836.22	227.19
836.53	227.15
836.85	227.14
837.16	227.26
837.48	227.27
837.79	227.30
838.11	227.30
838.42	227.30
838.74	227.32
839.05	227.30
839.37	227.30
839.68	227.22
840.00	227.21
840.31	227.23
840.63	227.22
840.94	227.21
841.26	227.18
841.57	227.18
841.88	227.18
842.20	227.17
842.51	227.14
842.83	227.14
843.14	227.25
843.46	227.25
843.77	227.17
844.08	227.16
844.40	227.12
844.71	227.11
845.03	227.09
845.34	227.07
845.65	227.07
845.97	227.06
846.28	227.07
846.60	227.09
846.91	227.07
847.22	227.05
847.54	227.08
847.85	227.09
848.16	227.09
848.48	227.07
848.79	227.11
849.10	227.13
849.42	227.13
849.73	227.01
850.04	227.01
850.36	226.97
850.67	226.98
850.98	226.97
851.30	226.99
851.61	226.98
851.92	226.98
852.23	227.02
852.55	227.02
852.86	227.02
853.17	227.02
853.49	227.04
853.80	227.07
854.11	227.06
854.42	227.08
854.74	227.05
855.05	227.05
855.36	226.98
855.67	226.98
855.99	226.98
856.30	227.12
856.61	227.12
856.92	227.11
857.23	227.11
857.55	227.10
857.86	227.08
858.17	227.10
858.48	227.07
858.79	227.04
859.11	227.04
859.42	227.03
859.73	227.01
860.04	227.00
860.35	226.96
860.66	226.92
860.98	226.91
861.29	226.93
861.60	226.91
861.91	226.94
862.22	226.92
862.53	226.90
862.84	226.76
863.16	226.78
863.47	226.76
863.78	226.74
864.09	226.75
864.40	226.76
864.71	226.75
865.02	226.77
865.33	226.76
865.64	226.74
865.95	226.74
866.27	226.81
866.58	226.80
866.89	226.82
867.20	226.81
867.51	226.80
867.82	226.80
868.13	226.83
868.44	226.80
868.75	226.83
869.06	226.83
869.37	226.83
869.68	226.79
869.99	226.82
870.30	226.83
870.61	226.83
870.92	226.83
871.23	226.81
871.54	226.83
871.85	226.85
872.16	226.87
872.47	226.86
872.78	226.79
873.09	226.80
873.40	226.79
873.71	226.80
874.02	226.81
874.33	226.80
874.64	226.77
874.95	226.80
875.26	226.77
875.56	226.76
875.87	226.76
876.18	226.76
876.49	226.88
876.80	226.87
877.11	226.85
877.42	226.85
877.73	226.86
878.04	226.82
878.35	226.83
878.66	226.83
878.96	226.83
879.27	226.83
879.58	226.82
879.89	226.81
880.20	226.85
880.51	226.84
880.82	226.83
881.12	226.84
881.43	226.81
881.74	226.80
882.05	226.80
882.36	226.80
882.67	226.81
882.97	226.67
883.28	226.65
883.59	226.65
883.90	226.66
884.21	226.67
884.51	226.67
884.82	226.65
885.13	226.65
885.44	226.65
885.74	226.64
886.05	226.64
886.36	226.64
886.67	226.59
886.98	226.65
887.28	226.66
887.59	226.66
887.90	226.66
888.20	226.66
888.51	226.69
888.82	226.68
889.13	226.68
889.43	226.79
889.74	226.78
890.05	226.78
890.35	226.77
890.66	226.75
890.97	226.74
891.28	226.73
891.58	226.73
891.89	226.73
892.20	226.72
892.50	226.71
892.81	226.71
893.12	226.70
893.42	226.64
893.73	226.65
894.04	226.65
894.34	226.65
894.65	226.65
894.95	226.63
895.26	226.64
895.57	226.70
895.87	226.57
896.18	226.59
896.48	226.60
896.79	226.59
897.10	226.61
897.40	226.60
897.71	226.61
898.01	226.59
898.32	226.60
898.63	226.59
898.93	226.60
899.24	226.59
899.54	226.59
899.85	226.58
900.15	226.56
900.46	226.55
900.76	226.56
901.07	226.56
901.38	226.55
901.68	226.56
901.99	226.49
902.29	226.50
902.60	226.49
902.90	226.48
903.21	226.48
903.51	226.47
903.82	226.50
904.12	226.50
904.43	226.52
904.73	226.51
905.03	226.52
905.34	226.64
905.64	226.65
905.95	226.66
906.25	226.65
906.56	226.66
906.86	226.66
907.17	226.65
907.47	226.66
907.77	226.64
908.08	226.62
908.38	226.62
908.69	226.64
908.99	226.66
909.30	226.66
909.60	226.66
909.90	226.68
910.21	226.64
910.51	226.62
910.81	226.62
911.12	226.62
911.42	226.63
911.73	226.49
912.03	226.50
912.33	226.52
912.64	226.51
912.94	226.50
913.24	226.48
913.55	226.47
913.85	226.46
914.15	226.48
914.46	226.50
914.76	226.48
915.06	226.46
915.37	226.44
915.67	226.42
915.97	226.43
916.27	226.39
916.58	226.41
916.88	226.41
917.18	226.41
917.49	226.49
917.79	226.47
918.09	226.49
918.39	226.52
918.70	226.52
919.00	226.53
919.30	226.58
919.60	226.57
919.91	226.57
920.21	226.58
920.51	226.56
920.81	226.54
921.12	226.57
921.42	226.56
921.72	226.57
922.02	226.58
922.32	226.59
922.63	226.60
922.93	226.68
923.23	226.67
923.53	226.66
923.83	226.56
924.13	226.58
924.44	226.57
924.74	226.59
925.04	226.61
925.34	226.60
925.64	226.56
925.94	226.56
926.24	226.63
926.55	226.61
926.85	226.62
927.15	226.63
927.45	226.62
927.75	226.62
928.05	226.62
928.35	226.59
928.65	226.60
928.95	226.61
929.26	226.55
929.56	226.58
929.86	226.59
930.16	226.59
930.46	226.58
930.76	226.58
931.06	226.52
931.36	226.48
931.66	226.50
931.96	226.51
932.26	226.52
932.56	226.46
932.86	226.48
933.16	226.48
933.46	226.46
933.76	226.45
934.06	226.46
934.36	226.51
934.66	226.51
934.96	226.50
935.26	226.50
935.56	226.51
935.86	226.48
936.16	226.47
936.46	226.47
936.76	226.47
937.06	226.46
937.36	226.47
937.66	226.48
937.96	226.47
938.26	226.44
938.56	226.43
938.86	226.43
939.16	226.45
939.46	226.46
939.76	226.47
940.06	226.46
940.35	226.44
940.65	226.37
940.95	226.40
941.25	226.37
941.55	226.37
941.85	226.34
942.15	226.37
942.45	226.40
942.75	226.40
943.04	226.40
943.34	226.42
943.64	226.41
943.94	226.39
944.24	226.38
944.54	226.39
944.84	226.39
945.13	226.38
945.43	226.36
945.73	226.35
946.03	226.35
946.33	226.34
946.62	226.34
946.92	226.34
947.22	226.33
947.52	226.34
947.82	226.35
948.11	226.34
948.41	226.32
948.71	226.27
949.01	226.27
949.31	226.26
949.60	226.24
949.90	226.27
950.20	226.27
950.50	226.26
950.79	226.26
951.09	226.28
951.39	226.28
951.69	226.27
951.98	226.29
952.28	226.29
952.58	226.29
952.87	226.29
953.17	226.32
953.47	226.30
953.76	226.30
954.06	226.27
954.36	226.26
954.66	226.27
954.95	226.30
955.25	226.32
955.55	226.32
955.84	226.31
956.14	226.30
956.44	226.31
956.73	226.28
957.03	226.29
957.32	226.28
957.62	226.27
957.92	226.30
958.21	226.28
958.51	226.42
958.81	226.44
959.10	226.45
959.40	226.47
959.69	226.48
959.99	226.50
960.29	226.50
960.58	226.49
960.88	226.54
961.17	226.51
961.47	226.51
961.76	226.51
962.06	226.53
962.36	226.51
962.65	226.52
962.95	226.53
963.24	226.52
963.54	226.53
963.83	226.54
964.13	226.53
964.42	226.51
964.72	226.39
965.01	226.39
965.31	226.39
965.60	226.36
965.90	226.44
966.19	226.41
966.49	226.41
966.78	226.40
967.08	226.38
967.37	226.39
967.67	226.38
967.96	226.40
968.26	226.40
968.55	226.43
968.85	226.42
969.14	226.41
969.43	226.41
969.73	226.40
970.02	226.40
970.32	226.39
970.61	226.37
970.91	226.35
971.20	226.33
971.49	226.31
971.79	226.33
972.08	226.24
972.38	226.25
972.67	226.25
972.96	226.28
973.26	226.25
973.55	226.29
973.85	226.28
974.14	226.27
974.43	226.28
974.73	226.25
975.02	226.24
975.31	226.25
975.61	226.25
975.90	226.24
976.19	226.24
976.49	226.25
976.78	226.26
977.07	226.26
977.37	226.27
977.66	226.29
977.95	226.28
978.24	226.29
978.54	226.31
978.83	226.31
979.12	226.31
979.42	226.30
979.71	226.28
980.00	226.28
980.29	226.29
980.59	226.26
980.88	226.30
981.17	226.30
981.46	226.30
981.76	226.31
982.05	226.34
982.34	226.36
982.63	226.35
982.93	226.35
983.22	226.38
983.51	226.38
983.80	226.39
984.09	226.41
984.39	226.39
984.68	226.38
984.97	226.37
985.26	226.36
985.55	226.38
985.85	226.36
986.14	226.38
986.43	226.39
986.72	226.38
987.01	226.35
987.30	226.35
987.59	226.35
987.89	226.35
988.18	226.32
988.47	226.31
988.76	226.30
989.05	226.29
989.34	226.27
989.63	226.30
989.92	226.28
990.22	226.26
990.51	226.26
990.80	226.25
991.09	226.27
991.38	226.28
991.67	226.27
991.96	226.25
992.25	226.25
992.54	226.23
992.83	226.23
993.12	226.22
993.41	226.24
993.70	226.28
993.99	226.30
994.28	226.31
994.58	226.32
994.87	226.31
995.16	226.30
995.45	226.29
995.74	226.24
996.03	226.26
996.32	226.29
996.61	226.31
996.90	226.31
997.19	226.29
997.48	226.29
997.77	226.27
998.06	226.29
998.34	226.27
998.63	226.27
998.92	226.28
999.21	226.30
999.50	226.30
999.79	226.26
1000.08	226.26
1000.37	226.25
1000.66	226.24
1000.95	226.28
1001.24	226.28
1001.53	226.31
1001.82	226.31
1002.11	226.28
1002.40	226.28
1002.68	226.31
1002.97	226.39
1003.26	226.38
1003.55	226.37
1003.84	226.39
1004.13	226.43
1004.42	226.43
1004.71	226.44
1004.99	226.43
1005.28	226.45
1005.57	226.44
1005.86	226.43
1006.15	226.42
1006.44	226.41
1006.72	226.42
1007.01	226.39
1007.30	226.39
1007.59	226.38
1007.88	226.38
1008.17	226.38
1008.45	226.35
1008.74	226.30
1009.03	226.25
1009.32	226.25
1009.60	226.25
1009.89	226.25
1010.18	226.19
1010.47	226.19
1010.76	226.18
1011.04	226.18
1011.33	226.17
1011.62	226.19
1011.91	226.20
1012.19	226.20
1012.48	226.20
1012.77	226.19
1013.05	226.25
1013.34	226.26
1013.63	226.25
1013.92	226.26
1014.20	226.25
1014.49	226.26
1014.78	226.28
1015.06	226.23
1015.35	226.23
1015.64	226.24
1015.92	226.25
1016.21	226.27
1016.50	226.27
1016.78	226.28
1017.07	226.29
1017.36	226.25
1017.64	226.23
1017.93	226.24
1018.22	226.23
1018.50	226.23
1018.79	226.23
1019.08	226.18
1019.36	226.18
1019.65	226.18
1019.93	226.20
1020.22	226.23
1020.51	226.29
1020.79	226.27
1021.08	226.07
1021.36	226.02
1021.65	226.26
1021.94	226.16
1022.22	226.40
1022.51	225.95
1022.79	226.78
1023.08	226.49
1023.36	227.72
1023.65	225.92
>>>>>End Processed Spectral Data<<<<<
