SpectraSuite Data File
++++++++++++++++++++++++++++++++++++
Date: Fri Oct 02 19:17:48 EDT 2015
User: lab3
Dark Spectrum Present: No
Reference Spectrum Present: No
Number of Sampled Component Spectra: 1
Spectrometers: USB2E7196
Integration Time (usec): 46000 (USB2E7196)
Spectra Averaged: 1500 (USB2E7196)
Boxcar Smoothing: 10 (USB2E7196)
Correct for Electrical Dark: No (USB2E7196)
Strobe/Lamp Enabled: No (USB2E7196)
Correct for Detector Non-linearity: No (USB2E7196)
Correct for Stray Light: No (USB2E7196)
Number of Pixels in Processed Spectrum: 2048
>>>>>Begin Processed Spectral Data<<<<<
339.09	0.00
339.48	215.31
339.86	216.59
340.24	218.34
340.63	219.42
341.01	222.78
341.39	222.14
341.78	223.62
342.16	224.80
342.54	225.18
342.93	213.63
343.31	224.41
343.69	224.95
344.07	225.41
344.46	225.83
344.84	226.22
345.22	226.44
345.60	226.70
345.99	226.89
346.37	227.02
346.75	227.13
347.13	227.20
347.52	227.26
347.90	227.36
348.28	227.40
348.66	227.46
349.05	227.45
349.43	227.51
349.81	227.58
350.19	227.64
350.57	227.71
350.96	227.79
351.34	227.89
351.72	227.99
352.10	228.11
352.48	228.18
352.87	228.24
353.25	228.29
353.63	228.35
354.01	228.43
354.39	228.50
354.77	228.59
355.15	228.71
355.54	228.76
355.92	228.79
356.30	228.87
356.68	229.02
357.06	229.10
357.44	229.14
357.82	229.19
358.20	229.31
358.58	229.37
358.97	229.44
359.35	229.52
359.73	229.62
360.11	229.67
360.49	229.73
360.87	229.78
361.25	229.85
361.63	229.93
362.01	229.99
362.39	230.03
362.77	230.08
363.15	230.10
363.53	230.13
363.91	230.18
364.29	230.20
364.67	230.10
365.05	230.13
365.43	230.17
365.81	230.20
366.19	230.22
366.57	230.27
366.95	230.28
367.33	230.27
367.71	230.26
368.09	230.28
368.47	230.29
368.85	230.28
369.23	230.29
369.61	230.24
369.99	230.25
370.37	230.25
370.75	230.32
371.13	230.29
371.51	230.24
371.89	230.21
372.27	230.20
372.65	230.17
373.03	230.14
373.41	230.08
373.78	230.04
374.16	229.93
374.54	229.85
374.92	229.79
375.30	229.74
375.68	229.67
376.06	229.63
376.44	229.56
376.82	229.52
377.19	229.46
377.57	229.41
377.95	229.32
378.33	229.26
378.71	229.10
379.09	229.06
379.47	229.03
379.84	228.96
380.22	228.89
380.60	228.82
380.98	228.77
381.36	228.72
381.73	228.65
382.11	228.62
382.49	228.58
382.87	228.51
383.25	228.46
383.62	228.55
384.00	228.47
384.38	228.44
384.76	228.42
385.13	228.41
385.51	228.37
385.89	228.31
386.27	228.28
386.64	228.27
387.02	228.22
387.40	228.17
387.78	228.13
388.15	228.11
388.53	228.09
388.91	228.05
389.29	228.02
389.66	228.02
390.04	227.98
390.42	227.98
390.79	227.96
391.17	227.95
391.55	227.80
391.92	227.80
392.30	227.79
392.68	227.75
393.05	227.73
393.43	227.74
393.81	227.74
394.18	227.72
394.56	227.71
394.94	227.74
395.31	227.75
395.69	227.80
396.06	227.82
396.44	227.85
396.82	227.86
397.19	227.95
397.57	227.96
397.95	228.00
398.32	228.00
398.70	228.05
399.07	228.11
399.45	228.14
399.82	228.19
400.20	228.23
400.58	228.29
400.95	228.30
401.33	228.38
401.70	228.53
402.08	228.63
402.45	228.71
402.83	228.83
403.20	228.94
403.58	229.02
403.95	229.15
404.33	229.30
404.71	229.44
405.08	229.65
405.46	229.81
405.83	229.98
406.21	230.17
406.58	230.38
406.96	230.60
407.33	230.84
407.70	231.11
408.08	231.48
408.45	231.80
408.83	232.15
409.20	232.46
409.58	232.74
409.95	233.14
410.33	233.56
410.70	233.96
411.08	234.42
411.45	234.92
411.82	235.43
412.20	236.01
412.57	236.71
412.95	237.23
413.32	237.93
413.69	238.66
414.07	239.42
414.44	240.24
414.82	241.08
415.19	242.08
415.56	243.08
415.94	244.11
416.31	245.28
416.68	246.45
417.06	247.81
417.43	249.08
417.81	250.54
418.18	252.03
418.55	253.66
418.93	255.35
419.30	257.11
419.67	258.98
420.04	260.91
420.42	262.91
420.79	265.24
421.16	267.57
421.54	269.94
421.91	272.44
422.28	275.02
422.66	277.79
423.03	280.46
423.40	283.25
423.77	286.23
424.15	289.28
424.52	292.46
424.89	295.90
425.26	299.34
425.64	302.51
426.01	306.09
426.38	309.75
426.75	313.53
427.13	317.40
427.50	321.45
427.87	325.66
428.24	329.92
428.61	333.99
428.99	338.44
429.36	343.28
429.73	347.93
430.10	352.57
430.47	357.32
430.85	362.20
431.22	367.45
431.59	372.87
431.96	378.14
432.33	384.00
432.70	389.59
433.08	396.18
433.45	402.44
433.82	408.58
434.19	415.46
434.56	422.22
434.93	428.76
435.30	435.22
435.68	442.53
436.05	449.68
436.42	456.81
436.79	463.30
437.16	470.34
437.53	477.85
437.90	485.37
438.27	492.72
438.64	500.66
439.01	507.85
439.38	514.41
439.75	520.73
440.13	527.86
440.50	534.62
440.87	539.97
441.24	545.84
441.61	552.24
441.98	556.86
442.35	562.38
442.72	567.98
443.09	573.31
443.46	576.65
443.83	579.07
444.20	581.05
444.57	584.07
444.94	585.70
445.31	587.41
445.68	588.80
446.05	589.79
446.42	589.27
446.79	588.55
447.16	587.89
447.53	587.28
447.90	584.81
448.27	582.42
448.64	578.92
449.01	576.41
449.37	571.64
449.74	567.31
450.11	561.77
450.48	555.74
450.85	549.74
451.22	544.58
451.59	539.53
451.96	534.98
452.33	528.44
452.70	522.64
453.07	515.58
453.43	508.56
453.80	501.75
454.17	495.22
454.54	489.23
454.91	482.49
455.28	476.19
455.65	470.23
456.02	463.98
456.38	458.93
456.75	452.45
457.12	447.23
457.49	441.98
457.86	437.05
458.23	432.73
458.59	427.94
458.96	423.05
459.33	418.76
459.70	414.39
460.07	411.07
460.43	407.16
460.80	403.51
461.17	400.36
461.54	396.93
461.91	393.74
462.27	390.50
462.64	387.88
463.01	384.84
463.38	381.79
463.74	379.05
464.11	376.64
464.48	374.47
464.85	372.09
465.21	370.33
465.58	368.33
465.95	366.03
466.32	364.21
466.68	362.41
467.05	360.60
467.42	358.83
467.78	356.92
468.15	355.17
468.52	353.91
468.88	352.19
469.25	350.61
469.62	349.37
469.98	348.01
470.35	346.81
470.72	345.71
471.08	344.60
471.45	343.67
471.82	342.63
472.18	341.54
472.55	340.83
472.92	339.91
473.28	339.21
473.65	338.47
474.02	337.74
474.38	337.14
474.75	336.79
475.11	336.30
475.48	336.10
475.85	335.85
476.21	335.71
476.58	335.62
476.94	335.76
477.31	335.83
477.67	335.91
478.04	336.11
478.41	336.39
478.77	336.81
479.14	337.05
479.50	337.53
479.87	338.17
480.23	338.80
480.60	339.44
480.96	340.08
481.33	341.03
481.69	341.97
482.06	342.91
482.42	343.77
482.79	344.83
483.15	346.03
483.52	347.44
483.88	348.78
484.25	350.23
484.61	351.73
484.98	353.36
485.34	355.19
485.71	357.09
486.07	359.14
486.44	361.16
486.80	363.43
487.17	365.81
487.53	368.40
487.90	371.11
488.26	374.06
488.62	377.18
488.99	380.29
489.35	383.56
489.72	387.12
490.08	390.85
490.44	394.73
490.81	398.75
491.17	402.86
491.54	407.29
491.90	411.87
492.26	416.76
492.63	421.88
492.99	427.24
493.36	432.77
493.72	438.60
494.08	444.58
494.45	450.94
494.81	457.53
495.17	464.28
495.54	471.44
495.90	478.87
496.26	486.47
496.63	494.33
496.99	502.51
497.35	511.05
497.72	519.89
498.08	528.90
498.44	538.26
498.80	548.17
499.17	558.33
499.53	568.80
499.89	579.63
500.26	590.70
500.62	602.04
500.98	614.01
501.34	626.16
501.71	638.81
502.07	651.63
502.43	665.01
502.79	678.60
503.16	692.62
503.52	706.85
503.88	721.50
504.24	736.57
504.60	751.89
504.97	767.68
505.33	783.89
505.69	800.99
506.05	818.41
506.41	835.80
506.78	853.35
507.14	871.40
507.50	889.94
507.86	908.80
508.22	927.91
508.59	946.86
508.95	966.62
509.31	987.10
509.67	1008.26
510.03	1029.41
510.39	1050.67
510.75	1072.12
511.12	1093.84
511.48	1115.71
511.84	1137.72
512.20	1160.11
512.56	1183.34
512.92	1206.61
513.28	1229.55
513.64	1252.77
514.00	1276.40
514.37	1300.34
514.73	1324.32
515.09	1348.16
515.45	1372.36
515.81	1396.71
516.17	1421.25
516.53	1445.33
516.89	1469.30
517.25	1493.46
517.61	1517.53
517.97	1542.06
518.33	1566.15
518.69	1590.17
519.05	1614.74
519.41	1639.56
519.77	1664.57
520.13	1688.91
520.49	1713.20
520.85	1737.77
521.21	1761.92
521.57	1786.50
521.93	1810.64
522.29	1835.24
522.65	1859.36
523.01	1883.46
523.37	1907.18
523.73	1931.57
524.09	1955.72
524.45	1979.72
524.81	2003.38
525.17	2026.91
525.53	2049.87
525.89	2073.27
526.25	2096.66
526.61	2119.01
526.97	2141.55
527.33	2164.06
527.68	2186.32
528.04	2207.78
528.40	2228.38
528.76	2249.25
529.12	2269.62
529.48	2289.65
529.84	2307.98
530.20	2326.94
530.56	2345.32
530.91	2363.85
531.27	2382.08
531.63	2399.46
531.99	2416.41
532.35	2432.69
532.71	2449.13
533.07	2466.20
533.42	2481.53
533.78	2497.84
534.14	2514.37
534.50	2529.93
534.86	2545.27
535.21	2558.69
535.57	2572.62
535.93	2586.36
536.29	2598.92
536.65	2611.37
537.00	2623.18
537.36	2635.90
537.72	2647.12
538.08	2657.87
538.44	2668.01
538.79	2677.73
539.15	2686.65
539.51	2695.17
539.87	2703.09
540.22	2708.98
540.58	2714.98
540.94	2722.17
541.29	2727.81
541.65	2731.76
542.01	2734.93
542.37	2737.47
542.72	2741.34
543.08	2743.51
543.44	2746.30
543.79	2748.03
544.15	2748.89
544.51	2750.14
544.87	2750.30
545.22	2749.75
545.58	2748.53
545.94	2747.29
546.29	2744.70
546.65	2742.13
547.01	2739.53
547.36	2737.60
547.72	2735.83
548.07	2732.30
548.43	2727.28
548.79	2721.31
549.14	2716.61
549.50	2712.22
549.86	2706.84
550.21	2700.35
550.57	2694.79
550.92	2686.85
551.28	2679.56
551.64	2672.53
551.99	2665.01
552.35	2656.85
552.70	2648.96
553.06	2641.33
553.41	2633.08
553.77	2624.71
554.13	2616.25
554.48	2606.88
554.84	2596.29
555.19	2586.17
555.55	2576.07
555.90	2566.06
556.26	2556.57
556.61	2545.92
556.97	2533.63
557.32	2521.86
557.68	2510.03
558.03	2498.01
558.39	2487.20
558.74	2476.62
559.10	2464.34
559.45	2452.28
559.81	2440.81
560.16	2428.67
560.52	2416.81
560.87	2405.30
561.23	2392.87
561.58	2380.54
561.94	2367.87
562.29	2354.63
562.64	2342.11
563.00	2329.30
563.35	2316.88
563.71	2304.28
564.06	2291.52
564.42	2279.53
564.77	2266.92
565.12	2254.16
565.48	2241.32
565.83	2228.46
566.19	2215.71
566.54	2202.93
566.89	2189.01
567.25	2175.23
567.60	2162.87
567.96	2149.58
568.31	2134.84
568.66	2120.89
569.02	2108.08
569.37	2095.20
569.72	2082.87
570.08	2069.20
570.43	2055.19
570.78	2041.01
571.14	2026.15
571.49	2011.97
571.84	1998.26
572.20	1983.32
572.55	1968.65
572.90	1953.94
573.26	1939.19
573.61	1923.96
573.96	1909.18
574.31	1894.60
574.67	1880.07
575.02	1864.44
575.37	1848.93
575.72	1834.29
576.08	1819.97
576.43	1804.45
576.78	1789.40
577.13	1774.58
577.49	1760.14
577.84	1746.30
578.19	1731.49
578.54	1716.83
578.90	1701.68
579.25	1686.45
579.60	1672.88
579.95	1659.13
580.30	1645.19
580.66	1631.01
581.01	1616.74
581.36	1602.39
581.71	1589.08
582.06	1575.66
582.42	1562.51
582.77	1549.39
583.12	1536.24
583.47	1522.90
583.82	1509.73
584.17	1496.19
584.53	1482.33
584.88	1468.86
585.23	1454.91
585.58	1441.81
585.93	1428.93
586.28	1416.83
586.63	1404.71
586.98	1392.04
587.34	1379.48
587.69	1366.61
588.04	1354.07
588.39	1341.90
588.74	1329.91
589.09	1317.66
589.44	1305.00
589.79	1292.98
590.14	1281.06
590.49	1269.06
590.84	1257.23
591.19	1245.79
591.54	1234.17
591.89	1222.69
592.25	1211.38
592.60	1199.73
592.95	1188.50
593.30	1177.48
593.65	1166.11
594.00	1154.83
594.35	1144.13
594.70	1133.01
595.05	1122.77
595.40	1112.41
595.75	1101.93
596.10	1091.99
596.45	1081.81
596.80	1071.96
597.15	1061.82
597.50	1051.87
597.85	1042.34
598.19	1032.61
598.54	1022.93
598.89	1013.70
599.24	1004.82
599.59	995.74
599.94	987.58
600.29	979.19
600.64	970.52
600.99	961.46
601.34	952.83
601.69	943.86
602.04	935.59
602.39	927.15
602.74	918.75
603.08	910.27
603.43	901.78
603.78	893.49
604.13	885.35
604.48	877.16
604.83	869.15
605.18	861.08
605.53	853.20
605.87	845.09
606.22	837.31
606.57	829.46
606.92	821.51
607.27	813.49
607.62	805.80
607.96	798.53
608.31	791.75
608.66	784.72
609.01	777.98
609.36	771.33
609.70	764.44
610.05	757.55
610.40	750.95
610.75	744.33
611.10	738.02
611.44	731.56
611.79	725.25
612.14	718.85
612.49	712.53
612.83	706.49
613.18	700.61
613.53	694.62
613.88	688.67
614.22	683.16
614.57	677.55
614.92	671.79
615.27	666.17
615.61	660.59
615.96	655.08
616.31	649.57
616.65	644.10
617.00	638.87
617.35	633.77
617.70	628.69
618.04	623.63
618.39	618.52
618.74	613.68
619.08	608.86
619.43	604.17
619.78	599.50
620.12	594.78
620.47	590.24
620.82	585.81
621.16	581.39
621.51	576.85
621.85	572.38
622.20	568.08
622.55	563.78
622.89	559.56
623.24	555.34
623.59	551.18
623.93	547.18
624.28	543.27
624.62	539.45
624.97	535.67
625.32	531.89
625.66	528.05
626.01	524.15
626.35	520.35
626.70	516.61
627.04	513.05
627.39	509.41
627.73	505.94
628.08	502.56
628.43	499.19
628.77	495.90
629.12	492.72
629.46	489.54
629.81	486.30
630.15	483.04
630.50	479.89
630.84	476.80
631.19	473.78
631.53	470.83
631.88	467.87
632.22	464.92
632.57	462.27
632.91	459.65
633.26	457.13
633.60	454.62
633.95	452.16
634.29	449.58
634.64	447.11
634.98	444.45
635.32	441.93
635.67	439.61
636.01	437.21
636.36	434.87
636.70	432.68
637.05	430.48
637.39	428.31
637.73	426.17
638.08	424.13
638.42	422.06
638.77	419.88
639.11	417.63
639.45	415.50
639.80	413.27
640.14	411.16
640.49	409.04
640.83	406.89
641.17	404.82
641.52	402.82
641.86	400.83
642.20	399.05
642.55	397.11
642.89	395.18
643.23	393.37
643.58	391.71
643.92	389.91
644.26	388.18
644.61	386.51
644.95	384.80
645.29	383.01
645.64	381.26
645.98	379.58
646.32	378.03
646.66	376.44
647.01	374.90
647.35	373.38
647.69	371.85
648.04	370.47
648.38	369.00
648.72	367.55
649.06	366.11
649.41	364.69
649.75	363.31
650.09	361.95
650.43	360.59
650.78	359.18
651.12	357.80
651.46	356.48
651.80	355.19
652.14	353.95
652.49	352.73
652.83	351.49
653.17	350.30
653.51	349.15
653.85	348.05
654.20	346.89
654.54	345.68
654.88	344.56
655.22	343.44
655.56	342.30
655.90	341.23
656.25	340.19
656.59	339.14
656.93	338.16
657.27	337.18
657.61	336.14
657.95	335.13
658.29	334.13
658.64	333.19
658.98	332.22
659.32	331.28
659.66	330.41
660.00	329.55
660.34	328.67
660.68	327.76
661.02	326.82
661.36	325.92
661.70	325.04
662.05	324.19
662.39	323.35
662.73	322.59
663.07	321.84
663.41	321.04
663.75	320.23
664.09	319.42
664.43	318.59
664.77	317.86
665.11	317.06
665.45	316.35
665.79	315.61
666.13	314.85
666.47	314.09
666.81	313.29
667.15	312.47
667.49	311.77
667.83	311.12
668.17	310.44
668.51	309.81
668.85	309.22
669.19	308.64
669.53	307.98
669.87	307.29
670.21	306.64
670.55	306.02
670.89	305.48
671.23	304.89
671.57	304.29
671.91	303.73
672.25	303.22
672.58	302.69
672.92	302.10
673.26	301.58
673.60	301.07
673.94	300.57
674.28	300.11
674.62	299.60
674.96	299.04
675.30	298.55
675.64	298.00
675.97	297.45
676.31	296.89
676.65	296.36
676.99	295.92
677.33	295.38
677.67	294.88
678.01	294.30
678.34	293.82
678.68	293.37
679.02	292.84
679.36	292.34
679.70	291.83
680.04	291.35
680.37	290.87
680.71	290.41
681.05	289.96
681.39	289.47
681.73	288.95
682.06	288.46
682.40	287.99
682.74	287.58
683.08	287.20
683.42	286.76
683.75	286.35
684.09	285.86
684.43	285.44
684.77	285.00
685.10	284.63
685.44	284.22
685.78	283.80
686.12	283.41
686.45	283.00
686.79	282.57
687.13	282.17
687.46	281.74
687.80	281.32
688.14	280.86
688.48	280.47
688.81	280.07
689.15	279.70
689.49	279.29
689.82	278.86
690.16	278.38
690.50	277.99
690.83	277.58
691.17	277.17
691.51	276.78
691.84	276.40
692.18	275.97
692.52	275.55
692.85	275.15
693.19	274.78
693.52	274.38
693.86	273.98
694.20	273.61
694.53	273.25
694.87	272.84
695.21	272.47
695.54	272.08
695.88	271.69
696.21	271.29
696.55	270.92
696.88	270.54
697.22	270.18
697.56	269.80
697.89	269.38
698.23	269.02
698.56	268.64
698.90	268.26
699.23	267.89
699.57	267.51
699.90	267.13
700.24	266.74
700.58	266.40
700.91	266.10
701.25	265.85
701.58	265.56
701.92	265.26
702.25	264.93
702.59	264.59
702.92	264.26
703.26	263.91
703.59	263.56
703.93	263.34
704.26	263.01
704.60	262.67
704.93	262.35
705.26	262.01
705.60	261.72
705.93	261.37
706.27	261.08
706.60	260.82
706.94	260.55
707.27	260.20
707.61	259.88
707.94	259.54
708.27	259.11
708.61	258.74
708.94	258.41
709.28	258.09
709.61	257.78
709.94	257.51
710.28	257.24
710.61	256.99
710.95	256.61
711.28	256.40
711.61	256.13
711.95	255.88
712.28	255.60
712.61	255.30
712.95	255.12
713.28	254.92
713.61	254.61
713.95	254.30
714.28	254.06
714.61	253.78
714.95	253.52
715.28	253.26
715.61	253.01
715.95	252.78
716.28	252.56
716.61	252.36
716.95	252.10
717.28	251.86
717.61	251.61
717.94	251.38
718.28	251.07
718.61	250.84
718.94	250.60
719.27	250.38
719.61	250.19
719.94	249.93
720.27	249.63
720.60	249.41
720.94	249.19
721.27	248.98
721.60	248.81
721.93	248.59
722.27	248.42
722.60	248.23
722.93	248.02
723.26	247.80
723.59	247.57
723.93	247.37
724.26	247.17
724.59	246.97
724.92	246.78
725.25	246.63
725.59	246.45
725.92	246.29
726.25	246.11
726.58	245.93
726.91	245.74
727.24	245.59
727.57	245.41
727.91	245.23
728.24	245.09
728.57	244.91
728.90	244.75
729.23	244.55
729.56	244.43
729.89	244.25
730.22	244.07
730.55	243.91
730.89	243.76
731.22	243.59
731.55	243.44
731.88	243.28
732.21	243.09
732.54	242.93
732.87	242.78
733.20	242.64
733.53	242.49
733.86	242.35
734.19	242.19
734.52	242.06
734.85	242.01
735.18	241.82
735.51	241.72
735.84	241.58
736.17	241.49
736.50	241.29
736.83	241.31
737.16	241.18
737.49	241.06
737.82	240.93
738.15	240.82
738.48	240.69
738.81	240.56
739.14	240.42
739.47	240.28
739.80	240.14
740.13	240.03
740.46	239.88
740.79	239.74
741.12	239.61
741.45	239.47
741.78	239.27
742.11	239.19
742.44	239.03
742.77	238.92
743.10	238.77
743.43	238.65
743.75	238.41
744.08	238.48
744.41	238.35
744.74	238.23
745.07	238.09
745.40	238.01
745.73	237.96
746.06	237.86
746.39	237.78
746.71	237.67
747.04	237.55
747.37	237.44
747.70	237.37
748.03	237.26
748.36	237.18
748.68	237.07
749.01	236.93
749.34	236.84
749.67	236.75
750.00	236.68
750.33	236.68
750.65	236.59
750.98	236.31
751.31	236.23
751.64	236.14
751.97	236.10
752.29	235.99
752.62	235.84
752.95	235.75
753.28	235.63
753.60	235.53
753.93	235.47
754.26	235.40
754.59	235.27
754.91	235.17
755.24	235.07
755.57	235.04
755.90	234.96
756.22	234.86
756.55	234.76
756.88	234.64
757.20	234.47
757.53	234.36
757.86	234.28
758.19	234.21
758.51	234.12
758.84	233.99
759.17	233.90
759.49	233.82
759.82	233.81
760.15	233.75
760.47	233.69
760.80	233.58
761.13	233.52
761.45	233.46
761.78	233.40
762.11	233.33
762.43	233.21
762.76	233.14
763.08	233.08
763.41	233.02
763.74	232.97
764.06	232.90
764.39	232.84
764.71	232.78
765.04	232.71
765.37	232.64
765.69	232.59
766.02	232.53
766.34	232.47
766.67	232.36
767.00	232.33
767.32	232.34
767.65	232.36
767.97	232.30
768.30	232.25
768.62	232.20
768.95	232.14
769.27	232.09
769.60	232.06
769.92	232.00
770.25	231.93
770.57	231.86
770.90	231.81
771.22	231.74
771.55	231.70
771.87	231.66
772.20	231.61
772.52	231.67
772.85	231.77
773.17	231.73
773.50	231.68
773.82	231.62
774.15	231.51
774.47	231.39
774.80	231.33
775.12	231.30
775.45	231.25
775.77	231.21
776.09	231.19
776.42	231.14
776.74	231.14
777.07	231.10
777.39	231.08
777.72	231.04
778.04	231.02
778.36	230.98
778.69	230.95
779.01	230.93
779.33	230.78
779.66	230.62
779.98	230.58
780.31	230.56
780.63	230.57
780.95	230.57
781.28	230.54
781.60	230.50
781.92	230.48
782.25	230.46
782.57	230.43
782.89	230.40
783.22	230.37
783.54	230.32
783.86	230.31
784.19	230.28
784.51	230.30
784.83	230.26
785.16	230.23
785.48	230.21
785.80	230.19
786.12	230.17
786.45	230.14
786.77	230.14
787.09	230.11
787.42	230.04
787.74	230.02
788.06	230.00
788.38	229.98
788.71	229.95
789.03	229.93
789.35	229.92
789.67	229.88
789.99	229.87
790.32	229.83
790.64	229.82
790.96	229.92
791.28	229.85
791.61	229.83
791.93	229.83
792.25	229.80
792.57	229.87
792.89	229.83
793.21	229.82
793.54	229.78
793.86	229.75
794.18	229.74
794.50	229.70
794.82	229.68
795.14	229.67
795.47	229.67
795.79	229.66
796.11	229.60
796.43	229.58
796.75	229.56
797.07	229.55
797.39	229.53
797.71	229.39
798.04	229.38
798.36	229.37
798.68	229.35
799.00	229.35
799.32	229.27
799.64	229.27
799.96	229.26
800.28	229.26
800.60	229.25
800.92	229.25
801.24	229.23
801.56	229.22
801.89	229.19
802.21	229.18
802.53	229.14
802.85	229.17
803.17	229.22
803.49	229.17
803.81	229.14
804.13	229.12
804.45	229.09
804.77	229.09
805.09	229.07
805.41	229.04
805.73	229.00
806.05	228.95
806.37	228.93
806.69	228.90
807.01	228.88
807.33	228.87
807.65	228.81
807.97	228.85
808.28	228.82
808.60	228.82
808.92	228.78
809.24	228.85
809.56	228.82
809.88	228.76
810.20	228.76
810.52	228.77
810.84	228.75
811.16	228.72
811.48	228.69
811.80	228.74
812.12	228.73
812.43	228.75
812.75	228.74
813.07	228.72
813.39	228.71
813.71	228.69
814.03	228.67
814.35	228.68
814.67	228.62
814.98	228.59
815.30	228.57
815.62	228.55
815.94	228.45
816.26	228.45
816.58	228.41
816.89	228.42
817.21	228.39
817.53	228.39
817.85	228.38
818.17	228.37
818.48	228.30
818.80	228.31
819.12	228.27
819.44	228.24
819.76	228.21
820.07	228.20
820.39	228.18
820.71	228.17
821.03	228.17
821.34	228.15
821.66	228.16
821.98	228.17
822.30	228.16
822.61	228.23
822.93	228.20
823.25	228.19
823.57	228.16
823.88	228.16
824.20	228.15
824.52	228.17
824.83	228.16
825.15	228.14
825.47	228.12
825.79	228.14
826.10	228.14
826.42	228.13
826.74	228.14
827.05	228.13
827.37	228.13
827.69	228.12
828.00	228.11
828.32	228.11
828.64	228.08
828.95	228.13
829.27	228.08
829.58	228.08
829.90	228.10
830.22	228.10
830.53	228.08
830.85	228.07
831.17	228.03
831.48	228.02
831.80	228.03
832.11	228.01
832.43	227.99
832.75	227.98
833.06	228.05
833.38	228.01
833.69	228.00
834.01	228.00
834.32	228.00
834.64	227.98
834.96	227.96
835.27	227.96
835.59	227.92
835.90	227.90
836.22	227.89
836.53	227.85
836.85	227.84
837.16	227.96
837.48	227.96
837.79	228.00
838.11	228.00
838.42	228.00
838.74	228.01
839.05	227.99
839.37	227.99
839.68	227.91
840.00	227.91
840.31	227.92
840.63	227.91
840.94	227.90
841.26	227.88
841.57	227.88
841.88	227.89
842.20	227.87
842.51	227.84
842.83	227.84
843.14	227.95
843.46	227.95
843.77	227.87
844.08	227.86
844.40	227.82
844.71	227.79
845.03	227.78
845.34	227.78
845.65	227.77
845.97	227.76
846.28	227.76
846.60	227.77
846.91	227.75
847.22	227.73
847.54	227.75
847.85	227.76
848.16	227.74
848.48	227.71
848.79	227.76
849.10	227.77
849.42	227.78
849.73	227.66
850.04	227.66
850.36	227.62
850.67	227.65
850.98	227.65
851.30	227.66
851.61	227.65
851.92	227.64
852.23	227.68
852.55	227.69
852.86	227.69
853.17	227.70
853.49	227.72
853.80	227.73
854.11	227.74
854.42	227.76
854.74	227.75
855.05	227.76
855.36	227.69
855.67	227.69
855.99	227.69
856.30	227.84
856.61	227.83
856.92	227.82
857.23	227.82
857.55	227.80
857.86	227.79
858.17	227.82
858.48	227.80
858.79	227.76
859.11	227.77
859.42	227.77
859.73	227.74
860.04	227.73
860.35	227.70
860.66	227.66
860.98	227.66
861.29	227.67
861.60	227.66
861.91	227.69
862.22	227.67
862.53	227.65
862.84	227.50
863.16	227.53
863.47	227.50
863.78	227.48
864.09	227.50
864.40	227.51
864.71	227.50
865.02	227.51
865.33	227.50
865.64	227.48
865.95	227.47
866.27	227.55
866.58	227.54
866.89	227.56
867.20	227.55
867.51	227.53
867.82	227.53
868.13	227.57
868.44	227.54
868.75	227.57
869.06	227.57
869.37	227.59
869.68	227.56
869.99	227.58
870.30	227.59
870.61	227.59
870.92	227.58
871.23	227.57
871.54	227.59
871.85	227.63
872.16	227.63
872.47	227.62
872.78	227.55
873.09	227.57
873.40	227.56
873.71	227.56
874.02	227.58
874.33	227.56
874.64	227.52
874.95	227.54
875.26	227.50
875.56	227.50
875.87	227.49
876.18	227.49
876.49	227.61
876.80	227.59
877.11	227.57
877.42	227.57
877.73	227.57
878.04	227.55
878.35	227.54
878.66	227.55
878.96	227.55
879.27	227.55
879.58	227.53
879.89	227.51
880.20	227.54
880.51	227.53
880.82	227.53
881.12	227.53
881.43	227.51
881.74	227.50
882.05	227.49
882.36	227.48
882.67	227.50
882.97	227.37
883.28	227.35
883.59	227.34
883.90	227.36
884.21	227.38
884.51	227.37
884.82	227.35
885.13	227.34
885.44	227.34
885.74	227.33
886.05	227.32
886.36	227.33
886.67	227.30
886.98	227.36
887.28	227.36
887.59	227.36
887.90	227.37
888.20	227.37
888.51	227.39
888.82	227.37
889.13	227.37
889.43	227.47
889.74	227.48
890.05	227.48
890.35	227.45
890.66	227.42
890.97	227.41
891.28	227.41
891.58	227.40
891.89	227.40
892.20	227.40
892.50	227.40
892.81	227.39
893.12	227.39
893.42	227.33
893.73	227.34
894.04	227.33
894.34	227.34
894.65	227.34
894.95	227.33
895.26	227.35
895.57	227.40
895.87	227.27
896.18	227.29
896.48	227.29
896.79	227.29
897.10	227.30
897.40	227.30
897.71	227.31
898.01	227.29
898.32	227.30
898.63	227.30
898.93	227.29
899.24	227.29
899.54	227.29
899.85	227.28
900.15	227.27
900.46	227.26
900.76	227.28
901.07	227.27
901.38	227.26
901.68	227.27
901.99	227.21
902.29	227.23
902.60	227.21
902.90	227.20
903.21	227.19
903.51	227.19
903.82	227.23
904.12	227.22
904.43	227.24
904.73	227.23
905.03	227.24
905.34	227.36
905.64	227.34
905.95	227.35
906.25	227.34
906.56	227.35
906.86	227.34
907.17	227.32
907.47	227.34
907.77	227.32
908.08	227.30
908.38	227.30
908.69	227.30
908.99	227.33
909.30	227.33
909.60	227.34
909.90	227.35
910.21	227.30
910.51	227.28
910.81	227.28
911.12	227.29
911.42	227.28
911.73	227.14
912.03	227.15
912.33	227.17
912.64	227.16
912.94	227.14
913.24	227.13
913.55	227.12
913.85	227.10
914.15	227.14
914.46	227.15
914.76	227.14
915.06	227.13
915.37	227.11
915.67	227.11
915.97	227.11
916.27	227.07
916.58	227.09
916.88	227.09
917.18	227.08
917.49	227.16
917.79	227.17
918.09	227.20
918.39	227.24
918.70	227.23
919.00	227.24
919.30	227.30
919.60	227.29
919.91	227.28
920.21	227.30
920.51	227.27
920.81	227.26
921.12	227.28
921.42	227.28
921.72	227.28
922.02	227.29
922.32	227.30
922.63	227.31
922.93	227.38
923.23	227.38
923.53	227.38
923.83	227.29
924.13	227.29
924.44	227.28
924.74	227.30
925.04	227.33
925.34	227.33
925.64	227.27
925.94	227.28
926.24	227.35
926.55	227.33
926.85	227.35
927.15	227.35
927.45	227.34
927.75	227.34
928.05	227.34
928.35	227.33
928.65	227.35
928.95	227.36
929.26	227.31
929.56	227.33
929.86	227.35
930.16	227.34
930.46	227.33
930.76	227.33
931.06	227.27
931.36	227.23
931.66	227.25
931.96	227.27
932.26	227.28
932.56	227.23
932.86	227.24
933.16	227.23
933.46	227.21
933.76	227.20
934.06	227.22
934.36	227.26
934.66	227.24
934.96	227.22
935.26	227.22
935.56	227.23
935.86	227.20
936.16	227.18
936.46	227.17
936.76	227.16
937.06	227.14
937.36	227.16
937.66	227.16
937.96	227.15
938.26	227.13
938.56	227.12
938.86	227.13
939.16	227.15
939.46	227.16
939.76	227.17
940.06	227.17
940.35	227.15
940.65	227.09
940.95	227.11
941.25	227.08
941.55	227.07
941.85	227.06
942.15	227.08
942.45	227.11
942.75	227.11
943.04	227.11
943.34	227.14
943.64	227.12
943.94	227.11
944.24	227.10
944.54	227.11
944.84	227.10
945.13	227.08
945.43	227.06
945.73	227.07
946.03	227.05
946.33	227.04
946.62	227.03
946.92	227.03
947.22	227.04
947.52	227.05
947.82	227.06
948.11	227.04
948.41	227.03
948.71	226.99
949.01	227.00
949.31	226.99
949.60	226.99
949.90	227.01
950.20	227.01
950.50	227.00
950.79	226.99
951.09	227.01
951.39	227.00
951.69	226.99
951.98	227.01
952.28	227.02
952.58	227.03
952.87	227.02
953.17	227.04
953.47	227.02
953.76	227.02
954.06	227.00
954.36	226.98
954.66	226.99
954.95	227.02
955.25	227.03
955.55	227.03
955.84	227.01
956.14	227.01
956.44	227.02
956.73	227.00
957.03	227.02
957.32	227.02
957.62	227.01
957.92	227.04
958.21	227.02
958.51	227.16
958.81	227.17
959.10	227.18
959.40	227.21
959.69	227.22
959.99	227.23
960.29	227.24
960.58	227.24
960.88	227.28
961.17	227.27
961.47	227.28
961.76	227.27
962.06	227.30
962.36	227.29
962.65	227.29
962.95	227.30
963.24	227.29
963.54	227.29
963.83	227.30
964.13	227.29
964.42	227.29
964.72	227.18
965.01	227.18
965.31	227.17
965.60	227.13
965.90	227.20
966.19	227.19
966.49	227.19
966.78	227.19
967.08	227.17
967.37	227.17
967.67	227.14
967.96	227.17
968.26	227.16
968.55	227.18
968.85	227.18
969.14	227.18
969.43	227.18
969.73	227.16
970.02	227.15
970.32	227.14
970.61	227.12
970.91	227.08
971.20	227.07
971.49	227.07
971.79	227.09
972.08	227.00
972.38	227.01
972.67	226.99
972.96	227.01
973.26	226.99
973.55	227.03
973.85	227.03
974.14	227.00
974.43	227.02
974.73	226.99
975.02	226.98
975.31	226.97
975.61	226.97
975.90	226.96
976.19	226.95
976.49	226.97
976.78	226.97
977.07	226.97
977.37	226.98
977.66	226.98
977.95	226.96
978.24	226.98
978.54	227.01
978.83	226.99
979.12	226.98
979.42	226.98
979.71	226.95
980.00	226.95
980.29	226.96
980.59	226.93
980.88	226.97
981.17	226.97
981.46	226.99
981.76	226.98
982.05	227.02
982.34	227.02
982.63	227.03
982.93	227.03
983.22	227.06
983.51	227.06
983.80	227.08
984.09	227.08
984.39	227.07
984.68	227.06
984.97	227.08
985.26	227.08
985.55	227.09
985.85	227.07
986.14	227.09
986.43	227.10
986.72	227.09
987.01	227.04
987.30	227.04
987.59	227.03
987.89	227.03
988.18	226.99
988.47	226.99
988.76	226.98
989.05	226.97
989.34	226.96
989.63	227.00
989.92	226.98
990.22	226.97
990.51	226.97
990.80	226.96
991.09	226.97
991.38	226.98
991.67	226.96
991.96	226.96
992.25	226.96
992.54	226.94
992.83	226.94
993.12	226.95
993.41	226.97
993.70	227.02
993.99	227.04
994.28	227.06
994.58	227.08
994.87	227.07
995.16	227.07
995.45	227.05
995.74	227.00
996.03	227.02
996.32	227.04
996.61	227.06
996.90	227.05
997.19	227.04
997.48	227.04
997.77	227.03
998.06	227.04
998.34	227.03
998.63	227.02
998.92	227.03
999.21	227.05
999.50	227.04
999.79	226.99
1000.08	226.98
1000.37	226.99
1000.66	226.97
1000.95	227.00
1001.24	227.00
1001.53	227.02
1001.82	227.02
1002.11	226.99
1002.40	227.00
1002.68	227.03
1002.97	227.12
1003.26	227.11
1003.55	227.09
1003.84	227.11
1004.13	227.15
1004.42	227.14
1004.71	227.15
1004.99	227.15
1005.28	227.18
1005.57	227.17
1005.86	227.16
1006.15	227.15
1006.44	227.12
1006.72	227.14
1007.01	227.11
1007.30	227.10
1007.59	227.09
1007.88	227.09
1008.17	227.09
1008.45	227.06
1008.74	227.01
1009.03	226.95
1009.32	226.95
1009.60	226.95
1009.89	226.93
1010.18	226.88
1010.47	226.88
1010.76	226.87
1011.04	226.86
1011.33	226.85
1011.62	226.86
1011.91	226.87
1012.19	226.88
1012.48	226.89
1012.77	226.88
1013.05	226.93
1013.34	226.94
1013.63	226.94
1013.92	226.93
1014.20	226.93
1014.49	226.93
1014.78	226.95
1015.06	226.90
1015.35	226.90
1015.64	226.92
1015.92	226.93
1016.21	226.95
1016.50	226.94
1016.78	226.96
1017.07	226.96
1017.36	226.95
1017.64	226.93
1017.93	226.95
1018.22	226.94
1018.50	226.93
1018.79	226.93
1019.08	226.88
1019.36	226.89
1019.65	226.87
1019.93	226.91
1020.22	226.92
1020.51	226.98
1020.79	226.97
1021.08	226.70
1021.36	226.71
1021.65	226.92
1021.94	226.85
1022.22	227.03
1022.51	226.62
1022.79	227.43
1023.08	227.06
1023.36	228.40
1023.65	226.53
>>>>>End Processed Spectral Data<<<<<
