SpectraSuite Data File
++++++++++++++++++++++++++++++++++++
Date: Sat Oct 03 19:44:00 EDT 2015
User: lab3
Dark Spectrum Present: No
Reference Spectrum Present: No
Number of Sampled Component Spectra: 1
Spectrometers: USB2E7196
Integration Time (usec): 46000 (USB2E7196)
Spectra Averaged: 24000 (USB2E7196)
Boxcar Smoothing: 10 (USB2E7196)
Correct for Electrical Dark: No (USB2E7196)
Strobe/Lamp Enabled: No (USB2E7196)
Correct for Detector Non-linearity: No (USB2E7196)
Correct for Stray Light: No (USB2E7196)
Number of Pixels in Processed Spectrum: 2048
>>>>>Begin Processed Spectral Data<<<<<
339.09	0.00
339.48	213.73
339.86	215.15
340.24	216.59
340.63	217.95
341.01	221.26
341.39	220.67
341.78	222.06
342.16	223.30
342.54	223.69
342.93	212.16
343.31	222.88
343.69	223.42
344.07	223.89
344.46	224.32
344.84	224.71
345.22	224.93
345.60	225.19
345.99	225.39
346.37	225.52
346.75	225.63
347.13	225.71
347.52	225.79
347.90	225.88
348.28	225.92
348.66	225.98
349.05	225.98
349.43	226.03
349.81	226.09
350.19	226.15
350.57	226.22
350.96	226.31
351.34	226.40
351.72	226.50
352.10	226.61
352.48	226.69
352.87	226.74
353.25	226.81
353.63	226.87
354.01	226.93
354.39	227.01
354.77	227.08
355.15	227.19
355.54	227.24
355.92	227.27
356.30	227.35
356.68	227.50
357.06	227.58
357.44	227.62
357.82	227.69
358.20	227.80
358.58	227.86
358.97	227.93
359.35	228.01
359.73	228.10
360.11	228.15
360.49	228.21
360.87	228.26
361.25	228.33
361.63	228.42
362.01	228.47
362.39	228.50
362.77	228.55
363.15	228.57
363.53	228.61
363.91	228.64
364.29	228.67
364.67	228.57
365.05	228.59
365.43	228.63
365.81	228.66
366.19	228.68
366.57	228.74
366.95	228.74
367.33	228.71
367.71	228.70
368.09	228.73
368.47	228.72
368.85	228.71
369.23	228.72
369.61	228.66
369.99	228.68
370.37	228.68
370.75	228.75
371.13	228.72
371.51	228.68
371.89	228.66
372.27	228.63
372.65	228.62
373.03	228.57
373.41	228.53
373.78	228.48
374.16	228.37
374.54	228.29
374.92	228.23
375.30	228.19
375.68	228.12
376.06	228.08
376.44	228.02
376.82	227.98
377.19	227.93
377.57	227.87
377.95	227.78
378.33	227.72
378.71	227.56
379.09	227.51
379.47	227.49
379.84	227.42
380.22	227.36
380.60	227.29
380.98	227.24
381.36	227.19
381.73	227.12
382.11	227.10
382.49	227.06
382.87	227.00
383.25	226.96
383.62	227.06
384.00	226.99
384.38	226.96
384.76	226.94
385.13	226.94
385.51	226.90
385.89	226.85
386.27	226.82
386.64	226.80
387.02	226.75
387.40	226.70
387.78	226.69
388.15	226.66
388.53	226.63
388.91	226.60
389.29	226.57
389.66	226.57
390.04	226.53
390.42	226.53
390.79	226.52
391.17	226.50
391.55	226.34
391.92	226.33
392.30	226.34
392.68	226.30
393.05	226.28
393.43	226.28
393.81	226.29
394.18	226.27
394.56	226.27
394.94	226.31
395.31	226.31
395.69	226.35
396.06	226.38
396.44	226.40
396.82	226.42
397.19	226.51
397.57	226.52
397.95	226.57
398.32	226.57
398.70	226.61
399.07	226.68
399.45	226.72
399.82	226.78
400.20	226.81
400.58	226.88
400.95	226.89
401.33	226.98
401.70	227.14
402.08	227.25
402.45	227.34
402.83	227.46
403.20	227.58
403.58	227.68
403.95	227.82
404.33	227.98
404.71	228.14
405.08	228.35
405.46	228.53
405.83	228.72
406.21	228.93
406.58	229.16
406.96	229.39
407.33	229.65
407.70	229.95
408.08	230.35
408.45	230.69
408.83	231.07
409.20	231.42
409.58	231.73
409.95	232.16
410.33	232.63
410.70	233.07
411.08	233.58
411.45	234.13
411.82	234.69
412.20	235.31
412.57	236.07
412.95	236.66
413.32	237.43
413.69	238.22
414.07	239.06
414.44	239.97
414.82	240.91
415.19	242.00
415.56	243.10
415.94	244.25
416.31	245.54
416.68	246.83
417.06	248.32
417.43	249.72
417.81	251.33
418.18	252.97
418.55	254.77
418.93	256.63
419.30	258.58
419.67	260.64
420.04	262.76
420.42	264.97
420.79	267.53
421.16	270.11
421.54	272.73
421.91	275.48
422.28	278.32
422.66	281.39
423.03	284.31
423.40	287.38
423.77	290.67
424.15	294.04
424.52	297.55
424.89	301.35
425.26	305.13
425.64	308.64
426.01	312.59
426.38	316.63
426.75	320.79
427.13	325.05
427.50	329.52
427.87	334.16
428.24	338.85
428.61	343.36
428.99	348.23
429.36	353.58
429.73	358.68
430.10	363.80
430.47	369.02
430.85	374.40
431.22	380.18
431.59	386.11
431.96	391.90
432.33	398.34
432.70	404.45
433.08	411.67
433.45	418.51
433.82	425.24
434.19	432.75
434.56	440.16
434.93	447.33
435.30	454.41
435.68	462.42
436.05	470.25
436.42	478.06
436.79	485.18
437.16	492.87
437.53	501.13
437.90	509.38
438.27	517.45
438.64	526.18
439.01	534.08
439.38	541.31
439.75	548.26
440.13	556.11
440.50	563.58
440.87	569.50
441.24	575.97
441.61	583.04
441.98	588.19
442.35	594.30
442.72	600.53
443.09	606.46
443.46	610.19
443.83	612.92
444.20	615.19
444.57	618.60
444.94	620.50
445.31	622.45
445.68	624.10
446.05	625.30
446.42	624.83
446.79	624.16
447.16	623.57
447.53	623.02
447.90	620.42
448.27	617.93
448.64	614.20
449.01	611.57
449.37	606.43
449.74	601.78
450.11	595.80
450.48	589.26
450.85	582.74
451.22	577.17
451.59	571.73
451.96	566.81
452.33	559.68
452.70	553.36
453.07	545.65
453.43	537.98
453.80	530.53
454.17	523.39
454.54	516.84
454.91	509.42
455.28	502.47
455.65	495.94
456.02	489.02
456.38	483.47
456.75	476.33
457.12	470.59
457.49	464.79
457.86	459.35
458.23	454.58
458.59	449.29
458.96	443.85
459.33	439.08
459.70	434.21
460.07	430.51
460.43	426.17
460.80	422.12
461.17	418.60
461.54	414.77
461.91	411.20
462.27	407.55
462.64	404.64
463.01	401.26
463.38	397.87
463.74	394.81
464.11	392.11
464.48	389.68
464.85	387.02
465.21	385.02
465.58	382.78
465.95	380.20
466.32	378.16
466.68	376.16
467.05	374.13
467.42	372.16
467.78	370.02
468.15	368.05
468.52	366.62
468.88	364.68
469.25	362.91
469.62	361.50
469.98	359.96
470.35	358.59
470.72	357.35
471.08	356.08
471.45	355.01
471.82	353.82
472.18	352.55
472.55	351.74
472.92	350.70
473.28	349.89
473.65	349.01
474.02	348.18
474.38	347.47
474.75	347.04
475.11	346.46
475.48	346.17
475.85	345.86
476.21	345.68
476.58	345.55
476.94	345.66
477.31	345.69
477.67	345.76
478.04	345.94
478.41	346.21
478.77	346.62
479.14	346.87
479.50	347.37
479.87	348.04
480.23	348.71
480.60	349.37
480.96	350.03
481.33	351.03
481.69	352.03
482.06	353.02
482.42	353.92
482.79	355.06
483.15	356.37
483.52	357.87
483.88	359.31
484.25	360.85
484.61	362.46
484.98	364.20
485.34	366.16
485.71	368.20
486.07	370.40
486.44	372.59
486.80	375.04
487.17	377.58
487.53	380.35
487.90	383.25
488.26	386.42
488.62	389.76
488.99	393.11
489.35	396.63
489.72	400.46
490.08	404.49
490.44	408.64
490.81	412.96
491.17	417.38
491.54	422.13
491.90	427.02
492.26	432.27
492.63	437.76
492.99	443.48
493.36	449.42
493.72	455.66
494.08	462.06
494.45	468.84
494.81	475.89
495.17	483.13
495.54	490.79
495.90	498.74
496.26	506.88
496.63	515.27
496.99	523.98
497.35	533.09
497.72	542.50
498.08	552.11
498.44	562.05
498.80	572.59
499.17	583.38
499.53	594.53
499.89	606.04
500.26	617.79
500.62	629.83
500.98	642.52
501.34	655.40
501.71	668.79
502.07	682.40
502.43	696.54
502.79	710.91
503.16	725.76
503.52	740.76
503.88	756.23
504.24	772.16
504.60	788.29
504.97	804.92
505.33	821.99
505.69	839.98
506.05	858.33
506.41	876.60
506.78	895.08
507.14	914.07
507.50	933.48
507.86	953.26
508.22	973.28
508.59	993.09
508.95	1013.71
509.31	1035.07
509.67	1057.18
510.03	1079.29
510.39	1101.44
510.75	1123.75
511.12	1146.36
511.48	1169.13
511.84	1191.89
512.20	1215.10
512.56	1239.22
512.92	1263.35
513.28	1287.02
513.64	1310.98
514.00	1335.40
514.37	1360.16
514.73	1384.85
515.09	1409.41
515.45	1434.31
515.81	1459.37
516.17	1484.49
516.53	1509.19
516.89	1533.76
517.25	1558.49
517.61	1583.02
517.97	1608.02
518.33	1632.56
518.69	1657.05
519.05	1681.98
519.41	1707.21
519.77	1732.66
520.13	1757.29
520.49	1781.89
520.85	1806.82
521.21	1831.36
521.57	1856.23
521.93	1880.50
522.29	1905.35
522.65	1929.61
523.01	1953.82
523.37	1977.64
523.73	2002.26
524.09	2026.47
524.45	2050.44
524.81	2074.06
525.17	2097.59
525.53	2120.52
525.89	2143.86
526.25	2167.24
526.61	2189.59
526.97	2212.05
527.33	2234.44
527.68	2256.60
528.04	2277.86
528.40	2298.20
528.76	2318.71
529.12	2338.71
529.48	2358.49
529.84	2376.31
530.20	2394.88
530.56	2412.78
530.91	2430.87
531.27	2448.58
531.63	2465.38
531.99	2481.79
532.35	2497.40
532.71	2513.19
533.07	2529.59
533.42	2544.23
533.78	2559.77
534.14	2575.61
534.50	2590.47
534.86	2605.04
535.21	2617.53
535.57	2630.67
535.93	2643.65
536.29	2655.41
536.65	2666.95
537.00	2677.65
537.36	2689.43
537.72	2699.89
538.08	2709.76
538.44	2718.87
538.79	2727.56
539.15	2735.59
539.51	2743.18
539.87	2750.19
540.22	2755.10
540.58	2760.17
540.94	2766.36
541.29	2771.02
541.65	2773.85
542.01	2775.92
542.37	2777.37
542.72	2780.26
543.08	2781.33
543.44	2783.00
543.79	2783.66
544.15	2783.52
544.51	2783.81
544.87	2782.96
545.22	2781.20
545.58	2778.78
545.94	2776.37
546.29	2772.69
546.65	2768.98
547.01	2765.26
547.36	2762.27
547.72	2759.51
548.07	2754.91
548.43	2748.89
548.79	2741.78
549.14	2736.01
549.50	2730.59
549.86	2724.09
550.21	2716.44
550.57	2709.84
550.92	2700.82
551.28	2692.36
551.64	2684.34
551.99	2675.88
552.35	2666.74
552.70	2657.97
553.06	2649.50
553.41	2640.39
553.77	2631.15
554.13	2621.87
554.48	2611.64
554.84	2600.16
555.19	2589.05
555.55	2578.08
555.90	2567.22
556.26	2557.02
556.61	2545.60
556.97	2532.50
557.32	2519.87
557.68	2507.33
558.03	2494.47
558.39	2482.94
558.74	2471.72
559.10	2458.71
559.45	2445.91
559.81	2433.72
560.16	2420.81
560.52	2408.31
560.87	2396.24
561.23	2383.26
561.58	2370.23
561.94	2357.01
562.29	2343.16
562.64	2330.13
563.00	2316.80
563.35	2303.76
563.71	2290.57
564.06	2277.32
564.42	2264.90
564.77	2252.00
565.12	2238.90
565.48	2225.74
565.83	2212.46
566.19	2199.36
566.54	2186.18
566.89	2171.93
567.25	2157.81
567.60	2145.19
567.96	2131.58
568.31	2116.52
568.66	2102.18
569.02	2089.11
569.37	2075.98
569.72	2063.39
570.08	2049.53
570.43	2035.25
570.78	2020.92
571.14	2005.84
571.49	1991.39
571.84	1977.50
572.20	1962.40
572.55	1947.53
572.90	1932.61
573.26	1917.82
573.61	1902.45
573.96	1887.52
574.31	1872.84
574.67	1858.32
575.02	1842.60
575.37	1827.05
575.72	1812.38
576.08	1797.97
576.43	1782.45
576.78	1767.36
577.13	1752.50
577.49	1737.99
577.84	1724.11
578.19	1709.29
578.54	1694.61
578.90	1679.46
579.25	1664.21
579.60	1650.59
579.95	1636.84
580.30	1622.90
580.66	1608.65
581.01	1594.39
581.36	1580.16
581.71	1566.87
582.06	1553.47
582.42	1540.31
582.77	1527.19
583.12	1514.09
583.47	1500.91
583.82	1487.82
584.17	1474.33
584.53	1460.57
584.88	1447.18
585.23	1433.42
585.58	1420.40
585.93	1407.57
586.28	1395.49
586.63	1383.35
586.98	1370.76
587.34	1358.25
587.69	1345.52
588.04	1333.08
588.39	1320.98
588.74	1309.01
589.09	1296.85
589.44	1284.26
589.79	1272.31
590.14	1260.44
590.49	1248.47
590.84	1236.65
591.19	1225.26
591.54	1213.68
591.89	1202.23
592.25	1191.01
592.60	1179.39
592.95	1168.19
593.30	1157.29
593.65	1146.08
594.00	1135.02
594.35	1124.48
594.70	1113.52
595.05	1103.39
595.40	1093.15
595.75	1082.74
596.10	1072.88
596.45	1062.80
596.80	1053.06
597.15	1043.06
597.50	1033.21
597.85	1023.78
598.19	1014.18
598.54	1004.61
598.89	995.53
599.24	986.75
599.59	977.74
599.94	969.64
600.29	961.34
600.64	952.75
600.99	943.80
601.34	935.19
601.69	926.28
602.04	918.04
602.39	909.61
602.74	901.27
603.08	892.90
603.43	884.48
603.78	876.23
604.13	868.10
604.48	860.00
604.83	852.06
605.18	844.09
605.53	836.28
605.87	828.31
606.22	820.58
606.57	812.82
606.92	804.99
607.27	797.09
607.62	789.50
607.96	782.30
608.31	775.55
608.66	768.60
609.01	761.92
609.36	755.34
609.70	748.59
610.05	741.79
610.40	735.28
610.75	728.72
611.10	722.51
611.44	716.17
611.79	709.93
612.14	703.62
612.49	697.35
612.83	691.39
613.18	685.55
613.53	679.65
613.88	673.75
614.22	668.23
614.57	662.68
614.92	656.98
615.27	651.39
615.61	645.86
615.96	640.39
616.31	634.93
616.65	629.49
617.00	624.26
617.35	619.17
617.70	614.09
618.04	609.10
618.39	603.99
618.74	599.12
619.08	594.31
619.43	589.62
619.78	584.93
620.12	580.22
620.47	575.65
620.82	571.20
621.16	566.80
621.51	562.30
621.85	557.83
622.20	553.52
622.55	549.27
622.89	545.09
623.24	540.91
623.59	536.75
623.93	532.77
624.28	528.91
624.62	525.10
624.97	521.35
625.32	517.55
625.66	513.72
626.01	509.87
626.35	506.07
626.70	502.32
627.04	498.77
627.39	495.12
627.73	491.66
628.08	488.30
628.43	484.91
628.77	481.60
629.12	478.42
629.46	475.27
629.81	472.00
630.15	468.72
630.50	465.55
630.84	462.45
631.19	459.39
631.53	456.41
631.88	453.41
632.22	450.44
632.57	447.75
632.91	445.08
633.26	442.51
633.60	439.96
633.95	437.46
634.29	434.87
634.64	432.35
634.98	429.66
635.32	427.10
635.67	424.72
636.01	422.30
636.36	419.90
636.70	417.62
637.05	415.36
637.39	413.15
637.73	410.95
638.08	408.86
638.42	406.77
638.77	404.53
639.11	402.24
639.45	400.05
639.80	397.79
640.14	395.64
640.49	393.47
640.83	391.28
641.17	389.19
641.52	387.15
641.86	385.14
642.20	383.32
642.55	381.35
642.89	379.41
643.23	377.56
643.58	375.86
643.92	374.05
644.26	372.30
644.61	370.59
644.95	368.86
645.29	367.06
645.64	365.27
645.98	363.58
646.32	362.01
646.66	360.42
647.01	358.86
647.35	357.34
647.69	355.80
648.04	354.39
648.38	352.90
648.72	351.43
649.06	349.96
649.41	348.50
649.75	347.10
650.09	345.73
650.43	344.36
650.78	342.94
651.12	341.57
651.46	340.24
651.80	338.93
652.14	337.66
652.49	336.43
652.83	335.17
653.17	333.97
653.51	332.79
653.85	331.67
654.20	330.50
654.54	329.27
654.88	328.12
655.22	327.01
655.56	325.89
655.90	324.83
656.25	323.79
656.59	322.75
656.93	321.77
657.27	320.79
657.61	319.76
657.95	318.78
658.29	317.80
658.64	316.87
658.98	315.93
659.32	315.02
659.66	314.15
660.00	313.32
660.34	312.47
660.68	311.61
661.02	310.72
661.36	309.87
661.70	309.06
662.05	308.27
662.39	307.48
662.73	306.76
663.07	306.05
663.41	305.30
663.75	304.55
664.09	303.80
664.43	303.02
664.77	302.32
665.11	301.58
665.45	300.90
665.79	300.22
666.13	299.52
666.47	298.81
666.81	298.08
667.15	297.32
667.49	296.67
667.83	296.08
668.17	295.46
668.51	294.87
668.85	294.32
669.19	293.80
669.53	293.18
669.87	292.56
670.21	291.95
670.55	291.40
670.89	290.92
671.23	290.39
671.57	289.87
671.91	289.39
672.25	288.95
672.58	288.50
672.92	287.97
673.26	287.52
673.60	287.08
673.94	286.65
674.28	286.26
674.62	285.83
674.96	285.35
675.30	284.92
675.64	284.47
675.97	284.00
676.31	283.50
676.65	283.06
676.99	282.69
677.33	282.24
677.67	281.82
678.01	281.33
678.34	280.92
678.68	280.54
679.02	280.10
679.36	279.67
679.70	279.23
680.04	278.84
680.37	278.45
680.71	278.07
681.05	277.70
681.39	277.30
681.73	276.88
682.06	276.48
682.40	276.09
682.74	275.76
683.08	275.47
683.42	275.12
683.75	274.80
684.09	274.39
684.43	274.06
684.77	273.72
685.10	273.42
685.44	273.09
685.78	272.76
686.12	272.46
686.45	272.12
686.79	271.78
687.13	271.47
687.46	271.13
687.80	270.81
688.14	270.44
688.48	270.14
688.81	269.82
689.15	269.54
689.49	269.22
689.82	268.88
690.16	268.49
690.50	268.18
690.83	267.86
691.17	267.55
691.51	267.23
691.84	266.93
692.18	266.60
692.52	266.27
692.85	265.95
693.19	265.67
693.52	265.37
693.86	265.07
694.20	264.76
694.53	264.47
694.87	264.16
695.21	263.86
695.54	263.56
695.88	263.26
696.21	262.92
696.55	262.64
696.88	262.34
697.22	262.06
697.56	261.77
697.89	261.44
698.23	261.16
698.56	260.84
698.90	260.56
699.23	260.26
699.57	259.97
699.90	259.67
700.24	259.35
700.58	259.08
700.91	258.85
701.25	258.68
701.58	258.46
701.92	258.24
702.25	257.98
702.59	257.70
702.92	257.44
703.26	257.18
703.59	256.90
703.93	256.73
704.26	256.48
704.60	256.21
704.93	255.95
705.26	255.67
705.60	255.45
705.93	255.17
706.27	254.96
706.60	254.74
706.94	254.55
707.27	254.27
707.61	254.01
707.94	253.73
708.27	253.36
708.61	253.04
708.94	252.77
709.28	252.52
709.61	252.27
709.94	252.05
710.28	251.83
710.61	251.62
710.95	251.29
711.28	251.15
711.61	250.92
711.95	250.73
712.28	250.50
712.61	250.26
712.95	250.11
713.28	249.95
713.61	249.70
713.95	249.44
714.28	249.24
714.61	249.02
714.95	248.81
715.28	248.60
715.61	248.41
715.95	248.22
716.28	248.03
716.61	247.86
716.95	247.65
717.28	247.45
717.61	247.24
717.94	247.04
718.28	246.76
718.61	246.56
718.94	246.33
719.27	246.15
719.61	245.98
719.94	245.76
720.27	245.49
720.60	245.30
720.94	245.12
721.27	244.95
721.60	244.79
721.93	244.61
722.27	244.48
722.60	244.32
722.93	244.13
723.26	243.95
723.59	243.75
723.93	243.59
724.26	243.42
724.59	243.25
724.92	243.09
725.25	242.97
725.59	242.82
725.92	242.69
726.25	242.53
726.58	242.37
726.91	242.21
727.24	242.08
727.57	241.93
727.91	241.77
728.24	241.64
728.57	241.48
728.90	241.35
729.23	241.15
729.56	241.06
729.89	240.91
730.22	240.75
730.55	240.61
730.89	240.47
731.22	240.32
731.55	240.18
731.88	240.04
732.21	239.88
732.54	239.73
732.87	239.60
733.20	239.48
733.53	239.35
733.86	239.23
734.19	239.08
734.52	238.97
734.85	238.94
735.18	238.78
735.51	238.69
735.84	238.57
736.17	238.48
736.50	238.30
736.83	238.33
737.16	238.22
737.49	238.11
737.82	237.99
738.15	237.90
738.48	237.78
738.81	237.67
739.14	237.55
739.47	237.42
739.80	237.30
740.13	237.20
740.46	237.07
740.79	236.94
741.12	236.83
741.45	236.69
741.78	236.51
742.11	236.44
742.44	236.30
742.77	236.21
743.10	236.09
743.43	235.98
743.75	235.74
744.08	235.83
744.41	235.72
744.74	235.62
745.07	235.49
745.40	235.42
745.73	235.38
746.06	235.29
746.39	235.22
746.71	235.12
747.04	235.01
747.37	234.93
747.70	234.86
748.03	234.78
748.36	234.72
748.68	234.63
749.01	234.51
749.34	234.43
749.67	234.35
750.00	234.28
750.33	234.29
750.65	234.22
750.98	233.95
751.31	233.87
751.64	233.79
751.97	233.79
752.29	233.69
752.62	233.55
752.95	233.46
753.28	233.36
753.60	233.28
753.93	233.24
754.26	233.17
754.59	233.05
754.91	232.96
755.24	232.86
755.57	232.85
755.90	232.77
756.22	232.68
756.55	232.58
756.88	232.48
757.20	232.32
757.53	232.21
757.86	232.14
758.19	232.08
758.51	232.00
758.84	231.87
759.17	231.78
759.49	231.72
759.82	231.72
760.15	231.67
760.47	231.61
760.80	231.50
761.13	231.46
761.45	231.40
761.78	231.35
762.11	231.29
762.43	231.16
762.76	231.11
763.08	231.07
763.41	231.02
763.74	230.97
764.06	230.91
764.39	230.87
764.71	230.81
765.04	230.74
765.37	230.68
765.69	230.63
766.02	230.58
766.34	230.52
766.67	230.41
767.00	230.38
767.32	230.40
767.65	230.43
767.97	230.37
768.30	230.33
768.62	230.29
768.95	230.22
769.27	230.18
769.60	230.15
769.92	230.08
770.25	230.02
770.57	229.95
770.90	229.91
771.22	229.85
771.55	229.81
771.87	229.77
772.20	229.73
772.52	229.80
772.85	229.92
773.17	229.89
773.50	229.84
773.82	229.78
774.15	229.68
774.47	229.56
774.80	229.51
775.12	229.47
775.45	229.43
775.77	229.41
776.09	229.39
776.42	229.35
776.74	229.36
777.07	229.33
777.39	229.30
777.72	229.26
778.04	229.25
778.36	229.21
778.69	229.19
779.01	229.17
779.33	229.03
779.66	228.85
779.98	228.81
780.31	228.79
780.63	228.82
780.95	228.81
781.28	228.78
781.60	228.75
781.92	228.72
782.25	228.70
782.57	228.67
782.89	228.64
783.22	228.61
783.54	228.55
783.86	228.54
784.19	228.51
784.51	228.52
784.83	228.48
785.16	228.46
785.48	228.44
785.80	228.41
786.12	228.40
786.45	228.38
786.77	228.36
787.09	228.34
787.42	228.27
787.74	228.25
788.06	228.23
788.38	228.21
788.71	228.19
789.03	228.17
789.35	228.17
789.67	228.13
789.99	228.12
790.32	228.09
790.64	228.08
790.96	228.18
791.28	228.12
791.61	228.09
791.93	228.08
792.25	228.05
792.57	228.13
792.89	228.09
793.21	228.07
793.54	228.04
793.86	228.01
794.18	228.00
794.50	227.96
794.82	227.94
795.14	227.94
795.47	227.94
795.79	227.93
796.11	227.88
796.43	227.86
796.75	227.84
797.07	227.84
797.39	227.81
797.71	227.69
798.04	227.68
798.36	227.68
798.68	227.66
799.00	227.66
799.32	227.58
799.64	227.59
799.96	227.57
800.28	227.58
800.60	227.56
800.92	227.55
801.24	227.53
801.56	227.53
801.89	227.50
802.21	227.49
802.53	227.46
802.85	227.47
803.17	227.52
803.49	227.48
803.81	227.45
804.13	227.43
804.45	227.40
804.77	227.40
805.09	227.39
805.41	227.36
805.73	227.33
806.05	227.28
806.37	227.26
806.69	227.24
807.01	227.21
807.33	227.20
807.65	227.15
807.97	227.19
808.28	227.17
808.60	227.15
808.92	227.12
809.24	227.19
809.56	227.16
809.88	227.10
810.20	227.10
810.52	227.11
810.84	227.09
811.16	227.06
811.48	227.04
811.80	227.08
812.12	227.06
812.43	227.08
812.75	227.07
813.07	227.05
813.39	227.05
813.71	227.03
814.03	227.01
814.35	227.01
814.67	226.94
814.98	226.93
815.30	226.91
815.62	226.89
815.94	226.80
816.26	226.80
816.58	226.77
816.89	226.77
817.21	226.73
817.53	226.73
817.85	226.73
818.17	226.72
818.48	226.66
818.80	226.68
819.12	226.65
819.44	226.62
819.76	226.60
820.07	226.59
820.39	226.58
820.71	226.59
821.03	226.58
821.34	226.56
821.66	226.58
821.98	226.59
822.30	226.58
822.61	226.65
822.93	226.62
823.25	226.61
823.57	226.59
823.88	226.60
824.20	226.59
824.52	226.60
824.83	226.59
825.15	226.58
825.47	226.56
825.79	226.56
826.10	226.55
826.42	226.54
826.74	226.54
827.05	226.53
827.37	226.53
827.69	226.51
828.00	226.51
828.32	226.50
828.64	226.47
828.95	226.54
829.27	226.49
829.58	226.49
829.90	226.51
830.22	226.51
830.53	226.49
830.85	226.47
831.17	226.43
831.48	226.43
831.80	226.43
832.11	226.42
832.43	226.40
832.75	226.40
833.06	226.47
833.38	226.43
833.69	226.42
834.01	226.41
834.32	226.41
834.64	226.39
834.96	226.39
835.27	226.38
835.59	226.33
835.90	226.31
836.22	226.30
836.53	226.27
836.85	226.25
837.16	226.38
837.48	226.38
837.79	226.42
838.11	226.42
838.42	226.41
838.74	226.42
839.05	226.41
839.37	226.41
839.68	226.32
840.00	226.32
840.31	226.34
840.63	226.32
840.94	226.31
841.26	226.29
841.57	226.29
841.88	226.29
842.20	226.27
842.51	226.25
842.83	226.25
843.14	226.36
843.46	226.36
843.77	226.28
844.08	226.27
844.40	226.23
844.71	226.21
845.03	226.20
845.34	226.18
845.65	226.18
845.97	226.18
846.28	226.18
846.60	226.19
846.91	226.16
847.22	226.16
847.54	226.18
847.85	226.19
848.16	226.18
848.48	226.15
848.79	226.20
849.10	226.21
849.42	226.22
849.73	226.09
850.04	226.10
850.36	226.05
850.67	226.07
850.98	226.07
851.30	226.08
851.61	226.07
851.92	226.07
852.23	226.10
852.55	226.11
852.86	226.11
853.17	226.12
853.49	226.14
853.80	226.17
854.11	226.17
854.42	226.18
854.74	226.17
855.05	226.17
855.36	226.11
855.67	226.11
855.99	226.11
856.30	226.26
856.61	226.25
856.92	226.25
857.23	226.25
857.55	226.23
857.86	226.22
858.17	226.24
858.48	226.22
858.79	226.19
859.11	226.20
859.42	226.19
859.73	226.17
860.04	226.16
860.35	226.12
860.66	226.07
860.98	226.06
861.29	226.08
861.60	226.07
861.91	226.10
862.22	226.08
862.53	226.06
862.84	225.91
863.16	225.93
863.47	225.91
863.78	225.90
864.09	225.91
864.40	225.91
864.71	225.91
865.02	225.93
865.33	225.91
865.64	225.89
865.95	225.89
866.27	225.96
866.58	225.95
866.89	225.96
867.20	225.96
867.51	225.94
867.82	225.94
868.13	225.97
868.44	225.94
868.75	225.97
869.06	225.97
869.37	225.99
869.68	225.95
869.99	225.97
870.30	225.98
870.61	225.99
870.92	225.97
871.23	225.96
871.54	225.97
871.85	226.00
872.16	226.02
872.47	226.01
872.78	225.94
873.09	225.95
873.40	225.94
873.71	225.95
874.02	225.96
874.33	225.94
874.64	225.91
874.95	225.93
875.26	225.91
875.56	225.90
875.87	225.89
876.18	225.89
876.49	226.01
876.80	226.00
877.11	225.97
877.42	225.98
877.73	225.98
878.04	225.96
878.35	225.95
878.66	225.95
878.96	225.95
879.27	225.94
879.58	225.94
879.89	225.93
880.20	225.96
880.51	225.96
880.82	225.96
881.12	225.97
881.43	225.94
881.74	225.93
882.05	225.92
882.36	225.92
882.67	225.93
882.97	225.79
883.28	225.78
883.59	225.78
883.90	225.79
884.21	225.81
884.51	225.80
884.82	225.78
885.13	225.78
885.44	225.78
885.74	225.78
886.05	225.77
886.36	225.77
886.67	225.72
886.98	225.79
887.28	225.79
887.59	225.79
887.90	225.80
888.20	225.79
888.51	225.81
888.82	225.79
889.13	225.80
889.43	225.91
889.74	225.91
890.05	225.91
890.35	225.89
890.66	225.87
890.97	225.86
891.28	225.85
891.58	225.85
891.89	225.85
892.20	225.83
892.50	225.82
892.81	225.81
893.12	225.81
893.42	225.75
893.73	225.75
894.04	225.75
894.34	225.76
894.65	225.75
894.95	225.74
895.26	225.75
895.57	225.80
895.87	225.67
896.18	225.70
896.48	225.70
896.79	225.70
897.10	225.72
897.40	225.72
897.71	225.74
898.01	225.73
898.32	225.74
898.63	225.74
898.93	225.75
899.24	225.75
899.54	225.75
899.85	225.74
900.15	225.74
900.46	225.73
900.76	225.74
901.07	225.74
901.38	225.74
901.68	225.75
901.99	225.69
902.29	225.70
902.60	225.68
902.90	225.67
903.21	225.67
903.51	225.66
903.82	225.68
904.12	225.68
904.43	225.69
904.73	225.68
905.03	225.69
905.34	225.81
905.64	225.80
905.95	225.80
906.25	225.80
906.56	225.80
906.86	225.80
907.17	225.78
907.47	225.79
907.77	225.78
908.08	225.75
908.38	225.76
908.69	225.76
908.99	225.79
909.30	225.80
909.60	225.80
909.90	225.80
910.21	225.77
910.51	225.74
910.81	225.74
911.12	225.75
911.42	225.75
911.73	225.62
912.03	225.63
912.33	225.65
912.64	225.64
912.94	225.63
913.24	225.61
913.55	225.60
913.85	225.59
914.15	225.61
914.46	225.63
914.76	225.62
915.06	225.61
915.37	225.58
915.67	225.57
915.97	225.57
916.27	225.55
916.58	225.56
916.88	225.55
917.18	225.54
917.49	225.63
917.79	225.62
918.09	225.64
918.39	225.67
918.70	225.66
919.00	225.67
919.30	225.73
919.60	225.72
919.91	225.71
920.21	225.72
920.51	225.69
920.81	225.68
921.12	225.70
921.42	225.70
921.72	225.71
922.02	225.72
922.32	225.73
922.63	225.74
922.93	225.81
923.23	225.81
923.53	225.80
923.83	225.72
924.13	225.73
924.44	225.73
924.74	225.75
925.04	225.77
925.34	225.77
925.64	225.72
925.94	225.72
926.24	225.79
926.55	225.78
926.85	225.79
927.15	225.79
927.45	225.79
927.75	225.79
928.05	225.79
928.35	225.78
928.65	225.79
928.95	225.80
929.26	225.74
929.56	225.76
929.86	225.78
930.16	225.76
930.46	225.75
930.76	225.75
931.06	225.70
931.36	225.66
931.66	225.68
931.96	225.69
932.26	225.70
932.56	225.65
932.86	225.66
933.16	225.65
933.46	225.64
933.76	225.62
934.06	225.65
934.36	225.69
934.66	225.68
934.96	225.66
935.26	225.67
935.56	225.69
935.86	225.65
936.16	225.64
936.46	225.63
936.76	225.62
937.06	225.60
937.36	225.61
937.66	225.62
937.96	225.61
938.26	225.58
938.56	225.57
938.86	225.58
939.16	225.61
939.46	225.61
939.76	225.62
940.06	225.62
940.35	225.60
940.65	225.54
940.95	225.55
941.25	225.52
941.55	225.50
941.85	225.49
942.15	225.52
942.45	225.56
942.75	225.55
943.04	225.56
943.34	225.59
943.64	225.57
943.94	225.55
944.24	225.55
944.54	225.56
944.84	225.56
945.13	225.54
945.43	225.52
945.73	225.51
946.03	225.50
946.33	225.49
946.62	225.48
946.92	225.48
947.22	225.48
947.52	225.50
947.82	225.51
948.11	225.50
948.41	225.47
948.71	225.43
949.01	225.44
949.31	225.43
949.60	225.42
949.90	225.44
950.20	225.43
950.50	225.43
950.79	225.42
951.09	225.43
951.39	225.43
951.69	225.42
951.98	225.44
952.28	225.45
952.58	225.45
952.87	225.46
953.17	225.47
953.47	225.46
953.76	225.45
954.06	225.43
954.36	225.42
954.66	225.42
954.95	225.45
955.25	225.46
955.55	225.47
955.84	225.46
956.14	225.46
956.44	225.48
956.73	225.46
957.03	225.47
957.32	225.47
957.62	225.46
957.92	225.49
958.21	225.47
958.51	225.62
958.81	225.63
959.10	225.64
959.40	225.67
959.69	225.68
959.99	225.70
960.29	225.70
960.58	225.70
960.88	225.75
961.17	225.73
961.47	225.74
961.76	225.72
962.06	225.75
962.36	225.73
962.65	225.73
962.95	225.74
963.24	225.73
963.54	225.73
963.83	225.74
964.13	225.73
964.42	225.72
964.72	225.61
965.01	225.61
965.31	225.60
965.60	225.57
965.90	225.64
966.19	225.61
966.49	225.62
966.78	225.62
967.08	225.60
967.37	225.60
967.67	225.58
967.96	225.60
968.26	225.60
968.55	225.61
968.85	225.61
969.14	225.61
969.43	225.60
969.73	225.59
970.02	225.58
970.32	225.57
970.61	225.56
970.91	225.52
971.20	225.50
971.49	225.49
971.79	225.51
972.08	225.42
972.38	225.43
972.67	225.42
972.96	225.44
973.26	225.42
973.55	225.46
973.85	225.45
974.14	225.44
974.43	225.45
974.73	225.42
975.02	225.41
975.31	225.41
975.61	225.41
975.90	225.41
976.19	225.40
976.49	225.41
976.78	225.42
977.07	225.42
977.37	225.43
977.66	225.45
977.95	225.43
978.24	225.44
978.54	225.46
978.83	225.45
979.12	225.44
979.42	225.45
979.71	225.42
980.00	225.41
980.29	225.42
980.59	225.39
980.88	225.43
981.17	225.43
981.46	225.43
981.76	225.43
982.05	225.47
982.34	225.48
982.63	225.47
982.93	225.47
983.22	225.50
983.51	225.51
983.80	225.52
984.09	225.54
984.39	225.53
984.68	225.51
984.97	225.52
985.26	225.51
985.55	225.52
985.85	225.49
986.14	225.51
986.43	225.53
986.72	225.52
987.01	225.48
987.30	225.48
987.59	225.47
987.89	225.47
988.18	225.44
988.47	225.42
988.76	225.41
989.05	225.40
989.34	225.38
989.63	225.41
989.92	225.39
990.22	225.37
990.51	225.37
990.80	225.36
991.09	225.37
991.38	225.39
991.67	225.37
991.96	225.37
992.25	225.37
992.54	225.35
992.83	225.35
993.12	225.35
993.41	225.37
993.70	225.42
993.99	225.44
994.28	225.46
994.58	225.48
994.87	225.47
995.16	225.47
995.45	225.46
995.74	225.41
996.03	225.43
996.32	225.45
996.61	225.48
996.90	225.48
997.19	225.47
997.48	225.47
997.77	225.46
998.06	225.47
998.34	225.46
998.63	225.46
998.92	225.46
999.21	225.48
999.50	225.48
999.79	225.43
1000.08	225.43
1000.37	225.43
1000.66	225.41
1000.95	225.44
1001.24	225.45
1001.53	225.47
1001.82	225.47
1002.11	225.43
1002.40	225.44
1002.68	225.47
1002.97	225.56
1003.26	225.55
1003.55	225.52
1003.84	225.53
1004.13	225.58
1004.42	225.57
1004.71	225.57
1004.99	225.56
1005.28	225.59
1005.57	225.58
1005.86	225.57
1006.15	225.56
1006.44	225.54
1006.72	225.55
1007.01	225.53
1007.30	225.53
1007.59	225.52
1007.88	225.52
1008.17	225.52
1008.45	225.50
1008.74	225.44
1009.03	225.38
1009.32	225.39
1009.60	225.39
1009.89	225.38
1010.18	225.33
1010.47	225.32
1010.76	225.32
1011.04	225.32
1011.33	225.31
1011.62	225.32
1011.91	225.34
1012.19	225.34
1012.48	225.35
1012.77	225.34
1013.05	225.39
1013.34	225.39
1013.63	225.38
1013.92	225.40
1014.20	225.39
1014.49	225.40
1014.78	225.41
1015.06	225.37
1015.35	225.37
1015.64	225.39
1015.92	225.40
1016.21	225.41
1016.50	225.42
1016.78	225.43
1017.07	225.44
1017.36	225.42
1017.64	225.40
1017.93	225.41
1018.22	225.40
1018.50	225.40
1018.79	225.40
1019.08	225.35
1019.36	225.36
1019.65	225.35
1019.93	225.38
1020.22	225.40
1020.51	225.46
1020.79	225.45
1021.08	225.27
1021.36	225.18
1021.65	225.38
1021.94	225.34
1022.22	225.47
1022.51	225.12
1022.79	226.01
1023.08	225.59
1023.36	226.88
1023.65	225.10
>>>>>End Processed Spectral Data<<<<<
