SpectraSuite Data File
++++++++++++++++++++++++++++++++++++
Date: Sat Oct 03 11:24:41 EDT 2015
User: lab3
Dark Spectrum Present: No
Reference Spectrum Present: No
Number of Sampled Component Spectra: 1
Spectrometers: USB2E7196
Integration Time (usec): 46000 (USB2E7196)
Spectra Averaged: 12000 (USB2E7196)
Boxcar Smoothing: 10 (USB2E7196)
Correct for Electrical Dark: No (USB2E7196)
Strobe/Lamp Enabled: No (USB2E7196)
Correct for Detector Non-linearity: No (USB2E7196)
Correct for Stray Light: No (USB2E7196)
Number of Pixels in Processed Spectrum: 2048
>>>>>Begin Processed Spectral Data<<<<<
339.09	0.00
339.48	214.64
339.86	216.10
340.24	217.46
340.63	218.87
341.01	222.14
341.39	221.60
341.78	222.97
342.16	224.18
342.54	224.57
342.93	213.03
343.31	223.79
343.69	224.32
344.07	224.78
344.46	225.21
344.84	225.61
345.22	225.83
345.60	226.09
345.99	226.28
346.37	226.42
346.75	226.52
347.13	226.60
347.52	226.67
347.90	226.76
348.28	226.80
348.66	226.86
349.05	226.85
349.43	226.91
349.81	226.97
350.19	227.02
350.57	227.09
350.96	227.18
351.34	227.27
351.72	227.37
352.10	227.48
352.48	227.55
352.87	227.60
353.25	227.66
353.63	227.72
354.01	227.78
354.39	227.86
354.77	227.94
355.15	228.05
355.54	228.09
355.92	228.12
356.30	228.19
356.68	228.34
357.06	228.42
357.44	228.46
357.82	228.52
358.20	228.64
358.58	228.70
358.97	228.76
359.35	228.85
359.73	228.93
360.11	228.98
360.49	229.04
360.87	229.09
361.25	229.15
361.63	229.24
362.01	229.29
362.39	229.31
362.77	229.36
363.15	229.38
363.53	229.42
363.91	229.45
364.29	229.48
364.67	229.38
365.05	229.40
365.43	229.43
365.81	229.47
366.19	229.48
366.57	229.54
366.95	229.54
367.33	229.51
367.71	229.50
368.09	229.52
368.47	229.51
368.85	229.50
369.23	229.52
369.61	229.46
369.99	229.48
370.37	229.48
370.75	229.56
371.13	229.52
371.51	229.48
371.89	229.46
372.27	229.43
372.65	229.42
373.03	229.38
373.41	229.33
373.78	229.28
374.16	229.18
374.54	229.10
374.92	229.05
375.30	229.01
375.68	228.94
376.06	228.90
376.44	228.85
376.82	228.81
377.19	228.76
377.57	228.71
377.95	228.62
378.33	228.56
378.71	228.40
379.09	228.36
379.47	228.33
379.84	228.27
380.22	228.20
380.60	228.13
380.98	228.08
381.36	228.03
381.73	227.97
382.11	227.95
382.49	227.91
382.87	227.85
383.25	227.80
383.62	227.90
384.00	227.83
384.38	227.80
384.76	227.78
385.13	227.78
385.51	227.74
385.89	227.69
386.27	227.65
386.64	227.64
387.02	227.60
387.40	227.55
387.78	227.53
388.15	227.51
388.53	227.48
388.91	227.45
389.29	227.42
389.66	227.42
390.04	227.38
390.42	227.37
390.79	227.36
391.17	227.35
391.55	227.20
391.92	227.18
392.30	227.19
392.68	227.15
393.05	227.13
393.43	227.13
393.81	227.13
394.18	227.12
394.56	227.11
394.94	227.15
395.31	227.14
395.69	227.19
396.06	227.22
396.44	227.24
396.82	227.25
397.19	227.34
397.57	227.35
397.95	227.40
398.32	227.39
398.70	227.44
399.07	227.51
399.45	227.54
399.82	227.60
400.20	227.63
400.58	227.69
400.95	227.71
401.33	227.79
401.70	227.95
402.08	228.05
402.45	228.14
402.83	228.26
403.20	228.38
403.58	228.48
403.95	228.62
404.33	228.78
404.71	228.93
405.08	229.14
405.46	229.31
405.83	229.50
406.21	229.70
406.58	229.93
406.96	230.14
407.33	230.40
407.70	230.69
408.08	231.09
408.45	231.43
408.83	231.80
409.20	232.13
409.58	232.43
409.95	232.85
410.33	233.30
410.70	233.73
411.08	234.23
411.45	234.76
411.82	235.30
412.20	235.91
412.57	236.65
412.95	237.23
413.32	237.98
413.69	238.75
414.07	239.57
414.44	240.46
414.82	241.37
415.19	242.44
415.56	243.51
415.94	244.63
416.31	245.89
416.68	247.15
417.06	248.61
417.43	249.97
417.81	251.54
418.18	253.14
418.55	254.89
418.93	256.70
419.30	258.60
419.67	260.61
420.04	262.68
420.42	264.82
420.79	267.32
421.16	269.83
421.54	272.38
421.91	275.06
422.28	277.83
422.66	280.81
423.03	283.65
423.40	286.64
423.77	289.84
424.15	293.13
424.52	296.54
424.89	300.24
425.26	303.92
425.64	307.34
426.01	311.18
426.38	315.11
426.75	319.15
427.13	323.31
427.50	327.65
427.87	332.17
428.24	336.74
428.61	341.13
428.99	345.87
429.36	351.08
429.73	356.05
430.10	361.02
430.47	366.11
430.85	371.35
431.22	376.98
431.59	382.75
431.96	388.39
432.33	394.66
432.70	400.62
433.08	407.66
433.45	414.32
433.82	420.88
434.19	428.21
434.56	435.44
434.93	442.41
435.30	449.31
435.68	457.11
436.05	464.74
436.42	472.34
436.79	479.29
437.16	486.77
437.53	494.79
437.90	502.82
438.27	510.69
438.64	519.17
439.01	526.85
439.38	533.88
439.75	540.64
440.13	548.26
440.50	555.50
440.87	561.23
441.24	567.51
441.61	574.37
441.98	579.34
442.35	585.26
442.72	591.29
443.09	597.03
443.46	600.64
443.83	603.26
444.20	605.42
444.57	608.70
444.94	610.51
445.31	612.39
445.68	613.97
446.05	615.08
446.42	614.58
446.79	613.89
447.16	613.28
447.53	612.69
447.90	610.13
448.27	607.66
448.64	604.00
449.01	601.42
449.37	596.40
449.74	591.86
450.11	586.01
450.48	579.63
450.85	573.28
451.22	567.83
451.59	562.52
451.96	557.71
452.33	550.76
452.70	544.60
453.07	537.08
453.43	529.61
453.80	522.36
454.17	515.42
454.54	509.04
454.91	501.82
455.28	495.08
455.65	488.72
456.02	482.02
456.38	476.62
456.75	469.68
457.12	464.09
457.49	458.46
457.86	453.18
458.23	448.55
458.59	443.41
458.96	438.14
459.33	433.52
459.70	428.81
460.07	425.23
460.43	421.02
460.80	417.10
461.17	413.69
461.54	409.97
461.91	406.52
462.27	403.00
462.64	400.18
463.01	396.91
463.38	393.61
463.74	390.65
464.11	388.03
464.48	385.68
464.85	383.11
465.21	381.18
465.58	379.01
465.95	376.51
466.32	374.54
466.68	372.60
467.05	370.64
467.42	368.73
467.78	366.66
468.15	364.76
468.52	363.38
468.88	361.51
469.25	359.80
469.62	358.45
469.98	356.96
470.35	355.64
470.72	354.45
471.08	353.23
471.45	352.20
471.82	351.06
472.18	349.84
472.55	349.06
472.92	348.06
473.28	347.28
473.65	346.44
474.02	345.63
474.38	344.96
474.75	344.55
475.11	344.00
475.48	343.73
475.85	343.44
476.21	343.28
476.58	343.16
476.94	343.28
477.31	343.33
477.67	343.40
478.04	343.59
478.41	343.87
478.77	344.28
479.14	344.54
479.50	345.04
479.87	345.70
480.23	346.36
480.60	347.02
480.96	347.68
481.33	348.67
481.69	349.65
482.06	350.63
482.42	351.52
482.79	352.64
483.15	353.93
483.52	355.41
483.88	356.83
484.25	358.35
484.61	359.93
484.98	361.65
485.34	363.57
485.71	365.59
486.07	367.74
486.44	369.89
486.80	372.29
487.17	374.80
487.53	377.52
487.90	380.38
488.26	383.48
488.62	386.77
488.99	390.06
489.35	393.52
489.72	397.28
490.08	401.23
490.44	405.31
490.81	409.55
491.17	413.89
491.54	418.56
491.90	423.38
492.26	428.53
492.63	433.92
492.99	439.55
493.36	445.38
493.72	451.51
494.08	457.79
494.45	464.47
494.81	471.39
495.17	478.52
495.54	486.05
495.90	493.87
496.26	501.87
496.63	510.13
496.99	518.70
497.35	527.67
497.72	536.92
498.08	546.38
498.44	556.17
498.80	566.54
499.17	577.18
499.53	588.13
499.89	599.48
500.26	611.04
500.62	622.91
500.98	635.41
501.34	648.10
501.71	661.30
502.07	674.72
502.43	688.66
502.79	702.82
503.16	717.44
503.52	732.25
503.88	747.50
504.24	763.21
504.60	779.14
504.97	795.57
505.33	812.43
505.69	830.21
506.05	848.31
506.41	866.32
506.78	884.55
507.14	903.29
507.50	922.46
507.86	942.00
508.22	961.72
508.59	981.29
508.95	1001.70
509.31	1022.87
509.67	1044.72
510.03	1066.54
510.39	1088.44
510.75	1110.53
511.12	1132.90
511.48	1155.42
511.84	1177.99
512.20	1200.99
512.56	1224.84
512.92	1248.71
513.28	1272.17
513.64	1295.93
514.00	1320.15
514.37	1344.64
514.73	1369.16
515.09	1393.55
515.45	1418.27
515.81	1443.13
516.17	1468.15
516.53	1492.64
516.89	1517.01
517.25	1541.55
517.61	1566.00
517.97	1590.89
518.33	1615.32
518.69	1639.68
519.05	1664.54
519.41	1689.72
519.77	1715.01
520.13	1739.60
520.49	1764.09
520.85	1788.95
521.21	1813.30
521.57	1838.06
521.93	1862.30
522.29	1887.01
522.65	1911.23
523.01	1935.43
523.37	1959.26
523.73	1983.79
524.09	2008.02
524.45	2032.01
524.81	2055.66
525.17	2079.17
525.53	2102.11
525.89	2125.44
526.25	2148.80
526.61	2171.15
526.97	2193.59
527.33	2216.03
527.68	2238.10
528.04	2259.38
528.40	2279.69
528.76	2300.37
529.12	2320.50
529.48	2340.29
529.84	2358.23
530.20	2376.85
530.56	2394.82
530.91	2412.97
531.27	2430.77
531.63	2447.67
531.99	2464.18
532.35	2479.94
532.71	2495.84
533.07	2512.41
533.42	2527.22
533.78	2543.03
534.14	2558.94
534.50	2573.87
534.86	2588.55
535.21	2601.33
535.57	2614.69
535.93	2627.82
536.29	2639.69
536.65	2651.41
537.00	2662.42
537.36	2674.44
537.72	2684.95
538.08	2695.04
538.44	2704.45
538.79	2713.38
539.15	2721.56
539.51	2729.32
539.87	2736.40
540.22	2741.55
540.58	2746.77
540.94	2753.21
541.29	2757.92
541.65	2760.90
542.01	2763.22
542.37	2764.96
542.72	2768.00
543.08	2769.28
543.44	2771.17
543.79	2772.04
544.15	2772.08
544.51	2772.52
544.87	2771.82
545.22	2770.37
545.58	2768.20
545.94	2766.06
546.29	2762.64
546.65	2759.21
547.01	2755.78
547.36	2753.13
547.72	2750.50
548.07	2746.13
548.43	2740.22
548.79	2733.38
549.14	2727.93
549.50	2722.69
549.86	2716.40
550.21	2709.00
550.57	2702.64
550.92	2693.95
551.28	2685.93
551.64	2678.24
551.99	2670.05
552.35	2661.17
552.70	2652.63
553.06	2644.40
553.41	2635.42
553.77	2626.32
554.13	2617.16
554.48	2607.10
554.84	2595.82
555.19	2585.07
555.55	2574.35
555.90	2563.71
556.26	2553.70
556.61	2542.50
556.97	2529.66
557.32	2517.37
557.68	2505.04
558.03	2492.45
558.39	2481.08
558.74	2469.94
559.10	2457.03
559.45	2444.44
559.81	2432.53
560.16	2419.89
560.52	2407.54
560.87	2395.61
561.23	2382.75
561.58	2370.02
561.94	2356.95
562.29	2343.30
562.64	2330.40
563.00	2317.20
563.35	2304.40
563.71	2291.43
564.06	2278.32
564.42	2266.02
564.77	2253.13
565.12	2240.10
565.48	2227.03
565.83	2213.97
566.19	2200.95
566.54	2187.93
566.89	2173.78
567.25	2159.79
567.60	2147.18
567.96	2133.62
568.31	2118.74
568.66	2104.71
569.02	2091.78
569.37	2078.77
569.72	2066.29
570.08	2052.54
570.43	2038.45
570.78	2024.19
571.14	2009.19
571.49	1994.91
571.84	1981.16
572.20	1966.15
572.55	1951.50
572.90	1936.67
573.26	1921.86
573.61	1906.57
573.96	1891.71
574.31	1877.11
574.67	1862.52
575.02	1846.93
575.37	1831.48
575.72	1816.83
576.08	1802.41
576.43	1786.88
576.78	1771.84
577.13	1757.07
577.49	1742.60
577.84	1728.74
578.19	1713.92
578.54	1699.35
578.90	1684.27
579.25	1669.10
579.60	1655.52
579.95	1641.75
580.30	1627.84
580.66	1613.62
581.01	1599.39
581.36	1585.20
581.71	1571.98
582.06	1558.63
582.42	1545.51
582.77	1532.41
583.12	1519.28
583.47	1506.08
583.82	1492.99
584.17	1479.52
584.53	1465.70
584.88	1452.32
585.23	1438.45
585.58	1425.44
585.93	1412.60
586.28	1400.51
586.63	1388.38
586.98	1375.78
587.34	1363.26
587.69	1350.50
588.04	1338.08
588.39	1326.03
588.74	1314.05
589.09	1301.85
589.44	1289.27
589.79	1277.34
590.14	1265.49
590.49	1253.57
590.84	1241.79
591.19	1230.42
591.54	1218.87
591.89	1207.45
592.25	1196.21
592.60	1184.66
592.95	1173.49
593.30	1162.56
593.65	1151.32
594.00	1140.21
594.35	1129.67
594.70	1118.73
595.05	1108.64
595.40	1098.43
595.75	1088.03
596.10	1078.23
596.45	1068.12
596.80	1058.34
597.15	1048.34
597.50	1038.49
597.85	1029.03
598.19	1019.40
598.54	1009.83
598.89	1000.70
599.24	991.91
599.59	982.92
599.94	974.85
600.29	966.54
600.64	957.92
600.99	948.94
601.34	940.35
601.69	931.44
602.04	923.17
602.39	914.75
602.74	906.37
603.08	897.98
603.43	889.56
603.78	881.32
604.13	873.23
604.48	865.10
604.83	857.17
605.18	849.18
605.53	841.33
605.87	833.27
606.22	825.57
606.57	817.79
606.92	809.92
607.27	801.96
607.62	794.35
607.96	787.16
608.31	780.41
608.66	773.46
609.01	766.76
609.36	760.20
609.70	753.38
610.05	746.58
610.40	740.02
610.75	733.43
611.10	727.20
611.44	720.81
611.79	714.54
612.14	708.19
612.49	701.92
612.83	695.95
613.18	690.13
613.53	684.18
613.88	678.26
614.22	672.76
614.57	667.21
614.92	661.48
615.27	655.87
615.61	650.32
615.96	644.80
616.31	639.29
616.65	633.84
617.00	628.62
617.35	623.49
617.70	618.42
618.04	613.38
618.39	608.28
618.74	603.43
619.08	598.63
619.43	593.92
619.78	589.23
620.12	584.53
620.47	579.98
620.82	575.55
621.16	571.11
621.51	566.57
621.85	562.08
622.20	557.79
622.55	553.51
622.89	549.30
623.24	545.11
623.59	540.95
623.93	536.96
624.28	533.06
624.62	529.24
624.97	525.45
625.32	521.65
625.66	517.80
626.01	513.92
626.35	510.11
626.70	506.36
627.04	502.75
627.39	499.10
627.73	495.62
628.08	492.22
628.43	488.83
628.77	485.52
629.12	482.32
629.46	479.12
629.81	475.85
630.15	472.57
630.50	469.40
630.84	466.29
631.19	463.23
631.53	460.27
631.88	457.28
632.22	454.31
632.57	451.63
632.91	448.98
633.26	446.40
633.60	443.84
633.95	441.34
634.29	438.77
634.64	436.27
634.98	433.55
635.32	431.00
635.67	428.64
636.01	426.21
636.36	423.82
636.70	421.58
637.05	419.33
637.39	417.11
637.73	414.92
638.08	412.84
638.42	410.72
638.77	408.48
639.11	406.18
639.45	403.99
639.80	401.73
640.14	399.58
640.49	397.42
640.83	395.23
641.17	393.15
641.52	391.10
641.86	389.07
642.20	387.27
642.55	385.30
642.89	383.36
643.23	381.50
643.58	379.82
643.92	377.99
644.26	376.23
644.61	374.53
644.95	372.79
645.29	370.98
645.64	369.20
645.98	367.50
646.32	365.93
646.66	364.34
647.01	362.77
647.35	361.24
647.69	359.70
648.04	358.30
648.38	356.79
648.72	355.33
649.06	353.87
649.41	352.42
649.75	351.01
650.09	349.63
650.43	348.26
650.78	346.82
651.12	345.44
651.46	344.11
651.80	342.80
652.14	341.52
652.49	340.29
652.83	339.03
653.17	337.83
653.51	336.65
653.85	335.53
654.20	334.37
654.54	333.13
654.88	331.99
655.22	330.86
655.56	329.74
655.90	328.67
656.25	327.63
656.59	326.57
656.93	325.59
657.27	324.61
657.61	323.58
657.95	322.59
658.29	321.60
658.64	320.67
658.98	319.72
659.32	318.81
659.66	317.94
660.00	317.09
660.34	316.24
660.68	315.36
661.02	314.45
661.36	313.58
661.70	312.75
662.05	311.94
662.39	311.14
662.73	310.42
663.07	309.69
663.41	308.93
663.75	308.18
664.09	307.42
664.43	306.62
664.77	305.91
665.11	305.16
665.45	304.47
665.79	303.78
666.13	303.06
666.47	302.33
666.81	301.59
667.15	300.83
667.49	300.16
667.83	299.56
668.17	298.93
668.51	298.34
668.85	297.78
669.19	297.25
669.53	296.62
669.87	295.98
670.21	295.37
670.55	294.80
670.89	294.30
671.23	293.75
671.57	293.23
671.91	292.75
672.25	292.28
672.58	291.81
672.92	291.27
673.26	290.82
673.60	290.37
673.94	289.93
674.28	289.52
674.62	289.07
674.96	288.57
675.30	288.13
675.64	287.66
675.97	287.18
676.31	286.67
676.65	286.22
676.99	285.82
677.33	285.36
677.67	284.93
678.01	284.43
678.34	284.00
678.68	283.60
679.02	283.13
679.36	282.69
679.70	282.24
680.04	281.84
680.37	281.43
680.71	281.04
681.05	280.66
681.39	280.24
681.73	279.80
682.06	279.38
682.40	278.98
682.74	278.63
683.08	278.33
683.42	277.96
683.75	277.62
684.09	277.21
684.43	276.86
684.77	276.50
685.10	276.19
685.44	275.84
685.78	275.50
686.12	275.18
686.45	274.83
686.79	274.47
687.13	274.15
687.46	273.79
687.80	273.45
688.14	273.07
688.48	272.75
688.81	272.42
689.15	272.13
689.49	271.78
689.82	271.43
690.16	271.02
690.50	270.70
690.83	270.35
691.17	270.02
691.51	269.69
691.84	269.38
692.18	269.03
692.52	268.67
692.85	268.33
693.19	268.04
693.52	267.72
693.86	267.39
694.20	267.07
694.53	266.77
694.87	266.44
695.21	266.12
695.54	265.80
695.88	265.48
696.21	265.13
696.55	264.83
696.88	264.52
697.22	264.22
697.56	263.91
697.89	263.57
698.23	263.27
698.56	262.94
698.90	262.64
699.23	262.31
699.57	262.01
699.90	261.70
700.24	261.37
700.58	261.10
700.91	260.85
701.25	260.67
701.58	260.44
701.92	260.19
702.25	259.93
702.59	259.64
702.92	259.37
703.26	259.08
703.59	258.79
703.93	258.61
704.26	258.34
704.60	258.06
704.93	257.78
705.26	257.50
705.60	257.27
705.93	256.97
706.27	256.75
706.60	256.53
706.94	256.32
707.27	256.03
707.61	255.76
707.94	255.47
708.27	255.08
708.61	254.76
708.94	254.48
709.28	254.22
709.61	253.96
709.94	253.73
710.28	253.50
710.61	253.29
710.95	252.95
711.28	252.79
711.61	252.55
711.95	252.35
712.28	252.11
712.61	251.85
712.95	251.71
713.28	251.54
713.61	251.27
713.95	251.00
714.28	250.80
714.61	250.57
714.95	250.35
715.28	250.14
715.61	249.93
715.95	249.74
716.28	249.53
716.61	249.36
716.95	249.14
717.28	248.93
717.61	248.71
717.94	248.51
718.28	248.22
718.61	248.02
718.94	247.80
719.27	247.60
719.61	247.43
719.94	247.20
720.27	246.93
720.60	246.74
720.94	246.56
721.27	246.37
721.60	246.21
721.93	246.02
722.27	245.88
722.60	245.71
722.93	245.51
723.26	245.33
723.59	245.11
723.93	244.95
724.26	244.78
724.59	244.60
724.92	244.44
725.25	244.32
725.59	244.16
725.92	244.02
726.25	243.86
726.58	243.69
726.91	243.52
727.24	243.39
727.57	243.23
727.91	243.06
728.24	242.93
728.57	242.76
728.90	242.63
729.23	242.43
729.56	242.33
729.89	242.18
730.22	242.02
730.55	241.88
730.89	241.73
731.22	241.58
731.55	241.43
731.88	241.29
732.21	241.12
732.54	240.98
732.87	240.84
733.20	240.70
733.53	240.57
733.86	240.44
734.19	240.29
734.52	240.18
734.85	240.13
735.18	239.97
735.51	239.88
735.84	239.75
736.17	239.66
736.50	239.47
736.83	239.50
737.16	239.39
737.49	239.28
737.82	239.15
738.15	239.06
738.48	238.94
738.81	238.82
739.14	238.69
739.47	238.57
739.80	238.45
740.13	238.34
740.46	238.21
740.79	238.08
741.12	237.97
741.45	237.83
741.78	237.65
742.11	237.57
742.44	237.43
742.77	237.34
743.10	237.21
743.43	237.10
743.75	236.86
744.08	236.95
744.41	236.83
744.74	236.72
745.07	236.58
745.40	236.51
745.73	236.46
746.06	236.37
746.39	236.30
746.71	236.19
747.04	236.08
747.37	235.99
747.70	235.93
748.03	235.84
748.36	235.77
748.68	235.68
749.01	235.56
749.34	235.47
749.67	235.39
750.00	235.31
750.33	235.32
750.65	235.24
750.98	234.97
751.31	234.89
751.64	234.82
751.97	234.81
752.29	234.72
752.62	234.57
752.95	234.48
753.28	234.38
753.60	234.30
753.93	234.25
754.26	234.18
754.59	234.05
754.91	233.96
755.24	233.87
755.57	233.85
755.90	233.77
756.22	233.68
756.55	233.59
756.88	233.48
757.20	233.32
757.53	233.22
757.86	233.14
758.19	233.07
758.51	232.99
758.84	232.86
759.17	232.78
759.49	232.71
759.82	232.70
760.15	232.65
760.47	232.58
760.80	232.48
761.13	232.44
761.45	232.38
761.78	232.32
762.11	232.26
762.43	232.14
762.76	232.08
763.08	232.03
763.41	231.98
763.74	231.93
764.06	231.87
764.39	231.83
764.71	231.78
765.04	231.71
765.37	231.64
765.69	231.59
766.02	231.54
766.34	231.48
766.67	231.38
767.00	231.35
767.32	231.37
767.65	231.40
767.97	231.33
768.30	231.29
768.62	231.24
768.95	231.18
769.27	231.13
769.60	231.10
769.92	231.03
770.25	230.97
770.57	230.90
770.90	230.86
771.22	230.80
771.55	230.76
771.87	230.72
772.20	230.68
772.52	230.75
772.85	230.86
773.17	230.82
773.50	230.77
773.82	230.71
774.15	230.61
774.47	230.49
774.80	230.44
775.12	230.40
775.45	230.36
775.77	230.33
776.09	230.30
776.42	230.27
776.74	230.27
777.07	230.24
777.39	230.21
777.72	230.17
778.04	230.16
778.36	230.12
778.69	230.09
779.01	230.08
779.33	229.93
779.66	229.76
779.98	229.72
780.31	229.70
780.63	229.72
780.95	229.72
781.28	229.69
781.60	229.66
781.92	229.63
782.25	229.61
782.57	229.58
782.89	229.54
783.22	229.51
783.54	229.46
783.86	229.44
784.19	229.41
784.51	229.42
784.83	229.38
785.16	229.35
785.48	229.33
785.80	229.30
786.12	229.29
786.45	229.27
786.77	229.26
787.09	229.22
787.42	229.16
787.74	229.13
788.06	229.12
788.38	229.09
788.71	229.07
789.03	229.05
789.35	229.05
789.67	229.01
789.99	229.00
790.32	228.97
790.64	228.96
790.96	229.06
791.28	228.99
791.61	228.97
791.93	228.96
792.25	228.93
792.57	229.00
792.89	228.96
793.21	228.95
793.54	228.92
793.86	228.90
794.18	228.88
794.50	228.84
794.82	228.82
795.14	228.82
795.47	228.83
795.79	228.81
796.11	228.76
796.43	228.74
796.75	228.73
797.07	228.72
797.39	228.70
797.71	228.58
798.04	228.57
798.36	228.56
798.68	228.54
799.00	228.53
799.32	228.45
799.64	228.46
799.96	228.44
800.28	228.45
800.60	228.44
800.92	228.43
801.24	228.41
801.56	228.40
801.89	228.38
802.21	228.36
802.53	228.33
802.85	228.35
803.17	228.39
803.49	228.36
803.81	228.33
804.13	228.31
804.45	228.28
804.77	228.28
805.09	228.27
805.41	228.24
805.73	228.21
806.05	228.16
806.37	228.14
806.69	228.11
807.01	228.09
807.33	228.08
807.65	228.03
807.97	228.07
808.28	228.05
808.60	228.03
808.92	228.00
809.24	228.07
809.56	228.04
809.88	227.98
810.20	227.97
810.52	227.99
810.84	227.96
811.16	227.94
811.48	227.91
811.80	227.95
812.12	227.93
812.43	227.95
812.75	227.95
813.07	227.93
813.39	227.92
813.71	227.90
814.03	227.88
814.35	227.88
814.67	227.81
814.98	227.79
815.30	227.78
815.62	227.75
815.94	227.66
816.26	227.66
816.58	227.64
816.89	227.64
817.21	227.60
817.53	227.60
817.85	227.60
818.17	227.60
818.48	227.54
818.80	227.55
819.12	227.52
819.44	227.49
819.76	227.47
820.07	227.46
820.39	227.45
820.71	227.45
821.03	227.44
821.34	227.43
821.66	227.44
821.98	227.45
822.30	227.44
822.61	227.51
822.93	227.49
823.25	227.48
823.57	227.46
823.88	227.47
824.20	227.46
824.52	227.47
824.83	227.46
825.15	227.45
825.47	227.43
825.79	227.44
826.10	227.43
826.42	227.42
826.74	227.42
827.05	227.41
827.37	227.41
827.69	227.40
828.00	227.40
828.32	227.39
828.64	227.36
828.95	227.43
829.27	227.38
829.58	227.38
829.90	227.40
830.22	227.40
830.53	227.37
830.85	227.35
831.17	227.31
831.48	227.31
831.80	227.31
832.11	227.29
832.43	227.27
832.75	227.27
833.06	227.34
833.38	227.30
833.69	227.29
834.01	227.29
834.32	227.28
834.64	227.27
834.96	227.26
835.27	227.26
835.59	227.21
835.90	227.18
836.22	227.17
836.53	227.14
836.85	227.12
837.16	227.25
837.48	227.24
837.79	227.29
838.11	227.29
838.42	227.28
838.74	227.29
839.05	227.28
839.37	227.28
839.68	227.19
840.00	227.19
840.31	227.20
840.63	227.18
840.94	227.17
841.26	227.15
841.57	227.15
841.88	227.15
842.20	227.13
842.51	227.11
842.83	227.11
843.14	227.22
843.46	227.21
843.77	227.14
844.08	227.13
844.40	227.08
844.71	227.07
845.03	227.05
845.34	227.03
845.65	227.03
845.97	227.03
846.28	227.03
846.60	227.04
846.91	227.01
847.22	227.01
847.54	227.04
847.85	227.05
848.16	227.03
848.48	227.00
848.79	227.05
849.10	227.06
849.42	227.06
849.73	226.94
850.04	226.94
850.36	226.89
850.67	226.91
850.98	226.91
851.30	226.92
851.61	226.92
851.92	226.92
852.23	226.95
852.55	226.96
852.86	226.96
853.17	226.96
853.49	226.99
853.80	227.02
854.11	227.02
854.42	227.04
854.74	227.03
855.05	227.04
855.36	226.97
855.67	226.97
855.99	226.97
856.30	227.12
856.61	227.12
856.92	227.12
857.23	227.12
857.55	227.10
857.86	227.10
858.17	227.11
858.48	227.09
858.79	227.06
859.11	227.07
859.42	227.06
859.73	227.04
860.04	227.03
860.35	226.99
860.66	226.95
860.98	226.94
861.29	226.96
861.60	226.95
861.91	226.98
862.22	226.95
862.53	226.93
862.84	226.78
863.16	226.81
863.47	226.78
863.78	226.77
864.09	226.78
864.40	226.78
864.71	226.78
865.02	226.79
865.33	226.78
865.64	226.76
865.95	226.76
866.27	226.83
866.58	226.82
866.89	226.83
867.20	226.83
867.51	226.81
867.82	226.80
868.13	226.84
868.44	226.81
868.75	226.83
869.06	226.84
869.37	226.85
869.68	226.82
869.99	226.84
870.30	226.85
870.61	226.86
870.92	226.84
871.23	226.82
871.54	226.84
871.85	226.87
872.16	226.88
872.47	226.87
872.78	226.80
873.09	226.81
873.40	226.80
873.71	226.81
874.02	226.82
874.33	226.80
874.64	226.77
874.95	226.80
875.26	226.77
875.56	226.76
875.87	226.76
876.18	226.75
876.49	226.87
876.80	226.86
877.11	226.83
877.42	226.84
877.73	226.84
878.04	226.82
878.35	226.82
878.66	226.82
878.96	226.81
879.27	226.81
879.58	226.80
879.89	226.80
880.20	226.83
880.51	226.83
880.82	226.83
881.12	226.83
881.43	226.80
881.74	226.79
882.05	226.78
882.36	226.78
882.67	226.79
882.97	226.65
883.28	226.64
883.59	226.64
883.90	226.65
884.21	226.66
884.51	226.65
884.82	226.63
885.13	226.63
885.44	226.62
885.74	226.62
886.05	226.62
886.36	226.62
886.67	226.57
886.98	226.63
887.28	226.64
887.59	226.64
887.90	226.65
888.20	226.64
888.51	226.67
888.82	226.65
889.13	226.66
889.43	226.77
889.74	226.76
890.05	226.77
890.35	226.75
890.66	226.73
890.97	226.72
891.28	226.71
891.58	226.71
891.89	226.71
892.20	226.70
892.50	226.68
892.81	226.68
893.12	226.68
893.42	226.61
893.73	226.62
894.04	226.61
894.34	226.62
894.65	226.62
894.95	226.61
895.26	226.61
895.57	226.66
895.87	226.54
896.18	226.56
896.48	226.56
896.79	226.56
897.10	226.58
897.40	226.59
897.71	226.60
898.01	226.59
898.32	226.61
898.63	226.61
898.93	226.61
899.24	226.62
899.54	226.61
899.85	226.61
900.15	226.59
900.46	226.59
900.76	226.60
901.07	226.60
901.38	226.59
901.68	226.61
901.99	226.55
902.29	226.56
902.60	226.54
902.90	226.53
903.21	226.53
903.51	226.52
903.82	226.54
904.12	226.54
904.43	226.54
904.73	226.53
905.03	226.54
905.34	226.66
905.64	226.65
905.95	226.65
906.25	226.65
906.56	226.65
906.86	226.65
907.17	226.64
907.47	226.64
907.77	226.63
908.08	226.60
908.38	226.61
908.69	226.62
908.99	226.64
909.30	226.65
909.60	226.65
909.90	226.65
910.21	226.61
910.51	226.59
910.81	226.59
911.12	226.60
911.42	226.60
911.73	226.47
912.03	226.48
912.33	226.50
912.64	226.49
912.94	226.48
913.24	226.46
913.55	226.45
913.85	226.44
914.15	226.47
914.46	226.48
914.76	226.47
915.06	226.46
915.37	226.44
915.67	226.43
915.97	226.43
916.27	226.40
916.58	226.41
916.88	226.41
917.18	226.40
917.49	226.48
917.79	226.47
918.09	226.49
918.39	226.52
918.70	226.51
919.00	226.51
919.30	226.58
919.60	226.57
919.91	226.56
920.21	226.57
920.51	226.54
920.81	226.54
921.12	226.56
921.42	226.55
921.72	226.56
922.02	226.57
922.32	226.58
922.63	226.59
922.93	226.66
923.23	226.67
923.53	226.66
923.83	226.57
924.13	226.59
924.44	226.59
924.74	226.60
925.04	226.63
925.34	226.63
925.64	226.58
925.94	226.57
926.24	226.65
926.55	226.64
926.85	226.65
927.15	226.65
927.45	226.65
927.75	226.65
928.05	226.64
928.35	226.63
928.65	226.65
928.95	226.65
929.26	226.59
929.56	226.61
929.86	226.63
930.16	226.62
930.46	226.60
930.76	226.60
931.06	226.55
931.36	226.51
931.66	226.52
931.96	226.54
932.26	226.55
932.56	226.49
932.86	226.49
933.16	226.49
933.46	226.48
933.76	226.46
934.06	226.48
934.36	226.52
934.66	226.52
934.96	226.49
935.26	226.50
935.56	226.52
935.86	226.49
936.16	226.47
936.46	226.46
936.76	226.46
937.06	226.44
937.36	226.45
937.66	226.45
937.96	226.44
938.26	226.42
938.56	226.41
938.86	226.41
939.16	226.44
939.46	226.45
939.76	226.46
940.06	226.46
940.35	226.44
940.65	226.38
940.95	226.39
941.25	226.36
941.55	226.34
941.85	226.33
942.15	226.36
942.45	226.39
942.75	226.39
943.04	226.40
943.34	226.42
943.64	226.41
943.94	226.39
944.24	226.39
944.54	226.40
944.84	226.40
945.13	226.38
945.43	226.36
945.73	226.35
946.03	226.34
946.33	226.33
946.62	226.32
946.92	226.32
947.22	226.32
947.52	226.33
947.82	226.35
948.11	226.33
948.41	226.31
948.71	226.27
949.01	226.28
949.31	226.27
949.60	226.25
949.90	226.28
950.20	226.28
950.50	226.27
950.79	226.26
951.09	226.28
951.39	226.28
951.69	226.27
951.98	226.29
952.28	226.30
952.58	226.29
952.87	226.30
953.17	226.32
953.47	226.30
953.76	226.30
954.06	226.28
954.36	226.26
954.66	226.26
954.95	226.29
955.25	226.30
955.55	226.31
955.84	226.29
956.14	226.30
956.44	226.31
956.73	226.29
957.03	226.30
957.32	226.30
957.62	226.29
957.92	226.32
958.21	226.30
958.51	226.45
958.81	226.46
959.10	226.48
959.40	226.50
959.69	226.51
959.99	226.53
960.29	226.54
960.58	226.53
960.88	226.59
961.17	226.57
961.47	226.58
961.76	226.56
962.06	226.58
962.36	226.57
962.65	226.57
962.95	226.58
963.24	226.57
963.54	226.57
963.83	226.58
964.13	226.58
964.42	226.57
964.72	226.46
965.01	226.46
965.31	226.45
965.60	226.42
965.90	226.50
966.19	226.47
966.49	226.48
966.78	226.47
967.08	226.46
967.37	226.46
967.67	226.43
967.96	226.46
968.26	226.45
968.55	226.46
968.85	226.46
969.14	226.46
969.43	226.46
969.73	226.45
970.02	226.44
970.32	226.44
970.61	226.42
970.91	226.38
971.20	226.37
971.49	226.36
971.79	226.37
972.08	226.28
972.38	226.30
972.67	226.29
972.96	226.31
973.26	226.28
973.55	226.32
973.85	226.32
974.14	226.31
974.43	226.32
974.73	226.29
975.02	226.28
975.31	226.29
975.61	226.29
975.90	226.28
976.19	226.27
976.49	226.28
976.78	226.29
977.07	226.29
977.37	226.30
977.66	226.31
977.95	226.29
978.24	226.30
978.54	226.32
978.83	226.32
979.12	226.31
979.42	226.31
979.71	226.28
980.00	226.28
980.29	226.28
980.59	226.26
980.88	226.30
981.17	226.30
981.46	226.30
981.76	226.30
982.05	226.34
982.34	226.35
982.63	226.34
982.93	226.34
983.22	226.37
983.51	226.38
983.80	226.39
984.09	226.41
984.39	226.40
984.68	226.38
984.97	226.39
985.26	226.38
985.55	226.39
985.85	226.37
986.14	226.39
986.43	226.40
986.72	226.39
987.01	226.35
987.30	226.35
987.59	226.34
987.89	226.34
988.18	226.30
988.47	226.29
988.76	226.28
989.05	226.27
989.34	226.25
989.63	226.28
989.92	226.25
990.22	226.24
990.51	226.24
990.80	226.23
991.09	226.24
991.38	226.25
991.67	226.24
991.96	226.23
992.25	226.23
992.54	226.21
992.83	226.21
993.12	226.21
993.41	226.23
993.70	226.28
993.99	226.30
994.28	226.32
994.58	226.34
994.87	226.33
995.16	226.33
995.45	226.32
995.74	226.28
996.03	226.30
996.32	226.31
996.61	226.34
996.90	226.34
997.19	226.34
997.48	226.33
997.77	226.33
998.06	226.34
998.34	226.32
998.63	226.32
998.92	226.33
999.21	226.35
999.50	226.34
999.79	226.30
1000.08	226.30
1000.37	226.30
1000.66	226.28
1000.95	226.31
1001.24	226.32
1001.53	226.34
1001.82	226.33
1002.11	226.31
1002.40	226.31
1002.68	226.34
1002.97	226.43
1003.26	226.41
1003.55	226.40
1003.84	226.40
1004.13	226.45
1004.42	226.44
1004.71	226.44
1004.99	226.43
1005.28	226.46
1005.57	226.45
1005.86	226.44
1006.15	226.42
1006.44	226.40
1006.72	226.41
1007.01	226.39
1007.30	226.39
1007.59	226.38
1007.88	226.38
1008.17	226.39
1008.45	226.36
1008.74	226.31
1009.03	226.25
1009.32	226.25
1009.60	226.25
1009.89	226.24
1010.18	226.18
1010.47	226.18
1010.76	226.17
1011.04	226.18
1011.33	226.17
1011.62	226.18
1011.91	226.19
1012.19	226.20
1012.48	226.21
1012.77	226.20
1013.05	226.24
1013.34	226.24
1013.63	226.23
1013.92	226.24
1014.20	226.23
1014.49	226.24
1014.78	226.26
1015.06	226.22
1015.35	226.22
1015.64	226.23
1015.92	226.25
1016.21	226.27
1016.50	226.27
1016.78	226.29
1017.07	226.30
1017.36	226.27
1017.64	226.25
1017.93	226.26
1018.22	226.24
1018.50	226.24
1018.79	226.24
1019.08	226.19
1019.36	226.20
1019.65	226.19
1019.93	226.22
1020.22	226.24
1020.51	226.30
1020.79	226.28
1021.08	226.01
1021.36	226.01
1021.65	226.23
1021.94	226.18
1022.22	226.30
1022.51	225.96
1022.79	226.82
1023.08	226.46
1023.36	227.71
1023.65	225.92
>>>>>End Processed Spectral Data<<<<<
