SpectraSuite Data File
++++++++++++++++++++++++++++++++++++
Date: Fri Oct 02 16:47:46 EDT 2015
User: lab3
Dark Spectrum Present: No
Reference Spectrum Present: No
Number of Sampled Component Spectra: 1
Spectrometers: USB2E7196
Integration Time (usec): 46000 (USB2E7196)
Spectra Averaged: 1200 (USB2E7196)
Boxcar Smoothing: 10 (USB2E7196)
Correct for Electrical Dark: No (USB2E7196)
Strobe/Lamp Enabled: No (USB2E7196)
Correct for Detector Non-linearity: No (USB2E7196)
Correct for Stray Light: No (USB2E7196)
Number of Pixels in Processed Spectrum: 2048
>>>>>Begin Processed Spectral Data<<<<<
339.09	0.00
339.48	214.48
339.86	215.72
340.24	217.16
340.63	218.66
341.01	221.88
341.39	221.45
341.78	222.75
342.16	223.82
342.54	224.26
342.93	212.81
343.31	223.56
343.69	224.09
344.07	224.55
344.46	224.99
344.84	225.38
345.22	225.61
345.60	225.86
345.99	226.06
346.37	226.19
346.75	226.31
347.13	226.39
347.52	226.45
347.90	226.55
348.28	226.59
348.66	226.64
349.05	226.64
349.43	226.70
349.81	226.76
350.19	226.80
350.57	226.87
350.96	226.96
351.34	227.05
351.72	227.15
352.10	227.26
352.48	227.33
352.87	227.38
353.25	227.44
353.63	227.50
354.01	227.56
354.39	227.64
354.77	227.71
355.15	227.82
355.54	227.88
355.92	227.90
356.30	227.97
356.68	228.12
357.06	228.20
357.44	228.24
357.82	228.30
358.20	228.41
358.58	228.46
358.97	228.53
359.35	228.61
359.73	228.69
360.11	228.73
360.49	228.78
360.87	228.83
361.25	228.89
361.63	228.99
362.01	229.04
362.39	229.07
362.77	229.12
363.15	229.14
363.53	229.16
363.91	229.19
364.29	229.21
364.67	229.11
365.05	229.13
365.43	229.16
365.81	229.20
366.19	229.21
366.57	229.27
366.95	229.26
367.33	229.23
367.71	229.22
368.09	229.25
368.47	229.25
368.85	229.23
369.23	229.24
369.61	229.16
369.99	229.17
370.37	229.15
370.75	229.22
371.13	229.19
371.51	229.14
371.89	229.12
372.27	229.10
372.65	229.08
373.03	229.03
373.41	228.98
373.78	228.92
374.16	228.81
374.54	228.73
374.92	228.69
375.30	228.65
375.68	228.59
376.06	228.54
376.44	228.48
376.82	228.44
377.19	228.40
377.57	228.35
377.95	228.26
378.33	228.21
378.71	228.05
379.09	228.00
379.47	227.97
379.84	227.90
380.22	227.84
380.60	227.77
380.98	227.73
381.36	227.68
381.73	227.63
382.11	227.61
382.49	227.57
382.87	227.51
383.25	227.46
383.62	227.56
384.00	227.49
384.38	227.46
384.76	227.44
385.13	227.43
385.51	227.39
385.89	227.34
386.27	227.30
386.64	227.29
387.02	227.25
387.40	227.20
387.78	227.19
388.15	227.16
388.53	227.13
388.91	227.09
389.29	227.05
389.66	227.04
390.04	227.00
390.42	226.99
390.79	226.97
391.17	226.95
391.55	226.79
391.92	226.78
392.30	226.78
392.68	226.74
393.05	226.72
393.43	226.72
393.81	226.73
394.18	226.71
394.56	226.70
394.94	226.73
395.31	226.74
395.69	226.78
396.06	226.82
396.44	226.84
396.82	226.86
397.19	226.95
397.57	226.95
397.95	227.00
398.32	226.99
398.70	227.04
399.07	227.11
399.45	227.15
399.82	227.20
400.20	227.24
400.58	227.29
400.95	227.29
401.33	227.38
401.70	227.54
402.08	227.63
402.45	227.72
402.83	227.84
403.20	227.94
403.58	228.03
403.95	228.17
404.33	228.31
404.71	228.45
405.08	228.65
405.46	228.82
405.83	229.00
406.21	229.21
406.58	229.42
406.96	229.63
407.33	229.89
407.70	230.18
408.08	230.56
408.45	230.89
408.83	231.26
409.20	231.59
409.58	231.89
409.95	232.30
410.33	232.75
410.70	233.16
411.08	233.65
411.45	234.18
411.82	234.71
412.20	235.33
412.57	236.04
412.95	236.61
413.32	237.34
413.69	238.09
414.07	238.88
414.44	239.75
414.82	240.64
415.19	241.67
415.56	242.72
415.94	243.80
416.31	245.02
416.68	246.25
417.06	247.66
417.43	248.99
417.81	250.54
418.18	252.11
418.55	253.81
418.93	255.59
419.30	257.43
419.67	259.39
420.04	261.40
420.42	263.51
420.79	265.95
421.16	268.41
421.54	270.92
421.91	273.53
422.28	276.24
422.66	279.16
423.03	281.96
423.40	284.89
423.77	288.03
424.15	291.25
424.52	294.60
424.89	298.23
425.26	301.82
425.64	305.16
426.01	308.93
426.38	312.79
426.75	316.77
427.13	320.85
427.50	325.12
427.87	329.57
428.24	334.05
428.61	338.36
428.99	343.03
429.36	348.13
429.73	353.04
430.10	357.94
430.47	362.94
430.85	368.11
431.22	373.66
431.59	379.35
431.96	384.91
432.33	391.10
432.70	397.00
433.08	403.96
433.45	410.55
433.82	417.02
434.19	424.26
434.56	431.41
434.93	438.32
435.30	445.14
435.68	452.86
436.05	460.43
436.42	467.97
436.79	474.85
437.16	482.28
437.53	490.23
437.90	498.19
438.27	506.01
438.64	514.40
439.01	522.01
439.38	528.98
439.75	535.69
440.13	543.24
440.50	550.41
440.87	556.10
441.24	562.32
441.61	569.13
441.98	574.08
442.35	579.90
442.72	585.83
443.09	591.51
443.46	595.05
443.83	597.59
444.20	599.72
444.57	602.91
444.94	604.66
445.31	606.46
445.68	607.94
446.05	608.97
446.42	608.42
446.79	607.65
447.16	606.94
447.53	606.26
447.90	603.64
448.27	601.10
448.64	597.39
449.01	594.74
449.37	589.67
449.74	585.06
450.11	579.21
450.48	572.85
450.85	566.46
451.22	561.00
451.59	555.70
451.96	550.89
452.33	543.97
452.70	537.83
453.07	530.39
453.43	522.98
453.80	515.77
454.17	508.89
454.54	502.56
454.91	495.44
455.28	488.78
455.65	482.50
456.02	475.90
456.38	470.56
456.75	463.72
457.12	458.22
457.49	452.69
457.86	447.49
458.23	442.94
458.59	437.91
458.96	432.74
459.33	428.21
459.70	423.59
460.07	420.08
460.43	415.96
460.80	412.11
461.17	408.78
461.54	405.17
461.91	401.79
462.27	398.37
462.64	395.64
463.01	392.46
463.38	389.26
463.74	386.37
464.11	383.85
464.48	381.57
464.85	379.08
465.21	377.20
465.58	375.11
465.95	372.68
466.32	370.78
466.68	368.90
467.05	367.01
467.42	365.16
467.78	363.16
468.15	361.31
468.52	359.98
468.88	358.18
469.25	356.53
469.62	355.22
469.98	353.80
470.35	352.53
470.72	351.38
471.08	350.20
471.45	349.22
471.82	348.13
472.18	346.97
472.55	346.23
472.92	345.31
473.28	344.57
473.65	343.78
474.02	343.03
474.38	342.39
474.75	342.03
475.11	341.51
475.48	341.28
475.85	341.03
476.21	340.91
476.58	340.83
476.94	340.98
477.31	341.06
477.67	341.17
478.04	341.37
478.41	341.68
478.77	342.12
479.14	342.39
479.50	342.93
479.87	343.59
480.23	344.28
480.60	344.93
480.96	345.62
481.33	346.62
481.69	347.60
482.06	348.60
482.42	349.50
482.79	350.63
483.15	351.93
483.52	353.41
483.88	354.82
484.25	356.33
484.61	357.90
484.98	359.62
485.34	361.55
485.71	363.56
486.07	365.70
486.44	367.85
486.80	370.23
487.17	372.69
487.53	375.40
487.90	378.24
488.26	381.34
488.62	384.58
488.99	387.85
489.35	391.27
489.72	394.98
490.08	398.91
490.44	402.95
490.81	407.16
491.17	411.45
491.54	416.08
491.90	420.88
492.26	425.99
492.63	431.36
492.99	436.94
493.36	442.71
493.72	448.81
494.08	455.04
494.45	461.68
494.81	468.56
495.17	475.62
495.54	483.04
495.90	490.78
496.26	498.71
496.63	506.86
496.99	515.34
497.35	524.20
497.72	533.35
498.08	542.70
498.44	552.38
498.80	562.65
499.17	573.16
499.53	584.00
499.89	595.20
500.26	606.62
500.62	618.31
500.98	630.66
501.34	643.14
501.71	656.15
502.07	669.32
502.43	683.05
502.79	697.00
503.16	711.41
503.52	726.00
503.88	741.02
504.24	756.49
504.60	772.13
504.97	788.26
505.33	804.80
505.69	822.22
506.05	839.96
506.41	857.65
506.78	875.49
507.14	893.82
507.50	912.62
507.86	931.69
508.22	951.06
508.59	970.24
508.95	990.19
509.31	1010.84
509.67	1032.18
510.03	1053.49
510.39	1074.86
510.75	1096.41
511.12	1118.23
511.48	1140.17
511.84	1162.15
512.20	1184.50
512.56	1207.68
512.92	1230.88
513.28	1253.69
513.64	1276.69
514.00	1300.09
514.37	1323.82
514.73	1347.50
515.09	1371.01
515.45	1394.87
515.81	1418.83
516.17	1442.88
516.53	1466.49
516.89	1489.94
517.25	1513.57
517.61	1537.05
517.97	1560.96
518.33	1584.32
518.69	1607.59
519.05	1631.34
519.41	1655.27
519.77	1679.46
520.13	1702.84
520.49	1726.14
520.85	1749.74
521.21	1772.92
521.57	1796.44
521.93	1819.45
522.29	1842.93
522.65	1865.85
523.01	1888.71
523.37	1911.12
523.73	1934.25
524.09	1957.08
524.45	1979.67
524.81	2001.81
525.17	2023.80
525.53	2045.17
525.89	2066.98
526.25	2088.79
526.61	2109.50
526.97	2130.40
527.33	2151.11
527.68	2171.58
528.04	2191.31
528.40	2210.07
528.76	2229.04
529.12	2247.45
529.48	2265.56
529.84	2281.90
530.20	2298.84
530.56	2315.16
530.91	2331.62
531.27	2347.74
531.63	2362.99
531.99	2377.85
532.35	2392.00
532.71	2406.29
533.07	2421.08
533.42	2434.16
533.78	2448.09
534.14	2462.30
534.50	2475.57
534.86	2488.61
535.21	2499.76
535.57	2511.37
535.93	2522.78
536.29	2533.05
536.65	2543.22
537.00	2552.67
537.36	2563.08
537.72	2572.02
538.08	2580.47
538.44	2588.30
538.79	2595.72
539.15	2602.39
539.51	2608.62
539.87	2614.27
540.22	2617.99
540.58	2621.85
540.94	2626.88
541.29	2630.45
541.65	2632.30
542.01	2633.46
542.37	2633.95
542.72	2635.75
543.08	2635.93
543.44	2636.70
543.79	2636.44
544.15	2635.33
544.51	2634.61
544.87	2632.75
545.22	2630.30
545.58	2627.16
545.94	2624.00
546.29	2619.57
546.65	2615.22
547.01	2610.77
547.36	2607.02
547.72	2603.42
548.07	2598.19
548.43	2591.50
548.79	2583.97
549.14	2577.62
549.50	2571.56
549.86	2564.58
550.21	2556.63
550.57	2549.49
550.92	2540.17
551.28	2531.43
551.64	2523.01
551.99	2514.20
552.35	2504.81
552.70	2495.71
553.06	2487.00
553.41	2477.70
553.77	2468.22
554.13	2458.57
554.48	2448.21
554.84	2436.71
555.19	2425.67
555.55	2414.73
555.90	2403.88
556.26	2393.48
556.61	2382.05
556.97	2369.10
557.32	2356.71
557.68	2344.21
558.03	2331.55
558.39	2320.02
558.74	2308.77
559.10	2295.95
559.45	2283.28
559.81	2271.24
560.16	2258.66
560.52	2246.26
560.87	2234.17
561.23	2221.34
561.58	2208.64
561.94	2195.71
562.29	2182.23
562.64	2169.45
563.00	2156.32
563.35	2143.61
563.71	2130.68
564.06	2117.77
564.42	2105.50
564.77	2092.71
565.12	2079.84
565.48	2066.96
565.83	2054.06
566.19	2041.30
566.54	2028.52
566.89	2014.79
567.25	2001.13
567.60	1988.71
567.96	1975.53
568.31	1961.09
568.66	1947.30
569.02	1934.66
569.37	1921.91
569.72	1909.73
570.08	1896.31
570.43	1882.58
570.78	1868.71
571.14	1854.30
571.49	1840.43
571.84	1827.13
572.20	1812.78
572.55	1798.61
572.90	1784.36
573.26	1770.14
573.61	1755.45
573.96	1741.28
574.31	1727.23
574.67	1713.28
575.02	1698.38
575.37	1683.53
575.72	1669.59
576.08	1655.97
576.43	1641.26
576.78	1627.00
577.13	1612.94
577.49	1599.28
577.84	1586.22
578.19	1572.30
578.54	1558.53
578.90	1544.30
579.25	1530.03
579.60	1517.19
579.95	1504.28
580.30	1491.23
580.66	1477.96
581.01	1464.65
581.36	1451.23
581.71	1438.79
582.06	1426.30
582.42	1414.05
582.77	1401.87
583.12	1389.66
583.47	1377.31
583.82	1365.08
584.17	1352.50
584.53	1339.65
584.88	1327.18
585.23	1314.31
585.58	1302.23
585.93	1290.34
586.28	1279.13
586.63	1267.90
586.98	1256.29
587.34	1244.74
587.69	1232.94
588.04	1221.50
588.39	1210.40
588.74	1199.45
589.09	1188.29
589.44	1176.75
589.79	1165.79
590.14	1154.93
590.49	1143.98
590.84	1133.19
591.19	1122.76
591.54	1112.20
591.89	1101.81
592.25	1091.57
592.60	1081.03
592.95	1070.83
593.30	1060.87
593.65	1050.65
594.00	1040.52
594.35	1030.87
594.70	1020.87
595.05	1011.64
595.40	1002.30
595.75	992.87
596.10	983.90
596.45	974.76
596.80	965.90
597.15	956.83
597.50	947.91
597.85	939.39
598.19	930.68
598.54	922.06
598.89	913.83
599.24	905.87
599.59	897.75
599.94	890.47
600.29	883.02
600.64	875.30
600.99	867.28
601.34	859.58
601.69	851.58
602.04	844.20
602.39	836.69
602.74	829.27
603.08	821.77
603.43	814.27
603.78	806.91
604.13	799.70
604.48	792.50
604.83	785.44
605.18	778.29
605.53	771.32
605.87	764.19
606.22	757.37
606.57	750.47
606.92	743.49
607.27	736.46
607.62	729.68
607.96	723.30
608.31	717.32
608.66	711.16
609.01	705.29
609.36	699.48
609.70	693.50
610.05	687.45
610.40	681.69
610.75	675.89
611.10	670.41
611.44	664.77
611.79	659.24
612.14	653.64
612.49	648.14
612.83	642.90
613.18	637.80
613.53	632.58
613.88	627.40
614.22	622.62
614.57	617.75
614.92	612.78
615.27	607.88
615.61	603.03
615.96	598.25
616.31	593.45
616.65	588.72
617.00	584.17
617.35	579.75
617.70	575.35
618.04	571.03
618.39	566.60
618.74	562.42
619.08	558.28
619.43	554.24
619.78	550.21
620.12	546.16
620.47	542.26
620.82	538.47
621.16	534.68
621.51	530.80
621.85	526.93
622.20	523.24
622.55	519.59
622.89	515.99
623.24	512.39
623.59	508.84
623.93	505.43
624.28	502.09
624.62	498.87
624.97	495.68
625.32	492.44
625.66	489.20
626.01	485.90
626.35	482.65
626.70	479.45
627.04	476.42
627.39	473.31
627.73	470.35
628.08	467.47
628.43	464.58
628.77	461.77
629.12	459.07
629.46	456.39
629.81	453.62
630.15	450.87
630.50	448.20
630.84	445.57
631.19	442.99
631.53	440.51
631.88	437.97
632.22	435.46
632.57	433.20
632.91	430.97
633.26	428.84
633.60	426.72
633.95	424.65
634.29	422.50
634.64	420.43
634.98	418.17
635.32	416.05
635.67	414.12
636.01	412.10
636.36	410.13
636.70	408.29
637.05	406.43
637.39	404.61
637.73	402.81
638.08	401.12
638.42	399.41
638.77	397.59
639.11	395.69
639.45	393.87
639.80	392.01
640.14	390.24
640.49	388.44
640.83	386.61
641.17	384.88
641.52	383.19
641.86	381.50
642.20	380.00
642.55	378.36
642.89	376.73
643.23	375.20
643.58	373.81
643.92	372.29
644.26	370.84
644.61	369.43
644.95	367.98
645.29	366.44
645.64	364.93
645.98	363.49
646.32	362.17
646.66	360.83
647.01	359.52
647.35	358.26
647.69	356.97
648.04	355.81
648.38	354.56
648.72	353.34
649.06	352.11
649.41	350.90
649.75	349.73
650.09	348.58
650.43	347.41
650.78	346.19
651.12	345.02
651.46	343.90
651.80	342.79
652.14	341.70
652.49	340.68
652.83	339.62
653.17	338.60
653.51	337.62
653.85	336.70
654.20	335.70
654.54	334.61
654.88	333.62
655.22	332.66
655.56	331.67
655.90	330.75
656.25	329.87
656.59	328.95
656.93	328.09
657.27	327.25
657.61	326.34
657.95	325.48
658.29	324.61
658.64	323.78
658.98	322.95
659.32	322.14
659.66	321.37
660.00	320.62
660.34	319.86
660.68	319.06
661.02	318.24
661.36	317.45
661.70	316.71
662.05	315.97
662.39	315.24
662.73	314.59
663.07	313.93
663.41	313.23
663.75	312.53
664.09	311.82
664.43	311.09
664.77	310.44
665.11	309.74
665.45	309.09
665.79	308.45
666.13	307.77
666.47	307.08
666.81	306.38
667.15	305.65
667.49	305.02
667.83	304.44
668.17	303.82
668.51	303.26
668.85	302.71
669.19	302.20
669.53	301.59
669.87	300.95
670.21	300.35
670.55	299.79
670.89	299.29
671.23	298.75
671.57	298.21
671.91	297.73
672.25	297.26
672.58	296.79
672.92	296.24
673.26	295.78
673.60	295.32
673.94	294.86
674.28	294.44
674.62	293.97
674.96	293.46
675.30	293.02
675.64	292.51
675.97	292.00
676.31	291.48
676.65	290.99
676.99	290.58
677.33	290.07
677.67	289.62
678.01	289.09
678.34	288.63
678.68	288.21
679.02	287.70
679.36	287.22
679.70	286.75
680.04	286.32
680.37	285.86
680.71	285.43
681.05	285.02
681.39	284.56
681.73	284.10
682.06	283.64
682.40	283.19
682.74	282.80
683.08	282.46
683.42	282.04
683.75	281.66
684.09	281.20
684.43	280.82
684.77	280.41
685.10	280.05
685.44	279.67
685.78	279.28
686.12	278.92
686.45	278.51
686.79	278.11
687.13	277.73
687.46	277.32
687.80	276.94
688.14	276.50
688.48	276.12
688.81	275.72
689.15	275.38
689.49	274.98
689.82	274.57
690.16	274.12
690.50	273.76
690.83	273.39
691.17	273.00
691.51	272.63
691.84	272.27
692.18	271.87
692.52	271.48
692.85	271.10
693.19	270.76
693.52	270.39
693.86	270.02
694.20	269.65
694.53	269.30
694.87	268.92
695.21	268.57
695.54	268.22
695.88	267.84
696.21	267.46
696.55	267.11
696.88	266.76
697.22	266.40
697.56	266.05
697.89	265.64
698.23	265.31
698.56	264.92
698.90	264.57
699.23	264.20
699.57	263.84
699.90	263.49
700.24	263.10
700.58	262.79
700.91	262.49
701.25	262.28
701.58	262.00
701.92	261.72
702.25	261.40
702.59	261.06
702.92	260.76
703.26	260.44
703.59	260.11
703.93	259.89
704.26	259.59
704.60	259.27
704.93	258.96
705.26	258.64
705.60	258.38
705.93	258.05
706.27	257.80
706.60	257.55
706.94	257.30
707.27	256.97
707.61	256.67
707.94	256.36
708.27	255.93
708.61	255.59
708.94	255.27
709.28	254.99
709.61	254.71
709.94	254.45
710.28	254.19
710.61	253.97
710.95	253.61
711.28	253.42
711.61	253.17
711.95	252.95
712.28	252.67
712.61	252.40
712.95	252.23
713.28	252.03
713.61	251.75
713.95	251.45
714.28	251.23
714.61	250.97
714.95	250.73
715.28	250.49
715.61	250.26
715.95	250.04
716.28	249.82
716.61	249.64
716.95	249.40
717.28	249.18
717.61	248.93
717.94	248.70
718.28	248.40
718.61	248.17
718.94	247.93
719.27	247.73
719.61	247.54
719.94	247.30
720.27	247.01
720.60	246.81
720.94	246.61
721.27	246.42
721.60	246.23
721.93	246.03
722.27	245.87
722.60	245.68
722.93	245.47
723.26	245.28
723.59	245.05
723.93	244.87
724.26	244.70
724.59	244.50
724.92	244.34
725.25	244.21
725.59	244.04
725.92	243.90
726.25	243.72
726.58	243.55
726.91	243.38
727.24	243.23
727.57	243.07
727.91	242.89
728.24	242.76
728.57	242.59
728.90	242.45
729.23	242.26
729.56	242.16
729.89	242.00
730.22	241.83
730.55	241.69
730.89	241.53
731.22	241.38
731.55	241.23
731.88	241.07
732.21	240.90
732.54	240.74
732.87	240.60
733.20	240.47
733.53	240.33
733.86	240.20
734.19	240.05
734.52	239.93
734.85	239.88
735.18	239.71
735.51	239.61
735.84	239.49
736.17	239.39
736.50	239.19
736.83	239.22
737.16	239.10
737.49	238.99
737.82	238.86
738.15	238.76
738.48	238.64
738.81	238.53
739.14	238.40
739.47	238.28
739.80	238.15
740.13	238.04
740.46	237.90
740.79	237.77
741.12	237.66
741.45	237.52
741.78	237.33
742.11	237.25
742.44	237.11
742.77	237.01
743.10	236.89
743.43	236.78
743.75	236.54
744.08	236.63
744.41	236.51
744.74	236.41
745.07	236.27
745.40	236.20
745.73	236.15
746.06	236.06
746.39	235.98
746.71	235.89
747.04	235.79
747.37	235.70
747.70	235.63
748.03	235.56
748.36	235.49
748.68	235.39
749.01	235.26
749.34	235.17
749.67	235.09
750.00	235.01
750.33	235.03
750.65	234.95
750.98	234.67
751.31	234.59
751.64	234.51
751.97	234.49
752.29	234.39
752.62	234.24
752.95	234.16
753.28	234.06
753.60	233.97
753.93	233.92
754.26	233.84
754.59	233.72
754.91	233.63
755.24	233.53
755.57	233.51
755.90	233.44
756.22	233.36
756.55	233.26
756.88	233.16
757.20	233.00
757.53	232.89
757.86	232.82
758.19	232.76
758.51	232.68
758.84	232.55
759.17	232.46
759.49	232.41
759.82	232.39
760.15	232.35
760.47	232.26
760.80	232.16
761.13	232.12
761.45	232.05
761.78	232.00
762.11	231.94
762.43	231.82
762.76	231.76
763.08	231.72
763.41	231.67
763.74	231.62
764.06	231.56
764.39	231.52
764.71	231.45
765.04	231.39
765.37	231.33
765.69	231.29
766.02	231.23
766.34	231.16
766.67	231.06
767.00	231.03
767.32	231.05
767.65	231.07
767.97	231.01
768.30	230.96
768.62	230.91
768.95	230.85
769.27	230.79
769.60	230.77
769.92	230.70
770.25	230.62
770.57	230.56
770.90	230.50
771.22	230.45
771.55	230.40
771.87	230.37
772.20	230.31
772.52	230.37
772.85	230.48
773.17	230.45
773.50	230.41
773.82	230.34
774.15	230.24
774.47	230.13
774.80	230.08
775.12	230.04
775.45	230.01
775.77	229.98
776.09	229.97
776.42	229.92
776.74	229.93
777.07	229.91
777.39	229.88
777.72	229.84
778.04	229.83
778.36	229.80
778.69	229.76
779.01	229.75
779.33	229.62
779.66	229.44
779.98	229.41
780.31	229.39
780.63	229.42
780.95	229.42
781.28	229.39
781.60	229.36
781.92	229.34
782.25	229.31
782.57	229.29
782.89	229.25
783.22	229.23
783.54	229.18
783.86	229.16
784.19	229.13
784.51	229.15
784.83	229.11
785.16	229.08
785.48	229.06
785.80	229.04
786.12	229.03
786.45	229.01
786.77	229.00
787.09	228.97
787.42	228.90
787.74	228.88
788.06	228.87
788.38	228.85
788.71	228.81
789.03	228.80
789.35	228.79
789.67	228.76
789.99	228.75
790.32	228.71
790.64	228.69
790.96	228.79
791.28	228.72
791.61	228.70
791.93	228.70
792.25	228.67
792.57	228.75
792.89	228.71
793.21	228.70
793.54	228.67
793.86	228.65
794.18	228.64
794.50	228.59
794.82	228.57
795.14	228.57
795.47	228.58
795.79	228.55
796.11	228.51
796.43	228.48
796.75	228.46
797.07	228.46
797.39	228.44
797.71	228.32
798.04	228.31
798.36	228.30
798.68	228.27
799.00	228.27
799.32	228.19
799.64	228.19
799.96	228.17
800.28	228.18
800.60	228.15
800.92	228.14
801.24	228.12
801.56	228.12
801.89	228.08
802.21	228.08
802.53	228.05
802.85	228.06
803.17	228.11
803.49	228.07
803.81	228.05
804.13	228.02
804.45	228.00
804.77	227.99
805.09	227.97
805.41	227.95
805.73	227.91
806.05	227.85
806.37	227.82
806.69	227.79
807.01	227.76
807.33	227.76
807.65	227.70
807.97	227.76
808.28	227.73
808.60	227.73
808.92	227.69
809.24	227.76
809.56	227.73
809.88	227.67
810.20	227.67
810.52	227.68
810.84	227.66
811.16	227.64
811.48	227.61
811.80	227.64
812.12	227.63
812.43	227.66
812.75	227.66
813.07	227.64
813.39	227.64
813.71	227.63
814.03	227.59
814.35	227.59
814.67	227.52
814.98	227.50
815.30	227.48
815.62	227.45
815.94	227.35
816.26	227.35
816.58	227.32
816.89	227.31
817.21	227.27
817.53	227.27
817.85	227.27
818.17	227.26
818.48	227.20
818.80	227.22
819.12	227.18
819.44	227.15
819.76	227.13
820.07	227.11
820.39	227.10
820.71	227.11
821.03	227.10
821.34	227.08
821.66	227.08
821.98	227.09
822.30	227.08
822.61	227.15
822.93	227.12
823.25	227.11
823.57	227.10
823.88	227.11
824.20	227.11
824.52	227.13
824.83	227.12
825.15	227.11
825.47	227.10
825.79	227.10
826.10	227.09
826.42	227.09
826.74	227.10
827.05	227.08
827.37	227.08
827.69	227.07
828.00	227.08
828.32	227.09
828.64	227.06
828.95	227.13
829.27	227.09
829.58	227.08
829.90	227.11
830.22	227.10
830.53	227.08
830.85	227.06
831.17	227.02
831.48	227.01
831.80	227.01
832.11	227.01
832.43	226.98
832.75	226.98
833.06	227.05
833.38	227.01
833.69	227.01
834.01	227.00
834.32	227.01
834.64	227.00
834.96	226.97
835.27	226.97
835.59	226.92
835.90	226.89
836.22	226.89
836.53	226.86
836.85	226.84
837.16	226.96
837.48	226.96
837.79	227.01
838.11	227.01
838.42	227.01
838.74	227.01
839.05	227.01
839.37	226.99
839.68	226.91
840.00	226.89
840.31	226.91
840.63	226.90
840.94	226.88
841.26	226.87
841.57	226.87
841.88	226.88
842.20	226.86
842.51	226.84
842.83	226.83
843.14	226.94
843.46	226.94
843.77	226.86
844.08	226.85
844.40	226.80
844.71	226.79
845.03	226.78
845.34	226.77
845.65	226.76
845.97	226.78
846.28	226.78
846.60	226.80
846.91	226.77
847.22	226.77
847.54	226.78
847.85	226.79
848.16	226.76
848.48	226.74
848.79	226.80
849.10	226.83
849.42	226.83
849.73	226.71
850.04	226.71
850.36	226.66
850.67	226.68
850.98	226.68
851.30	226.68
851.61	226.67
851.92	226.66
852.23	226.71
852.55	226.70
852.86	226.70
853.17	226.71
853.49	226.73
853.80	226.74
854.11	226.76
854.42	226.77
854.74	226.76
855.05	226.76
855.36	226.69
855.67	226.68
855.99	226.69
856.30	226.84
856.61	226.83
856.92	226.84
857.23	226.84
857.55	226.84
857.86	226.82
858.17	226.85
858.48	226.83
858.79	226.79
859.11	226.79
859.42	226.79
859.73	226.76
860.04	226.75
860.35	226.72
860.66	226.68
860.98	226.66
861.29	226.68
861.60	226.67
861.91	226.70
862.22	226.68
862.53	226.65
862.84	226.50
863.16	226.53
863.47	226.51
863.78	226.49
864.09	226.50
864.40	226.52
864.71	226.51
865.02	226.54
865.33	226.52
865.64	226.51
865.95	226.51
866.27	226.59
866.58	226.58
866.89	226.59
867.20	226.58
867.51	226.57
867.82	226.55
868.13	226.59
868.44	226.57
868.75	226.60
869.06	226.61
869.37	226.62
869.68	226.59
869.99	226.61
870.30	226.61
870.61	226.62
870.92	226.60
871.23	226.60
871.54	226.60
871.85	226.63
872.16	226.65
872.47	226.64
872.78	226.56
873.09	226.57
873.40	226.56
873.71	226.57
874.02	226.58
874.33	226.57
874.64	226.53
874.95	226.55
875.26	226.52
875.56	226.51
875.87	226.50
876.18	226.49
876.49	226.60
876.80	226.59
877.11	226.57
877.42	226.57
877.73	226.56
878.04	226.53
878.35	226.52
878.66	226.51
878.96	226.51
879.27	226.51
879.58	226.50
879.89	226.50
880.20	226.53
880.51	226.52
880.82	226.53
881.12	226.53
881.43	226.51
881.74	226.50
882.05	226.49
882.36	226.50
882.67	226.50
882.97	226.37
883.28	226.36
883.59	226.35
883.90	226.37
884.21	226.40
884.51	226.39
884.82	226.38
885.13	226.37
885.44	226.36
885.74	226.36
886.05	226.36
886.36	226.36
886.67	226.30
886.98	226.37
887.28	226.37
887.59	226.38
887.90	226.38
888.20	226.38
888.51	226.40
888.82	226.38
889.13	226.40
889.43	226.51
889.74	226.50
890.05	226.50
890.35	226.47
890.66	226.44
890.97	226.43
891.28	226.42
891.58	226.42
891.89	226.43
892.20	226.41
892.50	226.40
892.81	226.39
893.12	226.39
893.42	226.33
893.73	226.32
894.04	226.32
894.34	226.33
894.65	226.32
894.95	226.32
895.26	226.33
895.57	226.38
895.87	226.26
896.18	226.29
896.48	226.31
896.79	226.32
897.10	226.33
897.40	226.34
897.71	226.36
898.01	226.35
898.32	226.36
898.63	226.36
898.93	226.37
899.24	226.37
899.54	226.37
899.85	226.36
900.15	226.36
900.46	226.36
900.76	226.37
901.07	226.37
901.38	226.35
901.68	226.36
901.99	226.30
902.29	226.31
902.60	226.29
902.90	226.27
903.21	226.27
903.51	226.26
903.82	226.29
904.12	226.28
904.43	226.27
904.73	226.26
905.03	226.28
905.34	226.40
905.64	226.40
905.95	226.40
906.25	226.41
906.56	226.41
906.86	226.41
907.17	226.39
907.47	226.39
907.77	226.39
908.08	226.35
908.38	226.35
908.69	226.36
908.99	226.38
909.30	226.39
909.60	226.39
909.90	226.40
910.21	226.35
910.51	226.34
910.81	226.35
911.12	226.36
911.42	226.35
911.73	226.22
912.03	226.23
912.33	226.26
912.64	226.24
912.94	226.22
913.24	226.20
913.55	226.20
913.85	226.18
914.15	226.20
914.46	226.23
914.76	226.23
915.06	226.22
915.37	226.19
915.67	226.18
915.97	226.18
916.27	226.16
916.58	226.17
916.88	226.17
917.18	226.16
917.49	226.23
917.79	226.22
918.09	226.24
918.39	226.26
918.70	226.25
919.00	226.27
919.30	226.33
919.60	226.32
919.91	226.31
920.21	226.32
920.51	226.30
920.81	226.29
921.12	226.31
921.42	226.31
921.72	226.31
922.02	226.31
922.32	226.32
922.63	226.32
922.93	226.39
923.23	226.39
923.53	226.38
923.83	226.29
924.13	226.30
924.44	226.29
924.74	226.31
925.04	226.33
925.34	226.31
925.64	226.27
925.94	226.28
926.24	226.34
926.55	226.33
926.85	226.34
927.15	226.33
927.45	226.33
927.75	226.32
928.05	226.32
928.35	226.32
928.65	226.34
928.95	226.34
929.26	226.28
929.56	226.31
929.86	226.32
930.16	226.30
930.46	226.30
930.76	226.30
931.06	226.24
931.36	226.21
931.66	226.23
931.96	226.24
932.26	226.25
932.56	226.21
932.86	226.21
933.16	226.21
933.46	226.20
933.76	226.18
934.06	226.21
934.36	226.25
934.66	226.23
934.96	226.21
935.26	226.22
935.56	226.25
935.86	226.21
936.16	226.19
936.46	226.20
936.76	226.20
937.06	226.18
937.36	226.19
937.66	226.20
937.96	226.19
938.26	226.16
938.56	226.16
938.86	226.16
939.16	226.18
939.46	226.19
939.76	226.21
940.06	226.21
940.35	226.19
940.65	226.13
940.95	226.16
941.25	226.14
941.55	226.12
941.85	226.12
942.15	226.15
942.45	226.19
942.75	226.18
943.04	226.18
943.34	226.21
943.64	226.19
943.94	226.18
944.24	226.18
944.54	226.19
944.84	226.19
945.13	226.17
945.43	226.15
945.73	226.14
946.03	226.13
946.33	226.11
946.62	226.10
946.92	226.10
947.22	226.08
947.52	226.08
947.82	226.09
948.11	226.08
948.41	226.05
948.71	226.01
949.01	226.03
949.31	226.03
949.60	226.01
949.90	226.03
950.20	226.03
950.50	226.02
950.79	226.01
951.09	226.03
951.39	226.03
951.69	226.02
951.98	226.04
952.28	226.05
952.58	226.05
952.87	226.05
953.17	226.08
953.47	226.07
953.76	226.07
954.06	226.06
954.36	226.04
954.66	226.03
954.95	226.06
955.25	226.07
955.55	226.08
955.84	226.06
956.14	226.07
956.44	226.09
956.73	226.07
957.03	226.07
957.32	226.07
957.62	226.07
957.92	226.09
958.21	226.07
958.51	226.21
958.81	226.23
959.10	226.24
959.40	226.26
959.69	226.27
959.99	226.28
960.29	226.27
960.58	226.27
960.88	226.32
961.17	226.31
961.47	226.31
961.76	226.30
962.06	226.32
962.36	226.31
962.65	226.31
962.95	226.33
963.24	226.31
963.54	226.31
963.83	226.32
964.13	226.32
964.42	226.31
964.72	226.20
965.01	226.20
965.31	226.20
965.60	226.17
965.90	226.25
966.19	226.23
966.49	226.25
966.78	226.24
967.08	226.22
967.37	226.23
967.67	226.22
967.96	226.24
968.26	226.23
968.55	226.24
968.85	226.23
969.14	226.22
969.43	226.23
969.73	226.22
970.02	226.22
970.32	226.21
970.61	226.19
970.91	226.16
971.20	226.14
971.49	226.13
971.79	226.13
972.08	226.05
972.38	226.06
972.67	226.06
972.96	226.09
973.26	226.08
973.55	226.11
973.85	226.09
974.14	226.08
974.43	226.10
974.73	226.08
975.02	226.07
975.31	226.06
975.61	226.06
975.90	226.05
976.19	226.03
976.49	226.05
976.78	226.06
977.07	226.07
977.37	226.08
977.66	226.10
977.95	226.08
978.24	226.09
978.54	226.11
978.83	226.10
979.12	226.09
979.42	226.08
979.71	226.04
980.00	226.05
980.29	226.05
980.59	226.02
980.88	226.05
981.17	226.06
981.46	226.06
981.76	226.08
982.05	226.12
982.34	226.12
982.63	226.12
982.93	226.11
983.22	226.14
983.51	226.14
983.80	226.16
984.09	226.17
984.39	226.16
984.68	226.14
984.97	226.15
985.26	226.14
985.55	226.16
985.85	226.15
986.14	226.17
986.43	226.18
986.72	226.17
987.01	226.13
987.30	226.12
987.59	226.12
987.89	226.12
988.18	226.08
988.47	226.07
988.76	226.07
989.05	226.05
989.34	226.03
989.63	226.05
989.92	226.03
990.22	226.02
990.51	226.01
990.80	226.00
991.09	226.01
991.38	226.04
991.67	226.01
991.96	226.01
992.25	226.01
992.54	225.99
992.83	226.00
993.12	225.99
993.41	226.02
993.70	226.07
993.99	226.08
994.28	226.10
994.58	226.12
994.87	226.11
995.16	226.11
995.45	226.10
995.74	226.05
996.03	226.07
996.32	226.09
996.61	226.12
996.90	226.13
997.19	226.11
997.48	226.10
997.77	226.09
998.06	226.09
998.34	226.07
998.63	226.07
998.92	226.08
999.21	226.10
999.50	226.10
999.79	226.05
1000.08	226.05
1000.37	226.04
1000.66	226.02
1000.95	226.05
1001.24	226.07
1001.53	226.09
1001.82	226.08
1002.11	226.05
1002.40	226.06
1002.68	226.08
1002.97	226.16
1003.26	226.14
1003.55	226.11
1003.84	226.13
1004.13	226.18
1004.42	226.18
1004.71	226.18
1004.99	226.17
1005.28	226.19
1005.57	226.17
1005.86	226.17
1006.15	226.16
1006.44	226.13
1006.72	226.15
1007.01	226.12
1007.30	226.11
1007.59	226.10
1007.88	226.09
1008.17	226.11
1008.45	226.08
1008.74	226.03
1009.03	225.97
1009.32	225.99
1009.60	226.00
1009.89	225.98
1010.18	225.92
1010.47	225.92
1010.76	225.92
1011.04	225.91
1011.33	225.90
1011.62	225.91
1011.91	225.92
1012.19	225.91
1012.48	225.92
1012.77	225.92
1013.05	225.96
1013.34	225.96
1013.63	225.95
1013.92	225.96
1014.20	225.95
1014.49	225.95
1014.78	225.97
1015.06	225.93
1015.35	225.94
1015.64	225.95
1015.92	225.97
1016.21	225.99
1016.50	225.98
1016.78	226.00
1017.07	226.01
1017.36	225.99
1017.64	225.97
1017.93	225.98
1018.22	225.97
1018.50	225.96
1018.79	225.96
1019.08	225.92
1019.36	225.93
1019.65	225.93
1019.93	225.97
1020.22	225.98
1020.51	226.05
1020.79	226.03
1021.08	225.67
1021.36	225.69
1021.65	225.98
1021.94	226.03
1022.22	226.12
1022.51	225.82
1022.79	226.63
1023.08	225.94
1023.36	227.62
1023.65	225.64
>>>>>End Processed Spectral Data<<<<<
