SpectraSuite Data File
++++++++++++++++++++++++++++++++++++
Date: Sun Oct 04 04:31:30 EDT 2015
User: lab3
Dark Spectrum Present: No
Reference Spectrum Present: No
Number of Sampled Component Spectra: 1
Spectrometers: USB2E7196
Integration Time (usec): 46000 (USB2E7196)
Spectra Averaged: 24000 (USB2E7196)
Boxcar Smoothing: 10 (USB2E7196)
Correct for Electrical Dark: No (USB2E7196)
Strobe/Lamp Enabled: No (USB2E7196)
Correct for Detector Non-linearity: No (USB2E7196)
Correct for Stray Light: No (USB2E7196)
Number of Pixels in Processed Spectrum: 2048
>>>>>Begin Processed Spectral Data<<<<<
339.09	0.00
339.48	213.10
339.86	214.58
340.24	215.93
340.63	217.34
341.01	220.64
341.39	220.06
341.78	221.51
342.16	222.66
342.54	223.10
342.93	211.59
343.31	222.28
343.69	222.82
344.07	223.28
344.46	223.71
344.84	224.11
345.22	224.33
345.60	224.59
345.99	224.78
346.37	224.92
346.75	225.03
347.13	225.11
347.52	225.18
347.90	225.28
348.28	225.31
348.66	225.37
349.05	225.37
349.43	225.43
349.81	225.49
350.19	225.55
350.57	225.62
350.96	225.71
351.34	225.80
351.72	225.90
352.10	226.01
352.48	226.08
352.87	226.13
353.25	226.20
353.63	226.26
354.01	226.32
354.39	226.40
354.77	226.48
355.15	226.58
355.54	226.63
355.92	226.65
356.30	226.73
356.68	226.88
357.06	226.96
357.44	227.01
357.82	227.07
358.20	227.19
358.58	227.25
358.97	227.31
359.35	227.39
359.73	227.48
360.11	227.53
360.49	227.59
360.87	227.64
361.25	227.70
361.63	227.79
362.01	227.85
362.39	227.88
362.77	227.93
363.15	227.95
363.53	227.98
363.91	228.02
364.29	228.04
364.67	227.94
365.05	227.97
365.43	228.00
365.81	228.03
366.19	228.05
366.57	228.10
366.95	228.11
367.33	228.08
367.71	228.07
368.09	228.09
368.47	228.09
368.85	228.07
369.23	228.09
369.61	228.02
369.99	228.05
370.37	228.05
370.75	228.12
371.13	228.09
371.51	228.05
371.89	228.03
372.27	228.00
372.65	227.98
373.03	227.94
373.41	227.90
373.78	227.85
374.16	227.75
374.54	227.67
374.92	227.62
375.30	227.58
375.68	227.51
376.06	227.46
376.44	227.41
376.82	227.37
377.19	227.32
377.57	227.27
377.95	227.17
378.33	227.11
378.71	226.95
379.09	226.90
379.47	226.87
379.84	226.81
380.22	226.74
380.60	226.67
380.98	226.62
381.36	226.57
381.73	226.51
382.11	226.49
382.49	226.44
382.87	226.38
383.25	226.34
383.62	226.45
384.00	226.38
384.38	226.34
384.76	226.33
385.13	226.33
385.51	226.29
385.89	226.24
386.27	226.21
386.64	226.19
387.02	226.15
387.40	226.10
387.78	226.08
388.15	226.06
388.53	226.03
388.91	226.00
389.29	225.97
389.66	225.97
390.04	225.93
390.42	225.93
390.79	225.92
391.17	225.90
391.55	225.74
391.92	225.73
392.30	225.74
392.68	225.70
393.05	225.68
393.43	225.68
393.81	225.69
394.18	225.67
394.56	225.67
394.94	225.70
395.31	225.70
395.69	225.75
396.06	225.78
396.44	225.81
396.82	225.82
397.19	225.92
397.57	225.93
397.95	225.98
398.32	225.98
398.70	226.03
399.07	226.10
399.45	226.14
399.82	226.19
400.20	226.23
400.58	226.30
400.95	226.31
401.33	226.41
401.70	226.57
402.08	226.68
402.45	226.77
402.83	226.90
403.20	227.02
403.58	227.13
403.95	227.28
404.33	227.44
404.71	227.59
405.08	227.82
405.46	227.99
405.83	228.20
406.21	228.41
406.58	228.65
406.96	228.88
407.33	229.15
407.70	229.46
408.08	229.87
408.45	230.23
408.83	230.62
409.20	230.98
409.58	231.31
409.95	231.75
410.33	232.23
410.70	232.68
411.08	233.22
411.45	233.78
411.82	234.35
412.20	235.01
412.57	235.78
412.95	236.40
413.32	237.20
413.69	238.02
414.07	238.89
414.44	239.83
414.82	240.79
415.19	241.92
415.56	243.07
415.94	244.26
416.31	245.59
416.68	246.92
417.06	248.47
417.43	249.92
417.81	251.58
418.18	253.28
418.55	255.14
418.93	257.07
419.30	259.08
419.67	261.22
420.04	263.41
420.42	265.70
420.79	268.34
421.16	271.01
421.54	273.73
421.91	276.56
422.28	279.51
422.66	282.68
423.03	285.71
423.40	288.89
423.77	292.29
424.15	295.78
424.52	299.42
424.89	303.36
425.26	307.27
425.64	310.91
426.01	315.00
426.38	319.18
426.75	323.49
427.13	327.91
427.50	332.54
427.87	337.35
428.24	342.21
428.61	346.88
428.99	351.93
429.36	357.47
429.73	362.77
430.10	368.07
430.47	373.49
430.85	379.06
431.22	385.05
431.59	391.19
431.96	397.19
432.33	403.85
432.70	410.19
433.08	417.67
433.45	424.75
433.82	431.74
434.19	439.52
434.56	447.20
434.93	454.63
435.30	461.96
435.68	470.26
436.05	478.38
436.42	486.48
436.79	493.86
437.16	501.83
437.53	510.38
437.90	518.94
438.27	527.30
438.64	536.35
439.01	544.55
439.38	552.05
439.75	559.27
440.13	567.42
440.50	575.17
440.87	581.31
441.24	588.04
441.61	595.37
441.98	600.72
442.35	607.06
442.72	613.53
443.09	619.70
443.46	623.59
443.83	626.43
444.20	628.80
444.57	632.35
444.94	634.33
445.31	636.38
445.68	638.10
446.05	639.36
446.42	638.89
446.79	638.21
447.16	637.60
447.53	637.03
447.90	634.35
448.27	631.78
448.64	627.91
449.01	625.19
449.37	619.86
449.74	615.05
450.11	608.85
450.48	602.07
450.85	595.31
451.22	589.53
451.59	583.90
451.96	578.81
452.33	571.40
452.70	564.85
453.07	556.86
453.43	548.90
453.80	541.18
454.17	533.78
454.54	526.99
454.91	519.30
455.28	512.10
455.65	505.32
456.02	498.13
456.38	492.37
456.75	484.97
457.12	479.02
457.49	473.00
457.86	467.36
458.23	462.41
458.59	456.91
458.96	451.27
459.33	446.31
459.70	441.25
460.07	437.41
460.43	432.91
460.80	428.70
461.17	425.05
461.54	421.07
461.91	417.34
462.27	413.55
462.64	410.52
463.01	407.00
463.38	403.47
463.74	400.30
464.11	397.49
464.48	394.96
464.85	392.19
465.21	390.11
465.58	387.77
465.95	385.08
466.32	382.96
466.68	380.87
467.05	378.76
467.42	376.71
467.78	374.48
468.15	372.42
468.52	370.92
468.88	368.90
469.25	367.06
469.62	365.59
469.98	363.98
470.35	362.54
470.72	361.24
471.08	359.91
471.45	358.79
471.82	357.54
472.18	356.22
472.55	355.35
472.92	354.27
473.28	353.41
473.65	352.50
474.02	351.62
474.38	350.87
474.75	350.41
475.11	349.79
475.48	349.48
475.85	349.14
476.21	348.94
476.58	348.79
476.94	348.89
477.31	348.91
477.67	348.97
478.04	349.14
478.41	349.41
478.77	349.82
479.14	350.06
479.50	350.57
479.87	351.25
480.23	351.93
480.60	352.60
480.96	353.27
481.33	354.29
481.69	355.30
482.06	356.31
482.42	357.23
482.79	358.38
483.15	359.73
483.52	361.26
483.88	362.73
484.25	364.31
484.61	365.94
484.98	367.71
485.34	369.71
485.71	371.81
486.07	374.05
486.44	376.29
486.80	378.79
487.17	381.39
487.53	384.22
487.90	387.19
488.26	390.43
488.62	393.84
488.99	397.26
489.35	400.87
489.72	404.78
490.08	408.90
490.44	413.15
490.81	417.57
491.17	422.10
491.54	426.95
491.90	431.96
492.26	437.33
492.63	442.94
492.99	448.80
493.36	454.88
493.72	461.26
494.08	467.80
494.45	474.75
494.81	481.96
495.17	489.37
495.54	497.20
495.90	505.34
496.26	513.67
496.63	522.24
496.99	531.14
497.35	540.44
497.72	550.06
498.08	559.88
498.44	570.03
498.80	580.80
499.17	591.83
499.53	603.23
499.89	614.98
500.26	627.00
500.62	639.29
500.98	652.26
501.34	665.40
501.71	679.09
502.07	692.96
502.43	707.37
502.79	722.04
503.16	737.19
503.52	752.49
503.88	768.27
504.24	784.54
504.60	801.00
504.97	817.97
505.33	835.36
505.69	853.70
506.05	872.40
506.41	891.07
506.78	909.89
507.14	929.21
507.50	948.99
507.86	969.13
508.22	989.52
508.59	1009.70
508.95	1030.69
509.31	1052.41
509.67	1074.93
510.03	1097.48
510.39	1120.03
510.75	1142.70
511.12	1165.69
511.48	1188.84
511.84	1211.97
512.20	1235.53
512.56	1260.03
512.92	1284.57
513.28	1308.63
513.64	1332.92
514.00	1357.70
514.37	1382.86
514.73	1407.91
515.09	1432.81
515.45	1458.02
515.81	1483.47
516.17	1508.93
516.53	1534.00
516.89	1558.90
517.25	1583.95
517.61	1608.80
517.97	1634.11
518.33	1658.97
518.69	1683.76
519.05	1708.97
519.41	1734.44
519.77	1760.22
520.13	1785.11
520.49	1809.94
520.85	1835.11
521.21	1859.96
521.57	1885.10
521.93	1909.61
522.29	1934.74
522.65	1959.24
523.01	1983.70
523.37	2007.71
523.73	2032.55
524.09	2056.95
524.45	2081.14
524.81	2104.95
525.17	2128.62
525.53	2151.70
525.89	2175.23
526.25	2198.81
526.61	2221.34
526.97	2244.00
527.33	2266.53
527.68	2288.89
528.04	2310.31
528.40	2330.84
528.76	2351.37
529.12	2371.43
529.48	2391.33
529.84	2409.18
530.20	2427.80
530.56	2445.76
530.91	2463.86
531.27	2481.57
531.63	2498.44
531.99	2514.80
532.35	2530.39
532.71	2546.19
533.07	2562.62
533.42	2577.17
533.78	2592.62
534.14	2608.47
534.50	2623.32
534.86	2637.89
535.21	2650.31
535.57	2663.35
535.93	2676.23
536.29	2688.02
536.65	2699.53
537.00	2710.14
537.36	2721.89
537.72	2732.29
538.08	2742.07
538.44	2751.06
538.79	2759.62
539.15	2767.48
539.51	2775.05
539.87	2781.99
540.22	2786.77
540.58	2791.67
540.94	2797.71
541.29	2802.29
541.65	2804.97
542.01	2806.88
542.37	2808.08
542.72	2810.80
543.08	2811.70
543.44	2813.13
543.79	2813.53
544.15	2813.13
544.51	2813.16
544.87	2812.03
545.22	2810.01
545.58	2807.33
545.94	2804.65
546.29	2800.73
546.65	2796.76
547.01	2792.64
547.36	2789.30
547.72	2786.30
548.07	2781.42
548.43	2775.14
548.79	2767.72
549.14	2761.57
549.50	2755.85
549.86	2749.14
550.21	2741.22
550.57	2734.33
550.92	2725.06
551.28	2716.23
551.64	2707.88
551.99	2699.20
552.35	2689.86
552.70	2680.80
553.06	2672.11
553.41	2662.85
553.77	2653.37
554.13	2643.84
554.48	2633.40
554.84	2621.64
555.19	2610.20
555.55	2598.96
555.90	2587.82
556.26	2577.34
556.61	2565.67
556.97	2552.30
557.32	2539.33
557.68	2526.50
558.03	2513.31
558.39	2501.50
558.74	2490.07
559.10	2476.82
559.45	2463.64
559.81	2451.10
560.16	2437.94
560.52	2425.15
560.87	2412.75
561.23	2399.54
561.58	2386.26
561.94	2372.78
562.29	2358.69
562.64	2345.41
563.00	2331.83
563.35	2318.55
563.71	2305.12
564.06	2291.66
564.42	2278.99
564.77	2265.89
565.12	2252.59
565.48	2239.25
565.83	2225.76
566.19	2212.47
566.54	2199.11
566.89	2184.66
567.25	2170.37
567.60	2157.56
567.96	2143.76
568.31	2128.51
568.66	2113.88
569.02	2100.55
569.37	2087.24
569.72	2074.46
570.08	2060.40
570.43	2045.89
570.78	2031.35
571.14	2016.07
571.49	2001.37
571.84	1987.26
572.20	1971.96
572.55	1956.78
572.90	1941.64
573.26	1926.62
573.61	1911.05
573.96	1895.92
574.31	1881.07
574.67	1866.33
575.02	1850.38
575.37	1834.59
575.72	1819.71
576.08	1805.14
576.43	1789.50
576.78	1774.22
577.13	1759.19
577.49	1744.54
577.84	1730.54
578.19	1715.62
578.54	1700.77
578.90	1685.48
579.25	1670.07
579.60	1656.26
579.95	1642.42
580.30	1628.35
580.66	1613.99
581.01	1599.58
581.36	1585.17
581.71	1571.70
582.06	1558.17
582.42	1544.88
582.77	1531.66
583.12	1518.44
583.47	1505.12
583.82	1491.89
584.17	1478.27
584.53	1464.41
584.88	1450.88
585.23	1437.02
585.58	1423.87
585.93	1410.92
586.28	1398.73
586.63	1386.48
586.98	1373.80
587.34	1361.20
587.69	1348.32
588.04	1335.76
588.39	1323.54
588.74	1311.49
589.09	1299.26
589.44	1286.58
589.79	1274.56
590.14	1262.61
590.49	1250.55
590.84	1238.66
591.19	1227.16
591.54	1215.48
591.89	1203.91
592.25	1192.58
592.60	1180.83
592.95	1169.52
593.30	1158.53
593.65	1147.23
594.00	1136.07
594.35	1125.47
594.70	1114.39
595.05	1104.17
595.40	1093.85
595.75	1083.38
596.10	1073.42
596.45	1063.27
596.80	1053.46
597.15	1043.34
597.50	1033.41
597.85	1023.91
598.19	1014.24
598.54	1004.58
598.89	995.47
599.24	986.64
599.59	977.56
599.94	969.39
600.29	961.06
600.64	952.44
600.99	943.48
601.34	934.83
601.69	925.84
602.04	917.58
602.39	909.12
602.74	900.75
603.08	892.33
603.43	883.87
603.78	875.57
604.13	867.40
604.48	859.29
604.83	851.32
605.18	843.30
605.53	835.47
605.87	827.50
606.22	819.72
606.57	811.94
606.92	804.10
607.27	796.20
607.62	788.55
607.96	781.30
608.31	774.50
608.66	767.52
609.01	760.81
609.36	754.19
609.70	747.43
610.05	740.60
610.40	734.06
610.75	727.48
611.10	721.27
611.44	714.89
611.79	708.63
612.14	702.28
612.49	695.99
612.83	690.01
613.18	684.14
613.53	678.22
613.88	672.30
614.22	666.75
614.57	661.17
614.92	655.47
615.27	649.85
615.61	644.29
615.96	638.81
616.31	633.33
616.65	627.89
617.00	622.63
617.35	617.51
617.70	612.40
618.04	607.39
618.39	602.28
618.74	597.40
619.08	592.56
619.43	587.86
619.78	583.15
620.12	578.43
620.47	573.83
620.82	569.35
621.16	564.95
621.51	560.45
621.85	555.98
622.20	551.65
622.55	547.39
622.89	543.20
623.24	539.02
623.59	534.85
623.93	530.85
624.28	526.97
624.62	523.16
624.97	519.41
625.32	515.59
625.66	511.75
626.01	507.89
626.35	504.08
626.70	500.31
627.04	496.75
627.39	493.09
627.73	489.63
628.08	486.24
628.43	482.84
628.77	479.50
629.12	476.30
629.46	473.15
629.81	469.87
630.15	466.58
630.50	463.40
630.84	460.28
631.19	457.22
631.53	454.23
631.88	451.22
632.22	448.24
632.57	445.53
632.91	442.85
633.26	440.27
633.60	437.71
633.95	435.20
634.29	432.60
634.64	430.08
634.98	427.39
635.32	424.81
635.67	422.43
636.01	420.00
636.36	417.58
636.70	415.29
637.05	413.02
637.39	410.80
637.73	408.58
638.08	406.49
638.42	404.39
638.77	402.15
639.11	399.85
639.45	397.64
639.80	395.38
640.14	393.22
640.49	391.04
640.83	388.84
641.17	386.74
641.52	384.69
641.86	382.67
642.20	380.84
642.55	378.87
642.89	376.92
643.23	375.06
643.58	373.36
643.92	371.55
644.26	369.79
644.61	368.07
644.95	366.33
645.29	364.52
645.64	362.72
645.98	361.03
646.32	359.44
646.66	357.85
647.01	356.28
647.35	354.75
647.69	353.21
648.04	351.80
648.38	350.30
648.72	348.82
649.06	347.36
649.41	345.90
649.75	344.49
650.09	343.11
650.43	341.73
650.78	340.31
651.12	338.93
651.46	337.60
651.80	336.30
652.14	335.02
652.49	333.79
652.83	332.53
653.17	331.32
653.51	330.14
653.85	329.02
654.20	327.85
654.54	326.62
654.88	325.46
655.22	324.34
655.56	323.22
655.90	322.16
656.25	321.13
656.59	320.09
656.93	319.11
657.27	318.14
657.61	317.11
657.95	316.15
658.29	315.16
658.64	314.23
658.98	313.29
659.32	312.38
659.66	311.53
660.00	310.70
660.34	309.86
660.68	309.00
661.02	308.12
661.36	307.27
661.70	306.47
662.05	305.69
662.39	304.90
662.73	304.19
663.07	303.49
663.41	302.74
663.75	301.99
664.09	301.25
664.43	300.47
664.77	299.77
665.11	299.03
665.45	298.36
665.79	297.69
666.13	297.00
666.47	296.29
666.81	295.57
667.15	294.83
667.49	294.18
667.83	293.59
668.17	292.97
668.51	292.39
668.85	291.84
669.19	291.33
669.53	290.72
669.87	290.10
670.21	289.51
670.55	288.95
670.89	288.48
671.23	287.96
671.57	287.44
671.91	286.98
672.25	286.54
672.58	286.10
672.92	285.58
673.26	285.13
673.60	284.70
673.94	284.28
674.28	283.89
674.62	283.48
674.96	283.00
675.30	282.59
675.64	282.14
675.97	281.68
676.31	281.20
676.65	280.76
676.99	280.40
677.33	279.96
677.67	279.55
678.01	279.07
678.34	278.67
678.68	278.30
679.02	277.86
679.36	277.44
679.70	277.01
680.04	276.63
680.37	276.25
680.71	275.88
681.05	275.53
681.39	275.13
681.73	274.72
682.06	274.34
682.40	273.96
682.74	273.64
683.08	273.36
683.42	273.01
683.75	272.70
684.09	272.31
684.43	271.99
684.77	271.65
685.10	271.36
685.44	271.05
685.78	270.72
686.12	270.43
686.45	270.11
686.79	269.78
687.13	269.48
687.46	269.14
687.80	268.84
688.14	268.48
688.48	268.18
688.81	267.88
689.15	267.60
689.49	267.29
689.82	266.96
690.16	266.58
690.50	266.28
690.83	265.97
691.17	265.66
691.51	265.36
691.84	265.08
692.18	264.76
692.52	264.44
692.85	264.14
693.19	263.87
693.52	263.58
693.86	263.29
694.20	262.99
694.53	262.72
694.87	262.41
695.21	262.12
695.54	261.84
695.88	261.54
696.21	261.22
696.55	260.95
696.88	260.66
697.22	260.39
697.56	260.11
697.89	259.80
698.23	259.53
698.56	259.23
698.90	258.95
699.23	258.66
699.57	258.38
699.90	258.09
700.24	257.78
700.58	257.53
700.91	257.30
701.25	257.15
701.58	256.93
701.92	256.72
702.25	256.47
702.59	256.21
702.92	255.96
703.26	255.72
703.59	255.45
703.93	255.29
704.26	255.05
704.60	254.79
704.93	254.54
705.26	254.27
705.60	254.06
705.93	253.79
706.27	253.59
706.60	253.38
706.94	253.20
707.27	252.93
707.61	252.67
707.94	252.41
708.27	252.04
708.61	251.74
708.94	251.47
709.28	251.23
709.61	250.99
709.94	250.77
710.28	250.55
710.61	250.35
710.95	250.03
711.28	249.89
711.61	249.67
711.95	249.49
712.28	249.26
712.61	249.02
712.95	248.88
713.28	248.73
713.61	248.48
713.95	248.23
714.28	248.03
714.61	247.82
714.95	247.61
715.28	247.41
715.61	247.22
715.95	247.04
716.28	246.85
716.61	246.69
716.95	246.49
717.28	246.29
717.61	246.09
717.94	245.90
718.28	245.63
718.61	245.43
718.94	245.22
719.27	245.04
719.61	244.87
719.94	244.66
720.27	244.39
720.60	244.21
720.94	244.03
721.27	243.86
721.60	243.71
721.93	243.54
722.27	243.41
722.60	243.25
722.93	243.07
723.26	242.90
723.59	242.69
723.93	242.54
724.26	242.38
724.59	242.21
724.92	242.06
725.25	241.94
725.59	241.79
725.92	241.66
726.25	241.51
726.58	241.36
726.91	241.20
727.24	241.07
727.57	240.92
727.91	240.76
728.24	240.63
728.57	240.48
728.90	240.35
729.23	240.16
729.56	240.07
729.89	239.93
730.22	239.78
730.55	239.64
730.89	239.51
731.22	239.36
731.55	239.23
731.88	239.09
732.21	238.93
732.54	238.79
732.87	238.66
733.20	238.53
733.53	238.41
733.86	238.29
734.19	238.15
734.52	238.05
734.85	238.02
735.18	237.86
735.51	237.77
735.84	237.66
736.17	237.58
736.50	237.40
736.83	237.43
737.16	237.32
737.49	237.22
737.82	237.10
738.15	237.02
738.48	236.91
738.81	236.79
739.14	236.67
739.47	236.56
739.80	236.44
740.13	236.34
740.46	236.21
740.79	236.09
741.12	235.98
741.45	235.85
741.78	235.67
742.11	235.60
742.44	235.47
742.77	235.38
743.10	235.25
743.43	235.15
743.75	234.91
744.08	235.01
744.41	234.90
744.74	234.80
745.07	234.68
745.40	234.60
745.73	234.57
746.06	234.48
746.39	234.42
746.71	234.32
747.04	234.21
747.37	234.13
747.70	234.06
748.03	233.99
748.36	233.92
748.68	233.84
749.01	233.72
749.34	233.64
749.67	233.55
750.00	233.49
750.33	233.50
750.65	233.43
750.98	233.16
751.31	233.08
751.64	233.01
751.97	233.00
752.29	232.91
752.62	232.77
752.95	232.68
753.28	232.58
753.60	232.50
753.93	232.46
754.26	232.39
754.59	232.27
754.91	232.18
755.24	232.09
755.57	232.07
755.90	232.00
756.22	231.91
756.55	231.82
756.88	231.72
757.20	231.56
757.53	231.45
757.86	231.38
758.19	231.32
758.51	231.25
758.84	231.11
759.17	231.03
759.49	230.97
759.82	230.97
760.15	230.92
760.47	230.86
760.80	230.76
761.13	230.71
761.45	230.66
761.78	230.60
762.11	230.55
762.43	230.42
762.76	230.37
763.08	230.33
763.41	230.28
763.74	230.24
764.06	230.18
764.39	230.14
764.71	230.09
765.04	230.02
765.37	229.96
765.69	229.91
766.02	229.86
766.34	229.80
766.67	229.70
767.00	229.67
767.32	229.70
767.65	229.73
767.97	229.67
768.30	229.63
768.62	229.58
768.95	229.52
769.27	229.47
769.60	229.44
769.92	229.37
770.25	229.31
770.57	229.24
770.90	229.20
771.22	229.14
771.55	229.10
771.87	229.07
772.20	229.03
772.52	229.10
772.85	229.22
773.17	229.18
773.50	229.14
773.82	229.08
774.15	228.98
774.47	228.86
774.80	228.81
775.12	228.77
775.45	228.73
775.77	228.71
776.09	228.69
776.42	228.66
776.74	228.67
777.07	228.63
777.39	228.61
777.72	228.57
778.04	228.56
778.36	228.53
778.69	228.50
779.01	228.49
779.33	228.34
779.66	228.17
779.98	228.13
780.31	228.11
780.63	228.14
780.95	228.13
781.28	228.11
781.60	228.08
781.92	228.05
782.25	228.03
782.57	228.01
782.89	227.97
783.22	227.93
783.54	227.88
783.86	227.87
784.19	227.84
784.51	227.85
784.83	227.81
785.16	227.79
785.48	227.77
785.80	227.74
786.12	227.73
786.45	227.71
786.77	227.70
787.09	227.67
787.42	227.60
787.74	227.58
788.06	227.57
788.38	227.54
788.71	227.52
789.03	227.50
789.35	227.50
789.67	227.46
789.99	227.46
790.32	227.42
790.64	227.42
790.96	227.52
791.28	227.45
791.61	227.43
791.93	227.42
792.25	227.40
792.57	227.47
792.89	227.43
793.21	227.42
793.54	227.39
793.86	227.36
794.18	227.35
794.50	227.31
794.82	227.29
795.14	227.29
795.47	227.30
795.79	227.28
796.11	227.24
796.43	227.22
796.75	227.19
797.07	227.19
797.39	227.16
797.71	227.04
798.04	227.03
798.36	227.03
798.68	227.00
799.00	227.00
799.32	226.92
799.64	226.93
799.96	226.91
800.28	226.92
800.60	226.90
800.92	226.89
801.24	226.88
801.56	226.87
801.89	226.84
802.21	226.83
802.53	226.79
802.85	226.81
803.17	226.86
803.49	226.83
803.81	226.80
804.13	226.78
804.45	226.75
804.77	226.75
805.09	226.74
805.41	226.72
805.73	226.68
806.05	226.63
806.37	226.61
806.69	226.59
807.01	226.56
807.33	226.56
807.65	226.50
807.97	226.55
808.28	226.52
808.60	226.51
808.92	226.48
809.24	226.55
809.56	226.51
809.88	226.45
810.20	226.45
810.52	226.47
810.84	226.44
811.16	226.42
811.48	226.40
811.80	226.44
812.12	226.42
812.43	226.44
812.75	226.44
813.07	226.42
813.39	226.42
813.71	226.39
814.03	226.37
814.35	226.37
814.67	226.31
814.98	226.29
815.30	226.28
815.62	226.25
815.94	226.16
816.26	226.16
816.58	226.13
816.89	226.13
817.21	226.09
817.53	226.10
817.85	226.10
818.17	226.08
818.48	226.02
818.80	226.04
819.12	226.01
819.44	225.98
819.76	225.96
820.07	225.95
820.39	225.94
820.71	225.95
821.03	225.94
821.34	225.92
821.66	225.93
821.98	225.94
822.30	225.93
822.61	226.00
822.93	225.97
823.25	225.97
823.57	225.95
823.88	225.95
824.20	225.94
824.52	225.96
824.83	225.95
825.15	225.93
825.47	225.91
825.79	225.92
826.10	225.90
826.42	225.90
826.74	225.90
827.05	225.89
827.37	225.89
827.69	225.87
828.00	225.87
828.32	225.87
828.64	225.84
828.95	225.91
829.27	225.86
829.58	225.86
829.90	225.87
830.22	225.88
830.53	225.85
830.85	225.84
831.17	225.80
831.48	225.79
831.80	225.80
832.11	225.78
832.43	225.76
832.75	225.76
833.06	225.83
833.38	225.79
833.69	225.78
834.01	225.78
834.32	225.78
834.64	225.76
834.96	225.75
835.27	225.75
835.59	225.70
835.90	225.68
836.22	225.67
836.53	225.64
836.85	225.62
837.16	225.75
837.48	225.75
837.79	225.79
838.11	225.79
838.42	225.78
838.74	225.80
839.05	225.79
839.37	225.78
839.68	225.70
840.00	225.69
840.31	225.71
840.63	225.69
840.94	225.67
841.26	225.66
841.57	225.65
841.88	225.66
842.20	225.64
842.51	225.61
842.83	225.61
843.14	225.72
843.46	225.72
843.77	225.64
844.08	225.63
844.40	225.58
844.71	225.57
845.03	225.56
845.34	225.54
845.65	225.54
845.97	225.54
846.28	225.54
846.60	225.55
846.91	225.52
847.22	225.52
847.54	225.55
847.85	225.55
848.16	225.54
848.48	225.51
848.79	225.56
849.10	225.58
849.42	225.58
849.73	225.46
850.04	225.45
850.36	225.41
850.67	225.43
850.98	225.43
851.30	225.44
851.61	225.43
851.92	225.43
852.23	225.47
852.55	225.48
852.86	225.48
853.17	225.48
853.49	225.51
853.80	225.53
854.11	225.54
854.42	225.55
854.74	225.54
855.05	225.54
855.36	225.47
855.67	225.47
855.99	225.47
856.30	225.62
856.61	225.62
856.92	225.62
857.23	225.62
857.55	225.61
857.86	225.60
858.17	225.62
858.48	225.60
858.79	225.56
859.11	225.57
859.42	225.56
859.73	225.54
860.04	225.53
860.35	225.49
860.66	225.45
860.98	225.44
861.29	225.46
861.60	225.45
861.91	225.48
862.22	225.46
862.53	225.43
862.84	225.28
863.16	225.31
863.47	225.29
863.78	225.27
864.09	225.28
864.40	225.28
864.71	225.28
865.02	225.30
865.33	225.28
865.64	225.26
865.95	225.26
866.27	225.34
866.58	225.32
866.89	225.34
867.20	225.34
867.51	225.32
867.82	225.30
868.13	225.34
868.44	225.31
868.75	225.34
869.06	225.34
869.37	225.36
869.68	225.32
869.99	225.35
870.30	225.35
870.61	225.36
870.92	225.34
871.23	225.32
871.54	225.34
871.85	225.37
872.16	225.38
872.47	225.37
872.78	225.30
873.09	225.31
873.40	225.30
873.71	225.31
874.02	225.32
874.33	225.31
874.64	225.28
874.95	225.30
875.26	225.27
875.56	225.26
875.87	225.25
876.18	225.25
876.49	225.37
876.80	225.36
877.11	225.34
877.42	225.34
877.73	225.35
878.04	225.32
878.35	225.32
878.66	225.32
878.96	225.32
879.27	225.32
879.58	225.31
879.89	225.30
880.20	225.34
880.51	225.33
880.82	225.33
881.12	225.34
881.43	225.31
881.74	225.30
882.05	225.29
882.36	225.30
882.67	225.31
882.97	225.17
883.28	225.16
883.59	225.16
883.90	225.17
884.21	225.18
884.51	225.18
884.82	225.16
885.13	225.16
885.44	225.15
885.74	225.16
886.05	225.15
886.36	225.15
886.67	225.10
886.98	225.17
887.28	225.18
887.59	225.18
887.90	225.18
888.20	225.18
888.51	225.20
888.82	225.18
889.13	225.19
889.43	225.30
889.74	225.29
890.05	225.29
890.35	225.28
890.66	225.25
890.97	225.24
891.28	225.23
891.58	225.24
891.89	225.24
892.20	225.22
892.50	225.21
892.81	225.20
893.12	225.20
893.42	225.14
893.73	225.14
894.04	225.13
894.34	225.15
894.65	225.14
894.95	225.13
895.26	225.14
895.57	225.19
895.87	225.06
896.18	225.09
896.48	225.09
896.79	225.09
897.10	225.11
897.40	225.12
897.71	225.13
898.01	225.12
898.32	225.13
898.63	225.13
898.93	225.14
899.24	225.14
899.54	225.13
899.85	225.13
900.15	225.12
900.46	225.12
900.76	225.12
901.07	225.12
901.38	225.12
901.68	225.13
901.99	225.06
902.29	225.07
902.60	225.06
902.90	225.05
903.21	225.05
903.51	225.03
903.82	225.06
904.12	225.06
904.43	225.07
904.73	225.06
905.03	225.07
905.34	225.19
905.64	225.18
905.95	225.18
906.25	225.18
906.56	225.18
906.86	225.17
907.17	225.16
907.47	225.16
907.77	225.15
908.08	225.12
908.38	225.13
908.69	225.14
908.99	225.16
909.30	225.17
909.60	225.17
909.90	225.17
910.21	225.13
910.51	225.11
910.81	225.11
911.12	225.12
911.42	225.12
911.73	224.98
912.03	224.99
912.33	225.02
912.64	225.01
912.94	224.99
913.24	224.98
913.55	224.97
913.85	224.96
914.15	224.99
914.46	225.00
914.76	224.99
915.06	224.98
915.37	224.95
915.67	224.94
915.97	224.94
916.27	224.92
916.58	224.93
916.88	224.93
917.18	224.92
917.49	225.00
917.79	224.99
918.09	225.01
918.39	225.04
918.70	225.04
919.00	225.04
919.30	225.10
919.60	225.10
919.91	225.09
920.21	225.09
920.51	225.06
920.81	225.05
921.12	225.07
921.42	225.07
921.72	225.08
922.02	225.08
922.32	225.10
922.63	225.11
922.93	225.18
923.23	225.18
923.53	225.17
923.83	225.09
924.13	225.10
924.44	225.09
924.74	225.11
925.04	225.14
925.34	225.13
925.64	225.08
925.94	225.08
926.24	225.15
926.55	225.14
926.85	225.16
927.15	225.15
927.45	225.15
927.75	225.15
928.05	225.15
928.35	225.14
928.65	225.16
928.95	225.16
929.26	225.10
929.56	225.12
929.86	225.14
930.16	225.13
930.46	225.12
930.76	225.12
931.06	225.06
931.36	225.03
931.66	225.05
931.96	225.06
932.26	225.07
932.56	225.01
932.86	225.02
933.16	225.02
933.46	225.01
933.76	224.99
934.06	225.02
934.36	225.06
934.66	225.05
934.96	225.03
935.26	225.04
935.56	225.05
935.86	225.02
936.16	225.00
936.46	224.99
936.76	224.99
937.06	224.97
937.36	224.98
937.66	224.98
937.96	224.97
938.26	224.95
938.56	224.94
938.86	224.94
939.16	224.97
939.46	224.98
939.76	224.99
940.06	224.99
940.35	224.97
940.65	224.90
940.95	224.91
941.25	224.88
941.55	224.87
941.85	224.85
942.15	224.88
942.45	224.92
942.75	224.92
943.04	224.92
943.34	224.95
943.64	224.93
943.94	224.91
944.24	224.91
944.54	224.92
944.84	224.92
945.13	224.90
945.43	224.87
945.73	224.87
946.03	224.85
946.33	224.84
946.62	224.83
946.92	224.83
947.22	224.84
947.52	224.85
947.82	224.87
948.11	224.86
948.41	224.83
948.71	224.80
949.01	224.80
949.31	224.79
949.60	224.78
949.90	224.80
950.20	224.80
950.50	224.80
950.79	224.79
951.09	224.81
951.39	224.81
951.69	224.79
951.98	224.82
952.28	224.82
952.58	224.82
952.87	224.82
953.17	224.84
953.47	224.82
953.76	224.82
954.06	224.80
954.36	224.79
954.66	224.79
954.95	224.82
955.25	224.83
955.55	224.84
955.84	224.82
956.14	224.83
956.44	224.84
956.73	224.82
957.03	224.83
957.32	224.82
957.62	224.82
957.92	224.85
958.21	224.83
958.51	224.98
958.81	225.00
959.10	225.01
959.40	225.04
959.69	225.05
959.99	225.07
960.29	225.07
960.58	225.07
960.88	225.12
961.17	225.10
961.47	225.11
961.76	225.10
962.06	225.13
962.36	225.11
962.65	225.12
962.95	225.13
963.24	225.12
963.54	225.12
963.83	225.13
964.13	225.12
964.42	225.11
964.72	225.00
965.01	225.00
965.31	224.99
965.60	224.96
965.90	225.03
966.19	225.01
966.49	225.01
966.78	225.01
967.08	224.99
967.37	224.99
967.67	224.97
967.96	225.00
968.26	224.99
968.55	225.00
968.85	225.00
969.14	224.99
969.43	224.99
969.73	224.98
970.02	224.97
970.32	224.96
970.61	224.94
970.91	224.91
971.20	224.89
971.49	224.88
971.79	224.89
972.08	224.80
972.38	224.81
972.67	224.80
972.96	224.82
973.26	224.80
973.55	224.84
973.85	224.83
974.14	224.82
974.43	224.82
974.73	224.80
975.02	224.79
975.31	224.79
975.61	224.79
975.90	224.78
976.19	224.77
976.49	224.78
976.78	224.79
977.07	224.79
977.37	224.80
977.66	224.81
977.95	224.79
978.24	224.81
978.54	224.83
978.83	224.82
979.12	224.81
979.42	224.81
979.71	224.78
980.00	224.78
980.29	224.79
980.59	224.77
980.88	224.80
981.17	224.80
981.46	224.80
981.76	224.80
982.05	224.84
982.34	224.85
982.63	224.84
982.93	224.84
983.22	224.87
983.51	224.87
983.80	224.89
984.09	224.91
984.39	224.90
984.68	224.88
984.97	224.89
985.26	224.88
985.55	224.89
985.85	224.87
986.14	224.89
986.43	224.90
986.72	224.90
987.01	224.86
987.30	224.86
987.59	224.85
987.89	224.86
988.18	224.82
988.47	224.81
988.76	224.80
989.05	224.78
989.34	224.76
989.63	224.80
989.92	224.77
990.22	224.76
990.51	224.76
990.80	224.74
991.09	224.75
991.38	224.77
991.67	224.76
991.96	224.74
992.25	224.75
992.54	224.72
992.83	224.73
993.12	224.72
993.41	224.74
993.70	224.79
993.99	224.82
994.28	224.83
994.58	224.85
994.87	224.84
995.16	224.84
995.45	224.83
995.74	224.79
996.03	224.81
996.32	224.83
996.61	224.86
996.90	224.85
997.19	224.85
997.48	224.84
997.77	224.83
998.06	224.84
998.34	224.83
998.63	224.83
998.92	224.83
999.21	224.86
999.50	224.86
999.79	224.81
1000.08	224.80
1000.37	224.80
1000.66	224.78
1000.95	224.82
1001.24	224.83
1001.53	224.85
1001.82	224.84
1002.11	224.81
1002.40	224.82
1002.68	224.85
1002.97	224.94
1003.26	224.93
1003.55	224.91
1003.84	224.92
1004.13	224.96
1004.42	224.96
1004.71	224.96
1004.99	224.95
1005.28	224.98
1005.57	224.96
1005.86	224.95
1006.15	224.94
1006.44	224.92
1006.72	224.94
1007.01	224.92
1007.30	224.92
1007.59	224.90
1007.88	224.90
1008.17	224.91
1008.45	224.88
1008.74	224.83
1009.03	224.77
1009.32	224.77
1009.60	224.77
1009.89	224.76
1010.18	224.71
1010.47	224.70
1010.76	224.71
1011.04	224.70
1011.33	224.70
1011.62	224.71
1011.91	224.72
1012.19	224.72
1012.48	224.73
1012.77	224.72
1013.05	224.77
1013.34	224.77
1013.63	224.76
1013.92	224.77
1014.20	224.76
1014.49	224.77
1014.78	224.78
1015.06	224.74
1015.35	224.74
1015.64	224.75
1015.92	224.77
1016.21	224.78
1016.50	224.78
1016.78	224.79
1017.07	224.80
1017.36	224.78
1017.64	224.76
1017.93	224.77
1018.22	224.75
1018.50	224.75
1018.79	224.75
1019.08	224.70
1019.36	224.71
1019.65	224.70
1019.93	224.73
1020.22	224.75
1020.51	224.82
1020.79	224.80
1021.08	224.57
1021.36	224.54
1021.65	224.79
1021.94	224.67
1022.22	224.80
1022.51	224.51
1022.79	225.38
1023.08	224.96
1023.36	226.24
1023.65	224.44
>>>>>End Processed Spectral Data<<<<<
