SpectraSuite Data File
++++++++++++++++++++++++++++++++++++
Date: Fri Oct 02 15:47:27 EDT 2015
User: lab3
Dark Spectrum Present: No
Reference Spectrum Present: No
Number of Sampled Component Spectra: 1
Spectrometers: USB2E7196
Integration Time (usec): 46000 (USB2E7196)
Spectra Averaged: 1200 (USB2E7196)
Boxcar Smoothing: 10 (USB2E7196)
Correct for Electrical Dark: No (USB2E7196)
Strobe/Lamp Enabled: No (USB2E7196)
Correct for Detector Non-linearity: No (USB2E7196)
Correct for Stray Light: No (USB2E7196)
Number of Pixels in Processed Spectrum: 2048
>>>>>Begin Processed Spectral Data<<<<<
339.09	0.00
339.48	213.84
339.86	215.33
340.24	216.89
340.63	217.95
341.01	221.49
341.39	220.77
341.78	222.31
342.16	223.40
342.54	223.83
342.93	212.34
343.31	223.06
343.69	223.60
344.07	224.06
344.46	224.49
344.84	224.88
345.22	225.10
345.60	225.37
345.99	225.55
346.37	225.69
346.75	225.80
347.13	225.88
347.52	225.95
347.90	226.05
348.28	226.07
348.66	226.12
349.05	226.12
349.43	226.17
349.81	226.22
350.19	226.28
350.57	226.35
350.96	226.43
351.34	226.52
351.72	226.62
352.10	226.72
352.48	226.79
352.87	226.84
353.25	226.91
353.63	226.96
354.01	227.03
354.39	227.10
354.77	227.17
355.15	227.28
355.54	227.33
355.92	227.35
356.30	227.42
356.68	227.58
357.06	227.65
357.44	227.69
357.82	227.75
358.20	227.87
358.58	227.92
358.97	227.98
359.35	228.06
359.73	228.15
360.11	228.20
360.49	228.26
360.87	228.31
361.25	228.36
361.63	228.45
362.01	228.51
362.39	228.54
362.77	228.59
363.15	228.62
363.53	228.65
363.91	228.69
364.29	228.71
364.67	228.61
365.05	228.63
365.43	228.67
365.81	228.70
366.19	228.71
366.57	228.77
366.95	228.77
367.33	228.74
367.71	228.72
368.09	228.74
368.47	228.74
368.85	228.72
369.23	228.74
369.61	228.67
369.99	228.68
370.37	228.68
370.75	228.76
371.13	228.72
371.51	228.69
371.89	228.67
372.27	228.66
372.65	228.63
373.03	228.59
373.41	228.55
373.78	228.49
374.16	228.39
374.54	228.30
374.92	228.25
375.30	228.20
375.68	228.14
376.06	228.11
376.44	228.05
376.82	228.01
377.19	227.96
377.57	227.91
377.95	227.82
378.33	227.76
378.71	227.59
379.09	227.54
379.47	227.50
379.84	227.44
380.22	227.36
380.60	227.29
380.98	227.25
381.36	227.19
381.73	227.13
382.11	227.11
382.49	227.08
382.87	227.01
383.25	226.97
383.62	227.08
384.00	227.01
384.38	226.98
384.76	226.96
385.13	226.95
385.51	226.91
385.89	226.86
386.27	226.82
386.64	226.81
387.02	226.77
387.40	226.71
387.78	226.69
388.15	226.67
388.53	226.64
388.91	226.61
389.29	226.58
389.66	226.58
390.04	226.54
390.42	226.53
390.79	226.54
391.17	226.51
391.55	226.35
391.92	226.34
392.30	226.34
392.68	226.30
393.05	226.28
393.43	226.28
393.81	226.29
394.18	226.27
394.56	226.26
394.94	226.30
395.31	226.31
395.69	226.34
396.06	226.37
396.44	226.39
396.82	226.39
397.19	226.49
397.57	226.49
397.95	226.55
398.32	226.54
398.70	226.59
399.07	226.65
399.45	226.69
399.82	226.74
400.20	226.78
400.58	226.85
400.95	226.86
401.33	226.95
401.70	227.10
402.08	227.21
402.45	227.29
402.83	227.41
403.20	227.52
403.58	227.62
403.95	227.76
404.33	227.91
404.71	228.05
405.08	228.26
405.46	228.42
405.83	228.60
406.21	228.80
406.58	229.01
406.96	229.22
407.33	229.47
407.70	229.75
408.08	230.13
408.45	230.46
408.83	230.81
409.20	231.13
409.58	231.42
409.95	231.83
410.33	232.27
410.70	232.67
411.08	233.16
411.45	233.67
411.82	234.19
412.20	234.78
412.57	235.50
412.95	236.05
413.32	236.78
413.69	237.52
414.07	238.31
414.44	239.17
414.82	240.05
415.19	241.10
415.56	242.14
415.94	243.20
416.31	244.41
416.68	245.64
417.06	247.05
417.43	248.38
417.81	249.90
418.18	251.45
418.55	253.14
418.93	254.91
419.30	256.76
419.67	258.72
420.04	260.74
420.42	262.83
420.79	265.26
421.16	267.70
421.54	270.19
421.91	272.80
422.28	275.50
422.66	278.41
423.03	281.18
423.40	284.09
423.77	287.22
424.15	290.44
424.52	293.76
424.89	297.37
425.26	300.96
425.64	304.29
426.01	308.05
426.38	311.90
426.75	315.85
427.13	319.89
427.50	324.15
427.87	328.57
428.24	333.04
428.61	337.35
428.99	342.00
429.36	347.11
429.73	351.98
430.10	356.86
430.47	361.85
430.85	367.00
431.22	372.54
431.59	378.23
431.96	383.76
432.33	389.94
432.70	395.83
433.08	402.76
433.45	409.33
433.82	415.80
434.19	423.02
434.56	430.14
434.93	437.06
435.30	443.86
435.68	451.56
436.05	459.10
436.42	466.61
436.79	473.47
437.16	480.86
437.53	488.79
437.90	496.74
438.27	504.51
438.64	512.90
439.01	520.50
439.38	527.46
439.75	534.17
440.13	541.71
440.50	548.89
440.87	554.59
441.24	560.81
441.61	567.56
441.98	572.48
442.35	578.33
442.72	584.26
443.09	589.91
443.46	593.45
443.83	596.00
444.20	598.12
444.57	601.30
444.94	603.03
445.31	604.81
445.68	606.29
446.05	607.30
446.42	606.73
446.79	605.94
447.16	605.21
447.53	604.52
447.90	601.87
448.27	599.30
448.64	595.57
449.01	592.89
449.37	587.85
449.74	583.28
450.11	577.44
450.48	571.06
450.85	564.68
451.22	559.23
451.59	553.89
451.96	549.06
452.33	542.14
452.70	536.02
453.07	528.57
453.43	521.17
453.80	513.98
454.17	507.12
454.54	500.80
454.91	493.69
455.28	487.06
455.65	480.80
456.02	474.21
456.38	468.89
456.75	462.07
457.12	456.58
457.49	451.04
457.86	445.83
458.23	441.29
458.59	436.26
458.96	431.11
459.33	426.60
459.70	422.01
460.07	418.53
460.43	414.43
460.80	410.62
461.17	407.29
461.54	403.69
461.91	400.34
462.27	396.94
462.64	394.20
463.01	391.03
463.38	387.85
463.74	384.97
464.11	382.46
464.48	380.20
464.85	377.73
465.21	375.88
465.58	373.80
465.95	371.40
466.32	369.51
466.68	367.65
467.05	365.76
467.42	363.93
467.78	361.94
468.15	360.12
468.52	358.79
468.88	357.00
469.25	355.37
469.62	354.07
469.98	352.66
470.35	351.39
470.72	350.25
471.08	349.10
471.45	348.12
471.82	347.01
472.18	345.87
472.55	345.13
472.92	344.18
473.28	343.43
473.65	342.64
474.02	341.89
474.38	341.27
474.75	340.92
475.11	340.41
475.48	340.17
475.85	339.92
476.21	339.80
476.58	339.72
476.94	339.86
477.31	339.93
477.67	340.04
478.04	340.25
478.41	340.54
478.77	340.96
479.14	341.24
479.50	341.77
479.87	342.43
480.23	343.13
480.60	343.80
480.96	344.48
481.33	345.48
481.69	346.47
482.06	347.46
482.42	348.36
482.79	349.48
483.15	350.79
483.52	352.26
483.88	353.69
484.25	355.21
484.61	356.77
484.98	358.48
485.34	360.40
485.71	362.40
486.07	364.55
486.44	366.68
486.80	369.07
487.17	371.55
487.53	374.26
487.90	377.09
488.26	380.18
488.62	383.42
488.99	386.66
489.35	390.09
489.72	393.81
490.08	397.72
490.44	401.75
490.81	405.96
491.17	410.25
491.54	414.86
491.90	419.63
492.26	424.75
492.63	430.11
492.99	435.68
493.36	441.45
493.72	447.52
494.08	453.74
494.45	460.35
494.81	467.21
495.17	474.21
495.54	481.63
495.90	489.38
496.26	497.29
496.63	505.46
496.99	513.93
497.35	522.78
497.72	531.91
498.08	541.28
498.44	550.95
498.80	561.19
499.17	571.69
499.53	582.54
499.89	593.72
500.26	605.10
500.62	616.76
500.98	629.09
501.34	641.56
501.71	654.55
502.07	667.69
502.43	681.36
502.79	695.35
503.16	709.74
503.52	724.31
503.88	739.33
504.24	754.81
504.60	770.46
504.97	786.59
505.33	803.08
505.69	820.48
506.05	838.16
506.41	855.82
506.78	873.62
507.14	891.92
507.50	910.66
507.86	929.72
508.22	949.05
508.59	968.23
508.95	988.24
509.31	1008.86
509.67	1030.24
510.03	1051.60
510.39	1072.91
510.75	1094.47
511.12	1116.27
511.48	1138.23
511.84	1160.20
512.20	1182.50
512.56	1205.63
512.92	1228.80
513.28	1251.57
513.64	1274.51
514.00	1297.83
514.37	1321.56
514.73	1345.25
515.09	1368.77
515.45	1392.62
515.81	1416.71
516.17	1440.70
516.53	1464.27
516.89	1487.75
517.25	1511.36
517.61	1534.90
517.97	1558.80
518.33	1581.97
518.69	1605.18
519.05	1628.83
519.41	1652.64
519.77	1676.72
520.13	1700.05
520.49	1723.35
520.85	1746.79
521.21	1770.04
521.57	1793.69
521.93	1816.71
522.29	1840.21
522.65	1863.13
523.01	1885.96
523.37	1908.31
523.73	1931.49
524.09	1954.27
524.45	1976.86
524.81	1998.95
525.17	2020.73
525.53	2042.10
525.89	2064.07
526.25	2085.99
526.61	2106.82
526.97	2127.68
527.33	2148.36
527.68	2168.84
528.04	2188.56
528.40	2207.40
528.76	2226.20
529.12	2244.35
529.48	2262.45
529.84	2278.66
530.20	2295.56
530.56	2311.89
530.91	2328.26
531.27	2344.23
531.63	2359.41
531.99	2374.14
532.35	2388.29
532.71	2402.64
533.07	2417.30
533.42	2430.04
533.78	2443.75
534.14	2457.79
534.50	2471.00
534.86	2483.97
535.21	2495.08
535.57	2506.64
535.93	2517.98
536.29	2528.24
536.65	2538.47
537.00	2547.80
537.36	2558.11
537.72	2567.15
538.08	2575.50
538.44	2583.26
538.79	2590.67
539.15	2597.33
539.51	2603.61
539.87	2609.16
540.22	2612.88
540.58	2616.69
540.94	2621.91
541.29	2625.48
541.65	2627.29
542.01	2628.50
542.37	2629.06
542.72	2630.77
543.08	2630.93
543.44	2631.66
543.79	2631.42
544.15	2630.38
544.51	2629.59
544.87	2627.67
545.22	2624.98
545.58	2621.69
545.94	2618.35
546.29	2613.81
546.65	2609.39
547.01	2604.79
547.36	2600.89
547.72	2597.00
548.07	2591.79
548.43	2585.16
548.79	2577.58
549.14	2571.10
549.50	2564.97
549.86	2557.88
550.21	2549.93
550.57	2542.59
550.92	2533.19
551.28	2524.40
551.64	2515.77
551.99	2506.90
552.35	2497.54
552.70	2488.41
553.06	2479.85
553.41	2470.81
553.77	2461.47
554.13	2451.75
554.48	2441.52
554.84	2430.08
555.19	2419.17
555.55	2408.17
555.90	2397.17
556.26	2386.66
556.61	2375.27
556.97	2362.43
557.32	2350.18
557.68	2337.61
558.03	2324.97
558.39	2313.51
558.74	2302.20
559.10	2289.49
559.45	2276.88
559.81	2264.79
560.16	2252.37
560.52	2239.89
560.87	2227.61
561.23	2214.65
561.58	2202.02
561.94	2188.93
562.29	2175.49
562.64	2162.66
563.00	2149.50
563.35	2136.85
563.71	2124.04
564.06	2111.15
564.42	2098.75
564.77	2085.84
565.12	2073.08
565.48	2060.32
565.83	2047.44
566.19	2034.85
566.54	2022.01
566.89	2008.34
567.25	1994.83
567.60	1982.33
567.96	1969.28
568.31	1954.90
568.66	1941.12
569.02	1928.53
569.37	1915.81
569.72	1903.61
570.08	1890.27
570.43	1876.55
570.78	1862.56
571.14	1848.14
571.49	1834.28
571.84	1821.02
572.20	1806.75
572.55	1792.59
572.90	1778.33
573.26	1764.10
573.61	1749.32
573.96	1735.10
574.31	1720.92
574.67	1706.89
575.02	1691.97
575.37	1676.95
575.72	1662.96
576.08	1649.40
576.43	1634.67
576.78	1620.46
577.13	1606.47
577.49	1592.93
577.84	1580.00
578.19	1566.26
578.54	1552.56
578.90	1538.48
579.25	1524.29
579.60	1511.45
579.95	1498.62
580.30	1485.56
580.66	1472.27
581.01	1458.94
581.36	1445.66
581.71	1433.35
582.06	1420.82
582.42	1408.55
582.77	1396.43
583.12	1384.32
583.47	1371.89
583.82	1359.73
584.17	1347.26
584.53	1334.45
584.88	1321.89
585.23	1309.00
585.58	1296.94
585.93	1285.10
586.28	1273.83
586.63	1262.55
586.98	1250.91
587.34	1239.32
587.69	1227.57
588.04	1216.19
588.39	1205.19
588.74	1194.30
589.09	1183.23
589.44	1171.84
589.79	1160.92
590.14	1150.16
590.49	1139.26
590.84	1128.57
591.19	1118.08
591.54	1107.46
591.89	1097.06
592.25	1086.86
592.60	1076.39
592.95	1066.15
593.30	1056.14
593.65	1045.96
594.00	1035.84
594.35	1026.29
594.70	1016.30
595.05	1007.12
595.40	997.94
595.75	988.55
596.10	979.57
596.45	970.43
596.80	961.55
597.15	952.56
597.50	943.68
597.85	935.16
598.19	926.52
598.54	917.95
598.89	909.74
599.24	901.78
599.59	893.68
599.94	886.40
600.29	878.98
600.64	871.28
600.99	863.29
601.34	855.66
601.69	847.66
602.04	840.29
602.39	832.79
602.74	825.32
603.08	817.88
603.43	810.37
603.78	803.01
604.13	795.83
604.48	788.60
604.83	781.55
605.18	774.38
605.53	767.47
605.87	760.43
606.22	753.67
606.57	746.84
606.92	739.91
607.27	732.96
607.62	726.32
607.96	720.02
608.31	714.07
608.66	707.94
609.01	702.08
609.36	696.37
609.70	690.42
610.05	684.41
610.40	678.66
610.75	672.93
611.10	667.52
611.44	661.96
611.79	656.52
612.14	650.99
612.49	645.56
612.83	640.33
613.18	635.23
613.53	630.05
613.88	624.92
614.22	620.19
614.57	615.35
614.92	610.36
615.27	605.44
615.61	600.59
615.96	595.83
616.31	591.06
616.65	586.38
617.00	581.87
617.35	577.45
617.70	573.08
618.04	568.82
618.39	564.46
618.74	560.31
619.08	556.20
619.43	552.19
619.78	548.20
620.12	544.24
620.47	540.37
620.82	536.58
621.16	532.86
621.51	529.02
621.85	525.21
622.20	521.58
622.55	517.99
622.89	514.45
623.24	510.94
623.59	507.44
623.93	504.03
624.28	500.72
624.62	497.52
624.97	494.36
625.32	491.13
625.66	487.85
626.01	484.58
626.35	481.35
626.70	478.15
627.04	475.17
627.39	472.07
627.73	469.14
628.08	466.28
628.43	463.41
628.77	460.63
629.12	457.96
629.46	455.31
629.81	452.59
630.15	449.87
630.50	447.22
630.84	444.64
631.19	442.11
631.53	439.67
631.88	437.19
632.22	434.70
632.57	432.51
632.91	430.35
633.26	428.24
633.60	426.16
633.95	424.17
634.29	422.04
634.64	419.99
634.98	417.77
635.32	415.70
635.67	413.80
636.01	411.80
636.36	409.83
636.70	407.99
637.05	406.16
637.39	404.38
637.73	402.64
638.08	400.98
638.42	399.28
638.77	397.47
639.11	395.61
639.45	393.86
639.80	392.02
640.14	390.26
640.49	388.51
640.83	386.71
641.17	384.97
641.52	383.30
641.86	381.65
642.20	380.21
642.55	378.59
642.89	376.98
643.23	375.46
643.58	374.08
643.92	372.59
644.26	371.15
644.61	369.73
644.95	368.27
645.29	366.74
645.64	365.24
645.98	363.84
646.32	362.54
646.66	361.20
647.01	359.88
647.35	358.63
647.69	357.35
648.04	356.21
648.38	354.99
648.72	353.76
649.06	352.54
649.41	351.32
649.75	350.15
650.09	349.01
650.43	347.86
650.78	346.67
651.12	345.51
651.46	344.40
651.80	343.32
652.14	342.25
652.49	341.24
652.83	340.20
653.17	339.20
653.51	338.21
653.85	337.29
654.20	336.32
654.54	335.27
654.88	334.29
655.22	333.31
655.56	332.34
655.90	331.43
656.25	330.56
656.59	329.68
656.93	328.84
657.27	327.99
657.61	327.10
657.95	326.25
658.29	325.39
658.64	324.56
658.98	323.73
659.32	322.92
659.66	322.16
660.00	321.42
660.34	320.66
660.68	319.88
661.02	319.05
661.36	318.26
661.70	317.51
662.05	316.77
662.39	316.04
662.73	315.39
663.07	314.75
663.41	314.06
663.75	313.33
664.09	312.63
664.43	311.90
664.77	311.23
665.11	310.53
665.45	309.90
665.79	309.25
666.13	308.59
666.47	307.90
666.81	307.18
667.15	306.44
667.49	305.80
667.83	305.21
668.17	304.59
668.51	304.01
668.85	303.47
669.19	302.96
669.53	302.35
669.87	301.71
670.21	301.08
670.55	300.50
670.89	299.99
671.23	299.44
671.57	298.91
671.91	298.42
672.25	297.95
672.58	297.47
672.92	296.91
673.26	296.42
673.60	295.95
673.94	295.50
674.28	295.08
674.62	294.62
674.96	294.11
675.30	293.66
675.64	293.18
675.97	292.67
676.31	292.13
676.65	291.65
676.99	291.22
677.33	290.73
677.67	290.28
678.01	289.75
678.34	289.29
678.68	288.85
679.02	288.34
679.36	287.85
679.70	287.37
680.04	286.95
680.37	286.50
680.71	286.05
681.05	285.63
681.39	285.16
681.73	284.66
682.06	284.19
682.40	283.73
682.74	283.32
683.08	282.97
683.42	282.54
683.75	282.16
684.09	281.68
684.43	281.26
684.77	280.83
685.10	280.45
685.44	280.04
685.78	279.65
686.12	279.28
686.45	278.86
686.79	278.43
687.13	278.05
687.46	277.62
687.80	277.24
688.14	276.78
688.48	276.39
688.81	275.99
689.15	275.65
689.49	275.24
689.82	274.84
690.16	274.38
690.50	274.00
690.83	273.60
691.17	273.20
691.51	272.82
691.84	272.46
692.18	272.07
692.52	271.67
692.85	271.27
693.19	270.92
693.52	270.55
693.86	270.18
694.20	269.79
694.53	269.42
694.87	269.03
695.21	268.66
695.54	268.27
695.88	267.88
696.21	267.47
696.55	267.12
696.88	266.76
697.22	266.40
697.56	266.02
697.89	265.62
698.23	265.27
698.56	264.89
698.90	264.53
699.23	264.14
699.57	263.78
699.90	263.42
700.24	263.01
700.58	262.68
700.91	262.38
701.25	262.16
701.58	261.88
701.92	261.59
702.25	261.28
702.59	260.96
702.92	260.66
703.26	260.33
703.59	260.01
703.93	259.78
704.26	259.48
704.60	259.18
704.93	258.86
705.26	258.55
705.60	258.28
705.93	257.94
706.27	257.69
706.60	257.43
706.94	257.19
707.27	256.87
707.61	256.57
707.94	256.23
708.27	255.80
708.61	255.47
708.94	255.15
709.28	254.86
709.61	254.56
709.94	254.29
710.28	254.03
710.61	253.78
710.95	253.41
711.28	253.20
711.61	252.94
711.95	252.72
712.28	252.45
712.61	252.16
712.95	251.99
713.28	251.79
713.61	251.52
713.95	251.23
714.28	250.99
714.61	250.73
714.95	250.50
715.28	250.26
715.61	250.03
715.95	249.80
716.28	249.58
716.61	249.39
716.95	249.14
717.28	248.92
717.61	248.69
717.94	248.48
718.28	248.17
718.61	247.94
718.94	247.70
719.27	247.49
719.61	247.29
719.94	247.04
720.27	246.75
720.60	246.54
720.94	246.33
721.27	246.14
721.60	245.97
721.93	245.76
722.27	245.60
722.60	245.42
722.93	245.22
723.26	245.01
723.59	244.78
723.93	244.62
724.26	244.44
724.59	244.24
724.92	244.06
725.25	243.91
725.59	243.74
725.92	243.58
726.25	243.42
726.58	243.25
726.91	243.07
727.24	242.94
727.57	242.77
727.91	242.60
728.24	242.45
728.57	242.26
728.90	242.12
729.23	241.91
729.56	241.80
729.89	241.64
730.22	241.49
730.55	241.33
730.89	241.17
731.22	241.01
731.55	240.86
731.88	240.72
732.21	240.55
732.54	240.39
732.87	240.24
733.20	240.10
733.53	239.96
733.86	239.83
734.19	239.66
734.52	239.54
734.85	239.50
735.18	239.35
735.51	239.26
735.84	239.13
736.17	239.05
736.50	238.85
736.83	238.87
737.16	238.75
737.49	238.64
737.82	238.51
738.15	238.41
738.48	238.29
738.81	238.16
739.14	238.02
739.47	237.90
739.80	237.77
740.13	237.66
740.46	237.52
740.79	237.39
741.12	237.27
741.45	237.12
741.78	236.93
742.11	236.85
742.44	236.71
742.77	236.61
743.10	236.47
743.43	236.36
743.75	236.12
744.08	236.22
744.41	236.11
744.74	236.00
745.07	235.87
745.40	235.78
745.73	235.73
746.06	235.65
746.39	235.57
746.71	235.46
747.04	235.35
747.37	235.27
747.70	235.20
748.03	235.10
748.36	235.04
748.68	234.94
749.01	234.81
749.34	234.72
749.67	234.63
750.00	234.56
750.33	234.56
750.65	234.48
750.98	234.20
751.31	234.11
751.64	234.03
751.97	234.02
752.29	233.93
752.62	233.79
752.95	233.70
753.28	233.59
753.60	233.52
753.93	233.47
754.26	233.40
754.59	233.28
754.91	233.19
755.24	233.10
755.57	233.08
755.90	233.00
756.22	232.91
756.55	232.81
756.88	232.70
757.20	232.54
757.53	232.44
757.86	232.38
758.19	232.32
758.51	232.24
758.84	232.09
759.17	232.00
759.49	231.96
759.82	231.95
760.15	231.89
760.47	231.81
760.80	231.71
761.13	231.67
761.45	231.60
761.78	231.54
762.11	231.48
762.43	231.34
762.76	231.30
763.08	231.25
763.41	231.20
763.74	231.15
764.06	231.10
764.39	231.04
764.71	230.97
765.04	230.90
765.37	230.83
765.69	230.79
766.02	230.74
766.34	230.68
766.67	230.58
767.00	230.56
767.32	230.58
767.65	230.62
767.97	230.56
768.30	230.51
768.62	230.46
768.95	230.41
769.27	230.37
769.60	230.34
769.92	230.27
770.25	230.21
770.57	230.14
770.90	230.10
771.22	230.05
771.55	230.02
771.87	229.98
772.20	229.94
772.52	230.00
772.85	230.12
773.17	230.07
773.50	230.01
773.82	229.96
774.15	229.84
774.47	229.71
774.80	229.66
775.12	229.64
775.45	229.60
775.77	229.57
776.09	229.55
776.42	229.51
776.74	229.52
777.07	229.48
777.39	229.46
777.72	229.42
778.04	229.41
778.36	229.35
778.69	229.33
779.01	229.31
779.33	229.16
779.66	228.99
779.98	228.97
780.31	228.95
780.63	228.96
780.95	228.97
781.28	228.95
781.60	228.91
781.92	228.88
782.25	228.85
782.57	228.82
782.89	228.78
783.22	228.75
783.54	228.69
783.86	228.68
784.19	228.65
784.51	228.67
784.83	228.63
785.16	228.61
785.48	228.59
785.80	228.57
786.12	228.56
786.45	228.52
786.77	228.51
787.09	228.48
787.42	228.42
787.74	228.40
788.06	228.40
788.38	228.38
788.71	228.35
789.03	228.33
789.35	228.33
789.67	228.30
789.99	228.29
790.32	228.25
790.64	228.25
790.96	228.34
791.28	228.26
791.61	228.24
791.93	228.23
792.25	228.20
792.57	228.27
792.89	228.23
793.21	228.23
793.54	228.19
793.86	228.16
794.18	228.14
794.50	228.08
794.82	228.06
795.14	228.06
795.47	228.08
795.79	228.06
796.11	228.01
796.43	228.00
796.75	227.98
797.07	227.98
797.39	227.95
797.71	227.82
798.04	227.83
798.36	227.83
798.68	227.81
799.00	227.82
799.32	227.73
799.64	227.75
799.96	227.74
800.28	227.74
800.60	227.73
800.92	227.72
801.24	227.71
801.56	227.71
801.89	227.68
802.21	227.67
802.53	227.64
802.85	227.66
803.17	227.71
803.49	227.67
803.81	227.64
804.13	227.62
804.45	227.60
804.77	227.60
805.09	227.58
805.41	227.56
805.73	227.52
806.05	227.47
806.37	227.43
806.69	227.40
807.01	227.39
807.33	227.39
807.65	227.33
807.97	227.38
808.28	227.34
808.60	227.33
808.92	227.30
809.24	227.37
809.56	227.33
809.88	227.27
810.20	227.27
810.52	227.29
810.84	227.26
811.16	227.23
811.48	227.21
811.80	227.25
812.12	227.22
812.43	227.24
812.75	227.24
813.07	227.22
813.39	227.22
813.71	227.19
814.03	227.16
814.35	227.16
814.67	227.09
814.98	227.07
815.30	227.06
815.62	227.03
815.94	226.93
816.26	226.93
816.58	226.89
816.89	226.90
817.21	226.85
817.53	226.85
817.85	226.84
818.17	226.83
818.48	226.77
818.80	226.79
819.12	226.75
819.44	226.71
819.76	226.69
820.07	226.69
820.39	226.68
820.71	226.68
821.03	226.68
821.34	226.67
821.66	226.67
821.98	226.68
822.30	226.66
822.61	226.73
822.93	226.71
823.25	226.70
823.57	226.68
823.88	226.69
824.20	226.69
824.52	226.71
824.83	226.70
825.15	226.68
825.47	226.66
825.79	226.67
826.10	226.66
826.42	226.64
826.74	226.64
827.05	226.63
827.37	226.63
827.69	226.60
828.00	226.61
828.32	226.61
828.64	226.59
828.95	226.65
829.27	226.60
829.58	226.60
829.90	226.62
830.22	226.63
830.53	226.61
830.85	226.58
831.17	226.54
831.48	226.53
831.80	226.53
832.11	226.52
832.43	226.49
832.75	226.49
833.06	226.57
833.38	226.54
833.69	226.52
834.01	226.51
834.32	226.51
834.64	226.49
834.96	226.48
835.27	226.47
835.59	226.43
835.90	226.40
836.22	226.39
836.53	226.35
836.85	226.32
837.16	226.45
837.48	226.45
837.79	226.50
838.11	226.51
838.42	226.51
838.74	226.52
839.05	226.52
839.37	226.52
839.68	226.42
840.00	226.42
840.31	226.44
840.63	226.43
840.94	226.41
841.26	226.40
841.57	226.40
841.88	226.41
842.20	226.39
842.51	226.37
842.83	226.37
843.14	226.49
843.46	226.48
843.77	226.40
844.08	226.40
844.40	226.34
844.71	226.33
845.03	226.31
845.34	226.30
845.65	226.29
845.97	226.29
846.28	226.30
846.60	226.30
846.91	226.27
847.22	226.26
847.54	226.28
847.85	226.29
848.16	226.26
848.48	226.23
848.79	226.28
849.10	226.29
849.42	226.30
849.73	226.17
850.04	226.18
850.36	226.14
850.67	226.15
850.98	226.16
851.30	226.17
851.61	226.17
851.92	226.16
852.23	226.19
852.55	226.20
852.86	226.20
853.17	226.22
853.49	226.25
853.80	226.27
854.11	226.27
854.42	226.27
854.74	226.28
855.05	226.29
855.36	226.22
855.67	226.22
855.99	226.21
856.30	226.36
856.61	226.35
856.92	226.35
857.23	226.36
857.55	226.35
857.86	226.33
858.17	226.35
858.48	226.33
858.79	226.31
859.11	226.31
859.42	226.29
859.73	226.27
860.04	226.27
860.35	226.23
860.66	226.20
860.98	226.20
861.29	226.20
861.60	226.19
861.91	226.23
862.22	226.20
862.53	226.18
862.84	226.04
863.16	226.07
863.47	226.05
863.78	226.02
864.09	226.03
864.40	226.04
864.71	226.02
865.02	226.04
865.33	226.02
865.64	226.00
865.95	226.01
866.27	226.09
866.58	226.08
866.89	226.11
867.20	226.10
867.51	226.09
867.82	226.08
868.13	226.13
868.44	226.09
868.75	226.11
869.06	226.12
869.37	226.14
869.68	226.10
869.99	226.13
870.30	226.13
870.61	226.15
870.92	226.13
871.23	226.13
871.54	226.15
871.85	226.19
872.16	226.21
872.47	226.19
872.78	226.11
873.09	226.13
873.40	226.11
873.71	226.12
874.02	226.12
874.33	226.12
874.64	226.08
874.95	226.11
875.26	226.09
875.56	226.08
875.87	226.06
876.18	226.05
876.49	226.17
876.80	226.16
877.11	226.13
877.42	226.13
877.73	226.14
878.04	226.11
878.35	226.11
878.66	226.13
878.96	226.13
879.27	226.11
879.58	226.10
879.89	226.10
880.20	226.14
880.51	226.13
880.82	226.13
881.12	226.14
881.43	226.11
881.74	226.09
882.05	226.10
882.36	226.12
882.67	226.13
882.97	226.00
883.28	225.99
883.59	225.98
883.90	226.00
884.21	226.01
884.51	226.00
884.82	225.97
885.13	225.95
885.44	225.95
885.74	225.95
886.05	225.94
886.36	225.94
886.67	225.89
886.98	225.94
887.28	225.96
887.59	225.95
887.90	225.96
888.20	225.96
888.51	225.98
888.82	225.95
889.13	225.96
889.43	226.07
889.74	226.07
890.05	226.07
890.35	226.05
890.66	226.04
890.97	226.02
891.28	226.01
891.58	226.01
891.89	226.01
892.20	226.00
892.50	225.98
892.81	225.97
893.12	225.97
893.42	225.92
893.73	225.91
894.04	225.90
894.34	225.92
894.65	225.90
894.95	225.88
895.26	225.88
895.57	225.94
895.87	225.81
896.18	225.83
896.48	225.84
896.79	225.83
897.10	225.83
897.40	225.85
897.71	225.87
898.01	225.85
898.32	225.87
898.63	225.87
898.93	225.88
899.24	225.90
899.54	225.89
899.85	225.89
900.15	225.88
900.46	225.88
900.76	225.88
901.07	225.89
901.38	225.88
901.68	225.89
901.99	225.82
902.29	225.83
902.60	225.82
902.90	225.81
903.21	225.81
903.51	225.80
903.82	225.83
904.12	225.83
904.43	225.84
904.73	225.82
905.03	225.83
905.34	225.95
905.64	225.94
905.95	225.93
906.25	225.93
906.56	225.93
906.86	225.93
907.17	225.91
907.47	225.91
907.77	225.90
908.08	225.88
908.38	225.88
908.69	225.89
908.99	225.91
909.30	225.91
909.60	225.91
909.90	225.91
910.21	225.87
910.51	225.84
910.81	225.85
911.12	225.84
911.42	225.84
911.73	225.71
912.03	225.72
912.33	225.75
912.64	225.74
912.94	225.73
913.24	225.71
913.55	225.71
913.85	225.70
914.15	225.73
914.46	225.75
914.76	225.73
915.06	225.72
915.37	225.70
915.67	225.68
915.97	225.69
916.27	225.66
916.58	225.67
916.88	225.67
917.18	225.66
917.49	225.75
917.79	225.74
918.09	225.76
918.39	225.78
918.70	225.77
919.00	225.78
919.30	225.83
919.60	225.83
919.91	225.82
920.21	225.83
920.51	225.80
920.81	225.79
921.12	225.81
921.42	225.81
921.72	225.82
922.02	225.84
922.32	225.86
922.63	225.87
922.93	225.93
923.23	225.94
923.53	225.94
923.83	225.85
924.13	225.87
924.44	225.86
924.74	225.89
925.04	225.91
925.34	225.92
925.64	225.86
925.94	225.85
926.24	225.91
926.55	225.90
926.85	225.92
927.15	225.92
927.45	225.91
927.75	225.90
928.05	225.90
928.35	225.88
928.65	225.89
928.95	225.90
929.26	225.83
929.56	225.86
929.86	225.88
930.16	225.86
930.46	225.85
930.76	225.86
931.06	225.80
931.36	225.76
931.66	225.77
931.96	225.80
932.26	225.81
932.56	225.76
932.86	225.78
933.16	225.78
933.46	225.77
933.76	225.75
934.06	225.78
934.36	225.83
934.66	225.83
934.96	225.81
935.26	225.82
935.56	225.84
935.86	225.81
936.16	225.79
936.46	225.78
936.76	225.78
937.06	225.75
937.36	225.76
937.66	225.77
937.96	225.76
938.26	225.73
938.56	225.72
938.86	225.73
939.16	225.75
939.46	225.76
939.76	225.77
940.06	225.76
940.35	225.73
940.65	225.67
940.95	225.68
941.25	225.65
941.55	225.63
941.85	225.62
942.15	225.65
942.45	225.68
942.75	225.67
943.04	225.67
943.34	225.70
943.64	225.68
943.94	225.66
944.24	225.66
944.54	225.68
944.84	225.68
945.13	225.65
945.43	225.63
945.73	225.62
946.03	225.60
946.33	225.60
946.62	225.59
946.92	225.58
947.22	225.60
947.52	225.60
947.82	225.62
948.11	225.61
948.41	225.57
948.71	225.54
949.01	225.56
949.31	225.55
949.60	225.54
949.90	225.56
950.20	225.55
950.50	225.54
950.79	225.53
951.09	225.55
951.39	225.56
951.69	225.55
951.98	225.57
952.28	225.58
952.58	225.58
952.87	225.58
953.17	225.61
953.47	225.59
953.76	225.60
954.06	225.58
954.36	225.55
954.66	225.56
954.95	225.58
955.25	225.59
955.55	225.61
955.84	225.58
956.14	225.59
956.44	225.61
956.73	225.59
957.03	225.60
957.32	225.60
957.62	225.59
957.92	225.62
958.21	225.60
958.51	225.74
958.81	225.76
959.10	225.78
959.40	225.79
959.69	225.80
959.99	225.81
960.29	225.81
960.58	225.81
960.88	225.87
961.17	225.85
961.47	225.85
961.76	225.84
962.06	225.87
962.36	225.86
962.65	225.86
962.95	225.87
963.24	225.87
963.54	225.88
963.83	225.88
964.13	225.87
964.42	225.87
964.72	225.77
965.01	225.76
965.31	225.76
965.60	225.73
965.90	225.81
966.19	225.78
966.49	225.79
966.78	225.79
967.08	225.77
967.37	225.78
967.67	225.75
967.96	225.78
968.26	225.77
968.55	225.79
968.85	225.78
969.14	225.79
969.43	225.78
969.73	225.76
970.02	225.76
970.32	225.75
970.61	225.74
970.91	225.69
971.20	225.68
971.49	225.66
971.79	225.68
972.08	225.58
972.38	225.60
972.67	225.59
972.96	225.61
973.26	225.58
973.55	225.63
973.85	225.63
974.14	225.62
974.43	225.63
974.73	225.59
975.02	225.59
975.31	225.58
975.61	225.57
975.90	225.56
976.19	225.54
976.49	225.55
976.78	225.56
977.07	225.56
977.37	225.56
977.66	225.59
977.95	225.56
978.24	225.58
978.54	225.60
978.83	225.59
979.12	225.58
979.42	225.57
979.71	225.55
980.00	225.52
980.29	225.53
980.59	225.50
980.88	225.55
981.17	225.54
981.46	225.54
981.76	225.55
982.05	225.59
982.34	225.60
982.63	225.60
982.93	225.59
983.22	225.62
983.51	225.63
983.80	225.64
984.09	225.65
984.39	225.63
984.68	225.61
984.97	225.62
985.26	225.61
985.55	225.62
985.85	225.59
986.14	225.62
986.43	225.63
986.72	225.62
987.01	225.58
987.30	225.58
987.59	225.57
987.89	225.57
988.18	225.52
988.47	225.51
988.76	225.50
989.05	225.50
989.34	225.48
989.63	225.50
989.92	225.48
990.22	225.46
990.51	225.46
990.80	225.45
991.09	225.46
991.38	225.49
991.67	225.47
991.96	225.47
992.25	225.46
992.54	225.44
992.83	225.45
993.12	225.45
993.41	225.47
993.70	225.53
993.99	225.56
994.28	225.57
994.58	225.59
994.87	225.58
995.16	225.58
995.45	225.57
995.74	225.53
996.03	225.56
996.32	225.58
996.61	225.60
996.90	225.60
997.19	225.59
997.48	225.59
997.77	225.58
998.06	225.60
998.34	225.59
998.63	225.59
998.92	225.59
999.21	225.61
999.50	225.61
999.79	225.56
1000.08	225.55
1000.37	225.56
1000.66	225.55
1000.95	225.59
1001.24	225.60
1001.53	225.62
1001.82	225.62
1002.11	225.57
1002.40	225.59
1002.68	225.63
1002.97	225.72
1003.26	225.71
1003.55	225.68
1003.84	225.69
1004.13	225.73
1004.42	225.73
1004.71	225.73
1004.99	225.72
1005.28	225.75
1005.57	225.75
1005.86	225.74
1006.15	225.73
1006.44	225.71
1006.72	225.72
1007.01	225.69
1007.30	225.69
1007.59	225.67
1007.88	225.67
1008.17	225.68
1008.45	225.66
1008.74	225.61
1009.03	225.54
1009.32	225.54
1009.60	225.55
1009.89	225.54
1010.18	225.49
1010.47	225.48
1010.76	225.48
1011.04	225.47
1011.33	225.47
1011.62	225.47
1011.91	225.49
1012.19	225.50
1012.48	225.50
1012.77	225.49
1013.05	225.53
1013.34	225.52
1013.63	225.52
1013.92	225.54
1014.20	225.52
1014.49	225.52
1014.78	225.53
1015.06	225.50
1015.35	225.49
1015.64	225.50
1015.92	225.52
1016.21	225.52
1016.50	225.53
1016.78	225.55
1017.07	225.56
1017.36	225.54
1017.64	225.52
1017.93	225.52
1018.22	225.51
1018.50	225.51
1018.79	225.50
1019.08	225.46
1019.36	225.47
1019.65	225.45
1019.93	225.49
1020.22	225.51
1020.51	225.58
1020.79	225.56
1021.08	225.33
1021.36	225.32
1021.65	225.51
1021.94	225.35
1022.22	225.56
1022.51	225.28
1022.79	226.16
1023.08	225.70
1023.36	227.01
1023.65	225.18
>>>>>End Processed Spectral Data<<<<<
