SpectraSuite Data File
++++++++++++++++++++++++++++++++++++
Date: Fri Oct 02 16:32:41 EDT 2015
User: lab3
Dark Spectrum Present: No
Reference Spectrum Present: No
Number of Sampled Component Spectra: 1
Spectrometers: USB2E7196
Integration Time (usec): 46000 (USB2E7196)
Spectra Averaged: 1200 (USB2E7196)
Boxcar Smoothing: 10 (USB2E7196)
Correct for Electrical Dark: No (USB2E7196)
Strobe/Lamp Enabled: No (USB2E7196)
Correct for Detector Non-linearity: No (USB2E7196)
Correct for Stray Light: No (USB2E7196)
Number of Pixels in Processed Spectrum: 2048
>>>>>Begin Processed Spectral Data<<<<<
339.09	0.00
339.48	214.58
339.86	216.15
340.24	217.42
340.63	218.77
341.01	222.16
341.39	221.55
341.78	223.14
342.16	224.11
342.54	224.59
342.93	213.01
343.31	223.77
343.69	224.31
344.07	224.77
344.46	225.20
344.84	225.59
345.22	225.81
345.60	226.06
345.99	226.24
346.37	226.37
346.75	226.48
347.13	226.55
347.52	226.61
347.90	226.69
348.28	226.74
348.66	226.80
349.05	226.79
349.43	226.85
349.81	226.91
350.19	226.97
350.57	227.03
350.96	227.11
351.34	227.22
351.72	227.30
352.10	227.41
352.48	227.48
352.87	227.54
353.25	227.62
353.63	227.68
354.01	227.75
354.39	227.85
354.77	227.92
355.15	228.04
355.54	228.10
355.92	228.13
356.30	228.20
356.68	228.35
357.06	228.43
357.44	228.48
357.82	228.54
358.20	228.65
358.58	228.70
358.97	228.77
359.35	228.85
359.73	228.94
360.11	229.00
360.49	229.06
360.87	229.11
361.25	229.16
361.63	229.26
362.01	229.31
362.39	229.33
362.77	229.39
363.15	229.42
363.53	229.44
363.91	229.47
364.29	229.49
364.67	229.40
365.05	229.42
365.43	229.45
365.81	229.49
366.19	229.52
366.57	229.58
366.95	229.58
367.33	229.56
367.71	229.55
368.09	229.57
368.47	229.56
368.85	229.56
369.23	229.58
369.61	229.52
369.99	229.53
370.37	229.53
370.75	229.60
371.13	229.57
371.51	229.53
371.89	229.51
372.27	229.50
372.65	229.48
373.03	229.45
373.41	229.40
373.78	229.34
374.16	229.23
374.54	229.14
374.92	229.08
375.30	229.03
375.68	228.96
376.06	228.90
376.44	228.85
376.82	228.80
377.19	228.75
377.57	228.70
377.95	228.62
378.33	228.57
378.71	228.40
379.09	228.35
379.47	228.32
379.84	228.25
380.22	228.19
380.60	228.11
380.98	228.05
381.36	228.00
381.73	227.94
382.11	227.92
382.49	227.88
382.87	227.83
383.25	227.78
383.62	227.88
384.00	227.82
384.38	227.78
384.76	227.77
385.13	227.77
385.51	227.73
385.89	227.65
386.27	227.62
386.64	227.60
387.02	227.56
387.40	227.51
387.78	227.49
388.15	227.46
388.53	227.43
388.91	227.41
389.29	227.38
389.66	227.38
390.04	227.33
390.42	227.33
390.79	227.32
391.17	227.30
391.55	227.15
391.92	227.13
392.30	227.13
392.68	227.08
393.05	227.05
393.43	227.04
393.81	227.05
394.18	227.03
394.56	227.03
394.94	227.06
395.31	227.04
395.69	227.09
396.06	227.12
396.44	227.14
396.82	227.15
397.19	227.23
397.57	227.24
397.95	227.30
398.32	227.29
398.70	227.33
399.07	227.40
399.45	227.44
399.82	227.49
400.20	227.52
400.58	227.59
400.95	227.61
401.33	227.69
401.70	227.85
402.08	227.95
402.45	228.04
402.83	228.16
403.20	228.27
403.58	228.36
403.95	228.50
404.33	228.64
404.71	228.79
405.08	228.99
405.46	229.17
405.83	229.35
406.21	229.55
406.58	229.77
406.96	229.98
407.33	230.23
407.70	230.52
408.08	230.92
408.45	231.24
408.83	231.60
409.20	231.93
409.58	232.23
409.95	232.64
410.33	233.09
410.70	233.50
411.08	234.00
411.45	234.52
411.82	235.05
412.20	235.64
412.57	236.36
412.95	236.92
413.32	237.65
413.69	238.40
414.07	239.20
414.44	240.07
414.82	240.95
415.19	242.00
415.56	243.04
415.94	244.13
416.31	245.35
416.68	246.59
417.06	248.01
417.43	249.34
417.81	250.88
418.18	252.43
418.55	254.14
418.93	255.92
419.30	257.76
419.67	259.72
420.04	261.74
420.42	263.84
420.79	266.29
421.16	268.74
421.54	271.24
421.91	273.85
422.28	276.55
422.66	279.46
423.03	282.24
423.40	285.15
423.77	288.27
424.15	291.48
424.52	294.81
424.89	298.41
425.26	302.02
425.64	305.34
426.01	309.09
426.38	312.93
426.75	316.88
427.13	320.94
427.50	325.18
427.87	329.60
428.24	334.07
428.61	338.35
428.99	342.99
429.36	348.07
429.73	352.94
430.10	357.81
430.47	362.78
430.85	367.90
431.22	373.42
431.59	379.08
431.96	384.61
432.33	390.75
432.70	396.60
433.08	403.48
433.45	410.02
433.82	416.46
434.19	423.67
434.56	430.76
434.93	437.62
435.30	444.40
435.68	452.04
436.05	459.54
436.42	467.01
436.79	473.83
437.16	481.20
437.53	489.09
437.90	497.00
438.27	504.74
438.64	513.07
439.01	520.64
439.38	527.57
439.75	534.22
440.13	541.74
440.50	548.89
440.87	554.55
441.24	560.73
441.61	567.48
441.98	572.38
442.35	578.19
442.72	584.14
443.09	589.82
443.46	593.37
443.83	595.95
444.20	598.08
444.57	601.33
444.94	603.11
445.31	604.94
445.68	606.48
446.05	607.57
446.42	607.09
446.79	606.37
447.16	605.69
447.53	605.09
447.90	602.52
448.27	600.05
448.64	596.42
449.01	593.87
449.37	588.89
449.74	584.38
450.11	578.62
450.48	572.32
450.85	566.03
451.22	560.65
451.59	555.42
451.96	550.66
452.33	543.76
452.70	537.68
453.07	530.29
453.43	522.93
453.80	515.78
454.17	508.95
454.54	502.69
454.91	495.64
455.28	489.04
455.65	482.82
456.02	476.25
456.38	470.98
456.75	464.15
457.12	458.68
457.49	453.16
457.86	447.97
458.23	443.44
458.59	438.38
458.96	433.23
459.33	428.70
459.70	424.08
460.07	420.63
460.43	416.52
460.80	412.69
461.17	409.37
461.54	405.78
461.91	402.43
462.27	398.99
462.64	396.25
463.01	393.07
463.38	389.85
463.74	386.96
464.11	384.40
464.48	382.13
464.85	379.65
465.21	377.79
465.58	375.70
465.95	373.29
466.32	371.40
466.68	369.53
467.05	367.65
467.42	365.81
467.78	363.82
468.15	361.99
468.52	360.67
468.88	358.85
469.25	357.20
469.62	355.89
469.98	354.48
470.35	353.21
470.72	352.04
471.08	350.88
471.45	349.89
471.82	348.80
472.18	347.64
472.55	346.90
472.92	345.95
473.28	345.20
473.65	344.40
474.02	343.64
474.38	343.02
474.75	342.65
475.11	342.12
475.48	341.87
475.85	341.61
476.21	341.47
476.58	341.38
476.94	341.51
477.31	341.59
477.67	341.68
478.04	341.89
478.41	342.20
478.77	342.62
479.14	342.91
479.50	343.42
479.87	344.10
480.23	344.79
480.60	345.45
480.96	346.11
481.33	347.11
481.69	348.09
482.06	349.06
482.42	349.95
482.79	351.07
483.15	352.37
483.52	353.85
483.88	355.28
484.25	356.79
484.61	358.38
484.98	360.07
485.34	361.99
485.71	363.99
486.07	366.14
486.44	368.29
486.80	370.69
487.17	373.17
487.53	375.86
487.90	378.69
488.26	381.77
488.62	385.04
488.99	388.29
489.35	391.72
489.72	395.44
490.08	399.36
490.44	403.40
490.81	407.59
491.17	411.90
491.54	416.50
491.90	421.26
492.26	426.34
492.63	431.68
492.99	437.24
493.36	442.99
493.72	449.05
494.08	455.24
494.45	461.83
494.81	468.66
495.17	475.67
495.54	483.05
495.90	490.76
496.26	498.62
496.63	506.76
496.99	515.24
497.35	524.07
497.72	533.18
498.08	542.50
498.44	552.13
498.80	562.33
499.17	572.78
499.53	583.59
499.89	594.75
500.26	606.12
500.62	617.75
500.98	630.06
501.34	642.49
501.71	655.48
502.07	668.59
502.43	682.25
502.79	696.20
503.16	710.57
503.52	725.12
503.88	740.07
504.24	755.47
504.60	771.04
504.97	787.08
505.33	803.50
505.69	820.87
506.05	838.53
506.41	856.13
506.78	873.92
507.14	892.17
507.50	910.86
507.86	929.85
508.22	949.13
508.59	968.21
508.95	988.13
509.31	1008.67
509.67	1029.96
510.03	1051.19
510.39	1072.42
510.75	1093.83
511.12	1115.49
511.48	1137.32
511.84	1159.20
512.20	1181.45
512.56	1204.56
512.92	1227.67
513.28	1250.34
513.64	1273.22
514.00	1296.45
514.37	1320.06
514.73	1343.66
515.09	1367.09
515.45	1390.84
515.81	1414.79
516.17	1438.70
516.53	1462.21
516.89	1485.61
517.25	1509.17
517.61	1532.63
517.97	1556.42
518.33	1579.65
518.69	1602.83
519.05	1626.50
519.41	1650.33
519.77	1674.47
520.13	1697.81
520.49	1721.04
520.85	1744.50
521.21	1767.65
521.57	1791.18
521.93	1814.14
522.29	1837.59
522.65	1860.40
523.01	1883.16
523.37	1905.50
523.73	1928.66
524.09	1951.39
524.45	1973.93
524.81	1995.93
525.17	2017.70
525.53	2039.06
525.89	2060.93
526.25	2082.79
526.61	2103.51
526.97	2124.32
527.33	2144.90
527.68	2165.27
528.04	2184.97
528.40	2203.75
528.76	2222.53
529.12	2240.85
529.48	2258.97
529.84	2275.11
530.20	2291.99
530.56	2308.29
530.91	2324.63
531.27	2340.58
531.63	2355.73
531.99	2370.39
532.35	2384.58
532.71	2398.97
533.07	2413.73
533.42	2426.57
533.78	2440.36
534.14	2454.45
534.50	2467.72
534.86	2480.75
535.21	2491.87
535.57	2503.50
535.93	2514.91
536.29	2525.18
536.65	2535.34
537.00	2544.65
537.36	2555.09
537.72	2564.19
538.08	2572.59
538.44	2580.49
538.79	2587.99
539.15	2594.67
539.51	2601.00
539.87	2606.49
540.22	2610.12
540.58	2613.87
540.94	2618.97
541.29	2622.56
541.65	2624.47
542.01	2625.65
542.37	2626.14
542.72	2627.87
543.08	2627.99
543.44	2628.75
543.79	2628.57
544.15	2627.55
544.51	2626.85
544.87	2625.03
545.22	2622.52
545.58	2619.35
545.94	2616.08
546.29	2611.64
546.65	2607.33
547.01	2602.93
547.36	2599.21
547.72	2595.68
548.07	2590.59
548.43	2584.12
548.79	2576.63
549.14	2570.30
549.50	2564.34
549.86	2557.34
550.21	2549.53
550.57	2542.36
550.92	2533.05
551.28	2524.41
551.64	2515.96
551.99	2507.20
552.35	2497.86
552.70	2488.70
553.06	2480.20
553.41	2471.05
553.77	2461.67
554.13	2452.05
554.48	2441.77
554.84	2430.33
555.19	2419.25
555.55	2408.26
555.90	2397.32
556.26	2386.91
556.61	2375.54
556.97	2362.71
557.32	2350.40
557.68	2337.91
558.03	2325.22
558.39	2313.82
558.74	2302.55
559.10	2289.82
559.45	2277.19
559.81	2265.08
560.16	2252.60
560.52	2240.22
560.87	2228.15
561.23	2215.34
561.58	2202.65
561.94	2189.66
562.29	2176.30
562.64	2163.49
563.00	2150.44
563.35	2137.71
563.71	2124.83
564.06	2111.92
564.42	2099.59
564.77	2086.85
565.12	2074.05
565.48	2061.35
565.83	2048.41
566.19	2035.75
566.54	2022.94
566.89	2009.28
567.25	1995.82
567.60	1983.51
567.96	1970.35
568.31	1955.86
568.66	1942.04
569.02	1929.52
569.37	1916.79
569.72	1904.58
570.08	1891.36
570.43	1877.65
570.78	1863.81
571.14	1849.50
571.49	1835.71
571.84	1822.43
572.20	1808.10
572.55	1793.92
572.90	1779.69
573.26	1765.54
573.61	1750.86
573.96	1736.65
574.31	1722.53
574.67	1708.57
575.02	1693.61
575.37	1678.73
575.72	1664.87
576.08	1651.34
576.43	1636.63
576.78	1622.48
577.13	1608.46
577.49	1594.83
577.84	1581.84
578.19	1568.03
578.54	1554.30
578.90	1540.12
579.25	1525.87
579.60	1513.05
579.95	1500.22
580.30	1487.17
580.66	1473.87
581.01	1460.55
581.36	1447.25
581.71	1434.90
582.06	1422.43
582.42	1410.19
582.77	1398.04
583.12	1385.90
583.47	1373.51
583.82	1361.39
584.17	1348.88
584.53	1336.12
584.88	1323.64
585.23	1310.87
585.58	1298.85
585.93	1286.97
586.28	1275.76
586.63	1264.50
586.98	1252.91
587.34	1241.36
587.69	1229.66
588.04	1218.30
588.39	1207.29
588.74	1196.41
589.09	1185.37
589.44	1173.93
589.79	1163.02
590.14	1152.22
590.49	1141.28
590.84	1130.56
591.19	1120.07
591.54	1109.47
591.89	1099.05
592.25	1088.87
592.60	1078.33
592.95	1068.11
593.30	1058.19
593.65	1048.04
594.00	1037.98
594.35	1028.38
594.70	1018.38
595.05	1009.11
595.40	999.86
595.75	990.43
596.10	981.44
596.45	972.30
596.80	963.43
597.15	954.42
597.50	945.55
597.85	937.07
598.19	928.40
598.54	919.79
598.89	911.59
599.24	903.65
599.59	895.51
599.94	888.19
600.29	880.75
600.64	873.00
600.99	864.98
601.34	857.27
601.69	849.30
602.04	841.96
602.39	834.49
602.74	827.07
603.08	819.60
603.43	812.12
603.78	804.78
604.13	797.59
604.48	790.37
604.83	783.30
605.18	776.13
605.53	769.21
605.87	762.16
606.22	755.36
606.57	748.53
606.92	741.58
607.27	734.65
607.62	727.94
607.96	721.63
608.31	715.67
608.66	709.58
609.01	703.70
609.36	697.94
609.70	692.00
610.05	685.99
610.40	680.26
610.75	674.52
611.10	669.06
611.44	663.47
611.79	658.00
612.14	652.48
612.49	647.03
612.83	641.79
613.18	636.68
613.53	631.51
613.88	626.38
614.22	621.62
614.57	616.79
614.92	611.82
615.27	606.92
615.61	602.10
615.96	597.33
616.31	592.56
616.65	587.90
617.00	583.38
617.35	578.94
617.70	574.53
618.04	570.24
618.39	565.86
618.74	561.70
619.08	557.57
619.43	553.54
619.78	549.53
620.12	545.54
620.47	541.63
620.82	537.84
621.16	534.11
621.51	530.29
621.85	526.48
622.20	522.82
622.55	519.21
622.89	515.65
623.24	512.12
623.59	508.61
623.93	505.17
624.28	501.85
624.62	498.64
624.97	495.49
625.32	492.26
625.66	489.01
626.01	485.73
626.35	482.51
626.70	479.31
627.04	476.29
627.39	473.20
627.73	470.28
628.08	467.41
628.43	464.51
628.77	461.72
629.12	459.03
629.46	456.37
629.81	453.63
630.15	450.88
630.50	448.22
630.84	445.61
631.19	443.04
631.53	440.61
631.88	438.10
632.22	435.60
632.57	433.37
632.91	431.18
633.26	429.06
633.60	426.95
633.95	424.93
634.29	422.80
634.64	420.75
634.98	418.51
635.32	416.44
635.67	414.50
636.01	412.48
636.36	410.52
636.70	408.66
637.05	406.83
637.39	405.04
637.73	403.25
638.08	401.57
638.42	399.89
638.77	398.06
639.11	396.18
639.45	394.39
639.80	392.53
640.14	390.76
640.49	388.99
640.83	387.19
641.17	385.44
641.52	383.75
641.86	382.07
642.20	380.60
642.55	378.96
642.89	377.37
643.23	375.86
643.58	374.46
643.92	372.99
644.26	371.52
644.61	370.10
644.95	368.64
645.29	367.13
645.64	365.62
645.98	364.19
646.32	362.88
646.66	361.52
647.01	360.20
647.35	358.93
647.69	357.63
648.04	356.47
648.38	355.23
648.72	354.01
649.06	352.78
649.41	351.56
649.75	350.39
650.09	349.22
650.43	348.05
650.78	346.85
651.12	345.66
651.46	344.54
651.80	343.44
652.14	342.36
652.49	341.34
652.83	340.29
653.17	339.31
653.51	338.33
653.85	337.42
654.20	336.45
654.54	335.39
654.88	334.41
655.22	333.43
655.56	332.45
655.90	331.54
656.25	330.65
656.59	329.76
656.93	328.90
657.27	328.05
657.61	327.15
657.95	326.30
658.29	325.44
658.64	324.63
658.98	323.79
659.32	322.98
659.66	322.21
660.00	321.45
660.34	320.66
660.68	319.87
661.02	319.03
661.36	318.24
661.70	317.51
662.05	316.79
662.39	316.06
662.73	315.42
663.07	314.77
663.41	314.07
663.75	313.35
664.09	312.65
664.43	311.93
664.77	311.27
665.11	310.55
665.45	309.91
665.79	309.28
666.13	308.61
666.47	307.92
666.81	307.20
667.15	306.47
667.49	305.84
667.83	305.26
668.17	304.65
668.51	304.07
668.85	303.52
669.19	303.01
669.53	302.39
669.87	301.74
670.21	301.13
670.55	300.55
670.89	300.06
671.23	299.51
671.57	298.95
671.91	298.46
672.25	298.00
672.58	297.53
672.92	296.98
673.26	296.50
673.60	296.03
673.94	295.59
674.28	295.17
674.62	294.72
674.96	294.21
675.30	293.77
675.64	293.28
675.97	292.77
676.31	292.24
676.65	291.76
676.99	291.36
677.33	290.85
677.67	290.40
678.01	289.87
678.34	289.43
678.68	289.02
679.02	288.52
679.36	288.04
679.70	287.55
680.04	287.10
680.37	286.66
680.71	286.23
681.05	285.82
681.39	285.35
681.73	284.87
682.06	284.40
682.40	283.96
682.74	283.57
683.08	283.22
683.42	282.80
683.75	282.42
684.09	281.96
684.43	281.57
684.77	281.15
685.10	280.79
685.44	280.40
685.78	280.00
686.12	279.64
686.45	279.24
686.79	278.83
687.13	278.45
687.46	278.02
687.80	277.63
688.14	277.17
688.48	276.79
688.81	276.39
689.15	276.04
689.49	275.64
689.82	275.24
690.16	274.78
690.50	274.40
690.83	274.00
691.17	273.60
691.51	273.22
691.84	272.85
692.18	272.45
692.52	272.06
692.85	271.67
693.19	271.32
693.52	270.94
693.86	270.57
694.20	270.20
694.53	269.85
694.87	269.46
695.21	269.09
695.54	268.72
695.88	268.34
696.21	267.94
696.55	267.58
696.88	267.21
697.22	266.86
697.56	266.50
697.89	266.11
698.23	265.76
698.56	265.37
698.90	265.02
699.23	264.64
699.57	264.27
699.90	263.90
700.24	263.52
700.58	263.19
700.91	262.89
701.25	262.67
701.58	262.39
701.92	262.11
702.25	261.80
702.59	261.46
702.92	261.17
703.26	260.85
703.59	260.52
703.93	260.30
704.26	260.00
704.60	259.68
704.93	259.36
705.26	259.04
705.60	258.79
705.93	258.46
706.27	258.22
706.60	257.96
706.94	257.71
707.27	257.38
707.61	257.07
707.94	256.74
708.27	256.30
708.61	255.95
708.94	255.63
709.28	255.34
709.61	255.06
709.94	254.80
710.28	254.54
710.61	254.30
710.95	253.92
711.28	253.74
711.61	253.48
711.95	253.27
712.28	253.00
712.61	252.72
712.95	252.54
713.28	252.34
713.61	252.06
713.95	251.78
714.28	251.56
714.61	251.31
714.95	251.07
715.28	250.85
715.61	250.64
715.95	250.42
716.28	250.20
716.61	250.01
716.95	249.77
717.28	249.54
717.61	249.30
717.94	249.08
718.28	248.77
718.61	248.55
718.94	248.30
719.27	248.09
719.61	247.90
719.94	247.65
720.27	247.36
720.60	247.15
720.94	246.95
721.27	246.75
721.60	246.58
721.93	246.39
722.27	246.22
722.60	246.04
722.93	245.84
723.26	245.65
723.59	245.43
723.93	245.26
724.26	245.08
724.59	244.90
724.92	244.74
725.25	244.62
725.59	244.45
725.92	244.31
726.25	244.14
726.58	243.97
726.91	243.80
727.24	243.67
727.57	243.52
727.91	243.35
728.24	243.22
728.57	243.04
728.90	242.89
729.23	242.70
729.56	242.60
729.89	242.44
730.22	242.28
730.55	242.13
730.89	241.98
731.22	241.81
731.55	241.67
731.88	241.52
732.21	241.34
732.54	241.18
732.87	241.03
733.20	240.90
733.53	240.76
733.86	240.64
734.19	240.47
734.52	240.35
734.85	240.29
735.18	240.13
735.51	240.05
735.84	239.93
736.17	239.83
736.50	239.62
736.83	239.65
737.16	239.53
737.49	239.42
737.82	239.29
738.15	239.19
738.48	239.07
738.81	238.95
739.14	238.82
739.47	238.69
739.80	238.57
740.13	238.47
740.46	238.32
740.79	238.18
741.12	238.07
741.45	237.94
741.78	237.76
742.11	237.68
742.44	237.53
742.77	237.43
743.10	237.30
743.43	237.19
743.75	236.96
744.08	237.04
744.41	236.91
744.74	236.80
745.07	236.66
745.40	236.58
745.73	236.52
746.06	236.43
746.39	236.35
746.71	236.23
747.04	236.13
747.37	236.03
747.70	235.95
748.03	235.87
748.36	235.80
748.68	235.70
749.01	235.57
749.34	235.48
749.67	235.38
750.00	235.32
750.33	235.33
750.65	235.24
750.98	234.96
751.31	234.89
751.64	234.82
751.97	234.82
752.29	234.72
752.62	234.59
752.95	234.50
753.28	234.40
753.60	234.32
753.93	234.27
754.26	234.19
754.59	234.07
754.91	233.98
755.24	233.88
755.57	233.87
755.90	233.79
756.22	233.70
756.55	233.60
756.88	233.49
757.20	233.34
757.53	233.24
757.86	233.17
758.19	233.09
758.51	233.01
758.84	232.88
759.17	232.79
759.49	232.72
759.82	232.72
760.15	232.67
760.47	232.62
760.80	232.51
761.13	232.47
761.45	232.41
761.78	232.35
762.11	232.29
762.43	232.16
762.76	232.10
763.08	232.06
763.41	232.01
763.74	231.96
764.06	231.89
764.39	231.84
764.71	231.78
765.04	231.72
765.37	231.66
765.69	231.59
766.02	231.55
766.34	231.48
766.67	231.38
767.00	231.35
767.32	231.37
767.65	231.40
767.97	231.34
768.30	231.30
768.62	231.25
768.95	231.19
769.27	231.13
769.60	231.10
769.92	231.03
770.25	230.96
770.57	230.89
770.90	230.84
771.22	230.79
771.55	230.74
771.87	230.71
772.20	230.67
772.52	230.74
772.85	230.84
773.17	230.79
773.50	230.75
773.82	230.69
774.15	230.58
774.47	230.45
774.80	230.40
775.12	230.36
775.45	230.32
775.77	230.29
776.09	230.27
776.42	230.23
776.74	230.25
777.07	230.22
777.39	230.21
777.72	230.17
778.04	230.16
778.36	230.12
778.69	230.09
779.01	230.08
779.33	229.94
779.66	229.78
779.98	229.75
780.31	229.72
780.63	229.75
780.95	229.75
781.28	229.73
781.60	229.70
781.92	229.67
782.25	229.65
782.57	229.64
782.89	229.60
783.22	229.56
783.54	229.50
783.86	229.49
784.19	229.44
784.51	229.46
784.83	229.42
785.16	229.40
785.48	229.37
785.80	229.34
786.12	229.34
786.45	229.31
786.77	229.29
787.09	229.26
787.42	229.20
787.74	229.18
788.06	229.17
788.38	229.14
788.71	229.11
789.03	229.08
789.35	229.09
789.67	229.05
789.99	229.04
790.32	229.00
790.64	229.00
790.96	229.11
791.28	229.04
791.61	229.01
791.93	228.99
792.25	228.96
792.57	229.04
792.89	229.00
793.21	228.99
793.54	228.97
793.86	228.95
794.18	228.93
794.50	228.88
794.82	228.85
795.14	228.85
795.47	228.85
795.79	228.85
796.11	228.79
796.43	228.77
796.75	228.75
797.07	228.75
797.39	228.73
797.71	228.60
798.04	228.60
798.36	228.60
798.68	228.59
799.00	228.59
799.32	228.51
799.64	228.51
799.96	228.49
800.28	228.50
800.60	228.47
800.92	228.47
801.24	228.45
801.56	228.46
801.89	228.44
802.21	228.44
802.53	228.40
802.85	228.42
803.17	228.47
803.49	228.43
803.81	228.40
804.13	228.38
804.45	228.35
804.77	228.34
805.09	228.31
805.41	228.29
805.73	228.26
806.05	228.21
806.37	228.19
806.69	228.16
807.01	228.15
807.33	228.16
807.65	228.09
807.97	228.13
808.28	228.11
808.60	228.09
808.92	228.05
809.24	228.12
809.56	228.10
809.88	228.04
810.20	228.03
810.52	228.05
810.84	228.02
811.16	228.00
811.48	227.97
811.80	228.02
812.12	228.01
812.43	228.03
812.75	228.01
813.07	228.00
813.39	228.00
813.71	227.97
814.03	227.94
814.35	227.94
814.67	227.88
814.98	227.85
815.30	227.83
815.62	227.82
815.94	227.73
816.26	227.73
816.58	227.70
816.89	227.70
817.21	227.67
817.53	227.68
817.85	227.68
818.17	227.67
818.48	227.61
818.80	227.62
819.12	227.58
819.44	227.56
819.76	227.52
820.07	227.49
820.39	227.49
820.71	227.48
821.03	227.47
821.34	227.46
821.66	227.47
821.98	227.47
822.30	227.46
822.61	227.52
822.93	227.49
823.25	227.48
823.57	227.46
823.88	227.45
824.20	227.45
824.52	227.47
824.83	227.46
825.15	227.45
825.47	227.43
825.79	227.44
826.10	227.43
826.42	227.43
826.74	227.45
827.05	227.44
827.37	227.44
827.69	227.44
828.00	227.44
828.32	227.43
828.64	227.41
828.95	227.48
829.27	227.43
829.58	227.43
829.90	227.44
830.22	227.44
830.53	227.43
830.85	227.40
831.17	227.35
831.48	227.33
831.80	227.33
832.11	227.31
832.43	227.29
832.75	227.28
833.06	227.34
833.38	227.30
833.69	227.29
834.01	227.29
834.32	227.27
834.64	227.26
834.96	227.24
835.27	227.24
835.59	227.18
835.90	227.17
836.22	227.16
836.53	227.14
836.85	227.12
837.16	227.24
837.48	227.24
837.79	227.28
838.11	227.28
838.42	227.28
838.74	227.29
839.05	227.28
839.37	227.27
839.68	227.19
840.00	227.20
840.31	227.21
840.63	227.20
840.94	227.18
841.26	227.17
841.57	227.16
841.88	227.17
842.20	227.15
842.51	227.11
842.83	227.11
843.14	227.22
843.46	227.22
843.77	227.14
844.08	227.13
844.40	227.09
844.71	227.08
845.03	227.08
845.34	227.07
845.65	227.07
845.97	227.06
846.28	227.06
846.60	227.06
846.91	227.04
847.22	227.03
847.54	227.06
847.85	227.07
848.16	227.06
848.48	227.04
848.79	227.09
849.10	227.11
849.42	227.11
849.73	226.99
850.04	226.99
850.36	226.94
850.67	226.97
850.98	226.97
851.30	226.97
851.61	226.96
851.92	226.95
852.23	226.99
852.55	226.99
852.86	226.99
853.17	227.00
853.49	227.03
853.80	227.05
854.11	227.05
854.42	227.07
854.74	227.07
855.05	227.06
855.36	227.00
855.67	227.00
855.99	227.01
856.30	227.17
856.61	227.16
856.92	227.17
857.23	227.17
857.55	227.14
857.86	227.13
858.17	227.16
858.48	227.14
858.79	227.12
859.11	227.13
859.42	227.12
859.73	227.11
860.04	227.10
860.35	227.06
860.66	227.01
860.98	227.00
861.29	227.01
861.60	226.99
861.91	227.02
862.22	227.00
862.53	226.98
862.84	226.83
863.16	226.86
863.47	226.83
863.78	226.80
864.09	226.81
864.40	226.82
864.71	226.81
865.02	226.82
865.33	226.80
865.64	226.77
865.95	226.78
866.27	226.84
866.58	226.83
866.89	226.84
867.20	226.85
867.51	226.83
867.82	226.81
868.13	226.86
868.44	226.83
868.75	226.85
869.06	226.85
869.37	226.86
869.68	226.81
869.99	226.84
870.30	226.85
870.61	226.86
870.92	226.84
871.23	226.82
871.54	226.84
871.85	226.88
872.16	226.90
872.47	226.88
872.78	226.81
873.09	226.82
873.40	226.82
873.71	226.82
874.02	226.82
874.33	226.81
874.64	226.78
874.95	226.81
875.26	226.78
875.56	226.77
875.87	226.77
876.18	226.78
876.49	226.90
876.80	226.88
877.11	226.86
877.42	226.86
877.73	226.86
878.04	226.84
878.35	226.84
878.66	226.83
878.96	226.84
879.27	226.83
879.58	226.82
879.89	226.81
880.20	226.84
880.51	226.84
880.82	226.85
881.12	226.86
881.43	226.82
881.74	226.80
882.05	226.80
882.36	226.81
882.67	226.81
882.97	226.68
883.28	226.68
883.59	226.67
883.90	226.69
884.21	226.70
884.51	226.70
884.82	226.67
885.13	226.68
885.44	226.67
885.74	226.68
886.05	226.68
886.36	226.67
886.67	226.63
886.98	226.69
887.28	226.71
887.59	226.70
887.90	226.71
888.20	226.70
888.51	226.72
888.82	226.70
889.13	226.72
889.43	226.83
889.74	226.82
890.05	226.82
890.35	226.81
890.66	226.79
890.97	226.77
891.28	226.76
891.58	226.77
891.89	226.77
892.20	226.75
892.50	226.74
892.81	226.73
893.12	226.73
893.42	226.66
893.73	226.66
894.04	226.66
894.34	226.66
894.65	226.66
894.95	226.65
895.26	226.66
895.57	226.70
895.87	226.58
896.18	226.61
896.48	226.62
896.79	226.61
897.10	226.63
897.40	226.64
897.71	226.65
898.01	226.63
898.32	226.65
898.63	226.64
898.93	226.64
899.24	226.65
899.54	226.64
899.85	226.64
900.15	226.63
900.46	226.64
900.76	226.65
901.07	226.65
901.38	226.64
901.68	226.65
901.99	226.59
902.29	226.60
902.60	226.57
902.90	226.56
903.21	226.56
903.51	226.55
903.82	226.58
904.12	226.58
904.43	226.58
904.73	226.58
905.03	226.60
905.34	226.73
905.64	226.72
905.95	226.72
906.25	226.71
906.56	226.71
906.86	226.70
907.17	226.69
907.47	226.70
907.77	226.70
908.08	226.68
908.38	226.68
908.69	226.69
908.99	226.71
909.30	226.72
909.60	226.72
909.90	226.72
910.21	226.69
910.51	226.67
910.81	226.67
911.12	226.67
911.42	226.66
911.73	226.54
912.03	226.55
912.33	226.58
912.64	226.58
912.94	226.57
913.24	226.55
913.55	226.54
913.85	226.54
914.15	226.56
914.46	226.57
914.76	226.56
915.06	226.54
915.37	226.52
915.67	226.51
915.97	226.51
916.27	226.49
916.58	226.50
916.88	226.49
917.18	226.48
917.49	226.56
917.79	226.56
918.09	226.57
918.39	226.61
918.70	226.59
919.00	226.61
919.30	226.67
919.60	226.68
919.91	226.66
920.21	226.66
920.51	226.62
920.81	226.61
921.12	226.63
921.42	226.63
921.72	226.63
922.02	226.65
922.32	226.66
922.63	226.66
922.93	226.73
923.23	226.73
923.53	226.73
923.83	226.64
924.13	226.65
924.44	226.65
924.74	226.66
925.04	226.69
925.34	226.68
925.64	226.62
925.94	226.62
926.24	226.69
926.55	226.69
926.85	226.71
927.15	226.71
927.45	226.72
927.75	226.72
928.05	226.73
928.35	226.72
928.65	226.72
928.95	226.72
929.26	226.66
929.56	226.68
929.86	226.69
930.16	226.69
930.46	226.69
930.76	226.68
931.06	226.62
931.36	226.59
931.66	226.61
931.96	226.61
932.26	226.61
932.56	226.56
932.86	226.56
933.16	226.55
933.46	226.53
933.76	226.51
934.06	226.54
934.36	226.57
934.66	226.57
934.96	226.56
935.26	226.57
935.56	226.59
935.86	226.56
936.16	226.55
936.46	226.54
936.76	226.53
937.06	226.52
937.36	226.53
937.66	226.53
937.96	226.52
938.26	226.50
938.56	226.49
938.86	226.50
939.16	226.54
939.46	226.55
939.76	226.56
940.06	226.56
940.35	226.53
940.65	226.46
940.95	226.48
941.25	226.44
941.55	226.43
941.85	226.42
942.15	226.44
942.45	226.46
942.75	226.45
943.04	226.45
943.34	226.48
943.64	226.47
943.94	226.45
944.24	226.46
944.54	226.48
944.84	226.47
945.13	226.44
945.43	226.42
945.73	226.41
946.03	226.40
946.33	226.40
946.62	226.39
946.92	226.40
947.22	226.40
947.52	226.41
947.82	226.43
948.11	226.43
948.41	226.41
948.71	226.39
949.01	226.40
949.31	226.39
949.60	226.37
949.90	226.39
950.20	226.39
950.50	226.39
950.79	226.37
951.09	226.40
951.39	226.40
951.69	226.38
951.98	226.41
952.28	226.41
952.58	226.41
952.87	226.41
953.17	226.42
953.47	226.40
953.76	226.41
954.06	226.39
954.36	226.36
954.66	226.36
954.95	226.39
955.25	226.40
955.55	226.42
955.84	226.39
956.14	226.41
956.44	226.41
956.73	226.40
957.03	226.41
957.32	226.42
957.62	226.42
957.92	226.44
958.21	226.42
958.51	226.57
958.81	226.59
959.10	226.60
959.40	226.64
959.69	226.66
959.99	226.68
960.29	226.68
960.58	226.68
960.88	226.72
961.17	226.70
961.47	226.71
961.76	226.70
962.06	226.72
962.36	226.70
962.65	226.71
962.95	226.71
963.24	226.70
963.54	226.69
963.83	226.70
964.13	226.70
964.42	226.70
964.72	226.59
965.01	226.58
965.31	226.57
965.60	226.53
965.90	226.60
966.19	226.56
966.49	226.57
966.78	226.57
967.08	226.56
967.37	226.57
967.67	226.54
967.96	226.57
968.26	226.57
968.55	226.59
968.85	226.58
969.14	226.57
969.43	226.58
969.73	226.56
970.02	226.56
970.32	226.55
970.61	226.53
970.91	226.48
971.20	226.47
971.49	226.46
971.79	226.48
972.08	226.39
972.38	226.41
972.67	226.40
972.96	226.42
973.26	226.39
973.55	226.43
973.85	226.42
974.14	226.40
974.43	226.41
974.73	226.38
975.02	226.38
975.31	226.38
975.61	226.38
975.90	226.36
976.19	226.34
976.49	226.35
976.78	226.36
977.07	226.37
977.37	226.39
977.66	226.40
977.95	226.38
978.24	226.39
978.54	226.41
978.83	226.41
979.12	226.40
979.42	226.41
979.71	226.38
980.00	226.38
980.29	226.39
980.59	226.38
980.88	226.41
981.17	226.41
981.46	226.42
981.76	226.42
982.05	226.46
982.34	226.47
982.63	226.47
982.93	226.47
983.22	226.50
983.51	226.50
983.80	226.51
984.09	226.53
984.39	226.52
984.68	226.50
984.97	226.51
985.26	226.49
985.55	226.49
985.85	226.47
986.14	226.49
986.43	226.49
986.72	226.48
987.01	226.42
987.30	226.43
987.59	226.42
987.89	226.42
988.18	226.39
988.47	226.37
988.76	226.36
989.05	226.34
989.34	226.33
989.63	226.36
989.92	226.35
990.22	226.33
990.51	226.34
990.80	226.33
991.09	226.33
991.38	226.35
991.67	226.34
991.96	226.32
992.25	226.32
992.54	226.30
992.83	226.30
993.12	226.31
993.41	226.32
993.70	226.38
993.99	226.41
994.28	226.42
994.58	226.45
994.87	226.42
995.16	226.42
995.45	226.41
995.74	226.36
996.03	226.37
996.32	226.38
996.61	226.40
996.90	226.41
997.19	226.40
997.48	226.39
997.77	226.39
998.06	226.39
998.34	226.37
998.63	226.35
998.92	226.36
999.21	226.38
999.50	226.37
999.79	226.33
1000.08	226.32
1000.37	226.31
1000.66	226.30
1000.95	226.34
1001.24	226.35
1001.53	226.37
1001.82	226.37
1002.11	226.35
1002.40	226.36
1002.68	226.38
1002.97	226.46
1003.26	226.45
1003.55	226.43
1003.84	226.44
1004.13	226.49
1004.42	226.48
1004.71	226.50
1004.99	226.49
1005.28	226.52
1005.57	226.52
1005.86	226.50
1006.15	226.49
1006.44	226.48
1006.72	226.49
1007.01	226.47
1007.30	226.47
1007.59	226.46
1007.88	226.46
1008.17	226.46
1008.45	226.44
1008.74	226.39
1009.03	226.33
1009.32	226.33
1009.60	226.34
1009.89	226.32
1010.18	226.28
1010.47	226.29
1010.76	226.28
1011.04	226.28
1011.33	226.28
1011.62	226.28
1011.91	226.29
1012.19	226.30
1012.48	226.30
1012.77	226.30
1013.05	226.35
1013.34	226.35
1013.63	226.34
1013.92	226.35
1014.20	226.33
1014.49	226.33
1014.78	226.35
1015.06	226.30
1015.35	226.30
1015.64	226.31
1015.92	226.34
1016.21	226.34
1016.50	226.35
1016.78	226.36
1017.07	226.38
1017.36	226.35
1017.64	226.33
1017.93	226.34
1018.22	226.32
1018.50	226.32
1018.79	226.31
1019.08	226.27
1019.36	226.27
1019.65	226.25
1019.93	226.29
1020.22	226.32
1020.51	226.39
1020.79	226.38
1021.08	226.09
1021.36	226.12
1021.65	226.30
1021.94	226.26
1022.22	226.32
1022.51	226.10
1022.79	226.97
1023.08	226.56
1023.36	227.79
1023.65	226.17
>>>>>End Processed Spectral Data<<<<<
