SpectraSuite Data File
++++++++++++++++++++++++++++++++++++
Date: Fri Oct 02 17:19:49 EDT 2015
User: lab3
Dark Spectrum Present: No
Reference Spectrum Present: No
Number of Sampled Component Spectra: 1
Spectrometers: USB2E7196
Integration Time (usec): 46000 (USB2E7196)
Spectra Averaged: 600 (USB2E7196)
Boxcar Smoothing: 10 (USB2E7196)
Correct for Electrical Dark: No (USB2E7196)
Strobe/Lamp Enabled: No (USB2E7196)
Correct for Detector Non-linearity: No (USB2E7196)
Correct for Stray Light: No (USB2E7196)
Number of Pixels in Processed Spectrum: 2048
>>>>>Begin Processed Spectral Data<<<<<
339.09	0.00
339.48	215.11
339.86	216.39
340.24	217.72
340.63	219.22
341.01	222.48
341.39	221.99
341.78	223.22
342.16	224.45
342.54	224.98
342.93	213.35
343.31	224.13
343.69	224.67
344.07	225.13
344.46	225.57
344.84	225.96
345.22	226.19
345.60	226.46
345.99	226.66
346.37	226.81
346.75	226.92
347.13	227.00
347.52	227.07
347.90	227.16
348.28	227.19
348.66	227.24
349.05	227.23
349.43	227.29
349.81	227.35
350.19	227.40
350.57	227.48
350.96	227.56
351.34	227.65
351.72	227.74
352.10	227.84
352.48	227.91
352.87	227.97
353.25	228.02
353.63	228.08
354.01	228.15
354.39	228.23
354.77	228.30
355.15	228.40
355.54	228.45
355.92	228.47
356.30	228.55
356.68	228.72
357.06	228.79
357.44	228.83
357.82	228.89
358.20	229.01
358.58	229.07
358.97	229.14
359.35	229.24
359.73	229.32
360.11	229.38
360.49	229.45
360.87	229.50
361.25	229.57
361.63	229.64
362.01	229.69
362.39	229.70
362.77	229.75
363.15	229.77
363.53	229.81
363.91	229.85
364.29	229.88
364.67	229.77
365.05	229.81
365.43	229.85
365.81	229.88
366.19	229.89
366.57	229.94
366.95	229.94
367.33	229.90
367.71	229.89
368.09	229.91
368.47	229.90
368.85	229.89
369.23	229.90
369.61	229.84
369.99	229.86
370.37	229.87
370.75	229.93
371.13	229.90
371.51	229.86
371.89	229.85
372.27	229.83
372.65	229.80
373.03	229.75
373.41	229.70
373.78	229.65
374.16	229.54
374.54	229.45
374.92	229.41
375.30	229.37
375.68	229.28
376.06	229.23
376.44	229.16
376.82	229.10
377.19	229.04
377.57	229.00
377.95	228.91
378.33	228.85
378.71	228.70
379.09	228.66
379.47	228.63
379.84	228.55
380.22	228.48
380.60	228.41
380.98	228.37
381.36	228.32
381.73	228.26
382.11	228.24
382.49	228.20
382.87	228.14
383.25	228.10
383.62	228.22
384.00	228.16
384.38	228.12
384.76	228.11
385.13	228.12
385.51	228.07
385.89	228.02
386.27	227.98
386.64	227.96
387.02	227.91
387.40	227.85
387.78	227.83
388.15	227.80
388.53	227.78
388.91	227.75
389.29	227.71
389.66	227.71
390.04	227.68
390.42	227.68
390.79	227.67
391.17	227.64
391.55	227.48
391.92	227.46
392.30	227.47
392.68	227.43
393.05	227.40
393.43	227.39
393.81	227.40
394.18	227.38
394.56	227.40
394.94	227.43
395.31	227.43
395.69	227.48
396.06	227.51
396.44	227.52
396.82	227.54
397.19	227.62
397.57	227.62
397.95	227.68
398.32	227.67
398.70	227.72
399.07	227.80
399.45	227.83
399.82	227.87
400.20	227.92
400.58	227.99
400.95	228.00
401.33	228.09
401.70	228.25
402.08	228.34
402.45	228.41
402.83	228.52
403.20	228.65
403.58	228.74
403.95	228.88
404.33	229.03
404.71	229.15
405.08	229.36
405.46	229.52
405.83	229.70
406.21	229.88
406.58	230.08
406.96	230.28
407.33	230.54
407.70	230.82
408.08	231.20
408.45	231.52
408.83	231.88
409.20	232.20
409.58	232.48
409.95	232.89
410.33	233.33
410.70	233.73
411.08	234.21
411.45	234.71
411.82	235.23
412.20	235.83
412.57	236.54
412.95	237.09
413.32	237.82
413.69	238.56
414.07	239.36
414.44	240.21
414.82	241.07
415.19	242.10
415.56	243.14
415.94	244.20
416.31	245.41
416.68	246.61
417.06	248.01
417.43	249.32
417.81	250.82
418.18	252.36
418.55	254.05
418.93	255.79
419.30	257.61
419.67	259.54
420.04	261.52
420.42	263.58
420.79	265.99
421.16	268.40
421.54	270.85
421.91	273.40
422.28	276.06
422.66	278.92
423.03	281.69
423.40	284.55
423.77	287.63
424.15	290.76
424.52	294.05
424.89	297.61
425.26	301.13
425.64	304.44
426.01	308.12
426.38	311.90
426.75	315.78
427.13	319.78
427.50	323.96
427.87	328.31
428.24	332.71
428.61	336.94
428.99	341.52
429.36	346.54
429.73	351.34
430.10	356.15
430.47	361.05
430.85	366.09
431.22	371.53
431.59	377.13
431.96	382.58
432.33	388.63
432.70	394.41
433.08	401.22
433.45	407.66
433.82	414.01
434.19	421.13
434.56	428.17
434.93	434.93
435.30	441.63
435.68	449.19
436.05	456.61
436.42	463.98
436.79	470.72
437.16	478.00
437.53	485.79
437.90	493.58
438.27	501.21
438.64	509.44
439.01	516.86
439.38	523.68
439.75	530.25
440.13	537.63
440.50	544.65
440.87	550.20
441.24	556.28
441.61	562.92
441.98	567.72
442.35	573.38
442.72	579.19
443.09	584.72
443.46	588.18
443.83	590.67
444.20	592.70
444.57	595.78
444.94	597.46
445.31	599.23
445.68	600.68
446.05	601.65
446.42	601.04
446.79	600.29
447.16	599.55
447.53	598.89
447.90	596.29
448.27	593.79
448.64	590.14
449.01	587.51
449.37	582.54
449.74	578.04
450.11	572.31
450.48	566.05
450.85	559.79
451.22	554.42
451.59	549.16
451.96	544.43
452.33	537.65
452.70	531.63
453.07	524.28
453.43	517.00
453.80	509.97
454.17	503.25
454.54	497.05
454.91	490.08
455.28	483.55
455.65	477.40
456.02	470.95
456.38	465.75
456.75	459.07
457.12	453.69
457.49	448.26
457.86	443.16
458.23	438.70
458.59	433.75
458.96	428.71
459.33	424.30
459.70	419.80
460.07	416.38
460.43	412.35
460.80	408.63
461.17	405.37
461.54	401.84
461.91	398.54
462.27	395.19
462.64	392.50
463.01	389.38
463.38	386.26
463.74	383.40
464.11	380.91
464.48	378.69
464.85	376.25
465.21	374.42
465.58	372.37
465.95	370.02
466.32	368.18
466.68	366.35
467.05	364.51
467.42	362.70
467.78	360.75
468.15	358.96
468.52	357.65
468.88	355.88
469.25	354.27
469.62	353.00
469.98	351.62
470.35	350.40
470.72	349.27
471.08	348.13
471.45	347.18
471.82	346.11
472.18	344.96
472.55	344.23
472.92	343.30
473.28	342.58
473.65	341.80
474.02	341.04
474.38	340.40
474.75	340.02
475.11	339.50
475.48	339.27
475.85	339.01
476.21	338.87
476.58	338.79
476.94	338.94
477.31	339.01
477.67	339.08
478.04	339.29
478.41	339.59
478.77	340.01
479.14	340.29
479.50	340.80
479.87	341.45
480.23	342.13
480.60	342.78
480.96	343.45
481.33	344.44
481.69	345.43
482.06	346.40
482.42	347.30
482.79	348.42
483.15	349.70
483.52	351.16
483.88	352.56
484.25	354.05
484.61	355.59
484.98	357.29
485.34	359.19
485.71	361.15
486.07	363.25
486.44	365.35
486.80	367.71
487.17	370.14
487.53	372.82
487.90	375.61
488.26	378.65
488.62	381.86
488.99	385.06
489.35	388.44
489.72	392.11
490.08	395.97
490.44	399.95
490.81	404.07
491.17	408.29
491.54	412.86
491.90	417.60
492.26	422.63
492.63	427.90
492.99	433.40
493.36	439.11
493.72	445.11
494.08	451.28
494.45	457.78
494.81	464.58
495.17	471.51
495.54	478.85
495.90	486.47
496.26	494.27
496.63	502.33
496.99	510.71
497.35	519.48
497.72	528.52
498.08	537.76
498.44	547.34
498.80	557.49
499.17	567.91
499.53	578.58
499.89	589.66
500.26	600.95
500.62	612.54
500.98	624.75
501.34	637.16
501.71	650.01
502.07	663.12
502.43	676.74
502.79	690.61
503.16	704.91
503.52	719.46
503.88	734.39
504.24	749.75
504.60	765.30
504.97	781.33
505.33	797.81
505.69	815.17
506.05	832.83
506.41	850.42
506.78	868.18
507.14	886.51
507.50	905.24
507.86	924.29
508.22	943.57
508.59	962.70
508.95	982.62
509.31	1003.33
509.67	1024.64
510.03	1045.92
510.39	1067.30
510.75	1088.85
511.12	1110.69
511.48	1132.65
511.84	1154.74
512.20	1177.20
512.56	1200.49
512.92	1223.73
513.28	1246.61
513.64	1269.76
514.00	1293.35
514.37	1317.15
514.73	1340.99
515.09	1364.76
515.45	1388.86
515.81	1413.15
516.17	1437.52
516.53	1461.36
516.89	1485.04
517.25	1508.92
517.61	1532.74
517.97	1557.00
518.33	1580.77
518.69	1604.43
519.05	1628.62
519.41	1653.01
519.77	1677.57
520.13	1701.36
520.49	1725.15
520.85	1749.31
521.21	1772.96
521.57	1796.98
521.93	1820.56
522.29	1844.53
522.65	1868.06
523.01	1891.45
523.37	1914.41
523.73	1938.15
524.09	1961.65
524.45	1984.92
524.81	2007.75
525.17	2030.43
525.53	2052.49
525.89	2075.04
526.25	2097.54
526.61	2118.96
526.97	2140.59
527.33	2162.11
527.68	2183.43
528.04	2203.94
528.40	2223.49
528.76	2243.32
529.12	2262.69
529.48	2281.59
529.84	2298.87
530.20	2316.66
530.56	2334.01
530.91	2351.42
531.27	2368.40
531.63	2384.58
531.99	2400.37
532.35	2415.58
532.71	2430.80
533.07	2446.63
533.42	2460.72
533.78	2475.68
534.14	2490.96
534.50	2505.19
534.86	2519.25
535.21	2531.38
535.57	2543.96
535.93	2556.32
536.29	2567.65
536.65	2578.73
537.00	2589.35
537.36	2600.76
537.72	2610.66
538.08	2620.02
538.44	2628.86
538.79	2637.31
539.15	2644.92
539.51	2652.07
539.87	2658.59
540.22	2663.24
540.58	2668.04
540.94	2673.94
541.29	2678.38
541.65	2680.98
542.01	2683.02
542.37	2684.35
542.72	2686.96
543.08	2688.05
543.44	2689.56
543.79	2690.07
544.15	2689.77
544.51	2689.82
544.87	2688.84
545.22	2687.10
545.58	2684.75
545.94	2682.35
546.29	2678.74
546.65	2675.11
547.01	2671.54
547.36	2668.63
547.72	2665.73
548.07	2661.21
548.43	2655.15
548.79	2648.23
549.14	2642.60
549.50	2637.14
549.86	2630.83
550.21	2623.52
550.57	2616.94
550.92	2608.37
551.28	2600.28
551.64	2592.48
551.99	2584.11
552.35	2575.15
552.70	2566.58
553.06	2558.25
553.41	2549.37
553.77	2540.22
554.13	2530.98
554.48	2520.91
554.84	2509.66
555.19	2498.99
555.55	2488.30
555.90	2477.79
556.26	2467.68
556.61	2456.56
556.97	2443.82
557.32	2431.68
557.68	2419.47
558.03	2407.06
558.39	2395.65
558.74	2384.60
559.10	2371.93
559.45	2359.59
559.81	2347.80
560.16	2335.27
560.52	2323.12
560.87	2311.16
561.23	2298.40
561.58	2285.95
561.94	2273.05
562.29	2259.66
562.64	2247.01
563.00	2233.95
563.35	2221.35
563.71	2208.64
564.06	2195.79
564.42	2183.64
564.77	2170.82
565.12	2157.87
565.48	2144.98
565.83	2132.14
566.19	2119.39
566.54	2106.58
566.89	2092.61
567.25	2078.88
567.60	2066.47
567.96	2053.15
568.31	2038.65
568.66	2024.92
569.02	2012.08
569.37	1999.29
569.72	1986.98
570.08	1973.44
570.43	1959.64
570.78	1945.54
571.14	1930.80
571.49	1916.75
571.84	1903.31
572.20	1888.69
572.55	1874.32
572.90	1859.83
573.26	1845.33
573.61	1830.29
573.96	1815.78
574.31	1801.55
574.67	1787.31
575.02	1772.12
575.37	1757.01
575.72	1742.65
576.08	1728.61
576.43	1713.55
576.78	1698.92
577.13	1684.56
577.49	1670.51
577.84	1657.04
578.19	1642.70
578.54	1628.57
578.90	1613.94
579.25	1599.16
579.60	1585.98
579.95	1572.64
580.30	1559.10
580.66	1545.40
581.01	1531.61
581.36	1517.81
581.71	1504.98
582.06	1492.03
582.42	1479.37
582.77	1466.71
583.12	1454.02
583.47	1441.17
583.82	1428.47
584.17	1415.42
584.53	1402.08
584.88	1389.09
585.23	1375.71
585.58	1363.18
585.93	1350.86
586.28	1339.23
586.63	1327.61
586.98	1315.43
587.34	1303.35
587.69	1291.10
588.04	1279.14
588.39	1267.54
588.74	1256.05
589.09	1244.34
589.44	1232.23
589.79	1220.75
590.14	1209.39
590.49	1198.00
590.84	1186.76
591.19	1175.86
591.54	1164.81
591.89	1153.89
592.25	1143.16
592.60	1132.11
592.95	1121.44
593.30	1110.93
593.65	1100.14
594.00	1089.47
594.35	1079.44
594.70	1068.98
595.05	1059.33
595.40	1049.58
595.75	1039.69
596.10	1030.28
596.45	1020.66
596.80	1011.37
597.15	1001.82
597.50	992.40
597.85	983.41
598.19	974.25
598.54	965.19
598.89	956.51
599.24	948.14
599.59	939.60
599.94	931.96
600.29	924.10
600.64	915.99
600.99	907.55
601.34	899.44
601.69	890.99
602.04	883.21
602.39	875.27
602.74	867.37
603.08	859.45
603.43	851.60
603.78	843.83
604.13	836.22
604.48	828.60
604.83	821.17
605.18	813.63
605.53	806.26
605.87	798.65
606.22	791.43
606.57	784.11
606.92	776.71
607.27	769.19
607.62	762.03
607.96	755.25
608.31	748.87
608.66	742.33
609.01	736.09
609.36	729.92
609.70	723.56
610.05	717.16
610.40	711.03
610.75	704.85
611.10	698.98
611.44	692.98
611.79	687.10
612.14	681.16
612.49	675.33
612.83	669.75
613.18	664.33
613.53	658.79
613.88	653.28
614.22	648.18
614.57	643.02
614.92	637.69
615.27	632.47
615.61	627.30
615.96	622.23
616.31	617.12
616.65	612.09
617.00	607.25
617.35	602.55
617.70	597.89
618.04	593.26
618.39	588.58
618.74	584.15
619.08	579.70
619.43	575.41
619.78	571.09
620.12	566.75
620.47	562.59
620.82	558.51
621.16	554.45
621.51	550.26
621.85	546.12
622.20	542.16
622.55	538.24
622.89	534.38
623.24	530.50
623.59	526.69
623.93	523.05
624.28	519.47
624.62	515.97
624.97	512.53
625.32	509.06
625.66	505.54
626.01	501.96
626.35	498.51
626.70	495.03
627.04	491.75
627.39	488.41
627.73	485.24
628.08	482.14
628.43	479.04
628.77	476.05
629.12	473.13
629.46	470.24
629.81	467.24
630.15	464.28
630.50	461.40
630.84	458.56
631.19	455.75
631.53	453.08
631.88	450.37
632.22	447.63
632.57	445.20
632.91	442.80
633.26	440.48
633.60	438.16
633.95	435.93
634.29	433.61
634.64	431.38
634.98	428.92
635.32	426.63
635.67	424.53
636.01	422.34
636.36	420.21
636.70	418.21
637.05	416.21
637.39	414.24
637.73	412.29
638.08	410.44
638.42	408.57
638.77	406.57
639.11	404.52
639.45	402.57
639.80	400.54
640.14	398.65
640.49	396.72
640.83	394.77
641.17	392.91
641.52	391.07
641.86	389.26
642.20	387.65
642.55	385.89
642.89	384.15
643.23	382.50
643.58	381.01
643.92	379.38
644.26	377.79
644.61	376.28
644.95	374.73
645.29	373.10
645.64	371.50
645.98	369.94
646.32	368.52
646.66	367.08
647.01	365.67
647.35	364.28
647.69	362.90
648.04	361.63
648.38	360.27
648.72	358.93
649.06	357.61
649.41	356.32
649.75	355.06
650.09	353.81
650.43	352.56
650.78	351.23
651.12	349.96
651.46	348.78
651.80	347.59
652.14	346.43
652.49	345.31
652.83	344.17
653.17	343.09
653.51	342.03
653.85	341.01
654.20	339.94
654.54	338.81
654.88	337.76
655.22	336.73
655.56	335.70
655.90	334.72
656.25	333.76
656.59	332.77
656.93	331.86
657.27	330.96
657.61	329.99
657.95	329.10
658.29	328.19
658.64	327.30
658.98	326.41
659.32	325.54
659.66	324.73
660.00	323.94
660.34	323.14
660.68	322.31
661.02	321.44
661.36	320.62
661.70	319.82
662.05	319.03
662.39	318.25
662.73	317.57
663.07	316.88
663.41	316.16
663.75	315.44
664.09	314.67
664.43	313.89
664.77	313.22
665.11	312.48
665.45	311.81
665.79	311.13
666.13	310.40
666.47	309.69
666.81	308.96
667.15	308.19
667.49	307.53
667.83	306.92
668.17	306.29
668.51	305.71
668.85	305.15
669.19	304.63
669.53	304.02
669.87	303.36
670.21	302.75
670.55	302.16
670.89	301.64
671.23	301.08
671.57	300.56
671.91	300.05
672.25	299.57
672.58	299.06
672.92	298.49
673.26	298.03
673.60	297.54
673.94	297.07
674.28	296.63
674.62	296.17
674.96	295.64
675.30	295.17
675.64	294.67
675.97	294.14
676.31	293.58
676.65	293.08
676.99	292.64
677.33	292.13
677.67	291.66
678.01	291.12
678.34	290.65
678.68	290.20
679.02	289.70
679.36	289.19
679.70	288.72
680.04	288.28
680.37	287.82
680.71	287.38
681.05	286.95
681.39	286.49
681.73	286.00
682.06	285.52
682.40	285.06
682.74	284.67
683.08	284.33
683.42	283.92
683.75	283.54
684.09	283.08
684.43	282.68
684.77	282.26
685.10	281.90
685.44	281.51
685.78	281.11
686.12	280.74
686.45	280.35
686.79	279.93
687.13	279.55
687.46	279.14
687.80	278.75
688.14	278.32
688.48	277.95
688.81	277.57
689.15	277.22
689.49	276.82
689.82	276.40
690.16	275.92
690.50	275.55
690.83	275.16
691.17	274.76
691.51	274.37
691.84	274.01
692.18	273.60
692.52	273.19
692.85	272.80
693.19	272.46
693.52	272.08
693.86	271.70
694.20	271.34
694.53	270.98
694.87	270.59
695.21	270.21
695.54	269.83
695.88	269.47
696.21	269.08
696.55	268.73
696.88	268.37
697.22	268.02
697.56	267.66
697.89	267.26
698.23	266.90
698.56	266.54
698.90	266.17
699.23	265.78
699.57	265.43
699.90	265.07
700.24	264.68
700.58	264.35
700.91	264.06
701.25	263.82
701.58	263.55
701.92	263.26
702.25	262.95
702.59	262.61
702.92	262.27
703.26	261.94
703.59	261.60
703.93	261.39
704.26	261.09
704.60	260.77
704.93	260.45
705.26	260.13
705.60	259.86
705.93	259.50
706.27	259.24
706.60	258.99
706.94	258.74
707.27	258.42
707.61	258.10
707.94	257.78
708.27	257.36
708.61	257.00
708.94	256.68
709.28	256.40
709.61	256.11
709.94	255.86
710.28	255.61
710.61	255.38
710.95	255.01
711.28	254.82
711.61	254.56
711.95	254.33
712.28	254.07
712.61	253.79
712.95	253.63
713.28	253.45
713.61	253.15
713.95	252.86
714.28	252.64
714.61	252.38
714.95	252.13
715.28	251.90
715.61	251.68
715.95	251.45
716.28	251.23
716.61	251.02
716.95	250.77
717.28	250.53
717.61	250.28
717.94	250.06
718.28	249.75
718.61	249.52
718.94	249.28
719.27	249.06
719.61	248.87
719.94	248.62
720.27	248.33
720.60	248.11
720.94	247.91
721.27	247.71
721.60	247.54
721.93	247.34
722.27	247.17
722.60	246.99
722.93	246.78
723.26	246.59
723.59	246.36
723.93	246.18
724.26	246.01
724.59	245.82
724.92	245.65
725.25	245.51
725.59	245.33
725.92	245.19
726.25	245.01
726.58	244.83
726.91	244.65
727.24	244.52
727.57	244.37
727.91	244.19
728.24	244.04
728.57	243.86
728.90	243.72
729.23	243.51
729.56	243.40
729.89	243.24
730.22	243.08
730.55	242.94
730.89	242.79
731.22	242.62
731.55	242.47
731.88	242.31
732.21	242.13
732.54	241.98
732.87	241.82
733.20	241.70
733.53	241.55
733.86	241.42
734.19	241.26
734.52	241.12
734.85	241.08
735.18	240.91
735.51	240.80
735.84	240.66
736.17	240.57
736.50	240.38
736.83	240.39
737.16	240.26
737.49	240.14
737.82	240.00
738.15	239.90
738.48	239.79
738.81	239.66
739.14	239.52
739.47	239.40
739.80	239.28
740.13	239.15
740.46	239.03
740.79	238.89
741.12	238.77
741.45	238.62
741.78	238.42
742.11	238.34
742.44	238.18
742.77	238.09
743.10	237.97
743.43	237.86
743.75	237.61
744.08	237.69
744.41	237.57
744.74	237.44
745.07	237.31
745.40	237.23
745.73	237.17
746.06	237.08
746.39	237.00
746.71	236.89
747.04	236.78
747.37	236.68
747.70	236.62
748.03	236.53
748.36	236.47
748.68	236.37
749.01	236.25
749.34	236.16
749.67	236.05
750.00	235.95
750.33	235.95
750.65	235.87
750.98	235.60
751.31	235.51
751.64	235.43
751.97	235.40
752.29	235.30
752.62	235.16
752.95	235.07
753.28	234.97
753.60	234.89
753.93	234.84
754.26	234.76
754.59	234.63
754.91	234.53
755.24	234.44
755.57	234.41
755.90	234.33
756.22	234.24
756.55	234.14
756.88	234.04
757.20	233.88
757.53	233.77
757.86	233.70
758.19	233.63
758.51	233.54
758.84	233.40
759.17	233.31
759.49	233.23
759.82	233.21
760.15	233.14
760.47	233.06
760.80	232.95
761.13	232.91
761.45	232.85
761.78	232.78
762.11	232.72
762.43	232.59
762.76	232.53
763.08	232.48
763.41	232.43
763.74	232.38
764.06	232.32
764.39	232.27
764.71	232.21
765.04	232.15
765.37	232.08
765.69	232.04
766.02	231.98
766.34	231.93
766.67	231.84
767.00	231.82
767.32	231.82
767.65	231.86
767.97	231.80
768.30	231.75
768.62	231.72
768.95	231.65
769.27	231.60
769.60	231.57
769.92	231.50
770.25	231.45
770.57	231.38
770.90	231.35
771.22	231.28
771.55	231.23
771.87	231.19
772.20	231.16
772.52	231.23
772.85	231.34
773.17	231.31
773.50	231.26
773.82	231.20
774.15	231.11
774.47	230.99
774.80	230.93
775.12	230.88
775.45	230.83
775.77	230.80
776.09	230.77
776.42	230.72
776.74	230.74
777.07	230.68
777.39	230.65
777.72	230.60
778.04	230.60
778.36	230.57
778.69	230.53
779.01	230.51
779.33	230.37
779.66	230.20
779.98	230.14
780.31	230.11
780.63	230.14
780.95	230.13
781.28	230.09
781.60	230.06
781.92	230.03
782.25	230.01
782.57	229.98
782.89	229.95
783.22	229.91
783.54	229.84
783.86	229.84
784.19	229.80
784.51	229.82
784.83	229.78
785.16	229.75
785.48	229.75
785.80	229.73
786.12	229.71
786.45	229.68
786.77	229.69
787.09	229.67
787.42	229.58
787.74	229.56
788.06	229.56
788.38	229.53
788.71	229.51
789.03	229.48
789.35	229.48
789.67	229.46
789.99	229.45
790.32	229.43
790.64	229.41
790.96	229.52
791.28	229.45
791.61	229.42
791.93	229.42
792.25	229.38
792.57	229.44
792.89	229.41
793.21	229.39
793.54	229.37
793.86	229.34
794.18	229.34
794.50	229.30
794.82	229.27
795.14	229.28
795.47	229.27
795.79	229.27
796.11	229.22
796.43	229.20
796.75	229.18
797.07	229.18
797.39	229.16
797.71	229.03
798.04	229.01
798.36	229.00
798.68	228.97
799.00	228.97
799.32	228.90
799.64	228.89
799.96	228.88
800.28	228.86
800.60	228.84
800.92	228.84
801.24	228.82
801.56	228.82
801.89	228.79
802.21	228.78
802.53	228.73
802.85	228.74
803.17	228.78
803.49	228.75
803.81	228.73
804.13	228.70
804.45	228.68
804.77	228.68
805.09	228.67
805.41	228.65
805.73	228.60
806.05	228.56
806.37	228.53
806.69	228.50
807.01	228.48
807.33	228.49
807.65	228.43
807.97	228.47
808.28	228.43
808.60	228.42
808.92	228.39
809.24	228.47
809.56	228.45
809.88	228.40
810.20	228.39
810.52	228.42
810.84	228.40
811.16	228.38
811.48	228.36
811.80	228.40
812.12	228.37
812.43	228.40
812.75	228.39
813.07	228.38
813.39	228.38
813.71	228.37
814.03	228.33
814.35	228.32
814.67	228.25
814.98	228.24
815.30	228.21
815.62	228.17
815.94	228.07
816.26	228.07
816.58	228.03
816.89	228.02
817.21	227.98
817.53	227.97
817.85	227.98
818.17	227.97
818.48	227.89
818.80	227.91
819.12	227.87
819.44	227.85
819.76	227.81
820.07	227.80
820.39	227.79
820.71	227.79
821.03	227.77
821.34	227.77
821.66	227.78
821.98	227.79
822.30	227.78
822.61	227.85
822.93	227.81
823.25	227.80
823.57	227.78
823.88	227.78
824.20	227.77
824.52	227.77
824.83	227.76
825.15	227.75
825.47	227.73
825.79	227.74
826.10	227.73
826.42	227.72
826.74	227.73
827.05	227.72
827.37	227.72
827.69	227.72
828.00	227.73
828.32	227.72
828.64	227.69
828.95	227.75
829.27	227.72
829.58	227.72
829.90	227.74
830.22	227.74
830.53	227.72
830.85	227.71
831.17	227.66
831.48	227.64
831.80	227.64
832.11	227.63
832.43	227.60
832.75	227.60
833.06	227.67
833.38	227.63
833.69	227.62
834.01	227.62
834.32	227.61
834.64	227.58
834.96	227.57
835.27	227.58
835.59	227.54
835.90	227.50
836.22	227.50
836.53	227.47
836.85	227.45
837.16	227.59
837.48	227.60
837.79	227.66
838.11	227.67
838.42	227.66
838.74	227.66
839.05	227.65
839.37	227.63
839.68	227.57
840.00	227.57
840.31	227.58
840.63	227.57
840.94	227.56
841.26	227.54
841.57	227.54
841.88	227.54
842.20	227.53
842.51	227.52
842.83	227.52
843.14	227.62
843.46	227.63
843.77	227.53
844.08	227.52
844.40	227.47
844.71	227.47
845.03	227.45
845.34	227.45
845.65	227.47
845.97	227.49
846.28	227.49
846.60	227.48
846.91	227.47
847.22	227.47
847.54	227.50
847.85	227.51
848.16	227.51
848.48	227.48
848.79	227.52
849.10	227.54
849.42	227.54
849.73	227.43
850.04	227.42
850.36	227.37
850.67	227.38
850.98	227.39
851.30	227.40
851.61	227.40
851.92	227.38
852.23	227.42
852.55	227.41
852.86	227.40
853.17	227.42
853.49	227.43
853.80	227.46
854.11	227.45
854.42	227.46
854.74	227.43
855.05	227.43
855.36	227.36
855.67	227.36
855.99	227.36
856.30	227.50
856.61	227.50
856.92	227.51
857.23	227.52
857.55	227.50
857.86	227.48
858.17	227.50
858.48	227.48
858.79	227.44
859.11	227.44
859.42	227.42
859.73	227.40
860.04	227.39
860.35	227.34
860.66	227.31
860.98	227.31
861.29	227.33
861.60	227.31
861.91	227.33
862.22	227.31
862.53	227.30
862.84	227.15
863.16	227.18
863.47	227.15
863.78	227.13
864.09	227.14
864.40	227.15
864.71	227.15
865.02	227.17
865.33	227.15
865.64	227.14
865.95	227.12
866.27	227.22
866.58	227.20
866.89	227.21
867.20	227.21
867.51	227.19
867.82	227.18
868.13	227.22
868.44	227.19
868.75	227.21
869.06	227.21
869.37	227.23
869.68	227.18
869.99	227.22
870.30	227.21
870.61	227.22
870.92	227.19
871.23	227.17
871.54	227.19
871.85	227.22
872.16	227.23
872.47	227.23
872.78	227.14
873.09	227.16
873.40	227.15
873.71	227.14
874.02	227.15
874.33	227.14
874.64	227.11
874.95	227.14
875.26	227.10
875.56	227.09
875.87	227.08
876.18	227.09
876.49	227.19
876.80	227.19
877.11	227.16
877.42	227.17
877.73	227.17
878.04	227.14
878.35	227.14
878.66	227.15
878.96	227.15
879.27	227.16
879.58	227.14
879.89	227.15
880.20	227.19
880.51	227.19
880.82	227.20
881.12	227.20
881.43	227.17
881.74	227.17
882.05	227.19
882.36	227.20
882.67	227.21
882.97	227.08
883.28	227.06
883.59	227.05
883.90	227.06
884.21	227.09
884.51	227.09
884.82	227.05
885.13	227.05
885.44	227.06
885.74	227.05
886.05	227.03
886.36	227.02
886.67	226.98
886.98	227.03
887.28	227.03
887.59	227.04
887.90	227.03
888.20	227.03
888.51	227.05
888.82	227.02
889.13	227.03
889.43	227.14
889.74	227.13
890.05	227.14
890.35	227.13
890.66	227.11
890.97	227.09
891.28	227.09
891.58	227.09
891.89	227.07
892.20	227.07
892.50	227.07
892.81	227.06
893.12	227.05
893.42	226.99
893.73	227.00
894.04	226.99
894.34	227.00
894.65	227.00
894.95	226.98
895.26	226.97
895.57	227.03
895.87	226.91
896.18	226.94
896.48	226.94
896.79	226.94
897.10	226.95
897.40	226.97
897.71	226.98
898.01	226.97
898.32	226.99
898.63	226.97
898.93	227.00
899.24	227.01
899.54	227.01
899.85	227.00
900.15	227.00
900.46	227.00
900.76	227.02
901.07	227.02
901.38	227.02
901.68	227.02
901.99	226.95
902.29	226.95
902.60	226.94
902.90	226.93
903.21	226.91
903.51	226.90
903.82	226.94
904.12	226.94
904.43	226.94
904.73	226.92
905.03	226.94
905.34	227.05
905.64	227.03
905.95	227.03
906.25	227.02
906.56	227.02
906.86	227.01
907.17	226.99
907.47	227.00
907.77	226.98
908.08	226.96
908.38	226.97
908.69	226.98
908.99	227.00
909.30	227.02
909.60	227.03
909.90	227.04
910.21	226.98
910.51	226.96
910.81	226.98
911.12	227.00
911.42	226.99
911.73	226.86
912.03	226.87
912.33	226.91
912.64	226.90
912.94	226.89
913.24	226.87
913.55	226.86
913.85	226.85
914.15	226.89
914.46	226.90
914.76	226.89
915.06	226.88
915.37	226.84
915.67	226.84
915.97	226.84
916.27	226.81
916.58	226.82
916.88	226.82
917.18	226.79
917.49	226.86
917.79	226.85
918.09	226.87
918.39	226.90
918.70	226.88
919.00	226.90
919.30	226.96
919.60	226.96
919.91	226.96
920.21	226.96
920.51	226.93
920.81	226.92
921.12	226.95
921.42	226.94
921.72	226.95
922.02	226.95
922.32	226.96
922.63	226.96
922.93	227.03
923.23	227.03
923.53	227.04
923.83	226.96
924.13	226.99
924.44	226.99
924.74	227.00
925.04	227.04
925.34	227.04
925.64	226.99
925.94	226.99
926.24	227.06
926.55	227.06
926.85	227.07
927.15	227.07
927.45	227.06
927.75	227.06
928.05	227.08
928.35	227.06
928.65	227.08
928.95	227.10
929.26	227.05
929.56	227.06
929.86	227.07
930.16	227.06
930.46	227.05
930.76	227.04
931.06	226.99
931.36	226.94
931.66	226.95
931.96	226.97
932.26	226.97
932.56	226.90
932.86	226.91
933.16	226.90
933.46	226.90
933.76	226.90
934.06	226.92
934.36	226.94
934.66	226.95
934.96	226.93
935.26	226.93
935.56	226.93
935.86	226.91
936.16	226.88
936.46	226.87
936.76	226.86
937.06	226.84
937.36	226.84
937.66	226.86
937.96	226.86
938.26	226.81
938.56	226.80
938.86	226.81
939.16	226.82
939.46	226.83
939.76	226.83
940.06	226.83
940.35	226.79
940.65	226.73
940.95	226.74
941.25	226.72
941.55	226.71
941.85	226.71
942.15	226.72
942.45	226.78
942.75	226.78
943.04	226.77
943.34	226.81
943.64	226.81
943.94	226.78
944.24	226.76
944.54	226.78
944.84	226.78
945.13	226.75
945.43	226.75
945.73	226.74
946.03	226.71
946.33	226.69
946.62	226.70
946.92	226.70
947.22	226.70
947.52	226.71
947.82	226.72
948.11	226.71
948.41	226.69
948.71	226.65
949.01	226.66
949.31	226.65
949.60	226.64
949.90	226.64
950.20	226.64
950.50	226.65
950.79	226.64
951.09	226.66
951.39	226.68
951.69	226.66
951.98	226.69
952.28	226.71
952.58	226.71
952.87	226.72
953.17	226.74
953.47	226.72
953.76	226.71
954.06	226.68
954.36	226.68
954.66	226.68
954.95	226.72
955.25	226.73
955.55	226.73
955.84	226.71
956.14	226.73
956.44	226.73
956.73	226.71
957.03	226.72
957.32	226.71
957.62	226.70
957.92	226.73
958.21	226.72
958.51	226.85
958.81	226.86
959.10	226.86
959.40	226.89
959.69	226.89
959.99	226.89
960.29	226.91
960.58	226.91
960.88	226.95
961.17	226.94
961.47	226.94
961.76	226.93
962.06	226.95
962.36	226.92
962.65	226.93
962.95	226.94
963.24	226.93
963.54	226.93
963.83	226.95
964.13	226.93
964.42	226.90
964.72	226.81
965.01	226.81
965.31	226.80
965.60	226.77
965.90	226.86
966.19	226.84
966.49	226.84
966.78	226.83
967.08	226.80
967.37	226.79
967.67	226.79
967.96	226.82
968.26	226.81
968.55	226.84
968.85	226.84
969.14	226.84
969.43	226.83
969.73	226.82
970.02	226.80
970.32	226.78
970.61	226.79
970.91	226.74
971.20	226.72
971.49	226.71
971.79	226.72
972.08	226.63
972.38	226.64
972.67	226.64
972.96	226.66
973.26	226.64
973.55	226.67
973.85	226.66
974.14	226.63
974.43	226.65
974.73	226.62
975.02	226.60
975.31	226.59
975.61	226.60
975.90	226.59
976.19	226.60
976.49	226.60
976.78	226.61
977.07	226.60
977.37	226.62
977.66	226.64
977.95	226.62
978.24	226.62
978.54	226.63
978.83	226.63
979.12	226.62
979.42	226.62
979.71	226.60
980.00	226.60
980.29	226.61
980.59	226.58
980.88	226.61
981.17	226.62
981.46	226.63
981.76	226.63
982.05	226.67
982.34	226.66
982.63	226.66
982.93	226.67
983.22	226.70
983.51	226.70
983.80	226.72
984.09	226.73
984.39	226.73
984.68	226.72
984.97	226.71
985.26	226.70
985.55	226.71
985.85	226.69
986.14	226.70
986.43	226.72
986.72	226.71
987.01	226.68
987.30	226.68
987.59	226.67
987.89	226.67
988.18	226.64
988.47	226.65
988.76	226.64
989.05	226.62
989.34	226.60
989.63	226.64
989.92	226.62
990.22	226.61
990.51	226.61
990.80	226.60
991.09	226.63
991.38	226.65
991.67	226.65
991.96	226.67
992.25	226.67
992.54	226.67
992.83	226.67
993.12	226.66
993.41	226.68
993.70	226.73
993.99	226.77
994.28	226.79
994.58	226.80
994.87	226.80
995.16	226.82
995.45	226.82
995.74	226.77
996.03	226.81
996.32	226.84
996.61	226.86
996.90	226.87
997.19	226.87
997.48	226.87
997.77	226.84
998.06	226.85
998.34	226.85
998.63	226.84
998.92	226.85
999.21	226.87
999.50	226.87
999.79	226.83
1000.08	226.81
1000.37	226.82
1000.66	226.81
1000.95	226.83
1001.24	226.83
1001.53	226.84
1001.82	226.84
1002.11	226.79
1002.40	226.80
1002.68	226.82
1002.97	226.91
1003.26	226.88
1003.55	226.86
1003.84	226.88
1004.13	226.90
1004.42	226.89
1004.71	226.87
1004.99	226.86
1005.28	226.90
1005.57	226.87
1005.86	226.86
1006.15	226.85
1006.44	226.81
1006.72	226.82
1007.01	226.80
1007.30	226.81
1007.59	226.79
1007.88	226.81
1008.17	226.84
1008.45	226.81
1008.74	226.75
1009.03	226.69
1009.32	226.70
1009.60	226.70
1009.89	226.68
1010.18	226.64
1010.47	226.63
1010.76	226.64
1011.04	226.64
1011.33	226.63
1011.62	226.65
1011.91	226.67
1012.19	226.67
1012.48	226.68
1012.77	226.68
1013.05	226.74
1013.34	226.72
1013.63	226.71
1013.92	226.71
1014.20	226.69
1014.49	226.70
1014.78	226.71
1015.06	226.66
1015.35	226.66
1015.64	226.67
1015.92	226.68
1016.21	226.68
1016.50	226.69
1016.78	226.70
1017.07	226.71
1017.36	226.70
1017.64	226.67
1017.93	226.68
1018.22	226.67
1018.50	226.66
1018.79	226.66
1019.08	226.61
1019.36	226.61
1019.65	226.60
1019.93	226.63
1020.22	226.64
1020.51	226.68
1020.79	226.67
1021.08	226.48
1021.36	226.34
1021.65	226.79
1021.94	226.67
1022.22	226.49
1022.51	226.40
1022.79	227.26
1023.08	226.73
1023.36	227.89
1023.65	226.34
>>>>>End Processed Spectral Data<<<<<
