SpectraSuite Data File
++++++++++++++++++++++++++++++++++++
Date: Fri Oct 02 16:48:42 EDT 2015
User: lab3
Dark Spectrum Present: No
Reference Spectrum Present: No
Number of Sampled Component Spectra: 1
Spectrometers: USB2E7196
Integration Time (usec): 46000 (USB2E7196)
Spectra Averaged: 1200 (USB2E7196)
Boxcar Smoothing: 10 (USB2E7196)
Correct for Electrical Dark: No (USB2E7196)
Strobe/Lamp Enabled: No (USB2E7196)
Correct for Detector Non-linearity: No (USB2E7196)
Correct for Stray Light: No (USB2E7196)
Number of Pixels in Processed Spectrum: 2048
>>>>>Begin Processed Spectral Data<<<<<
339.09	0.00
339.48	214.51
339.86	216.09
340.24	217.07
340.63	218.74
341.01	221.96
341.39	221.47
341.78	222.79
342.16	224.08
342.54	224.43
342.93	212.89
343.31	223.64
343.69	224.17
344.07	224.62
344.46	225.06
344.84	225.45
345.22	225.67
345.60	225.93
345.99	226.12
346.37	226.24
346.75	226.35
347.13	226.42
347.52	226.50
347.90	226.58
348.28	226.62
348.66	226.67
349.05	226.68
349.43	226.72
349.81	226.76
350.19	226.81
350.57	226.87
350.96	226.95
351.34	227.05
351.72	227.15
352.10	227.26
352.48	227.34
352.87	227.38
353.25	227.45
353.63	227.50
354.01	227.56
354.39	227.64
354.77	227.71
355.15	227.82
355.54	227.87
355.92	227.90
356.30	227.98
356.68	228.13
357.06	228.20
357.44	228.25
357.82	228.31
358.20	228.43
358.58	228.49
358.97	228.56
359.35	228.63
359.73	228.71
360.11	228.76
360.49	228.81
360.87	228.86
361.25	228.93
361.63	229.01
362.01	229.07
362.39	229.10
362.77	229.14
363.15	229.16
363.53	229.19
363.91	229.23
364.29	229.24
364.67	229.14
365.05	229.17
365.43	229.20
365.81	229.24
366.19	229.25
366.57	229.31
366.95	229.31
367.33	229.29
367.71	229.27
368.09	229.30
368.47	229.29
368.85	229.28
369.23	229.28
369.61	229.21
369.99	229.23
370.37	229.22
370.75	229.30
371.13	229.26
371.51	229.22
371.89	229.20
372.27	229.17
372.65	229.14
373.03	229.10
373.41	229.05
373.78	228.99
374.16	228.88
374.54	228.79
374.92	228.75
375.30	228.70
375.68	228.63
376.06	228.57
376.44	228.51
376.82	228.46
377.19	228.41
377.57	228.36
377.95	228.28
378.33	228.22
378.71	228.06
379.09	228.01
379.47	227.98
379.84	227.92
380.22	227.86
380.60	227.79
380.98	227.75
381.36	227.70
381.73	227.65
382.11	227.63
382.49	227.60
382.87	227.54
383.25	227.49
383.62	227.60
384.00	227.54
384.38	227.51
384.76	227.50
385.13	227.51
385.51	227.47
385.89	227.40
386.27	227.37
386.64	227.35
387.02	227.31
387.40	227.26
387.78	227.24
388.15	227.21
388.53	227.18
388.91	227.15
389.29	227.11
389.66	227.11
390.04	227.06
390.42	227.06
390.79	227.04
391.17	227.03
391.55	226.88
391.92	226.87
392.30	226.86
392.68	226.82
393.05	226.80
393.43	226.80
393.81	226.82
394.18	226.80
394.56	226.81
394.94	226.83
395.31	226.82
395.69	226.86
396.06	226.89
396.44	226.92
396.82	226.93
397.19	227.02
397.57	227.02
397.95	227.06
398.32	227.06
398.70	227.10
399.07	227.17
399.45	227.19
399.82	227.23
400.20	227.27
400.58	227.34
400.95	227.34
401.33	227.43
401.70	227.58
402.08	227.68
402.45	227.77
402.83	227.88
403.20	227.99
403.58	228.08
403.95	228.23
404.33	228.37
404.71	228.51
405.08	228.72
405.46	228.89
405.83	229.07
406.21	229.26
406.58	229.49
406.96	229.70
407.33	229.96
407.70	230.25
408.08	230.64
408.45	230.97
408.83	231.35
409.20	231.67
409.58	231.97
409.95	232.38
410.33	232.83
410.70	233.25
411.08	233.75
411.45	234.27
411.82	234.80
412.20	235.40
412.57	236.12
412.95	236.68
413.32	237.42
413.69	238.17
414.07	238.98
414.44	239.85
414.82	240.74
415.19	241.77
415.56	242.82
415.94	243.90
416.31	245.12
416.68	246.33
417.06	247.75
417.43	249.07
417.81	250.60
418.18	252.17
418.55	253.88
418.93	255.64
419.30	257.50
419.67	259.47
420.04	261.49
420.42	263.59
420.79	266.03
421.16	268.50
421.54	271.01
421.91	273.61
422.28	276.31
422.66	279.23
423.03	282.02
423.40	284.95
423.77	288.09
424.15	291.30
424.52	294.67
424.89	298.29
425.26	301.91
425.64	305.26
426.01	309.01
426.38	312.86
426.75	316.83
427.13	320.92
427.50	325.19
427.87	329.61
428.24	334.11
428.61	338.42
428.99	343.07
429.36	348.18
429.73	353.08
430.10	357.98
430.47	363.00
430.85	368.16
431.22	373.70
431.59	379.40
431.96	384.96
432.33	391.14
432.70	397.04
433.08	403.98
433.45	410.57
433.82	417.06
434.19	424.31
434.56	431.45
434.93	438.35
435.30	445.18
435.68	452.90
436.05	460.45
436.42	467.98
436.79	474.87
437.16	482.28
437.53	490.24
437.90	498.20
438.27	505.97
438.64	514.38
439.01	521.99
439.38	528.96
439.75	535.65
440.13	543.21
440.50	550.39
440.87	556.09
441.24	562.32
441.61	569.11
441.98	574.04
442.35	579.88
442.72	585.84
443.09	591.49
443.46	595.03
443.83	597.61
444.20	599.73
444.57	602.93
444.94	604.68
445.31	606.48
445.68	607.95
446.05	608.99
446.42	608.43
446.79	607.68
447.16	606.98
447.53	606.32
447.90	603.70
448.27	601.15
448.64	597.42
449.01	594.77
449.37	589.70
449.74	585.11
450.11	579.27
450.48	572.89
450.85	566.52
451.22	561.07
451.59	555.72
451.96	550.89
452.33	543.96
452.70	537.80
453.07	530.34
453.43	522.93
453.80	515.74
454.17	508.85
454.54	502.52
454.91	495.38
455.28	488.73
455.65	482.44
456.02	475.85
456.38	470.53
456.75	463.69
457.12	458.18
457.49	452.64
457.86	447.42
458.23	442.87
458.59	437.83
458.96	432.67
459.33	428.15
459.70	423.54
460.07	420.04
460.43	415.93
460.80	412.11
461.17	408.78
461.54	405.17
461.91	401.81
462.27	398.40
462.64	395.67
463.01	392.49
463.38	389.29
463.74	386.40
464.11	383.86
464.48	381.58
464.85	379.10
465.21	377.24
465.58	375.17
465.95	372.74
466.32	370.84
466.68	368.96
467.05	367.08
467.42	365.24
467.78	363.24
468.15	361.42
468.52	360.08
468.88	358.26
469.25	356.61
469.62	355.31
469.98	353.89
470.35	352.59
470.72	351.44
471.08	350.27
471.45	349.28
471.82	348.18
472.18	347.03
472.55	346.28
472.92	345.32
473.28	344.57
473.65	343.77
474.02	343.00
474.38	342.37
474.75	342.01
475.11	341.51
475.48	341.28
475.85	341.03
476.21	340.90
476.58	340.83
476.94	340.98
477.31	341.05
477.67	341.15
478.04	341.38
478.41	341.69
478.77	342.13
479.14	342.40
479.50	342.94
479.87	343.60
480.23	344.28
480.60	344.94
480.96	345.62
481.33	346.64
481.69	347.62
482.06	348.61
482.42	349.51
482.79	350.61
483.15	351.91
483.52	353.39
483.88	354.81
484.25	356.33
484.61	357.90
484.98	359.62
485.34	361.55
485.71	363.55
486.07	365.69
486.44	367.84
486.80	370.23
487.17	372.71
487.53	375.44
487.90	378.27
488.26	381.38
488.62	384.66
488.99	387.92
489.35	391.36
489.72	395.08
490.08	399.01
490.44	403.06
490.81	407.26
491.17	411.58
491.54	416.20
491.90	420.98
492.26	426.10
492.63	431.45
492.99	437.05
493.36	442.83
493.72	448.93
494.08	455.17
494.45	461.81
494.81	468.67
495.17	475.71
495.54	483.16
495.90	490.90
496.26	498.82
496.63	506.99
496.99	515.47
497.35	524.33
497.72	533.47
498.08	542.84
498.44	552.53
498.80	562.79
499.17	573.31
499.53	584.13
499.89	595.34
500.26	606.74
500.62	618.41
500.98	630.74
501.34	643.24
501.71	656.24
502.07	669.43
502.43	683.16
502.79	697.12
503.16	711.53
503.52	726.13
503.88	741.12
504.24	756.57
504.60	772.23
504.97	788.40
505.33	804.96
505.69	822.40
506.05	840.15
506.41	857.81
506.78	875.65
507.14	894.02
507.50	912.79
507.86	931.91
508.22	951.28
508.59	970.48
508.95	990.44
509.31	1011.09
509.67	1032.46
510.03	1053.80
510.39	1075.16
510.75	1096.70
511.12	1118.49
511.48	1140.48
511.84	1162.49
512.20	1184.84
512.56	1208.03
512.92	1231.21
513.28	1253.99
513.64	1276.99
514.00	1300.36
514.37	1324.07
514.73	1347.73
515.09	1371.27
515.45	1395.13
515.81	1419.12
516.17	1443.18
516.53	1466.75
516.89	1490.19
517.25	1513.76
517.61	1537.23
517.97	1561.13
518.33	1584.49
518.69	1607.77
519.05	1631.50
519.41	1655.46
519.77	1679.66
520.13	1703.04
520.49	1726.39
520.85	1749.99
521.21	1773.16
521.57	1796.77
521.93	1819.81
522.29	1843.32
522.65	1866.27
523.01	1889.16
523.37	1911.63
523.73	1934.79
524.09	1957.69
524.45	1980.35
524.81	2002.57
525.17	2024.53
525.53	2045.94
525.89	2067.74
526.25	2089.52
526.61	2110.26
526.97	2131.13
527.33	2151.83
527.68	2172.31
528.04	2191.97
528.40	2210.72
528.76	2229.65
529.12	2248.05
529.48	2266.13
529.84	2282.47
530.20	2299.39
530.56	2315.68
530.91	2332.08
531.27	2348.18
531.63	2363.43
531.99	2378.23
532.35	2392.40
532.71	2406.70
533.07	2421.51
533.42	2434.59
533.78	2448.58
534.14	2462.80
534.50	2476.07
534.86	2489.14
535.21	2500.30
535.57	2511.93
535.93	2523.36
536.29	2533.67
536.65	2543.87
537.00	2553.36
537.36	2563.70
537.72	2572.62
538.08	2581.05
538.44	2588.87
538.79	2596.26
539.15	2602.83
539.51	2609.11
539.87	2614.70
540.22	2618.43
540.58	2622.30
540.94	2627.35
541.29	2630.86
541.65	2632.65
542.01	2633.77
542.37	2634.23
542.72	2636.00
543.08	2636.19
543.44	2636.90
543.79	2636.61
544.15	2635.44
544.51	2634.73
544.87	2632.91
545.22	2630.46
545.58	2627.34
545.94	2624.25
546.29	2619.82
546.65	2615.50
547.01	2611.08
547.36	2607.28
547.72	2603.66
548.07	2598.41
548.43	2591.71
548.79	2584.21
549.14	2577.87
549.50	2571.82
549.86	2564.88
550.21	2556.91
550.57	2549.71
550.92	2540.43
551.28	2531.69
551.64	2523.27
551.99	2514.44
552.35	2505.08
552.70	2495.98
553.06	2487.24
553.41	2477.87
553.77	2468.40
554.13	2458.76
554.48	2448.39
554.84	2436.91
555.19	2425.91
555.55	2414.97
555.90	2404.13
556.26	2393.75
556.61	2382.32
556.97	2369.37
557.32	2356.98
557.68	2344.53
558.03	2331.89
558.39	2320.34
558.74	2309.12
559.10	2296.35
559.45	2283.70
559.81	2271.66
560.16	2259.08
560.52	2246.69
560.87	2234.61
561.23	2221.78
561.58	2209.11
561.94	2196.11
562.29	2182.62
562.64	2169.82
563.00	2156.62
563.35	2143.96
563.71	2131.03
564.06	2118.09
564.42	2105.83
564.77	2093.02
565.12	2080.13
565.48	2067.27
565.83	2054.40
566.19	2041.64
566.54	2028.84
566.89	2015.06
567.25	2001.40
567.60	1988.97
567.96	1975.80
568.31	1961.37
568.66	1947.60
569.02	1934.92
569.37	1922.18
569.72	1909.99
570.08	1896.55
570.43	1882.85
570.78	1868.89
571.14	1854.45
571.49	1840.64
571.84	1827.35
572.20	1812.96
572.55	1798.78
572.90	1784.56
573.26	1770.33
573.61	1755.66
573.96	1741.42
574.31	1727.39
574.67	1713.45
575.02	1698.51
575.37	1683.65
575.72	1669.69
576.08	1656.03
576.43	1641.34
576.78	1627.11
577.13	1613.06
577.49	1599.43
577.84	1586.34
578.19	1572.47
578.54	1558.73
578.90	1544.52
579.25	1530.24
579.60	1517.43
579.95	1504.52
580.30	1491.41
580.66	1478.13
581.01	1464.77
581.36	1451.41
581.71	1438.99
582.06	1426.51
582.42	1414.30
582.77	1402.12
583.12	1389.90
583.47	1377.56
583.82	1365.34
584.17	1352.76
584.53	1339.94
584.88	1327.45
585.23	1314.61
585.58	1302.51
585.93	1290.58
586.28	1279.37
586.63	1268.14
586.98	1256.49
587.34	1244.93
587.69	1233.16
588.04	1221.65
588.39	1210.53
588.74	1199.56
589.09	1188.39
589.44	1176.82
589.79	1165.82
590.14	1154.97
590.49	1144.04
590.84	1133.26
591.19	1122.82
591.54	1112.27
591.89	1101.86
592.25	1091.64
592.60	1081.11
592.95	1070.93
593.30	1060.95
593.65	1050.72
594.00	1040.58
594.35	1030.99
594.70	1020.97
595.05	1011.75
595.40	1002.48
595.75	993.08
596.10	984.13
596.45	974.95
596.80	966.10
597.15	957.06
597.50	948.14
597.85	939.58
598.19	930.88
598.54	922.25
598.89	913.98
599.24	906.03
599.59	897.87
599.94	890.59
600.29	883.14
600.64	875.45
600.99	867.41
601.34	859.74
601.69	851.69
602.04	844.35
602.39	836.83
602.74	829.39
603.08	821.91
603.43	814.41
603.78	807.08
604.13	799.90
604.48	792.67
604.83	785.62
605.18	778.50
605.53	771.54
605.87	764.40
606.22	757.57
606.57	750.65
606.92	743.70
607.27	736.64
607.62	729.87
607.96	723.46
608.31	717.48
608.66	711.32
609.01	705.43
609.36	699.62
609.70	693.64
610.05	687.61
610.40	681.85
610.75	676.05
611.10	670.55
611.44	664.89
611.79	659.37
612.14	653.78
612.49	648.27
612.83	643.01
613.18	637.89
613.53	632.70
613.88	627.53
614.22	622.74
614.57	617.90
614.92	612.90
615.27	607.99
615.61	603.15
615.96	598.37
616.31	593.57
616.65	588.84
617.00	584.28
617.35	579.83
617.70	575.42
618.04	571.09
618.39	566.68
618.74	562.50
619.08	558.34
619.43	554.31
619.78	550.29
620.12	546.23
620.47	542.33
620.82	538.50
621.16	534.72
621.51	530.83
621.85	526.98
622.20	523.30
622.55	519.64
622.89	516.03
623.24	512.43
623.59	508.88
623.93	505.47
624.28	502.15
624.62	498.92
624.97	495.71
625.32	492.47
625.66	489.20
626.01	485.90
626.35	482.65
626.70	479.43
627.04	476.39
627.39	473.30
627.73	470.35
628.08	467.48
628.43	464.61
628.77	461.80
629.12	459.11
629.46	456.42
629.81	453.67
630.15	450.91
630.50	448.24
630.84	445.61
631.19	443.03
631.53	440.56
631.88	438.04
632.22	435.54
632.57	433.29
632.91	431.07
633.26	428.94
633.60	426.84
633.95	424.79
634.29	422.65
634.64	420.58
634.98	418.33
635.32	416.21
635.67	414.25
636.01	412.23
636.36	410.24
636.70	408.41
637.05	406.56
637.39	404.75
637.73	402.96
638.08	401.27
638.42	399.55
638.77	397.72
639.11	395.81
639.45	394.00
639.80	392.14
640.14	390.36
640.49	388.56
640.83	386.73
641.17	384.99
641.52	383.28
641.86	381.60
642.20	380.11
642.55	378.47
642.89	376.86
643.23	375.32
643.58	373.93
643.92	372.42
644.26	370.93
644.61	369.51
644.95	368.05
645.29	366.52
645.64	365.01
645.98	363.57
646.32	362.26
646.66	360.92
647.01	359.58
647.35	358.31
647.69	357.02
648.04	355.85
648.38	354.61
648.72	353.39
649.06	352.16
649.41	350.93
649.75	349.76
650.09	348.59
650.43	347.44
650.78	346.24
651.12	345.06
651.46	343.94
651.80	342.84
652.14	341.76
652.49	340.73
652.83	339.67
653.17	338.66
653.51	337.65
653.85	336.71
654.20	335.72
654.54	334.65
654.88	333.66
655.22	332.69
655.56	331.70
655.90	330.77
656.25	329.88
656.59	328.97
656.93	328.13
657.27	327.28
657.61	326.37
657.95	325.51
658.29	324.62
658.64	323.80
658.98	322.95
659.32	322.14
659.66	321.37
660.00	320.61
660.34	319.85
660.68	319.07
661.02	318.26
661.36	317.48
661.70	316.73
662.05	316.00
662.39	315.27
662.73	314.61
663.07	313.97
663.41	313.28
663.75	312.58
664.09	311.86
664.43	311.13
664.77	310.48
665.11	309.77
665.45	309.14
665.79	308.50
666.13	307.83
666.47	307.13
666.81	306.42
667.15	305.70
667.49	305.08
667.83	304.50
668.17	303.88
668.51	303.32
668.85	302.78
669.19	302.27
669.53	301.67
669.87	301.06
670.21	300.46
670.55	299.89
670.89	299.39
671.23	298.84
671.57	298.30
671.91	297.82
672.25	297.36
672.58	296.89
672.92	296.34
673.26	295.87
673.60	295.41
673.94	294.96
674.28	294.55
674.62	294.08
674.96	293.56
675.30	293.11
675.64	292.62
675.97	292.10
676.31	291.56
676.65	291.08
676.99	290.65
677.33	290.15
677.67	289.70
678.01	289.17
678.34	288.72
678.68	288.30
679.02	287.80
679.36	287.32
679.70	286.85
680.04	286.43
680.37	285.99
680.71	285.57
681.05	285.15
681.39	284.69
681.73	284.21
682.06	283.75
682.40	283.31
682.74	282.92
683.08	282.57
683.42	282.16
683.75	281.79
684.09	281.34
684.43	280.94
684.77	280.52
685.10	280.16
685.44	279.76
685.78	279.37
686.12	279.01
686.45	278.61
686.79	278.19
687.13	277.81
687.46	277.37
687.80	276.98
688.14	276.55
688.48	276.17
688.81	275.78
689.15	275.44
689.49	275.05
689.82	274.65
690.16	274.18
690.50	273.81
690.83	273.42
691.17	273.03
691.51	272.66
691.84	272.31
692.18	271.89
692.52	271.50
692.85	271.11
693.19	270.76
693.52	270.39
693.86	270.02
694.20	269.65
694.53	269.30
694.87	268.93
695.21	268.57
695.54	268.21
695.88	267.84
696.21	267.43
696.55	267.08
696.88	266.74
697.22	266.40
697.56	266.04
697.89	265.66
698.23	265.31
698.56	264.93
698.90	264.57
699.23	264.21
699.57	263.85
699.90	263.50
700.24	263.12
700.58	262.80
700.91	262.50
701.25	262.27
701.58	262.00
701.92	261.71
702.25	261.39
702.59	261.07
702.92	260.76
703.26	260.45
703.59	260.13
703.93	259.90
704.26	259.61
704.60	259.28
704.93	258.96
705.26	258.64
705.60	258.39
705.93	258.05
706.27	257.79
706.60	257.53
706.94	257.29
707.27	256.97
707.61	256.67
707.94	256.35
708.27	255.93
708.61	255.58
708.94	255.28
709.28	255.00
709.61	254.71
709.94	254.44
710.28	254.18
710.61	253.94
710.95	253.58
711.28	253.39
711.61	253.13
711.95	252.91
712.28	252.64
712.61	252.36
712.95	252.19
713.28	252.01
713.61	251.74
713.95	251.44
714.28	251.22
714.61	250.97
714.95	250.73
715.28	250.51
715.61	250.29
715.95	250.08
716.28	249.86
716.61	249.67
716.95	249.43
717.28	249.21
717.61	248.96
717.94	248.75
718.28	248.44
718.61	248.21
718.94	247.97
719.27	247.77
719.61	247.59
719.94	247.35
720.27	247.07
720.60	246.85
720.94	246.65
721.27	246.45
721.60	246.29
721.93	246.09
722.27	245.93
722.60	245.75
722.93	245.54
723.26	245.35
723.59	245.12
723.93	244.96
724.26	244.79
724.59	244.60
724.92	244.44
725.25	244.32
725.59	244.15
725.92	244.01
726.25	243.84
726.58	243.66
726.91	243.49
727.24	243.33
727.57	243.18
727.91	243.01
728.24	242.87
728.57	242.70
728.90	242.56
729.23	242.37
729.56	242.26
729.89	242.11
730.22	241.94
730.55	241.80
730.89	241.64
731.22	241.48
731.55	241.33
731.88	241.19
732.21	241.02
732.54	240.87
732.87	240.73
733.20	240.60
733.53	240.47
733.86	240.33
734.19	240.19
734.52	240.07
734.85	240.03
735.18	239.86
735.51	239.76
735.84	239.63
736.17	239.54
736.50	239.34
736.83	239.36
737.16	239.25
737.49	239.13
737.82	239.02
738.15	238.92
738.48	238.80
738.81	238.67
739.14	238.54
739.47	238.41
739.80	238.27
740.13	238.15
740.46	238.02
740.79	237.89
741.12	237.76
741.45	237.63
741.78	237.44
742.11	237.36
742.44	237.22
742.77	237.12
743.10	236.98
743.43	236.86
743.75	236.62
744.08	236.71
744.41	236.61
744.74	236.49
745.07	236.36
745.40	236.27
745.73	236.22
746.06	236.13
746.39	236.05
746.71	235.95
747.04	235.85
747.37	235.76
747.70	235.69
748.03	235.61
748.36	235.55
748.68	235.46
749.01	235.34
749.34	235.25
749.67	235.16
750.00	235.09
750.33	235.11
750.65	235.02
750.98	234.74
751.31	234.64
751.64	234.57
751.97	234.55
752.29	234.46
752.62	234.32
752.95	234.21
753.28	234.11
753.60	234.03
753.93	233.98
754.26	233.92
754.59	233.79
754.91	233.70
755.24	233.60
755.57	233.58
755.90	233.50
756.22	233.41
756.55	233.31
756.88	233.21
757.20	233.05
757.53	232.94
757.86	232.86
758.19	232.79
758.51	232.71
758.84	232.58
759.17	232.50
759.49	232.44
759.82	232.42
760.15	232.38
760.47	232.30
760.80	232.19
761.13	232.14
761.45	232.08
761.78	232.02
762.11	231.97
762.43	231.84
762.76	231.78
763.08	231.74
763.41	231.70
763.74	231.64
764.06	231.59
764.39	231.54
764.71	231.50
765.04	231.44
765.37	231.37
765.69	231.33
766.02	231.28
766.34	231.22
766.67	231.13
767.00	231.10
767.32	231.13
767.65	231.16
767.97	231.10
768.30	231.06
768.62	231.02
768.95	230.95
769.27	230.90
769.60	230.87
769.92	230.80
770.25	230.74
770.57	230.67
770.90	230.62
771.22	230.56
771.55	230.52
771.87	230.48
772.20	230.43
772.52	230.49
772.85	230.60
773.17	230.57
773.50	230.52
773.82	230.45
774.15	230.34
774.47	230.23
774.80	230.18
775.12	230.13
775.45	230.10
775.77	230.08
776.09	230.05
776.42	230.02
776.74	230.01
777.07	229.98
777.39	229.97
777.72	229.92
778.04	229.91
778.36	229.87
778.69	229.85
779.01	229.84
779.33	229.70
779.66	229.53
779.98	229.50
780.31	229.48
780.63	229.50
780.95	229.51
781.28	229.49
781.60	229.46
781.92	229.43
782.25	229.40
782.57	229.36
782.89	229.33
783.22	229.29
783.54	229.25
783.86	229.23
784.19	229.19
784.51	229.21
784.83	229.18
785.16	229.15
785.48	229.12
785.80	229.10
786.12	229.08
786.45	229.06
786.77	229.05
787.09	229.02
787.42	228.96
787.74	228.93
788.06	228.90
788.38	228.88
788.71	228.85
789.03	228.84
789.35	228.84
789.67	228.81
789.99	228.80
790.32	228.76
790.64	228.75
790.96	228.85
791.28	228.79
791.61	228.76
791.93	228.75
792.25	228.72
792.57	228.79
792.89	228.75
793.21	228.74
793.54	228.71
793.86	228.67
794.18	228.66
794.50	228.63
794.82	228.62
795.14	228.61
795.47	228.62
795.79	228.60
796.11	228.56
796.43	228.54
796.75	228.52
797.07	228.52
797.39	228.49
797.71	228.36
798.04	228.36
798.36	228.36
798.68	228.35
799.00	228.34
799.32	228.26
799.64	228.25
799.96	228.23
800.28	228.25
800.60	228.22
800.92	228.21
801.24	228.19
801.56	228.17
801.89	228.15
802.21	228.14
802.53	228.10
802.85	228.12
803.17	228.17
803.49	228.12
803.81	228.10
804.13	228.08
804.45	228.06
804.77	228.05
805.09	228.02
805.41	228.00
805.73	227.97
806.05	227.92
806.37	227.90
806.69	227.87
807.01	227.84
807.33	227.84
807.65	227.79
807.97	227.83
808.28	227.81
808.60	227.79
808.92	227.77
809.24	227.84
809.56	227.81
809.88	227.75
810.20	227.74
810.52	227.76
810.84	227.72
811.16	227.70
811.48	227.68
811.80	227.72
812.12	227.71
812.43	227.72
812.75	227.71
813.07	227.69
813.39	227.69
813.71	227.66
814.03	227.65
814.35	227.65
814.67	227.59
814.98	227.57
815.30	227.55
815.62	227.51
815.94	227.41
816.26	227.42
816.58	227.38
816.89	227.41
817.21	227.36
817.53	227.37
817.85	227.37
818.17	227.36
818.48	227.29
818.80	227.30
819.12	227.27
819.44	227.24
819.76	227.23
820.07	227.22
820.39	227.21
820.71	227.22
821.03	227.21
821.34	227.20
821.66	227.22
821.98	227.23
822.30	227.22
822.61	227.29
822.93	227.25
823.25	227.25
823.57	227.22
823.88	227.24
824.20	227.22
824.52	227.24
824.83	227.23
825.15	227.21
825.47	227.20
825.79	227.22
826.10	227.20
826.42	227.19
826.74	227.19
827.05	227.19
827.37	227.18
827.69	227.17
828.00	227.17
828.32	227.15
828.64	227.12
828.95	227.18
829.27	227.15
829.58	227.15
829.90	227.16
830.22	227.16
830.53	227.14
830.85	227.12
831.17	227.08
831.48	227.08
831.80	227.08
832.11	227.07
832.43	227.04
832.75	227.05
833.06	227.12
833.38	227.08
833.69	227.06
834.01	227.06
834.32	227.06
834.64	227.04
834.96	227.05
835.27	227.05
835.59	226.99
835.90	226.98
836.22	226.97
836.53	226.95
836.85	226.93
837.16	227.05
837.48	227.05
837.79	227.09
838.11	227.09
838.42	227.09
838.74	227.11
839.05	227.09
839.37	227.08
839.68	227.01
840.00	227.01
840.31	227.03
840.63	227.02
840.94	227.00
841.26	227.00
841.57	226.98
841.88	226.99
842.20	226.98
842.51	226.95
842.83	226.94
843.14	227.04
843.46	227.03
843.77	226.95
844.08	226.95
844.40	226.92
844.71	226.90
845.03	226.88
845.34	226.86
845.65	226.86
845.97	226.84
846.28	226.84
846.60	226.83
846.91	226.81
847.22	226.80
847.54	226.83
847.85	226.83
848.16	226.81
848.48	226.78
848.79	226.82
849.10	226.84
849.42	226.85
849.73	226.73
850.04	226.74
850.36	226.69
850.67	226.71
850.98	226.70
851.30	226.71
851.61	226.70
851.92	226.70
852.23	226.74
852.55	226.75
852.86	226.76
853.17	226.77
853.49	226.78
853.80	226.81
854.11	226.81
854.42	226.82
854.74	226.80
855.05	226.81
855.36	226.75
855.67	226.74
855.99	226.74
856.30	226.89
856.61	226.87
856.92	226.87
857.23	226.87
857.55	226.86
857.86	226.84
858.17	226.86
858.48	226.84
858.79	226.80
859.11	226.81
859.42	226.80
859.73	226.77
860.04	226.77
860.35	226.73
860.66	226.68
860.98	226.68
861.29	226.70
861.60	226.69
861.91	226.71
862.22	226.69
862.53	226.66
862.84	226.51
863.16	226.53
863.47	226.52
863.78	226.50
864.09	226.50
864.40	226.51
864.71	226.51
865.02	226.52
865.33	226.50
865.64	226.48
865.95	226.48
866.27	226.58
866.58	226.57
866.89	226.58
867.20	226.59
867.51	226.55
867.82	226.54
868.13	226.58
868.44	226.55
868.75	226.58
869.06	226.59
869.37	226.60
869.68	226.56
869.99	226.58
870.30	226.59
870.61	226.60
870.92	226.58
871.23	226.56
871.54	226.58
871.85	226.60
872.16	226.61
872.47	226.61
872.78	226.53
873.09	226.54
873.40	226.52
873.71	226.52
874.02	226.54
874.33	226.52
874.64	226.49
874.95	226.52
875.26	226.49
875.56	226.50
875.87	226.50
876.18	226.50
876.49	226.63
876.80	226.62
877.11	226.60
877.42	226.60
877.73	226.60
878.04	226.58
878.35	226.58
878.66	226.59
878.96	226.57
879.27	226.56
879.58	226.55
879.89	226.55
880.20	226.59
880.51	226.57
880.82	226.58
881.12	226.58
881.43	226.54
881.74	226.53
882.05	226.51
882.36	226.52
882.67	226.53
882.97	226.39
883.28	226.39
883.59	226.38
883.90	226.40
884.21	226.43
884.51	226.42
884.82	226.40
885.13	226.39
885.44	226.39
885.74	226.40
886.05	226.40
886.36	226.40
886.67	226.35
886.98	226.42
887.28	226.43
887.59	226.43
887.90	226.43
888.20	226.43
888.51	226.45
888.82	226.42
889.13	226.43
889.43	226.54
889.74	226.53
890.05	226.52
890.35	226.51
890.66	226.48
890.97	226.46
891.28	226.46
891.58	226.45
891.89	226.46
892.20	226.44
892.50	226.43
892.81	226.43
893.12	226.43
893.42	226.37
893.73	226.37
894.04	226.37
894.34	226.39
894.65	226.40
894.95	226.39
895.26	226.40
895.57	226.45
895.87	226.32
896.18	226.35
896.48	226.36
896.79	226.35
897.10	226.37
897.40	226.38
897.71	226.40
898.01	226.39
898.32	226.41
898.63	226.41
898.93	226.43
899.24	226.43
899.54	226.43
899.85	226.43
900.15	226.42
900.46	226.43
900.76	226.44
901.07	226.43
901.38	226.41
901.68	226.44
901.99	226.37
902.29	226.38
902.60	226.37
902.90	226.36
903.21	226.36
903.51	226.35
903.82	226.37
904.12	226.37
904.43	226.38
904.73	226.37
905.03	226.37
905.34	226.48
905.64	226.47
905.95	226.47
906.25	226.47
906.56	226.46
906.86	226.45
907.17	226.44
907.47	226.46
907.77	226.46
908.08	226.43
908.38	226.44
908.69	226.43
908.99	226.46
909.30	226.47
909.60	226.48
909.90	226.48
910.21	226.45
910.51	226.42
910.81	226.43
911.12	226.43
911.42	226.44
911.73	226.31
912.03	226.32
912.33	226.35
912.64	226.34
912.94	226.33
913.24	226.31
913.55	226.29
913.85	226.28
914.15	226.31
914.46	226.32
914.76	226.30
915.06	226.29
915.37	226.27
915.67	226.26
915.97	226.25
916.27	226.22
916.58	226.24
916.88	226.24
917.18	226.22
917.49	226.29
917.79	226.29
918.09	226.31
918.39	226.34
918.70	226.32
919.00	226.32
919.30	226.39
919.60	226.38
919.91	226.37
920.21	226.37
920.51	226.34
920.81	226.34
921.12	226.38
921.42	226.39
921.72	226.39
922.02	226.41
922.32	226.42
922.63	226.42
922.93	226.49
923.23	226.49
923.53	226.49
923.83	226.41
924.13	226.41
924.44	226.41
924.74	226.42
925.04	226.45
925.34	226.45
925.64	226.39
925.94	226.41
926.24	226.48
926.55	226.47
926.85	226.49
927.15	226.48
927.45	226.46
927.75	226.45
928.05	226.44
928.35	226.43
928.65	226.45
928.95	226.46
929.26	226.40
929.56	226.44
929.86	226.44
930.16	226.43
930.46	226.42
930.76	226.42
931.06	226.36
931.36	226.32
931.66	226.34
931.96	226.34
932.26	226.34
932.56	226.28
932.86	226.29
933.16	226.28
933.46	226.27
933.76	226.25
934.06	226.28
934.36	226.32
934.66	226.32
934.96	226.30
935.26	226.30
935.56	226.31
935.86	226.26
936.16	226.25
936.46	226.24
936.76	226.24
937.06	226.22
937.36	226.24
937.66	226.24
937.96	226.24
938.26	226.22
938.56	226.22
938.86	226.22
939.16	226.24
939.46	226.25
939.76	226.26
940.06	226.26
940.35	226.23
940.65	226.17
940.95	226.18
941.25	226.15
941.55	226.14
941.85	226.14
942.15	226.17
942.45	226.20
942.75	226.19
943.04	226.20
943.34	226.23
943.64	226.21
943.94	226.20
944.24	226.20
944.54	226.21
944.84	226.22
945.13	226.20
945.43	226.17
945.73	226.17
946.03	226.17
946.33	226.15
946.62	226.14
946.92	226.16
947.22	226.16
947.52	226.17
947.82	226.18
948.11	226.17
948.41	226.14
948.71	226.11
949.01	226.12
949.31	226.10
949.60	226.08
949.90	226.10
950.20	226.09
950.50	226.09
950.79	226.07
951.09	226.08
951.39	226.08
951.69	226.07
951.98	226.10
952.28	226.10
952.58	226.10
952.87	226.11
953.17	226.11
953.47	226.09
953.76	226.10
954.06	226.08
954.36	226.06
954.66	226.06
954.95	226.10
955.25	226.12
955.55	226.14
955.84	226.13
956.14	226.14
956.44	226.16
956.73	226.15
957.03	226.17
957.32	226.17
957.62	226.17
957.92	226.20
958.21	226.18
958.51	226.32
958.81	226.33
959.10	226.35
959.40	226.38
959.69	226.39
959.99	226.40
960.29	226.42
960.58	226.42
960.88	226.47
961.17	226.46
961.47	226.46
961.76	226.44
962.06	226.46
962.36	226.45
962.65	226.44
962.95	226.45
963.24	226.43
963.54	226.43
963.83	226.44
964.13	226.43
964.42	226.43
964.72	226.33
965.01	226.34
965.31	226.33
965.60	226.30
965.90	226.38
966.19	226.35
966.49	226.35
966.78	226.34
967.08	226.32
967.37	226.32
967.67	226.30
967.96	226.32
968.26	226.32
968.55	226.32
968.85	226.33
969.14	226.33
969.43	226.32
969.73	226.30
970.02	226.30
970.32	226.30
970.61	226.28
970.91	226.24
971.20	226.23
971.49	226.21
971.79	226.22
972.08	226.12
972.38	226.13
972.67	226.13
972.96	226.14
973.26	226.12
973.55	226.16
973.85	226.15
974.14	226.14
974.43	226.15
974.73	226.12
975.02	226.12
975.31	226.11
975.61	226.12
975.90	226.12
976.19	226.10
976.49	226.11
976.78	226.11
977.07	226.10
977.37	226.11
977.66	226.12
977.95	226.11
978.24	226.13
978.54	226.14
978.83	226.13
979.12	226.13
979.42	226.12
979.71	226.09
980.00	226.08
980.29	226.09
980.59	226.07
980.88	226.11
981.17	226.11
981.46	226.11
981.76	226.11
982.05	226.14
982.34	226.15
982.63	226.15
982.93	226.14
983.22	226.18
983.51	226.19
983.80	226.20
984.09	226.20
984.39	226.19
984.68	226.18
984.97	226.19
985.26	226.17
985.55	226.19
985.85	226.17
986.14	226.19
986.43	226.19
986.72	226.18
987.01	226.14
987.30	226.14
987.59	226.13
987.89	226.12
988.18	226.09
988.47	226.08
988.76	226.07
989.05	226.07
989.34	226.05
989.63	226.08
989.92	226.06
990.22	226.05
990.51	226.05
990.80	226.04
991.09	226.05
991.38	226.07
991.67	226.05
991.96	226.03
992.25	226.03
992.54	226.02
992.83	226.03
993.12	226.02
993.41	226.04
993.70	226.09
993.99	226.11
994.28	226.13
994.58	226.16
994.87	226.14
995.16	226.13
995.45	226.12
995.74	226.07
996.03	226.09
996.32	226.11
996.61	226.13
996.90	226.14
997.19	226.13
997.48	226.12
997.77	226.11
998.06	226.13
998.34	226.12
998.63	226.12
998.92	226.13
999.21	226.14
999.50	226.13
999.79	226.09
1000.08	226.10
1000.37	226.09
1000.66	226.07
1000.95	226.11
1001.24	226.12
1001.53	226.14
1001.82	226.14
1002.11	226.11
1002.40	226.13
1002.68	226.15
1002.97	226.24
1003.26	226.23
1003.55	226.21
1003.84	226.23
1004.13	226.28
1004.42	226.27
1004.71	226.27
1004.99	226.26
1005.28	226.28
1005.57	226.28
1005.86	226.27
1006.15	226.26
1006.44	226.24
1006.72	226.25
1007.01	226.22
1007.30	226.21
1007.59	226.19
1007.88	226.19
1008.17	226.21
1008.45	226.17
1008.74	226.12
1009.03	226.06
1009.32	226.06
1009.60	226.06
1009.89	226.05
1010.18	225.98
1010.47	225.99
1010.76	225.99
1011.04	225.98
1011.33	225.98
1011.62	225.98
1011.91	225.99
1012.19	226.00
1012.48	226.00
1012.77	226.00
1013.05	226.05
1013.34	226.05
1013.63	226.04
1013.92	226.06
1014.20	226.05
1014.49	226.06
1014.78	226.07
1015.06	226.03
1015.35	226.03
1015.64	226.03
1015.92	226.05
1016.21	226.05
1016.50	226.04
1016.78	226.06
1017.07	226.07
1017.36	226.04
1017.64	226.03
1017.93	226.04
1018.22	226.02
1018.50	226.01
1018.79	226.01
1019.08	225.97
1019.36	225.97
1019.65	225.96
1019.93	225.99
1020.22	226.01
1020.51	226.07
1020.79	226.06
1021.08	225.84
1021.36	225.73
1021.65	226.06
1021.94	225.99
1022.22	226.05
1022.51	225.76
1022.79	226.63
1023.08	226.19
1023.36	227.46
1023.65	225.80
>>>>>End Processed Spectral Data<<<<<
