SpectraSuite Data File
++++++++++++++++++++++++++++++++++++
Date: Sun Oct 04 15:49:47 EDT 2015
User: lab3
Dark Spectrum Present: No
Reference Spectrum Present: No
Number of Sampled Component Spectra: 1
Spectrometers: USB2E7196
Integration Time (usec): 46000 (USB2E7196)
Spectra Averaged: 24000 (USB2E7196)
Boxcar Smoothing: 10 (USB2E7196)
Correct for Electrical Dark: No (USB2E7196)
Strobe/Lamp Enabled: No (USB2E7196)
Correct for Detector Non-linearity: No (USB2E7196)
Correct for Stray Light: No (USB2E7196)
Number of Pixels in Processed Spectrum: 2048
>>>>>Begin Processed Spectral Data<<<<<
339.09	0.00
339.48	213.80
339.86	215.29
340.24	216.59
340.63	218.05
341.01	221.33
341.39	220.78
341.78	222.16
342.16	223.38
342.54	223.81
342.93	212.25
343.31	222.97
343.69	223.51
344.07	223.97
344.46	224.40
344.84	224.80
345.22	225.02
345.60	225.28
345.99	225.48
346.37	225.61
346.75	225.72
347.13	225.81
347.52	225.88
347.90	225.98
348.28	226.01
348.66	226.08
349.05	226.07
349.43	226.13
349.81	226.19
350.19	226.25
350.57	226.32
350.96	226.40
351.34	226.50
351.72	226.60
352.10	226.71
352.48	226.78
352.87	226.83
353.25	226.90
353.63	226.96
354.01	227.02
354.39	227.10
354.77	227.17
355.15	227.28
355.54	227.33
355.92	227.35
356.30	227.43
356.68	227.58
357.06	227.66
357.44	227.71
357.82	227.76
358.20	227.88
358.58	227.95
358.97	228.01
359.35	228.09
359.73	228.18
360.11	228.23
360.49	228.28
360.87	228.34
361.25	228.40
361.63	228.49
362.01	228.54
362.39	228.57
362.77	228.62
363.15	228.64
363.53	228.68
363.91	228.72
364.29	228.74
364.67	228.64
365.05	228.66
365.43	228.70
365.81	228.73
366.19	228.75
366.57	228.81
366.95	228.81
367.33	228.78
367.71	228.77
368.09	228.79
368.47	228.79
368.85	228.78
369.23	228.79
369.61	228.73
369.99	228.75
370.37	228.75
370.75	228.83
371.13	228.80
371.51	228.75
371.89	228.74
372.27	228.72
372.65	228.70
373.03	228.66
373.41	228.61
373.78	228.56
374.16	228.46
374.54	228.38
374.92	228.33
375.30	228.29
375.68	228.22
376.06	228.18
376.44	228.12
376.82	228.08
377.19	228.03
377.57	227.98
377.95	227.89
378.33	227.83
378.71	227.67
379.09	227.63
379.47	227.60
379.84	227.53
380.22	227.47
380.60	227.40
380.98	227.35
381.36	227.30
381.73	227.24
382.11	227.22
382.49	227.18
382.87	227.12
383.25	227.08
383.62	227.18
384.00	227.12
384.38	227.08
384.76	227.07
385.13	227.06
385.51	227.02
385.89	226.97
386.27	226.94
386.64	226.93
387.02	226.88
387.40	226.83
387.78	226.81
388.15	226.80
388.53	226.76
388.91	226.74
389.29	226.70
389.66	226.70
390.04	226.66
390.42	226.66
390.79	226.65
391.17	226.63
391.55	226.48
391.92	226.47
392.30	226.47
392.68	226.43
393.05	226.42
393.43	226.42
393.81	226.43
394.18	226.41
394.56	226.41
394.94	226.45
395.31	226.45
395.69	226.50
396.06	226.53
396.44	226.57
396.82	226.58
397.19	226.67
397.57	226.69
397.95	226.74
398.32	226.73
398.70	226.79
399.07	226.86
399.45	226.91
399.82	226.96
400.20	227.00
400.58	227.07
400.95	227.09
401.33	227.18
401.70	227.35
402.08	227.47
402.45	227.56
402.83	227.69
403.20	227.82
403.58	227.93
403.95	228.08
404.33	228.25
404.71	228.41
405.08	228.64
405.46	228.83
405.83	229.04
406.21	229.27
406.58	229.52
406.96	229.76
407.33	230.04
407.70	230.36
408.08	230.79
408.45	231.16
408.83	231.57
409.20	231.95
409.58	232.30
409.95	232.76
410.33	233.26
410.70	233.74
411.08	234.30
411.45	234.89
411.82	235.49
412.20	236.18
412.57	236.99
412.95	237.64
413.32	238.47
413.69	239.33
414.07	240.24
414.44	241.23
414.82	242.24
415.19	243.43
415.56	244.63
415.94	245.88
416.31	247.27
416.68	248.67
417.06	250.29
417.43	251.80
417.81	253.55
418.18	255.33
418.55	257.27
418.93	259.30
419.30	261.41
419.67	263.65
420.04	265.95
420.42	268.35
420.79	271.12
421.16	273.92
421.54	276.76
421.91	279.73
422.28	282.82
422.66	286.15
423.03	289.32
423.40	292.66
423.77	296.23
424.15	299.89
424.52	303.70
424.89	307.83
425.26	311.93
425.64	315.74
426.01	320.03
426.38	324.42
426.75	328.94
427.13	333.57
427.50	338.42
427.87	343.47
428.24	348.56
428.61	353.47
428.99	358.76
429.36	364.59
429.73	370.14
430.10	375.70
430.47	381.37
430.85	387.22
431.22	393.49
431.59	399.91
431.96	406.20
432.33	413.18
432.70	419.81
433.08	427.65
433.45	435.06
433.82	442.37
434.19	450.51
434.56	458.56
434.93	466.33
435.30	474.00
435.68	482.68
436.05	491.18
436.42	499.66
436.79	507.38
437.16	515.72
437.53	524.66
437.90	533.61
438.27	542.36
438.64	551.83
439.01	560.39
439.38	568.25
439.75	575.80
440.13	584.32
440.50	592.44
440.87	598.87
441.24	605.92
441.61	613.59
441.98	619.17
442.35	625.81
442.72	632.58
443.09	639.04
443.46	643.11
443.83	646.07
444.20	648.54
444.57	652.26
444.94	654.32
445.31	656.47
445.68	658.27
446.05	659.59
446.42	659.11
446.79	658.40
447.16	657.77
447.53	657.18
447.90	654.38
448.27	651.69
448.64	647.64
449.01	644.81
449.37	639.23
449.74	634.22
450.11	627.72
450.48	620.64
450.85	613.57
451.22	607.55
451.59	601.67
451.96	596.34
452.33	588.60
452.70	581.75
453.07	573.39
453.43	565.08
453.80	556.98
454.17	549.24
454.54	542.14
454.91	534.11
455.28	526.59
455.65	519.49
456.02	511.97
456.38	505.95
456.75	498.19
457.12	491.96
457.49	485.66
457.86	479.75
458.23	474.56
458.59	468.80
458.96	462.88
459.33	457.67
459.70	452.37
460.07	448.35
460.43	443.62
460.80	439.19
461.17	435.36
461.54	431.18
461.91	427.26
462.27	423.28
462.64	420.09
463.01	416.38
463.38	412.65
463.74	409.33
464.11	406.36
464.48	403.70
464.85	400.78
465.21	398.58
465.58	396.12
465.95	393.29
466.32	391.04
466.68	388.84
467.05	386.62
467.42	384.45
467.78	382.10
468.15	379.93
468.52	378.35
468.88	376.21
469.25	374.26
469.62	372.71
469.98	371.01
470.35	369.49
470.72	368.11
471.08	366.71
471.45	365.52
471.82	364.20
472.18	362.80
472.55	361.88
472.92	360.73
473.28	359.82
473.65	358.85
474.02	357.91
474.38	357.11
474.75	356.62
475.11	355.95
475.48	355.61
475.85	355.24
476.21	355.02
476.58	354.85
476.94	354.93
477.31	354.95
477.67	354.99
478.04	355.16
478.41	355.42
478.77	355.82
479.14	356.06
479.50	356.58
479.87	357.27
480.23	357.96
480.60	358.65
480.96	359.33
481.33	360.37
481.69	361.41
482.06	362.45
482.42	363.38
482.79	364.57
483.15	365.95
483.52	367.53
483.88	369.03
484.25	370.66
484.61	372.34
484.98	374.16
485.34	376.22
485.71	378.38
486.07	380.69
486.44	383.00
486.80	385.57
487.17	388.24
487.53	391.17
487.90	394.22
488.26	397.56
488.62	401.08
488.99	404.61
489.35	408.32
489.72	412.37
490.08	416.63
490.44	421.02
490.81	425.57
491.17	430.24
491.54	435.24
491.90	440.40
492.26	445.93
492.63	451.72
492.99	457.76
493.36	464.02
493.72	470.59
494.08	477.33
494.45	484.50
494.81	491.93
495.17	499.57
495.54	507.65
495.90	516.05
496.26	524.62
496.63	533.45
496.99	542.61
497.35	552.19
497.72	562.07
498.08	572.18
498.44	582.64
498.80	593.73
499.17	605.09
499.53	616.81
499.89	628.90
500.26	641.25
500.62	653.91
500.98	667.24
501.34	680.78
501.71	694.85
502.07	709.11
502.43	723.93
502.79	738.99
503.16	754.54
503.52	770.27
503.88	786.48
504.24	803.19
504.60	820.10
504.97	837.52
505.33	855.39
505.69	874.21
506.05	893.43
506.41	912.55
506.78	931.86
507.14	951.67
507.50	971.96
507.86	992.61
508.22	1013.48
508.59	1034.14
508.95	1055.65
509.31	1077.95
509.67	1101.04
510.03	1124.13
510.39	1147.21
510.75	1170.42
511.12	1193.91
511.48	1217.55
511.84	1241.19
512.20	1265.31
512.56	1290.37
512.92	1315.43
513.28	1339.98
513.64	1364.77
514.00	1390.08
514.37	1415.72
514.73	1441.30
515.09	1466.73
515.45	1492.45
515.81	1518.36
516.17	1544.37
516.53	1569.87
516.89	1595.20
517.25	1620.71
517.61	1646.02
517.97	1671.81
518.33	1697.14
518.69	1722.38
519.05	1748.08
519.41	1774.04
519.77	1800.23
520.13	1825.53
520.49	1850.76
520.85	1876.39
521.21	1901.61
521.57	1927.17
521.93	1952.11
522.29	1977.61
522.65	2002.49
523.01	2027.36
523.37	2051.77
523.73	2076.95
524.09	2101.72
524.45	2126.27
524.81	2150.41
525.17	2174.38
525.53	2197.69
525.89	2221.48
526.25	2245.35
526.61	2268.20
526.97	2291.17
527.33	2314.03
527.68	2336.62
528.04	2358.27
528.40	2378.97
528.76	2399.75
529.12	2419.98
529.48	2440.03
529.84	2458.04
530.20	2476.83
530.56	2494.88
530.91	2513.07
531.27	2530.93
531.63	2547.86
531.99	2564.28
532.35	2579.91
532.71	2595.79
533.07	2612.38
533.42	2626.97
533.78	2642.56
534.14	2658.39
534.50	2673.24
534.86	2687.78
535.21	2700.20
535.57	2713.28
535.93	2726.15
536.29	2737.89
536.65	2749.40
537.00	2760.02
537.36	2771.78
537.72	2782.05
538.08	2791.80
538.44	2800.79
538.79	2809.23
539.15	2816.99
539.51	2824.42
539.87	2831.21
540.22	2835.80
540.58	2840.51
540.94	2846.51
541.29	2850.85
541.65	2853.29
542.01	2854.90
542.37	2855.87
542.72	2858.39
543.08	2858.98
543.44	2860.17
543.79	2860.31
544.15	2859.57
544.51	2859.30
544.87	2857.80
545.22	2855.48
545.58	2852.46
545.94	2849.49
546.29	2845.27
546.65	2840.98
547.01	2836.59
547.36	2833.03
547.72	2829.68
548.07	2824.42
548.43	2817.71
548.79	2809.90
549.14	2803.48
549.50	2797.46
549.86	2790.40
550.21	2782.12
550.57	2774.90
550.92	2765.24
551.28	2756.14
551.64	2747.57
551.99	2738.60
552.35	2728.90
552.70	2719.53
553.06	2710.52
553.41	2700.88
553.77	2691.00
554.13	2681.07
554.48	2670.23
554.84	2658.06
555.19	2646.30
555.55	2634.71
555.90	2623.20
556.26	2612.32
556.61	2600.28
556.97	2586.51
557.32	2573.19
557.68	2559.93
558.03	2546.38
558.39	2534.23
558.74	2522.37
559.10	2508.64
559.45	2495.04
559.81	2482.16
560.16	2468.67
560.52	2455.52
560.87	2442.76
561.23	2429.21
561.58	2415.66
561.94	2401.85
562.29	2387.40
562.64	2373.78
563.00	2359.85
563.35	2346.28
563.71	2332.56
564.06	2318.73
564.42	2305.77
564.77	2292.34
565.12	2278.74
565.48	2265.12
565.83	2251.39
566.19	2237.82
566.54	2224.13
566.89	2209.33
567.25	2194.80
567.60	2181.66
567.96	2167.51
568.31	2151.96
568.66	2137.11
569.02	2123.53
569.37	2109.91
569.72	2096.86
570.08	2082.52
570.43	2067.78
570.78	2052.92
571.14	2037.30
571.49	2022.37
571.84	2007.99
572.20	1992.31
572.55	1976.88
572.90	1961.44
573.26	1946.09
573.61	1930.19
573.96	1914.79
574.31	1899.69
574.67	1884.59
575.02	1868.36
575.37	1852.29
575.72	1837.12
576.08	1822.26
576.43	1806.32
576.78	1790.78
577.13	1775.51
577.49	1760.60
577.84	1746.37
578.19	1731.17
578.54	1716.14
578.90	1700.58
579.25	1684.93
579.60	1670.95
579.95	1656.85
580.30	1642.53
580.66	1627.91
581.01	1613.28
581.36	1598.63
581.71	1584.98
582.06	1571.23
582.42	1557.70
582.77	1544.25
583.12	1530.77
583.47	1517.18
583.82	1503.70
584.17	1489.90
584.53	1475.78
584.88	1462.04
585.23	1447.89
585.58	1434.53
585.93	1421.38
586.28	1408.98
586.63	1396.54
586.98	1383.64
587.34	1370.81
587.69	1357.74
588.04	1345.00
588.39	1332.61
588.74	1320.40
589.09	1307.94
589.44	1295.09
589.79	1282.92
590.14	1270.83
590.49	1258.64
590.84	1246.59
591.19	1234.93
591.54	1223.07
591.89	1211.36
592.25	1199.86
592.60	1187.96
592.95	1176.53
593.30	1165.35
593.65	1153.88
594.00	1142.54
594.35	1131.77
594.70	1120.57
595.05	1110.25
595.40	1099.82
595.75	1089.22
596.10	1079.15
596.45	1068.85
596.80	1058.90
597.15	1048.65
597.50	1038.58
597.85	1028.92
598.19	1019.11
598.54	1009.37
598.89	1000.11
599.24	991.16
599.59	981.96
599.94	973.71
600.29	965.26
600.64	956.53
600.99	947.45
601.34	938.73
601.69	929.68
602.04	921.31
602.39	912.77
602.74	904.29
603.08	895.77
603.43	887.22
603.78	878.85
604.13	870.61
604.48	862.40
604.83	854.35
605.18	846.26
605.53	838.36
605.87	830.28
606.22	822.46
606.57	814.59
606.92	806.68
607.27	798.70
607.62	791.00
607.96	783.71
608.31	776.86
608.66	769.80
609.01	763.02
609.36	756.34
609.70	749.48
610.05	742.60
610.40	735.99
610.75	729.35
611.10	723.07
611.44	716.63
611.79	710.31
612.14	703.91
612.49	697.59
612.83	691.54
613.18	685.64
613.53	679.67
613.88	673.72
614.22	668.14
614.57	662.53
614.92	656.77
615.27	651.11
615.61	645.51
615.96	639.99
616.31	634.44
616.65	628.97
617.00	623.68
617.35	618.50
617.70	613.36
618.04	608.31
618.39	603.17
618.74	598.25
619.08	593.39
619.43	588.65
619.78	583.91
620.12	579.14
620.47	574.52
620.82	570.00
621.16	565.55
621.51	561.02
621.85	556.50
622.20	552.15
622.55	547.84
622.89	543.62
623.24	539.40
623.59	535.21
623.93	531.18
624.28	527.26
624.62	523.42
624.97	519.63
625.32	515.78
625.66	511.90
626.01	508.02
626.35	504.19
626.70	500.40
627.04	496.80
627.39	493.13
627.73	489.62
628.08	486.21
628.43	482.78
628.77	479.42
629.12	476.18
629.46	472.98
629.81	469.69
630.15	466.38
630.50	463.18
630.84	460.05
631.19	456.97
631.53	453.98
631.88	450.95
632.22	447.95
632.57	445.23
632.91	442.54
633.26	439.93
633.60	437.35
633.95	434.81
634.29	432.20
634.64	429.65
634.98	426.93
635.32	424.34
635.67	421.94
636.01	419.48
636.36	417.06
636.70	414.76
637.05	412.47
637.39	410.23
637.73	407.99
638.08	405.88
638.42	403.74
638.77	401.46
639.11	399.15
639.45	396.92
639.80	394.63
640.14	392.45
640.49	390.26
640.83	388.05
641.17	385.94
641.52	383.87
641.86	381.83
642.20	379.99
642.55	378.01
642.89	376.04
643.23	374.17
643.58	372.46
643.92	370.63
644.26	368.85
644.61	367.12
644.95	365.37
645.29	363.54
645.64	361.73
645.98	360.03
646.32	358.44
646.66	356.84
647.01	355.26
647.35	353.72
647.69	352.16
648.04	350.73
648.38	349.23
648.72	347.74
649.06	346.27
649.41	344.80
649.75	343.38
650.09	342.00
650.43	340.61
650.78	339.19
651.12	337.80
651.46	336.47
651.80	335.16
652.14	333.87
652.49	332.64
652.83	331.38
653.17	330.16
653.51	328.97
653.85	327.84
654.20	326.67
654.54	325.44
654.88	324.28
655.22	323.17
655.56	322.05
655.90	320.99
656.25	319.96
656.59	318.91
656.93	317.93
657.27	316.95
657.61	315.93
657.95	314.95
658.29	313.97
658.64	313.04
658.98	312.10
659.32	311.20
659.66	310.35
660.00	309.52
660.34	308.68
660.68	307.82
661.02	306.94
661.36	306.09
661.70	305.29
662.05	304.50
662.39	303.72
662.73	303.01
663.07	302.31
663.41	301.56
663.75	300.82
664.09	300.09
664.43	299.32
664.77	298.63
665.11	297.89
665.45	297.22
665.79	296.57
666.13	295.87
666.47	295.17
666.81	294.45
667.15	293.72
667.49	293.08
667.83	292.50
668.17	291.88
668.51	291.31
668.85	290.77
669.19	290.26
669.53	289.65
669.87	289.04
670.21	288.44
670.55	287.90
670.89	287.43
671.23	286.91
671.57	286.40
671.91	285.94
672.25	285.51
672.58	285.08
672.92	284.56
673.26	284.13
673.60	283.70
673.94	283.29
674.28	282.91
674.62	282.50
674.96	282.03
675.30	281.63
675.64	281.20
675.97	280.75
676.31	280.27
676.65	279.85
676.99	279.50
677.33	279.07
677.67	278.67
678.01	278.21
678.34	277.82
678.68	277.45
679.02	277.02
679.36	276.61
679.70	276.19
680.04	275.83
680.37	275.45
680.71	275.09
681.05	274.74
681.39	274.37
681.73	273.97
682.06	273.59
682.40	273.22
682.74	272.91
683.08	272.64
683.42	272.30
683.75	272.00
684.09	271.62
684.43	271.31
684.77	270.98
685.10	270.70
685.44	270.39
685.78	270.08
686.12	269.80
686.45	269.48
686.79	269.16
687.13	268.87
687.46	268.55
687.80	268.25
688.14	267.90
688.48	267.61
688.81	267.32
689.15	267.06
689.49	266.75
689.82	266.44
690.16	266.07
690.50	265.78
690.83	265.48
691.17	265.18
691.51	264.89
691.84	264.61
692.18	264.30
692.52	263.99
692.85	263.70
693.19	263.45
693.52	263.16
693.86	262.88
694.20	262.60
694.53	262.33
694.87	262.04
695.21	261.76
695.54	261.48
695.88	261.19
696.21	260.88
696.55	260.61
696.88	260.34
697.22	260.08
697.56	259.81
697.89	259.51
698.23	259.25
698.56	258.96
698.90	258.70
699.23	258.41
699.57	258.14
699.90	257.86
700.24	257.56
700.58	257.32
700.91	257.11
701.25	256.96
701.58	256.76
701.92	256.55
702.25	256.32
702.59	256.07
702.92	255.83
703.26	255.58
703.59	255.32
703.93	255.17
704.26	254.94
704.60	254.69
704.93	254.44
705.26	254.19
705.60	253.99
705.93	253.72
706.27	253.53
706.60	253.33
706.94	253.15
707.27	252.89
707.61	252.64
707.94	252.38
708.27	252.03
708.61	251.73
708.94	251.47
709.28	251.24
709.61	251.01
709.94	250.80
710.28	250.59
710.61	250.40
710.95	250.09
711.28	249.96
711.61	249.74
711.95	249.57
712.28	249.35
712.61	249.12
712.95	248.98
713.28	248.84
713.61	248.60
713.95	248.35
714.28	248.17
714.61	247.96
714.95	247.76
715.28	247.56
715.61	247.38
715.95	247.20
716.28	247.02
716.61	246.87
716.95	246.67
717.28	246.48
717.61	246.28
717.94	246.10
718.28	245.83
718.61	245.64
718.94	245.44
719.27	245.26
719.61	245.10
719.94	244.89
720.27	244.63
720.60	244.46
720.94	244.29
721.27	244.12
721.60	243.98
721.93	243.81
722.27	243.68
722.60	243.53
722.93	243.35
723.26	243.19
723.59	242.99
723.93	242.83
724.26	242.68
724.59	242.51
724.92	242.36
725.25	242.25
725.59	242.10
725.92	241.97
726.25	241.83
726.58	241.67
726.91	241.52
727.24	241.39
727.57	241.25
727.91	241.09
728.24	240.97
728.57	240.81
728.90	240.69
729.23	240.51
729.56	240.42
729.89	240.28
730.22	240.13
730.55	240.00
730.89	239.87
731.22	239.72
731.55	239.60
731.88	239.46
732.21	239.30
732.54	239.17
732.87	239.04
733.20	238.92
733.53	238.80
733.86	238.69
734.19	238.55
734.52	238.45
734.85	238.42
735.18	238.27
735.51	238.19
735.84	238.07
736.17	237.99
736.50	237.81
736.83	237.85
737.16	237.74
737.49	237.65
737.82	237.53
738.15	237.44
738.48	237.33
738.81	237.22
739.14	237.10
739.47	236.99
739.80	236.87
740.13	236.78
740.46	236.65
740.79	236.53
741.12	236.42
741.45	236.29
741.78	236.12
742.11	236.05
742.44	235.92
742.77	235.83
743.10	235.71
743.43	235.60
743.75	235.37
744.08	235.47
744.41	235.36
744.74	235.26
745.07	235.14
745.40	235.07
745.73	235.03
746.06	234.95
746.39	234.88
746.71	234.79
747.04	234.69
747.37	234.60
747.70	234.54
748.03	234.47
748.36	234.41
748.68	234.32
749.01	234.20
749.34	234.13
749.67	234.04
750.00	233.98
750.33	234.00
750.65	233.93
750.98	233.67
751.31	233.60
751.64	233.53
751.97	233.52
752.29	233.43
752.62	233.29
752.95	233.21
753.28	233.11
753.60	233.04
753.93	232.99
754.26	232.93
754.59	232.82
754.91	232.73
755.24	232.64
755.57	232.63
755.90	232.56
756.22	232.47
756.55	232.38
756.88	232.28
757.20	232.12
757.53	232.01
757.86	231.94
758.19	231.88
758.51	231.81
758.84	231.68
759.17	231.60
759.49	231.54
759.82	231.54
760.15	231.50
760.47	231.43
760.80	231.33
761.13	231.29
761.45	231.23
761.78	231.18
762.11	231.12
762.43	231.00
762.76	230.94
763.08	230.91
763.41	230.86
763.74	230.82
764.06	230.76
764.39	230.72
764.71	230.67
765.04	230.60
765.37	230.54
765.69	230.49
766.02	230.45
766.34	230.39
766.67	230.29
767.00	230.26
767.32	230.28
767.65	230.32
767.97	230.26
768.30	230.23
768.62	230.18
768.95	230.12
769.27	230.08
769.60	230.05
769.92	229.98
770.25	229.92
770.57	229.86
770.90	229.81
771.22	229.76
771.55	229.73
771.87	229.69
772.20	229.65
772.52	229.72
772.85	229.84
773.17	229.80
773.50	229.76
773.82	229.70
774.15	229.60
774.47	229.48
774.80	229.44
775.12	229.40
775.45	229.36
775.77	229.34
776.09	229.32
776.42	229.29
776.74	229.30
777.07	229.27
777.39	229.24
777.72	229.21
778.04	229.19
778.36	229.15
778.69	229.13
779.01	229.11
779.33	228.97
779.66	228.80
779.98	228.76
780.31	228.75
780.63	228.77
780.95	228.77
781.28	228.75
781.60	228.71
781.92	228.68
782.25	228.66
782.57	228.63
782.89	228.60
783.22	228.56
783.54	228.51
783.86	228.49
784.19	228.46
784.51	228.48
784.83	228.44
785.16	228.42
785.48	228.40
785.80	228.37
786.12	228.36
786.45	228.34
786.77	228.33
787.09	228.30
787.42	228.23
787.74	228.21
788.06	228.20
788.38	228.18
788.71	228.15
789.03	228.14
789.35	228.14
789.67	228.10
789.99	228.10
790.32	228.06
790.64	228.06
790.96	228.16
791.28	228.09
791.61	228.07
791.93	228.06
792.25	228.03
792.57	228.11
792.89	228.07
793.21	228.06
793.54	228.03
793.86	228.00
794.18	227.99
794.50	227.95
794.82	227.93
795.14	227.93
795.47	227.94
795.79	227.92
796.11	227.87
796.43	227.86
796.75	227.84
797.07	227.83
797.39	227.81
797.71	227.69
798.04	227.68
798.36	227.67
798.68	227.66
799.00	227.65
799.32	227.58
799.64	227.58
799.96	227.57
800.28	227.58
800.60	227.56
800.92	227.55
801.24	227.53
801.56	227.53
801.89	227.50
802.21	227.49
802.53	227.46
802.85	227.48
803.17	227.52
803.49	227.49
803.81	227.46
804.13	227.44
804.45	227.42
804.77	227.41
805.09	227.40
805.41	227.37
805.73	227.34
806.05	227.29
806.37	227.27
806.69	227.24
807.01	227.22
807.33	227.22
807.65	227.16
807.97	227.21
808.28	227.18
808.60	227.17
808.92	227.14
809.24	227.21
809.56	227.18
809.88	227.12
810.20	227.12
810.52	227.14
810.84	227.11
811.16	227.09
811.48	227.07
811.80	227.10
812.12	227.09
812.43	227.10
812.75	227.10
813.07	227.09
813.39	227.08
813.71	227.06
814.03	227.03
814.35	227.03
814.67	226.97
814.98	226.95
815.30	226.94
815.62	226.91
815.94	226.82
816.26	226.83
816.58	226.79
816.89	226.79
817.21	226.76
817.53	226.76
817.85	226.76
818.17	226.75
818.48	226.69
818.80	226.71
819.12	226.68
819.44	226.65
819.76	226.63
820.07	226.62
820.39	226.61
820.71	226.62
821.03	226.61
821.34	226.60
821.66	226.61
821.98	226.62
822.30	226.61
822.61	226.68
822.93	226.65
823.25	226.64
823.57	226.62
823.88	226.63
824.20	226.62
824.52	226.63
824.83	226.62
825.15	226.60
825.47	226.59
825.79	226.59
826.10	226.58
826.42	226.57
826.74	226.58
827.05	226.57
827.37	226.56
827.69	226.55
828.00	226.55
828.32	226.54
828.64	226.52
828.95	226.58
829.27	226.53
829.58	226.53
829.90	226.55
830.22	226.56
830.53	226.53
830.85	226.51
831.17	226.47
831.48	226.47
831.80	226.47
832.11	226.46
832.43	226.43
832.75	226.43
833.06	226.50
833.38	226.47
833.69	226.46
834.01	226.46
834.32	226.45
834.64	226.44
834.96	226.43
835.27	226.43
835.59	226.38
835.90	226.36
836.22	226.35
836.53	226.32
836.85	226.30
837.16	226.43
837.48	226.42
837.79	226.47
838.11	226.46
838.42	226.46
838.74	226.47
839.05	226.46
839.37	226.46
839.68	226.37
840.00	226.37
840.31	226.38
840.63	226.36
840.94	226.35
841.26	226.34
841.57	226.33
841.88	226.33
842.20	226.31
842.51	226.29
842.83	226.29
843.14	226.40
843.46	226.40
843.77	226.32
844.08	226.31
844.40	226.27
844.71	226.25
845.03	226.24
845.34	226.23
845.65	226.22
845.97	226.22
846.28	226.23
846.60	226.23
846.91	226.21
847.22	226.20
847.54	226.23
847.85	226.24
848.16	226.22
848.48	226.20
848.79	226.25
849.10	226.26
849.42	226.26
849.73	226.14
850.04	226.14
850.36	226.09
850.67	226.11
850.98	226.11
851.30	226.12
851.61	226.12
851.92	226.11
852.23	226.16
852.55	226.16
852.86	226.16
853.17	226.16
853.49	226.19
853.80	226.22
854.11	226.22
854.42	226.23
854.74	226.22
855.05	226.23
855.36	226.16
855.67	226.16
855.99	226.16
856.30	226.31
856.61	226.30
856.92	226.31
857.23	226.31
857.55	226.29
857.86	226.28
858.17	226.30
858.48	226.28
858.79	226.25
859.11	226.26
859.42	226.25
859.73	226.23
860.04	226.22
860.35	226.18
860.66	226.13
860.98	226.13
861.29	226.14
861.60	226.13
861.91	226.16
862.22	226.14
862.53	226.12
862.84	225.97
863.16	225.99
863.47	225.97
863.78	225.95
864.09	225.96
864.40	225.96
864.71	225.96
865.02	225.97
865.33	225.96
865.64	225.93
865.95	225.93
866.27	226.01
866.58	226.00
866.89	226.02
867.20	226.02
867.51	225.99
867.82	225.99
868.13	226.02
868.44	225.99
868.75	226.02
869.06	226.03
869.37	226.04
869.68	226.01
869.99	226.03
870.30	226.04
870.61	226.05
870.92	226.03
871.23	226.02
871.54	226.03
871.85	226.06
872.16	226.07
872.47	226.06
872.78	225.99
873.09	226.00
873.40	225.99
873.71	226.00
874.02	226.01
874.33	226.00
874.64	225.96
874.95	225.99
875.26	225.96
875.56	225.96
875.87	225.95
876.18	225.94
876.49	226.06
876.80	226.05
877.11	226.03
877.42	226.04
877.73	226.04
878.04	226.02
878.35	226.01
878.66	226.02
878.96	226.01
879.27	226.01
879.58	226.00
879.89	226.00
880.20	226.03
880.51	226.02
880.82	226.03
881.12	226.03
881.43	226.01
881.74	225.99
882.05	225.99
882.36	225.99
882.67	226.00
882.97	225.86
883.28	225.85
883.59	225.85
883.90	225.86
884.21	225.88
884.51	225.87
884.82	225.85
885.13	225.85
885.44	225.84
885.74	225.84
886.05	225.84
886.36	225.84
886.67	225.79
886.98	225.85
887.28	225.86
887.59	225.85
887.90	225.86
888.20	225.86
888.51	225.88
888.82	225.86
889.13	225.87
889.43	225.98
889.74	225.97
890.05	225.97
890.35	225.96
890.66	225.93
890.97	225.92
891.28	225.91
891.58	225.91
891.89	225.91
892.20	225.90
892.50	225.88
892.81	225.88
893.12	225.88
893.42	225.81
893.73	225.82
894.04	225.81
894.34	225.82
894.65	225.82
894.95	225.81
895.26	225.81
895.57	225.86
895.87	225.73
896.18	225.76
896.48	225.76
896.79	225.76
897.10	225.78
897.40	225.79
897.71	225.80
898.01	225.79
898.32	225.80
898.63	225.80
898.93	225.81
899.24	225.82
899.54	225.81
899.85	225.81
900.15	225.80
900.46	225.80
900.76	225.81
901.07	225.80
901.38	225.80
901.68	225.81
901.99	225.75
902.29	225.76
902.60	225.74
902.90	225.73
903.21	225.73
903.51	225.72
903.82	225.74
904.12	225.74
904.43	225.75
904.73	225.74
905.03	225.75
905.34	225.87
905.64	225.86
905.95	225.86
906.25	225.86
906.56	225.85
906.86	225.85
907.17	225.84
907.47	225.84
907.77	225.83
908.08	225.81
908.38	225.81
908.69	225.82
908.99	225.84
909.30	225.85
909.60	225.85
909.90	225.85
910.21	225.81
910.51	225.79
910.81	225.79
911.12	225.80
911.42	225.80
911.73	225.66
912.03	225.68
912.33	225.70
912.64	225.70
912.94	225.68
913.24	225.66
913.55	225.65
913.85	225.64
914.15	225.67
914.46	225.69
914.76	225.67
915.06	225.66
915.37	225.64
915.67	225.63
915.97	225.63
916.27	225.61
916.58	225.62
916.88	225.61
917.18	225.60
917.49	225.69
917.79	225.68
918.09	225.70
918.39	225.73
918.70	225.72
919.00	225.72
919.30	225.78
919.60	225.78
919.91	225.77
920.21	225.77
920.51	225.74
920.81	225.74
921.12	225.76
921.42	225.76
921.72	225.76
922.02	225.77
922.32	225.79
922.63	225.79
922.93	225.86
923.23	225.87
923.53	225.86
923.83	225.78
924.13	225.79
924.44	225.78
924.74	225.80
925.04	225.82
925.34	225.82
925.64	225.77
925.94	225.77
926.24	225.84
926.55	225.83
926.85	225.84
927.15	225.84
927.45	225.84
927.75	225.84
928.05	225.84
928.35	225.83
928.65	225.84
928.95	225.85
929.26	225.79
929.56	225.81
929.86	225.83
930.16	225.82
930.46	225.81
930.76	225.81
931.06	225.75
931.36	225.72
931.66	225.74
931.96	225.75
932.26	225.76
932.56	225.70
932.86	225.71
933.16	225.71
933.46	225.70
933.76	225.68
934.06	225.71
934.36	225.75
934.66	225.74
934.96	225.72
935.26	225.72
935.56	225.74
935.86	225.70
936.16	225.69
936.46	225.68
936.76	225.67
937.06	225.65
937.36	225.67
937.66	225.67
937.96	225.66
938.26	225.63
938.56	225.62
938.86	225.63
939.16	225.66
939.46	225.67
939.76	225.68
940.06	225.68
940.35	225.66
940.65	225.59
940.95	225.61
941.25	225.58
941.55	225.57
941.85	225.55
942.15	225.58
942.45	225.62
942.75	225.61
943.04	225.62
943.34	225.64
943.64	225.63
943.94	225.62
944.24	225.62
944.54	225.62
944.84	225.62
945.13	225.60
945.43	225.57
945.73	225.57
946.03	225.55
946.33	225.54
946.62	225.52
946.92	225.52
947.22	225.53
947.52	225.54
947.82	225.56
948.11	225.54
948.41	225.51
948.71	225.48
949.01	225.49
949.31	225.48
949.60	225.47
949.90	225.49
950.20	225.48
950.50	225.48
950.79	225.47
951.09	225.49
951.39	225.49
951.69	225.48
951.98	225.50
952.28	225.51
952.58	225.51
952.87	225.51
953.17	225.53
953.47	225.51
953.76	225.51
954.06	225.49
954.36	225.47
954.66	225.47
954.95	225.50
955.25	225.51
955.55	225.52
955.84	225.50
956.14	225.51
956.44	225.52
956.73	225.50
957.03	225.51
957.32	225.51
957.62	225.50
957.92	225.52
958.21	225.51
958.51	225.65
958.81	225.67
959.10	225.68
959.40	225.71
959.69	225.72
959.99	225.74
960.29	225.74
960.58	225.74
960.88	225.78
961.17	225.77
961.47	225.78
961.76	225.77
962.06	225.79
962.36	225.77
962.65	225.78
962.95	225.78
963.24	225.77
963.54	225.78
963.83	225.79
964.13	225.78
964.42	225.77
964.72	225.66
965.01	225.66
965.31	225.65
965.60	225.61
965.90	225.69
966.19	225.66
966.49	225.67
966.78	225.67
967.08	225.65
967.37	225.65
967.67	225.63
967.96	225.65
968.26	225.64
968.55	225.66
968.85	225.65
969.14	225.65
969.43	225.65
969.73	225.63
970.02	225.62
970.32	225.62
970.61	225.60
970.91	225.56
971.20	225.55
971.49	225.53
971.79	225.55
972.08	225.46
972.38	225.47
972.67	225.46
972.96	225.48
973.26	225.46
973.55	225.50
973.85	225.49
974.14	225.48
974.43	225.49
974.73	225.46
975.02	225.45
975.31	225.45
975.61	225.45
975.90	225.45
976.19	225.44
976.49	225.45
976.78	225.46
977.07	225.46
977.37	225.47
977.66	225.48
977.95	225.47
978.24	225.48
978.54	225.51
978.83	225.50
979.12	225.49
979.42	225.49
979.71	225.46
980.00	225.46
980.29	225.47
980.59	225.45
980.88	225.48
981.17	225.48
981.46	225.48
981.76	225.48
982.05	225.52
982.34	225.53
982.63	225.52
982.93	225.52
983.22	225.55
983.51	225.56
983.80	225.57
984.09	225.59
984.39	225.58
984.68	225.56
984.97	225.57
985.26	225.56
985.55	225.57
985.85	225.55
986.14	225.57
986.43	225.58
986.72	225.58
987.01	225.53
987.30	225.54
987.59	225.53
987.89	225.53
988.18	225.49
988.47	225.48
988.76	225.47
989.05	225.46
989.34	225.44
989.63	225.47
989.92	225.45
990.22	225.44
990.51	225.43
990.80	225.42
991.09	225.43
991.38	225.45
991.67	225.43
991.96	225.42
992.25	225.43
992.54	225.40
992.83	225.41
993.12	225.40
993.41	225.43
993.70	225.48
993.99	225.50
994.28	225.52
994.58	225.53
994.87	225.52
995.16	225.52
995.45	225.52
995.74	225.47
996.03	225.49
996.32	225.51
996.61	225.54
996.90	225.54
997.19	225.53
997.48	225.53
997.77	225.52
998.06	225.52
998.34	225.51
998.63	225.51
998.92	225.51
999.21	225.53
999.50	225.53
999.79	225.48
1000.08	225.48
1000.37	225.47
1000.66	225.46
1000.95	225.49
1001.24	225.50
1001.53	225.51
1001.82	225.51
1002.11	225.48
1002.40	225.49
1002.68	225.51
1002.97	225.61
1003.26	225.59
1003.55	225.57
1003.84	225.58
1004.13	225.62
1004.42	225.62
1004.71	225.62
1004.99	225.61
1005.28	225.64
1005.57	225.63
1005.86	225.61
1006.15	225.60
1006.44	225.58
1006.72	225.60
1007.01	225.57
1007.30	225.57
1007.59	225.56
1007.88	225.55
1008.17	225.56
1008.45	225.54
1008.74	225.48
1009.03	225.42
1009.32	225.42
1009.60	225.42
1009.89	225.41
1010.18	225.36
1010.47	225.35
1010.76	225.35
1011.04	225.35
1011.33	225.34
1011.62	225.36
1011.91	225.37
1012.19	225.37
1012.48	225.38
1012.77	225.37
1013.05	225.42
1013.34	225.42
1013.63	225.41
1013.92	225.42
1014.20	225.41
1014.49	225.42
1014.78	225.43
1015.06	225.39
1015.35	225.39
1015.64	225.41
1015.92	225.43
1016.21	225.45
1016.50	225.45
1016.78	225.46
1017.07	225.47
1017.36	225.45
1017.64	225.43
1017.93	225.44
1018.22	225.43
1018.50	225.43
1018.79	225.43
1019.08	225.38
1019.36	225.39
1019.65	225.38
1019.93	225.41
1020.22	225.43
1020.51	225.50
1020.79	225.48
1021.08	225.24
1021.36	225.26
1021.65	225.42
1021.94	225.36
1022.22	225.50
1022.51	225.16
1022.79	226.04
1023.08	225.63
1023.36	226.96
1023.65	225.13
>>>>>End Processed Spectral Data<<<<<
