SpectraSuite Data File
++++++++++++++++++++++++++++++++++++
Date: Fri Oct 02 15:37:05 EDT 2015
User: lab3
Dark Spectrum Present: No
Reference Spectrum Present: No
Number of Sampled Component Spectra: 1
Spectrometers: USB2E7196
Integration Time (usec): 46000 (USB2E7196)
Spectra Averaged: 1200 (USB2E7196)
Boxcar Smoothing: 10 (USB2E7196)
Correct for Electrical Dark: No (USB2E7196)
Strobe/Lamp Enabled: No (USB2E7196)
Correct for Detector Non-linearity: No (USB2E7196)
Correct for Stray Light: No (USB2E7196)
Number of Pixels in Processed Spectrum: 2048
>>>>>Begin Processed Spectral Data<<<<<
339.09	0.00
339.48	213.81
339.86	215.25
340.24	216.54
340.63	218.08
341.01	221.25
341.39	220.64
341.78	222.01
342.16	223.28
342.54	223.63
342.93	212.16
343.31	222.88
343.69	223.41
344.07	223.87
344.46	224.31
344.84	224.69
345.22	224.90
345.60	225.16
345.99	225.35
346.37	225.48
346.75	225.58
347.13	225.66
347.52	225.73
347.90	225.82
348.28	225.84
348.66	225.91
349.05	225.91
349.43	225.97
349.81	226.02
350.19	226.07
350.57	226.14
350.96	226.22
351.34	226.30
351.72	226.40
352.10	226.50
352.48	226.56
352.87	226.60
353.25	226.67
353.63	226.74
354.01	226.79
354.39	226.88
354.77	226.96
355.15	227.06
355.54	227.11
355.92	227.14
356.30	227.22
356.68	227.36
357.06	227.44
357.44	227.48
357.82	227.53
358.20	227.66
358.58	227.71
358.97	227.76
359.35	227.86
359.73	227.93
360.11	227.98
360.49	228.05
360.87	228.10
361.25	228.15
361.63	228.24
362.01	228.29
362.39	228.31
362.77	228.36
363.15	228.38
363.53	228.41
363.91	228.43
364.29	228.45
364.67	228.35
365.05	228.37
365.43	228.41
365.81	228.45
366.19	228.46
366.57	228.52
366.95	228.52
367.33	228.50
367.71	228.50
368.09	228.52
368.47	228.50
368.85	228.50
369.23	228.51
369.61	228.45
369.99	228.48
370.37	228.48
370.75	228.55
371.13	228.52
371.51	228.49
371.89	228.48
372.27	228.46
372.65	228.43
373.03	228.39
373.41	228.34
373.78	228.28
374.16	228.17
374.54	228.09
374.92	228.04
375.30	227.99
375.68	227.92
376.06	227.87
376.44	227.82
376.82	227.79
377.19	227.74
377.57	227.68
377.95	227.60
378.33	227.53
378.71	227.36
379.09	227.32
379.47	227.29
379.84	227.22
380.22	227.16
380.60	227.10
380.98	227.05
381.36	226.99
381.73	226.93
382.11	226.90
382.49	226.86
382.87	226.79
383.25	226.75
383.62	226.86
384.00	226.78
384.38	226.75
384.76	226.73
385.13	226.74
385.51	226.70
385.89	226.65
386.27	226.62
386.64	226.61
387.02	226.56
387.40	226.52
387.78	226.49
388.15	226.46
388.53	226.43
388.91	226.40
389.29	226.37
389.66	226.37
390.04	226.34
390.42	226.34
390.79	226.33
391.17	226.31
391.55	226.15
391.92	226.15
392.30	226.14
392.68	226.10
393.05	226.07
393.43	226.08
393.81	226.08
394.18	226.06
394.56	226.06
394.94	226.10
395.31	226.09
395.69	226.14
396.06	226.16
396.44	226.18
396.82	226.20
397.19	226.30
397.57	226.31
397.95	226.36
398.32	226.35
398.70	226.40
399.07	226.46
399.45	226.50
399.82	226.54
400.20	226.57
400.58	226.62
400.95	226.64
401.33	226.72
401.70	226.89
402.08	226.99
402.45	227.08
402.83	227.20
403.20	227.32
403.58	227.41
403.95	227.55
404.33	227.70
404.71	227.84
405.08	228.04
405.46	228.19
405.83	228.38
406.21	228.59
406.58	228.80
406.96	229.02
407.33	229.27
407.70	229.55
408.08	229.93
408.45	230.26
408.83	230.62
409.20	230.95
409.58	231.24
409.95	231.64
410.33	232.07
410.70	232.47
411.08	232.96
411.45	233.47
411.82	233.98
412.20	234.58
412.57	235.30
412.95	235.84
413.32	236.58
413.69	237.32
414.07	238.10
414.44	238.96
414.82	239.84
415.19	240.88
415.56	241.91
415.94	242.99
416.31	244.21
416.68	245.43
417.06	246.84
417.43	248.16
417.81	249.68
418.18	251.23
418.55	252.93
418.93	254.69
419.30	256.54
419.67	258.50
420.04	260.50
420.42	262.57
420.79	265.00
421.16	267.43
421.54	269.91
421.91	272.51
422.28	275.19
422.66	278.08
423.03	280.85
423.40	283.75
423.77	286.86
424.15	290.04
424.52	293.35
424.89	296.94
425.26	300.51
425.64	303.82
426.01	307.53
426.38	311.33
426.75	315.27
427.13	319.31
427.50	323.51
427.87	327.91
428.24	332.38
428.61	336.66
428.99	341.27
429.36	346.32
429.73	351.17
430.10	356.02
430.47	360.98
430.85	366.08
431.22	371.57
431.59	377.23
431.96	382.73
432.33	388.85
432.70	394.68
433.08	401.55
433.45	408.05
433.82	414.49
434.19	421.68
434.56	428.72
434.93	435.56
435.30	442.33
435.68	449.98
436.05	457.47
436.42	464.91
436.79	471.73
437.16	479.09
437.53	486.95
437.90	494.83
438.27	502.55
438.64	510.88
439.01	518.41
439.38	525.32
439.75	531.97
440.13	539.47
440.50	546.60
440.87	552.27
441.24	558.47
441.61	565.19
441.98	570.09
442.35	575.92
442.72	581.83
443.09	587.48
443.46	591.01
443.83	593.55
444.20	595.68
444.57	598.88
444.94	600.64
445.31	602.48
445.68	604.00
446.05	605.06
446.42	604.54
446.79	603.83
447.16	603.15
447.53	602.54
447.90	599.96
448.27	597.49
448.64	593.83
449.01	591.22
449.37	586.24
449.74	581.73
450.11	575.98
450.48	569.68
450.85	563.37
451.22	557.99
451.59	552.75
451.96	547.99
452.33	541.13
452.70	535.04
453.07	527.64
453.43	520.27
453.80	513.13
454.17	506.32
454.54	500.05
454.91	492.98
455.28	486.38
455.65	480.18
456.02	473.63
456.38	468.34
456.75	461.56
457.12	456.09
457.49	450.58
457.86	445.39
458.23	440.88
458.59	435.88
458.96	430.76
459.33	426.24
459.70	421.66
460.07	418.21
460.43	414.12
460.80	410.33
461.17	407.04
461.54	403.47
461.91	400.14
462.27	396.75
462.64	394.04
463.01	390.87
463.38	387.69
463.74	384.81
464.11	382.29
464.48	380.04
464.85	377.58
465.21	375.74
465.58	373.67
465.95	371.26
466.32	369.36
466.68	367.50
467.05	365.63
467.42	363.80
467.78	361.80
468.15	359.99
468.52	358.67
468.88	356.86
469.25	355.21
469.62	353.91
469.98	352.49
470.35	351.22
470.72	350.08
471.08	348.91
471.45	347.94
471.82	346.86
472.18	345.70
472.55	344.98
472.92	344.03
473.28	343.31
473.65	342.53
474.02	341.79
474.38	341.16
474.75	340.80
475.11	340.29
475.48	340.06
475.85	339.81
476.21	339.68
476.58	339.60
476.94	339.76
477.31	339.82
477.67	339.93
478.04	340.14
478.41	340.43
478.77	340.86
479.14	341.12
479.50	341.65
479.87	342.33
480.23	343.01
480.60	343.67
480.96	344.32
481.33	345.32
481.69	346.31
482.06	347.28
482.42	348.18
482.79	349.29
483.15	350.58
483.52	352.05
483.88	353.46
484.25	354.97
484.61	356.54
484.98	358.24
485.34	360.14
485.71	362.14
486.07	364.27
486.44	366.41
486.80	368.79
487.17	371.25
487.53	373.94
487.90	376.74
488.26	379.81
488.62	383.06
488.99	386.29
489.35	389.69
489.72	393.38
490.08	397.28
490.44	401.30
490.81	405.49
491.17	409.76
491.54	414.37
491.90	419.13
492.26	424.21
492.63	429.55
492.99	435.09
493.36	440.83
493.72	446.87
494.08	453.09
494.45	459.67
494.81	466.49
495.17	473.46
495.54	480.85
495.90	488.55
496.26	496.42
496.63	504.51
496.99	512.95
497.35	521.77
497.72	530.89
498.08	540.19
498.44	549.82
498.80	560.01
499.17	570.44
499.53	581.24
499.89	592.34
500.26	603.71
500.62	615.29
500.98	627.57
501.34	639.99
501.71	652.91
502.07	666.00
502.43	679.61
502.79	693.49
503.16	707.81
503.52	722.35
503.88	737.29
504.24	752.68
504.60	768.24
504.97	784.26
505.33	800.60
505.69	817.89
506.05	835.46
506.41	853.05
506.78	870.79
507.14	888.96
507.50	907.61
507.86	926.56
508.22	945.82
508.59	964.90
508.95	984.76
509.31	1005.22
509.67	1026.48
510.03	1047.72
510.39	1068.96
510.75	1090.40
511.12	1112.07
511.48	1133.92
511.84	1155.79
512.20	1177.95
512.56	1200.96
512.92	1224.04
513.28	1246.68
513.64	1269.48
514.00	1292.61
514.37	1316.14
514.73	1339.64
515.09	1363.01
515.45	1386.63
515.81	1410.53
516.17	1434.33
516.53	1457.81
516.89	1481.20
517.25	1504.62
517.61	1528.01
517.97	1551.74
518.33	1574.81
518.69	1597.80
519.05	1621.25
519.41	1644.85
519.77	1668.79
520.13	1692.01
520.49	1715.18
520.85	1738.51
521.21	1761.67
521.57	1785.19
521.93	1808.06
522.29	1831.46
522.65	1854.13
523.01	1876.84
523.37	1899.07
523.73	1922.14
524.09	1944.70
524.45	1967.09
524.81	1989.04
525.17	2010.66
525.53	2031.89
525.89	2053.68
526.25	2075.48
526.61	2096.20
526.97	2116.93
527.33	2137.46
527.68	2157.72
528.04	2177.30
528.40	2196.02
528.76	2214.56
529.12	2232.58
529.48	2250.62
529.84	2266.69
530.20	2283.49
530.56	2299.71
530.91	2315.90
531.27	2331.66
531.63	2346.71
531.99	2361.20
532.35	2375.20
532.71	2389.40
533.07	2403.92
533.42	2416.55
533.78	2430.04
534.14	2443.92
534.50	2457.04
534.86	2469.94
535.21	2480.98
535.57	2492.45
535.93	2503.68
536.29	2513.88
536.65	2524.04
537.00	2533.14
537.36	2543.38
537.72	2552.36
538.08	2560.56
538.44	2568.24
538.79	2575.65
539.15	2582.19
539.51	2588.49
539.87	2594.00
540.22	2597.63
540.58	2601.38
540.94	2606.40
541.29	2610.01
541.65	2611.83
542.01	2612.96
542.37	2613.41
542.72	2615.02
543.08	2615.05
543.44	2615.68
543.79	2615.38
544.15	2614.29
544.51	2613.52
544.87	2611.58
545.22	2608.88
545.58	2605.62
545.94	2602.23
546.29	2597.64
546.65	2593.27
547.01	2588.66
547.36	2584.72
547.72	2580.95
548.07	2575.70
548.43	2569.20
548.79	2561.60
549.14	2555.12
549.50	2549.04
549.86	2541.91
550.21	2533.96
550.57	2526.69
550.92	2517.32
551.28	2508.58
551.64	2499.97
551.99	2491.14
552.35	2481.82
552.70	2472.77
553.06	2464.26
553.41	2455.25
553.77	2445.88
554.13	2436.29
554.48	2426.13
554.84	2414.72
555.19	2403.76
555.55	2392.84
555.90	2381.87
556.26	2371.44
556.61	2360.05
556.97	2347.29
557.32	2335.13
557.68	2322.69
558.03	2310.05
558.39	2298.68
558.74	2287.47
559.10	2274.83
559.45	2262.27
559.81	2250.18
560.16	2237.76
560.52	2225.38
560.87	2213.29
561.23	2200.54
561.58	2187.87
561.94	2174.86
562.29	2161.52
562.64	2148.71
563.00	2135.65
563.35	2122.99
563.71	2110.24
564.06	2097.46
564.42	2085.17
564.77	2072.39
565.12	2059.70
565.48	2047.08
565.83	2034.23
566.19	2021.66
566.54	2008.97
566.89	1995.32
567.25	1981.85
567.60	1969.42
567.96	1956.39
568.31	1942.02
568.66	1928.22
569.02	1915.70
569.37	1903.05
569.72	1890.94
570.08	1877.73
570.43	1864.08
570.78	1850.22
571.14	1835.93
571.49	1822.18
571.84	1808.89
572.20	1794.71
572.55	1780.54
572.90	1766.34
573.26	1752.23
573.61	1737.57
573.96	1723.38
574.31	1709.36
574.67	1695.53
575.02	1680.72
575.37	1665.81
575.72	1651.90
576.08	1638.46
576.43	1623.85
576.78	1609.75
577.13	1595.83
577.49	1582.37
577.84	1569.47
578.19	1555.88
578.54	1542.26
578.90	1528.20
579.25	1514.11
579.60	1501.32
579.95	1488.65
580.30	1475.73
580.66	1462.55
581.01	1449.28
581.36	1436.09
581.71	1423.81
582.06	1411.39
582.42	1399.22
582.77	1387.21
583.12	1375.21
583.47	1362.86
583.82	1350.80
584.17	1338.41
584.53	1325.74
584.88	1313.32
585.23	1300.63
585.58	1288.61
585.93	1276.85
586.28	1265.72
586.63	1254.50
586.98	1242.99
587.34	1231.51
587.69	1219.86
588.04	1208.53
588.39	1197.62
588.74	1186.85
589.09	1175.91
589.44	1164.56
589.79	1153.72
590.14	1143.04
590.49	1132.21
590.84	1121.63
591.19	1111.21
591.54	1100.65
591.89	1090.30
592.25	1080.16
592.60	1069.72
592.95	1059.57
593.30	1049.66
593.65	1039.59
594.00	1029.60
594.35	1020.12
594.70	1010.20
595.05	1001.02
595.40	991.87
595.75	982.55
596.10	973.59
596.45	964.54
596.80	955.76
597.15	946.81
597.50	938.02
597.85	929.61
598.19	921.05
598.54	912.54
598.89	904.46
599.24	896.55
599.59	888.50
599.94	881.25
600.29	873.89
600.64	866.26
600.99	858.30
601.34	850.72
601.69	842.82
602.04	835.50
602.39	828.09
602.74	820.72
603.08	813.29
603.43	805.85
603.78	798.54
604.13	791.41
604.48	784.26
604.83	777.24
605.18	770.10
605.53	763.21
605.87	756.25
606.22	749.49
606.57	742.73
606.92	735.86
607.27	728.97
607.62	722.38
607.96	716.09
608.31	710.20
608.66	704.11
609.01	698.28
609.36	692.59
609.70	686.71
610.05	680.75
610.40	675.11
610.75	669.44
611.10	664.07
611.44	658.54
611.79	653.12
612.14	647.66
612.49	642.26
612.83	637.07
613.18	631.98
613.53	626.84
613.88	621.74
614.22	617.03
614.57	612.22
614.92	607.26
615.27	602.41
615.61	597.60
615.96	592.87
616.31	588.16
616.65	583.51
617.00	579.02
617.35	574.63
617.70	570.25
618.04	566.01
618.39	561.69
618.74	557.57
619.08	553.48
619.43	549.47
619.78	545.51
620.12	541.55
620.47	537.73
620.82	533.98
621.16	530.28
621.51	526.50
621.85	522.74
622.20	519.14
622.55	515.56
622.89	512.04
623.24	508.57
623.59	505.09
623.93	501.69
624.28	498.41
624.62	495.24
624.97	492.14
625.32	488.91
625.66	485.67
626.01	482.39
626.35	479.21
626.70	476.02
627.04	473.07
627.39	470.01
627.73	467.07
628.08	464.24
628.43	461.40
628.77	458.61
629.12	455.95
629.46	453.33
629.81	450.62
630.15	447.91
630.50	445.26
630.84	442.68
631.19	440.17
631.53	437.77
631.88	435.28
632.22	432.81
632.57	430.63
632.91	428.48
633.26	426.40
633.60	424.32
633.95	422.33
634.29	420.23
634.64	418.19
634.98	416.00
635.32	413.93
635.67	412.03
636.01	410.05
636.36	408.10
636.70	406.25
637.05	404.44
637.39	402.68
637.73	400.94
638.08	399.29
638.42	397.61
638.77	395.80
639.11	393.97
639.45	392.20
639.80	390.38
640.14	388.63
640.49	386.87
640.83	385.10
641.17	383.38
641.52	381.73
641.86	380.10
642.20	378.64
642.55	377.05
642.89	375.46
643.23	373.98
643.58	372.61
643.92	371.15
644.26	369.71
644.61	368.32
644.95	366.87
645.29	365.37
645.64	363.89
645.98	362.49
646.32	361.20
646.66	359.88
647.01	358.56
647.35	357.31
647.69	356.06
648.04	354.91
648.38	353.69
648.72	352.48
649.06	351.26
649.41	350.07
649.75	348.90
650.09	347.77
650.43	346.62
650.78	345.44
651.12	344.29
651.46	343.19
651.80	342.11
652.14	341.06
652.49	340.05
652.83	339.02
653.17	338.04
653.51	337.08
653.85	336.19
654.20	335.24
654.54	334.19
654.88	333.23
655.22	332.29
655.56	331.33
655.90	330.43
656.25	329.56
656.59	328.67
656.93	327.83
657.27	327.01
657.61	326.12
657.95	325.28
658.29	324.41
658.64	323.59
658.98	322.76
659.32	321.97
659.66	321.21
660.00	320.46
660.34	319.72
660.68	318.94
661.02	318.11
661.36	317.32
661.70	316.60
662.05	315.86
662.39	315.14
662.73	314.49
663.07	313.86
663.41	313.18
663.75	312.48
664.09	311.79
664.43	311.05
664.77	310.41
665.11	309.71
665.45	309.08
665.79	308.45
666.13	307.80
666.47	307.13
666.81	306.42
667.15	305.69
667.49	305.05
667.83	304.46
668.17	303.85
668.51	303.27
668.85	302.71
669.19	302.21
669.53	301.60
669.87	300.97
670.21	300.34
670.55	299.76
670.89	299.25
671.23	298.71
671.57	298.17
671.91	297.69
672.25	297.22
672.58	296.76
672.92	296.21
673.26	295.73
673.60	295.26
673.94	294.81
674.28	294.41
674.62	293.95
674.96	293.43
675.30	293.00
675.64	292.52
675.97	292.01
676.31	291.49
676.65	291.00
676.99	290.60
677.33	290.13
677.67	289.67
678.01	289.15
678.34	288.69
678.68	288.28
679.02	287.78
679.36	287.31
679.70	286.83
680.04	286.41
680.37	285.96
680.71	285.53
681.05	285.11
681.39	284.64
681.73	284.17
682.06	283.72
682.40	283.27
682.74	282.88
683.08	282.53
683.42	282.12
683.75	281.74
684.09	281.27
684.43	280.85
684.77	280.42
685.10	280.04
685.44	279.65
685.78	279.25
686.12	278.88
686.45	278.48
686.79	278.05
687.13	277.66
687.46	277.23
687.80	276.84
688.14	276.39
688.48	276.00
688.81	275.59
689.15	275.22
689.49	274.82
689.82	274.40
690.16	273.93
690.50	273.54
690.83	273.14
691.17	272.75
691.51	272.38
691.84	272.01
692.18	271.61
692.52	271.22
692.85	270.83
693.19	270.48
693.52	270.10
693.86	269.74
694.20	269.37
694.53	269.01
694.87	268.62
695.21	268.26
695.54	267.88
695.88	267.52
696.21	267.12
696.55	266.76
696.88	266.40
697.22	266.06
697.56	265.71
697.89	265.31
698.23	264.96
698.56	264.57
698.90	264.23
699.23	263.85
699.57	263.49
699.90	263.11
700.24	262.72
700.58	262.38
700.91	262.07
701.25	261.84
701.58	261.57
701.92	261.28
702.25	260.97
702.59	260.64
702.92	260.32
703.26	260.01
703.59	259.68
703.93	259.45
704.26	259.13
704.60	258.81
704.93	258.49
705.26	258.17
705.60	257.91
705.93	257.58
706.27	257.32
706.60	257.07
706.94	256.82
707.27	256.50
707.61	256.20
707.94	255.87
708.27	255.45
708.61	255.08
708.94	254.77
709.28	254.48
709.61	254.19
709.94	253.92
710.28	253.65
710.61	253.41
710.95	253.04
711.28	252.86
711.61	252.59
711.95	252.36
712.28	252.09
712.61	251.80
712.95	251.61
713.28	251.41
713.61	251.12
713.95	250.83
714.28	250.60
714.61	250.35
714.95	250.12
715.28	249.88
715.61	249.66
715.95	249.45
716.28	249.22
716.61	249.04
716.95	248.80
717.28	248.58
717.61	248.35
717.94	248.13
718.28	247.83
718.61	247.61
718.94	247.37
719.27	247.16
719.61	246.98
719.94	246.73
720.27	246.45
720.60	246.23
720.94	246.03
721.27	245.84
721.60	245.65
721.93	245.44
722.27	245.28
722.60	245.10
722.93	244.89
723.26	244.70
723.59	244.47
723.93	244.29
724.26	244.12
724.59	243.92
724.92	243.76
725.25	243.62
725.59	243.45
725.92	243.30
726.25	243.13
726.58	242.96
726.91	242.79
727.24	242.64
727.57	242.49
727.91	242.31
728.24	242.17
728.57	242.02
728.90	241.88
729.23	241.69
729.56	241.58
729.89	241.42
730.22	241.25
730.55	241.10
730.89	240.94
731.22	240.78
731.55	240.64
731.88	240.48
732.21	240.32
732.54	240.17
732.87	240.02
733.20	239.89
733.53	239.74
733.86	239.62
734.19	239.46
734.52	239.35
734.85	239.31
735.18	239.14
735.51	239.04
735.84	238.91
736.17	238.82
736.50	238.63
736.83	238.66
737.16	238.54
737.49	238.45
737.82	238.33
738.15	238.24
738.48	238.13
738.81	238.02
739.14	237.88
739.47	237.76
739.80	237.63
740.13	237.52
740.46	237.38
740.79	237.26
741.12	237.14
741.45	237.00
741.78	236.81
742.11	236.73
742.44	236.58
742.77	236.48
743.10	236.34
743.43	236.23
743.75	236.00
744.08	236.08
744.41	235.96
744.74	235.85
745.07	235.71
745.40	235.62
745.73	235.57
746.06	235.48
746.39	235.40
746.71	235.30
747.04	235.20
747.37	235.12
747.70	235.05
748.03	234.97
748.36	234.90
748.68	234.80
749.01	234.68
749.34	234.60
749.67	234.52
750.00	234.45
750.33	234.46
750.65	234.37
750.98	234.10
751.31	234.01
751.64	233.94
751.97	233.93
752.29	233.83
752.62	233.68
752.95	233.59
753.28	233.48
753.60	233.39
753.93	233.33
754.26	233.26
754.59	233.12
754.91	233.02
755.24	232.93
755.57	232.91
755.90	232.83
756.22	232.73
756.55	232.63
756.88	232.52
757.20	232.36
757.53	232.25
757.86	232.18
758.19	232.11
758.51	232.02
758.84	231.89
759.17	231.80
759.49	231.73
759.82	231.73
760.15	231.67
760.47	231.60
760.80	231.49
761.13	231.45
761.45	231.40
761.78	231.34
762.11	231.28
762.43	231.15
762.76	231.10
763.08	231.07
763.41	231.01
763.74	230.95
764.06	230.89
764.39	230.85
764.71	230.79
765.04	230.72
765.37	230.66
765.69	230.60
766.02	230.55
766.34	230.49
766.67	230.39
767.00	230.35
767.32	230.38
767.65	230.41
767.97	230.34
768.30	230.30
768.62	230.26
768.95	230.19
769.27	230.14
769.60	230.10
769.92	230.03
770.25	229.96
770.57	229.90
770.90	229.85
771.22	229.79
771.55	229.75
771.87	229.71
772.20	229.67
772.52	229.74
772.85	229.85
773.17	229.81
773.50	229.76
773.82	229.70
774.15	229.59
774.47	229.48
774.80	229.42
775.12	229.38
775.45	229.34
775.77	229.31
776.09	229.30
776.42	229.26
776.74	229.27
777.07	229.22
777.39	229.20
777.72	229.17
778.04	229.15
778.36	229.11
778.69	229.08
779.01	229.06
779.33	228.92
779.66	228.75
779.98	228.72
780.31	228.71
780.63	228.73
780.95	228.72
781.28	228.69
781.60	228.66
781.92	228.64
782.25	228.62
782.57	228.59
782.89	228.55
783.22	228.52
783.54	228.46
783.86	228.47
784.19	228.44
784.51	228.46
784.83	228.42
785.16	228.40
785.48	228.38
785.80	228.36
786.12	228.36
786.45	228.32
786.77	228.31
787.09	228.26
787.42	228.19
787.74	228.16
788.06	228.15
788.38	228.12
788.71	228.09
789.03	228.07
789.35	228.08
789.67	228.05
789.99	228.03
790.32	228.01
790.64	227.99
790.96	228.08
791.28	228.02
791.61	228.00
791.93	227.99
792.25	227.95
792.57	228.02
792.89	227.97
793.21	227.97
793.54	227.94
793.86	227.92
794.18	227.93
794.50	227.89
794.82	227.87
795.14	227.87
795.47	227.88
795.79	227.86
796.11	227.80
796.43	227.79
796.75	227.77
797.07	227.76
797.39	227.73
797.71	227.61
798.04	227.61
798.36	227.59
798.68	227.57
799.00	227.56
799.32	227.49
799.64	227.49
799.96	227.48
800.28	227.49
800.60	227.46
800.92	227.45
801.24	227.42
801.56	227.42
801.89	227.39
802.21	227.38
802.53	227.35
802.85	227.37
803.17	227.41
803.49	227.37
803.81	227.35
804.13	227.33
804.45	227.31
804.77	227.30
805.09	227.30
805.41	227.28
805.73	227.24
806.05	227.20
806.37	227.18
806.69	227.15
807.01	227.13
807.33	227.14
807.65	227.09
807.97	227.15
808.28	227.11
808.60	227.10
808.92	227.08
809.24	227.14
809.56	227.10
809.88	227.05
810.20	227.05
810.52	227.06
810.84	227.03
811.16	227.01
811.48	226.99
811.80	227.02
812.12	227.01
812.43	227.03
812.75	227.01
813.07	227.00
813.39	227.00
813.71	226.98
814.03	226.94
814.35	226.94
814.67	226.89
814.98	226.88
815.30	226.86
815.62	226.83
815.94	226.74
816.26	226.76
816.58	226.73
816.89	226.73
817.21	226.69
817.53	226.70
817.85	226.69
818.17	226.68
818.48	226.61
818.80	226.62
819.12	226.58
819.44	226.56
819.76	226.53
820.07	226.52
820.39	226.51
820.71	226.51
821.03	226.50
821.34	226.48
821.66	226.49
821.98	226.50
822.30	226.49
822.61	226.57
822.93	226.53
823.25	226.52
823.57	226.50
823.88	226.50
824.20	226.49
824.52	226.51
824.83	226.49
825.15	226.48
825.47	226.47
825.79	226.48
826.10	226.46
826.42	226.46
826.74	226.46
827.05	226.45
827.37	226.44
827.69	226.43
828.00	226.42
828.32	226.41
828.64	226.39
828.95	226.44
829.27	226.40
829.58	226.39
829.90	226.41
830.22	226.41
830.53	226.39
830.85	226.38
831.17	226.34
831.48	226.34
831.80	226.34
832.11	226.32
832.43	226.30
832.75	226.30
833.06	226.37
833.38	226.34
833.69	226.34
834.01	226.34
834.32	226.32
834.64	226.32
834.96	226.30
835.27	226.30
835.59	226.25
835.90	226.22
836.22	226.21
836.53	226.18
836.85	226.18
837.16	226.30
837.48	226.30
837.79	226.34
838.11	226.34
838.42	226.33
838.74	226.35
839.05	226.34
839.37	226.33
839.68	226.25
840.00	226.25
840.31	226.26
840.63	226.26
840.94	226.24
841.26	226.22
841.57	226.21
841.88	226.21
842.20	226.19
842.51	226.17
842.83	226.17
843.14	226.28
843.46	226.26
843.77	226.19
844.08	226.18
844.40	226.14
844.71	226.11
845.03	226.10
845.34	226.09
845.65	226.07
845.97	226.07
846.28	226.08
846.60	226.08
846.91	226.05
847.22	226.05
847.54	226.08
847.85	226.09
848.16	226.08
848.48	226.06
848.79	226.11
849.10	226.13
849.42	226.13
849.73	226.01
850.04	226.01
850.36	225.95
850.67	225.98
850.98	225.98
851.30	226.00
851.61	226.01
851.92	226.00
852.23	226.05
852.55	226.05
852.86	226.06
853.17	226.07
853.49	226.10
853.80	226.12
854.11	226.13
854.42	226.13
854.74	226.13
855.05	226.13
855.36	226.06
855.67	226.06
855.99	226.06
856.30	226.22
856.61	226.22
856.92	226.22
857.23	226.21
857.55	226.19
857.86	226.18
858.17	226.19
858.48	226.17
858.79	226.14
859.11	226.15
859.42	226.12
859.73	226.10
860.04	226.09
860.35	226.05
860.66	226.00
860.98	226.00
861.29	226.02
861.60	226.02
861.91	226.05
862.22	226.03
862.53	226.00
862.84	225.84
863.16	225.87
863.47	225.86
863.78	225.85
864.09	225.87
864.40	225.88
864.71	225.87
865.02	225.88
865.33	225.87
865.64	225.85
865.95	225.85
866.27	225.93
866.58	225.93
866.89	225.95
867.20	225.96
867.51	225.93
867.82	225.92
868.13	225.95
868.44	225.92
868.75	225.94
869.06	225.95
869.37	225.97
869.68	225.94
869.99	225.96
870.30	225.96
870.61	225.96
870.92	225.94
871.23	225.92
871.54	225.94
871.85	225.96
872.16	225.98
872.47	225.97
872.78	225.92
873.09	225.91
873.40	225.89
873.71	225.90
874.02	225.91
874.33	225.90
874.64	225.87
874.95	225.88
875.26	225.86
875.56	225.86
875.87	225.86
876.18	225.85
876.49	225.97
876.80	225.95
877.11	225.94
877.42	225.95
877.73	225.97
878.04	225.95
878.35	225.94
878.66	225.94
878.96	225.93
879.27	225.91
879.58	225.91
879.89	225.91
880.20	225.95
880.51	225.94
880.82	225.93
881.12	225.94
881.43	225.92
881.74	225.90
882.05	225.88
882.36	225.88
882.67	225.88
882.97	225.75
883.28	225.74
883.59	225.75
883.90	225.76
884.21	225.77
884.51	225.77
884.82	225.75
885.13	225.75
885.44	225.75
885.74	225.75
886.05	225.74
886.36	225.73
886.67	225.69
886.98	225.75
887.28	225.77
887.59	225.77
887.90	225.77
888.20	225.77
888.51	225.80
888.82	225.78
889.13	225.79
889.43	225.88
889.74	225.87
890.05	225.86
890.35	225.84
890.66	225.82
890.97	225.80
891.28	225.79
891.58	225.80
891.89	225.80
892.20	225.78
892.50	225.77
892.81	225.77
893.12	225.76
893.42	225.69
893.73	225.69
894.04	225.68
894.34	225.69
894.65	225.69
894.95	225.67
895.26	225.68
895.57	225.73
895.87	225.61
896.18	225.64
896.48	225.63
896.79	225.63
897.10	225.64
897.40	225.65
897.71	225.66
898.01	225.64
898.32	225.66
898.63	225.64
898.93	225.64
899.24	225.64
899.54	225.64
899.85	225.65
900.15	225.65
900.46	225.64
900.76	225.65
901.07	225.66
901.38	225.65
901.68	225.66
901.99	225.59
902.29	225.61
902.60	225.60
902.90	225.59
903.21	225.59
903.51	225.59
903.82	225.61
904.12	225.61
904.43	225.61
904.73	225.60
905.03	225.61
905.34	225.74
905.64	225.73
905.95	225.73
906.25	225.73
906.56	225.72
906.86	225.73
907.17	225.71
907.47	225.73
907.77	225.72
908.08	225.69
908.38	225.69
908.69	225.70
908.99	225.73
909.30	225.73
909.60	225.73
909.90	225.73
910.21	225.69
910.51	225.68
910.81	225.68
911.12	225.69
911.42	225.69
911.73	225.55
912.03	225.57
912.33	225.60
912.64	225.59
912.94	225.57
913.24	225.55
913.55	225.54
913.85	225.52
914.15	225.55
914.46	225.57
914.76	225.57
915.06	225.56
915.37	225.53
915.67	225.52
915.97	225.51
916.27	225.49
916.58	225.50
916.88	225.50
917.18	225.50
917.49	225.58
917.79	225.57
918.09	225.60
918.39	225.63
918.70	225.61
919.00	225.63
919.30	225.68
919.60	225.66
919.91	225.65
920.21	225.66
920.51	225.65
920.81	225.64
921.12	225.65
921.42	225.65
921.72	225.65
922.02	225.67
922.32	225.70
922.63	225.71
922.93	225.78
923.23	225.78
923.53	225.77
923.83	225.68
924.13	225.69
924.44	225.69
924.74	225.69
925.04	225.72
925.34	225.71
925.64	225.66
925.94	225.67
926.24	225.74
926.55	225.72
926.85	225.73
927.15	225.73
927.45	225.74
927.75	225.73
928.05	225.73
928.35	225.72
928.65	225.72
928.95	225.72
929.26	225.67
929.56	225.69
929.86	225.69
930.16	225.69
930.46	225.68
930.76	225.68
931.06	225.62
931.36	225.59
931.66	225.61
931.96	225.62
932.26	225.62
932.56	225.57
932.86	225.58
933.16	225.57
933.46	225.55
933.76	225.52
934.06	225.55
934.36	225.59
934.66	225.58
934.96	225.56
935.26	225.57
935.56	225.58
935.86	225.54
936.16	225.52
936.46	225.51
936.76	225.50
937.06	225.48
937.36	225.49
937.66	225.50
937.96	225.49
938.26	225.47
938.56	225.48
938.86	225.48
939.16	225.51
939.46	225.52
939.76	225.53
940.06	225.53
940.35	225.51
940.65	225.45
940.95	225.46
941.25	225.43
941.55	225.41
941.85	225.41
942.15	225.44
942.45	225.48
942.75	225.48
943.04	225.48
943.34	225.50
943.64	225.49
943.94	225.47
944.24	225.47
944.54	225.48
944.84	225.46
945.13	225.45
945.43	225.43
945.73	225.43
946.03	225.41
946.33	225.41
946.62	225.39
946.92	225.39
947.22	225.39
947.52	225.40
947.82	225.42
948.11	225.41
948.41	225.37
948.71	225.35
949.01	225.35
949.31	225.35
949.60	225.34
949.90	225.36
950.20	225.36
950.50	225.36
950.79	225.35
951.09	225.37
951.39	225.37
951.69	225.35
951.98	225.38
952.28	225.39
952.58	225.39
952.87	225.39
953.17	225.41
953.47	225.41
953.76	225.40
954.06	225.38
954.36	225.35
954.66	225.36
954.95	225.39
955.25	225.40
955.55	225.41
955.84	225.39
956.14	225.40
956.44	225.41
956.73	225.39
957.03	225.40
957.32	225.40
957.62	225.39
957.92	225.43
958.21	225.41
958.51	225.56
958.81	225.57
959.10	225.60
959.40	225.62
959.69	225.62
959.99	225.65
960.29	225.67
960.58	225.66
960.88	225.71
961.17	225.69
961.47	225.70
961.76	225.70
962.06	225.72
962.36	225.70
962.65	225.69
962.95	225.70
963.24	225.69
963.54	225.69
963.83	225.71
964.13	225.71
964.42	225.69
964.72	225.58
965.01	225.57
965.31	225.55
965.60	225.52
965.90	225.59
966.19	225.55
966.49	225.56
966.78	225.56
967.08	225.55
967.37	225.55
967.67	225.53
967.96	225.55
968.26	225.54
968.55	225.57
968.85	225.58
969.14	225.58
969.43	225.59
969.73	225.56
970.02	225.56
970.32	225.54
970.61	225.53
970.91	225.49
971.20	225.47
971.49	225.46
971.79	225.48
972.08	225.39
972.38	225.40
972.67	225.40
972.96	225.42
973.26	225.39
973.55	225.42
973.85	225.42
974.14	225.40
974.43	225.41
974.73	225.37
975.02	225.36
975.31	225.35
975.61	225.35
975.90	225.34
976.19	225.33
976.49	225.34
976.78	225.35
977.07	225.36
977.37	225.38
977.66	225.40
977.95	225.38
978.24	225.38
978.54	225.40
978.83	225.39
979.12	225.39
979.42	225.39
979.71	225.37
980.00	225.36
980.29	225.37
980.59	225.35
980.88	225.39
981.17	225.39
981.46	225.38
981.76	225.38
982.05	225.42
982.34	225.43
982.63	225.41
982.93	225.41
983.22	225.43
983.51	225.43
983.80	225.46
984.09	225.47
984.39	225.46
984.68	225.45
984.97	225.45
985.26	225.44
985.55	225.44
985.85	225.42
986.14	225.44
986.43	225.45
986.72	225.44
987.01	225.40
987.30	225.40
987.59	225.40
987.89	225.40
988.18	225.36
988.47	225.34
988.76	225.35
989.05	225.33
989.34	225.32
989.63	225.34
989.92	225.32
990.22	225.31
990.51	225.31
990.80	225.29
991.09	225.30
991.38	225.32
991.67	225.32
991.96	225.31
992.25	225.31
992.54	225.28
992.83	225.28
993.12	225.28
993.41	225.30
993.70	225.36
993.99	225.40
994.28	225.41
994.58	225.43
994.87	225.41
995.16	225.41
995.45	225.39
995.74	225.36
996.03	225.38
996.32	225.40
996.61	225.43
996.90	225.42
997.19	225.42
997.48	225.42
997.77	225.41
998.06	225.41
998.34	225.40
998.63	225.40
998.92	225.41
999.21	225.43
999.50	225.43
999.79	225.38
1000.08	225.36
1000.37	225.36
1000.66	225.35
1000.95	225.39
1001.24	225.40
1001.53	225.42
1001.82	225.41
1002.11	225.37
1002.40	225.37
1002.68	225.39
1002.97	225.48
1003.26	225.47
1003.55	225.45
1003.84	225.45
1004.13	225.49
1004.42	225.50
1004.71	225.50
1004.99	225.49
1005.28	225.50
1005.57	225.49
1005.86	225.49
1006.15	225.48
1006.44	225.46
1006.72	225.48
1007.01	225.45
1007.30	225.44
1007.59	225.42
1007.88	225.42
1008.17	225.43
1008.45	225.40
1008.74	225.35
1009.03	225.30
1009.32	225.30
1009.60	225.30
1009.89	225.30
1010.18	225.25
1010.47	225.24
1010.76	225.24
1011.04	225.24
1011.33	225.24
1011.62	225.26
1011.91	225.26
1012.19	225.27
1012.48	225.27
1012.77	225.27
1013.05	225.32
1013.34	225.32
1013.63	225.33
1013.92	225.34
1014.20	225.33
1014.49	225.34
1014.78	225.36
1015.06	225.32
1015.35	225.32
1015.64	225.33
1015.92	225.35
1016.21	225.35
1016.50	225.36
1016.78	225.36
1017.07	225.37
1017.36	225.35
1017.64	225.31
1017.93	225.33
1018.22	225.32
1018.50	225.33
1018.79	225.32
1019.08	225.26
1019.36	225.27
1019.65	225.26
1019.93	225.30
1020.22	225.32
1020.51	225.39
1020.79	225.37
1021.08	225.20
1021.36	225.27
1021.65	225.31
1021.94	225.14
1022.22	225.47
1022.51	225.07
1022.79	226.06
1023.08	225.69
1023.36	226.88
1023.65	225.05
>>>>>End Processed Spectral Data<<<<<
