SpectraSuite Data File
++++++++++++++++++++++++++++++++++++
Date: Fri Oct 02 16:09:07 EDT 2015
User: lab3
Dark Spectrum Present: No
Reference Spectrum Present: No
Number of Sampled Component Spectra: 1
Spectrometers: USB2E7196
Integration Time (usec): 46000 (USB2E7196)
Spectra Averaged: 1200 (USB2E7196)
Boxcar Smoothing: 10 (USB2E7196)
Correct for Electrical Dark: No (USB2E7196)
Strobe/Lamp Enabled: No (USB2E7196)
Correct for Detector Non-linearity: No (USB2E7196)
Correct for Stray Light: No (USB2E7196)
Number of Pixels in Processed Spectrum: 2048
>>>>>Begin Processed Spectral Data<<<<<
339.09	0.00
339.48	214.90
339.86	216.42
340.24	217.94
340.63	219.16
341.01	222.47
341.39	221.98
341.78	223.22
342.16	224.63
342.54	224.95
342.93	213.36
343.31	224.14
343.69	224.67
344.07	225.13
344.46	225.56
344.84	225.95
345.22	226.17
345.60	226.42
345.99	226.61
346.37	226.74
346.75	226.85
347.13	226.91
347.52	226.98
347.90	227.07
348.28	227.10
348.66	227.15
349.05	227.14
349.43	227.19
349.81	227.26
350.19	227.32
350.57	227.38
350.96	227.46
351.34	227.55
351.72	227.65
352.10	227.75
352.48	227.82
352.87	227.87
353.25	227.92
353.63	227.98
354.01	228.04
354.39	228.11
354.77	228.18
355.15	228.29
355.54	228.34
355.92	228.36
356.30	228.43
356.68	228.58
357.06	228.65
357.44	228.70
357.82	228.74
358.20	228.85
358.58	228.90
358.97	228.96
359.35	229.04
359.73	229.12
360.11	229.16
360.49	229.22
360.87	229.26
361.25	229.33
361.63	229.41
362.01	229.45
362.39	229.48
362.77	229.53
363.15	229.56
363.53	229.58
363.91	229.62
364.29	229.64
364.67	229.55
365.05	229.57
365.43	229.60
365.81	229.63
366.19	229.65
366.57	229.71
366.95	229.72
367.33	229.68
367.71	229.68
368.09	229.70
368.47	229.70
368.85	229.69
369.23	229.71
369.61	229.63
369.99	229.66
370.37	229.66
370.75	229.73
371.13	229.69
371.51	229.65
371.89	229.63
372.27	229.60
372.65	229.57
373.03	229.52
373.41	229.47
373.78	229.43
374.16	229.32
374.54	229.23
374.92	229.18
375.30	229.13
375.68	229.07
376.06	229.03
376.44	228.98
376.82	228.93
377.19	228.89
377.57	228.85
377.95	228.76
378.33	228.69
378.71	228.54
379.09	228.50
379.47	228.47
379.84	228.41
380.22	228.35
380.60	228.28
380.98	228.25
381.36	228.20
381.73	228.14
382.11	228.13
382.49	228.09
382.87	228.03
383.25	227.99
383.62	228.09
384.00	228.02
384.38	227.98
384.76	227.97
385.13	227.95
385.51	227.93
385.89	227.88
386.27	227.85
386.64	227.83
387.02	227.78
387.40	227.73
387.78	227.71
388.15	227.68
388.53	227.65
388.91	227.61
389.29	227.58
389.66	227.56
390.04	227.52
390.42	227.52
390.79	227.51
391.17	227.49
391.55	227.34
391.92	227.33
392.30	227.33
392.68	227.29
393.05	227.27
393.43	227.26
393.81	227.27
394.18	227.26
394.56	227.26
394.94	227.31
395.31	227.30
395.69	227.35
396.06	227.38
396.44	227.40
396.82	227.42
397.19	227.50
397.57	227.52
397.95	227.57
398.32	227.56
398.70	227.60
399.07	227.67
399.45	227.70
399.82	227.74
400.20	227.78
400.58	227.83
400.95	227.84
401.33	227.93
401.70	228.09
402.08	228.18
402.45	228.26
402.83	228.38
403.20	228.50
403.58	228.59
403.95	228.73
404.33	228.87
404.71	229.01
405.08	229.22
405.46	229.38
405.83	229.56
406.21	229.77
406.58	229.98
406.96	230.19
407.33	230.44
407.70	230.71
408.08	231.10
408.45	231.43
408.83	231.79
409.20	232.11
409.58	232.40
409.95	232.81
410.33	233.24
410.70	233.65
411.08	234.13
411.45	234.64
411.82	235.18
412.20	235.77
412.57	236.50
412.95	237.06
413.32	237.79
413.69	238.54
414.07	239.32
414.44	240.18
414.82	241.08
415.19	242.12
415.56	243.17
415.94	244.26
416.31	245.49
416.68	246.72
417.06	248.14
417.43	249.47
417.81	251.00
418.18	252.56
418.55	254.27
418.93	256.05
419.30	257.90
419.67	259.87
420.04	261.90
420.42	264.00
420.79	266.43
421.16	268.90
421.54	271.40
421.91	274.03
422.28	276.73
422.66	279.65
423.03	282.44
423.40	285.38
423.77	288.50
424.15	291.74
424.52	295.08
424.89	298.72
425.26	302.32
425.64	305.68
426.01	309.45
426.38	313.30
426.75	317.27
427.13	321.35
427.50	325.62
427.87	330.06
428.24	334.55
428.61	338.87
428.99	343.55
429.36	348.67
429.73	353.59
430.10	358.51
430.47	363.54
430.85	368.72
431.22	374.27
431.59	379.99
431.96	385.56
432.33	391.76
432.70	397.66
433.08	404.64
433.45	411.24
433.82	417.75
434.19	425.04
434.56	432.21
434.93	439.16
435.30	446.02
435.68	453.77
436.05	461.37
436.42	468.94
436.79	475.85
437.16	483.29
437.53	491.25
437.90	499.24
438.27	507.08
438.64	515.50
439.01	523.14
439.38	530.13
439.75	536.85
440.13	544.44
440.50	551.64
440.87	557.37
441.24	563.63
441.61	570.42
441.98	575.32
442.35	581.16
442.72	587.09
443.09	592.72
443.46	596.25
443.83	598.79
444.20	600.88
444.57	604.05
444.94	605.77
445.31	607.53
445.68	608.98
446.05	609.95
446.42	609.32
446.79	608.50
447.16	607.74
447.53	607.02
447.90	604.34
448.27	601.72
448.64	597.92
449.01	595.17
449.37	590.07
449.74	585.45
450.11	579.52
450.48	573.10
450.85	566.69
451.22	561.15
451.59	555.77
451.96	550.91
452.33	543.94
452.70	537.75
453.07	530.25
453.43	522.79
453.80	515.56
454.17	508.67
454.54	502.32
454.91	495.18
455.28	488.50
455.65	482.19
456.02	475.59
456.38	470.25
456.75	463.40
457.12	457.87
457.49	452.31
457.86	447.13
458.23	442.57
458.59	437.52
458.96	432.38
459.33	427.86
459.70	423.24
460.07	419.74
460.43	415.62
460.80	411.80
461.17	408.48
461.54	404.88
461.91	401.52
462.27	398.12
462.64	395.39
463.01	392.21
463.38	389.02
463.74	386.13
464.11	383.60
464.48	381.33
464.85	378.85
465.21	377.00
465.58	374.91
465.95	372.52
466.32	370.62
466.68	368.74
467.05	366.85
467.42	365.02
467.78	363.02
468.15	361.20
468.52	359.88
468.88	358.08
469.25	356.43
469.62	355.15
469.98	353.73
470.35	352.45
470.72	351.32
471.08	350.16
471.45	349.19
471.82	348.11
472.18	346.96
472.55	346.23
472.92	345.29
473.28	344.54
473.65	343.72
474.02	342.97
474.38	342.35
474.75	342.00
475.11	341.50
475.48	341.27
475.85	341.02
476.21	340.89
476.58	340.80
476.94	340.97
477.31	341.04
477.67	341.13
478.04	341.35
478.41	341.65
478.77	342.09
479.14	342.36
479.50	342.88
479.87	343.55
480.23	344.24
480.60	344.92
480.96	345.59
481.33	346.61
481.69	347.61
482.06	348.59
482.42	349.48
482.79	350.61
483.15	351.90
483.52	353.38
483.88	354.80
484.25	356.32
484.61	357.89
484.98	359.60
485.34	361.52
485.71	363.54
486.07	365.71
486.44	367.85
486.80	370.27
487.17	372.75
487.53	375.48
487.90	378.33
488.26	381.42
488.62	384.69
488.99	387.96
489.35	391.41
489.72	395.14
490.08	399.07
490.44	403.13
490.81	407.37
491.17	411.69
491.54	416.31
491.90	421.11
492.26	426.25
492.63	431.61
492.99	437.22
493.36	443.00
493.72	449.06
494.08	455.33
494.45	461.96
494.81	468.86
495.17	475.92
495.54	483.36
495.90	491.13
496.26	499.07
496.63	507.28
496.99	515.79
497.35	524.67
497.72	533.87
498.08	543.28
498.44	553.00
498.80	563.29
499.17	573.89
499.53	584.79
499.89	596.04
500.26	607.49
500.62	619.20
500.98	631.55
501.34	644.09
501.71	657.13
502.07	670.33
502.43	684.06
502.79	698.08
503.16	712.51
503.52	727.15
503.88	742.20
504.24	757.72
504.60	773.43
504.97	789.62
505.33	806.15
505.69	823.60
506.05	841.33
506.41	859.03
506.78	876.89
507.14	895.25
507.50	914.05
507.86	933.22
508.22	952.60
508.59	971.86
508.95	991.97
509.31	1012.73
509.67	1034.17
510.03	1055.58
510.39	1076.95
510.75	1098.63
511.12	1120.54
511.48	1142.56
511.84	1164.64
512.20	1187.08
512.56	1210.32
512.92	1233.57
513.28	1256.42
513.64	1279.48
514.00	1302.88
514.37	1326.59
514.73	1350.40
515.09	1374.04
515.45	1397.96
515.81	1422.09
516.17	1446.23
516.53	1469.82
516.89	1493.33
517.25	1517.08
517.61	1540.72
517.97	1564.76
518.33	1588.08
518.69	1611.31
519.05	1635.11
519.41	1659.07
519.77	1683.20
520.13	1706.65
520.49	1729.97
520.85	1753.61
521.21	1776.86
521.57	1800.62
521.93	1823.80
522.29	1847.31
522.65	1870.30
523.01	1893.24
523.37	1915.71
523.73	1938.94
524.09	1961.81
524.45	1984.53
524.81	2006.69
525.17	2028.53
525.53	2049.97
525.89	2071.99
526.25	2094.04
526.61	2114.97
526.97	2135.96
527.33	2156.84
527.68	2177.41
528.04	2197.32
528.40	2216.12
528.76	2235.18
529.12	2253.50
529.48	2271.62
529.84	2287.94
530.20	2304.97
530.56	2321.32
530.91	2337.83
531.27	2353.89
531.63	2369.12
531.99	2383.95
532.35	2398.17
532.71	2412.53
533.07	2427.25
533.42	2440.02
533.78	2453.89
534.14	2468.05
534.50	2481.16
534.86	2494.14
535.21	2505.22
535.57	2516.77
535.93	2528.20
536.29	2538.38
536.65	2548.57
537.00	2558.00
537.36	2568.45
537.72	2577.38
538.08	2585.81
538.44	2593.68
538.79	2601.13
539.15	2607.90
539.51	2614.16
539.87	2619.68
540.22	2623.56
540.58	2627.44
540.94	2632.81
541.29	2636.30
541.65	2637.96
542.01	2639.30
542.37	2639.87
542.72	2641.61
543.08	2641.87
543.44	2642.63
543.79	2642.44
544.15	2641.46
544.51	2640.71
544.87	2638.79
545.22	2636.11
545.58	2632.86
545.94	2629.53
546.29	2625.06
546.65	2620.64
547.01	2616.13
547.36	2612.36
547.72	2608.29
548.07	2603.10
548.43	2596.38
548.79	2588.80
549.14	2582.46
549.50	2576.26
549.86	2569.12
550.21	2561.13
550.57	2553.77
550.92	2544.32
551.28	2535.54
551.64	2526.95
551.99	2518.01
552.35	2508.60
552.70	2499.51
553.06	2490.95
553.41	2481.84
553.77	2472.37
554.13	2462.53
554.48	2452.17
554.84	2440.64
555.19	2429.91
555.55	2418.86
555.90	2407.77
556.26	2397.22
556.61	2385.79
556.97	2372.91
557.32	2360.65
557.68	2348.03
558.03	2335.38
558.39	2323.87
558.74	2312.45
559.10	2299.62
559.45	2286.99
559.81	2274.90
560.16	2262.41
560.52	2249.87
560.87	2237.51
561.23	2224.47
561.58	2211.87
561.94	2198.74
562.29	2185.21
562.64	2172.27
563.00	2159.03
563.35	2146.41
563.71	2133.56
564.06	2120.52
564.42	2108.04
564.77	2095.09
565.12	2082.30
565.48	2069.45
565.83	2056.66
566.19	2043.97
566.54	2031.10
566.89	2017.38
567.25	2003.80
567.60	1991.27
567.96	1978.10
568.31	1963.75
568.66	1950.15
569.02	1937.46
569.37	1924.72
569.72	1912.55
570.08	1899.12
570.43	1885.41
570.78	1871.32
571.14	1856.89
571.49	1843.11
571.84	1829.91
572.20	1815.56
572.55	1801.43
572.90	1787.12
573.26	1772.76
573.61	1757.97
573.96	1743.63
574.31	1729.42
574.67	1715.30
575.02	1700.30
575.37	1685.24
575.72	1671.18
576.08	1657.39
576.43	1642.65
576.78	1628.34
577.13	1614.29
577.49	1600.79
577.84	1587.76
578.19	1573.97
578.54	1560.21
578.90	1546.07
579.25	1531.81
579.60	1518.97
579.95	1506.00
580.30	1492.87
580.66	1479.52
581.01	1466.16
581.36	1452.88
581.71	1440.54
582.06	1427.98
582.42	1415.70
582.77	1403.60
583.12	1391.35
583.47	1378.92
583.82	1366.71
584.17	1354.15
584.53	1341.22
584.88	1328.55
585.23	1315.57
585.58	1303.45
585.93	1291.55
586.28	1280.19
586.63	1268.82
586.98	1257.04
587.34	1245.37
587.69	1233.56
588.04	1222.09
588.39	1211.06
588.74	1200.07
589.09	1188.92
589.44	1177.41
589.79	1166.47
590.14	1155.62
590.49	1144.69
590.84	1133.94
591.19	1123.40
591.54	1112.80
591.89	1102.40
592.25	1092.16
592.60	1081.64
592.95	1071.36
593.30	1061.30
593.65	1051.06
594.00	1040.85
594.35	1031.31
594.70	1021.32
595.05	1012.15
595.40	1002.94
595.75	993.47
596.10	984.49
596.45	975.27
596.80	966.36
597.15	957.32
597.50	948.36
597.85	939.79
598.19	931.10
598.54	922.52
598.89	914.21
599.24	906.18
599.59	898.06
599.94	890.78
600.29	883.32
600.64	875.56
600.99	867.51
601.34	859.87
601.69	851.82
602.04	844.39
602.39	836.84
602.74	829.32
603.08	821.82
603.43	814.32
603.78	806.94
604.13	799.73
604.48	792.44
604.83	785.37
605.18	778.17
605.53	771.22
605.87	764.08
606.22	757.30
606.57	750.46
606.92	743.45
607.27	736.45
607.62	729.80
607.96	723.45
608.31	717.46
608.66	711.27
609.01	705.39
609.36	699.66
609.70	693.64
610.05	687.61
610.40	681.82
610.75	676.07
611.10	670.62
611.44	665.04
611.79	659.56
612.14	654.00
612.49	648.57
612.83	643.32
613.18	638.20
613.53	632.99
613.88	627.84
614.22	623.11
614.57	618.22
614.92	613.15
615.27	608.25
615.61	603.40
615.96	598.61
616.31	593.82
616.65	589.11
617.00	584.60
617.35	580.16
617.70	575.80
618.04	571.49
618.39	567.12
618.74	562.96
619.08	558.85
619.43	554.82
619.78	550.80
620.12	546.78
620.47	542.91
620.82	539.11
621.16	535.31
621.51	531.44
621.85	527.66
622.20	524.06
622.55	520.45
622.89	516.88
623.24	513.37
623.59	509.85
623.93	506.42
624.28	503.11
624.62	499.90
624.97	496.71
625.32	493.47
625.66	490.19
626.01	486.87
626.35	483.63
626.70	480.41
627.04	477.38
627.39	474.30
627.73	471.33
628.08	468.46
628.43	465.58
628.77	462.79
629.12	460.06
629.46	457.36
629.81	454.62
630.15	451.89
630.50	449.20
630.84	446.61
631.19	444.07
631.53	441.61
631.88	439.08
632.22	436.60
632.57	434.38
632.91	432.19
633.26	430.07
633.60	427.97
633.95	425.96
634.29	423.82
634.64	421.73
634.98	419.49
635.32	417.43
635.67	415.49
636.01	413.47
636.36	411.50
636.70	409.66
637.05	407.81
637.39	406.01
637.73	404.25
638.08	402.57
638.42	400.85
638.77	399.04
639.11	397.19
639.45	395.40
639.80	393.55
640.14	391.79
640.49	390.03
640.83	388.23
641.17	386.49
641.52	384.81
641.86	383.16
642.20	381.69
642.55	380.05
642.89	378.46
643.23	376.92
643.58	375.56
643.92	374.06
644.26	372.59
644.61	371.16
644.95	369.68
645.29	368.17
645.64	366.66
645.98	365.21
646.32	363.91
646.66	362.55
647.01	361.23
647.35	359.96
647.69	358.68
648.04	357.52
648.38	356.27
648.72	355.06
649.06	353.85
649.41	352.64
649.75	351.47
650.09	350.31
650.43	349.17
650.78	347.96
651.12	346.78
651.46	345.65
651.80	344.54
652.14	343.48
652.49	342.45
652.83	341.42
653.17	340.40
653.51	339.41
653.85	338.49
654.20	337.50
654.54	336.45
654.88	335.46
655.22	334.50
655.56	333.53
655.90	332.60
656.25	331.71
656.59	330.79
656.93	329.93
657.27	329.08
657.61	328.17
657.95	327.31
658.29	326.45
658.64	325.63
658.98	324.82
659.32	324.00
659.66	323.23
660.00	322.47
660.34	321.72
660.68	320.93
661.02	320.10
661.36	319.31
661.70	318.55
662.05	317.80
662.39	317.07
662.73	316.42
663.07	315.76
663.41	315.07
663.75	314.36
664.09	313.65
664.43	312.91
664.77	312.25
665.11	311.56
665.45	310.93
665.79	310.29
666.13	309.61
666.47	308.93
666.81	308.23
667.15	307.49
667.49	306.85
667.83	306.27
668.17	305.66
668.51	305.08
668.85	304.53
669.19	304.02
669.53	303.41
669.87	302.76
670.21	302.14
670.55	301.55
670.89	301.04
671.23	300.51
671.57	299.99
671.91	299.50
672.25	299.01
672.58	298.52
672.92	297.97
673.26	297.49
673.60	297.02
673.94	296.56
674.28	296.14
674.62	295.68
674.96	295.17
675.30	294.71
675.64	294.22
675.97	293.72
676.31	293.18
676.65	292.69
676.99	292.28
677.33	291.78
677.67	291.32
678.01	290.79
678.34	290.32
678.68	289.88
679.02	289.38
679.36	288.90
679.70	288.42
680.04	287.98
680.37	287.52
680.71	287.08
681.05	286.65
681.39	286.17
681.73	285.68
682.06	285.21
682.40	284.76
682.74	284.35
683.08	283.98
683.42	283.55
683.75	283.17
684.09	282.70
684.43	282.30
684.77	281.88
685.10	281.51
685.44	281.12
685.78	280.71
686.12	280.34
686.45	279.93
686.79	279.50
687.13	279.10
687.46	278.68
687.80	278.29
688.14	277.85
688.48	277.47
688.81	277.07
689.15	276.71
689.49	276.30
689.82	275.90
690.16	275.44
690.50	275.07
690.83	274.66
691.17	274.26
691.51	273.88
691.84	273.52
692.18	273.11
692.52	272.69
692.85	272.29
693.19	271.94
693.52	271.56
693.86	271.18
694.20	270.81
694.53	270.45
694.87	270.05
695.21	269.67
695.54	269.30
695.88	268.93
696.21	268.52
696.55	268.17
696.88	267.81
697.22	267.44
697.56	267.08
697.89	266.68
698.23	266.32
698.56	265.94
698.90	265.58
699.23	265.20
699.57	264.84
699.90	264.48
700.24	264.09
700.58	263.77
700.91	263.48
701.25	263.27
701.58	263.01
701.92	262.72
702.25	262.41
702.59	262.09
702.92	261.76
703.26	261.44
703.59	261.10
703.93	260.88
704.26	260.58
704.60	260.26
704.93	259.95
705.26	259.64
705.60	259.38
705.93	259.05
706.27	258.80
706.60	258.54
706.94	258.30
707.27	257.98
707.61	257.67
707.94	257.33
708.27	256.90
708.61	256.53
708.94	256.22
709.28	255.92
709.61	255.62
709.94	255.35
710.28	255.09
710.61	254.85
710.95	254.47
711.28	254.29
711.61	254.02
711.95	253.79
712.28	253.50
712.61	253.21
712.95	253.02
713.28	252.83
713.61	252.54
713.95	252.24
714.28	252.02
714.61	251.76
714.95	251.52
715.28	251.28
715.61	251.05
715.95	250.83
716.28	250.61
716.61	250.42
716.95	250.19
717.28	249.96
717.61	249.71
717.94	249.49
718.28	249.18
718.61	248.95
718.94	248.72
719.27	248.51
719.61	248.32
719.94	248.06
720.27	247.77
720.60	247.57
720.94	247.37
721.27	247.16
721.60	246.98
721.93	246.77
722.27	246.62
722.60	246.43
722.93	246.22
723.26	246.02
723.59	245.79
723.93	245.60
724.26	245.43
724.59	245.24
724.92	245.07
725.25	244.94
725.59	244.76
725.92	244.60
726.25	244.43
726.58	244.26
726.91	244.08
727.24	243.94
727.57	243.77
727.91	243.57
728.24	243.43
728.57	243.25
728.90	243.11
729.23	242.91
729.56	242.81
729.89	242.65
730.22	242.48
730.55	242.33
730.89	242.18
731.22	242.03
731.55	241.87
731.88	241.72
732.21	241.55
732.54	241.39
732.87	241.25
733.20	241.11
733.53	240.98
733.86	240.85
734.19	240.69
734.52	240.58
734.85	240.53
735.18	240.37
735.51	240.28
735.84	240.15
736.17	240.05
736.50	239.85
736.83	239.88
737.16	239.75
737.49	239.64
737.82	239.52
738.15	239.41
738.48	239.29
738.81	239.17
739.14	239.05
739.47	238.92
739.80	238.79
740.13	238.67
740.46	238.53
740.79	238.40
741.12	238.29
741.45	238.14
741.78	237.96
742.11	237.88
742.44	237.74
742.77	237.64
743.10	237.50
743.43	237.39
743.75	237.15
744.08	237.24
744.41	237.12
744.74	237.01
745.07	236.87
745.40	236.79
745.73	236.75
746.06	236.64
746.39	236.57
746.71	236.47
747.04	236.38
747.37	236.28
747.70	236.20
748.03	236.12
748.36	236.05
748.68	235.95
749.01	235.82
749.34	235.73
749.67	235.65
750.00	235.58
750.33	235.59
750.65	235.52
750.98	235.25
751.31	235.16
751.64	235.09
751.97	235.07
752.29	234.98
752.62	234.83
752.95	234.74
753.28	234.64
753.60	234.55
753.93	234.50
754.26	234.44
754.59	234.31
754.91	234.22
755.24	234.13
755.57	234.12
755.90	234.03
756.22	233.94
756.55	233.83
756.88	233.73
757.20	233.57
757.53	233.45
757.86	233.37
758.19	233.32
758.51	233.25
758.84	233.11
759.17	233.03
759.49	232.97
759.82	232.97
760.15	232.91
760.47	232.84
760.80	232.73
761.13	232.67
761.45	232.63
761.78	232.57
762.11	232.51
762.43	232.37
762.76	232.32
763.08	232.27
763.41	232.23
763.74	232.18
764.06	232.13
764.39	232.09
764.71	232.04
765.04	231.97
765.37	231.90
765.69	231.84
766.02	231.80
766.34	231.74
766.67	231.63
767.00	231.60
767.32	231.62
767.65	231.65
767.97	231.59
768.30	231.53
768.62	231.49
768.95	231.43
769.27	231.39
769.60	231.37
769.92	231.30
770.25	231.22
770.57	231.16
770.90	231.10
771.22	231.05
771.55	231.01
771.87	230.98
772.20	230.94
772.52	231.01
772.85	231.12
773.17	231.08
773.50	231.04
773.82	230.98
774.15	230.88
774.47	230.76
774.80	230.72
775.12	230.67
775.45	230.63
775.77	230.61
776.09	230.59
776.42	230.55
776.74	230.57
777.07	230.53
777.39	230.50
777.72	230.47
778.04	230.45
778.36	230.40
778.69	230.36
779.01	230.33
779.33	230.19
779.66	230.01
779.98	229.98
780.31	229.96
780.63	229.98
780.95	229.97
781.28	229.94
781.60	229.90
781.92	229.89
782.25	229.87
782.57	229.84
782.89	229.80
783.22	229.76
783.54	229.70
783.86	229.69
784.19	229.66
784.51	229.68
784.83	229.62
785.16	229.60
785.48	229.58
785.80	229.56
786.12	229.54
786.45	229.51
786.77	229.50
787.09	229.47
787.42	229.40
787.74	229.38
788.06	229.36
788.38	229.33
788.71	229.29
789.03	229.28
789.35	229.27
789.67	229.23
789.99	229.22
790.32	229.17
790.64	229.16
790.96	229.26
791.28	229.19
791.61	229.17
791.93	229.16
792.25	229.14
792.57	229.21
792.89	229.17
793.21	229.16
793.54	229.12
793.86	229.09
794.18	229.07
794.50	229.03
794.82	229.01
795.14	229.02
795.47	229.03
795.79	229.02
796.11	228.97
796.43	228.95
796.75	228.93
797.07	228.94
797.39	228.91
797.71	228.79
798.04	228.79
798.36	228.79
798.68	228.76
799.00	228.75
799.32	228.68
799.64	228.69
799.96	228.68
800.28	228.70
800.60	228.69
800.92	228.69
801.24	228.66
801.56	228.66
801.89	228.63
802.21	228.62
802.53	228.57
802.85	228.58
803.17	228.63
803.49	228.60
803.81	228.57
804.13	228.56
804.45	228.52
804.77	228.52
805.09	228.50
805.41	228.47
805.73	228.43
806.05	228.38
806.37	228.35
806.69	228.33
807.01	228.29
807.33	228.29
807.65	228.24
807.97	228.29
808.28	228.26
808.60	228.24
808.92	228.20
809.24	228.27
809.56	228.24
809.88	228.18
810.20	228.18
810.52	228.19
810.84	228.15
811.16	228.13
811.48	228.12
811.80	228.15
812.12	228.14
812.43	228.16
812.75	228.16
813.07	228.14
813.39	228.14
813.71	228.12
814.03	228.10
814.35	228.10
814.67	228.04
814.98	228.02
815.30	228.01
815.62	228.00
815.94	227.91
816.26	227.92
816.58	227.90
816.89	227.90
817.21	227.86
817.53	227.87
817.85	227.87
818.17	227.85
818.48	227.79
818.80	227.80
819.12	227.77
819.44	227.74
819.76	227.72
820.07	227.71
820.39	227.70
820.71	227.69
821.03	227.69
821.34	227.67
821.66	227.70
821.98	227.71
822.30	227.69
822.61	227.76
822.93	227.72
823.25	227.71
823.57	227.70
823.88	227.71
824.20	227.70
824.52	227.73
824.83	227.73
825.15	227.72
825.47	227.69
825.79	227.70
826.10	227.69
826.42	227.68
826.74	227.69
827.05	227.69
827.37	227.68
827.69	227.67
828.00	227.66
828.32	227.65
828.64	227.62
828.95	227.69
829.27	227.66
829.58	227.66
829.90	227.67
830.22	227.68
830.53	227.65
830.85	227.64
831.17	227.60
831.48	227.58
831.80	227.58
832.11	227.57
832.43	227.55
832.75	227.55
833.06	227.63
833.38	227.58
833.69	227.56
834.01	227.57
834.32	227.57
834.64	227.55
834.96	227.53
835.27	227.53
835.59	227.49
835.90	227.46
836.22	227.44
836.53	227.41
836.85	227.39
837.16	227.51
837.48	227.50
837.79	227.55
838.11	227.56
838.42	227.57
838.74	227.57
839.05	227.56
839.37	227.55
839.68	227.46
840.00	227.45
840.31	227.47
840.63	227.45
840.94	227.44
841.26	227.42
841.57	227.42
841.88	227.42
842.20	227.40
842.51	227.37
842.83	227.37
843.14	227.49
843.46	227.49
843.77	227.41
844.08	227.41
844.40	227.35
844.71	227.34
845.03	227.32
845.34	227.31
845.65	227.31
845.97	227.30
846.28	227.32
846.60	227.33
846.91	227.31
847.22	227.30
847.54	227.33
847.85	227.34
848.16	227.34
848.48	227.31
848.79	227.35
849.10	227.37
849.42	227.37
849.73	227.24
850.04	227.23
850.36	227.19
850.67	227.21
850.98	227.22
851.30	227.22
851.61	227.22
851.92	227.21
852.23	227.24
852.55	227.25
852.86	227.25
853.17	227.25
853.49	227.27
853.80	227.29
854.11	227.29
854.42	227.30
854.74	227.29
855.05	227.29
855.36	227.23
855.67	227.23
855.99	227.24
856.30	227.39
856.61	227.38
856.92	227.37
857.23	227.37
857.55	227.35
857.86	227.33
858.17	227.35
858.48	227.32
858.79	227.29
859.11	227.30
859.42	227.29
859.73	227.27
860.04	227.26
860.35	227.22
860.66	227.18
860.98	227.16
861.29	227.18
861.60	227.17
861.91	227.20
862.22	227.17
862.53	227.14
862.84	226.98
863.16	227.01
863.47	226.98
863.78	226.97
864.09	226.98
864.40	226.99
864.71	226.99
865.02	227.02
865.33	227.00
865.64	226.97
865.95	226.97
866.27	227.05
866.58	227.04
866.89	227.06
867.20	227.06
867.51	227.04
867.82	227.03
868.13	227.06
868.44	227.03
868.75	227.06
869.06	227.07
869.37	227.08
869.68	227.05
869.99	227.08
870.30	227.09
870.61	227.10
870.92	227.09
871.23	227.07
871.54	227.08
871.85	227.12
872.16	227.13
872.47	227.12
872.78	227.03
873.09	227.05
873.40	227.04
873.71	227.05
874.02	227.05
874.33	227.05
874.64	227.02
874.95	227.04
875.26	226.99
875.56	227.00
875.87	226.99
876.18	226.99
876.49	227.10
876.80	227.09
877.11	227.05
877.42	227.05
877.73	227.06
878.04	227.04
878.35	227.03
878.66	227.04
878.96	227.04
879.27	227.04
879.58	227.03
879.89	227.03
880.20	227.05
880.51	227.05
880.82	227.06
881.12	227.05
881.43	227.04
881.74	227.03
882.05	227.01
882.36	227.03
882.67	227.03
882.97	226.90
883.28	226.88
883.59	226.89
883.90	226.90
884.21	226.90
884.51	226.90
884.82	226.89
885.13	226.88
885.44	226.87
885.74	226.88
886.05	226.86
886.36	226.86
886.67	226.81
886.98	226.88
887.28	226.88
887.59	226.89
887.90	226.88
888.20	226.88
888.51	226.91
888.82	226.89
889.13	226.89
889.43	227.01
889.74	227.00
890.05	227.00
890.35	226.99
890.66	226.97
890.97	226.96
891.28	226.95
891.58	226.94
891.89	226.93
892.20	226.91
892.50	226.91
892.81	226.90
893.12	226.91
893.42	226.83
893.73	226.85
894.04	226.85
894.34	226.86
894.65	226.85
894.95	226.84
895.26	226.85
895.57	226.91
895.87	226.78
896.18	226.80
896.48	226.80
896.79	226.79
897.10	226.80
897.40	226.80
897.71	226.81
898.01	226.80
898.32	226.82
898.63	226.82
898.93	226.84
899.24	226.84
899.54	226.83
899.85	226.82
900.15	226.80
900.46	226.80
900.76	226.81
901.07	226.81
901.38	226.80
901.68	226.81
901.99	226.74
902.29	226.77
902.60	226.75
902.90	226.75
903.21	226.75
903.51	226.74
903.82	226.77
904.12	226.77
904.43	226.79
904.73	226.78
905.03	226.79
905.34	226.91
905.64	226.90
905.95	226.90
906.25	226.90
906.56	226.91
906.86	226.90
907.17	226.89
907.47	226.90
907.77	226.88
908.08	226.84
908.38	226.84
908.69	226.84
908.99	226.87
909.30	226.87
909.60	226.87
909.90	226.89
910.21	226.86
910.51	226.84
910.81	226.84
911.12	226.84
911.42	226.84
911.73	226.71
912.03	226.73
912.33	226.75
912.64	226.75
912.94	226.74
913.24	226.73
913.55	226.73
913.85	226.71
914.15	226.75
914.46	226.77
914.76	226.76
915.06	226.75
915.37	226.73
915.67	226.73
915.97	226.73
916.27	226.70
916.58	226.71
916.88	226.71
917.18	226.70
917.49	226.78
917.79	226.78
918.09	226.80
918.39	226.84
918.70	226.82
919.00	226.83
919.30	226.89
919.60	226.87
919.91	226.86
920.21	226.87
920.51	226.84
920.81	226.83
921.12	226.85
921.42	226.85
921.72	226.85
922.02	226.85
922.32	226.86
922.63	226.86
922.93	226.93
923.23	226.94
923.53	226.93
923.83	226.85
924.13	226.86
924.44	226.85
924.74	226.85
925.04	226.89
925.34	226.89
925.64	226.83
925.94	226.84
926.24	226.91
926.55	226.90
926.85	226.91
927.15	226.91
927.45	226.90
927.75	226.90
928.05	226.91
928.35	226.90
928.65	226.92
928.95	226.92
929.26	226.86
929.56	226.88
929.86	226.88
930.16	226.87
930.46	226.86
930.76	226.86
931.06	226.81
931.36	226.77
931.66	226.79
931.96	226.80
932.26	226.80
932.56	226.74
932.86	226.76
933.16	226.76
933.46	226.75
933.76	226.74
934.06	226.76
934.36	226.79
934.66	226.79
934.96	226.76
935.26	226.76
935.56	226.78
935.86	226.75
936.16	226.75
936.46	226.73
936.76	226.73
937.06	226.72
937.36	226.73
937.66	226.74
937.96	226.72
938.26	226.69
938.56	226.69
938.86	226.70
939.16	226.73
939.46	226.73
939.76	226.75
940.06	226.75
940.35	226.74
940.65	226.68
940.95	226.69
941.25	226.66
941.55	226.65
941.85	226.63
942.15	226.66
942.45	226.69
942.75	226.70
943.04	226.70
943.34	226.73
943.64	226.72
943.94	226.70
944.24	226.71
944.54	226.71
944.84	226.71
945.13	226.69
945.43	226.66
945.73	226.67
946.03	226.66
946.33	226.66
946.62	226.64
946.92	226.64
947.22	226.65
947.52	226.67
947.82	226.68
948.11	226.68
948.41	226.66
948.71	226.63
949.01	226.63
949.31	226.62
949.60	226.61
949.90	226.63
950.20	226.62
950.50	226.61
950.79	226.61
951.09	226.63
951.39	226.63
951.69	226.61
951.98	226.63
952.28	226.62
952.58	226.62
952.87	226.62
953.17	226.63
953.47	226.62
953.76	226.62
954.06	226.60
954.36	226.57
954.66	226.57
954.95	226.61
955.25	226.62
955.55	226.63
955.84	226.60
956.14	226.61
956.44	226.62
956.73	226.59
957.03	226.61
957.32	226.60
957.62	226.60
957.92	226.63
958.21	226.62
958.51	226.76
958.81	226.77
959.10	226.78
959.40	226.81
959.69	226.81
959.99	226.82
960.29	226.83
960.58	226.83
960.88	226.88
961.17	226.86
961.47	226.87
961.76	226.85
962.06	226.88
962.36	226.85
962.65	226.86
962.95	226.87
963.24	226.86
963.54	226.87
963.83	226.87
964.13	226.85
964.42	226.85
964.72	226.74
965.01	226.75
965.31	226.74
965.60	226.71
965.90	226.77
966.19	226.75
966.49	226.75
966.78	226.74
967.08	226.72
967.37	226.72
967.67	226.70
967.96	226.73
968.26	226.72
968.55	226.75
968.85	226.74
969.14	226.75
969.43	226.74
969.73	226.72
970.02	226.72
970.32	226.72
970.61	226.69
970.91	226.65
971.20	226.63
971.49	226.63
971.79	226.64
972.08	226.56
972.38	226.56
972.67	226.56
972.96	226.59
973.26	226.56
973.55	226.59
973.85	226.58
974.14	226.57
974.43	226.57
974.73	226.55
975.02	226.54
975.31	226.53
975.61	226.54
975.90	226.53
976.19	226.52
976.49	226.54
976.78	226.55
977.07	226.55
977.37	226.56
977.66	226.57
977.95	226.55
978.24	226.56
978.54	226.59
978.83	226.59
979.12	226.58
979.42	226.58
979.71	226.54
980.00	226.54
980.29	226.55
980.59	226.52
980.88	226.55
981.17	226.55
981.46	226.56
981.76	226.56
982.05	226.60
982.34	226.61
982.63	226.61
982.93	226.60
983.22	226.64
983.51	226.64
983.80	226.65
984.09	226.68
984.39	226.69
984.68	226.65
984.97	226.66
985.26	226.65
985.55	226.67
985.85	226.65
986.14	226.68
986.43	226.69
986.72	226.69
987.01	226.64
987.30	226.65
987.59	226.65
987.89	226.65
988.18	226.60
988.47	226.59
988.76	226.58
989.05	226.57
989.34	226.54
989.63	226.58
989.92	226.57
990.22	226.54
990.51	226.53
990.80	226.53
991.09	226.55
991.38	226.57
991.67	226.55
991.96	226.54
992.25	226.54
992.54	226.52
992.83	226.52
993.12	226.54
993.41	226.55
993.70	226.59
993.99	226.62
994.28	226.64
994.58	226.66
994.87	226.65
995.16	226.64
995.45	226.64
995.74	226.59
996.03	226.60
996.32	226.61
996.61	226.65
996.90	226.65
997.19	226.63
997.48	226.62
997.77	226.61
998.06	226.62
998.34	226.62
998.63	226.62
998.92	226.63
999.21	226.65
999.50	226.64
999.79	226.60
1000.08	226.59
1000.37	226.59
1000.66	226.56
1000.95	226.60
1001.24	226.61
1001.53	226.62
1001.82	226.63
1002.11	226.60
1002.40	226.61
1002.68	226.63
1002.97	226.72
1003.26	226.71
1003.55	226.69
1003.84	226.69
1004.13	226.74
1004.42	226.72
1004.71	226.72
1004.99	226.71
1005.28	226.73
1005.57	226.73
1005.86	226.73
1006.15	226.72
1006.44	226.71
1006.72	226.73
1007.01	226.70
1007.30	226.70
1007.59	226.69
1007.88	226.68
1008.17	226.69
1008.45	226.66
1008.74	226.61
1009.03	226.55
1009.32	226.54
1009.60	226.55
1009.89	226.54
1010.18	226.48
1010.47	226.47
1010.76	226.47
1011.04	226.46
1011.33	226.46
1011.62	226.46
1011.91	226.46
1012.19	226.47
1012.48	226.47
1012.77	226.47
1013.05	226.51
1013.34	226.53
1013.63	226.50
1013.92	226.51
1014.20	226.50
1014.49	226.51
1014.78	226.52
1015.06	226.49
1015.35	226.50
1015.64	226.52
1015.92	226.54
1016.21	226.55
1016.50	226.56
1016.78	226.57
1017.07	226.58
1017.36	226.57
1017.64	226.55
1017.93	226.56
1018.22	226.56
1018.50	226.55
1018.79	226.55
1019.08	226.51
1019.36	226.51
1019.65	226.51
1019.93	226.54
1020.22	226.57
1020.51	226.63
1020.79	226.61
1021.08	226.48
1021.36	226.37
1021.65	226.52
1021.94	226.43
1022.22	226.74
1022.51	226.28
1022.79	227.03
1023.08	226.84
1023.36	228.02
1023.65	226.05
>>>>>End Processed Spectral Data<<<<<
