SpectraSuite Data File
++++++++++++++++++++++++++++++++++++
Date: Sun Oct 04 14:53:16 EDT 2015
User: lab3
Dark Spectrum Present: No
Reference Spectrum Present: No
Number of Sampled Component Spectra: 1
Spectrometers: USB2E7196
Integration Time (usec): 46000 (USB2E7196)
Spectra Averaged: 24000 (USB2E7196)
Boxcar Smoothing: 10 (USB2E7196)
Correct for Electrical Dark: No (USB2E7196)
Strobe/Lamp Enabled: No (USB2E7196)
Correct for Detector Non-linearity: No (USB2E7196)
Correct for Stray Light: No (USB2E7196)
Number of Pixels in Processed Spectrum: 2048
>>>>>Begin Processed Spectral Data<<<<<
339.09	0.00
339.48	214.47
339.86	215.99
340.24	217.29
340.63	218.80
341.01	222.02
341.39	221.45
341.78	222.87
342.16	224.04
342.54	224.49
342.93	212.92
343.31	223.67
343.69	224.21
344.07	224.67
344.46	225.11
344.84	225.50
345.22	225.73
345.60	225.99
345.99	226.18
346.37	226.32
346.75	226.43
347.13	226.51
347.52	226.59
347.90	226.68
348.28	226.72
348.66	226.79
349.05	226.79
349.43	226.85
349.81	226.91
350.19	226.97
350.57	227.04
350.96	227.13
351.34	227.23
351.72	227.33
352.10	227.44
352.48	227.51
352.87	227.56
353.25	227.63
353.63	227.69
354.01	227.75
354.39	227.83
354.77	227.91
355.15	228.02
355.54	228.07
355.92	228.09
356.30	228.17
356.68	228.32
357.06	228.40
357.44	228.44
357.82	228.50
358.20	228.62
358.58	228.68
358.97	228.74
359.35	228.83
359.73	228.91
360.11	228.96
360.49	229.02
360.87	229.07
361.25	229.14
361.63	229.23
362.01	229.28
362.39	229.31
362.77	229.35
363.15	229.38
363.53	229.41
363.91	229.45
364.29	229.47
364.67	229.37
365.05	229.39
365.43	229.42
365.81	229.46
366.19	229.47
366.57	229.53
366.95	229.53
367.33	229.50
367.71	229.49
368.09	229.51
368.47	229.51
368.85	229.50
369.23	229.51
369.61	229.45
369.99	229.47
370.37	229.47
370.75	229.54
371.13	229.51
371.51	229.46
371.89	229.44
372.27	229.42
372.65	229.40
373.03	229.36
373.41	229.32
373.78	229.27
374.16	229.16
374.54	229.08
374.92	229.03
375.30	228.99
375.68	228.92
376.06	228.88
376.44	228.82
376.82	228.78
377.19	228.73
377.57	228.68
377.95	228.59
378.33	228.53
378.71	228.37
379.09	228.33
379.47	228.30
379.84	228.23
380.22	228.17
380.60	228.10
380.98	228.05
381.36	228.00
381.73	227.94
382.11	227.92
382.49	227.88
382.87	227.82
383.25	227.78
383.62	227.89
384.00	227.82
384.38	227.79
384.76	227.77
385.13	227.77
385.51	227.73
385.89	227.68
386.27	227.65
386.64	227.63
387.02	227.58
387.40	227.54
387.78	227.52
388.15	227.50
388.53	227.47
388.91	227.44
389.29	227.41
389.66	227.41
390.04	227.37
390.42	227.36
390.79	227.36
391.17	227.34
391.55	227.18
391.92	227.17
392.30	227.18
392.68	227.14
393.05	227.12
393.43	227.12
393.81	227.13
394.18	227.12
394.56	227.12
394.94	227.16
395.31	227.16
395.69	227.21
396.06	227.24
396.44	227.27
396.82	227.28
397.19	227.38
397.57	227.39
397.95	227.44
398.32	227.44
398.70	227.49
399.07	227.57
399.45	227.61
399.82	227.67
400.20	227.71
400.58	227.78
400.95	227.80
401.33	227.89
401.70	228.06
402.08	228.17
402.45	228.27
402.83	228.40
403.20	228.53
403.58	228.63
403.95	228.79
404.33	228.96
404.71	229.12
405.08	229.35
405.46	229.54
405.83	229.75
406.21	229.97
406.58	230.22
406.96	230.47
407.33	230.75
407.70	231.07
408.08	231.50
408.45	231.87
408.83	232.28
409.20	232.66
409.58	233.00
409.95	233.46
410.33	233.96
410.70	234.44
411.08	234.99
411.45	235.58
411.82	236.18
412.20	236.86
412.57	237.67
412.95	238.32
413.32	239.15
413.69	240.00
414.07	240.91
414.44	241.90
414.82	242.91
415.19	244.09
415.56	245.28
415.94	246.53
416.31	247.92
416.68	249.31
417.06	250.93
417.43	252.44
417.81	254.18
418.18	255.96
418.55	257.90
418.93	259.92
419.30	262.02
419.67	264.26
420.04	266.56
420.42	268.95
420.79	271.71
421.16	274.50
421.54	277.33
421.91	280.30
422.28	283.38
422.66	286.70
423.03	289.87
423.40	293.20
423.77	296.76
424.15	300.41
424.52	304.21
424.89	308.33
425.26	312.42
425.64	316.22
426.01	320.50
426.38	324.87
426.75	329.37
427.13	334.00
427.50	338.84
427.87	343.87
428.24	348.95
428.61	353.84
428.99	359.12
429.36	364.92
429.73	370.46
430.10	376.00
430.47	381.65
430.85	387.48
431.22	393.74
431.59	400.15
431.96	406.42
432.33	413.38
432.70	419.99
433.08	427.81
433.45	435.21
433.82	442.50
434.19	450.62
434.56	458.64
434.93	466.40
435.30	474.05
435.68	482.71
436.05	491.19
436.42	499.64
436.79	507.35
437.16	515.67
437.53	524.58
437.90	533.50
438.27	542.24
438.64	551.68
439.01	560.21
439.38	568.04
439.75	575.57
440.13	584.06
440.50	592.14
440.87	598.54
441.24	605.55
441.61	613.19
441.98	618.73
442.35	625.35
442.72	632.09
443.09	638.51
443.46	642.55
443.83	645.49
444.20	647.93
444.57	651.62
444.94	653.66
445.31	655.79
445.68	657.55
446.05	658.84
446.42	658.34
446.79	657.61
447.16	656.96
447.53	656.35
447.90	653.55
448.27	650.85
448.64	646.80
449.01	643.95
449.37	638.38
449.74	633.38
450.11	626.88
450.48	619.81
450.85	612.76
451.22	606.74
451.59	600.86
451.96	595.53
452.33	587.81
452.70	580.98
453.07	572.63
453.43	564.35
453.80	556.28
454.17	548.57
454.54	541.49
454.91	533.48
455.28	525.99
455.65	518.91
456.02	511.42
456.38	505.42
456.75	497.69
457.12	491.48
457.49	485.20
457.86	479.32
458.23	474.15
458.59	468.41
458.96	462.52
459.33	457.34
459.70	452.06
460.07	448.06
460.43	443.35
460.80	438.95
461.17	435.13
461.54	430.96
461.91	427.07
462.27	423.11
462.64	419.93
463.01	416.24
463.38	412.53
463.74	409.22
464.11	406.27
464.48	403.62
464.85	400.72
465.21	398.53
465.58	396.08
465.95	393.27
466.32	391.04
466.68	388.85
467.05	386.64
467.42	384.48
467.78	382.14
468.15	379.99
468.52	378.42
468.88	376.30
469.25	374.36
469.62	372.82
469.98	371.12
470.35	369.62
470.72	368.25
471.08	366.86
471.45	365.68
471.82	364.37
472.18	362.98
472.55	362.07
472.92	360.92
473.28	360.02
473.65	359.05
474.02	358.12
474.38	357.33
474.75	356.84
475.11	356.18
475.48	355.84
475.85	355.48
476.21	355.27
476.58	355.09
476.94	355.18
477.31	355.20
477.67	355.25
478.04	355.41
478.41	355.68
478.77	356.08
479.14	356.32
479.50	356.84
479.87	357.53
480.23	358.22
480.60	358.91
480.96	359.59
481.33	360.64
481.69	361.67
482.06	362.71
482.42	363.65
482.79	364.83
483.15	366.21
483.52	367.79
483.88	369.29
484.25	370.91
484.61	372.60
484.98	374.42
485.34	376.47
485.71	378.62
486.07	380.93
486.44	383.24
486.80	385.81
487.17	388.48
487.53	391.40
487.90	394.45
488.26	397.78
488.62	401.30
488.99	404.82
489.35	408.53
489.72	412.57
490.08	416.82
490.44	421.20
490.81	425.75
491.17	430.41
491.54	435.41
491.90	440.57
492.26	446.09
492.63	451.87
492.99	457.90
493.36	464.15
493.72	470.70
494.08	477.43
494.45	484.59
494.81	492.01
495.17	499.65
495.54	507.72
495.90	516.10
496.26	524.66
496.63	533.49
496.99	542.64
497.35	552.21
497.72	562.08
498.08	572.17
498.44	582.61
498.80	593.69
499.17	605.04
499.53	616.74
499.89	628.82
500.26	641.14
500.62	653.78
500.98	667.10
501.34	680.61
501.71	694.67
502.07	708.91
502.43	723.71
502.79	738.74
503.16	754.26
503.52	769.96
503.88	786.16
504.24	802.83
504.60	819.71
504.97	837.11
505.33	854.95
505.69	873.75
506.05	892.93
506.41	912.01
506.78	931.28
507.14	951.06
507.50	971.31
507.86	991.92
508.22	1012.74
508.59	1033.35
508.95	1054.83
509.31	1077.14
509.67	1100.18
510.03	1123.21
510.39	1146.26
510.75	1169.44
511.12	1192.91
511.48	1216.50
511.84	1240.12
512.20	1264.22
512.56	1289.24
512.92	1314.25
513.28	1338.77
513.64	1363.54
514.00	1388.82
514.37	1414.40
514.73	1439.96
515.09	1465.36
515.45	1491.09
515.81	1516.96
516.17	1542.96
516.53	1568.38
516.89	1593.64
517.25	1619.11
517.61	1644.40
517.97	1670.16
518.33	1695.46
518.69	1720.65
519.05	1746.35
519.41	1772.32
519.77	1798.42
520.13	1823.70
520.49	1848.90
520.85	1874.52
521.21	1899.65
521.57	1925.17
521.93	1950.09
522.29	1975.53
522.65	2000.39
523.01	2025.24
523.37	2049.63
523.73	2074.77
524.09	2099.56
524.45	2124.08
524.81	2148.17
525.17	2172.11
525.53	2195.39
525.89	2219.13
526.25	2242.97
526.61	2265.79
526.97	2288.73
527.33	2311.61
527.68	2334.13
528.04	2355.75
528.40	2376.37
528.76	2397.20
529.12	2417.43
529.48	2437.38
529.84	2455.41
530.20	2474.17
530.56	2492.17
530.91	2510.34
531.27	2528.19
531.63	2545.08
531.99	2561.55
532.35	2577.20
532.71	2593.05
533.07	2609.63
533.42	2624.21
533.78	2639.83
534.14	2655.63
534.50	2670.40
534.86	2684.87
535.21	2697.28
535.57	2710.37
535.93	2723.24
536.29	2734.89
536.65	2746.38
537.00	2757.06
537.36	2768.80
537.72	2779.01
538.08	2788.77
538.44	2797.78
538.79	2806.20
539.15	2813.96
539.51	2821.31
539.87	2828.00
540.22	2832.61
540.58	2837.33
540.94	2843.38
541.29	2847.63
541.65	2849.99
542.01	2851.64
542.37	2852.68
542.72	2855.20
543.08	2855.78
543.44	2856.97
543.79	2857.14
544.15	2856.41
544.51	2856.12
544.87	2854.62
545.22	2852.30
545.58	2849.27
545.94	2846.35
546.29	2842.14
546.65	2837.87
547.01	2833.57
547.36	2830.11
547.72	2826.73
548.07	2821.48
548.43	2814.71
548.79	2806.95
549.14	2800.63
549.50	2794.58
549.86	2787.48
550.21	2779.24
550.57	2772.03
550.92	2762.40
551.28	2753.39
551.64	2744.86
551.99	2735.90
552.35	2726.21
552.70	2716.88
553.06	2707.89
553.41	2698.21
553.77	2688.32
554.13	2678.35
554.48	2667.46
554.84	2655.29
555.19	2643.60
555.55	2632.05
555.90	2620.59
556.26	2609.72
556.61	2597.69
556.97	2583.95
557.32	2570.68
557.68	2557.40
558.03	2543.92
558.39	2531.79
558.74	2519.90
559.10	2506.15
559.45	2492.61
559.81	2479.81
560.16	2466.36
560.52	2453.25
560.87	2440.50
561.23	2426.95
561.58	2413.48
561.94	2399.71
562.29	2385.27
562.64	2371.69
563.00	2357.75
563.35	2344.23
563.71	2330.56
564.06	2316.72
564.42	2303.81
564.77	2290.37
565.12	2276.79
565.48	2263.18
565.83	2249.50
566.19	2235.93
566.54	2222.26
566.89	2207.48
567.25	2192.97
567.60	2179.81
567.96	2165.66
568.31	2150.16
568.66	2135.43
569.02	2121.86
569.37	2108.26
569.72	2095.27
570.08	2080.96
570.43	2066.27
570.78	2051.39
571.14	2035.77
571.49	2020.94
571.84	2006.60
572.20	1990.96
572.55	1975.64
572.90	1960.21
573.26	1944.85
573.61	1928.96
573.96	1913.58
574.31	1898.51
574.67	1883.39
575.02	1867.22
575.37	1851.17
575.72	1836.02
576.08	1821.16
576.43	1805.24
576.78	1789.74
577.13	1774.49
577.49	1759.60
577.84	1745.39
578.19	1730.19
578.54	1715.22
578.90	1699.68
579.25	1684.07
579.60	1670.12
579.95	1656.00
580.30	1641.69
580.66	1627.10
581.01	1612.51
581.36	1597.92
581.71	1584.34
582.06	1570.62
582.42	1557.11
582.77	1543.68
583.12	1530.21
583.47	1516.65
583.82	1503.18
584.17	1489.39
584.53	1475.27
584.88	1461.54
585.23	1447.37
585.58	1434.04
585.93	1420.91
586.28	1408.53
586.63	1396.10
586.98	1383.19
587.34	1370.36
587.69	1357.34
588.04	1344.63
588.39	1332.28
588.74	1320.07
589.09	1307.59
589.44	1294.76
589.79	1282.62
590.14	1270.54
590.49	1258.38
590.84	1246.33
591.19	1234.70
591.54	1222.86
591.89	1211.19
592.25	1199.71
592.60	1187.87
592.95	1176.47
593.30	1165.29
593.65	1153.82
594.00	1142.50
594.35	1131.76
594.70	1120.60
595.05	1110.31
595.40	1099.90
595.75	1089.32
596.10	1079.30
596.45	1069.01
596.80	1059.06
597.15	1048.84
597.50	1038.79
597.85	1029.13
598.19	1019.33
598.54	1009.61
598.89	1000.34
599.24	991.41
599.59	982.23
599.94	974.00
600.29	965.56
600.64	956.84
600.99	947.76
601.34	939.05
601.69	930.01
602.04	921.65
602.39	913.11
602.74	904.63
603.08	896.11
603.43	887.58
603.78	879.23
604.13	871.01
604.48	862.77
604.83	854.75
605.18	846.67
605.53	838.78
605.87	830.69
606.22	822.88
606.57	815.01
606.92	807.10
607.27	799.09
607.62	791.40
607.96	784.14
608.31	777.30
608.66	770.24
609.01	763.47
609.36	756.81
609.70	749.93
610.05	743.06
610.40	736.44
610.75	729.81
611.10	723.52
611.44	717.09
611.79	710.77
612.14	704.37
612.49	698.06
612.83	692.03
613.18	686.14
613.53	680.18
613.88	674.24
614.22	668.68
614.57	663.08
614.92	657.31
615.27	651.66
615.61	646.08
615.96	640.55
616.31	635.01
616.65	629.53
617.00	624.27
617.35	619.09
617.70	613.98
618.04	608.92
618.39	603.78
618.74	598.87
619.08	594.02
619.43	589.29
619.78	584.55
620.12	579.79
620.47	575.19
620.82	570.69
621.16	566.22
621.51	561.67
621.85	557.15
622.20	552.82
622.55	548.52
622.89	544.29
623.24	540.07
623.59	535.90
623.93	531.87
624.28	527.94
624.62	524.10
624.97	520.30
625.32	516.47
625.66	512.60
626.01	508.71
626.35	504.88
626.70	501.11
627.04	497.50
627.39	493.82
627.73	490.32
628.08	486.90
628.43	483.48
628.77	480.13
629.12	476.90
629.46	473.69
629.81	470.40
630.15	467.10
630.50	463.91
630.84	460.78
631.19	457.70
631.53	454.72
631.88	451.70
632.22	448.71
632.57	445.99
632.91	443.30
633.26	440.70
633.60	438.11
633.95	435.58
634.29	432.97
634.64	430.44
634.98	427.71
635.32	425.13
635.67	422.73
636.01	420.27
636.36	417.85
636.70	415.57
637.05	413.28
637.39	411.04
637.73	408.81
638.08	406.68
638.42	404.54
638.77	402.27
639.11	399.95
639.45	397.72
639.80	395.44
640.14	393.27
640.49	391.07
640.83	388.86
641.17	386.76
641.52	384.69
641.86	382.64
642.20	380.81
642.55	378.82
642.89	376.86
643.23	374.99
643.58	373.27
643.92	371.43
644.26	369.65
644.61	367.92
644.95	366.17
645.29	364.34
645.64	362.54
645.98	360.83
646.32	359.25
646.66	357.65
647.01	356.07
647.35	354.52
647.69	352.97
648.04	351.55
648.38	350.04
648.72	348.57
649.06	347.10
649.41	345.63
649.75	344.22
650.09	342.84
650.43	341.45
650.78	340.03
651.12	338.64
651.46	337.31
651.80	336.00
652.14	334.71
652.49	333.48
652.83	332.22
653.17	331.02
653.51	329.83
653.85	328.70
654.20	327.52
654.54	326.29
654.88	325.14
655.22	324.02
655.56	322.90
655.90	321.84
656.25	320.80
656.59	319.75
656.93	318.76
657.27	317.79
657.61	316.77
657.95	315.79
658.29	314.81
658.64	313.88
658.98	312.95
659.32	312.06
659.66	311.20
660.00	310.37
660.34	309.53
660.68	308.67
661.02	307.79
661.36	306.94
661.70	306.14
662.05	305.35
662.39	304.57
662.73	303.86
663.07	303.15
663.41	302.40
663.75	301.66
664.09	300.93
664.43	300.16
664.77	299.46
665.11	298.73
665.45	298.07
665.79	297.41
666.13	296.71
666.47	296.00
666.81	295.29
667.15	294.55
667.49	293.91
667.83	293.33
668.17	292.72
668.51	292.15
668.85	291.61
669.19	291.10
669.53	290.49
669.87	289.88
670.21	289.29
670.55	288.75
670.89	288.27
671.23	287.75
671.57	287.25
671.91	286.79
672.25	286.35
672.58	285.91
672.92	285.40
673.26	284.97
673.60	284.55
673.94	284.13
674.28	283.76
674.62	283.34
674.96	282.87
675.30	282.47
675.64	282.03
675.97	281.58
676.31	281.11
676.65	280.69
676.99	280.33
677.33	279.90
677.67	279.51
678.01	279.04
678.34	278.66
678.68	278.29
679.02	277.86
679.36	277.45
679.70	277.04
680.04	276.67
680.37	276.29
680.71	275.93
681.05	275.58
681.39	275.20
681.73	274.79
682.06	274.41
682.40	274.05
682.74	273.73
683.08	273.46
683.42	273.12
683.75	272.82
684.09	272.44
684.43	272.13
684.77	271.81
685.10	271.52
685.44	271.21
685.78	270.90
686.12	270.61
686.45	270.29
686.79	269.97
687.13	269.68
687.46	269.36
687.80	269.06
688.14	268.72
688.48	268.43
688.81	268.14
689.15	267.88
689.49	267.56
689.82	267.25
690.16	266.88
690.50	266.59
690.83	266.29
691.17	265.99
691.51	265.69
691.84	265.42
692.18	265.11
692.52	264.80
692.85	264.51
693.19	264.25
693.52	263.97
693.86	263.68
694.20	263.40
694.53	263.13
694.87	262.82
695.21	262.54
695.54	262.26
695.88	261.97
696.21	261.66
696.55	261.40
696.88	261.12
697.22	260.86
697.56	260.59
697.89	260.28
698.23	260.02
698.56	259.73
698.90	259.46
699.23	259.17
699.57	258.90
699.90	258.63
700.24	258.33
700.58	258.09
700.91	257.87
701.25	257.72
701.58	257.52
701.92	257.31
702.25	257.08
702.59	256.82
702.92	256.58
703.26	256.33
703.59	256.07
703.93	255.92
704.26	255.69
704.60	255.44
704.93	255.19
705.26	254.93
705.60	254.73
705.93	254.46
706.27	254.27
706.60	254.07
706.94	253.89
707.27	253.63
707.61	253.38
707.94	253.12
708.27	252.76
708.61	252.47
708.94	252.21
709.28	251.97
709.61	251.74
709.94	251.53
710.28	251.33
710.61	251.14
710.95	250.82
711.28	250.69
711.61	250.47
711.95	250.30
712.28	250.08
712.61	249.85
712.95	249.72
713.28	249.57
713.61	249.33
713.95	249.08
714.28	248.90
714.61	248.69
714.95	248.49
715.28	248.30
715.61	248.12
715.95	247.95
716.28	247.76
716.61	247.61
716.95	247.40
717.28	247.21
717.61	247.01
717.94	246.84
718.28	246.56
718.61	246.37
718.94	246.17
719.27	245.99
719.61	245.84
719.94	245.62
720.27	245.36
720.60	245.19
720.94	245.02
721.27	244.85
721.60	244.71
721.93	244.53
722.27	244.41
722.60	244.25
722.93	244.07
723.26	243.90
723.59	243.71
723.93	243.56
724.26	243.40
724.59	243.23
724.92	243.09
725.25	242.98
725.59	242.83
725.92	242.70
726.25	242.56
726.58	242.41
726.91	242.25
727.24	242.13
727.57	241.98
727.91	241.82
728.24	241.70
728.57	241.54
728.90	241.42
729.23	241.24
729.56	241.15
729.89	241.01
730.22	240.86
730.55	240.73
730.89	240.59
731.22	240.45
731.55	240.32
731.88	240.18
732.21	240.02
732.54	239.89
732.87	239.76
733.20	239.64
733.53	239.51
733.86	239.40
734.19	239.26
734.52	239.16
734.85	239.13
735.18	238.98
735.51	238.90
735.84	238.78
736.17	238.70
736.50	238.53
736.83	238.56
737.16	238.46
737.49	238.36
737.82	238.25
738.15	238.16
738.48	238.06
738.81	237.95
739.14	237.83
739.47	237.71
739.80	237.60
740.13	237.50
740.46	237.38
740.79	237.25
741.12	237.15
741.45	237.03
741.78	236.85
742.11	236.79
742.44	236.65
742.77	236.57
743.10	236.45
743.43	236.34
743.75	236.11
744.08	236.21
744.41	236.10
744.74	236.00
745.07	235.88
745.40	235.81
745.73	235.77
746.06	235.69
746.39	235.62
746.71	235.53
747.04	235.43
747.37	235.34
747.70	235.28
748.03	235.21
748.36	235.14
748.68	235.06
749.01	234.94
749.34	234.86
749.67	234.78
750.00	234.72
750.33	234.73
750.65	234.66
750.98	234.39
751.31	234.32
751.64	234.26
751.97	234.25
752.29	234.16
752.62	234.02
752.95	233.94
753.28	233.84
753.60	233.76
753.93	233.72
754.26	233.66
754.59	233.54
754.91	233.45
755.24	233.37
755.57	233.35
755.90	233.28
756.22	233.19
756.55	233.10
756.88	233.00
757.20	232.84
757.53	232.74
757.86	232.66
758.19	232.60
758.51	232.53
758.84	232.40
759.17	232.32
759.49	232.26
759.82	232.26
760.15	232.21
760.47	232.15
760.80	232.05
761.13	232.01
761.45	231.96
761.78	231.90
762.11	231.85
762.43	231.72
762.76	231.67
763.08	231.63
763.41	231.59
763.74	231.54
764.06	231.49
764.39	231.44
764.71	231.39
765.04	231.33
765.37	231.27
765.69	231.22
766.02	231.17
766.34	231.11
766.67	231.01
767.00	230.99
767.32	231.01
767.65	231.04
767.97	230.98
768.30	230.94
768.62	230.89
768.95	230.83
769.27	230.79
769.60	230.76
769.92	230.70
770.25	230.63
770.57	230.57
770.90	230.53
771.22	230.48
771.55	230.44
771.87	230.41
772.20	230.37
772.52	230.43
772.85	230.55
773.17	230.52
773.50	230.47
773.82	230.41
774.15	230.32
774.47	230.20
774.80	230.15
775.12	230.12
775.45	230.08
775.77	230.06
776.09	230.03
776.42	230.00
776.74	230.01
777.07	229.98
777.39	229.96
777.72	229.92
778.04	229.91
778.36	229.87
778.69	229.84
779.01	229.83
779.33	229.69
779.66	229.51
779.98	229.48
780.31	229.46
780.63	229.49
780.95	229.48
781.28	229.46
781.60	229.42
781.92	229.40
782.25	229.37
782.57	229.35
782.89	229.32
783.22	229.28
783.54	229.23
783.86	229.22
784.19	229.19
784.51	229.21
784.83	229.17
785.16	229.15
785.48	229.12
785.80	229.10
786.12	229.09
786.45	229.07
786.77	229.06
787.09	229.03
787.42	228.96
787.74	228.94
788.06	228.93
788.38	228.91
788.71	228.88
789.03	228.87
789.35	228.86
789.67	228.83
789.99	228.82
790.32	228.78
790.64	228.78
790.96	228.88
791.28	228.81
791.61	228.79
791.93	228.78
792.25	228.75
792.57	228.82
792.89	228.79
793.21	228.78
793.54	228.75
793.86	228.72
794.18	228.71
794.50	228.67
794.82	228.65
795.14	228.65
795.47	228.66
795.79	228.64
796.11	228.60
796.43	228.58
796.75	228.56
797.07	228.56
797.39	228.53
797.71	228.41
798.04	228.41
798.36	228.40
798.68	228.38
799.00	228.37
799.32	228.30
799.64	228.30
799.96	228.28
800.28	228.29
800.60	228.28
800.92	228.27
801.24	228.25
801.56	228.25
801.89	228.22
802.21	228.21
802.53	228.18
802.85	228.19
803.17	228.24
803.49	228.20
803.81	228.17
804.13	228.16
804.45	228.13
804.77	228.13
805.09	228.11
805.41	228.09
805.73	228.06
806.05	228.01
806.37	227.99
806.69	227.96
807.01	227.94
807.33	227.94
807.65	227.88
807.97	227.93
808.28	227.90
808.60	227.88
808.92	227.85
809.24	227.92
809.56	227.89
809.88	227.83
810.20	227.83
810.52	227.85
810.84	227.82
811.16	227.80
811.48	227.78
811.80	227.81
812.12	227.80
812.43	227.81
812.75	227.81
813.07	227.79
813.39	227.79
813.71	227.76
814.03	227.74
814.35	227.74
814.67	227.68
814.98	227.66
815.30	227.64
815.62	227.62
815.94	227.52
816.26	227.53
816.58	227.50
816.89	227.50
817.21	227.46
817.53	227.46
817.85	227.46
818.17	227.45
818.48	227.39
818.80	227.41
819.12	227.38
819.44	227.35
819.76	227.33
820.07	227.32
820.39	227.31
820.71	227.32
821.03	227.31
821.34	227.30
821.66	227.31
821.98	227.32
822.30	227.31
822.61	227.39
822.93	227.36
823.25	227.35
823.57	227.33
823.88	227.34
824.20	227.33
824.52	227.34
824.83	227.33
825.15	227.32
825.47	227.30
825.79	227.31
826.10	227.30
826.42	227.29
826.74	227.29
827.05	227.28
827.37	227.28
827.69	227.27
828.00	227.27
828.32	227.26
828.64	227.23
828.95	227.29
829.27	227.25
829.58	227.25
829.90	227.27
830.22	227.27
830.53	227.24
830.85	227.23
831.17	227.19
831.48	227.18
831.80	227.19
832.11	227.17
832.43	227.15
832.75	227.14
833.06	227.22
833.38	227.18
833.69	227.17
834.01	227.17
834.32	227.16
834.64	227.15
834.96	227.15
835.27	227.14
835.59	227.09
835.90	227.07
836.22	227.06
836.53	227.03
836.85	227.02
837.16	227.14
837.48	227.14
837.79	227.18
838.11	227.18
838.42	227.17
838.74	227.19
839.05	227.18
839.37	227.17
839.68	227.09
840.00	227.09
840.31	227.10
840.63	227.08
840.94	227.07
841.26	227.05
841.57	227.05
841.88	227.06
842.20	227.04
842.51	227.02
842.83	227.01
843.14	227.12
843.46	227.12
843.77	227.04
844.08	227.03
844.40	226.99
844.71	226.97
845.03	226.96
845.34	226.95
845.65	226.94
845.97	226.94
846.28	226.94
846.60	226.95
846.91	226.93
847.22	226.92
847.54	226.95
847.85	226.95
848.16	226.94
848.48	226.91
848.79	226.96
849.10	226.97
849.42	226.97
849.73	226.85
850.04	226.85
850.36	226.80
850.67	226.82
850.98	226.82
851.30	226.83
851.61	226.83
851.92	226.82
852.23	226.86
852.55	226.87
852.86	226.87
853.17	226.87
853.49	226.90
853.80	226.92
854.11	226.93
854.42	226.94
854.74	226.93
855.05	226.94
855.36	226.87
855.67	226.87
855.99	226.87
856.30	227.02
856.61	227.01
856.92	227.01
857.23	227.01
857.55	227.00
857.86	226.99
858.17	227.01
858.48	226.99
858.79	226.96
859.11	226.97
859.42	226.96
859.73	226.94
860.04	226.93
860.35	226.89
860.66	226.85
860.98	226.84
861.29	226.85
861.60	226.84
861.91	226.87
862.22	226.85
862.53	226.83
862.84	226.68
863.16	226.71
863.47	226.68
863.78	226.66
864.09	226.67
864.40	226.68
864.71	226.68
865.02	226.69
865.33	226.68
865.64	226.66
865.95	226.66
866.27	226.73
866.58	226.72
866.89	226.74
867.20	226.74
867.51	226.72
867.82	226.71
868.13	226.74
868.44	226.72
868.75	226.74
869.06	226.75
869.37	226.76
869.68	226.73
869.99	226.75
870.30	226.76
870.61	226.77
870.92	226.75
871.23	226.74
871.54	226.75
871.85	226.78
872.16	226.80
872.47	226.79
872.78	226.71
873.09	226.72
873.40	226.71
873.71	226.72
874.02	226.73
874.33	226.72
874.64	226.69
874.95	226.71
875.26	226.68
875.56	226.68
875.87	226.67
876.18	226.67
876.49	226.78
876.80	226.77
877.11	226.75
877.42	226.75
877.73	226.75
878.04	226.73
878.35	226.73
878.66	226.73
878.96	226.73
879.27	226.72
879.58	226.71
879.89	226.71
880.20	226.74
880.51	226.73
880.82	226.73
881.12	226.74
881.43	226.71
881.74	226.70
882.05	226.69
882.36	226.70
882.67	226.71
882.97	226.57
883.28	226.56
883.59	226.56
883.90	226.57
884.21	226.58
884.51	226.58
884.82	226.56
885.13	226.56
885.44	226.55
885.74	226.56
886.05	226.55
886.36	226.55
886.67	226.50
886.98	226.57
887.28	226.58
887.59	226.57
887.90	226.58
888.20	226.57
888.51	226.60
888.82	226.58
889.13	226.59
889.43	226.70
889.74	226.69
890.05	226.69
890.35	226.67
890.66	226.65
890.97	226.64
891.28	226.63
891.58	226.63
891.89	226.63
892.20	226.61
892.50	226.60
892.81	226.59
893.12	226.59
893.42	226.53
893.73	226.53
894.04	226.53
894.34	226.54
894.65	226.53
894.95	226.52
895.26	226.52
895.57	226.58
895.87	226.45
896.18	226.47
896.48	226.47
896.79	226.48
897.10	226.50
897.40	226.51
897.71	226.52
898.01	226.51
898.32	226.52
898.63	226.52
898.93	226.53
899.24	226.53
899.54	226.52
899.85	226.52
900.15	226.51
900.46	226.51
900.76	226.52
901.07	226.52
901.38	226.51
901.68	226.52
901.99	226.45
902.29	226.47
902.60	226.45
902.90	226.44
903.21	226.44
903.51	226.43
903.82	226.45
904.12	226.45
904.43	226.45
904.73	226.45
905.03	226.45
905.34	226.57
905.64	226.57
905.95	226.57
906.25	226.57
906.56	226.56
906.86	226.56
907.17	226.55
907.47	226.55
907.77	226.55
908.08	226.52
908.38	226.53
908.69	226.53
908.99	226.56
909.30	226.56
909.60	226.56
909.90	226.56
910.21	226.52
910.51	226.50
910.81	226.49
911.12	226.50
911.42	226.50
911.73	226.37
912.03	226.38
912.33	226.41
912.64	226.40
912.94	226.39
913.24	226.37
913.55	226.36
913.85	226.35
914.15	226.38
914.46	226.39
914.76	226.38
915.06	226.37
915.37	226.34
915.67	226.33
915.97	226.33
916.27	226.32
916.58	226.33
916.88	226.33
917.18	226.32
917.49	226.40
917.79	226.39
918.09	226.41
918.39	226.44
918.70	226.42
919.00	226.43
919.30	226.49
919.60	226.49
919.91	226.48
920.21	226.48
920.51	226.46
920.81	226.45
921.12	226.47
921.42	226.47
921.72	226.48
922.02	226.48
922.32	226.50
922.63	226.51
922.93	226.58
923.23	226.58
923.53	226.57
923.83	226.49
924.13	226.50
924.44	226.50
924.74	226.51
925.04	226.54
925.34	226.53
925.64	226.48
925.94	226.48
926.24	226.55
926.55	226.54
926.85	226.56
927.15	226.56
927.45	226.55
927.75	226.55
928.05	226.55
928.35	226.54
928.65	226.56
928.95	226.57
929.26	226.50
929.56	226.53
929.86	226.54
930.16	226.53
930.46	226.52
930.76	226.52
931.06	226.47
931.36	226.43
931.66	226.45
931.96	226.47
932.26	226.47
932.56	226.42
932.86	226.43
933.16	226.43
933.46	226.42
933.76	226.40
934.06	226.42
934.36	226.46
934.66	226.46
934.96	226.44
935.26	226.45
935.56	226.47
935.86	226.43
936.16	226.41
936.46	226.40
936.76	226.40
937.06	226.38
937.36	226.38
937.66	226.39
937.96	226.38
938.26	226.35
938.56	226.34
938.86	226.35
939.16	226.37
939.46	226.38
939.76	226.39
940.06	226.38
940.35	226.36
940.65	226.30
940.95	226.31
941.25	226.28
941.55	226.26
941.85	226.25
942.15	226.28
942.45	226.32
942.75	226.32
943.04	226.32
943.34	226.35
943.64	226.34
943.94	226.32
944.24	226.32
944.54	226.33
944.84	226.33
945.13	226.31
945.43	226.29
945.73	226.28
946.03	226.27
946.33	226.26
946.62	226.25
946.92	226.25
947.22	226.25
947.52	226.27
947.82	226.28
948.11	226.27
948.41	226.24
948.71	226.20
949.01	226.21
949.31	226.20
949.60	226.19
949.90	226.21
950.20	226.21
950.50	226.20
950.79	226.19
951.09	226.21
951.39	226.21
951.69	226.20
951.98	226.22
952.28	226.23
952.58	226.23
952.87	226.23
953.17	226.25
953.47	226.23
953.76	226.23
954.06	226.21
954.36	226.19
954.66	226.19
954.95	226.22
955.25	226.23
955.55	226.24
955.84	226.22
956.14	226.23
956.44	226.24
956.73	226.22
957.03	226.23
957.32	226.23
957.62	226.22
957.92	226.25
958.21	226.24
958.51	226.38
958.81	226.40
959.10	226.41
959.40	226.44
959.69	226.45
959.99	226.46
960.29	226.47
960.58	226.46
960.88	226.51
961.17	226.50
961.47	226.50
961.76	226.49
962.06	226.51
962.36	226.49
962.65	226.50
962.95	226.51
963.24	226.50
963.54	226.50
963.83	226.51
964.13	226.50
964.42	226.49
964.72	226.39
965.01	226.39
965.31	226.38
965.60	226.34
965.90	226.42
966.19	226.39
966.49	226.40
966.78	226.40
967.08	226.38
967.37	226.38
967.67	226.36
967.96	226.39
968.26	226.38
968.55	226.40
968.85	226.39
969.14	226.38
969.43	226.38
969.73	226.37
970.02	226.36
970.32	226.35
970.61	226.33
970.91	226.30
971.20	226.28
971.49	226.27
971.79	226.29
972.08	226.20
972.38	226.21
972.67	226.20
972.96	226.22
973.26	226.20
973.55	226.23
973.85	226.23
974.14	226.22
974.43	226.22
974.73	226.20
975.02	226.18
975.31	226.19
975.61	226.19
975.90	226.18
976.19	226.17
976.49	226.18
976.78	226.19
977.07	226.19
977.37	226.20
977.66	226.21
977.95	226.20
978.24	226.21
978.54	226.23
978.83	226.22
979.12	226.21
979.42	226.21
979.71	226.19
980.00	226.19
980.29	226.19
980.59	226.17
980.88	226.20
981.17	226.20
981.46	226.20
981.76	226.20
982.05	226.24
982.34	226.25
982.63	226.24
982.93	226.24
983.22	226.27
983.51	226.28
983.80	226.30
984.09	226.31
984.39	226.30
984.68	226.28
984.97	226.29
985.26	226.28
985.55	226.29
985.85	226.27
986.14	226.29
986.43	226.30
986.72	226.30
987.01	226.26
987.30	226.26
987.59	226.25
987.89	226.25
988.18	226.22
988.47	226.21
988.76	226.20
989.05	226.18
989.34	226.16
989.63	226.20
989.92	226.17
990.22	226.15
990.51	226.15
990.80	226.14
991.09	226.15
991.38	226.16
991.67	226.15
991.96	226.14
992.25	226.14
992.54	226.12
992.83	226.12
993.12	226.11
993.41	226.13
993.70	226.19
993.99	226.21
994.28	226.22
994.58	226.24
994.87	226.23
995.16	226.23
995.45	226.22
995.74	226.18
996.03	226.20
996.32	226.22
996.61	226.25
996.90	226.25
997.19	226.24
997.48	226.24
997.77	226.23
998.06	226.23
998.34	226.22
998.63	226.22
998.92	226.23
999.21	226.25
999.50	226.25
999.79	226.21
1000.08	226.20
1000.37	226.20
1000.66	226.18
1000.95	226.22
1001.24	226.23
1001.53	226.24
1001.82	226.24
1002.11	226.21
1002.40	226.22
1002.68	226.25
1002.97	226.34
1003.26	226.32
1003.55	226.30
1003.84	226.31
1004.13	226.36
1004.42	226.35
1004.71	226.35
1004.99	226.34
1005.28	226.37
1005.57	226.36
1005.86	226.35
1006.15	226.34
1006.44	226.32
1006.72	226.33
1007.01	226.31
1007.30	226.31
1007.59	226.29
1007.88	226.29
1008.17	226.30
1008.45	226.27
1008.74	226.22
1009.03	226.16
1009.32	226.16
1009.60	226.16
1009.89	226.15
1010.18	226.10
1010.47	226.09
1010.76	226.10
1011.04	226.09
1011.33	226.09
1011.62	226.10
1011.91	226.11
1012.19	226.11
1012.48	226.12
1012.77	226.12
1013.05	226.16
1013.34	226.16
1013.63	226.15
1013.92	226.16
1014.20	226.15
1014.49	226.16
1014.78	226.17
1015.06	226.13
1015.35	226.14
1015.64	226.15
1015.92	226.17
1016.21	226.18
1016.50	226.19
1016.78	226.20
1017.07	226.21
1017.36	226.19
1017.64	226.17
1017.93	226.18
1018.22	226.17
1018.50	226.16
1018.79	226.16
1019.08	226.11
1019.36	226.12
1019.65	226.11
1019.93	226.14
1020.22	226.16
1020.51	226.23
1020.79	226.21
1021.08	225.96
1021.36	225.93
1021.65	226.15
1021.94	226.06
1022.22	226.25
1022.51	225.90
1022.79	226.74
1023.08	226.31
1023.36	227.66
1023.65	225.83
>>>>>End Processed Spectral Data<<<<<
