SpectraSuite Data File
++++++++++++++++++++++++++++++++++++
Date: Sun Oct 04 18:39:22 EDT 2015
User: lab3
Dark Spectrum Present: No
Reference Spectrum Present: No
Number of Sampled Component Spectra: 1
Spectrometers: USB2E7196
Integration Time (usec): 46000 (USB2E7196)
Spectra Averaged: 24000 (USB2E7196)
Boxcar Smoothing: 10 (USB2E7196)
Correct for Electrical Dark: No (USB2E7196)
Strobe/Lamp Enabled: No (USB2E7196)
Correct for Detector Non-linearity: No (USB2E7196)
Correct for Stray Light: No (USB2E7196)
Number of Pixels in Processed Spectrum: 2048
>>>>>Begin Processed Spectral Data<<<<<
339.09	0.00
339.48	214.84
339.86	216.29
340.24	217.66
340.63	219.07
341.01	222.37
341.39	221.76
341.78	223.18
342.16	224.39
342.54	224.76
342.93	213.22
343.31	223.99
343.69	224.52
344.07	224.99
344.46	225.42
344.84	225.81
345.22	226.03
345.60	226.30
345.99	226.50
346.37	226.63
346.75	226.75
347.13	226.83
347.52	226.90
347.90	227.00
348.28	227.03
348.66	227.10
349.05	227.10
349.43	227.15
349.81	227.22
350.19	227.28
350.57	227.35
350.96	227.43
351.34	227.53
351.72	227.63
352.10	227.74
352.48	227.82
352.87	227.87
353.25	227.94
353.63	228.00
354.01	228.06
354.39	228.14
354.77	228.21
355.15	228.32
355.54	228.37
355.92	228.40
356.30	228.48
356.68	228.62
357.06	228.70
357.44	228.75
357.82	228.81
358.20	228.93
358.58	228.98
358.97	229.05
359.35	229.13
359.73	229.22
360.11	229.27
360.49	229.33
360.87	229.38
361.25	229.44
361.63	229.53
362.01	229.58
362.39	229.61
362.77	229.66
363.15	229.68
363.53	229.71
363.91	229.75
364.29	229.77
364.67	229.68
365.05	229.70
365.43	229.73
365.81	229.77
366.19	229.78
366.57	229.84
366.95	229.84
367.33	229.81
367.71	229.81
368.09	229.83
368.47	229.82
368.85	229.81
369.23	229.82
369.61	229.76
369.99	229.78
370.37	229.78
370.75	229.85
371.13	229.82
371.51	229.78
371.89	229.76
372.27	229.74
372.65	229.71
373.03	229.67
373.41	229.63
373.78	229.58
374.16	229.47
374.54	229.39
374.92	229.34
375.30	229.30
375.68	229.23
376.06	229.19
376.44	229.14
376.82	229.10
377.19	229.05
377.57	229.00
377.95	228.91
378.33	228.85
378.71	228.69
379.09	228.65
379.47	228.62
379.84	228.55
380.22	228.49
380.60	228.43
380.98	228.38
381.36	228.33
381.73	228.27
382.11	228.25
382.49	228.21
382.87	228.15
383.25	228.11
383.62	228.22
384.00	228.15
384.38	228.11
384.76	228.10
385.13	228.10
385.51	228.06
385.89	228.01
386.27	227.98
386.64	227.97
387.02	227.92
387.40	227.88
387.78	227.86
388.15	227.83
388.53	227.80
388.91	227.78
389.29	227.74
389.66	227.74
390.04	227.70
390.42	227.70
390.79	227.70
391.17	227.68
391.55	227.52
391.92	227.51
392.30	227.52
392.68	227.48
393.05	227.47
393.43	227.47
393.81	227.48
394.18	227.46
394.56	227.47
394.94	227.51
395.31	227.51
395.69	227.56
396.06	227.59
396.44	227.62
396.82	227.64
397.19	227.73
397.57	227.75
397.95	227.80
398.32	227.80
398.70	227.85
399.07	227.93
399.45	227.97
399.82	228.03
400.20	228.07
400.58	228.14
400.95	228.16
401.33	228.26
401.70	228.42
402.08	228.54
402.45	228.64
402.83	228.77
403.20	228.89
403.58	229.00
403.95	229.16
404.33	229.33
404.71	229.49
405.08	229.72
405.46	229.91
405.83	230.12
406.21	230.35
406.58	230.60
406.96	230.85
407.33	231.13
407.70	231.46
408.08	231.89
408.45	232.27
408.83	232.68
409.20	233.06
409.58	233.41
409.95	233.88
410.33	234.39
410.70	234.87
411.08	235.44
411.45	236.04
411.82	236.65
412.20	237.34
412.57	238.16
412.95	238.82
413.32	239.67
413.69	240.54
414.07	241.46
414.44	242.47
414.82	243.49
415.19	244.69
415.56	245.91
415.94	247.18
416.31	248.60
416.68	250.02
417.06	251.66
417.43	253.20
417.81	254.97
418.18	256.78
418.55	258.75
418.93	260.81
419.30	262.95
419.67	265.23
420.04	267.57
420.42	270.00
420.79	272.81
421.16	275.65
421.54	278.53
421.91	281.56
422.28	284.69
422.66	288.08
423.03	291.30
423.40	294.69
423.77	298.32
424.15	302.05
424.52	305.92
424.89	310.11
425.26	314.28
425.64	318.16
426.01	322.52
426.38	326.98
426.75	331.56
427.13	336.27
427.50	341.21
427.87	346.33
428.24	351.52
428.61	356.51
428.99	361.89
429.36	367.81
429.73	373.45
430.10	379.10
430.47	384.86
430.85	390.80
431.22	397.18
431.59	403.71
431.96	410.10
432.33	417.20
432.70	423.94
433.08	431.91
433.45	439.46
433.82	446.90
434.19	455.18
434.56	463.37
434.93	471.27
435.30	479.07
435.68	487.91
436.05	496.56
436.42	505.18
436.79	513.05
437.16	521.53
437.53	530.62
437.90	539.72
438.27	548.63
438.64	558.26
439.01	566.96
439.38	574.95
439.75	582.62
440.13	591.28
440.50	599.52
440.87	606.05
441.24	613.19
441.61	620.97
441.98	626.61
442.35	633.35
442.72	640.21
443.09	646.76
443.46	650.86
443.83	653.84
444.20	656.31
444.57	660.06
444.94	662.11
445.31	664.26
445.68	666.03
446.05	667.34
446.42	666.80
446.79	666.03
447.16	665.34
447.53	664.69
447.90	661.81
448.27	659.03
448.64	654.86
449.01	651.93
449.37	646.23
449.74	641.11
450.11	634.46
450.48	627.22
450.85	620.01
451.22	613.85
451.59	607.84
451.96	602.40
452.33	594.51
452.70	587.53
453.07	579.01
453.43	570.56
453.80	562.32
454.17	554.45
454.54	547.23
454.91	539.06
455.28	531.42
455.65	524.20
456.02	516.56
456.38	510.46
456.75	502.58
457.12	496.25
457.49	489.85
457.86	483.85
458.23	478.59
458.59	472.74
458.96	466.73
459.33	461.46
459.70	456.08
460.07	452.00
460.43	447.21
460.80	442.73
461.17	438.84
461.54	434.59
461.91	430.63
462.27	426.60
462.64	423.36
463.01	419.60
463.38	415.82
463.74	412.45
464.11	409.44
464.48	406.74
464.85	403.78
465.21	401.56
465.58	399.05
465.95	396.19
466.32	393.92
466.68	391.68
467.05	389.43
467.42	387.23
467.78	384.85
468.15	382.66
468.52	381.06
468.88	378.89
469.25	376.92
469.62	375.34
469.98	373.61
470.35	372.07
470.72	370.68
471.08	369.26
471.45	368.05
471.82	366.71
472.18	365.29
472.55	364.36
472.92	363.20
473.28	362.28
473.65	361.29
474.02	360.34
474.38	359.54
474.75	359.04
475.11	358.37
475.48	358.01
475.85	357.64
476.21	357.42
476.58	357.23
476.94	357.32
477.31	357.34
477.67	357.38
478.04	357.55
478.41	357.82
478.77	358.22
479.14	358.46
479.50	358.98
479.87	359.68
480.23	360.38
480.60	361.07
480.96	361.76
481.33	362.81
481.69	363.86
482.06	364.91
482.42	365.85
482.79	367.05
483.15	368.45
483.52	370.03
483.88	371.56
484.25	373.20
484.61	374.90
484.98	376.74
485.34	378.82
485.71	381.00
486.07	383.33
486.44	385.68
486.80	388.27
487.17	390.98
487.53	393.93
487.90	397.02
488.26	400.39
488.62	403.95
488.99	407.51
489.35	411.27
489.72	415.35
490.08	419.66
490.44	424.10
490.81	428.70
491.17	433.42
491.54	438.48
491.90	443.70
492.26	449.29
492.63	455.14
492.99	461.25
493.36	467.57
493.72	474.22
494.08	481.02
494.45	488.27
494.81	495.79
495.17	503.53
495.54	511.70
495.90	520.18
496.26	528.86
496.63	537.78
496.99	547.04
497.35	556.72
497.72	566.71
498.08	576.92
498.44	587.49
498.80	598.70
499.17	610.18
499.53	622.02
499.89	634.24
500.26	646.70
500.62	659.49
500.98	672.96
501.34	686.63
501.71	700.85
502.07	715.25
502.43	730.22
502.79	745.42
503.16	761.10
503.52	777.00
503.88	793.37
504.24	810.24
504.60	827.32
504.97	844.93
505.33	862.98
505.69	882.00
506.05	901.39
506.41	920.67
506.78	940.15
507.14	960.14
507.50	980.62
507.86	1001.45
508.22	1022.48
508.59	1043.29
508.95	1065.01
509.31	1087.57
509.67	1110.86
510.03	1134.14
510.39	1157.40
510.75	1180.83
511.12	1204.55
511.48	1228.40
511.84	1252.26
512.20	1276.60
512.56	1301.86
512.92	1327.10
513.28	1351.84
513.64	1376.84
514.00	1402.37
514.37	1428.17
514.73	1453.99
515.09	1479.64
515.45	1505.60
515.81	1531.72
516.17	1557.99
516.53	1583.63
516.89	1609.09
517.25	1634.80
517.61	1660.31
517.97	1686.34
518.33	1711.86
518.69	1737.27
519.05	1763.18
519.41	1789.36
519.77	1815.67
520.13	1841.18
520.49	1866.58
520.85	1892.42
521.21	1917.75
521.57	1943.48
521.93	1968.62
522.29	1994.26
522.65	2019.33
523.01	2044.42
523.37	2068.99
523.73	2094.29
524.09	2119.29
524.45	2144.02
524.81	2168.30
525.17	2192.42
525.53	2215.83
525.89	2239.71
526.25	2263.70
526.61	2286.69
526.97	2309.80
527.33	2332.85
527.68	2355.50
528.04	2377.28
528.40	2398.04
528.76	2419.00
529.12	2439.37
529.48	2459.47
529.84	2477.61
530.20	2496.46
530.56	2514.55
530.91	2532.82
531.27	2550.79
531.63	2567.75
531.99	2584.26
532.35	2599.99
532.71	2615.92
533.07	2632.58
533.42	2647.22
533.78	2662.93
534.14	2678.77
534.50	2693.58
534.86	2708.13
535.21	2720.65
535.57	2733.78
535.93	2746.65
536.29	2758.36
536.65	2769.90
537.00	2780.63
537.36	2792.40
537.72	2802.61
538.08	2812.43
538.44	2821.47
538.79	2829.92
539.15	2837.71
539.51	2845.09
539.87	2851.78
540.22	2856.39
540.58	2861.08
540.94	2867.16
541.29	2871.38
541.65	2873.71
542.01	2875.31
542.37	2876.29
542.72	2878.71
543.08	2879.21
543.44	2880.33
543.79	2880.42
544.15	2879.57
544.51	2879.14
544.87	2877.50
545.22	2875.10
545.58	2871.96
545.94	2868.94
546.29	2864.60
546.65	2860.18
547.01	2855.74
547.36	2852.13
547.72	2848.59
548.07	2843.22
548.43	2836.29
548.79	2828.41
549.14	2821.96
549.50	2815.76
549.86	2808.55
550.21	2800.18
550.57	2792.84
550.92	2783.10
551.28	2774.00
551.64	2765.36
551.99	2756.31
552.35	2746.57
552.70	2737.13
553.06	2728.05
553.41	2718.28
553.77	2708.23
554.13	2698.13
554.48	2687.12
554.84	2674.83
555.19	2663.05
555.55	2651.34
555.90	2639.75
556.26	2628.72
556.61	2616.57
556.97	2602.72
557.32	2589.36
557.68	2575.93
558.03	2562.33
558.39	2550.03
558.74	2537.98
559.10	2524.04
559.45	2510.33
559.81	2497.37
560.16	2483.80
560.52	2470.48
560.87	2457.55
561.23	2443.86
561.58	2430.30
561.94	2416.36
562.29	2401.82
562.64	2388.07
563.00	2373.99
563.35	2360.36
563.71	2346.57
564.06	2332.57
564.42	2319.47
564.77	2305.85
565.12	2292.12
565.48	2278.38
565.83	2264.62
566.19	2250.93
566.54	2237.17
566.89	2222.25
567.25	2207.61
567.60	2194.29
567.96	2180.01
568.31	2164.41
568.66	2149.58
569.02	2135.89
569.37	2122.17
569.72	2109.05
570.08	2094.59
570.43	2079.79
570.78	2064.74
571.14	2048.98
571.49	2034.03
571.84	2019.57
572.20	2003.76
572.55	1988.31
572.90	1972.73
573.26	1957.17
573.61	1941.13
573.96	1925.61
574.31	1910.41
574.67	1895.10
575.02	1878.79
575.37	1862.57
575.72	1847.25
576.08	1832.24
576.43	1816.18
576.78	1800.53
577.13	1785.15
577.49	1770.15
577.84	1755.82
578.19	1740.51
578.54	1725.45
578.90	1709.80
579.25	1694.06
579.60	1680.00
579.95	1665.75
580.30	1651.30
580.66	1636.61
581.01	1621.87
581.36	1607.14
581.71	1593.44
582.06	1579.60
582.42	1565.97
582.77	1552.43
583.12	1538.81
583.47	1525.10
583.82	1511.49
584.17	1497.59
584.53	1483.32
584.88	1469.43
585.23	1455.11
585.58	1441.68
585.93	1428.44
586.28	1415.93
586.63	1403.40
586.98	1390.38
587.34	1377.44
587.69	1364.30
588.04	1351.48
588.39	1339.03
588.74	1326.70
589.09	1314.11
589.44	1301.18
589.79	1288.96
590.14	1276.81
590.49	1264.58
590.84	1252.48
591.19	1240.76
591.54	1228.84
591.89	1217.07
592.25	1205.52
592.60	1193.59
592.95	1182.09
593.30	1170.77
593.65	1159.21
594.00	1147.77
594.35	1136.95
594.70	1125.71
595.05	1115.38
595.40	1104.92
595.75	1094.29
596.10	1084.21
596.45	1073.84
596.80	1063.80
597.15	1053.48
597.50	1043.34
597.85	1033.60
598.19	1023.71
598.54	1013.92
598.89	1004.55
599.24	995.54
599.59	986.30
599.94	978.03
600.29	969.53
600.64	960.76
600.99	951.62
601.34	942.87
601.69	933.78
602.04	925.37
602.39	916.78
602.74	908.23
603.08	899.66
603.43	891.06
603.78	882.65
604.13	874.40
604.48	866.14
604.83	858.07
605.18	849.92
605.53	841.98
605.87	833.83
606.22	826.00
606.57	818.08
606.92	810.12
607.27	802.05
607.62	794.33
607.96	787.01
608.31	780.13
608.66	773.02
609.01	766.21
609.36	759.51
609.70	752.57
610.05	745.65
610.40	738.98
610.75	732.31
611.10	725.98
611.44	719.50
611.79	713.13
612.14	706.69
612.49	700.35
612.83	694.28
613.18	688.36
613.53	682.35
613.88	676.38
614.22	670.80
614.57	665.17
614.92	659.36
615.27	653.68
615.61	648.05
615.96	642.48
616.31	636.89
616.65	631.38
617.00	626.08
617.35	620.87
617.70	615.72
618.04	610.64
618.39	605.49
618.74	600.56
619.08	595.68
619.43	590.93
619.78	586.18
620.12	581.38
620.47	576.75
620.82	572.23
621.16	567.74
621.51	563.15
621.85	558.61
622.20	554.26
622.55	549.92
622.89	545.67
623.24	541.41
623.59	537.21
623.93	533.16
624.28	529.19
624.62	525.33
624.97	521.50
625.32	517.64
625.66	513.74
626.01	509.82
626.35	505.98
626.70	502.17
627.04	498.54
627.39	494.85
627.73	491.32
628.08	487.88
628.43	484.43
628.77	481.07
629.12	477.81
629.46	474.56
629.81	471.25
630.15	467.94
630.50	464.73
630.84	461.58
631.19	458.49
631.53	455.50
631.88	452.47
632.22	449.46
632.57	446.73
632.91	444.04
633.26	441.41
633.60	438.80
633.95	436.26
634.29	433.62
634.64	431.07
634.98	428.32
635.32	425.72
635.67	423.32
636.01	420.84
636.36	418.42
636.70	416.12
637.05	413.82
637.39	411.56
637.73	409.32
638.08	407.18
638.42	405.02
638.77	402.74
639.11	400.40
639.45	398.16
639.80	395.86
640.14	393.68
640.49	391.47
640.83	389.25
641.17	387.13
641.52	385.04
641.86	382.99
642.20	381.14
642.55	379.14
642.89	377.16
643.23	375.27
643.58	373.54
643.92	371.69
644.26	369.90
644.61	368.16
644.95	366.39
645.29	364.55
645.64	362.73
645.98	361.02
646.32	359.42
646.66	357.81
647.01	356.22
647.35	354.66
647.69	353.11
648.04	351.67
648.38	350.16
648.72	348.68
649.06	347.21
649.41	345.74
649.75	344.32
650.09	342.93
650.43	341.55
650.78	340.11
651.12	338.72
651.46	337.38
651.80	336.07
652.14	334.78
652.49	333.55
652.83	332.29
653.17	331.07
653.51	329.88
653.85	328.75
654.20	327.57
654.54	326.33
654.88	325.18
655.22	324.06
655.56	322.93
655.90	321.86
656.25	320.83
656.59	319.77
656.93	318.78
657.27	317.80
657.61	316.78
657.95	315.80
658.29	314.81
658.64	313.88
658.98	312.95
659.32	312.04
659.66	311.18
660.00	310.35
660.34	309.51
660.68	308.65
661.02	307.76
661.36	306.91
661.70	306.10
662.05	305.31
662.39	304.52
662.73	303.81
663.07	303.10
663.41	302.35
663.75	301.61
664.09	300.88
664.43	300.10
664.77	299.41
665.11	298.67
665.45	298.01
665.79	297.35
666.13	296.65
666.47	295.94
666.81	295.23
667.15	294.49
667.49	293.85
667.83	293.27
668.17	292.66
668.51	292.09
668.85	291.55
669.19	291.04
669.53	290.43
669.87	289.81
670.21	289.23
670.55	288.68
670.89	288.21
671.23	287.68
671.57	287.18
671.91	286.72
672.25	286.28
672.58	285.85
672.92	285.33
673.26	284.90
673.60	284.48
673.94	284.06
674.28	283.68
674.62	283.26
674.96	282.80
675.30	282.40
675.64	281.96
675.97	281.51
676.31	281.04
676.65	280.62
676.99	280.26
677.33	279.83
677.67	279.44
678.01	278.98
678.34	278.59
678.68	278.23
679.02	277.80
679.36	277.40
679.70	276.98
680.04	276.62
680.37	276.24
680.71	275.88
681.05	275.54
681.39	275.16
681.73	274.75
682.06	274.37
682.40	274.01
682.74	273.69
683.08	273.42
683.42	273.09
683.75	272.79
684.09	272.41
684.43	272.10
684.77	271.78
685.10	271.49
685.44	271.18
685.78	270.87
686.12	270.58
686.45	270.27
686.79	269.95
687.13	269.66
687.46	269.34
687.80	269.05
688.14	268.71
688.48	268.42
688.81	268.13
689.15	267.87
689.49	267.57
689.82	267.26
690.16	266.89
690.50	266.60
690.83	266.30
691.17	266.00
691.51	265.71
691.84	265.44
692.18	265.13
692.52	264.82
692.85	264.53
693.19	264.28
693.52	264.00
693.86	263.72
694.20	263.44
694.53	263.18
694.87	262.88
695.21	262.60
695.54	262.32
695.88	262.03
696.21	261.72
696.55	261.46
696.88	261.19
697.22	260.93
697.56	260.66
697.89	260.36
698.23	260.10
698.56	259.81
698.90	259.55
699.23	259.26
699.57	259.00
699.90	258.72
700.24	258.42
700.58	258.18
700.91	257.97
701.25	257.82
701.58	257.62
701.92	257.42
702.25	257.18
702.59	256.93
702.92	256.69
703.26	256.44
703.59	256.18
703.93	256.04
704.26	255.81
704.60	255.56
704.93	255.32
705.26	255.06
705.60	254.87
705.93	254.60
706.27	254.41
706.60	254.22
706.94	254.03
707.27	253.77
707.61	253.52
707.94	253.27
708.27	252.91
708.61	252.62
708.94	252.36
709.28	252.14
709.61	251.91
709.94	251.70
710.28	251.50
710.61	251.31
710.95	251.00
711.28	250.86
711.61	250.65
711.95	250.47
712.28	250.26
712.61	250.02
712.95	249.90
713.28	249.75
713.61	249.52
713.95	249.27
714.28	249.09
714.61	248.88
714.95	248.69
715.28	248.50
715.61	248.31
715.95	248.14
716.28	247.95
716.61	247.80
716.95	247.59
717.28	247.40
717.61	247.21
717.94	247.03
718.28	246.76
718.61	246.58
718.94	246.38
719.27	246.20
719.61	246.05
719.94	245.83
720.27	245.58
720.60	245.40
720.94	245.23
721.27	245.07
721.60	244.92
721.93	244.75
722.27	244.62
722.60	244.47
722.93	244.29
723.26	244.13
723.59	243.93
723.93	243.78
724.26	243.62
724.59	243.45
724.92	243.31
725.25	243.20
725.59	243.05
725.92	242.92
726.25	242.78
726.58	242.63
726.91	242.47
727.24	242.35
727.57	242.21
727.91	242.05
728.24	241.93
728.57	241.77
728.90	241.65
729.23	241.47
729.56	241.38
729.89	241.25
730.22	241.10
730.55	240.97
730.89	240.83
731.22	240.70
731.55	240.57
731.88	240.43
732.21	240.27
732.54	240.14
732.87	240.01
733.20	239.89
733.53	239.77
733.86	239.66
734.19	239.52
734.52	239.42
734.85	239.39
735.18	239.24
735.51	239.16
735.84	239.04
736.17	238.97
736.50	238.79
736.83	238.82
737.16	238.72
737.49	238.62
737.82	238.50
738.15	238.42
738.48	238.31
738.81	238.19
739.14	238.08
739.47	237.97
739.80	237.85
740.13	237.76
740.46	237.63
740.79	237.51
741.12	237.41
741.45	237.28
741.78	237.10
742.11	237.04
742.44	236.91
742.77	236.83
743.10	236.70
743.43	236.60
743.75	236.37
744.08	236.46
744.41	236.36
744.74	236.26
745.07	236.14
745.40	236.07
745.73	236.03
746.06	235.95
746.39	235.88
746.71	235.79
747.04	235.69
747.37	235.61
747.70	235.55
748.03	235.47
748.36	235.41
748.68	235.33
749.01	235.21
749.34	235.13
749.67	235.05
750.00	234.98
750.33	235.00
750.65	234.93
750.98	234.66
751.31	234.59
751.64	234.53
751.97	234.52
752.29	234.43
752.62	234.29
752.95	234.21
753.28	234.11
753.60	234.03
753.93	233.99
754.26	233.93
754.59	233.81
754.91	233.72
755.24	233.63
755.57	233.62
755.90	233.55
756.22	233.47
756.55	233.37
756.88	233.28
757.20	233.12
757.53	233.02
757.86	232.95
758.19	232.89
758.51	232.82
758.84	232.69
759.17	232.61
759.49	232.55
759.82	232.55
760.15	232.50
760.47	232.44
760.80	232.35
761.13	232.30
761.45	232.25
761.78	232.20
762.11	232.15
762.43	232.03
762.76	231.98
763.08	231.94
763.41	231.89
763.74	231.85
764.06	231.79
764.39	231.75
764.71	231.70
765.04	231.63
765.37	231.57
765.69	231.53
766.02	231.48
766.34	231.42
766.67	231.33
767.00	231.30
767.32	231.32
767.65	231.35
767.97	231.29
768.30	231.25
768.62	231.20
768.95	231.14
769.27	231.09
769.60	231.07
769.92	231.00
770.25	230.94
770.57	230.87
770.90	230.83
771.22	230.77
771.55	230.73
771.87	230.70
772.20	230.66
772.52	230.72
772.85	230.83
773.17	230.80
773.50	230.75
773.82	230.70
774.15	230.60
774.47	230.48
774.80	230.43
775.12	230.40
775.45	230.36
775.77	230.34
776.09	230.31
776.42	230.28
776.74	230.29
777.07	230.26
777.39	230.24
777.72	230.20
778.04	230.19
778.36	230.15
778.69	230.13
779.01	230.11
779.33	229.97
779.66	229.80
779.98	229.77
780.31	229.75
780.63	229.78
780.95	229.77
781.28	229.75
781.60	229.72
781.92	229.69
782.25	229.67
782.57	229.64
782.89	229.61
783.22	229.58
783.54	229.53
783.86	229.51
784.19	229.48
784.51	229.50
784.83	229.46
785.16	229.44
785.48	229.41
785.80	229.39
786.12	229.38
786.45	229.36
786.77	229.35
787.09	229.32
787.42	229.25
787.74	229.23
788.06	229.22
788.38	229.20
788.71	229.17
789.03	229.15
789.35	229.15
789.67	229.11
789.99	229.10
790.32	229.07
790.64	229.07
790.96	229.17
791.28	229.11
791.61	229.08
791.93	229.08
792.25	229.05
792.57	229.12
792.89	229.08
793.21	229.08
793.54	229.05
793.86	229.02
794.18	229.01
794.50	228.97
794.82	228.95
795.14	228.95
795.47	228.96
795.79	228.94
796.11	228.90
796.43	228.88
796.75	228.87
797.07	228.86
797.39	228.83
797.71	228.71
798.04	228.71
798.36	228.70
798.68	228.68
799.00	228.68
799.32	228.60
799.64	228.61
799.96	228.59
800.28	228.60
800.60	228.58
800.92	228.58
801.24	228.56
801.56	228.56
801.89	228.54
802.21	228.53
802.53	228.49
802.85	228.51
803.17	228.56
803.49	228.52
803.81	228.50
804.13	228.48
804.45	228.45
804.77	228.45
805.09	228.43
805.41	228.41
805.73	228.38
806.05	228.33
806.37	228.31
806.69	228.28
807.01	228.26
807.33	228.26
807.65	228.20
807.97	228.25
808.28	228.22
808.60	228.20
808.92	228.17
809.24	228.24
809.56	228.21
809.88	228.15
810.20	228.15
810.52	228.17
810.84	228.14
811.16	228.11
811.48	228.09
811.80	228.13
812.12	228.11
812.43	228.13
812.75	228.13
813.07	228.11
813.39	228.11
813.71	228.09
814.03	228.07
814.35	228.07
814.67	228.00
814.98	227.99
815.30	227.97
815.62	227.95
815.94	227.85
816.26	227.86
816.58	227.83
816.89	227.83
817.21	227.79
817.53	227.79
817.85	227.79
818.17	227.78
818.48	227.72
818.80	227.74
819.12	227.71
819.44	227.68
819.76	227.66
820.07	227.65
820.39	227.64
820.71	227.64
821.03	227.63
821.34	227.62
821.66	227.63
821.98	227.64
822.30	227.63
822.61	227.70
822.93	227.67
823.25	227.66
823.57	227.64
823.88	227.65
824.20	227.64
824.52	227.65
824.83	227.64
825.15	227.62
825.47	227.61
825.79	227.61
826.10	227.61
826.42	227.60
826.74	227.60
827.05	227.59
827.37	227.59
827.69	227.58
828.00	227.58
828.32	227.57
828.64	227.55
828.95	227.61
829.27	227.57
829.58	227.57
829.90	227.58
830.22	227.59
830.53	227.56
830.85	227.55
831.17	227.51
831.48	227.51
831.80	227.51
832.11	227.50
832.43	227.48
832.75	227.47
833.06	227.54
833.38	227.50
833.69	227.50
834.01	227.49
834.32	227.49
834.64	227.47
834.96	227.46
835.27	227.46
835.59	227.41
835.90	227.39
836.22	227.38
836.53	227.35
836.85	227.33
837.16	227.46
837.48	227.45
837.79	227.49
838.11	227.49
838.42	227.49
838.74	227.50
839.05	227.49
839.37	227.48
839.68	227.40
840.00	227.40
840.31	227.41
840.63	227.40
840.94	227.39
841.26	227.37
841.57	227.36
841.88	227.37
842.20	227.35
842.51	227.32
842.83	227.32
843.14	227.44
843.46	227.43
843.77	227.35
844.08	227.35
844.40	227.30
844.71	227.29
845.03	227.27
845.34	227.26
845.65	227.25
845.97	227.25
846.28	227.26
846.60	227.26
846.91	227.24
847.22	227.23
847.54	227.26
847.85	227.26
848.16	227.25
848.48	227.23
848.79	227.27
849.10	227.29
849.42	227.29
849.73	227.17
850.04	227.17
850.36	227.12
850.67	227.14
850.98	227.14
851.30	227.15
851.61	227.15
851.92	227.14
852.23	227.18
852.55	227.19
852.86	227.19
853.17	227.19
853.49	227.22
853.80	227.24
854.11	227.25
854.42	227.26
854.74	227.24
855.05	227.25
855.36	227.18
855.67	227.18
855.99	227.18
856.30	227.33
856.61	227.32
856.92	227.33
857.23	227.33
857.55	227.31
857.86	227.30
858.17	227.32
858.48	227.30
858.79	227.27
859.11	227.28
859.42	227.27
859.73	227.25
860.04	227.24
860.35	227.20
860.66	227.16
860.98	227.16
861.29	227.17
861.60	227.16
861.91	227.20
862.22	227.18
862.53	227.15
862.84	227.01
863.16	227.03
863.47	227.01
863.78	226.99
864.09	227.00
864.40	227.00
864.71	227.00
865.02	227.01
865.33	227.00
865.64	226.97
865.95	226.97
866.27	227.05
866.58	227.04
866.89	227.05
867.20	227.05
867.51	227.03
867.82	227.02
868.13	227.06
868.44	227.03
868.75	227.05
869.06	227.06
869.37	227.07
869.68	227.04
869.99	227.06
870.30	227.07
870.61	227.08
870.92	227.06
871.23	227.05
871.54	227.06
871.85	227.09
872.16	227.11
872.47	227.09
872.78	227.02
873.09	227.04
873.40	227.02
873.71	227.03
874.02	227.04
874.33	227.03
874.64	227.00
874.95	227.02
875.26	226.99
875.56	226.98
875.87	226.98
876.18	226.97
876.49	227.09
876.80	227.08
877.11	227.05
877.42	227.06
877.73	227.06
878.04	227.04
878.35	227.03
878.66	227.03
878.96	227.03
879.27	227.03
879.58	227.02
879.89	227.01
880.20	227.05
880.51	227.04
880.82	227.05
881.12	227.05
881.43	227.02
881.74	227.01
882.05	227.00
882.36	227.01
882.67	227.02
882.97	226.88
883.28	226.88
883.59	226.88
883.90	226.89
884.21	226.90
884.51	226.90
884.82	226.87
885.13	226.87
885.44	226.87
885.74	226.87
886.05	226.87
886.36	226.86
886.67	226.82
886.98	226.88
887.28	226.89
887.59	226.89
887.90	226.90
888.20	226.89
888.51	226.92
888.82	226.90
889.13	226.90
889.43	227.01
889.74	227.01
890.05	227.01
890.35	226.99
890.66	226.97
890.97	226.96
891.28	226.95
891.58	226.95
891.89	226.95
892.20	226.93
892.50	226.92
892.81	226.92
893.12	226.92
893.42	226.85
893.73	226.85
894.04	226.85
894.34	226.85
894.65	226.85
894.95	226.84
895.26	226.85
895.57	226.90
895.87	226.77
896.18	226.79
896.48	226.80
896.79	226.80
897.10	226.82
897.40	226.82
897.71	226.84
898.01	226.83
898.32	226.84
898.63	226.84
898.93	226.85
899.24	226.85
899.54	226.85
899.85	226.84
900.15	226.83
900.46	226.83
900.76	226.84
901.07	226.84
901.38	226.84
901.68	226.85
901.99	226.78
902.29	226.79
902.60	226.78
902.90	226.77
903.21	226.77
903.51	226.75
903.82	226.78
904.12	226.78
904.43	226.78
904.73	226.77
905.03	226.78
905.34	226.90
905.64	226.89
905.95	226.89
906.25	226.89
906.56	226.89
906.86	226.89
907.17	226.87
907.47	226.88
907.77	226.87
908.08	226.84
908.38	226.85
908.69	226.86
908.99	226.88
909.30	226.88
909.60	226.88
909.90	226.88
910.21	226.84
910.51	226.82
910.81	226.82
911.12	226.83
911.42	226.83
911.73	226.70
912.03	226.71
912.33	226.73
912.64	226.72
912.94	226.71
913.24	226.69
913.55	226.68
913.85	226.68
914.15	226.70
914.46	226.71
914.76	226.70
915.06	226.69
915.37	226.67
915.67	226.66
915.97	226.66
916.27	226.64
916.58	226.65
916.88	226.65
917.18	226.64
917.49	226.72
917.79	226.71
918.09	226.73
918.39	226.76
918.70	226.75
919.00	226.76
919.30	226.82
919.60	226.81
919.91	226.80
920.21	226.81
920.51	226.78
920.81	226.77
921.12	226.79
921.42	226.79
921.72	226.80
922.02	226.81
922.32	226.82
922.63	226.83
922.93	226.90
923.23	226.90
923.53	226.89
923.83	226.81
924.13	226.82
924.44	226.82
924.74	226.83
925.04	226.86
925.34	226.85
925.64	226.80
925.94	226.80
926.24	226.87
926.55	226.86
926.85	226.88
927.15	226.87
927.45	226.87
927.75	226.87
928.05	226.87
928.35	226.86
928.65	226.88
928.95	226.88
929.26	226.82
929.56	226.85
929.86	226.86
930.16	226.85
930.46	226.84
930.76	226.84
931.06	226.78
931.36	226.75
931.66	226.77
931.96	226.78
932.26	226.79
932.56	226.73
932.86	226.74
933.16	226.74
933.46	226.73
933.76	226.71
934.06	226.73
934.36	226.77
934.66	226.76
934.96	226.74
935.26	226.75
935.56	226.77
935.86	226.73
936.16	226.71
936.46	226.70
936.76	226.70
937.06	226.68
937.36	226.68
937.66	226.69
937.96	226.68
938.26	226.65
938.56	226.64
938.86	226.65
939.16	226.68
939.46	226.68
939.76	226.69
940.06	226.69
940.35	226.67
940.65	226.61
940.95	226.62
941.25	226.59
941.55	226.57
941.85	226.56
942.15	226.59
942.45	226.62
942.75	226.62
943.04	226.62
943.34	226.65
943.64	226.64
943.94	226.62
944.24	226.62
944.54	226.63
944.84	226.63
945.13	226.61
945.43	226.58
945.73	226.58
946.03	226.56
946.33	226.55
946.62	226.54
946.92	226.54
947.22	226.55
947.52	226.56
947.82	226.57
948.11	226.56
948.41	226.53
948.71	226.49
949.01	226.50
949.31	226.49
949.60	226.48
949.90	226.50
950.20	226.50
950.50	226.49
950.79	226.49
951.09	226.50
951.39	226.50
951.69	226.49
951.98	226.51
952.28	226.52
952.58	226.52
952.87	226.52
953.17	226.54
953.47	226.52
953.76	226.52
954.06	226.50
954.36	226.48
954.66	226.49
954.95	226.52
955.25	226.53
955.55	226.54
955.84	226.52
956.14	226.52
956.44	226.54
956.73	226.52
957.03	226.53
957.32	226.53
957.62	226.52
957.92	226.55
958.21	226.53
958.51	226.67
958.81	226.69
959.10	226.70
959.40	226.73
959.69	226.74
959.99	226.75
960.29	226.76
960.58	226.76
960.88	226.80
961.17	226.79
961.47	226.80
961.76	226.78
962.06	226.81
962.36	226.79
962.65	226.80
962.95	226.81
963.24	226.80
963.54	226.80
963.83	226.81
964.13	226.80
964.42	226.79
964.72	226.68
965.01	226.68
965.31	226.67
965.60	226.64
965.90	226.72
966.19	226.69
966.49	226.70
966.78	226.70
967.08	226.68
967.37	226.68
967.67	226.66
967.96	226.69
968.26	226.68
968.55	226.70
968.85	226.69
969.14	226.68
969.43	226.69
969.73	226.67
970.02	226.67
970.32	226.67
970.61	226.65
970.91	226.61
971.20	226.59
971.49	226.58
971.79	226.60
972.08	226.50
972.38	226.52
972.67	226.51
972.96	226.53
973.26	226.50
973.55	226.54
973.85	226.53
974.14	226.51
974.43	226.52
974.73	226.50
975.02	226.49
975.31	226.49
975.61	226.49
975.90	226.48
976.19	226.47
976.49	226.48
976.78	226.49
977.07	226.49
977.37	226.50
977.66	226.51
977.95	226.49
978.24	226.51
978.54	226.53
978.83	226.52
979.12	226.51
979.42	226.51
979.71	226.49
980.00	226.49
980.29	226.49
980.59	226.47
980.88	226.51
981.17	226.51
981.46	226.51
981.76	226.50
982.05	226.54
982.34	226.55
982.63	226.55
982.93	226.55
983.22	226.58
983.51	226.58
983.80	226.60
984.09	226.62
984.39	226.61
984.68	226.59
984.97	226.60
985.26	226.59
985.55	226.60
985.85	226.58
986.14	226.60
986.43	226.61
986.72	226.61
987.01	226.56
987.30	226.57
987.59	226.56
987.89	226.56
988.18	226.52
988.47	226.51
988.76	226.50
989.05	226.49
989.34	226.47
989.63	226.50
989.92	226.48
990.22	226.46
990.51	226.46
990.80	226.44
991.09	226.45
991.38	226.47
991.67	226.45
991.96	226.44
992.25	226.44
992.54	226.42
992.83	226.42
993.12	226.42
993.41	226.44
993.70	226.49
993.99	226.51
994.28	226.53
994.58	226.55
994.87	226.54
995.16	226.54
995.45	226.53
995.74	226.48
996.03	226.50
996.32	226.52
996.61	226.55
996.90	226.55
997.19	226.54
997.48	226.54
997.77	226.53
998.06	226.54
998.34	226.53
998.63	226.53
998.92	226.53
999.21	226.56
999.50	226.55
999.79	226.51
1000.08	226.50
1000.37	226.50
1000.66	226.49
1000.95	226.52
1001.24	226.53
1001.53	226.54
1001.82	226.54
1002.11	226.52
1002.40	226.52
1002.68	226.55
1002.97	226.64
1003.26	226.62
1003.55	226.60
1003.84	226.62
1004.13	226.66
1004.42	226.65
1004.71	226.65
1004.99	226.64
1005.28	226.67
1005.57	226.66
1005.86	226.65
1006.15	226.64
1006.44	226.62
1006.72	226.63
1007.01	226.61
1007.30	226.61
1007.59	226.60
1007.88	226.59
1008.17	226.60
1008.45	226.58
1008.74	226.53
1009.03	226.47
1009.32	226.47
1009.60	226.47
1009.89	226.46
1010.18	226.41
1010.47	226.40
1010.76	226.40
1011.04	226.40
1011.33	226.39
1011.62	226.40
1011.91	226.41
1012.19	226.42
1012.48	226.42
1012.77	226.42
1013.05	226.46
1013.34	226.46
1013.63	226.46
1013.92	226.47
1014.20	226.46
1014.49	226.47
1014.78	226.48
1015.06	226.44
1015.35	226.44
1015.64	226.46
1015.92	226.48
1016.21	226.49
1016.50	226.49
1016.78	226.51
1017.07	226.52
1017.36	226.49
1017.64	226.48
1017.93	226.48
1018.22	226.47
1018.50	226.47
1018.79	226.47
1019.08	226.42
1019.36	226.43
1019.65	226.42
1019.93	226.45
1020.22	226.47
1020.51	226.53
1020.79	226.52
1021.08	226.29
1021.36	226.28
1021.65	226.46
1021.94	226.41
1022.22	226.53
1022.51	226.22
1022.79	227.07
1023.08	226.66
1023.36	227.96
1023.65	226.16
>>>>>End Processed Spectral Data<<<<<
