SpectraSuite Data File
++++++++++++++++++++++++++++++++++++
Date: Sat Oct 03 08:06:44 EDT 2015
User: lab3
Dark Spectrum Present: No
Reference Spectrum Present: No
Number of Sampled Component Spectra: 1
Spectrometers: USB2E7196
Integration Time (usec): 46000 (USB2E7196)
Spectra Averaged: 12000 (USB2E7196)
Boxcar Smoothing: 10 (USB2E7196)
Correct for Electrical Dark: No (USB2E7196)
Strobe/Lamp Enabled: No (USB2E7196)
Correct for Detector Non-linearity: No (USB2E7196)
Correct for Stray Light: No (USB2E7196)
Number of Pixels in Processed Spectrum: 2048
>>>>>Begin Processed Spectral Data<<<<<
339.09	0.00
339.48	213.57
339.86	214.98
340.24	216.35
340.63	217.81
341.01	221.07
341.39	220.53
341.78	221.84
342.16	223.12
342.54	223.49
342.93	211.98
343.31	222.69
343.69	223.23
344.07	223.69
344.46	224.12
344.84	224.51
345.22	224.73
345.60	224.98
345.99	225.18
346.37	225.31
346.75	225.41
347.13	225.49
347.52	225.56
347.90	225.65
348.28	225.69
348.66	225.75
349.05	225.74
349.43	225.79
349.81	225.85
350.19	225.90
350.57	225.97
350.96	226.05
351.34	226.14
351.72	226.23
352.10	226.34
352.48	226.41
352.87	226.46
353.25	226.52
353.63	226.59
354.01	226.65
354.39	226.72
354.77	226.80
355.15	226.90
355.54	226.95
355.92	226.98
356.30	227.05
356.68	227.20
357.06	227.28
357.44	227.32
357.82	227.38
358.20	227.50
358.58	227.55
358.97	227.61
359.35	227.70
359.73	227.78
360.11	227.83
360.49	227.89
360.87	227.94
361.25	228.00
361.63	228.09
362.01	228.14
362.39	228.17
362.77	228.22
363.15	228.24
363.53	228.28
363.91	228.31
364.29	228.33
364.67	228.24
365.05	228.26
365.43	228.29
365.81	228.32
366.19	228.34
366.57	228.40
366.95	228.40
367.33	228.37
367.71	228.37
368.09	228.39
368.47	228.38
368.85	228.37
369.23	228.38
369.61	228.32
369.99	228.35
370.37	228.35
370.75	228.43
371.13	228.40
371.51	228.35
371.89	228.34
372.27	228.32
372.65	228.30
373.03	228.26
373.41	228.21
373.78	228.17
374.16	228.06
374.54	227.98
374.92	227.93
375.30	227.88
375.68	227.82
376.06	227.77
376.44	227.72
376.82	227.68
377.19	227.63
377.57	227.58
377.95	227.48
378.33	227.42
378.71	227.26
379.09	227.21
379.47	227.18
379.84	227.12
380.22	227.05
380.60	226.98
380.98	226.93
381.36	226.88
381.73	226.82
382.11	226.80
382.49	226.76
382.87	226.71
383.25	226.66
383.62	226.77
384.00	226.70
384.38	226.66
384.76	226.65
385.13	226.65
385.51	226.61
385.89	226.56
386.27	226.52
386.64	226.50
387.02	226.46
387.40	226.42
387.78	226.39
388.15	226.37
388.53	226.34
388.91	226.31
389.29	226.28
389.66	226.28
390.04	226.24
390.42	226.24
390.79	226.22
391.17	226.21
391.55	226.05
391.92	226.05
392.30	226.04
392.68	226.00
393.05	225.98
393.43	225.99
393.81	226.00
394.18	225.98
394.56	225.98
394.94	226.02
395.31	226.01
395.69	226.06
396.06	226.09
396.44	226.11
396.82	226.12
397.19	226.21
397.57	226.22
397.95	226.27
398.32	226.26
398.70	226.31
399.07	226.38
399.45	226.41
399.82	226.46
400.20	226.50
400.58	226.56
400.95	226.57
401.33	226.66
401.70	226.82
402.08	226.92
402.45	227.01
402.83	227.12
403.20	227.24
403.58	227.33
403.95	227.47
404.33	227.63
404.71	227.77
405.08	227.99
405.46	228.16
405.83	228.34
406.21	228.54
406.58	228.77
406.96	228.98
407.33	229.24
407.70	229.52
408.08	229.92
408.45	230.26
408.83	230.63
409.20	230.96
409.58	231.26
409.95	231.67
410.33	232.12
410.70	232.54
411.08	233.04
411.45	233.57
411.82	234.11
412.20	234.72
412.57	235.44
412.95	236.01
413.32	236.76
413.69	237.52
414.07	238.33
414.44	239.21
414.82	240.11
415.19	241.17
415.56	242.23
415.94	243.33
416.31	244.57
416.68	245.81
417.06	247.25
417.43	248.60
417.81	250.15
418.18	251.73
418.55	253.45
418.93	255.24
419.30	257.11
419.67	259.10
420.04	261.14
420.42	263.26
420.79	265.72
421.16	268.21
421.54	270.73
421.91	273.37
422.28	276.10
422.66	279.05
423.03	281.86
423.40	284.81
423.77	287.96
424.15	291.20
424.52	294.57
424.89	298.22
425.26	301.85
425.64	305.23
426.01	309.02
426.38	312.90
426.75	316.90
427.13	321.00
427.50	325.30
427.87	329.76
428.24	334.27
428.61	338.59
428.99	343.28
429.36	348.41
429.73	353.32
430.10	358.23
430.47	363.25
430.85	368.42
431.22	373.97
431.59	379.67
431.96	385.24
432.33	391.43
432.70	397.32
433.08	404.26
433.45	410.82
433.82	417.30
434.19	424.52
434.56	431.65
434.93	438.53
435.30	445.33
435.68	453.02
436.05	460.55
436.42	468.06
436.79	474.90
437.16	482.28
437.53	490.20
437.90	498.12
438.27	505.88
438.64	514.25
439.01	521.83
439.38	528.77
439.75	535.45
440.13	542.98
440.50	550.14
440.87	555.82
441.24	562.04
441.61	568.83
441.98	573.77
442.35	579.62
442.72	585.60
443.09	591.29
443.46	594.87
443.83	597.48
444.20	599.64
444.57	602.90
444.94	604.73
445.31	606.61
445.68	608.19
446.05	609.33
446.42	608.88
446.79	608.24
447.16	607.65
447.53	607.10
447.90	604.59
448.27	602.18
448.64	598.59
449.01	596.05
449.37	591.10
449.74	586.63
450.11	580.88
450.48	574.60
450.85	568.32
451.22	562.95
451.59	557.72
451.96	552.99
452.33	546.14
452.70	540.07
453.07	532.66
453.43	525.28
453.80	518.12
454.17	511.26
454.54	504.95
454.91	497.82
455.28	491.16
455.65	484.88
456.02	478.26
456.38	472.93
456.75	466.07
457.12	460.55
457.49	454.98
457.86	449.74
458.23	445.18
458.59	440.10
458.96	434.90
459.33	430.32
459.70	425.65
460.07	422.12
460.43	417.95
460.80	414.06
461.17	410.70
461.54	407.03
461.91	403.61
462.27	400.13
462.64	397.34
463.01	394.10
463.38	390.85
463.74	387.91
464.11	385.32
464.48	383.00
464.85	380.46
465.21	378.55
465.58	376.41
465.95	373.93
466.32	371.97
466.68	370.05
467.05	368.12
467.42	366.23
467.78	364.18
468.15	362.30
468.52	360.94
468.88	359.09
469.25	357.40
469.62	356.06
469.98	354.60
470.35	353.29
470.72	352.11
471.08	350.90
471.45	349.89
471.82	348.76
472.18	347.56
472.55	346.79
472.92	345.80
473.28	345.03
473.65	344.21
474.02	343.41
474.38	342.75
474.75	342.35
475.11	341.80
475.48	341.54
475.85	341.24
476.21	341.08
476.58	340.96
476.94	341.08
477.31	341.13
477.67	341.19
478.04	341.38
478.41	341.65
478.77	342.07
479.14	342.31
479.50	342.81
479.87	343.47
480.23	344.12
480.60	344.77
480.96	345.42
481.33	346.40
481.69	347.37
482.06	348.34
482.42	349.23
482.79	350.33
483.15	351.62
483.52	353.08
483.88	354.49
484.25	356.00
484.61	357.56
484.98	359.25
485.34	361.17
485.71	363.17
486.07	365.30
486.44	367.43
486.80	369.81
487.17	372.29
487.53	374.99
487.90	377.82
488.26	380.90
488.62	384.15
488.99	387.40
489.35	390.82
489.72	394.53
490.08	398.44
490.44	402.48
490.81	406.68
491.17	410.99
491.54	415.62
491.90	420.39
492.26	425.49
492.63	430.84
492.99	436.41
493.36	442.19
493.72	448.27
494.08	454.50
494.45	461.12
494.81	467.99
495.17	475.04
495.54	482.50
495.90	490.25
496.26	498.19
496.63	506.37
496.99	514.85
497.35	523.74
497.72	532.93
498.08	542.30
498.44	552.00
498.80	562.28
499.17	572.82
499.53	583.70
499.89	594.94
500.26	606.42
500.62	618.19
500.98	630.59
501.34	643.18
501.71	656.29
502.07	669.58
502.43	683.41
502.79	697.48
503.16	712.01
503.52	726.73
503.88	741.88
504.24	757.49
504.60	773.31
504.97	789.63
505.33	806.36
505.69	824.02
506.05	842.01
506.41	859.94
506.78	878.06
507.14	896.68
507.50	915.75
507.86	935.17
508.22	954.83
508.59	974.31
508.95	994.59
509.31	1015.61
509.67	1037.35
510.03	1059.10
510.39	1080.89
510.75	1102.87
511.12	1125.13
511.48	1147.58
511.84	1170.07
512.20	1192.95
512.56	1216.68
512.92	1240.46
513.28	1263.87
513.64	1287.50
514.00	1311.62
514.37	1336.04
514.73	1360.45
515.09	1384.72
515.45	1409.32
515.81	1434.12
516.17	1459.04
516.53	1483.51
516.89	1507.86
517.25	1532.37
517.61	1556.74
517.97	1581.60
518.33	1605.97
518.69	1630.27
519.05	1655.02
519.41	1680.04
519.77	1705.37
520.13	1729.92
520.49	1754.39
520.85	1779.14
521.21	1803.56
521.57	1828.29
521.93	1852.51
522.29	1877.27
522.65	1901.49
523.01	1925.69
523.37	1949.48
523.73	1973.99
524.09	1998.20
524.45	2022.21
524.81	2045.86
525.17	2069.38
525.53	2092.31
525.89	2115.70
526.25	2139.04
526.61	2161.40
526.97	2183.92
527.33	2206.28
527.68	2228.44
528.04	2249.80
528.40	2270.26
528.76	2290.84
529.12	2311.03
529.48	2330.97
529.84	2348.98
530.20	2367.63
530.56	2385.68
530.91	2403.86
531.27	2421.71
531.63	2438.67
531.99	2455.16
532.35	2470.99
532.71	2486.99
533.07	2503.65
533.42	2518.49
533.78	2534.29
534.14	2550.29
534.50	2565.41
534.86	2580.24
535.21	2593.15
535.57	2606.56
535.93	2619.75
536.29	2631.86
536.65	2643.70
537.00	2654.79
537.36	2666.91
537.72	2677.61
538.08	2687.78
538.44	2697.29
538.79	2706.38
539.15	2714.72
539.51	2722.73
539.87	2730.11
540.22	2735.39
540.58	2740.71
540.94	2747.22
541.29	2752.24
541.65	2755.54
542.01	2757.92
542.37	2759.73
542.72	2762.86
543.08	2764.31
543.44	2766.37
543.79	2767.32
544.15	2767.45
544.51	2768.01
544.87	2767.42
545.22	2766.14
545.58	2764.16
545.94	2762.16
546.29	2758.87
546.65	2755.55
547.01	2752.10
547.36	2749.36
547.72	2746.88
548.07	2742.62
548.43	2736.96
548.79	2730.22
549.14	2724.74
549.50	2719.66
549.86	2713.62
550.21	2706.40
550.57	2700.16
550.92	2691.63
551.28	2683.63
551.64	2676.02
551.99	2667.94
552.35	2659.26
552.70	2650.78
553.06	2642.67
553.41	2633.94
553.77	2624.98
554.13	2615.96
554.48	2606.16
554.84	2595.07
555.19	2584.38
555.55	2573.77
555.90	2563.21
556.26	2553.27
556.61	2542.24
556.97	2529.56
557.32	2517.40
557.68	2505.19
558.03	2492.67
558.39	2481.36
558.74	2470.39
559.10	2457.62
559.45	2445.09
559.81	2433.17
560.16	2420.62
560.52	2408.32
560.87	2396.40
561.23	2383.63
561.58	2370.93
561.94	2357.92
562.29	2344.39
562.64	2331.56
563.00	2318.42
563.35	2305.65
563.71	2292.75
564.06	2279.73
564.42	2267.44
564.77	2254.56
565.12	2241.57
565.48	2228.59
565.83	2215.54
566.19	2202.62
566.54	2189.72
566.89	2175.68
567.25	2161.72
567.60	2149.16
567.96	2135.67
568.31	2120.85
568.66	2106.74
569.02	2093.84
569.37	2080.85
569.72	2068.34
570.08	2054.58
570.43	2040.51
570.78	2026.33
571.14	2011.38
571.49	1997.05
571.84	1983.27
572.20	1968.30
572.55	1953.54
572.90	1938.73
573.26	1923.93
573.61	1908.66
573.96	1893.82
574.31	1879.18
574.67	1864.67
575.02	1849.07
575.37	1833.59
575.72	1818.90
576.08	1804.55
576.43	1789.06
576.78	1773.98
577.13	1759.20
577.49	1744.78
577.84	1730.95
578.19	1716.16
578.54	1701.56
578.90	1686.47
579.25	1671.28
579.60	1657.64
579.95	1643.94
580.30	1630.04
580.66	1615.89
581.01	1601.60
581.36	1587.28
581.71	1574.00
582.06	1560.63
582.42	1547.48
582.77	1534.40
583.12	1521.29
583.47	1508.05
583.82	1494.94
584.17	1481.48
584.53	1467.69
584.88	1454.28
585.23	1440.43
585.58	1427.36
585.93	1414.51
586.28	1402.42
586.63	1390.28
586.98	1377.74
587.34	1365.25
587.69	1352.43
588.04	1339.96
588.39	1327.86
588.74	1315.94
589.09	1303.79
589.44	1291.19
589.79	1279.22
590.14	1267.37
590.49	1255.43
590.84	1243.68
591.19	1232.30
591.54	1220.73
591.89	1209.29
592.25	1198.04
592.60	1186.43
592.95	1175.24
593.30	1164.27
593.65	1152.99
594.00	1141.89
594.35	1131.29
594.70	1120.25
595.05	1110.13
595.40	1099.91
595.75	1089.54
596.10	1079.69
596.45	1069.57
596.80	1059.79
597.15	1049.74
597.50	1039.85
597.85	1030.41
598.19	1020.75
598.54	1011.13
598.89	1001.99
599.24	993.18
599.59	984.16
599.94	976.08
600.29	967.78
600.64	959.20
600.99	950.26
601.34	941.66
601.69	932.74
602.04	924.50
602.39	916.08
602.74	907.72
603.08	899.31
603.43	890.87
603.78	882.60
604.13	874.49
604.48	866.40
604.83	858.48
605.18	850.44
605.53	842.59
605.87	834.57
606.22	826.83
606.57	819.04
606.92	811.19
607.27	803.24
607.62	795.60
607.96	788.38
608.31	781.60
608.66	774.62
609.01	767.91
609.36	761.29
609.70	754.49
610.05	747.64
610.40	741.08
610.75	734.49
611.10	728.26
611.44	721.84
611.79	715.55
612.14	709.19
612.49	702.90
612.83	696.90
613.18	691.04
613.53	685.09
613.88	679.15
614.22	673.62
614.57	668.04
614.92	662.32
615.27	656.69
615.61	651.11
615.96	645.60
616.31	640.10
616.65	634.65
617.00	629.40
617.35	624.26
617.70	619.17
618.04	614.15
618.39	609.04
618.74	604.19
619.08	599.37
619.43	594.67
619.78	589.99
620.12	585.26
620.47	580.70
620.82	576.26
621.16	571.86
621.51	567.34
621.85	562.85
622.20	558.52
622.55	554.23
622.89	550.03
623.24	545.83
623.59	541.65
623.93	537.65
624.28	533.73
624.62	529.91
624.97	526.12
625.32	522.30
625.66	518.43
626.01	514.54
626.35	510.72
626.70	506.94
627.04	503.35
627.39	499.69
627.73	496.20
628.08	492.80
628.43	489.38
628.77	486.04
629.12	482.83
629.46	479.65
629.81	476.37
630.15	473.08
630.50	469.90
630.84	466.77
631.19	463.72
631.53	460.75
631.88	457.75
632.22	454.78
632.57	452.10
632.91	449.44
633.26	446.88
633.60	444.32
633.95	441.82
634.29	439.25
634.64	436.74
634.98	434.05
635.32	431.50
635.67	429.14
636.01	426.72
636.36	424.33
636.70	422.07
637.05	419.83
637.39	417.63
637.73	415.44
638.08	413.38
638.42	411.28
638.77	409.05
639.11	406.76
639.45	404.56
639.80	402.30
640.14	400.15
640.49	397.98
640.83	395.80
641.17	393.71
641.52	391.66
641.86	389.63
642.20	387.82
642.55	385.84
642.89	383.89
643.23	382.04
643.58	380.34
643.92	378.52
644.26	376.77
644.61	375.07
644.95	373.33
645.29	371.51
645.64	369.72
645.98	368.02
646.32	366.45
646.66	364.85
647.01	363.28
647.35	361.75
647.69	360.20
648.04	358.80
648.38	357.30
648.72	355.83
649.06	354.37
649.41	352.91
649.75	351.51
650.09	350.14
650.43	348.75
650.78	347.33
651.12	345.94
651.46	344.61
651.80	343.30
652.14	342.02
652.49	340.79
652.83	339.54
653.17	338.33
653.51	337.15
653.85	336.03
654.20	334.86
654.54	333.63
654.88	332.48
655.22	331.35
655.56	330.21
655.90	329.14
656.25	328.10
656.59	327.04
656.93	326.05
657.27	325.07
657.61	324.03
657.95	323.03
658.29	322.04
658.64	321.09
658.98	320.14
659.32	319.22
659.66	318.34
660.00	317.49
660.34	316.64
660.68	315.75
661.02	314.84
661.36	313.96
661.70	313.13
662.05	312.32
662.39	311.51
662.73	310.78
663.07	310.07
663.41	309.30
663.75	308.53
664.09	307.77
664.43	306.97
664.77	306.26
665.11	305.50
665.45	304.80
665.79	304.11
666.13	303.39
666.47	302.65
666.81	301.91
667.15	301.14
667.49	300.47
667.83	299.85
668.17	299.21
668.51	298.62
668.85	298.05
669.19	297.52
669.53	296.89
669.87	296.24
670.21	295.61
670.55	295.03
670.89	294.53
671.23	293.98
671.57	293.44
671.91	292.95
672.25	292.48
672.58	292.01
672.92	291.46
673.26	291.00
673.60	290.54
673.94	290.09
674.28	289.67
674.62	289.22
674.96	288.71
675.30	288.26
675.64	287.79
675.97	287.28
676.31	286.77
676.65	286.30
676.99	285.91
677.33	285.43
677.67	284.99
678.01	284.48
678.34	284.05
678.68	283.64
679.02	283.18
679.36	282.73
679.70	282.27
680.04	281.87
680.37	281.44
680.71	281.04
681.05	280.66
681.39	280.23
681.73	279.79
682.06	279.36
682.40	278.96
682.74	278.60
683.08	278.30
683.42	277.92
683.75	277.58
684.09	277.16
684.43	276.80
684.77	276.43
685.10	276.12
685.44	275.77
685.78	275.41
686.12	275.08
686.45	274.73
686.79	274.35
687.13	274.02
687.46	273.65
687.80	273.30
688.14	272.91
688.48	272.58
688.81	272.25
689.15	271.95
689.49	271.59
689.82	271.23
690.16	270.81
690.50	270.48
690.83	270.12
691.17	269.78
691.51	269.44
691.84	269.12
692.18	268.76
692.52	268.40
692.85	268.06
693.19	267.75
693.52	267.42
693.86	267.10
694.20	266.78
694.53	266.47
694.87	266.12
695.21	265.80
695.54	265.47
695.88	265.14
696.21	264.78
696.55	264.47
696.88	264.16
697.22	263.85
697.56	263.54
697.89	263.18
698.23	262.88
698.56	262.55
698.90	262.24
699.23	261.91
699.57	261.59
699.90	261.27
700.24	260.93
700.58	260.65
700.91	260.39
701.25	260.20
701.58	259.96
701.92	259.71
702.25	259.43
702.59	259.14
702.92	258.85
703.26	258.57
703.59	258.27
703.93	258.08
704.26	257.81
704.60	257.52
704.93	257.24
705.26	256.95
705.60	256.72
705.93	256.41
706.27	256.18
706.60	255.95
706.94	255.74
707.27	255.44
707.61	255.16
707.94	254.85
708.27	254.46
708.61	254.14
708.94	253.84
709.28	253.58
709.61	253.31
709.94	253.08
710.28	252.84
710.61	252.62
710.95	252.27
711.28	252.11
711.61	251.87
711.95	251.66
712.28	251.42
712.61	251.16
712.95	251.01
713.28	250.84
713.61	250.57
713.95	250.30
714.28	250.09
714.61	249.85
714.95	249.63
715.28	249.42
715.61	249.21
715.95	249.02
716.28	248.81
716.61	248.64
716.95	248.41
717.28	248.20
717.61	247.98
717.94	247.77
718.28	247.48
718.61	247.27
718.94	247.04
719.27	246.84
719.61	246.66
719.94	246.42
720.27	246.14
720.60	245.95
720.94	245.76
721.27	245.57
721.60	245.41
721.93	245.22
722.27	245.07
722.60	244.89
722.93	244.69
723.26	244.51
723.59	244.29
723.93	244.12
724.26	243.94
724.59	243.76
724.92	243.59
725.25	243.47
725.59	243.31
725.92	243.17
726.25	243.01
726.58	242.84
726.91	242.67
727.24	242.53
727.57	242.38
727.91	242.20
728.24	242.07
728.57	241.90
728.90	241.76
729.23	241.56
729.56	241.46
729.89	241.30
730.22	241.14
730.55	240.99
730.89	240.84
731.22	240.69
731.55	240.55
731.88	240.40
732.21	240.22
732.54	240.08
732.87	239.93
733.20	239.80
733.53	239.67
733.86	239.54
734.19	239.38
734.52	239.27
734.85	239.23
735.18	239.07
735.51	238.97
735.84	238.84
736.17	238.75
736.50	238.56
736.83	238.59
737.16	238.47
737.49	238.36
737.82	238.24
738.15	238.14
738.48	238.02
738.81	237.90
739.14	237.77
739.47	237.65
739.80	237.52
740.13	237.41
740.46	237.28
740.79	237.14
741.12	237.03
741.45	236.89
741.78	236.70
742.11	236.62
742.44	236.48
742.77	236.38
743.10	236.25
743.43	236.13
743.75	235.89
744.08	235.98
744.41	235.86
744.74	235.76
745.07	235.62
745.40	235.54
745.73	235.50
746.06	235.40
746.39	235.32
746.71	235.22
747.04	235.11
747.37	235.02
747.70	234.95
748.03	234.87
748.36	234.80
748.68	234.71
749.01	234.58
749.34	234.50
749.67	234.41
750.00	234.34
750.33	234.35
750.65	234.28
750.98	234.00
751.31	233.92
751.64	233.84
751.97	233.83
752.29	233.73
752.62	233.59
752.95	233.50
753.28	233.39
753.60	233.31
753.93	233.26
754.26	233.19
754.59	233.06
754.91	232.97
755.24	232.87
755.57	232.85
755.90	232.77
756.22	232.67
756.55	232.57
756.88	232.47
757.20	232.31
757.53	232.20
757.86	232.12
758.19	232.05
758.51	231.98
758.84	231.84
759.17	231.75
759.49	231.68
759.82	231.68
760.15	231.62
760.47	231.55
760.80	231.45
761.13	231.40
761.45	231.34
761.78	231.28
762.11	231.22
762.43	231.10
762.76	231.04
763.08	231.00
763.41	230.94
763.74	230.90
764.06	230.84
764.39	230.79
764.71	230.73
765.04	230.66
765.37	230.60
765.69	230.55
766.02	230.50
766.34	230.43
766.67	230.34
767.00	230.30
767.32	230.32
767.65	230.35
767.97	230.29
768.30	230.25
768.62	230.20
768.95	230.14
769.27	230.09
769.60	230.06
769.92	229.99
770.25	229.92
770.57	229.85
770.90	229.80
771.22	229.75
771.55	229.70
771.87	229.67
772.20	229.62
772.52	229.69
772.85	229.80
773.17	229.76
773.50	229.72
773.82	229.66
774.15	229.55
774.47	229.43
774.80	229.38
775.12	229.34
775.45	229.30
775.77	229.27
776.09	229.25
776.42	229.21
776.74	229.22
777.07	229.19
777.39	229.16
777.72	229.12
778.04	229.11
778.36	229.07
778.69	229.04
779.01	229.02
779.33	228.88
779.66	228.70
779.98	228.67
780.31	228.64
780.63	228.66
780.95	228.66
781.28	228.63
781.60	228.60
781.92	228.57
782.25	228.54
782.57	228.51
782.89	228.47
783.22	228.44
783.54	228.38
783.86	228.37
784.19	228.34
784.51	228.35
784.83	228.31
785.16	228.28
785.48	228.25
785.80	228.22
786.12	228.21
786.45	228.19
786.77	228.17
787.09	228.14
787.42	228.07
787.74	228.05
788.06	228.03
788.38	228.01
788.71	227.98
789.03	227.97
789.35	227.97
789.67	227.93
789.99	227.92
790.32	227.88
790.64	227.87
790.96	227.97
791.28	227.91
791.61	227.88
791.93	227.87
792.25	227.84
792.57	227.91
792.89	227.87
793.21	227.86
793.54	227.83
793.86	227.80
794.18	227.79
794.50	227.74
794.82	227.72
795.14	227.72
795.47	227.72
795.79	227.71
796.11	227.66
796.43	227.65
796.75	227.63
797.07	227.62
797.39	227.60
797.71	227.47
798.04	227.47
798.36	227.46
798.68	227.44
799.00	227.44
799.32	227.36
799.64	227.36
799.96	227.35
800.28	227.36
800.60	227.34
800.92	227.33
801.24	227.31
801.56	227.31
801.89	227.28
802.21	227.27
802.53	227.23
802.85	227.24
803.17	227.29
803.49	227.25
803.81	227.22
804.13	227.20
804.45	227.18
804.77	227.18
805.09	227.16
805.41	227.14
805.73	227.11
806.05	227.06
806.37	227.04
806.69	227.01
807.01	226.99
807.33	226.98
807.65	226.93
807.97	226.98
808.28	226.95
808.60	226.93
808.92	226.90
809.24	226.97
809.56	226.94
809.88	226.88
810.20	226.87
810.52	226.89
810.84	226.86
811.16	226.84
811.48	226.82
811.80	226.86
812.12	226.84
812.43	226.86
812.75	226.86
813.07	226.84
813.39	226.84
813.71	226.82
814.03	226.80
814.35	226.80
814.67	226.73
814.98	226.71
815.30	226.70
815.62	226.67
815.94	226.58
816.26	226.58
816.58	226.55
816.89	226.55
817.21	226.51
817.53	226.51
817.85	226.51
818.17	226.50
818.48	226.44
818.80	226.45
819.12	226.42
819.44	226.39
819.76	226.37
820.07	226.36
820.39	226.35
820.71	226.35
821.03	226.35
821.34	226.33
821.66	226.34
821.98	226.35
822.30	226.34
822.61	226.42
822.93	226.38
823.25	226.38
823.57	226.36
823.88	226.37
824.20	226.36
824.52	226.37
824.83	226.36
825.15	226.34
825.47	226.32
825.79	226.32
826.10	226.31
826.42	226.30
826.74	226.31
827.05	226.30
827.37	226.29
827.69	226.28
828.00	226.28
828.32	226.27
828.64	226.25
828.95	226.31
829.27	226.27
829.58	226.27
829.90	226.28
830.22	226.29
830.53	226.26
830.85	226.24
831.17	226.20
831.48	226.20
831.80	226.20
832.11	226.19
832.43	226.17
832.75	226.16
833.06	226.23
833.38	226.20
833.69	226.18
834.01	226.18
834.32	226.18
834.64	226.16
834.96	226.15
835.27	226.15
835.59	226.10
835.90	226.08
836.22	226.07
836.53	226.04
836.85	226.02
837.16	226.15
837.48	226.14
837.79	226.19
838.11	226.18
838.42	226.18
838.74	226.19
839.05	226.19
839.37	226.18
839.68	226.10
840.00	226.09
840.31	226.11
840.63	226.09
840.94	226.08
841.26	226.06
841.57	226.06
841.88	226.06
842.20	226.04
842.51	226.02
842.83	226.02
843.14	226.13
843.46	226.13
843.77	226.05
844.08	226.04
844.40	226.00
844.71	225.99
845.03	225.97
845.34	225.96
845.65	225.95
845.97	225.95
846.28	225.96
846.60	225.97
846.91	225.94
847.22	225.93
847.54	225.96
847.85	225.97
848.16	225.95
848.48	225.92
848.79	225.97
849.10	225.99
849.42	225.99
849.73	225.86
850.04	225.86
850.36	225.81
850.67	225.83
850.98	225.83
851.30	225.83
851.61	225.83
851.92	225.82
852.23	225.86
852.55	225.86
852.86	225.86
853.17	225.86
853.49	225.89
853.80	225.92
854.11	225.92
854.42	225.93
854.74	225.92
855.05	225.92
855.36	225.86
855.67	225.86
855.99	225.85
856.30	226.00
856.61	226.00
856.92	226.00
857.23	226.01
857.55	225.99
857.86	225.98
858.17	226.00
858.48	225.98
858.79	225.95
859.11	225.96
859.42	225.95
859.73	225.93
860.04	225.92
860.35	225.88
860.66	225.84
860.98	225.83
861.29	225.85
861.60	225.84
861.91	225.87
862.22	225.85
862.53	225.83
862.84	225.68
863.16	225.70
863.47	225.68
863.78	225.66
864.09	225.67
864.40	225.68
864.71	225.67
865.02	225.69
865.33	225.67
865.64	225.64
865.95	225.64
866.27	225.72
866.58	225.71
866.89	225.72
867.20	225.72
867.51	225.69
867.82	225.68
868.13	225.72
868.44	225.69
868.75	225.72
869.06	225.72
869.37	225.73
869.68	225.70
869.99	225.73
870.30	225.73
870.61	225.74
870.92	225.72
871.23	225.71
871.54	225.73
871.85	225.76
872.16	225.78
872.47	225.77
872.78	225.70
873.09	225.71
873.40	225.69
873.71	225.71
874.02	225.72
874.33	225.71
874.64	225.68
874.95	225.70
875.26	225.66
875.56	225.66
875.87	225.65
876.18	225.64
876.49	225.77
876.80	225.75
877.11	225.73
877.42	225.74
877.73	225.73
878.04	225.71
878.35	225.71
878.66	225.71
878.96	225.70
879.27	225.70
879.58	225.69
879.89	225.69
880.20	225.72
880.51	225.71
880.82	225.71
881.12	225.72
881.43	225.69
881.74	225.68
882.05	225.67
882.36	225.68
882.67	225.69
882.97	225.55
883.28	225.54
883.59	225.54
883.90	225.55
884.21	225.57
884.51	225.56
884.82	225.54
885.13	225.54
885.44	225.54
885.74	225.54
886.05	225.52
886.36	225.52
886.67	225.47
886.98	225.54
887.28	225.55
887.59	225.55
887.90	225.55
888.20	225.55
888.51	225.57
888.82	225.55
889.13	225.55
889.43	225.67
889.74	225.66
890.05	225.66
890.35	225.64
890.66	225.62
890.97	225.60
891.28	225.59
891.58	225.60
891.89	225.60
892.20	225.58
892.50	225.57
892.81	225.57
893.12	225.57
893.42	225.50
893.73	225.50
894.04	225.50
894.34	225.51
894.65	225.51
894.95	225.49
895.26	225.50
895.57	225.56
895.87	225.42
896.18	225.45
896.48	225.46
896.79	225.45
897.10	225.48
897.40	225.48
897.71	225.50
898.01	225.48
898.32	225.50
898.63	225.50
898.93	225.50
899.24	225.51
899.54	225.51
899.85	225.50
900.15	225.49
900.46	225.49
900.76	225.50
901.07	225.50
901.38	225.49
901.68	225.51
901.99	225.44
902.29	225.45
902.60	225.44
902.90	225.43
903.21	225.43
903.51	225.41
903.82	225.44
904.12	225.44
904.43	225.45
904.73	225.44
905.03	225.45
905.34	225.57
905.64	225.56
905.95	225.56
906.25	225.56
906.56	225.56
906.86	225.56
907.17	225.54
907.47	225.55
907.77	225.54
908.08	225.51
908.38	225.52
908.69	225.53
908.99	225.55
909.30	225.56
909.60	225.56
909.90	225.56
910.21	225.52
910.51	225.50
910.81	225.50
911.12	225.50
911.42	225.50
911.73	225.37
912.03	225.38
912.33	225.41
912.64	225.40
912.94	225.39
913.24	225.36
913.55	225.36
913.85	225.34
914.15	225.37
914.46	225.39
914.76	225.37
915.06	225.36
915.37	225.34
915.67	225.33
915.97	225.33
916.27	225.30
916.58	225.31
916.88	225.31
917.18	225.30
917.49	225.39
917.79	225.38
918.09	225.40
918.39	225.43
918.70	225.42
919.00	225.43
919.30	225.48
919.60	225.48
919.91	225.47
920.21	225.47
920.51	225.45
920.81	225.44
921.12	225.46
921.42	225.46
921.72	225.47
922.02	225.47
922.32	225.49
922.63	225.50
922.93	225.57
923.23	225.57
923.53	225.56
923.83	225.47
924.13	225.48
924.44	225.48
924.74	225.50
925.04	225.52
925.34	225.52
925.64	225.47
925.94	225.47
926.24	225.54
926.55	225.53
926.85	225.55
927.15	225.55
927.45	225.55
927.75	225.55
928.05	225.55
928.35	225.54
928.65	225.56
928.95	225.57
929.26	225.51
929.56	225.53
929.86	225.55
930.16	225.54
930.46	225.53
930.76	225.54
931.06	225.48
931.36	225.44
931.66	225.46
931.96	225.48
932.26	225.48
932.56	225.43
932.86	225.44
933.16	225.43
933.46	225.42
933.76	225.40
934.06	225.42
934.36	225.46
934.66	225.45
934.96	225.43
935.26	225.43
935.56	225.45
935.86	225.42
936.16	225.40
936.46	225.39
936.76	225.39
937.06	225.37
937.36	225.38
937.66	225.38
937.96	225.37
938.26	225.34
938.56	225.34
938.86	225.34
939.16	225.37
939.46	225.38
939.76	225.39
940.06	225.39
940.35	225.36
940.65	225.30
940.95	225.31
941.25	225.28
941.55	225.27
941.85	225.26
942.15	225.29
942.45	225.32
942.75	225.32
943.04	225.32
943.34	225.35
943.64	225.34
943.94	225.32
944.24	225.32
944.54	225.33
944.84	225.33
945.13	225.31
945.43	225.29
945.73	225.28
946.03	225.28
946.33	225.26
946.62	225.25
946.92	225.25
947.22	225.26
947.52	225.27
947.82	225.28
948.11	225.27
948.41	225.24
948.71	225.20
949.01	225.21
949.31	225.20
949.60	225.19
949.90	225.20
950.20	225.20
950.50	225.20
950.79	225.19
951.09	225.21
951.39	225.20
951.69	225.18
951.98	225.21
952.28	225.21
952.58	225.22
952.87	225.22
953.17	225.23
953.47	225.21
953.76	225.21
954.06	225.19
954.36	225.17
954.66	225.17
954.95	225.21
955.25	225.22
955.55	225.23
955.84	225.21
956.14	225.22
956.44	225.23
956.73	225.21
957.03	225.22
957.32	225.22
957.62	225.21
957.92	225.24
958.21	225.22
958.51	225.37
958.81	225.38
959.10	225.40
959.40	225.42
959.69	225.43
959.99	225.45
960.29	225.46
960.58	225.46
960.88	225.50
961.17	225.48
961.47	225.49
961.76	225.48
962.06	225.50
962.36	225.49
962.65	225.49
962.95	225.49
963.24	225.48
963.54	225.48
963.83	225.49
964.13	225.48
964.42	225.47
964.72	225.36
965.01	225.36
965.31	225.35
965.60	225.32
965.90	225.39
966.19	225.36
966.49	225.37
966.78	225.37
967.08	225.35
967.37	225.36
967.67	225.33
967.96	225.35
968.26	225.34
968.55	225.36
968.85	225.36
969.14	225.36
969.43	225.36
969.73	225.35
970.02	225.34
970.32	225.33
970.61	225.31
970.91	225.27
971.20	225.26
971.49	225.25
971.79	225.26
972.08	225.17
972.38	225.19
972.67	225.18
972.96	225.20
973.26	225.17
973.55	225.21
973.85	225.21
974.14	225.19
974.43	225.20
974.73	225.18
975.02	225.17
975.31	225.17
975.61	225.17
975.90	225.16
976.19	225.15
976.49	225.16
976.78	225.17
977.07	225.18
977.37	225.18
977.66	225.20
977.95	225.18
978.24	225.19
978.54	225.22
978.83	225.21
979.12	225.20
979.42	225.20
979.71	225.17
980.00	225.17
980.29	225.18
980.59	225.15
980.88	225.19
981.17	225.18
981.46	225.18
981.76	225.19
982.05	225.23
982.34	225.23
982.63	225.23
982.93	225.23
983.22	225.26
983.51	225.26
983.80	225.28
984.09	225.30
984.39	225.29
984.68	225.27
984.97	225.28
985.26	225.27
985.55	225.28
985.85	225.25
986.14	225.27
986.43	225.29
986.72	225.28
987.01	225.24
987.30	225.24
987.59	225.24
987.89	225.24
988.18	225.20
988.47	225.19
988.76	225.18
989.05	225.18
989.34	225.15
989.63	225.19
989.92	225.16
990.22	225.15
990.51	225.15
990.80	225.14
991.09	225.14
991.38	225.16
991.67	225.15
991.96	225.14
992.25	225.14
992.54	225.11
992.83	225.12
993.12	225.12
993.41	225.14
993.70	225.19
993.99	225.21
994.28	225.22
994.58	225.24
994.87	225.23
995.16	225.23
995.45	225.22
995.74	225.17
996.03	225.19
996.32	225.21
996.61	225.24
996.90	225.23
997.19	225.23
997.48	225.23
997.77	225.22
998.06	225.23
998.34	225.21
998.63	225.22
998.92	225.22
999.21	225.24
999.50	225.23
999.79	225.19
1000.08	225.18
1000.37	225.18
1000.66	225.16
1000.95	225.20
1001.24	225.21
1001.53	225.22
1001.82	225.22
1002.11	225.19
1002.40	225.20
1002.68	225.22
1002.97	225.31
1003.26	225.30
1003.55	225.28
1003.84	225.29
1004.13	225.33
1004.42	225.32
1004.71	225.32
1004.99	225.31
1005.28	225.34
1005.57	225.34
1005.86	225.33
1006.15	225.31
1006.44	225.30
1006.72	225.32
1007.01	225.29
1007.30	225.28
1007.59	225.27
1007.88	225.27
1008.17	225.28
1008.45	225.25
1008.74	225.20
1009.03	225.14
1009.32	225.14
1009.60	225.14
1009.89	225.13
1010.18	225.08
1010.47	225.08
1010.76	225.08
1011.04	225.08
1011.33	225.07
1011.62	225.08
1011.91	225.09
1012.19	225.10
1012.48	225.11
1012.77	225.10
1013.05	225.15
1013.34	225.15
1013.63	225.14
1013.92	225.15
1014.20	225.14
1014.49	225.15
1014.78	225.17
1015.06	225.12
1015.35	225.13
1015.64	225.14
1015.92	225.16
1016.21	225.17
1016.50	225.17
1016.78	225.19
1017.07	225.20
1017.36	225.18
1017.64	225.16
1017.93	225.17
1018.22	225.16
1018.50	225.15
1018.79	225.15
1019.08	225.10
1019.36	225.11
1019.65	225.10
1019.93	225.13
1020.22	225.15
1020.51	225.22
1020.79	225.21
1021.08	225.02
1021.36	224.98
1021.65	225.12
1021.94	225.06
1022.22	225.25
1022.51	224.93
1022.79	225.76
1023.08	225.30
1023.36	226.65
1023.65	224.87
>>>>>End Processed Spectral Data<<<<<
