SpectraSuite Data File
++++++++++++++++++++++++++++++++++++
Date: Fri Oct 02 17:06:37 EDT 2015
User: lab3
Dark Spectrum Present: No
Reference Spectrum Present: No
Number of Sampled Component Spectra: 1
Spectrometers: USB2E7196
Integration Time (usec): 46000 (USB2E7196)
Spectra Averaged: 1200 (USB2E7196)
Boxcar Smoothing: 10 (USB2E7196)
Correct for Electrical Dark: No (USB2E7196)
Strobe/Lamp Enabled: No (USB2E7196)
Correct for Detector Non-linearity: No (USB2E7196)
Correct for Stray Light: No (USB2E7196)
Number of Pixels in Processed Spectrum: 2048
>>>>>Begin Processed Spectral Data<<<<<
339.09	0.00
339.48	214.85
339.86	216.18
340.24	217.62
340.63	219.02
341.01	222.36
341.39	221.84
341.78	223.00
342.16	224.20
342.54	224.67
342.93	213.17
343.31	223.94
343.69	224.48
344.07	224.94
344.46	225.38
344.84	225.77
345.22	225.98
345.60	226.22
345.99	226.42
346.37	226.56
346.75	226.67
347.13	226.74
347.52	226.80
347.90	226.88
348.28	226.91
348.66	226.98
349.05	226.97
349.43	227.02
349.81	227.06
350.19	227.12
350.57	227.18
350.96	227.26
351.34	227.34
351.72	227.43
352.10	227.52
352.48	227.58
352.87	227.63
353.25	227.70
353.63	227.77
354.01	227.83
354.39	227.90
354.77	227.98
355.15	228.09
355.54	228.14
355.92	228.17
356.30	228.26
356.68	228.41
357.06	228.48
357.44	228.52
357.82	228.58
358.20	228.70
358.58	228.76
358.97	228.83
359.35	228.90
359.73	228.98
360.11	229.04
360.49	229.10
360.87	229.15
361.25	229.21
361.63	229.29
362.01	229.34
362.39	229.38
362.77	229.42
363.15	229.43
363.53	229.46
363.91	229.50
364.29	229.52
364.67	229.41
365.05	229.44
365.43	229.49
365.81	229.52
366.19	229.54
366.57	229.59
366.95	229.59
367.33	229.58
367.71	229.57
368.09	229.59
368.47	229.59
368.85	229.57
369.23	229.59
369.61	229.54
369.99	229.56
370.37	229.55
370.75	229.61
371.13	229.59
371.51	229.55
371.89	229.53
372.27	229.51
372.65	229.49
373.03	229.45
373.41	229.40
373.78	229.36
374.16	229.26
374.54	229.17
374.92	229.11
375.30	229.06
375.68	229.00
376.06	228.97
376.44	228.91
376.82	228.88
377.19	228.83
377.57	228.78
377.95	228.70
378.33	228.64
378.71	228.49
379.09	228.45
379.47	228.42
379.84	228.36
380.22	228.29
380.60	228.21
380.98	228.16
381.36	228.11
381.73	228.05
382.11	228.02
382.49	227.98
382.87	227.93
383.25	227.90
383.62	228.00
384.00	227.93
384.38	227.89
384.76	227.87
385.13	227.86
385.51	227.82
385.89	227.76
386.27	227.73
386.64	227.71
387.02	227.66
387.40	227.60
387.78	227.59
388.15	227.57
388.53	227.54
388.91	227.51
389.29	227.47
389.66	227.46
390.04	227.42
390.42	227.41
390.79	227.40
391.17	227.37
391.55	227.22
391.92	227.20
392.30	227.21
392.68	227.17
393.05	227.15
393.43	227.15
393.81	227.16
394.18	227.13
394.56	227.13
394.94	227.17
395.31	227.18
395.69	227.22
396.06	227.25
396.44	227.28
396.82	227.29
397.19	227.39
397.57	227.41
397.95	227.45
398.32	227.45
398.70	227.49
399.07	227.55
399.45	227.59
399.82	227.64
400.20	227.67
400.58	227.73
400.95	227.74
401.33	227.82
401.70	227.97
402.08	228.07
402.45	228.15
402.83	228.26
403.20	228.36
403.58	228.45
403.95	228.59
404.33	228.74
404.71	228.88
405.08	229.09
405.46	229.25
405.83	229.44
406.21	229.63
406.58	229.85
406.96	230.06
407.33	230.31
407.70	230.58
408.08	230.96
408.45	231.30
408.83	231.66
409.20	231.98
409.58	232.28
409.95	232.68
410.33	233.12
410.70	233.52
411.08	234.02
411.45	234.54
411.82	235.06
412.20	235.66
412.57	236.37
412.95	236.93
413.32	237.67
413.69	238.43
414.07	239.24
414.44	240.11
414.82	241.00
415.19	242.05
415.56	243.10
415.94	244.20
416.31	245.43
416.68	246.67
417.06	248.10
417.43	249.43
417.81	250.98
418.18	252.55
418.55	254.27
418.93	256.04
419.30	257.90
419.67	259.88
420.04	261.90
420.42	264.02
420.79	266.47
421.16	268.94
421.54	271.44
421.91	274.05
422.28	276.78
422.66	279.72
423.03	282.52
423.40	285.46
423.77	288.62
424.15	291.84
424.52	295.20
424.89	298.84
425.26	302.48
425.64	305.83
426.01	309.61
426.38	313.47
426.75	317.45
427.13	321.54
427.50	325.83
427.87	330.30
428.24	334.81
428.61	339.15
428.99	343.82
429.36	348.95
429.73	353.85
430.10	358.75
430.47	363.77
430.85	368.96
431.22	374.52
431.59	380.25
431.96	385.84
432.33	392.07
432.70	397.99
433.08	404.96
433.45	411.59
433.82	418.10
434.19	425.39
434.56	432.58
434.93	439.52
435.30	446.37
435.68	454.12
436.05	461.72
436.42	469.28
436.79	476.22
437.16	483.67
437.53	491.68
437.90	499.68
438.27	507.50
438.64	515.94
439.01	523.58
439.38	530.59
439.75	537.33
440.13	544.90
440.50	552.09
440.87	557.81
441.24	564.05
441.61	570.87
441.98	575.80
442.35	581.66
442.72	587.61
443.09	593.29
443.46	596.84
443.83	599.38
444.20	601.50
444.57	604.67
444.94	606.40
445.31	608.16
445.68	609.63
446.05	610.65
446.42	610.03
446.79	609.24
447.16	608.50
447.53	607.77
447.90	605.10
448.27	602.52
448.64	598.76
449.01	596.06
449.37	590.92
449.74	586.29
450.11	580.39
450.48	573.98
450.85	567.56
451.22	562.05
451.59	556.68
451.96	551.80
452.33	544.82
452.70	538.64
453.07	531.16
453.43	523.70
453.80	516.46
454.17	509.57
454.54	503.21
454.91	496.03
455.28	489.36
455.65	483.06
456.02	476.43
456.38	471.06
456.75	464.18
457.12	458.67
457.49	453.12
457.86	447.89
458.23	443.32
458.59	438.26
458.96	433.07
459.33	428.52
459.70	423.89
460.07	420.41
460.43	416.28
460.80	412.45
461.17	409.12
461.54	405.50
461.91	402.13
462.27	398.69
462.64	395.96
463.01	392.78
463.38	389.55
463.74	386.65
464.11	384.13
464.48	381.86
464.85	379.37
465.21	377.49
465.58	375.39
465.95	372.97
466.32	371.06
466.68	369.19
467.05	367.30
467.42	365.46
467.78	363.44
468.15	361.61
468.52	360.26
468.88	358.45
469.25	356.80
469.62	355.50
469.98	354.07
470.35	352.79
470.72	351.63
471.08	350.47
471.45	349.51
471.82	348.41
472.18	347.25
472.55	346.53
472.92	345.58
473.28	344.85
473.65	344.07
474.02	343.31
474.38	342.68
474.75	342.31
475.11	341.80
475.48	341.58
475.85	341.34
476.21	341.22
476.58	341.15
476.94	341.30
477.31	341.37
477.67	341.48
478.04	341.71
478.41	342.03
478.77	342.47
479.14	342.74
479.50	343.27
479.87	343.95
480.23	344.63
480.60	345.31
480.96	345.99
481.33	346.98
481.69	347.97
482.06	348.95
482.42	349.88
482.79	351.00
483.15	352.30
483.52	353.77
483.88	355.20
484.25	356.71
484.61	358.28
484.98	359.99
485.34	361.91
485.71	363.93
486.07	366.07
486.44	368.21
486.80	370.61
487.17	373.10
487.53	375.83
487.90	378.68
488.26	381.79
488.62	385.07
488.99	388.34
489.35	391.80
489.72	395.54
490.08	399.47
490.44	403.52
490.81	407.76
491.17	412.09
491.54	416.74
491.90	421.55
492.26	426.68
492.63	432.07
492.99	437.69
493.36	443.49
493.72	449.62
494.08	455.86
494.45	462.49
494.81	469.39
495.17	476.47
495.54	483.93
495.90	491.72
496.26	499.67
496.63	507.87
496.99	516.36
497.35	525.26
497.72	534.43
498.08	543.82
498.44	553.52
498.80	563.82
499.17	574.38
499.53	585.24
499.89	596.46
500.26	607.90
500.62	619.62
500.98	631.98
501.34	644.51
501.71	657.56
502.07	670.79
502.43	684.56
502.79	698.57
503.16	713.03
503.52	727.67
503.88	742.72
504.24	758.22
504.60	773.95
504.97	790.16
505.33	806.77
505.69	824.26
506.05	842.07
506.41	859.78
506.78	877.66
507.14	896.06
507.50	914.93
507.86	934.09
508.22	953.49
508.59	972.71
508.95	992.74
509.31	1013.50
509.67	1034.92
510.03	1056.29
510.39	1077.68
510.75	1099.28
511.12	1121.14
511.48	1143.13
511.84	1165.21
512.20	1187.66
512.56	1210.86
512.92	1234.11
513.28	1257.00
513.64	1280.03
514.00	1303.50
514.37	1327.26
514.73	1350.98
515.09	1374.57
515.45	1398.49
515.81	1422.55
516.17	1446.72
516.53	1470.31
516.89	1493.74
517.25	1517.42
517.61	1541.02
517.97	1564.99
518.33	1588.38
518.69	1611.72
519.05	1635.57
519.41	1659.63
519.77	1683.80
520.13	1707.24
520.49	1730.58
520.85	1754.24
521.21	1777.43
521.57	1801.07
521.93	1824.14
522.29	1847.69
522.65	1870.73
523.01	1893.67
523.37	1916.14
523.73	1939.32
524.09	1962.22
524.45	1984.89
524.81	2007.08
525.17	2029.01
525.53	2050.42
525.89	2072.29
526.25	2094.08
526.61	2114.85
526.97	2135.69
527.33	2156.46
527.68	2176.95
528.04	2196.69
528.40	2215.42
528.76	2234.48
529.12	2252.90
529.48	2271.00
529.84	2287.30
530.20	2304.16
530.56	2320.50
530.91	2336.96
531.27	2353.00
531.63	2368.27
531.99	2383.19
532.35	2397.42
532.71	2411.72
533.07	2426.53
533.42	2439.58
533.78	2453.53
534.14	2467.73
534.50	2480.99
534.86	2494.02
535.21	2505.17
535.57	2516.75
535.93	2528.17
536.29	2538.38
536.65	2548.51
537.00	2558.04
537.36	2568.44
537.72	2577.35
538.08	2585.77
538.44	2593.62
538.79	2601.06
539.15	2607.74
539.51	2613.94
539.87	2619.42
540.22	2623.21
540.58	2627.10
540.94	2632.19
541.29	2635.71
541.65	2637.41
542.01	2638.62
542.37	2639.09
542.72	2640.90
543.08	2641.12
543.44	2641.78
543.79	2641.47
544.15	2640.30
544.51	2639.48
544.87	2637.64
545.22	2635.11
545.58	2631.97
545.94	2628.80
546.29	2624.35
546.65	2619.92
547.01	2615.46
547.36	2611.79
547.72	2607.98
548.07	2602.69
548.43	2595.89
548.79	2588.33
549.14	2581.98
549.50	2575.74
549.86	2568.73
550.21	2560.65
550.57	2553.41
550.92	2544.08
551.28	2535.40
551.64	2526.98
551.99	2518.15
552.35	2508.75
552.70	2499.64
553.06	2490.84
553.41	2481.47
553.77	2471.94
554.13	2462.20
554.48	2451.75
554.84	2440.15
555.19	2429.20
555.55	2418.21
555.90	2407.36
556.26	2396.90
556.61	2385.48
556.97	2372.53
557.32	2360.15
557.68	2347.69
558.03	2335.07
558.39	2323.55
558.74	2312.21
559.10	2299.33
559.45	2286.68
559.81	2274.62
560.16	2262.05
560.52	2249.61
560.87	2237.45
561.23	2224.56
561.58	2212.01
561.94	2198.99
562.29	2185.53
562.64	2172.70
563.00	2159.52
563.35	2146.83
563.71	2133.92
564.06	2120.94
564.42	2108.62
564.77	2095.76
565.12	2082.84
565.48	2069.90
565.83	2057.02
566.19	2044.24
566.54	2031.43
566.89	2017.63
567.25	2004.00
567.60	1991.52
567.96	1978.33
568.31	1963.95
568.66	1950.25
569.02	1937.56
569.37	1924.86
569.72	1912.68
570.08	1899.23
570.43	1885.56
570.78	1871.60
571.14	1857.19
571.49	1843.40
571.84	1830.15
572.20	1815.75
572.55	1801.60
572.90	1787.38
573.26	1773.09
573.61	1758.36
573.96	1744.14
574.31	1730.10
574.67	1716.05
575.02	1701.16
575.37	1686.28
575.72	1672.23
576.08	1658.56
576.43	1643.80
576.78	1629.52
577.13	1615.44
577.49	1601.81
577.84	1588.67
578.19	1574.74
578.54	1561.02
578.90	1546.80
579.25	1532.52
579.60	1519.70
579.95	1506.78
580.30	1493.69
580.66	1480.40
581.01	1467.07
581.36	1453.72
581.71	1441.31
582.06	1428.79
582.42	1416.52
582.77	1404.32
583.12	1392.13
583.47	1379.74
583.82	1367.46
584.17	1354.86
584.53	1341.99
584.88	1329.41
585.23	1316.54
585.58	1304.46
585.93	1292.53
586.28	1281.28
586.63	1270.02
586.98	1258.32
587.34	1246.67
587.69	1234.85
588.04	1223.39
588.39	1212.31
588.74	1201.28
589.09	1190.08
589.44	1178.50
589.79	1167.49
590.14	1156.65
590.49	1145.74
590.84	1134.94
591.19	1124.50
591.54	1113.97
591.89	1103.54
592.25	1093.30
592.60	1082.75
592.95	1072.54
593.30	1062.49
593.65	1052.23
594.00	1042.06
594.35	1032.49
594.70	1022.51
595.05	1013.34
595.40	1004.04
595.75	994.58
596.10	985.66
596.45	976.49
596.80	967.64
597.15	958.59
597.50	949.62
597.85	940.99
598.19	932.28
598.54	923.66
598.89	915.38
599.24	907.40
599.59	899.28
599.94	892.01
600.29	884.52
600.64	876.82
600.99	868.78
601.34	861.12
601.69	853.07
602.04	845.69
602.39	838.16
602.74	830.69
603.08	823.21
603.43	815.70
603.78	808.34
604.13	801.12
604.48	793.88
604.83	786.83
605.18	779.70
605.53	772.71
605.87	765.55
606.22	758.72
606.57	751.83
606.92	744.84
607.27	737.79
607.62	731.05
607.96	724.67
608.31	718.65
608.66	712.48
609.01	706.56
609.36	700.75
609.70	694.71
610.05	688.67
610.40	682.86
610.75	677.05
611.10	671.55
611.44	665.93
611.79	660.42
612.14	654.81
612.49	649.32
612.83	644.07
613.18	638.96
613.53	633.73
613.88	628.57
614.22	623.78
614.57	618.90
614.92	613.87
615.27	608.94
615.61	604.09
615.96	599.29
616.31	594.51
616.65	589.78
617.00	585.22
617.35	580.75
617.70	576.36
618.04	572.02
618.39	567.60
618.74	563.40
619.08	559.24
619.43	555.21
619.78	551.20
620.12	547.12
620.47	543.21
620.82	539.37
621.16	535.54
621.51	531.63
621.85	527.80
622.20	524.14
622.55	520.47
622.89	516.86
623.24	513.28
623.59	509.71
623.93	506.27
624.28	502.92
624.62	499.68
624.97	496.46
625.32	493.21
625.66	489.93
626.01	486.62
626.35	483.36
626.70	480.14
627.04	477.06
627.39	473.96
627.73	471.00
628.08	468.12
628.43	465.25
628.77	462.43
629.12	459.70
629.46	456.95
629.81	454.17
630.15	451.43
630.50	448.72
630.84	446.09
631.19	443.51
631.53	441.02
631.88	438.48
632.22	435.96
632.57	433.72
632.91	431.50
633.26	429.36
633.60	427.23
633.95	425.15
634.29	422.99
634.64	420.90
634.98	418.63
635.32	416.52
635.67	414.56
636.01	412.54
636.36	410.55
636.70	408.72
637.05	406.87
637.39	405.03
637.73	403.22
638.08	401.52
638.42	399.76
638.77	397.93
639.11	396.03
639.45	394.21
639.80	392.33
640.14	390.53
640.49	388.73
640.83	386.90
641.17	385.17
641.52	383.47
641.86	381.79
642.20	380.29
642.55	378.64
642.89	377.00
643.23	375.45
643.58	374.05
643.92	372.52
644.26	371.04
644.61	369.61
644.95	368.16
645.29	366.64
645.64	365.15
645.98	363.71
646.32	362.40
646.66	361.05
647.01	359.73
647.35	358.47
647.69	357.17
648.04	356.01
648.38	354.75
648.72	353.51
649.06	352.27
649.41	351.05
649.75	349.88
650.09	348.73
650.43	347.56
650.78	346.37
651.12	345.19
651.46	344.07
651.80	342.97
652.14	341.87
652.49	340.83
652.83	339.78
653.17	338.75
653.51	337.75
653.85	336.81
654.20	335.80
654.54	334.73
654.88	333.75
655.22	332.78
655.56	331.80
655.90	330.86
656.25	329.98
656.59	329.08
656.93	328.22
657.27	327.37
657.61	326.48
657.95	325.61
658.29	324.74
658.64	323.92
658.98	323.07
659.32	322.26
659.66	321.49
660.00	320.73
660.34	319.98
660.68	319.19
661.02	318.36
661.36	317.57
661.70	316.81
662.05	316.06
662.39	315.33
662.73	314.68
663.07	314.03
663.41	313.31
663.75	312.60
664.09	311.89
664.43	311.14
664.77	310.48
665.11	309.78
665.45	309.14
665.79	308.50
666.13	307.82
666.47	307.14
666.81	306.43
667.15	305.69
667.49	305.04
667.83	304.47
668.17	303.87
668.51	303.32
668.85	302.78
669.19	302.27
669.53	301.64
669.87	301.01
670.21	300.39
670.55	299.83
670.89	299.33
671.23	298.80
671.57	298.27
671.91	297.79
672.25	297.32
672.58	296.84
672.92	296.29
673.26	295.83
673.60	295.36
673.94	294.90
674.28	294.49
674.62	294.03
674.96	293.51
675.30	293.05
675.64	292.56
675.97	292.06
676.31	291.54
676.65	291.07
676.99	290.66
677.33	290.18
677.67	289.73
678.01	289.19
678.34	288.74
678.68	288.33
679.02	287.83
679.36	287.36
679.70	286.88
680.04	286.46
680.37	286.00
680.71	285.57
681.05	285.16
681.39	284.70
681.73	284.22
682.06	283.76
682.40	283.33
682.74	282.95
683.08	282.60
683.42	282.19
683.75	281.82
684.09	281.36
684.43	280.96
684.77	280.56
685.10	280.20
685.44	279.81
685.78	279.41
686.12	279.04
686.45	278.65
686.79	278.24
687.13	277.86
687.46	277.46
687.80	277.08
688.14	276.65
688.48	276.28
688.81	275.90
689.15	275.56
689.49	275.17
689.82	274.76
690.16	274.31
690.50	273.93
690.83	273.54
691.17	273.16
691.51	272.79
691.84	272.43
692.18	272.03
692.52	271.63
692.85	271.24
693.19	270.91
693.52	270.54
693.86	270.17
694.20	269.80
694.53	269.45
694.87	269.07
695.21	268.72
695.54	268.36
695.88	267.99
696.21	267.59
696.55	267.24
696.88	266.90
697.22	266.55
697.56	266.21
697.89	265.82
698.23	265.47
698.56	265.10
698.90	264.76
699.23	264.40
699.57	264.04
699.90	263.68
700.24	263.31
700.58	263.00
700.91	262.71
701.25	262.50
701.58	262.23
701.92	261.95
702.25	261.63
702.59	261.31
702.92	261.00
703.26	260.67
703.59	260.33
703.93	260.11
704.26	259.81
704.60	259.49
704.93	259.18
705.26	258.86
705.60	258.60
705.93	258.27
706.27	258.02
706.60	257.78
706.94	257.55
707.27	257.23
707.61	256.91
707.94	256.59
708.27	256.17
708.61	255.83
708.94	255.52
709.28	255.24
709.61	254.95
709.94	254.69
710.28	254.44
710.61	254.22
710.95	253.86
711.28	253.68
711.61	253.42
711.95	253.21
712.28	252.94
712.61	252.66
712.95	252.47
713.28	252.29
713.61	252.00
713.95	251.71
714.28	251.49
714.61	251.24
714.95	251.01
715.28	250.77
715.61	250.55
715.95	250.33
716.28	250.11
716.61	249.94
716.95	249.70
717.28	249.48
717.61	249.24
717.94	249.03
718.28	248.71
718.61	248.50
718.94	248.27
719.27	248.06
719.61	247.88
719.94	247.65
720.27	247.36
720.60	247.16
720.94	246.96
721.27	246.76
721.60	246.58
721.93	246.38
722.27	246.23
722.60	246.06
722.93	245.85
723.26	245.66
723.59	245.43
723.93	245.26
724.26	245.07
724.59	244.88
724.92	244.72
725.25	244.59
725.59	244.43
725.92	244.28
726.25	244.11
726.58	243.94
726.91	243.76
727.24	243.61
727.57	243.45
727.91	243.26
728.24	243.14
728.57	242.98
728.90	242.84
729.23	242.63
729.56	242.52
729.89	242.36
730.22	242.20
730.55	242.06
730.89	241.90
731.22	241.75
731.55	241.60
731.88	241.45
732.21	241.28
732.54	241.12
732.87	240.98
733.20	240.85
733.53	240.71
733.86	240.59
734.19	240.43
734.52	240.31
734.85	240.27
735.18	240.10
735.51	239.99
735.84	239.86
736.17	239.78
736.50	239.58
736.83	239.61
737.16	239.48
737.49	239.37
737.82	239.24
738.15	239.13
738.48	239.02
738.81	238.90
739.14	238.76
739.47	238.63
739.80	238.51
740.13	238.39
740.46	238.25
740.79	238.12
741.12	238.00
741.45	237.87
741.78	237.69
742.11	237.62
742.44	237.48
742.77	237.39
743.10	237.25
743.43	237.14
743.75	236.90
744.08	236.98
744.41	236.86
744.74	236.77
745.07	236.64
745.40	236.55
745.73	236.50
746.06	236.41
746.39	236.33
746.71	236.23
747.04	236.12
747.37	236.03
747.70	235.95
748.03	235.87
748.36	235.80
748.68	235.70
749.01	235.57
749.34	235.47
749.67	235.38
750.00	235.32
750.33	235.33
750.65	235.25
750.98	234.98
751.31	234.90
751.64	234.82
751.97	234.80
752.29	234.72
752.62	234.57
752.95	234.49
753.28	234.38
753.60	234.29
753.93	234.25
754.26	234.18
754.59	234.07
754.91	233.96
755.24	233.87
755.57	233.85
755.90	233.77
756.22	233.70
756.55	233.60
756.88	233.51
757.20	233.34
757.53	233.24
757.86	233.16
758.19	233.10
758.51	233.02
758.84	232.89
759.17	232.80
759.49	232.74
759.82	232.72
760.15	232.67
760.47	232.61
760.80	232.52
761.13	232.46
761.45	232.41
761.78	232.36
762.11	232.30
762.43	232.17
762.76	232.11
763.08	232.07
763.41	232.01
763.74	231.95
764.06	231.88
764.39	231.84
764.71	231.79
765.04	231.71
765.37	231.65
765.69	231.59
766.02	231.55
766.34	231.49
766.67	231.40
767.00	231.37
767.32	231.39
767.65	231.41
767.97	231.35
768.30	231.31
768.62	231.26
768.95	231.21
769.27	231.16
769.60	231.13
769.92	231.06
770.25	231.00
770.57	230.93
770.90	230.90
771.22	230.85
771.55	230.80
771.87	230.77
772.20	230.73
772.52	230.81
772.85	230.91
773.17	230.89
773.50	230.84
773.82	230.79
774.15	230.68
774.47	230.57
774.80	230.53
775.12	230.49
775.45	230.44
775.77	230.42
776.09	230.39
776.42	230.36
776.74	230.37
777.07	230.33
777.39	230.31
777.72	230.26
778.04	230.25
778.36	230.22
778.69	230.19
779.01	230.17
779.33	230.02
779.66	229.85
779.98	229.81
780.31	229.79
780.63	229.81
780.95	229.81
781.28	229.77
781.60	229.73
781.92	229.71
782.25	229.68
782.57	229.65
782.89	229.63
783.22	229.60
783.54	229.55
783.86	229.54
784.19	229.52
784.51	229.54
784.83	229.50
785.16	229.47
785.48	229.45
785.80	229.42
786.12	229.41
786.45	229.39
786.77	229.37
787.09	229.34
787.42	229.27
787.74	229.24
788.06	229.25
788.38	229.22
788.71	229.20
789.03	229.18
789.35	229.18
789.67	229.14
789.99	229.13
790.32	229.10
790.64	229.08
790.96	229.17
791.28	229.11
791.61	229.08
791.93	229.07
792.25	229.04
792.57	229.11
792.89	229.08
793.21	229.06
793.54	229.03
793.86	229.00
794.18	228.99
794.50	228.95
794.82	228.93
795.14	228.93
795.47	228.93
795.79	228.91
796.11	228.86
796.43	228.84
796.75	228.82
797.07	228.81
797.39	228.77
797.71	228.66
798.04	228.65
798.36	228.64
798.68	228.63
799.00	228.62
799.32	228.54
799.64	228.54
799.96	228.52
800.28	228.53
800.60	228.52
800.92	228.51
801.24	228.50
801.56	228.50
801.89	228.47
802.21	228.45
802.53	228.42
802.85	228.44
803.17	228.49
803.49	228.45
803.81	228.43
804.13	228.41
804.45	228.38
804.77	228.38
805.09	228.37
805.41	228.36
805.73	228.32
806.05	228.27
806.37	228.26
806.69	228.23
807.01	228.21
807.33	228.21
807.65	228.15
807.97	228.19
808.28	228.17
808.60	228.16
808.92	228.12
809.24	228.19
809.56	228.15
809.88	228.10
810.20	228.09
810.52	228.10
810.84	228.08
811.16	228.05
811.48	228.02
811.80	228.06
812.12	228.04
812.43	228.06
812.75	228.06
813.07	228.03
813.39	228.03
813.71	228.01
814.03	227.98
814.35	227.98
814.67	227.92
814.98	227.90
815.30	227.88
815.62	227.87
815.94	227.77
816.26	227.77
816.58	227.74
816.89	227.75
817.21	227.72
817.53	227.71
817.85	227.71
818.17	227.70
818.48	227.64
818.80	227.65
819.12	227.62
819.44	227.59
819.76	227.57
820.07	227.56
820.39	227.56
820.71	227.56
821.03	227.56
821.34	227.54
821.66	227.55
821.98	227.56
822.30	227.55
822.61	227.63
822.93	227.60
823.25	227.59
823.57	227.56
823.88	227.58
824.20	227.58
824.52	227.58
824.83	227.58
825.15	227.56
825.47	227.55
825.79	227.56
826.10	227.56
826.42	227.55
826.74	227.55
827.05	227.53
827.37	227.54
827.69	227.51
828.00	227.51
828.32	227.51
828.64	227.48
828.95	227.55
829.27	227.50
829.58	227.50
829.90	227.50
830.22	227.51
830.53	227.49
830.85	227.47
831.17	227.44
831.48	227.43
831.80	227.43
832.11	227.41
832.43	227.38
832.75	227.36
833.06	227.43
833.38	227.40
833.69	227.39
834.01	227.39
834.32	227.38
834.64	227.37
834.96	227.37
835.27	227.36
835.59	227.30
835.90	227.28
836.22	227.28
836.53	227.26
836.85	227.23
837.16	227.36
837.48	227.35
837.79	227.39
838.11	227.40
838.42	227.39
838.74	227.41
839.05	227.41
839.37	227.41
839.68	227.33
840.00	227.33
840.31	227.36
840.63	227.34
840.94	227.33
841.26	227.32
841.57	227.31
841.88	227.32
842.20	227.31
842.51	227.29
842.83	227.29
843.14	227.40
843.46	227.39
843.77	227.31
844.08	227.30
844.40	227.26
844.71	227.25
845.03	227.23
845.34	227.21
845.65	227.21
845.97	227.20
846.28	227.20
846.60	227.20
846.91	227.17
847.22	227.16
847.54	227.19
847.85	227.19
848.16	227.16
848.48	227.13
848.79	227.18
849.10	227.18
849.42	227.19
849.73	227.07
850.04	227.08
850.36	227.03
850.67	227.04
850.98	227.04
851.30	227.05
851.61	227.05
851.92	227.05
852.23	227.09
852.55	227.09
852.86	227.09
853.17	227.11
853.49	227.12
853.80	227.15
854.11	227.16
854.42	227.18
854.74	227.17
855.05	227.17
855.36	227.10
855.67	227.10
855.99	227.10
856.30	227.24
856.61	227.23
856.92	227.22
857.23	227.22
857.55	227.21
857.86	227.19
858.17	227.21
858.48	227.18
858.79	227.15
859.11	227.16
859.42	227.15
859.73	227.12
860.04	227.11
860.35	227.07
860.66	227.02
860.98	227.01
861.29	227.03
861.60	227.02
861.91	227.05
862.22	227.03
862.53	227.00
862.84	226.85
863.16	226.89
863.47	226.87
863.78	226.85
864.09	226.87
864.40	226.88
864.71	226.88
865.02	226.89
865.33	226.87
865.64	226.85
865.95	226.85
866.27	226.91
866.58	226.90
866.89	226.91
867.20	226.92
867.51	226.90
867.82	226.89
868.13	226.93
868.44	226.90
868.75	226.93
869.06	226.93
869.37	226.95
869.68	226.91
869.99	226.94
870.30	226.94
870.61	226.94
870.92	226.91
871.23	226.91
871.54	226.91
871.85	226.94
872.16	226.95
872.47	226.94
872.78	226.88
873.09	226.89
873.40	226.87
873.71	226.88
874.02	226.90
874.33	226.88
874.64	226.85
874.95	226.87
875.26	226.85
875.56	226.85
875.87	226.83
876.18	226.83
876.49	226.95
876.80	226.93
877.11	226.92
877.42	226.93
877.73	226.93
878.04	226.92
878.35	226.92
878.66	226.92
878.96	226.91
879.27	226.91
879.58	226.91
879.89	226.91
880.20	226.95
880.51	226.93
880.82	226.94
881.12	226.94
881.43	226.91
881.74	226.89
882.05	226.88
882.36	226.88
882.67	226.90
882.97	226.75
883.28	226.75
883.59	226.75
883.90	226.76
884.21	226.77
884.51	226.75
884.82	226.73
885.13	226.73
885.44	226.73
885.74	226.72
886.05	226.71
886.36	226.72
886.67	226.65
886.98	226.72
887.28	226.72
887.59	226.73
887.90	226.74
888.20	226.74
888.51	226.77
888.82	226.76
889.13	226.76
889.43	226.86
889.74	226.85
890.05	226.84
890.35	226.82
890.66	226.81
890.97	226.81
891.28	226.81
891.58	226.81
891.89	226.81
892.20	226.81
892.50	226.79
892.81	226.78
893.12	226.79
893.42	226.73
893.73	226.73
894.04	226.73
894.34	226.73
894.65	226.72
894.95	226.70
895.26	226.70
895.57	226.76
895.87	226.63
896.18	226.66
896.48	226.68
896.79	226.68
897.10	226.68
897.40	226.68
897.71	226.69
898.01	226.67
898.32	226.68
898.63	226.68
898.93	226.70
899.24	226.70
899.54	226.71
899.85	226.70
900.15	226.69
900.46	226.68
900.76	226.69
901.07	226.70
901.38	226.70
901.68	226.72
901.99	226.65
902.29	226.66
902.60	226.64
902.90	226.62
903.21	226.62
903.51	226.62
903.82	226.64
904.12	226.64
904.43	226.65
904.73	226.64
905.03	226.64
905.34	226.75
905.64	226.74
905.95	226.73
906.25	226.73
906.56	226.73
906.86	226.73
907.17	226.72
907.47	226.73
907.77	226.71
908.08	226.69
908.38	226.70
908.69	226.72
908.99	226.75
909.30	226.75
909.60	226.75
909.90	226.75
910.21	226.71
910.51	226.69
910.81	226.68
911.12	226.69
911.42	226.68
911.73	226.56
912.03	226.57
912.33	226.60
912.64	226.59
912.94	226.58
913.24	226.57
913.55	226.56
913.85	226.54
914.15	226.58
914.46	226.59
914.76	226.57
915.06	226.55
915.37	226.52
915.67	226.52
915.97	226.52
916.27	226.50
916.58	226.51
916.88	226.51
917.18	226.51
917.49	226.59
917.79	226.59
918.09	226.60
918.39	226.64
918.70	226.63
919.00	226.64
919.30	226.69
919.60	226.68
919.91	226.67
920.21	226.68
920.51	226.65
920.81	226.64
921.12	226.66
921.42	226.66
921.72	226.67
922.02	226.67
922.32	226.69
922.63	226.70
922.93	226.76
923.23	226.77
923.53	226.77
923.83	226.68
924.13	226.70
924.44	226.70
924.74	226.70
925.04	226.72
925.34	226.71
925.64	226.67
925.94	226.67
926.24	226.73
926.55	226.71
926.85	226.73
927.15	226.73
927.45	226.73
927.75	226.73
928.05	226.73
928.35	226.72
928.65	226.74
928.95	226.75
929.26	226.70
929.56	226.71
929.86	226.73
930.16	226.72
930.46	226.71
930.76	226.70
931.06	226.65
931.36	226.60
931.66	226.64
931.96	226.64
932.26	226.66
932.56	226.61
932.86	226.63
933.16	226.61
933.46	226.61
933.76	226.58
934.06	226.59
934.36	226.64
934.66	226.63
934.96	226.60
935.26	226.62
935.56	226.63
935.86	226.59
936.16	226.58
936.46	226.55
936.76	226.55
937.06	226.53
937.36	226.54
937.66	226.55
937.96	226.54
938.26	226.51
938.56	226.50
938.86	226.49
939.16	226.52
939.46	226.54
939.76	226.54
940.06	226.55
940.35	226.53
940.65	226.47
940.95	226.48
941.25	226.45
941.55	226.43
941.85	226.41
942.15	226.44
942.45	226.47
942.75	226.48
943.04	226.48
943.34	226.52
943.64	226.50
943.94	226.48
944.24	226.49
944.54	226.51
944.84	226.51
945.13	226.49
945.43	226.47
945.73	226.46
946.03	226.45
946.33	226.44
946.62	226.43
946.92	226.44
947.22	226.44
947.52	226.47
947.82	226.49
948.11	226.48
948.41	226.47
948.71	226.44
949.01	226.44
949.31	226.43
949.60	226.40
949.90	226.43
950.20	226.42
950.50	226.42
950.79	226.41
951.09	226.44
951.39	226.44
951.69	226.42
951.98	226.44
952.28	226.46
952.58	226.46
952.87	226.46
953.17	226.48
953.47	226.47
953.76	226.46
954.06	226.43
954.36	226.42
954.66	226.41
954.95	226.44
955.25	226.45
955.55	226.47
955.84	226.46
956.14	226.46
956.44	226.47
956.73	226.45
957.03	226.46
957.32	226.45
957.62	226.45
957.92	226.47
958.21	226.45
958.51	226.59
958.81	226.61
959.10	226.62
959.40	226.63
959.69	226.64
959.99	226.65
960.29	226.65
960.58	226.65
960.88	226.69
961.17	226.68
961.47	226.69
961.76	226.69
962.06	226.72
962.36	226.70
962.65	226.71
962.95	226.71
963.24	226.71
963.54	226.71
963.83	226.71
964.13	226.72
964.42	226.70
964.72	226.59
965.01	226.58
965.31	226.57
965.60	226.55
965.90	226.62
966.19	226.60
966.49	226.62
966.78	226.62
967.08	226.61
967.37	226.61
967.67	226.58
967.96	226.59
968.26	226.58
968.55	226.61
968.85	226.60
969.14	226.60
969.43	226.59
969.73	226.57
970.02	226.56
970.32	226.54
970.61	226.52
970.91	226.48
971.20	226.47
971.49	226.46
971.79	226.46
972.08	226.36
972.38	226.37
972.67	226.36
972.96	226.36
973.26	226.33
973.55	226.36
973.85	226.36
974.14	226.34
974.43	226.34
974.73	226.32
975.02	226.31
975.31	226.31
975.61	226.31
975.90	226.29
976.19	226.30
976.49	226.32
976.78	226.32
977.07	226.32
977.37	226.32
977.66	226.33
977.95	226.32
978.24	226.34
978.54	226.37
978.83	226.35
979.12	226.34
979.42	226.35
979.71	226.33
980.00	226.33
980.29	226.34
980.59	226.32
980.88	226.35
981.17	226.35
981.46	226.34
981.76	226.35
982.05	226.40
982.34	226.41
982.63	226.41
982.93	226.41
983.22	226.44
983.51	226.45
983.80	226.47
984.09	226.48
984.39	226.48
984.68	226.47
984.97	226.49
985.26	226.48
985.55	226.49
985.85	226.46
986.14	226.47
986.43	226.48
986.72	226.47
987.01	226.43
987.30	226.43
987.59	226.43
987.89	226.43
988.18	226.39
988.47	226.38
988.76	226.37
989.05	226.36
989.34	226.34
989.63	226.37
989.92	226.35
990.22	226.34
990.51	226.34
990.80	226.32
991.09	226.32
991.38	226.34
991.67	226.32
991.96	226.32
992.25	226.32
992.54	226.31
992.83	226.32
993.12	226.32
993.41	226.33
993.70	226.38
993.99	226.40
994.28	226.42
994.58	226.44
994.87	226.44
995.16	226.43
995.45	226.43
995.74	226.38
996.03	226.41
996.32	226.43
996.61	226.45
996.90	226.45
997.19	226.45
997.48	226.45
997.77	226.44
998.06	226.45
998.34	226.44
998.63	226.44
998.92	226.44
999.21	226.47
999.50	226.46
999.79	226.42
1000.08	226.41
1000.37	226.42
1000.66	226.39
1000.95	226.42
1001.24	226.42
1001.53	226.43
1001.82	226.44
1002.11	226.39
1002.40	226.40
1002.68	226.42
1002.97	226.51
1003.26	226.50
1003.55	226.48
1003.84	226.50
1004.13	226.54
1004.42	226.54
1004.71	226.53
1004.99	226.53
1005.28	226.56
1005.57	226.56
1005.86	226.55
1006.15	226.54
1006.44	226.52
1006.72	226.54
1007.01	226.52
1007.30	226.53
1007.59	226.52
1007.88	226.53
1008.17	226.54
1008.45	226.51
1008.74	226.46
1009.03	226.39
1009.32	226.41
1009.60	226.41
1009.89	226.40
1010.18	226.35
1010.47	226.33
1010.76	226.34
1011.04	226.34
1011.33	226.34
1011.62	226.33
1011.91	226.35
1012.19	226.36
1012.48	226.36
1012.77	226.36
1013.05	226.40
1013.34	226.39
1013.63	226.39
1013.92	226.39
1014.20	226.39
1014.49	226.40
1014.78	226.42
1015.06	226.38
1015.35	226.38
1015.64	226.39
1015.92	226.42
1016.21	226.42
1016.50	226.43
1016.78	226.44
1017.07	226.45
1017.36	226.42
1017.64	226.41
1017.93	226.41
1018.22	226.41
1018.50	226.41
1018.79	226.42
1019.08	226.37
1019.36	226.39
1019.65	226.37
1019.93	226.41
1020.22	226.43
1020.51	226.50
1020.79	226.49
1021.08	226.38
1021.36	226.36
1021.65	226.60
1021.94	226.24
1022.22	226.58
1022.51	226.08
1022.79	227.07
1023.08	226.56
1023.36	228.02
1023.65	226.20
>>>>>End Processed Spectral Data<<<<<
