SpectraSuite Data File
++++++++++++++++++++++++++++++++++++
Date: Fri Oct 02 17:20:17 EDT 2015
User: lab3
Dark Spectrum Present: No
Reference Spectrum Present: No
Number of Sampled Component Spectra: 1
Spectrometers: USB2E7196
Integration Time (usec): 46000 (USB2E7196)
Spectra Averaged: 600 (USB2E7196)
Boxcar Smoothing: 10 (USB2E7196)
Correct for Electrical Dark: No (USB2E7196)
Strobe/Lamp Enabled: No (USB2E7196)
Correct for Detector Non-linearity: No (USB2E7196)
Correct for Stray Light: No (USB2E7196)
Number of Pixels in Processed Spectrum: 2048
>>>>>Begin Processed Spectral Data<<<<<
339.09	0.00
339.48	214.94
339.86	216.49
340.24	217.68
340.63	219.60
341.01	222.64
341.39	222.00
341.78	223.38
342.16	224.69
342.54	225.13
342.93	213.47
343.31	224.25
343.69	224.80
344.07	225.26
344.46	225.71
344.84	226.08
345.22	226.30
345.60	226.56
345.99	226.75
346.37	226.88
346.75	226.98
347.13	227.06
347.52	227.14
347.90	227.24
348.28	227.28
348.66	227.34
349.05	227.33
349.43	227.36
349.81	227.42
350.19	227.48
350.57	227.54
350.96	227.61
351.34	227.71
351.72	227.79
352.10	227.90
352.48	227.97
352.87	228.01
353.25	228.07
353.63	228.14
354.01	228.19
354.39	228.25
354.77	228.34
355.15	228.44
355.54	228.48
355.92	228.49
356.30	228.56
356.68	228.71
357.06	228.78
357.44	228.83
357.82	228.88
358.20	229.00
358.58	229.05
358.97	229.12
359.35	229.20
359.73	229.28
360.11	229.32
360.49	229.39
360.87	229.44
361.25	229.51
361.63	229.60
362.01	229.64
362.39	229.68
362.77	229.72
363.15	229.74
363.53	229.78
363.91	229.82
364.29	229.84
364.67	229.75
365.05	229.76
365.43	229.79
365.81	229.83
366.19	229.84
366.57	229.91
366.95	229.91
367.33	229.88
367.71	229.87
368.09	229.88
368.47	229.87
368.85	229.85
369.23	229.84
369.61	229.78
369.99	229.80
370.37	229.79
370.75	229.86
371.13	229.83
371.51	229.77
371.89	229.76
372.27	229.74
372.65	229.71
373.03	229.66
373.41	229.63
373.78	229.59
374.16	229.48
374.54	229.40
374.92	229.34
375.30	229.30
375.68	229.22
376.06	229.18
376.44	229.13
376.82	229.10
377.19	229.06
377.57	228.99
377.95	228.92
378.33	228.85
378.71	228.69
379.09	228.64
379.47	228.62
379.84	228.55
380.22	228.47
380.60	228.42
380.98	228.38
381.36	228.33
381.73	228.27
382.11	228.26
382.49	228.22
382.87	228.14
383.25	228.09
383.62	228.21
384.00	228.14
384.38	228.10
384.76	228.09
385.13	228.09
385.51	228.06
385.89	228.00
386.27	227.97
386.64	227.97
387.02	227.93
387.40	227.88
387.78	227.85
388.15	227.83
388.53	227.79
388.91	227.77
389.29	227.72
389.66	227.71
390.04	227.67
390.42	227.67
390.79	227.67
391.17	227.64
391.55	227.49
391.92	227.49
392.30	227.47
392.68	227.43
393.05	227.40
393.43	227.40
393.81	227.40
394.18	227.37
394.56	227.37
394.94	227.39
395.31	227.39
395.69	227.44
396.06	227.47
396.44	227.48
396.82	227.48
397.19	227.56
397.57	227.57
397.95	227.61
398.32	227.60
398.70	227.64
399.07	227.71
399.45	227.75
399.82	227.79
400.20	227.84
400.58	227.90
400.95	227.91
401.33	227.99
401.70	228.15
402.08	228.25
402.45	228.34
402.83	228.45
403.20	228.55
403.58	228.64
403.95	228.77
404.33	228.93
404.71	229.08
405.08	229.29
405.46	229.44
405.83	229.63
406.21	229.83
406.58	230.04
406.96	230.26
407.33	230.51
407.70	230.78
408.08	231.16
408.45	231.49
408.83	231.85
409.20	232.17
409.58	232.45
409.95	232.86
410.33	233.30
410.70	233.70
411.08	234.20
411.45	234.70
411.82	235.22
412.20	235.80
412.57	236.51
412.95	237.05
413.32	237.78
413.69	238.51
414.07	239.28
414.44	240.13
414.82	240.98
415.19	242.00
415.56	243.05
415.94	244.10
416.31	245.29
416.68	246.49
417.06	247.90
417.43	249.20
417.81	250.70
418.18	252.23
418.55	253.90
418.93	255.62
419.30	257.44
419.67	259.36
420.04	261.33
420.42	263.40
420.79	265.78
421.16	268.19
421.54	270.63
421.91	273.21
422.28	275.87
422.66	278.74
423.03	281.47
423.40	284.32
423.77	287.40
424.15	290.54
424.52	293.82
424.89	297.37
425.26	300.89
425.64	304.18
426.01	307.87
426.38	311.65
426.75	315.55
427.13	319.56
427.50	323.75
427.87	328.10
428.24	332.47
428.61	336.70
428.99	341.28
429.36	346.28
429.73	351.09
430.10	355.88
430.47	360.78
430.85	365.84
431.22	371.27
431.59	376.85
431.96	382.30
432.33	388.38
432.70	394.15
433.08	400.95
433.45	407.40
433.82	413.79
434.19	420.89
434.56	427.89
434.93	434.62
435.30	441.30
435.68	448.89
436.05	456.32
436.42	463.72
436.79	470.45
437.16	477.73
437.53	485.50
437.90	493.29
438.27	500.89
438.64	509.14
439.01	516.61
439.38	523.43
439.75	529.99
440.13	537.34
440.50	544.37
440.87	549.94
441.24	556.02
441.61	562.61
441.98	567.41
442.35	573.14
442.72	578.97
443.09	584.51
443.46	587.94
443.83	590.41
444.20	592.45
444.57	595.55
444.94	597.23
445.31	598.97
445.68	600.42
446.05	601.42
446.42	600.80
446.79	600.01
447.16	599.28
447.53	598.58
447.90	595.98
448.27	593.49
448.64	589.85
449.01	587.23
449.37	582.27
449.74	577.76
450.11	572.00
450.48	565.73
450.85	559.46
451.22	554.09
451.59	548.87
451.96	544.12
452.33	537.34
452.70	531.32
453.07	524.00
453.43	516.74
453.80	509.71
454.17	502.99
454.54	496.81
454.91	489.83
455.28	483.35
455.65	477.22
456.02	470.72
456.38	465.52
456.75	458.82
457.12	453.47
457.49	448.06
457.86	442.96
458.23	438.53
458.59	433.61
458.96	428.58
459.33	424.18
459.70	419.68
460.07	416.27
460.43	412.26
460.80	408.52
461.17	405.26
461.54	401.72
461.91	398.44
462.27	395.09
462.64	392.41
463.01	389.30
463.38	386.19
463.74	383.37
464.11	380.88
464.48	378.65
464.85	376.19
465.21	374.35
465.58	372.31
465.95	369.96
466.32	368.11
466.68	366.26
467.05	364.40
467.42	362.60
467.78	360.64
468.15	358.83
468.52	357.56
468.88	355.79
469.25	354.18
469.62	352.89
469.98	351.50
470.35	350.27
470.72	349.14
471.08	347.98
471.45	347.03
471.82	345.98
472.18	344.84
472.55	344.13
472.92	343.21
473.28	342.49
473.65	341.69
474.02	340.94
474.38	340.31
474.75	339.96
475.11	339.45
475.48	339.21
475.85	338.97
476.21	338.82
476.58	338.74
476.94	338.90
477.31	338.98
477.67	339.09
478.04	339.30
478.41	339.59
478.77	340.02
479.14	340.29
479.50	340.78
479.87	341.45
480.23	342.10
480.60	342.74
480.96	343.40
481.33	344.37
481.69	345.34
482.06	346.33
482.42	347.21
482.79	348.32
483.15	349.58
483.52	351.02
483.88	352.45
484.25	353.94
484.61	355.47
484.98	357.15
485.34	359.04
485.71	361.03
486.07	363.14
486.44	365.25
486.80	367.60
487.17	370.07
487.53	372.72
487.90	375.50
488.26	378.55
488.62	381.77
488.99	384.98
489.35	388.36
489.72	392.02
490.08	395.88
490.44	399.85
490.81	404.01
491.17	408.25
491.54	412.79
491.90	417.51
492.26	422.55
492.63	427.82
492.99	433.31
493.36	439.00
493.72	445.00
494.08	451.14
494.45	457.66
494.81	464.43
495.17	471.41
495.54	478.76
495.90	486.40
496.26	494.20
496.63	502.27
496.99	510.64
497.35	519.40
497.72	528.45
498.08	537.73
498.44	547.27
498.80	557.41
499.17	567.77
499.53	578.45
499.89	589.51
500.26	600.77
500.62	612.39
500.98	624.63
501.34	637.00
501.71	649.91
502.07	663.00
502.43	676.60
502.79	690.40
503.16	704.72
503.52	719.21
503.88	734.08
504.24	749.38
504.60	764.96
504.97	781.00
505.33	797.47
505.69	814.76
506.05	832.45
506.41	849.98
506.78	867.79
507.14	886.13
507.50	904.87
507.86	923.94
508.22	943.21
508.59	962.29
508.95	982.25
509.31	1002.91
509.67	1024.20
510.03	1045.46
510.39	1066.85
510.75	1088.44
511.12	1110.27
511.48	1132.29
511.84	1154.38
512.20	1176.80
512.56	1200.05
512.92	1223.30
513.28	1246.23
513.64	1269.36
514.00	1292.99
514.37	1316.85
514.73	1340.73
515.09	1364.52
515.45	1388.66
515.81	1412.87
516.17	1437.23
516.53	1461.05
516.89	1484.73
517.25	1508.66
517.61	1532.55
517.97	1556.81
518.33	1580.54
518.69	1604.20
519.05	1628.37
519.41	1652.80
519.77	1677.35
520.13	1701.20
520.49	1724.99
520.85	1749.16
521.21	1772.78
521.57	1796.84
521.93	1820.38
522.29	1844.32
522.65	1867.82
523.01	1891.24
523.37	1914.31
523.73	1938.07
524.09	1961.59
524.45	1984.84
524.81	2007.67
525.17	2030.37
525.53	2052.46
525.89	2074.93
526.25	2097.47
526.61	2119.01
526.97	2140.62
527.33	2162.25
527.68	2183.57
528.04	2204.09
528.40	2223.60
528.76	2243.47
529.12	2262.81
529.48	2281.75
529.84	2299.04
530.20	2316.88
530.56	2334.14
530.91	2351.47
531.27	2368.49
531.63	2384.69
531.99	2400.56
532.35	2415.75
532.71	2430.96
533.07	2446.80
533.42	2460.97
533.78	2475.99
534.14	2491.23
534.50	2505.48
534.86	2519.54
535.21	2531.70
535.57	2544.33
535.93	2556.76
536.29	2568.06
536.65	2579.20
537.00	2589.81
537.36	2601.19
537.72	2611.11
538.08	2620.55
538.44	2629.47
538.79	2637.87
539.15	2645.47
539.51	2652.66
539.87	2659.15
540.22	2663.92
540.58	2668.73
540.94	2674.70
541.29	2679.10
541.65	2681.70
542.01	2683.82
542.37	2685.13
542.72	2687.78
543.08	2688.84
543.44	2690.45
543.79	2691.04
544.15	2690.80
544.51	2690.87
544.87	2689.92
545.22	2688.17
545.58	2685.91
545.94	2683.54
546.29	2679.91
546.65	2676.37
547.01	2672.71
547.36	2669.83
547.72	2666.92
548.07	2662.35
548.43	2656.24
548.79	2649.40
549.14	2643.82
549.50	2638.33
549.86	2632.05
550.21	2624.64
550.57	2618.16
550.92	2609.43
551.28	2601.28
551.64	2593.45
551.99	2585.20
552.35	2576.27
552.70	2567.76
553.06	2559.43
553.41	2550.57
553.77	2541.51
554.13	2532.32
554.48	2522.37
554.84	2511.18
555.19	2500.50
555.55	2489.91
555.90	2479.47
556.26	2469.38
556.61	2458.27
556.97	2445.55
557.32	2433.40
557.68	2421.24
558.03	2408.84
558.39	2397.58
558.74	2386.59
559.10	2373.96
559.45	2361.55
559.81	2349.78
560.16	2337.29
560.52	2325.04
560.87	2313.05
561.23	2300.32
561.58	2287.80
561.94	2274.89
562.29	2261.46
562.64	2248.82
563.00	2235.76
563.35	2223.15
563.71	2210.34
564.06	2197.38
564.42	2185.23
564.77	2172.39
565.12	2159.49
565.48	2146.57
565.83	2133.70
566.19	2120.93
566.54	2108.11
566.89	2094.18
567.25	2080.46
567.60	2067.99
567.96	2054.73
568.31	2040.23
568.66	2026.45
569.02	2013.66
569.37	2000.93
569.72	1988.69
570.08	1975.06
570.43	1961.24
570.78	1947.13
571.14	1932.46
571.49	1918.50
571.84	1905.06
572.20	1890.48
572.55	1876.09
572.90	1861.53
573.26	1847.02
573.61	1832.02
573.96	1817.42
574.31	1803.15
574.67	1788.81
575.02	1773.61
575.37	1758.51
575.72	1744.23
576.08	1730.23
576.43	1715.11
576.78	1700.35
577.13	1685.98
577.49	1671.99
577.84	1658.50
578.19	1644.17
578.54	1630.04
578.90	1615.42
579.25	1600.63
579.60	1587.41
579.95	1574.07
580.30	1560.60
580.66	1546.86
581.01	1533.02
581.36	1519.25
581.71	1506.42
582.06	1493.50
582.42	1480.78
582.77	1468.03
583.12	1455.22
583.47	1442.35
583.82	1429.64
584.17	1416.58
584.53	1403.19
584.88	1390.16
585.23	1376.79
585.58	1364.20
585.93	1351.78
586.28	1340.10
586.63	1328.50
586.98	1316.33
587.34	1304.26
587.69	1291.92
588.04	1279.92
588.39	1268.31
588.74	1256.79
589.09	1245.06
589.44	1232.97
589.79	1221.52
590.14	1210.21
590.49	1198.85
590.84	1187.62
591.19	1176.77
591.54	1165.76
591.89	1154.85
592.25	1144.09
592.60	1133.04
592.95	1122.38
593.30	1111.89
593.65	1101.11
594.00	1090.39
594.35	1080.31
594.70	1069.83
595.05	1060.20
595.40	1050.44
595.75	1040.60
596.10	1031.27
596.45	1021.62
596.80	1012.28
597.15	1002.73
597.50	993.31
597.85	984.30
598.19	975.10
598.54	965.97
598.89	957.25
599.24	948.84
599.59	940.31
599.94	932.65
600.29	924.81
600.64	916.70
600.99	908.23
601.34	900.15
601.69	891.71
602.04	883.95
602.39	876.00
602.74	868.13
603.08	860.18
603.43	852.18
603.78	844.42
604.13	836.84
604.48	829.24
604.83	821.79
605.18	814.24
605.53	806.87
605.87	799.29
606.22	792.06
606.57	784.78
606.92	777.35
607.27	769.84
607.62	762.64
607.96	755.85
608.31	749.49
608.66	742.96
609.01	736.71
609.36	730.51
609.70	724.14
610.05	717.74
610.40	711.61
610.75	705.50
611.10	699.63
611.44	693.63
611.79	687.72
612.14	681.76
612.49	675.92
612.83	670.33
613.18	664.91
613.53	659.37
613.88	653.87
614.22	648.79
614.57	643.63
614.92	638.30
615.27	633.12
615.61	627.92
615.96	622.82
616.31	617.71
616.65	612.67
617.00	607.84
617.35	603.10
617.70	598.42
618.04	593.75
618.39	589.06
618.74	584.60
619.08	580.17
619.43	575.87
619.78	571.57
620.12	567.22
620.47	563.04
620.82	558.95
621.16	554.89
621.51	550.67
621.85	546.54
622.20	542.59
622.55	538.61
622.89	534.76
623.24	530.87
623.59	527.05
623.93	523.38
624.28	519.79
624.62	516.31
624.97	512.82
625.32	509.37
625.66	505.85
626.01	502.26
626.35	498.75
626.70	495.30
627.04	491.98
627.39	488.67
627.73	485.50
628.08	482.40
628.43	479.27
628.77	476.28
629.12	473.37
629.46	470.45
629.81	467.48
630.15	464.51
630.50	461.64
630.84	458.80
631.19	456.03
631.53	453.32
631.88	450.60
632.22	447.92
632.57	445.48
632.91	443.09
633.26	440.81
633.60	438.54
633.95	436.31
634.29	434.02
634.64	431.74
634.98	429.28
635.32	427.01
635.67	424.91
636.01	422.71
636.36	420.58
636.70	418.59
637.05	416.60
637.39	414.63
637.73	412.68
638.08	410.84
638.42	408.95
638.77	406.98
639.11	404.92
639.45	402.96
639.80	400.96
640.14	399.00
640.49	397.04
640.83	395.05
641.17	393.17
641.52	391.32
641.86	389.50
642.20	387.89
642.55	386.08
642.89	384.32
643.23	382.65
643.58	381.14
643.92	379.49
644.26	377.90
644.61	376.37
644.95	374.80
645.29	373.15
645.64	371.54
645.98	370.00
646.32	368.60
646.66	367.17
647.01	365.76
647.35	364.40
647.69	363.02
648.04	361.77
648.38	360.40
648.72	359.10
649.06	357.79
649.41	356.50
649.75	355.25
650.09	353.99
650.43	352.74
650.78	351.46
651.12	350.20
651.46	348.98
651.80	347.81
652.14	346.65
652.49	345.56
652.83	344.42
653.17	343.31
653.51	342.24
653.85	341.21
654.20	340.12
654.54	338.99
654.88	337.95
655.22	336.92
655.56	335.90
655.90	334.91
656.25	333.97
656.59	332.99
656.93	332.09
657.27	331.20
657.61	330.24
657.95	329.32
658.29	328.40
658.64	327.53
658.98	326.65
659.32	325.79
659.66	324.96
660.00	324.15
660.34	323.37
660.68	322.53
661.02	321.65
661.36	320.83
661.70	320.03
662.05	319.27
662.39	318.49
662.73	317.79
663.07	317.07
663.41	316.32
663.75	315.56
664.09	314.82
664.43	314.03
664.77	313.34
665.11	312.59
665.45	311.91
665.79	311.24
666.13	310.51
666.47	309.77
666.81	309.03
667.15	308.28
667.49	307.61
667.83	307.01
668.17	306.40
668.51	305.82
668.85	305.25
669.19	304.70
669.53	304.07
669.87	303.43
670.21	302.82
670.55	302.24
670.89	301.73
671.23	301.16
671.57	300.61
671.91	300.11
672.25	299.63
672.58	299.14
672.92	298.56
673.26	298.09
673.60	297.61
673.94	297.14
674.28	296.71
674.62	296.24
674.96	295.70
675.30	295.21
675.64	294.68
675.97	294.15
676.31	293.61
676.65	293.12
676.99	292.69
677.33	292.17
677.67	291.70
678.01	291.17
678.34	290.70
678.68	290.27
679.02	289.75
679.36	289.27
679.70	288.78
680.04	288.34
680.37	287.86
680.71	287.42
681.05	286.99
681.39	286.51
681.73	286.01
682.06	285.53
682.40	285.09
682.74	284.68
683.08	284.32
683.42	283.89
683.75	283.50
684.09	283.04
684.43	282.64
684.77	282.22
685.10	281.85
685.44	281.46
685.78	281.06
686.12	280.68
686.45	280.28
686.79	279.87
687.13	279.49
687.46	279.08
687.80	278.68
688.14	278.25
688.48	277.88
688.81	277.49
689.15	277.15
689.49	276.75
689.82	276.35
690.16	275.88
690.50	275.50
690.83	275.11
691.17	274.70
691.51	274.31
691.84	273.96
692.18	273.55
692.52	273.13
692.85	272.74
693.19	272.40
693.52	272.02
693.86	271.64
694.20	271.27
694.53	270.92
694.87	270.54
695.21	270.16
695.54	269.78
695.88	269.42
696.21	269.02
696.55	268.66
696.88	268.32
697.22	267.96
697.56	267.60
697.89	267.19
698.23	266.85
698.56	266.46
698.90	266.11
699.23	265.73
699.57	265.38
699.90	265.01
700.24	264.62
700.58	264.29
700.91	263.99
701.25	263.77
701.58	263.48
701.92	263.18
702.25	262.87
702.59	262.56
702.92	262.24
703.26	261.91
703.59	261.55
703.93	261.34
704.26	261.06
704.60	260.73
704.93	260.41
705.26	260.09
705.60	259.83
705.93	259.49
706.27	259.23
706.60	258.98
706.94	258.74
707.27	258.43
707.61	258.12
707.94	257.79
708.27	257.37
708.61	257.02
708.94	256.70
709.28	256.42
709.61	256.12
709.94	255.85
710.28	255.60
710.61	255.39
710.95	255.02
711.28	254.82
711.61	254.55
711.95	254.33
712.28	254.06
712.61	253.79
712.95	253.59
713.28	253.41
713.61	253.12
713.95	252.82
714.28	252.58
714.61	252.33
714.95	252.10
715.28	251.87
715.61	251.63
715.95	251.43
716.28	251.21
716.61	251.02
716.95	250.78
717.28	250.55
717.61	250.30
717.94	250.08
718.28	249.78
718.61	249.55
718.94	249.32
719.27	249.11
719.61	248.92
719.94	248.67
720.27	248.36
720.60	248.16
720.94	247.96
721.27	247.77
721.60	247.59
721.93	247.39
722.27	247.23
722.60	247.06
722.93	246.84
723.26	246.64
723.59	246.40
723.93	246.22
724.26	246.04
724.59	245.84
724.92	245.66
725.25	245.53
725.59	245.35
725.92	245.20
726.25	245.02
726.58	244.84
726.91	244.67
727.24	244.55
727.57	244.37
727.91	244.19
728.24	244.05
728.57	243.86
728.90	243.70
729.23	243.50
729.56	243.40
729.89	243.23
730.22	243.06
730.55	242.89
730.89	242.75
731.22	242.57
731.55	242.43
731.88	242.28
732.21	242.10
732.54	241.94
732.87	241.79
733.20	241.65
733.53	241.50
733.86	241.34
734.19	241.19
734.52	241.07
734.85	241.01
735.18	240.84
735.51	240.74
735.84	240.60
736.17	240.51
736.50	240.30
736.83	240.31
737.16	240.19
737.49	240.08
737.82	239.96
738.15	239.85
738.48	239.72
738.81	239.59
739.14	239.44
739.47	239.33
739.80	239.19
740.13	239.09
740.46	238.96
740.79	238.83
741.12	238.71
741.45	238.57
741.78	238.38
742.11	238.31
742.44	238.15
742.77	238.04
743.10	237.90
743.43	237.79
743.75	237.54
744.08	237.62
744.41	237.51
744.74	237.38
745.07	237.25
745.40	237.17
745.73	237.13
746.06	237.03
746.39	236.94
746.71	236.82
747.04	236.69
747.37	236.59
747.70	236.53
748.03	236.44
748.36	236.35
748.68	236.26
749.01	236.12
749.34	236.04
749.67	235.97
750.00	235.89
750.33	235.90
750.65	235.82
750.98	235.55
751.31	235.47
751.64	235.40
751.97	235.39
752.29	235.30
752.62	235.14
752.95	235.06
753.28	234.96
753.60	234.89
753.93	234.85
754.26	234.78
754.59	234.66
754.91	234.56
755.24	234.48
755.57	234.46
755.90	234.38
756.22	234.27
756.55	234.16
756.88	234.05
757.20	233.89
757.53	233.78
757.86	233.69
758.19	233.61
758.51	233.54
758.84	233.40
759.17	233.30
759.49	233.25
759.82	233.23
760.15	233.18
760.47	233.10
760.80	233.01
761.13	232.95
761.45	232.88
761.78	232.82
762.11	232.76
762.43	232.62
762.76	232.56
763.08	232.53
763.41	232.48
763.74	232.44
764.06	232.37
764.39	232.33
764.71	232.27
765.04	232.22
765.37	232.15
765.69	232.09
766.02	232.03
766.34	231.97
766.67	231.86
767.00	231.83
767.32	231.84
767.65	231.85
767.97	231.79
768.30	231.74
768.62	231.70
768.95	231.64
769.27	231.60
769.60	231.56
769.92	231.49
770.25	231.40
770.57	231.34
770.90	231.29
771.22	231.22
771.55	231.18
771.87	231.13
772.20	231.08
772.52	231.15
772.85	231.25
773.17	231.21
773.50	231.16
773.82	231.11
774.15	231.01
774.47	230.91
774.80	230.87
775.12	230.82
775.45	230.78
775.77	230.76
776.09	230.73
776.42	230.70
776.74	230.70
777.07	230.66
777.39	230.63
777.72	230.58
778.04	230.57
778.36	230.53
778.69	230.49
779.01	230.48
779.33	230.34
779.66	230.17
779.98	230.13
780.31	230.12
780.63	230.14
780.95	230.14
781.28	230.10
781.60	230.06
781.92	230.02
782.25	229.99
782.57	229.96
782.89	229.94
783.22	229.90
783.54	229.84
783.86	229.85
784.19	229.81
784.51	229.83
784.83	229.79
785.16	229.76
785.48	229.74
785.80	229.71
786.12	229.69
786.45	229.67
786.77	229.66
787.09	229.63
787.42	229.55
787.74	229.52
788.06	229.51
788.38	229.47
788.71	229.45
789.03	229.43
789.35	229.43
789.67	229.38
789.99	229.36
790.32	229.33
790.64	229.31
790.96	229.42
791.28	229.37
791.61	229.35
791.93	229.34
792.25	229.31
792.57	229.39
792.89	229.35
793.21	229.35
793.54	229.32
793.86	229.30
794.18	229.29
794.50	229.25
794.82	229.22
795.14	229.25
795.47	229.25
795.79	229.24
796.11	229.19
796.43	229.17
796.75	229.15
797.07	229.16
797.39	229.14
797.71	229.01
798.04	228.99
798.36	228.98
798.68	228.96
799.00	228.96
799.32	228.88
799.64	228.87
799.96	228.85
800.28	228.85
800.60	228.83
800.92	228.82
801.24	228.82
801.56	228.81
801.89	228.77
802.21	228.77
802.53	228.74
802.85	228.75
803.17	228.81
803.49	228.78
803.81	228.73
804.13	228.71
804.45	228.69
804.77	228.69
805.09	228.68
805.41	228.66
805.73	228.62
806.05	228.58
806.37	228.57
806.69	228.55
807.01	228.53
807.33	228.54
807.65	228.49
807.97	228.53
808.28	228.51
808.60	228.50
808.92	228.47
809.24	228.54
809.56	228.51
809.88	228.46
810.20	228.45
810.52	228.47
810.84	228.44
811.16	228.42
811.48	228.41
811.80	228.45
812.12	228.44
812.43	228.46
812.75	228.45
813.07	228.43
813.39	228.44
813.71	228.41
814.03	228.37
814.35	228.37
814.67	228.31
814.98	228.28
815.30	228.26
815.62	228.22
815.94	228.13
816.26	228.13
816.58	228.10
816.89	228.10
817.21	228.07
817.53	228.07
817.85	228.08
818.17	228.07
818.48	227.99
818.80	228.00
819.12	227.97
819.44	227.95
819.76	227.93
820.07	227.92
820.39	227.91
820.71	227.91
821.03	227.90
821.34	227.87
821.66	227.89
821.98	227.89
822.30	227.88
822.61	227.95
822.93	227.92
823.25	227.90
823.57	227.88
823.88	227.88
824.20	227.87
824.52	227.89
824.83	227.87
825.15	227.86
825.47	227.84
825.79	227.84
826.10	227.82
826.42	227.81
826.74	227.80
827.05	227.79
827.37	227.79
827.69	227.78
828.00	227.79
828.32	227.78
828.64	227.77
828.95	227.84
829.27	227.79
829.58	227.79
829.90	227.80
830.22	227.79
830.53	227.77
830.85	227.75
831.17	227.71
831.48	227.70
831.80	227.72
832.11	227.71
832.43	227.69
832.75	227.68
833.06	227.76
833.38	227.72
833.69	227.71
834.01	227.72
834.32	227.71
834.64	227.70
834.96	227.69
835.27	227.69
835.59	227.63
835.90	227.60
836.22	227.59
836.53	227.57
836.85	227.55
837.16	227.68
837.48	227.68
837.79	227.71
838.11	227.71
838.42	227.69
838.74	227.71
839.05	227.69
839.37	227.69
839.68	227.61
840.00	227.61
840.31	227.63
840.63	227.60
840.94	227.59
841.26	227.59
841.57	227.57
841.88	227.58
842.20	227.55
842.51	227.55
842.83	227.54
843.14	227.65
843.46	227.65
843.77	227.57
844.08	227.57
844.40	227.52
844.71	227.50
845.03	227.48
845.34	227.46
845.65	227.46
845.97	227.45
846.28	227.45
846.60	227.45
846.91	227.43
847.22	227.42
847.54	227.46
847.85	227.46
848.16	227.44
848.48	227.42
848.79	227.48
849.10	227.48
849.42	227.49
849.73	227.36
850.04	227.36
850.36	227.30
850.67	227.32
850.98	227.32
851.30	227.34
851.61	227.34
851.92	227.33
852.23	227.35
852.55	227.37
852.86	227.39
853.17	227.40
853.49	227.41
853.80	227.44
854.11	227.43
854.42	227.43
854.74	227.42
855.05	227.42
855.36	227.35
855.67	227.34
855.99	227.34
856.30	227.49
856.61	227.49
856.92	227.49
857.23	227.49
857.55	227.48
857.86	227.46
858.17	227.48
858.48	227.46
858.79	227.44
859.11	227.43
859.42	227.40
859.73	227.38
860.04	227.38
860.35	227.33
860.66	227.29
860.98	227.29
861.29	227.30
861.60	227.28
861.91	227.31
862.22	227.30
862.53	227.26
862.84	227.12
863.16	227.15
863.47	227.12
863.78	227.11
864.09	227.12
864.40	227.13
864.71	227.13
865.02	227.16
865.33	227.14
865.64	227.12
865.95	227.12
866.27	227.20
866.58	227.17
866.89	227.19
867.20	227.18
867.51	227.17
867.82	227.17
868.13	227.21
868.44	227.17
868.75	227.20
869.06	227.21
869.37	227.22
869.68	227.18
869.99	227.22
870.30	227.21
870.61	227.23
870.92	227.20
871.23	227.18
871.54	227.19
871.85	227.21
872.16	227.22
872.47	227.21
872.78	227.13
873.09	227.14
873.40	227.13
873.71	227.14
874.02	227.15
874.33	227.14
874.64	227.11
874.95	227.14
875.26	227.09
875.56	227.09
875.87	227.08
876.18	227.08
876.49	227.18
876.80	227.16
877.11	227.14
877.42	227.15
877.73	227.16
878.04	227.14
878.35	227.16
878.66	227.15
878.96	227.16
879.27	227.16
879.58	227.15
879.89	227.13
880.20	227.16
880.51	227.15
880.82	227.14
881.12	227.15
881.43	227.11
881.74	227.10
882.05	227.11
882.36	227.10
882.67	227.11
882.97	226.98
883.28	226.97
883.59	226.97
883.90	226.97
884.21	226.99
884.51	226.96
884.82	226.94
885.13	226.94
885.44	226.92
885.74	226.91
886.05	226.90
886.36	226.91
886.67	226.88
886.98	226.94
887.28	226.95
887.59	226.94
887.90	226.94
888.20	226.95
888.51	226.96
888.82	226.95
889.13	226.96
889.43	227.08
889.74	227.07
890.05	227.08
890.35	227.07
890.66	227.04
890.97	227.02
891.28	226.99
891.58	227.00
891.89	227.01
892.20	227.01
892.50	226.99
892.81	226.98
893.12	226.96
893.42	226.90
893.73	226.89
894.04	226.89
894.34	226.90
894.65	226.89
894.95	226.88
895.26	226.88
895.57	226.93
895.87	226.79
896.18	226.80
896.48	226.79
896.79	226.78
897.10	226.80
897.40	226.81
897.71	226.84
898.01	226.83
898.32	226.84
898.63	226.83
898.93	226.83
899.24	226.85
899.54	226.86
899.85	226.84
900.15	226.85
900.46	226.85
900.76	226.87
901.07	226.87
901.38	226.87
901.68	226.89
901.99	226.83
902.29	226.85
902.60	226.83
902.90	226.83
903.21	226.83
903.51	226.82
903.82	226.85
904.12	226.84
904.43	226.84
904.73	226.83
905.03	226.84
905.34	226.96
905.64	226.95
905.95	226.95
906.25	226.96
906.56	226.97
906.86	226.97
907.17	226.95
907.47	226.96
907.77	226.94
908.08	226.91
908.38	226.92
908.69	226.93
908.99	226.97
909.30	226.99
909.60	226.99
909.90	227.00
910.21	226.97
910.51	226.96
910.81	226.96
911.12	226.97
911.42	226.97
911.73	226.87
912.03	226.87
912.33	226.89
912.64	226.88
912.94	226.87
913.24	226.85
913.55	226.85
913.85	226.84
914.15	226.87
914.46	226.89
914.76	226.87
915.06	226.88
915.37	226.85
915.67	226.85
915.97	226.84
916.27	226.82
916.58	226.83
916.88	226.83
917.18	226.82
917.49	226.91
917.79	226.91
918.09	226.92
918.39	226.94
918.70	226.95
919.00	226.95
919.30	227.00
919.60	227.00
919.91	226.99
920.21	227.00
920.51	226.98
920.81	226.98
921.12	227.01
921.42	226.99
921.72	227.00
922.02	227.01
922.32	227.02
922.63	227.03
922.93	227.10
923.23	227.09
923.53	227.08
923.83	226.99
924.13	227.00
924.44	227.00
924.74	227.03
925.04	227.06
925.34	227.07
925.64	227.02
925.94	227.01
926.24	227.07
926.55	227.06
926.85	227.07
927.15	227.07
927.45	227.07
927.75	227.06
928.05	227.08
928.35	227.07
928.65	227.09
928.95	227.10
929.26	227.04
929.56	227.06
929.86	227.07
930.16	227.06
930.46	227.06
930.76	227.05
931.06	226.99
931.36	226.95
931.66	226.96
931.96	226.96
932.26	226.97
932.56	226.93
932.86	226.92
933.16	226.92
933.46	226.91
933.76	226.89
934.06	226.92
934.36	226.94
934.66	226.93
934.96	226.91
935.26	226.91
935.56	226.92
935.86	226.89
936.16	226.88
936.46	226.87
936.76	226.87
937.06	226.85
937.36	226.86
937.66	226.86
937.96	226.83
938.26	226.81
938.56	226.80
938.86	226.81
939.16	226.83
939.46	226.84
939.76	226.86
940.06	226.85
940.35	226.83
940.65	226.77
940.95	226.78
941.25	226.75
941.55	226.73
941.85	226.74
942.15	226.76
942.45	226.80
942.75	226.80
943.04	226.80
943.34	226.82
943.64	226.81
943.94	226.79
944.24	226.82
944.54	226.83
944.84	226.82
945.13	226.78
945.43	226.77
945.73	226.77
946.03	226.76
946.33	226.74
946.62	226.72
946.92	226.71
947.22	226.71
947.52	226.72
947.82	226.73
948.11	226.71
948.41	226.68
948.71	226.65
949.01	226.67
949.31	226.66
949.60	226.65
949.90	226.67
950.20	226.67
950.50	226.65
950.79	226.65
951.09	226.68
951.39	226.69
951.69	226.66
951.98	226.68
952.28	226.68
952.58	226.67
952.87	226.68
953.17	226.71
953.47	226.70
953.76	226.70
954.06	226.68
954.36	226.66
954.66	226.66
954.95	226.69
955.25	226.69
955.55	226.70
955.84	226.68
956.14	226.68
956.44	226.69
956.73	226.68
957.03	226.67
957.32	226.66
957.62	226.66
957.92	226.70
958.21	226.68
958.51	226.82
958.81	226.85
959.10	226.86
959.40	226.88
959.69	226.88
959.99	226.89
960.29	226.89
960.58	226.89
960.88	226.94
961.17	226.92
961.47	226.92
961.76	226.91
962.06	226.93
962.36	226.92
962.65	226.92
962.95	226.93
963.24	226.93
963.54	226.93
963.83	226.95
964.13	226.94
964.42	226.93
964.72	226.83
965.01	226.83
965.31	226.83
965.60	226.80
965.90	226.87
966.19	226.84
966.49	226.86
966.78	226.87
967.08	226.85
967.37	226.87
967.67	226.86
967.96	226.88
968.26	226.86
968.55	226.87
968.85	226.85
969.14	226.86
969.43	226.86
969.73	226.85
970.02	226.85
970.32	226.84
970.61	226.82
970.91	226.80
971.20	226.79
971.49	226.78
971.79	226.80
972.08	226.73
972.38	226.75
972.67	226.73
972.96	226.74
973.26	226.71
973.55	226.73
973.85	226.72
974.14	226.72
974.43	226.74
974.73	226.73
975.02	226.71
975.31	226.71
975.61	226.70
975.90	226.70
976.19	226.69
976.49	226.70
976.78	226.71
977.07	226.70
977.37	226.70
977.66	226.70
977.95	226.69
978.24	226.70
978.54	226.72
978.83	226.72
979.12	226.71
979.42	226.73
979.71	226.71
980.00	226.71
980.29	226.72
980.59	226.70
980.88	226.75
981.17	226.76
981.46	226.76
981.76	226.77
982.05	226.80
982.34	226.82
982.63	226.81
982.93	226.82
983.22	226.86
983.51	226.87
983.80	226.88
984.09	226.89
984.39	226.88
984.68	226.86
984.97	226.87
985.26	226.86
985.55	226.86
985.85	226.83
986.14	226.84
986.43	226.85
986.72	226.85
987.01	226.81
987.30	226.81
987.59	226.80
987.89	226.80
988.18	226.77
988.47	226.75
988.76	226.75
989.05	226.74
989.34	226.71
989.63	226.75
989.92	226.73
990.22	226.71
990.51	226.72
990.80	226.72
991.09	226.72
991.38	226.73
991.67	226.72
991.96	226.72
992.25	226.71
992.54	226.68
992.83	226.67
993.12	226.66
993.41	226.68
993.70	226.74
993.99	226.76
994.28	226.77
994.58	226.79
994.87	226.77
995.16	226.77
995.45	226.76
995.74	226.70
996.03	226.72
996.32	226.74
996.61	226.75
996.90	226.75
997.19	226.74
997.48	226.74
997.77	226.73
998.06	226.72
998.34	226.71
998.63	226.71
998.92	226.72
999.21	226.74
999.50	226.73
999.79	226.68
1000.08	226.66
1000.37	226.67
1000.66	226.65
1000.95	226.68
1001.24	226.68
1001.53	226.70
1001.82	226.70
1002.11	226.69
1002.40	226.70
1002.68	226.73
1002.97	226.83
1003.26	226.82
1003.55	226.80
1003.84	226.81
1004.13	226.87
1004.42	226.87
1004.71	226.88
1004.99	226.87
1005.28	226.89
1005.57	226.89
1005.86	226.87
1006.15	226.86
1006.44	226.83
1006.72	226.84
1007.01	226.83
1007.30	226.83
1007.59	226.81
1007.88	226.80
1008.17	226.82
1008.45	226.79
1008.74	226.73
1009.03	226.67
1009.32	226.68
1009.60	226.68
1009.89	226.67
1010.18	226.62
1010.47	226.61
1010.76	226.61
1011.04	226.61
1011.33	226.60
1011.62	226.61
1011.91	226.62
1012.19	226.62
1012.48	226.64
1012.77	226.64
1013.05	226.68
1013.34	226.68
1013.63	226.67
1013.92	226.69
1014.20	226.67
1014.49	226.67
1014.78	226.69
1015.06	226.64
1015.35	226.64
1015.64	226.65
1015.92	226.68
1016.21	226.67
1016.50	226.68
1016.78	226.69
1017.07	226.71
1017.36	226.68
1017.64	226.67
1017.93	226.68
1018.22	226.67
1018.50	226.67
1018.79	226.67
1019.08	226.62
1019.36	226.62
1019.65	226.62
1019.93	226.64
1020.22	226.66
1020.51	226.74
1020.79	226.70
1021.08	226.42
1021.36	226.52
1021.65	226.68
1021.94	226.55
1022.22	226.71
1022.51	226.58
1022.79	227.16
1023.08	226.78
1023.36	228.20
1023.65	226.11
>>>>>End Processed Spectral Data<<<<<
