SpectraSuite Data File
++++++++++++++++++++++++++++++++++++
Date: Fri Oct 02 17:13:41 EDT 2015
User: lab3
Dark Spectrum Present: No
Reference Spectrum Present: No
Number of Sampled Component Spectra: 1
Spectrometers: USB2E7196
Integration Time (usec): 46000 (USB2E7196)
Spectra Averaged: 600 (USB2E7196)
Boxcar Smoothing: 10 (USB2E7196)
Correct for Electrical Dark: No (USB2E7196)
Strobe/Lamp Enabled: No (USB2E7196)
Correct for Detector Non-linearity: No (USB2E7196)
Correct for Stray Light: No (USB2E7196)
Number of Pixels in Processed Spectrum: 2048
>>>>>Begin Processed Spectral Data<<<<<
339.09	0.00
339.48	214.84
339.86	216.58
340.24	217.81
340.63	219.28
341.01	222.57
341.39	221.89
341.78	223.20
342.16	224.35
342.54	225.14
342.93	213.33
343.31	224.11
343.69	224.66
344.07	225.12
344.46	225.55
344.84	225.92
345.22	226.14
345.60	226.40
345.99	226.59
346.37	226.75
346.75	226.84
347.13	226.92
347.52	227.00
347.90	227.09
348.28	227.15
348.66	227.20
349.05	227.21
349.43	227.27
349.81	227.32
350.19	227.37
350.57	227.43
350.96	227.52
351.34	227.61
351.72	227.70
352.10	227.79
352.48	227.87
352.87	227.94
353.25	227.99
353.63	228.04
354.01	228.11
354.39	228.18
354.77	228.28
355.15	228.36
355.54	228.39
355.92	228.42
356.30	228.49
356.68	228.63
357.06	228.69
357.44	228.72
357.82	228.77
358.20	228.89
358.58	228.95
358.97	229.00
359.35	229.09
359.73	229.18
360.11	229.23
360.49	229.28
360.87	229.33
361.25	229.40
361.63	229.49
362.01	229.53
362.39	229.55
362.77	229.58
363.15	229.61
363.53	229.65
363.91	229.69
364.29	229.70
364.67	229.61
365.05	229.63
365.43	229.67
365.81	229.70
366.19	229.72
366.57	229.77
366.95	229.77
367.33	229.74
367.71	229.72
368.09	229.75
368.47	229.73
368.85	229.70
369.23	229.71
369.61	229.65
369.99	229.65
370.37	229.65
370.75	229.72
371.13	229.68
371.51	229.63
371.89	229.60
372.27	229.59
372.65	229.57
373.03	229.54
373.41	229.48
373.78	229.43
374.16	229.32
374.54	229.24
374.92	229.19
375.30	229.15
375.68	229.08
376.06	229.04
376.44	228.99
376.82	228.95
377.19	228.90
377.57	228.85
377.95	228.77
378.33	228.71
378.71	228.56
379.09	228.52
379.47	228.49
379.84	228.42
380.22	228.35
380.60	228.27
380.98	228.22
381.36	228.18
381.73	228.11
382.11	228.10
382.49	228.06
382.87	227.99
383.25	227.94
383.62	228.04
384.00	227.96
384.38	227.91
384.76	227.90
385.13	227.89
385.51	227.86
385.89	227.80
386.27	227.78
386.64	227.77
387.02	227.74
387.40	227.69
387.78	227.67
388.15	227.65
388.53	227.63
388.91	227.61
389.29	227.58
389.66	227.58
390.04	227.53
390.42	227.52
390.79	227.52
391.17	227.51
391.55	227.36
391.92	227.36
392.30	227.37
392.68	227.33
393.05	227.33
393.43	227.33
393.81	227.35
394.18	227.33
394.56	227.34
394.94	227.36
395.31	227.36
395.69	227.41
396.06	227.44
396.44	227.46
396.82	227.47
397.19	227.58
397.57	227.59
397.95	227.64
398.32	227.64
398.70	227.67
399.07	227.75
399.45	227.78
399.82	227.82
400.20	227.87
400.58	227.93
400.95	227.93
401.33	228.01
401.70	228.17
402.08	228.25
402.45	228.32
402.83	228.43
403.20	228.55
403.58	228.64
403.95	228.76
404.33	228.91
404.71	229.06
405.08	229.25
405.46	229.41
405.83	229.60
406.21	229.79
406.58	230.01
406.96	230.22
407.33	230.48
407.70	230.76
408.08	231.13
408.45	231.45
408.83	231.81
409.20	232.13
409.58	232.42
409.95	232.82
410.33	233.28
410.70	233.69
411.08	234.17
411.45	234.68
411.82	235.21
412.20	235.81
412.57	236.51
412.95	237.08
413.32	237.82
413.69	238.55
414.07	239.34
414.44	240.19
414.82	241.06
415.19	242.10
415.56	243.14
415.94	244.21
416.31	245.42
416.68	246.64
417.06	248.05
417.43	249.38
417.81	250.89
418.18	252.43
418.55	254.11
418.93	255.89
419.30	257.73
419.67	259.67
420.04	261.66
420.42	263.73
420.79	266.14
421.16	268.55
421.54	271.03
421.91	273.60
422.28	276.27
422.66	279.17
423.03	281.94
423.40	284.83
423.77	287.93
424.15	291.10
424.52	294.40
424.89	297.98
425.26	301.54
425.64	304.88
426.01	308.59
426.38	312.39
426.75	316.30
427.13	320.33
427.50	324.55
427.87	328.94
428.24	333.38
428.61	337.61
428.99	342.23
429.36	347.27
429.73	352.11
430.10	356.98
430.47	361.92
430.85	367.03
431.22	372.52
431.59	378.13
431.96	383.63
432.33	389.74
432.70	395.58
433.08	402.44
433.45	408.93
433.82	415.33
434.19	422.49
434.56	429.54
434.93	436.35
435.30	443.09
435.68	450.70
436.05	458.16
436.42	465.60
436.79	472.40
437.16	479.72
437.53	487.56
437.90	495.38
438.27	503.05
438.64	511.33
439.01	518.82
439.38	525.69
439.75	532.30
440.13	539.72
440.50	546.76
440.87	552.35
441.24	558.46
441.61	565.16
441.98	570.03
442.35	575.77
442.72	581.62
443.09	587.20
443.46	590.69
443.83	593.21
444.20	595.32
444.57	598.45
444.94	600.16
445.31	601.95
445.68	603.44
446.05	604.43
446.42	603.86
446.79	603.10
447.16	602.42
447.53	601.75
447.90	599.18
448.27	596.67
448.64	593.03
449.01	590.43
449.37	585.43
449.74	580.91
450.11	575.14
450.48	568.85
450.85	562.55
451.22	557.16
451.59	551.91
451.96	547.16
452.33	540.34
452.70	534.26
453.07	526.90
453.43	519.58
453.80	512.50
454.17	505.70
454.54	499.45
454.91	492.41
455.28	485.86
455.65	479.66
456.02	473.14
456.38	467.88
456.75	461.14
457.12	455.71
457.49	450.24
457.86	445.10
458.23	440.61
458.59	435.62
458.96	430.53
459.33	426.06
459.70	421.48
460.07	418.05
460.43	414.01
460.80	410.22
461.17	406.94
461.54	403.36
461.91	400.04
462.27	396.68
462.64	393.96
463.01	390.79
463.38	387.64
463.74	384.80
464.11	382.28
464.48	380.04
464.85	377.58
465.21	375.75
465.58	373.68
465.95	371.30
466.32	369.45
466.68	367.59
467.05	365.72
467.42	363.90
467.78	361.91
468.15	360.10
468.52	358.79
468.88	357.01
469.25	355.39
469.62	354.10
469.98	352.70
470.35	351.45
470.72	350.35
471.08	349.18
471.45	348.19
471.82	347.12
472.18	345.96
472.55	345.22
472.92	344.27
473.28	343.55
473.65	342.78
474.02	342.01
474.38	341.39
474.75	341.03
475.11	340.54
475.48	340.30
475.85	340.05
476.21	339.93
476.58	339.85
476.94	340.00
477.31	340.08
477.67	340.19
478.04	340.40
478.41	340.70
478.77	341.17
479.14	341.45
479.50	341.96
479.87	342.63
480.23	343.30
480.60	343.98
480.96	344.64
481.33	345.63
481.69	346.61
482.06	347.59
482.42	348.49
482.79	349.58
483.15	350.85
483.52	352.31
483.88	353.70
484.25	355.18
484.61	356.74
484.98	358.44
485.34	360.34
485.71	362.32
486.07	364.44
486.44	366.53
486.80	368.91
487.17	371.38
487.53	374.05
487.90	376.85
488.26	379.92
488.62	383.14
488.99	386.36
489.35	389.75
489.72	393.43
490.08	397.30
490.44	401.31
490.81	405.47
491.17	409.74
491.54	414.35
491.90	419.10
492.26	424.17
492.63	429.45
492.99	434.96
493.36	440.69
493.72	446.72
494.08	452.90
494.45	459.44
494.81	466.25
495.17	473.23
495.54	480.61
495.90	488.28
496.26	496.13
496.63	504.26
496.99	512.69
497.35	521.50
497.72	530.59
498.08	539.89
498.44	549.52
498.80	559.73
499.17	570.16
499.53	580.88
499.89	591.99
500.26	603.32
500.62	614.96
500.98	627.22
501.34	639.61
501.71	652.55
502.07	665.67
502.43	679.36
502.79	693.24
503.16	707.54
503.52	722.08
503.88	737.03
504.24	752.40
504.60	767.96
504.97	784.03
505.33	800.50
505.69	817.87
506.05	835.52
506.41	853.06
506.78	870.83
507.14	889.13
507.50	907.89
507.86	926.95
508.22	946.22
508.59	965.35
508.95	985.29
509.31	1005.94
509.67	1027.25
510.03	1048.51
510.39	1069.89
510.75	1091.48
511.12	1113.30
511.48	1135.21
511.84	1157.23
512.20	1179.68
512.56	1202.88
512.92	1226.12
513.28	1249.00
513.64	1272.06
514.00	1295.60
514.37	1319.41
514.73	1343.22
515.09	1366.89
515.45	1390.92
515.81	1415.04
516.17	1439.33
516.53	1463.04
516.89	1486.59
517.25	1510.40
517.61	1534.04
517.97	1558.14
518.33	1581.70
518.69	1605.19
519.05	1629.26
519.41	1653.51
519.77	1677.88
520.13	1701.58
520.49	1725.20
520.85	1749.12
521.21	1772.67
521.57	1796.56
521.93	1819.91
522.29	1843.71
522.65	1866.98
523.01	1890.23
523.37	1913.07
523.73	1936.58
524.09	1959.86
524.45	1982.90
524.81	2005.53
525.17	2028.04
525.53	2049.89
525.89	2072.17
526.25	2094.44
526.61	2115.55
526.97	2136.93
527.33	2158.26
527.68	2179.20
528.04	2199.43
528.40	2218.70
528.76	2238.21
529.12	2257.17
529.48	2275.78
529.84	2292.72
530.20	2310.25
530.56	2327.22
530.91	2344.31
531.27	2361.04
531.63	2376.94
531.99	2392.52
532.35	2407.31
532.71	2422.22
533.07	2437.70
533.42	2451.51
533.78	2466.18
534.14	2481.14
534.50	2495.04
534.86	2508.68
535.21	2520.59
535.57	2532.90
535.93	2545.00
536.29	2555.98
536.65	2566.80
537.00	2577.09
537.36	2588.17
537.72	2597.75
538.08	2606.87
538.44	2615.33
538.79	2623.35
539.15	2630.63
539.51	2637.42
539.87	2643.72
540.22	2648.11
540.58	2652.68
540.94	2658.27
541.29	2662.38
541.65	2664.83
542.01	2666.60
542.37	2667.71
542.72	2670.07
543.08	2670.80
543.44	2672.07
543.79	2672.33
544.15	2671.85
544.51	2671.67
544.87	2670.41
545.22	2668.48
545.58	2665.91
545.94	2663.35
546.29	2659.55
546.65	2655.75
547.01	2651.86
547.36	2648.65
547.72	2645.47
548.07	2640.67
548.43	2634.40
548.79	2627.33
549.14	2621.43
549.50	2615.76
549.86	2609.32
550.21	2601.71
550.57	2595.05
550.92	2586.17
551.28	2577.84
551.64	2569.78
551.99	2561.30
552.35	2552.24
552.70	2543.50
553.06	2534.97
553.41	2525.87
553.77	2516.60
554.13	2507.25
554.48	2497.18
554.84	2485.84
555.19	2475.06
555.55	2464.37
555.90	2453.81
556.26	2443.63
556.61	2432.39
556.97	2419.57
557.32	2407.27
557.68	2394.96
558.03	2382.44
558.39	2371.09
558.74	2359.99
559.10	2347.24
559.45	2334.73
559.81	2322.90
560.16	2310.37
560.52	2298.08
560.87	2286.13
561.23	2273.34
561.58	2260.76
561.94	2247.86
562.29	2234.41
562.64	2221.68
563.00	2208.49
563.35	2195.78
563.71	2182.94
564.06	2170.03
564.42	2157.86
564.77	2145.09
565.12	2132.24
565.48	2119.29
565.83	2106.43
566.19	2093.66
566.54	2080.97
566.89	2067.07
567.25	2053.27
567.60	2040.80
567.96	2027.56
568.31	2013.05
568.66	1999.28
569.02	1986.52
569.37	1973.72
569.72	1961.48
570.08	1947.93
570.43	1934.17
570.78	1920.24
571.14	1905.64
571.49	1891.71
571.84	1878.30
572.20	1863.72
572.55	1849.35
572.90	1834.99
573.26	1820.50
573.61	1805.62
573.96	1791.12
574.31	1776.97
574.67	1762.85
575.02	1747.74
575.37	1732.75
575.72	1718.58
576.08	1704.67
576.43	1689.71
576.78	1675.15
577.13	1660.90
577.49	1647.01
577.84	1633.67
578.19	1619.41
578.54	1605.36
578.90	1590.83
579.25	1576.21
579.60	1563.13
579.95	1549.95
580.30	1536.54
580.66	1523.05
581.01	1509.44
581.36	1495.77
581.71	1483.11
582.06	1470.32
582.42	1457.76
582.77	1445.22
583.12	1432.64
583.47	1419.99
583.82	1407.42
584.17	1394.52
584.53	1381.32
584.88	1368.51
585.23	1355.33
585.58	1342.92
585.93	1330.70
586.28	1319.21
586.63	1307.72
586.98	1295.74
587.34	1283.83
587.69	1271.74
588.04	1259.85
588.39	1248.37
588.74	1237.06
589.09	1225.53
589.44	1213.60
589.79	1202.30
590.14	1191.12
590.49	1179.93
590.84	1168.83
591.19	1158.14
591.54	1147.26
591.89	1136.49
592.25	1125.95
592.60	1115.08
592.95	1104.64
593.30	1094.37
593.65	1083.82
594.00	1073.32
594.35	1063.40
594.70	1053.09
595.05	1043.56
595.40	1033.98
595.75	1024.25
596.10	1015.01
596.45	1005.48
596.80	996.33
597.15	986.99
597.50	977.74
597.85	968.85
598.19	959.83
598.54	950.90
598.89	942.40
599.24	934.17
599.59	925.74
599.94	918.19
600.29	910.40
600.64	902.44
600.99	894.12
601.34	886.18
601.69	877.87
602.04	870.24
602.39	862.49
602.74	854.71
603.08	846.97
603.43	839.19
603.78	831.60
604.13	824.12
604.48	816.65
604.83	809.36
605.18	801.94
605.53	794.72
605.87	787.26
606.22	780.17
606.57	773.00
606.92	765.71
607.27	758.35
607.62	751.33
607.96	744.65
608.31	738.37
608.66	731.94
609.01	725.82
609.36	719.75
609.70	713.49
610.05	707.21
610.40	701.17
610.75	695.13
611.10	689.37
611.44	683.50
611.79	677.69
612.14	671.82
612.49	666.12
612.83	660.61
613.18	655.27
613.53	649.82
613.88	644.42
614.22	639.44
614.57	634.37
614.92	629.14
615.27	624.04
615.61	619.00
615.96	614.00
616.31	608.99
616.65	604.05
617.00	599.30
617.35	594.67
617.70	590.09
618.04	585.52
618.39	580.94
618.74	576.58
619.08	572.23
619.43	568.00
619.78	563.75
620.12	559.51
620.47	555.43
620.82	551.42
621.16	547.44
621.51	543.35
621.85	539.33
622.20	535.49
622.55	531.63
622.89	527.85
623.24	524.08
623.59	520.34
623.93	516.75
624.28	513.24
624.62	509.83
624.97	506.45
625.32	503.08
625.66	499.62
626.01	496.12
626.35	492.72
626.70	489.36
627.04	486.18
627.39	482.94
627.73	479.84
628.08	476.80
628.43	473.78
628.77	470.83
629.12	467.96
629.46	465.09
629.81	462.17
630.15	459.26
630.50	456.46
630.84	453.69
631.19	450.98
631.53	448.37
631.88	445.72
632.22	443.09
632.57	440.70
632.91	438.35
633.26	436.13
633.60	433.90
633.95	431.70
634.29	429.42
634.64	427.21
634.98	424.81
635.32	422.59
635.67	420.54
636.01	418.42
636.36	416.34
636.70	414.41
637.05	412.47
637.39	410.54
637.73	408.63
638.08	406.84
638.42	405.00
638.77	403.07
639.11	401.06
639.45	399.14
639.80	397.17
640.14	395.32
640.49	393.41
640.83	391.47
641.17	389.67
641.52	387.89
641.86	386.16
642.20	384.60
642.55	382.87
642.89	381.15
643.23	379.52
643.58	378.05
643.92	376.47
644.26	374.93
644.61	373.45
644.95	371.90
645.29	370.31
645.64	368.74
645.98	367.24
646.32	365.88
646.66	364.48
647.01	363.12
647.35	361.76
647.69	360.42
648.04	359.20
648.38	357.88
648.72	356.58
649.06	355.28
649.41	354.00
649.75	352.78
650.09	351.56
650.43	350.35
650.78	349.08
651.12	347.86
651.46	346.69
651.80	345.52
652.14	344.40
652.49	343.32
652.83	342.21
653.17	341.14
653.51	340.09
653.85	339.10
654.20	338.06
654.54	336.96
654.88	335.93
655.22	334.91
655.56	333.90
655.90	332.96
656.25	332.02
656.59	331.09
656.93	330.19
657.27	329.32
657.61	328.38
657.95	327.48
658.29	326.57
658.64	325.70
658.98	324.84
659.32	324.00
659.66	323.21
660.00	322.43
660.34	321.65
660.68	320.84
661.02	319.99
661.36	319.17
661.70	318.39
662.05	317.63
662.39	316.87
662.73	316.20
663.07	315.51
663.41	314.78
663.75	314.03
664.09	313.31
664.43	312.54
664.77	311.86
665.11	311.15
665.45	310.48
665.79	309.84
666.13	309.14
666.47	308.41
666.81	307.70
667.15	306.95
667.49	306.30
667.83	305.70
668.17	305.08
668.51	304.52
668.85	303.95
669.19	303.42
669.53	302.80
669.87	302.16
670.21	301.54
670.55	300.96
670.89	300.48
671.23	299.93
671.57	299.39
671.91	298.91
672.25	298.42
672.58	297.94
672.92	297.37
673.26	296.90
673.60	296.44
673.94	295.96
674.28	295.55
674.62	295.07
674.96	294.54
675.30	294.09
675.64	293.58
675.97	293.08
676.31	292.53
676.65	292.04
676.99	291.63
677.33	291.13
677.67	290.68
678.01	290.14
678.34	289.68
678.68	289.26
679.02	288.75
679.36	288.28
679.70	287.80
680.04	287.35
680.37	286.92
680.71	286.48
681.05	286.08
681.39	285.60
681.73	285.12
682.06	284.65
682.40	284.19
682.74	283.80
683.08	283.45
683.42	283.03
683.75	282.67
684.09	282.20
684.43	281.80
684.77	281.38
685.10	281.02
685.44	280.63
685.78	280.23
686.12	279.86
686.45	279.45
686.79	279.06
687.13	278.69
687.46	278.26
687.80	277.87
688.14	277.42
688.48	277.07
688.81	276.68
689.15	276.36
689.49	275.97
689.82	275.57
690.16	275.12
690.50	274.75
690.83	274.35
691.17	273.96
691.51	273.59
691.84	273.24
692.18	272.84
692.52	272.43
692.85	272.07
693.19	271.74
693.52	271.37
693.86	270.98
694.20	270.61
694.53	270.28
694.87	269.90
695.21	269.55
695.54	269.18
695.88	268.81
696.21	268.40
696.55	268.05
696.88	267.71
697.22	267.36
697.56	266.99
697.89	266.59
698.23	266.24
698.56	265.85
698.90	265.49
699.23	265.13
699.57	264.79
699.90	264.41
700.24	264.03
700.58	263.71
700.91	263.43
701.25	263.22
701.58	262.93
701.92	262.66
702.25	262.34
702.59	262.02
702.92	261.70
703.26	261.39
703.59	261.07
703.93	260.82
704.26	260.52
704.60	260.22
704.93	259.93
705.26	259.61
705.60	259.37
705.93	259.02
706.27	258.75
706.60	258.49
706.94	258.25
707.27	257.93
707.61	257.63
707.94	257.31
708.27	256.87
708.61	256.51
708.94	256.20
709.28	255.91
709.61	255.62
709.94	255.37
710.28	255.12
710.61	254.87
710.95	254.51
711.28	254.32
711.61	254.06
711.95	253.82
712.28	253.56
712.61	253.27
712.95	253.13
713.28	252.94
713.61	252.66
713.95	252.35
714.28	252.10
714.61	251.84
714.95	251.60
715.28	251.39
715.61	251.16
715.95	250.95
716.28	250.73
716.61	250.53
716.95	250.27
717.28	250.05
717.61	249.81
717.94	249.60
718.28	249.29
718.61	249.07
718.94	248.84
719.27	248.63
719.61	248.43
719.94	248.18
720.27	247.88
720.60	247.68
720.94	247.49
721.27	247.31
721.60	247.14
721.93	246.93
722.27	246.75
722.60	246.57
722.93	246.35
723.26	246.15
723.59	245.93
723.93	245.76
724.26	245.57
724.59	245.39
724.92	245.22
725.25	245.09
725.59	244.92
725.92	244.76
726.25	244.59
726.58	244.43
726.91	244.25
727.24	244.11
727.57	243.94
727.91	243.76
728.24	243.63
728.57	243.45
728.90	243.31
729.23	243.11
729.56	243.02
729.89	242.85
730.22	242.70
730.55	242.54
730.89	242.39
731.22	242.24
731.55	242.09
731.88	241.93
732.21	241.75
732.54	241.60
732.87	241.45
733.20	241.31
733.53	241.16
733.86	241.04
734.19	240.88
734.52	240.77
734.85	240.72
735.18	240.55
735.51	240.46
735.84	240.33
736.17	240.24
736.50	240.03
736.83	240.06
737.16	239.93
737.49	239.82
737.82	239.68
738.15	239.58
738.48	239.46
738.81	239.34
739.14	239.18
739.47	239.06
739.80	238.94
740.13	238.84
740.46	238.71
740.79	238.55
741.12	238.43
741.45	238.29
741.78	238.10
742.11	238.01
742.44	237.86
742.77	237.76
743.10	237.62
743.43	237.52
743.75	237.27
744.08	237.36
744.41	237.23
744.74	237.12
745.07	236.98
745.40	236.90
745.73	236.85
746.06	236.78
746.39	236.70
746.71	236.58
747.04	236.46
747.37	236.36
747.70	236.28
748.03	236.20
748.36	236.13
748.68	236.03
749.01	235.89
749.34	235.82
749.67	235.73
750.00	235.66
750.33	235.66
750.65	235.58
750.98	235.30
751.31	235.24
751.64	235.17
751.97	235.15
752.29	235.05
752.62	234.90
752.95	234.80
753.28	234.71
753.60	234.62
753.93	234.58
754.26	234.51
754.59	234.39
754.91	234.29
755.24	234.17
755.57	234.15
755.90	234.08
756.22	233.96
756.55	233.85
756.88	233.74
757.20	233.58
757.53	233.47
757.86	233.39
758.19	233.31
758.51	233.24
758.84	233.12
759.17	233.04
759.49	232.99
759.82	232.99
760.15	232.94
760.47	232.88
760.80	232.77
761.13	232.73
761.45	232.67
761.78	232.63
762.11	232.59
762.43	232.47
762.76	232.39
763.08	232.39
763.41	232.34
763.74	232.29
764.06	232.22
764.39	232.19
764.71	232.13
765.04	232.06
765.37	231.99
765.69	231.93
766.02	231.87
766.34	231.79
766.67	231.69
767.00	231.64
767.32	231.65
767.65	231.68
767.97	231.62
768.30	231.57
768.62	231.52
768.95	231.45
769.27	231.40
769.60	231.39
769.92	231.29
770.25	231.24
770.57	231.17
770.90	231.13
771.22	231.07
771.55	231.02
771.87	231.00
772.20	230.96
772.52	231.03
772.85	231.15
773.17	231.12
773.50	231.06
773.82	231.01
774.15	230.91
774.47	230.79
774.80	230.74
775.12	230.70
775.45	230.66
775.77	230.64
776.09	230.62
776.42	230.59
776.74	230.61
777.07	230.57
777.39	230.55
777.72	230.52
778.04	230.51
778.36	230.46
778.69	230.43
779.01	230.40
779.33	230.27
779.66	230.10
779.98	230.06
780.31	230.06
780.63	230.07
780.95	230.07
781.28	230.04
781.60	230.00
781.92	229.97
782.25	229.94
782.57	229.90
782.89	229.86
783.22	229.81
783.54	229.75
783.86	229.74
784.19	229.72
784.51	229.72
784.83	229.67
785.16	229.64
785.48	229.62
785.80	229.59
786.12	229.56
786.45	229.52
786.77	229.52
787.09	229.47
787.42	229.40
787.74	229.40
788.06	229.38
788.38	229.36
788.71	229.34
789.03	229.32
789.35	229.31
789.67	229.27
789.99	229.27
790.32	229.23
790.64	229.21
790.96	229.30
791.28	229.23
791.61	229.21
791.93	229.21
792.25	229.18
792.57	229.26
792.89	229.23
793.21	229.22
793.54	229.19
793.86	229.16
794.18	229.15
794.50	229.10
794.82	229.09
795.14	229.10
795.47	229.10
795.79	229.09
796.11	229.06
796.43	229.04
796.75	229.02
797.07	229.02
797.39	228.99
797.71	228.89
798.04	228.89
798.36	228.88
798.68	228.86
799.00	228.86
799.32	228.76
799.64	228.76
799.96	228.75
800.28	228.76
800.60	228.74
800.92	228.74
801.24	228.72
801.56	228.71
801.89	228.68
802.21	228.66
802.53	228.62
802.85	228.63
803.17	228.66
803.49	228.64
803.81	228.61
804.13	228.60
804.45	228.56
804.77	228.56
805.09	228.55
805.41	228.53
805.73	228.48
806.05	228.45
806.37	228.42
806.69	228.40
807.01	228.37
807.33	228.37
807.65	228.32
807.97	228.34
808.28	228.31
808.60	228.31
808.92	228.29
809.24	228.36
809.56	228.33
809.88	228.28
810.20	228.27
810.52	228.28
810.84	228.25
811.16	228.23
811.48	228.21
811.80	228.25
812.12	228.23
812.43	228.26
812.75	228.27
813.07	228.24
813.39	228.24
813.71	228.21
814.03	228.20
814.35	228.19
814.67	228.14
814.98	228.12
815.30	228.10
815.62	228.07
815.94	227.98
816.26	227.99
816.58	227.96
816.89	227.95
817.21	227.92
817.53	227.91
817.85	227.91
818.17	227.90
818.48	227.83
818.80	227.84
819.12	227.80
819.44	227.78
819.76	227.77
820.07	227.75
820.39	227.75
820.71	227.73
821.03	227.72
821.34	227.71
821.66	227.72
821.98	227.73
822.30	227.72
822.61	227.78
822.93	227.74
823.25	227.73
823.57	227.71
823.88	227.71
824.20	227.71
824.52	227.73
824.83	227.71
825.15	227.68
825.47	227.66
825.79	227.66
826.10	227.65
826.42	227.63
826.74	227.64
827.05	227.62
827.37	227.61
827.69	227.61
828.00	227.60
828.32	227.58
828.64	227.55
828.95	227.60
829.27	227.57
829.58	227.58
829.90	227.59
830.22	227.61
830.53	227.59
830.85	227.57
831.17	227.53
831.48	227.52
831.80	227.55
832.11	227.55
832.43	227.51
832.75	227.49
833.06	227.57
833.38	227.53
833.69	227.52
834.01	227.53
834.32	227.52
834.64	227.52
834.96	227.52
835.27	227.53
835.59	227.48
835.90	227.46
836.22	227.43
836.53	227.39
836.85	227.37
837.16	227.49
837.48	227.49
837.79	227.52
838.11	227.51
838.42	227.50
838.74	227.51
839.05	227.51
839.37	227.50
839.68	227.42
840.00	227.42
840.31	227.45
840.63	227.42
840.94	227.41
841.26	227.39
841.57	227.38
841.88	227.39
842.20	227.38
842.51	227.36
842.83	227.36
843.14	227.48
843.46	227.48
843.77	227.40
844.08	227.40
844.40	227.37
844.71	227.37
845.03	227.35
845.34	227.34
845.65	227.34
845.97	227.34
846.28	227.33
846.60	227.33
846.91	227.30
847.22	227.31
847.54	227.35
847.85	227.35
848.16	227.33
848.48	227.30
848.79	227.34
849.10	227.34
849.42	227.34
849.73	227.21
850.04	227.21
850.36	227.16
850.67	227.18
850.98	227.18
851.30	227.18
851.61	227.18
851.92	227.18
852.23	227.22
852.55	227.22
852.86	227.24
853.17	227.24
853.49	227.27
853.80	227.28
854.11	227.28
854.42	227.31
854.74	227.29
855.05	227.29
855.36	227.23
855.67	227.25
855.99	227.26
856.30	227.41
856.61	227.42
856.92	227.42
857.23	227.42
857.55	227.40
857.86	227.40
858.17	227.43
858.48	227.40
858.79	227.36
859.11	227.38
859.42	227.38
859.73	227.38
860.04	227.37
860.35	227.34
860.66	227.31
860.98	227.30
861.29	227.33
861.60	227.34
861.91	227.36
862.22	227.34
862.53	227.33
862.84	227.18
863.16	227.19
863.47	227.18
863.78	227.16
864.09	227.16
864.40	227.17
864.71	227.17
865.02	227.18
865.33	227.18
865.64	227.16
865.95	227.15
866.27	227.21
866.58	227.19
866.89	227.20
867.20	227.18
867.51	227.16
867.82	227.14
868.13	227.16
868.44	227.14
868.75	227.16
869.06	227.15
869.37	227.17
869.68	227.14
869.99	227.16
870.30	227.16
870.61	227.18
870.92	227.15
871.23	227.14
871.54	227.15
871.85	227.17
872.16	227.18
872.47	227.17
872.78	227.10
873.09	227.12
873.40	227.11
873.71	227.14
874.02	227.16
874.33	227.14
874.64	227.13
874.95	227.14
875.26	227.11
875.56	227.11
875.87	227.09
876.18	227.07
876.49	227.20
876.80	227.19
877.11	227.16
877.42	227.17
877.73	227.17
878.04	227.15
878.35	227.14
878.66	227.15
878.96	227.14
879.27	227.13
879.58	227.11
879.89	227.12
880.20	227.15
880.51	227.13
880.82	227.15
881.12	227.14
881.43	227.12
881.74	227.10
882.05	227.10
882.36	227.10
882.67	227.12
882.97	226.99
883.28	226.97
883.59	226.97
883.90	226.98
884.21	226.97
884.51	226.98
884.82	226.96
885.13	226.94
885.44	226.94
885.74	226.95
886.05	226.95
886.36	226.93
886.67	226.89
886.98	226.95
887.28	226.95
887.59	226.95
887.90	226.95
888.20	226.96
888.51	226.99
888.82	226.97
889.13	226.98
889.43	227.10
889.74	227.09
890.05	227.09
890.35	227.08
890.66	227.07
890.97	227.04
891.28	227.04
891.58	227.05
891.89	227.04
892.20	227.03
892.50	227.02
892.81	227.01
893.12	227.01
893.42	226.96
893.73	226.97
894.04	226.97
894.34	226.98
894.65	226.97
894.95	226.97
895.26	226.98
895.57	227.04
895.87	226.90
896.18	226.93
896.48	226.93
896.79	226.93
897.10	226.94
897.40	226.95
897.71	226.95
898.01	226.93
898.32	226.94
898.63	226.92
898.93	226.94
899.24	226.94
899.54	226.93
899.85	226.92
900.15	226.91
900.46	226.88
900.76	226.88
901.07	226.87
901.38	226.85
901.68	226.85
901.99	226.78
902.29	226.81
902.60	226.80
902.90	226.78
903.21	226.77
903.51	226.77
903.82	226.79
904.12	226.80
904.43	226.80
904.73	226.79
905.03	226.80
905.34	226.92
905.64	226.91
905.95	226.90
906.25	226.91
906.56	226.91
906.86	226.92
907.17	226.91
907.47	226.92
907.77	226.91
908.08	226.88
908.38	226.89
908.69	226.88
908.99	226.89
909.30	226.90
909.60	226.90
909.90	226.89
910.21	226.86
910.51	226.84
910.81	226.82
911.12	226.84
911.42	226.83
911.73	226.69
912.03	226.68
912.33	226.71
912.64	226.71
912.94	226.69
913.24	226.66
913.55	226.65
913.85	226.64
914.15	226.67
914.46	226.69
914.76	226.67
915.06	226.66
915.37	226.64
915.67	226.63
915.97	226.62
916.27	226.60
916.58	226.61
916.88	226.63
917.18	226.62
917.49	226.70
917.79	226.70
918.09	226.72
918.39	226.76
918.70	226.75
919.00	226.75
919.30	226.80
919.60	226.80
919.91	226.78
920.21	226.79
920.51	226.77
920.81	226.75
921.12	226.79
921.42	226.77
921.72	226.78
922.02	226.78
922.32	226.81
922.63	226.82
922.93	226.88
923.23	226.87
923.53	226.85
923.83	226.77
924.13	226.79
924.44	226.79
924.74	226.80
925.04	226.82
925.34	226.83
925.64	226.78
925.94	226.78
926.24	226.85
926.55	226.83
926.85	226.86
927.15	226.86
927.45	226.85
927.75	226.85
928.05	226.85
928.35	226.85
928.65	226.85
928.95	226.86
929.26	226.80
929.56	226.84
929.86	226.85
930.16	226.85
930.46	226.83
930.76	226.84
931.06	226.79
931.36	226.76
931.66	226.76
931.96	226.78
932.26	226.79
932.56	226.74
932.86	226.75
933.16	226.74
933.46	226.72
933.76	226.70
934.06	226.75
934.36	226.80
934.66	226.79
934.96	226.78
935.26	226.80
935.56	226.82
935.86	226.79
936.16	226.77
936.46	226.77
936.76	226.77
937.06	226.74
937.36	226.75
937.66	226.76
937.96	226.76
938.26	226.73
938.56	226.73
938.86	226.74
939.16	226.77
939.46	226.77
939.76	226.78
940.06	226.79
940.35	226.76
940.65	226.69
940.95	226.69
941.25	226.67
941.55	226.64
941.85	226.63
942.15	226.66
942.45	226.70
942.75	226.69
943.04	226.69
943.34	226.73
943.64	226.71
943.94	226.68
944.24	226.68
944.54	226.69
944.84	226.69
945.13	226.67
945.43	226.64
945.73	226.63
946.03	226.62
946.33	226.60
946.62	226.60
946.92	226.59
947.22	226.61
947.52	226.62
947.82	226.64
948.11	226.63
948.41	226.59
948.71	226.57
949.01	226.59
949.31	226.59
949.60	226.57
949.90	226.59
950.20	226.59
950.50	226.59
950.79	226.58
951.09	226.59
951.39	226.60
951.69	226.59
951.98	226.62
952.28	226.63
952.58	226.64
952.87	226.65
953.17	226.68
953.47	226.66
953.76	226.64
954.06	226.61
954.36	226.59
954.66	226.60
954.95	226.63
955.25	226.63
955.55	226.65
955.84	226.62
956.14	226.64
956.44	226.65
956.73	226.64
957.03	226.66
957.32	226.66
957.62	226.65
957.92	226.68
958.21	226.66
958.51	226.80
958.81	226.82
959.10	226.83
959.40	226.85
959.69	226.88
959.99	226.91
960.29	226.93
960.58	226.93
960.88	226.97
961.17	226.96
961.47	226.97
961.76	226.95
962.06	226.99
962.36	226.97
962.65	226.97
962.95	226.99
963.24	226.96
963.54	226.96
963.83	226.98
964.13	226.97
964.42	226.97
964.72	226.86
965.01	226.86
965.31	226.84
965.60	226.80
965.90	226.87
966.19	226.84
966.49	226.84
966.78	226.84
967.08	226.82
967.37	226.82
967.67	226.79
967.96	226.82
968.26	226.81
968.55	226.82
968.85	226.82
969.14	226.80
969.43	226.80
969.73	226.80
970.02	226.79
970.32	226.77
970.61	226.76
970.91	226.73
971.20	226.71
971.49	226.70
971.79	226.73
972.08	226.65
972.38	226.65
972.67	226.63
972.96	226.64
973.26	226.62
973.55	226.65
973.85	226.64
974.14	226.62
974.43	226.63
974.73	226.61
975.02	226.60
975.31	226.61
975.61	226.60
975.90	226.59
976.19	226.58
976.49	226.60
976.78	226.61
977.07	226.61
977.37	226.62
977.66	226.62
977.95	226.61
978.24	226.61
978.54	226.64
978.83	226.63
979.12	226.62
979.42	226.62
979.71	226.60
980.00	226.60
980.29	226.61
980.59	226.58
980.88	226.62
981.17	226.62
981.46	226.60
981.76	226.62
982.05	226.65
982.34	226.66
982.63	226.64
982.93	226.65
983.22	226.68
983.51	226.68
983.80	226.70
984.09	226.73
984.39	226.70
984.68	226.68
984.97	226.70
985.26	226.68
985.55	226.69
985.85	226.66
986.14	226.68
986.43	226.70
986.72	226.69
987.01	226.65
987.30	226.64
987.59	226.63
987.89	226.63
988.18	226.60
988.47	226.59
988.76	226.58
989.05	226.55
989.34	226.53
989.63	226.56
989.92	226.54
990.22	226.51
990.51	226.52
990.80	226.51
991.09	226.53
991.38	226.57
991.67	226.56
991.96	226.56
992.25	226.57
992.54	226.54
992.83	226.55
993.12	226.54
993.41	226.57
993.70	226.63
993.99	226.66
994.28	226.68
994.58	226.70
994.87	226.70
995.16	226.69
995.45	226.68
995.74	226.64
996.03	226.66
996.32	226.68
996.61	226.72
996.90	226.71
997.19	226.70
997.48	226.68
997.77	226.67
998.06	226.67
998.34	226.67
998.63	226.66
998.92	226.67
999.21	226.70
999.50	226.70
999.79	226.65
1000.08	226.64
1000.37	226.64
1000.66	226.63
1000.95	226.66
1001.24	226.68
1001.53	226.70
1001.82	226.70
1002.11	226.66
1002.40	226.66
1002.68	226.69
1002.97	226.77
1003.26	226.76
1003.55	226.73
1003.84	226.75
1004.13	226.79
1004.42	226.78
1004.71	226.78
1004.99	226.77
1005.28	226.80
1005.57	226.79
1005.86	226.78
1006.15	226.77
1006.44	226.75
1006.72	226.76
1007.01	226.72
1007.30	226.73
1007.59	226.72
1007.88	226.73
1008.17	226.73
1008.45	226.70
1008.74	226.64
1009.03	226.58
1009.32	226.58
1009.60	226.58
1009.89	226.57
1010.18	226.52
1010.47	226.51
1010.76	226.51
1011.04	226.51
1011.33	226.47
1011.62	226.47
1011.91	226.48
1012.19	226.47
1012.48	226.47
1012.77	226.46
1013.05	226.51
1013.34	226.50
1013.63	226.50
1013.92	226.50
1014.20	226.49
1014.49	226.50
1014.78	226.52
1015.06	226.47
1015.35	226.48
1015.64	226.51
1015.92	226.52
1016.21	226.51
1016.50	226.51
1016.78	226.53
1017.07	226.54
1017.36	226.54
1017.64	226.53
1017.93	226.52
1018.22	226.51
1018.50	226.51
1018.79	226.49
1019.08	226.45
1019.36	226.46
1019.65	226.44
1019.93	226.46
1020.22	226.50
1020.51	226.56
1020.79	226.54
1021.08	226.12
1021.36	226.28
1021.65	226.34
1021.94	226.54
1022.22	226.59
1022.51	226.08
1022.79	227.12
1023.08	226.92
1023.36	228.05
1023.65	226.20
>>>>>End Processed Spectral Data<<<<<
