SpectraSuite Data File
++++++++++++++++++++++++++++++++++++
Date: Sat Oct 03 01:40:31 EDT 2015
User: lab3
Dark Spectrum Present: No
Reference Spectrum Present: No
Number of Sampled Component Spectra: 1
Spectrometers: USB2E7196
Integration Time (usec): 46000 (USB2E7196)
Spectra Averaged: 12000 (USB2E7196)
Boxcar Smoothing: 10 (USB2E7196)
Correct for Electrical Dark: No (USB2E7196)
Strobe/Lamp Enabled: No (USB2E7196)
Correct for Detector Non-linearity: No (USB2E7196)
Correct for Stray Light: No (USB2E7196)
Number of Pixels in Processed Spectrum: 2048
>>>>>Begin Processed Spectral Data<<<<<
339.09	0.00
339.48	214.05
339.86	215.53
340.24	216.87
340.63	218.38
341.01	221.61
341.39	221.08
341.78	222.40
342.16	223.68
342.54	224.08
342.93	212.52
343.31	223.26
343.69	223.80
344.07	224.26
344.46	224.69
344.84	225.08
345.22	225.30
345.60	225.56
345.99	225.75
346.37	225.88
346.75	225.99
347.13	226.07
347.52	226.13
347.90	226.22
348.28	226.26
348.66	226.32
349.05	226.32
349.43	226.37
349.81	226.43
350.19	226.49
350.57	226.55
350.96	226.64
351.34	226.74
351.72	226.83
352.10	226.94
352.48	227.01
352.87	227.06
353.25	227.13
353.63	227.19
354.01	227.25
354.39	227.33
354.77	227.40
355.15	227.51
355.54	227.56
355.92	227.59
356.30	227.67
356.68	227.81
357.06	227.89
357.44	227.93
357.82	227.99
358.20	228.11
358.58	228.16
358.97	228.23
359.35	228.31
359.73	228.39
360.11	228.44
360.49	228.50
360.87	228.55
361.25	228.61
361.63	228.70
362.01	228.75
362.39	228.78
362.77	228.83
363.15	228.85
363.53	228.89
363.91	228.92
364.29	228.94
364.67	228.85
365.05	228.87
365.43	228.90
365.81	228.93
366.19	228.95
366.57	229.01
366.95	229.01
367.33	228.98
367.71	228.97
368.09	228.99
368.47	228.99
368.85	228.98
369.23	228.99
369.61	228.93
369.99	228.94
370.37	228.94
370.75	229.02
371.13	228.98
371.51	228.94
371.89	228.92
372.27	228.90
372.65	228.88
373.03	228.84
373.41	228.79
373.78	228.74
374.16	228.63
374.54	228.55
374.92	228.50
375.30	228.46
375.68	228.39
376.06	228.35
376.44	228.29
376.82	228.25
377.19	228.20
377.57	228.15
377.95	228.06
378.33	228.00
378.71	227.84
379.09	227.79
379.47	227.76
379.84	227.70
380.22	227.63
380.60	227.56
380.98	227.51
381.36	227.46
381.73	227.41
382.11	227.38
382.49	227.34
382.87	227.28
383.25	227.23
383.62	227.34
384.00	227.27
384.38	227.23
384.76	227.22
385.13	227.21
385.51	227.17
385.89	227.12
386.27	227.09
386.64	227.07
387.02	227.03
387.40	226.98
387.78	226.96
388.15	226.94
388.53	226.91
388.91	226.88
389.29	226.84
389.66	226.84
390.04	226.80
390.42	226.79
390.79	226.78
391.17	226.77
391.55	226.61
391.92	226.60
392.30	226.60
392.68	226.56
393.05	226.54
393.43	226.54
393.81	226.54
394.18	226.52
394.56	226.52
394.94	226.56
395.31	226.55
395.69	226.60
396.06	226.62
396.44	226.65
396.82	226.67
397.19	226.76
397.57	226.77
397.95	226.82
398.32	226.81
398.70	226.85
399.07	226.92
399.45	226.96
399.82	227.00
400.20	227.04
400.58	227.10
400.95	227.11
401.33	227.20
401.70	227.35
402.08	227.45
402.45	227.54
402.83	227.65
403.20	227.77
403.58	227.86
403.95	228.00
404.33	228.14
404.71	228.28
405.08	228.49
405.46	228.65
405.83	228.83
406.21	229.03
406.58	229.25
406.96	229.46
407.33	229.71
407.70	229.98
408.08	230.37
408.45	230.69
408.83	231.05
409.20	231.38
409.58	231.67
409.95	232.08
410.33	232.52
410.70	232.92
411.08	233.41
411.45	233.92
411.82	234.44
412.20	235.03
412.57	235.74
412.95	236.29
413.32	237.02
413.69	237.76
414.07	238.55
414.44	239.41
414.82	240.28
415.19	241.30
415.56	242.34
415.94	243.40
416.31	244.61
416.68	245.82
417.06	247.22
417.43	248.53
417.81	250.03
418.18	251.57
418.55	253.25
418.93	254.99
419.30	256.81
419.67	258.74
420.04	260.72
420.42	262.79
420.79	265.19
421.16	267.60
421.54	270.05
421.91	272.62
422.28	275.27
422.66	278.14
423.03	280.87
423.40	283.74
423.77	286.81
424.15	289.96
424.52	293.24
424.89	296.79
425.26	300.32
425.64	303.60
426.01	307.28
426.38	311.06
426.75	314.94
427.13	318.93
427.50	323.10
427.87	327.44
428.24	331.82
428.61	336.02
428.99	340.57
429.36	345.55
429.73	350.32
430.10	355.09
430.47	359.97
430.85	365.00
431.22	370.40
431.59	375.95
431.96	381.36
432.33	387.36
432.70	393.09
433.08	399.84
433.45	406.23
433.82	412.53
434.19	419.56
434.56	426.50
434.93	433.20
435.30	439.82
435.68	447.30
436.05	454.63
436.42	461.93
436.79	468.59
437.16	475.78
437.53	483.48
437.90	491.19
438.27	498.73
438.64	506.88
439.01	514.26
439.38	521.00
439.75	527.49
440.13	534.82
440.50	541.78
440.87	547.30
441.24	553.34
441.61	559.94
441.98	564.74
442.35	570.42
442.72	576.22
443.09	581.73
443.46	585.22
443.83	587.75
444.20	589.83
444.57	592.98
444.94	594.74
445.31	596.56
445.68	598.08
446.05	599.16
446.42	598.69
446.79	598.04
447.16	597.45
447.53	596.91
447.90	594.45
448.27	592.08
448.64	588.56
449.01	586.08
449.37	581.25
449.74	576.87
450.11	571.27
450.48	565.15
450.85	559.04
451.22	553.80
451.59	548.70
451.96	544.09
452.33	537.41
452.70	531.49
453.07	524.27
453.43	517.09
453.80	510.11
454.17	503.43
454.54	497.30
454.91	490.36
455.28	483.87
455.65	477.77
456.02	471.34
456.38	466.15
456.75	459.48
457.12	454.11
457.49	448.69
457.86	443.60
458.23	439.16
458.59	434.22
458.96	429.17
459.33	424.72
459.70	420.20
460.07	416.77
460.43	412.73
460.80	408.96
461.17	405.70
461.54	402.15
461.91	398.84
462.27	395.47
462.64	392.78
463.01	389.64
463.38	386.48
463.74	383.63
464.11	381.13
464.48	378.89
464.85	376.43
465.21	374.59
465.58	372.51
465.95	370.12
466.32	368.23
466.68	366.36
467.05	364.49
467.42	362.67
467.78	360.68
468.15	358.86
468.52	357.55
468.88	355.76
469.25	354.13
469.62	352.84
469.98	351.42
470.35	350.16
470.72	349.03
471.08	347.86
471.45	346.89
471.82	345.80
472.18	344.64
472.55	343.90
472.92	342.95
473.28	342.22
473.65	341.42
474.02	340.66
474.38	340.02
474.75	339.65
475.11	339.12
475.48	338.87
475.85	338.60
476.21	338.45
476.58	338.35
476.94	338.48
477.31	338.53
477.67	338.60
478.04	338.80
478.41	339.07
478.77	339.48
479.14	339.73
479.50	340.22
479.87	340.87
480.23	341.51
480.60	342.15
480.96	342.80
481.33	343.76
481.69	344.72
482.06	345.67
482.42	346.54
482.79	347.63
483.15	348.89
483.52	350.33
483.88	351.71
484.25	353.19
484.61	354.72
484.98	356.38
485.34	358.25
485.71	360.20
486.07	362.30
486.44	364.38
486.80	366.70
487.17	369.12
487.53	371.77
487.90	374.53
488.26	377.55
488.62	380.73
488.99	383.92
489.35	387.27
489.72	390.90
490.08	394.73
490.44	398.68
490.81	402.79
491.17	407.00
491.54	411.53
491.90	416.21
492.26	421.22
492.63	426.45
492.99	431.91
493.36	437.57
493.72	443.53
494.08	449.64
494.45	456.12
494.81	462.85
495.17	469.77
495.54	477.07
495.90	484.67
496.26	492.45
496.63	500.46
496.99	508.79
497.35	517.51
497.72	526.52
498.08	535.73
498.44	545.26
498.80	555.35
499.17	565.70
499.53	576.36
499.89	587.40
500.26	598.68
500.62	610.24
500.98	622.43
501.34	634.80
501.71	647.68
502.07	660.74
502.43	674.34
502.79	688.18
503.16	702.46
503.52	716.95
503.88	731.85
504.24	747.22
504.60	762.79
504.97	778.83
505.33	795.31
505.69	812.68
506.05	830.38
506.41	848.03
506.78	865.86
507.14	884.20
507.50	903.00
507.86	922.13
508.22	941.50
508.59	960.71
508.95	980.72
509.31	1001.45
509.67	1022.90
510.03	1044.34
510.39	1065.85
510.75	1087.55
511.12	1109.52
511.48	1131.69
511.84	1153.91
512.20	1176.51
512.56	1199.99
512.92	1223.48
513.28	1246.61
513.64	1270.01
514.00	1293.86
514.37	1318.02
514.73	1342.18
515.09	1366.22
515.45	1390.60
515.81	1415.16
516.17	1439.85
516.53	1464.09
516.89	1488.23
517.25	1512.52
517.61	1536.74
517.97	1561.42
518.33	1585.61
518.69	1609.71
519.05	1634.29
519.41	1659.15
519.77	1684.29
520.13	1708.66
520.49	1732.98
520.85	1757.63
521.21	1781.88
521.57	1806.49
521.93	1830.62
522.29	1855.26
522.65	1879.37
523.01	1903.46
523.37	1927.16
523.73	1951.56
524.09	1975.70
524.45	1999.66
524.81	2023.22
525.17	2046.65
525.53	2069.51
525.89	2092.83
526.25	2116.14
526.61	2138.44
526.97	2160.91
527.33	2183.26
527.68	2205.39
528.04	2226.73
528.40	2247.16
528.76	2267.79
529.12	2287.99
529.48	2307.91
529.84	2326.00
530.20	2344.73
530.56	2362.85
530.91	2381.11
531.27	2399.05
531.63	2416.13
531.99	2432.73
532.35	2448.72
532.71	2464.84
533.07	2481.63
533.42	2496.60
533.78	2512.56
534.14	2528.72
534.50	2543.96
534.86	2558.95
535.21	2572.06
535.57	2585.66
535.93	2599.02
536.29	2611.30
536.65	2623.38
537.00	2634.75
537.36	2647.06
537.72	2657.95
538.08	2668.36
538.44	2678.11
538.79	2687.45
539.15	2695.97
539.51	2704.20
539.87	2711.77
540.22	2717.32
540.58	2722.92
540.94	2729.72
541.29	2734.98
541.65	2738.52
542.01	2741.26
542.37	2743.35
542.72	2746.76
543.08	2748.49
543.44	2750.84
543.79	2752.09
544.15	2752.49
544.51	2753.33
544.87	2753.01
545.22	2752.01
545.58	2750.34
545.94	2748.63
546.29	2745.64
546.65	2742.64
547.01	2739.51
547.36	2737.10
547.72	2734.88
548.07	2730.90
548.43	2725.49
548.79	2719.10
549.14	2713.94
549.50	2709.13
549.86	2703.41
550.21	2696.53
550.57	2690.58
550.92	2682.35
551.28	2674.69
551.64	2667.36
551.99	2659.54
552.35	2651.12
552.70	2642.93
553.06	2635.05
553.41	2626.57
553.77	2617.84
554.13	2609.07
554.48	2599.50
554.84	2588.65
555.19	2578.24
555.55	2567.91
555.90	2557.59
556.26	2547.82
556.61	2537.02
556.97	2524.54
557.32	2512.61
557.68	2500.61
558.03	2488.33
558.39	2477.24
558.74	2466.44
559.10	2453.89
559.45	2441.56
559.81	2429.87
560.16	2417.55
560.52	2405.47
560.87	2393.71
561.23	2381.15
561.58	2368.66
561.94	2355.85
562.29	2342.51
562.64	2329.89
563.00	2316.91
563.35	2304.39
563.71	2291.70
564.06	2278.85
564.42	2266.75
564.77	2254.01
565.12	2241.16
565.48	2228.32
565.83	2215.41
566.19	2202.65
566.54	2189.88
566.89	2175.97
567.25	2162.16
567.60	2149.71
567.96	2136.36
568.31	2121.66
568.66	2107.66
569.02	2094.87
569.37	2081.96
569.72	2069.57
570.08	2055.91
570.43	2041.96
570.78	2027.81
571.14	2012.92
571.49	1998.68
571.84	1984.98
572.20	1970.07
572.55	1955.42
572.90	1940.69
573.26	1925.96
573.61	1910.72
573.96	1895.92
574.31	1881.33
574.67	1866.85
575.02	1851.30
575.37	1835.82
575.72	1821.22
576.08	1806.95
576.43	1791.52
576.78	1776.51
577.13	1761.75
577.49	1747.34
577.84	1733.54
578.19	1718.80
578.54	1704.25
578.90	1689.21
579.25	1674.04
579.60	1660.46
579.95	1646.79
580.30	1632.94
580.66	1618.85
581.01	1604.62
581.36	1590.34
581.71	1577.13
582.06	1563.80
582.42	1550.69
582.77	1537.65
583.12	1524.54
583.47	1511.28
583.82	1498.15
584.17	1484.71
584.53	1470.94
584.88	1457.54
585.23	1443.67
585.58	1430.62
585.93	1417.77
586.28	1405.71
586.63	1393.63
586.98	1381.11
587.34	1368.61
587.69	1355.79
588.04	1343.30
588.39	1331.22
588.74	1319.31
589.09	1307.13
589.44	1294.54
589.79	1282.59
590.14	1270.77
590.49	1258.85
590.84	1247.13
591.19	1235.77
591.54	1224.20
591.89	1212.79
592.25	1201.56
592.60	1189.98
592.95	1178.82
593.30	1167.86
593.65	1156.57
594.00	1145.43
594.35	1134.79
594.70	1123.76
595.05	1113.64
595.40	1103.42
595.75	1093.05
596.10	1083.20
596.45	1073.08
596.80	1063.31
597.15	1053.25
597.50	1043.35
597.85	1033.90
598.19	1024.23
598.54	1014.62
598.89	1005.48
599.24	996.64
599.59	987.60
599.94	979.51
600.29	971.19
600.64	962.61
600.99	953.65
601.34	945.06
601.69	936.15
602.04	927.91
602.39	919.49
602.74	911.13
603.08	902.73
603.43	894.27
603.78	886.00
604.13	877.90
604.48	869.81
604.83	861.88
605.18	853.84
605.53	845.99
605.87	837.95
606.22	830.23
606.57	822.43
606.92	814.58
607.27	806.62
607.62	798.99
607.96	791.78
608.31	785.00
608.66	778.02
609.01	771.32
609.36	764.71
609.70	757.89
610.05	751.02
610.40	744.45
610.75	737.85
611.10	731.62
611.44	725.19
611.79	718.88
612.14	712.50
612.49	706.21
612.83	700.22
613.18	694.36
613.53	688.39
613.88	682.47
614.22	676.94
614.57	671.36
614.92	665.64
615.27	660.01
615.61	654.44
615.96	648.92
616.31	643.42
616.65	637.98
617.00	632.75
617.35	627.63
617.70	622.56
618.04	617.53
618.39	612.44
618.74	607.60
619.08	602.79
619.43	598.12
619.78	593.45
620.12	588.72
620.47	584.17
620.82	579.74
621.16	575.33
621.51	570.80
621.85	566.32
622.20	562.01
622.55	557.71
622.89	553.51
623.24	549.31
623.59	545.14
623.93	541.14
624.28	537.22
624.62	533.40
624.97	529.62
625.32	525.82
625.66	521.96
626.01	518.06
626.35	514.25
626.70	510.48
627.04	506.91
627.39	503.26
627.73	499.79
628.08	496.39
628.43	492.98
628.77	489.66
629.12	486.46
629.46	483.28
629.81	480.01
630.15	476.73
630.50	473.55
630.84	470.43
631.19	467.37
631.53	464.42
631.88	461.44
632.22	458.48
632.57	455.80
632.91	453.16
633.26	450.61
633.60	448.07
633.95	445.60
634.29	443.03
634.64	440.54
634.98	437.85
635.32	435.32
635.67	432.98
636.01	430.57
636.36	428.20
636.70	425.98
637.05	423.75
637.39	421.57
637.73	419.40
638.08	417.36
638.42	415.27
638.77	413.05
639.11	410.76
639.45	408.58
639.80	406.33
640.14	404.20
640.49	402.05
640.83	399.87
641.17	397.79
641.52	395.74
641.86	393.73
642.20	391.94
642.55	389.97
642.89	388.03
643.23	386.19
643.58	384.50
643.92	382.69
644.26	380.94
644.61	379.24
644.95	377.51
645.29	375.70
645.64	373.92
645.98	372.23
646.32	370.67
646.66	369.08
647.01	367.51
647.35	365.99
647.69	364.44
648.04	363.05
648.38	361.57
648.72	360.11
649.06	358.65
649.41	357.20
649.75	355.82
650.09	354.45
650.43	353.07
650.78	351.65
651.12	350.27
651.46	348.94
651.80	347.64
652.14	346.37
652.49	345.15
652.83	343.90
653.17	342.70
653.51	341.53
653.85	340.42
654.20	339.26
654.54	338.04
654.88	336.89
655.22	335.77
655.56	334.63
655.90	333.56
656.25	332.52
656.59	331.47
656.93	330.47
657.27	329.48
657.61	328.45
657.95	327.45
658.29	326.45
658.64	325.51
658.98	324.55
659.32	323.62
659.66	322.73
660.00	321.87
660.34	321.01
660.68	320.12
661.02	319.18
661.36	318.30
661.70	317.45
662.05	316.61
662.39	315.79
662.73	315.05
663.07	314.32
663.41	313.53
663.75	312.75
664.09	311.97
664.43	311.15
664.77	310.42
665.11	309.66
665.45	308.95
665.79	308.25
666.13	307.52
666.47	306.77
666.81	306.01
667.15	305.22
667.49	304.54
667.83	303.91
668.17	303.26
668.51	302.66
668.85	302.08
669.19	301.54
669.53	300.89
669.87	300.23
670.21	299.58
670.55	298.99
670.89	298.47
671.23	297.90
671.57	297.35
671.91	296.84
672.25	296.35
672.58	295.86
672.92	295.29
673.26	294.82
673.60	294.34
673.94	293.87
674.28	293.43
674.62	292.96
674.96	292.43
675.30	291.97
675.64	291.47
675.97	290.95
676.31	290.40
676.65	289.92
676.99	289.50
677.33	289.00
677.67	288.54
678.01	288.01
678.34	287.56
678.68	287.13
679.02	286.64
679.36	286.16
679.70	285.69
680.04	285.26
680.37	284.81
680.71	284.39
681.05	283.99
681.39	283.53
681.73	283.05
682.06	282.61
682.40	282.17
682.74	281.79
683.08	281.46
683.42	281.06
683.75	280.70
684.09	280.25
684.43	279.88
684.77	279.49
685.10	279.15
685.44	278.78
685.78	278.40
686.12	278.05
686.45	277.67
686.79	277.28
687.13	276.93
687.46	276.53
687.80	276.16
688.14	275.74
688.48	275.40
688.81	275.04
689.15	274.71
689.49	274.33
689.82	273.96
690.16	273.52
690.50	273.16
690.83	272.79
691.17	272.42
691.51	272.06
691.84	271.72
692.18	271.34
692.52	270.95
692.85	270.59
693.19	270.26
693.52	269.91
693.86	269.56
694.20	269.21
694.53	268.88
694.87	268.52
695.21	268.17
695.54	267.82
695.88	267.47
696.21	267.10
696.55	266.77
696.88	266.43
697.22	266.10
697.56	265.76
697.89	265.38
698.23	265.06
698.56	264.70
698.90	264.37
699.23	264.01
699.57	263.68
699.90	263.35
700.24	262.99
700.58	262.69
700.91	262.41
701.25	262.21
701.58	261.95
701.92	261.68
702.25	261.39
702.59	261.07
702.92	260.78
703.26	260.47
703.59	260.15
703.93	259.95
704.26	259.66
704.60	259.36
704.93	259.07
705.26	258.76
705.60	258.51
705.93	258.19
706.27	257.94
706.60	257.70
706.94	257.46
707.27	257.15
707.61	256.85
707.94	256.53
708.27	256.12
708.61	255.78
708.94	255.47
709.28	255.19
709.61	254.91
709.94	254.66
710.28	254.42
710.61	254.19
710.95	253.83
711.28	253.65
711.61	253.40
711.95	253.18
712.28	252.93
712.61	252.66
712.95	252.49
713.28	252.31
713.61	252.03
713.95	251.74
714.28	251.52
714.61	251.27
714.95	251.04
715.28	250.81
715.61	250.59
715.95	250.38
716.28	250.16
716.61	249.98
716.95	249.74
717.28	249.51
717.61	249.28
717.94	249.07
718.28	248.77
718.61	248.55
718.94	248.31
719.27	248.10
719.61	247.92
719.94	247.67
720.27	247.38
720.60	247.18
720.94	246.98
721.27	246.79
721.60	246.62
721.93	246.42
722.27	246.26
722.60	246.09
722.93	245.88
723.26	245.69
723.59	245.46
723.93	245.28
724.26	245.10
724.59	244.90
724.92	244.74
725.25	244.61
725.59	244.44
725.92	244.29
726.25	244.13
726.58	243.95
726.91	243.78
727.24	243.63
727.57	243.47
727.91	243.29
728.24	243.15
728.57	242.97
728.90	242.83
729.23	242.63
729.56	242.52
729.89	242.36
730.22	242.19
730.55	242.04
730.89	241.89
731.22	241.73
731.55	241.58
731.88	241.43
732.21	241.25
732.54	241.10
732.87	240.95
733.20	240.81
733.53	240.67
733.86	240.53
734.19	240.37
734.52	240.26
734.85	240.21
735.18	240.05
735.51	239.95
735.84	239.81
736.17	239.72
736.50	239.53
736.83	239.55
737.16	239.43
737.49	239.31
737.82	239.18
738.15	239.08
738.48	238.95
738.81	238.82
739.14	238.69
739.47	238.56
739.80	238.43
740.13	238.32
740.46	238.17
740.79	238.04
741.12	237.92
741.45	237.77
741.78	237.58
742.11	237.50
742.44	237.35
742.77	237.25
743.10	237.12
743.43	237.00
743.75	236.75
744.08	236.84
744.41	236.73
744.74	236.61
745.07	236.47
745.40	236.39
745.73	236.34
746.06	236.24
746.39	236.16
746.71	236.05
747.04	235.94
747.37	235.84
747.70	235.77
748.03	235.69
748.36	235.61
748.68	235.52
749.01	235.38
749.34	235.29
749.67	235.20
750.00	235.13
750.33	235.13
750.65	235.05
750.98	234.77
751.31	234.69
751.64	234.61
751.97	234.60
752.29	234.50
752.62	234.35
752.95	234.26
753.28	234.16
753.60	234.07
753.93	234.02
754.26	233.95
754.59	233.82
754.91	233.72
755.24	233.62
755.57	233.60
755.90	233.52
756.22	233.43
756.55	233.32
756.88	233.22
757.20	233.05
757.53	232.94
757.86	232.86
758.19	232.79
758.51	232.71
758.84	232.56
759.17	232.48
759.49	232.41
759.82	232.40
760.15	232.34
760.47	232.27
760.80	232.16
761.13	232.11
761.45	232.05
761.78	231.99
762.11	231.94
762.43	231.81
762.76	231.74
763.08	231.69
763.41	231.64
763.74	231.59
764.06	231.53
764.39	231.48
764.71	231.42
765.04	231.35
765.37	231.28
765.69	231.23
766.02	231.18
766.34	231.11
766.67	231.01
767.00	230.98
767.32	231.00
767.65	231.02
767.97	230.96
768.30	230.92
768.62	230.86
768.95	230.80
769.27	230.74
769.60	230.71
769.92	230.64
770.25	230.58
770.57	230.51
770.90	230.46
771.22	230.40
771.55	230.35
771.87	230.32
772.20	230.27
772.52	230.34
772.85	230.45
773.17	230.42
773.50	230.36
773.82	230.30
774.15	230.19
774.47	230.07
774.80	230.02
775.12	229.98
775.45	229.94
775.77	229.91
776.09	229.88
776.42	229.85
776.74	229.85
777.07	229.82
777.39	229.79
777.72	229.75
778.04	229.74
778.36	229.70
778.69	229.67
779.01	229.65
779.33	229.50
779.66	229.32
779.98	229.29
780.31	229.26
780.63	229.28
780.95	229.28
781.28	229.25
781.60	229.22
781.92	229.19
782.25	229.16
782.57	229.14
782.89	229.10
783.22	229.07
783.54	229.01
783.86	228.99
784.19	228.96
784.51	228.98
784.83	228.93
785.16	228.91
785.48	228.88
785.80	228.86
786.12	228.85
786.45	228.82
786.77	228.81
787.09	228.78
787.42	228.71
787.74	228.69
788.06	228.67
788.38	228.65
788.71	228.63
789.03	228.61
789.35	228.60
789.67	228.57
789.99	228.56
790.32	228.52
790.64	228.52
790.96	228.62
791.28	228.55
791.61	228.53
791.93	228.52
792.25	228.49
792.57	228.56
792.89	228.52
793.21	228.51
793.54	228.48
793.86	228.45
794.18	228.44
794.50	228.40
794.82	228.38
795.14	228.37
795.47	228.38
795.79	228.36
796.11	228.31
796.43	228.29
796.75	228.27
797.07	228.26
797.39	228.23
797.71	228.11
798.04	228.11
798.36	228.09
798.68	228.07
799.00	228.07
799.32	227.99
799.64	228.00
799.96	227.98
800.28	227.98
800.60	227.97
800.92	227.95
801.24	227.93
801.56	227.93
801.89	227.90
802.21	227.89
802.53	227.85
802.85	227.86
803.17	227.91
803.49	227.87
803.81	227.84
804.13	227.82
804.45	227.79
804.77	227.79
805.09	227.77
805.41	227.75
805.73	227.71
806.05	227.66
806.37	227.63
806.69	227.60
807.01	227.58
807.33	227.57
807.65	227.52
807.97	227.57
808.28	227.54
808.60	227.53
808.92	227.50
809.24	227.57
809.56	227.54
809.88	227.48
810.20	227.48
810.52	227.49
810.84	227.46
811.16	227.44
811.48	227.42
811.80	227.45
812.12	227.44
812.43	227.45
812.75	227.45
813.07	227.43
813.39	227.43
813.71	227.40
814.03	227.38
814.35	227.38
814.67	227.31
814.98	227.29
815.30	227.28
815.62	227.25
815.94	227.16
816.26	227.16
816.58	227.13
816.89	227.13
817.21	227.09
817.53	227.10
817.85	227.10
818.17	227.08
818.48	227.03
818.80	227.04
819.12	227.01
819.44	226.99
819.76	226.96
820.07	226.96
820.39	226.95
820.71	226.95
821.03	226.94
821.34	226.93
821.66	226.94
821.98	226.94
822.30	226.93
822.61	227.00
822.93	226.97
823.25	226.96
823.57	226.94
823.88	226.95
824.20	226.94
824.52	226.95
824.83	226.94
825.15	226.93
825.47	226.91
825.79	226.92
826.10	226.90
826.42	226.90
826.74	226.90
827.05	226.89
827.37	226.89
827.69	226.88
828.00	226.88
828.32	226.87
828.64	226.85
828.95	226.91
829.27	226.87
829.58	226.87
829.90	226.88
830.22	226.89
830.53	226.86
830.85	226.85
831.17	226.81
831.48	226.80
831.80	226.80
832.11	226.78
832.43	226.76
832.75	226.76
833.06	226.83
833.38	226.80
833.69	226.79
834.01	226.78
834.32	226.78
834.64	226.76
834.96	226.76
835.27	226.75
835.59	226.70
835.90	226.68
836.22	226.68
836.53	226.65
836.85	226.62
837.16	226.75
837.48	226.75
837.79	226.79
838.11	226.79
838.42	226.79
838.74	226.80
839.05	226.79
839.37	226.78
839.68	226.70
840.00	226.69
840.31	226.71
840.63	226.69
840.94	226.67
841.26	226.66
841.57	226.65
841.88	226.65
842.20	226.63
842.51	226.61
842.83	226.61
843.14	226.72
843.46	226.72
843.77	226.64
844.08	226.64
844.40	226.59
844.71	226.58
845.03	226.56
845.34	226.55
845.65	226.54
845.97	226.54
846.28	226.55
846.60	226.55
846.91	226.53
847.22	226.52
847.54	226.55
847.85	226.56
848.16	226.55
848.48	226.52
848.79	226.56
849.10	226.58
849.42	226.58
849.73	226.46
850.04	226.46
850.36	226.41
850.67	226.43
850.98	226.43
851.30	226.44
851.61	226.44
851.92	226.43
852.23	226.47
852.55	226.47
852.86	226.47
853.17	226.48
853.49	226.50
853.80	226.53
854.11	226.53
854.42	226.54
854.74	226.53
855.05	226.53
855.36	226.48
855.67	226.48
855.99	226.47
856.30	226.62
856.61	226.61
856.92	226.62
857.23	226.61
857.55	226.60
857.86	226.59
858.17	226.61
858.48	226.59
858.79	226.56
859.11	226.57
859.42	226.56
859.73	226.54
860.04	226.53
860.35	226.49
860.66	226.45
860.98	226.44
861.29	226.46
861.60	226.45
861.91	226.48
862.22	226.45
862.53	226.43
862.84	226.28
863.16	226.31
863.47	226.28
863.78	226.26
864.09	226.27
864.40	226.27
864.71	226.27
865.02	226.29
865.33	226.27
865.64	226.25
865.95	226.24
866.27	226.32
866.58	226.31
866.89	226.32
867.20	226.32
867.51	226.30
867.82	226.29
868.13	226.33
868.44	226.30
868.75	226.32
869.06	226.33
869.37	226.34
869.68	226.30
869.99	226.33
870.30	226.34
870.61	226.35
870.92	226.33
871.23	226.31
871.54	226.32
871.85	226.35
872.16	226.37
872.47	226.36
872.78	226.29
873.09	226.30
873.40	226.29
873.71	226.29
874.02	226.30
874.33	226.29
874.64	226.26
874.95	226.27
875.26	226.25
875.56	226.24
875.87	226.23
876.18	226.23
876.49	226.35
876.80	226.33
877.11	226.30
877.42	226.31
877.73	226.31
878.04	226.29
878.35	226.28
878.66	226.28
878.96	226.27
879.27	226.27
879.58	226.26
879.89	226.25
880.20	226.28
880.51	226.27
880.82	226.27
881.12	226.28
881.43	226.25
881.74	226.24
882.05	226.23
882.36	226.24
882.67	226.25
882.97	226.11
883.28	226.10
883.59	226.10
883.90	226.11
884.21	226.12
884.51	226.12
884.82	226.10
885.13	226.10
885.44	226.10
885.74	226.10
886.05	226.09
886.36	226.09
886.67	226.05
886.98	226.11
887.28	226.12
887.59	226.12
887.90	226.12
888.20	226.12
888.51	226.14
888.82	226.12
889.13	226.13
889.43	226.24
889.74	226.24
890.05	226.24
890.35	226.23
890.66	226.21
890.97	226.20
891.28	226.19
891.58	226.18
891.89	226.18
892.20	226.17
892.50	226.15
892.81	226.15
893.12	226.15
893.42	226.09
893.73	226.09
894.04	226.09
894.34	226.10
894.65	226.09
894.95	226.08
895.26	226.09
895.57	226.14
895.87	226.01
896.18	226.03
896.48	226.04
896.79	226.04
897.10	226.05
897.40	226.06
897.71	226.08
898.01	226.07
898.32	226.08
898.63	226.08
898.93	226.09
899.24	226.09
899.54	226.09
899.85	226.08
900.15	226.08
900.46	226.07
900.76	226.08
901.07	226.08
901.38	226.08
901.68	226.09
901.99	226.02
902.29	226.04
902.60	226.02
902.90	226.01
903.21	226.01
903.51	226.00
903.82	226.02
904.12	226.03
904.43	226.03
904.73	226.03
905.03	226.04
905.34	226.16
905.64	226.15
905.95	226.15
906.25	226.14
906.56	226.14
906.86	226.14
907.17	226.13
907.47	226.14
907.77	226.12
908.08	226.10
908.38	226.11
908.69	226.11
908.99	226.14
909.30	226.15
909.60	226.14
909.90	226.15
910.21	226.12
910.51	226.10
910.81	226.10
911.12	226.10
911.42	226.10
911.73	225.97
912.03	225.98
912.33	226.01
912.64	226.00
912.94	225.99
913.24	225.97
913.55	225.96
913.85	225.95
914.15	225.97
914.46	225.99
914.76	225.98
915.06	225.97
915.37	225.95
915.67	225.94
915.97	225.94
916.27	225.91
916.58	225.92
916.88	225.92
917.18	225.90
917.49	225.99
917.79	225.98
918.09	226.00
918.39	226.03
918.70	226.01
919.00	226.02
919.30	226.08
919.60	226.08
919.91	226.07
920.21	226.07
920.51	226.04
920.81	226.03
921.12	226.05
921.42	226.05
921.72	226.06
922.02	226.07
922.32	226.08
922.63	226.09
922.93	226.16
923.23	226.16
923.53	226.15
923.83	226.07
924.13	226.08
924.44	226.08
924.74	226.10
925.04	226.12
925.34	226.12
925.64	226.06
925.94	226.06
926.24	226.14
926.55	226.12
926.85	226.14
927.15	226.14
927.45	226.13
927.75	226.13
928.05	226.13
928.35	226.12
928.65	226.13
928.95	226.14
929.26	226.08
929.56	226.10
929.86	226.12
930.16	226.10
930.46	226.09
930.76	226.09
931.06	226.03
931.36	226.00
931.66	226.02
931.96	226.04
932.26	226.05
932.56	225.99
932.86	226.00
933.16	226.00
933.46	225.99
933.76	225.97
934.06	225.99
934.36	226.03
934.66	226.03
934.96	226.01
935.26	226.01
935.56	226.03
935.86	225.99
936.16	225.98
936.46	225.97
936.76	225.97
937.06	225.95
937.36	225.96
937.66	225.96
937.96	225.95
938.26	225.92
938.56	225.92
938.86	225.93
939.16	225.96
939.46	225.97
939.76	225.98
940.06	225.98
940.35	225.95
940.65	225.89
940.95	225.90
941.25	225.87
941.55	225.86
941.85	225.85
942.15	225.88
942.45	225.91
942.75	225.91
943.04	225.91
943.34	225.93
943.64	225.92
943.94	225.90
944.24	225.90
944.54	225.91
944.84	225.90
945.13	225.88
945.43	225.86
945.73	225.85
946.03	225.84
946.33	225.82
946.62	225.81
946.92	225.81
947.22	225.81
947.52	225.82
947.82	225.84
948.11	225.83
948.41	225.80
948.71	225.77
949.01	225.77
949.31	225.77
949.60	225.75
949.90	225.78
950.20	225.78
950.50	225.77
950.79	225.76
951.09	225.78
951.39	225.78
951.69	225.77
951.98	225.79
952.28	225.80
952.58	225.80
952.87	225.80
953.17	225.82
953.47	225.81
953.76	225.81
954.06	225.78
954.36	225.77
954.66	225.77
954.95	225.80
955.25	225.81
955.55	225.82
955.84	225.80
956.14	225.80
956.44	225.82
956.73	225.80
957.03	225.81
957.32	225.81
957.62	225.80
957.92	225.83
958.21	225.81
958.51	225.95
958.81	225.97
959.10	225.98
959.40	226.00
959.69	226.01
959.99	226.03
960.29	226.03
960.58	226.03
960.88	226.08
961.17	226.06
961.47	226.07
961.76	226.06
962.06	226.08
962.36	226.06
962.65	226.07
962.95	226.08
963.24	226.07
963.54	226.07
963.83	226.08
964.13	226.07
964.42	226.05
964.72	225.95
965.01	225.95
965.31	225.94
965.60	225.91
965.90	225.98
966.19	225.95
966.49	225.96
966.78	225.96
967.08	225.94
967.37	225.94
967.67	225.92
967.96	225.94
968.26	225.93
968.55	225.95
968.85	225.94
969.14	225.94
969.43	225.94
969.73	225.93
970.02	225.93
970.32	225.92
970.61	225.90
970.91	225.86
971.20	225.84
971.49	225.84
971.79	225.85
972.08	225.77
972.38	225.78
972.67	225.77
972.96	225.79
973.26	225.77
973.55	225.80
973.85	225.80
974.14	225.78
974.43	225.79
974.73	225.77
975.02	225.76
975.31	225.76
975.61	225.75
975.90	225.74
976.19	225.73
976.49	225.74
976.78	225.75
977.07	225.75
977.37	225.76
977.66	225.77
977.95	225.76
978.24	225.77
978.54	225.79
978.83	225.78
979.12	225.77
979.42	225.77
979.71	225.74
980.00	225.74
980.29	225.75
980.59	225.73
980.88	225.76
981.17	225.76
981.46	225.76
981.76	225.76
982.05	225.80
982.34	225.81
982.63	225.81
982.93	225.81
983.22	225.84
983.51	225.84
983.80	225.86
984.09	225.87
984.39	225.87
984.68	225.85
984.97	225.86
985.26	225.85
985.55	225.86
985.85	225.84
986.14	225.86
986.43	225.87
986.72	225.86
987.01	225.82
987.30	225.82
987.59	225.81
987.89	225.82
988.18	225.78
988.47	225.76
988.76	225.76
989.05	225.74
989.34	225.73
989.63	225.76
989.92	225.74
990.22	225.72
990.51	225.72
990.80	225.71
991.09	225.72
991.38	225.74
991.67	225.72
991.96	225.72
992.25	225.72
992.54	225.69
992.83	225.70
993.12	225.69
993.41	225.71
993.70	225.77
993.99	225.79
994.28	225.81
994.58	225.82
994.87	225.81
995.16	225.81
995.45	225.80
995.74	225.75
996.03	225.76
996.32	225.79
996.61	225.81
996.90	225.81
997.19	225.80
997.48	225.80
997.77	225.79
998.06	225.79
998.34	225.78
998.63	225.78
998.92	225.79
999.21	225.81
999.50	225.81
999.79	225.76
1000.08	225.76
1000.37	225.76
1000.66	225.74
1000.95	225.78
1001.24	225.79
1001.53	225.81
1001.82	225.80
1002.11	225.78
1002.40	225.78
1002.68	225.81
1002.97	225.90
1003.26	225.89
1003.55	225.86
1003.84	225.88
1004.13	225.92
1004.42	225.92
1004.71	225.92
1004.99	225.91
1005.28	225.93
1005.57	225.92
1005.86	225.91
1006.15	225.90
1006.44	225.88
1006.72	225.90
1007.01	225.88
1007.30	225.88
1007.59	225.86
1007.88	225.86
1008.17	225.87
1008.45	225.84
1008.74	225.79
1009.03	225.73
1009.32	225.73
1009.60	225.73
1009.89	225.72
1010.18	225.67
1010.47	225.67
1010.76	225.67
1011.04	225.66
1011.33	225.66
1011.62	225.67
1011.91	225.68
1012.19	225.69
1012.48	225.69
1012.77	225.69
1013.05	225.73
1013.34	225.73
1013.63	225.73
1013.92	225.74
1014.20	225.73
1014.49	225.74
1014.78	225.76
1015.06	225.72
1015.35	225.72
1015.64	225.74
1015.92	225.76
1016.21	225.77
1016.50	225.77
1016.78	225.78
1017.07	225.80
1017.36	225.78
1017.64	225.76
1017.93	225.77
1018.22	225.76
1018.50	225.75
1018.79	225.75
1019.08	225.70
1019.36	225.71
1019.65	225.70
1019.93	225.73
1020.22	225.75
1020.51	225.81
1020.79	225.80
1021.08	225.57
1021.36	225.52
1021.65	225.72
1021.94	225.69
1022.22	225.82
1022.51	225.54
1022.79	226.38
1023.08	225.88
1023.36	227.26
1023.65	225.48
>>>>>End Processed Spectral Data<<<<<
