SpectraSuite Data File
++++++++++++++++++++++++++++++++++++
Date: Fri Oct 02 15:56:52 EDT 2015
User: lab3
Dark Spectrum Present: No
Reference Spectrum Present: No
Number of Sampled Component Spectra: 1
Spectrometers: USB2E7196
Integration Time (usec): 46000 (USB2E7196)
Spectra Averaged: 1200 (USB2E7196)
Boxcar Smoothing: 10 (USB2E7196)
Correct for Electrical Dark: No (USB2E7196)
Strobe/Lamp Enabled: No (USB2E7196)
Correct for Detector Non-linearity: No (USB2E7196)
Correct for Stray Light: No (USB2E7196)
Number of Pixels in Processed Spectrum: 2048
>>>>>Begin Processed Spectral Data<<<<<
339.09	0.00
339.48	214.32
339.86	215.72
340.24	217.03
340.63	218.63
341.01	221.84
341.39	221.55
341.78	222.65
342.16	223.97
342.54	224.39
342.93	212.77
343.31	223.52
343.69	224.05
344.07	224.52
344.46	224.96
344.84	225.34
345.22	225.57
345.60	225.80
345.99	226.00
346.37	226.14
346.75	226.24
347.13	226.31
347.52	226.38
347.90	226.46
348.28	226.50
348.66	226.55
349.05	226.55
349.43	226.61
349.81	226.66
350.19	226.72
350.57	226.78
350.96	226.86
351.34	226.95
351.72	227.05
352.10	227.16
352.48	227.23
352.87	227.29
353.25	227.34
353.63	227.41
354.01	227.47
354.39	227.54
354.77	227.61
355.15	227.72
355.54	227.77
355.92	227.80
356.30	227.88
356.68	228.02
357.06	228.08
357.44	228.13
357.82	228.19
358.20	228.30
358.58	228.36
358.97	228.43
359.35	228.50
359.73	228.58
360.11	228.62
360.49	228.68
360.87	228.72
361.25	228.78
361.63	228.87
362.01	228.92
362.39	228.94
362.77	228.99
363.15	229.01
363.53	229.03
363.91	229.06
364.29	229.08
364.67	228.98
365.05	229.01
365.43	229.05
365.81	229.08
366.19	229.10
366.57	229.16
366.95	229.15
367.33	229.12
367.71	229.13
368.09	229.14
368.47	229.13
368.85	229.13
369.23	229.14
369.61	229.08
369.99	229.11
370.37	229.11
370.75	229.18
371.13	229.15
371.51	229.12
371.89	229.10
372.27	229.07
372.65	229.06
373.03	229.02
373.41	228.96
373.78	228.91
374.16	228.80
374.54	228.71
374.92	228.67
375.30	228.63
375.68	228.55
376.06	228.51
376.44	228.45
376.82	228.40
377.19	228.36
377.57	228.32
377.95	228.21
378.33	228.15
378.71	227.99
379.09	227.95
379.47	227.91
379.84	227.86
380.22	227.79
380.60	227.71
380.98	227.65
381.36	227.61
381.73	227.54
382.11	227.52
382.49	227.49
382.87	227.43
383.25	227.39
383.62	227.49
384.00	227.42
384.38	227.38
384.76	227.38
385.13	227.37
385.51	227.33
385.89	227.29
386.27	227.26
386.64	227.25
387.02	227.20
387.40	227.16
387.78	227.14
388.15	227.12
388.53	227.09
388.91	227.07
389.29	227.04
389.66	227.04
390.04	227.00
390.42	226.99
390.79	226.98
391.17	226.95
391.55	226.80
391.92	226.79
392.30	226.80
392.68	226.75
393.05	226.72
393.43	226.72
393.81	226.72
394.18	226.70
394.56	226.70
394.94	226.73
395.31	226.72
395.69	226.76
396.06	226.79
396.44	226.81
396.82	226.83
397.19	226.91
397.57	226.92
397.95	226.97
398.32	226.96
398.70	227.00
399.07	227.07
399.45	227.10
399.82	227.13
400.20	227.17
400.58	227.23
400.95	227.24
401.33	227.32
401.70	227.47
402.08	227.58
402.45	227.67
402.83	227.78
403.20	227.90
403.58	227.98
403.95	228.12
404.33	228.27
404.71	228.40
405.08	228.61
405.46	228.77
405.83	228.97
406.21	229.16
406.58	229.38
406.96	229.59
407.33	229.85
407.70	230.12
408.08	230.51
408.45	230.85
408.83	231.21
409.20	231.54
409.58	231.83
409.95	232.24
410.33	232.66
410.70	233.08
411.08	233.57
411.45	234.08
411.82	234.62
412.20	235.21
412.57	235.93
412.95	236.49
413.32	237.23
413.69	237.97
414.07	238.77
414.44	239.64
414.82	240.52
415.19	241.54
415.56	242.60
415.94	243.67
416.31	244.89
416.68	246.11
417.06	247.53
417.43	248.86
417.81	250.39
418.18	251.96
418.55	253.66
418.93	255.42
419.30	257.28
419.67	259.23
420.04	261.24
420.42	263.33
420.79	265.77
421.16	268.21
421.54	270.70
421.91	273.30
422.28	276.00
422.66	278.91
423.03	281.71
423.40	284.62
423.77	287.76
424.15	290.97
424.52	294.33
424.89	297.94
425.26	301.54
425.64	304.88
426.01	308.63
426.38	312.47
426.75	316.45
427.13	320.51
427.50	324.79
427.87	329.23
428.24	333.71
428.61	338.02
428.99	342.67
429.36	347.78
429.73	352.67
430.10	357.56
430.47	362.58
430.85	367.76
431.22	373.32
431.59	379.02
431.96	384.58
432.33	390.77
432.70	396.67
433.08	403.63
433.45	410.22
433.82	416.71
434.19	423.98
434.56	431.11
434.93	438.01
435.30	444.85
435.68	452.58
436.05	460.17
436.42	467.69
436.79	474.61
437.16	482.04
437.53	490.00
437.90	498.00
438.27	505.81
438.64	514.20
439.01	521.82
439.38	528.81
439.75	535.51
440.13	543.07
440.50	550.25
440.87	555.95
441.24	562.18
441.61	568.99
441.98	573.89
442.35	579.75
442.72	585.71
443.09	591.35
443.46	594.87
443.83	597.41
444.20	599.53
444.57	602.70
444.94	604.45
445.31	606.24
445.68	607.70
446.05	608.70
446.42	608.10
446.79	607.30
447.16	606.55
447.53	605.85
447.90	603.16
448.27	600.59
448.64	596.85
449.01	594.15
449.37	589.03
449.74	584.40
450.11	578.52
450.48	572.09
450.85	565.68
451.22	560.21
451.59	554.87
451.96	550.01
452.33	543.06
452.70	536.89
453.07	529.38
453.43	521.94
453.80	514.73
454.17	507.86
454.54	501.51
454.91	494.39
455.28	487.72
455.65	481.45
456.02	474.84
456.38	469.50
456.75	462.66
457.12	457.16
457.49	451.64
457.86	446.42
458.23	441.89
458.59	436.86
458.96	431.70
459.33	427.18
459.70	422.57
460.07	419.08
460.43	414.98
460.80	411.17
461.17	407.84
461.54	404.23
461.91	400.86
462.27	397.45
462.64	394.71
463.01	391.54
463.38	388.35
463.74	385.49
464.11	382.95
464.48	380.69
464.85	378.23
465.21	376.38
465.58	374.32
465.95	371.91
466.32	370.02
466.68	368.13
467.05	366.25
467.42	364.42
467.78	362.44
468.15	360.60
468.52	359.28
468.88	357.48
469.25	355.85
469.62	354.55
469.98	353.13
470.35	351.87
470.72	350.72
471.08	349.57
471.45	348.58
471.82	347.50
472.18	346.35
472.55	345.60
472.92	344.65
473.28	343.90
473.65	343.11
474.02	342.37
474.38	341.75
474.75	341.39
475.11	340.87
475.48	340.65
475.85	340.39
476.21	340.27
476.58	340.19
476.94	340.34
477.31	340.42
477.67	340.52
478.04	340.74
478.41	341.05
478.77	341.49
479.14	341.76
479.50	342.29
479.87	342.96
480.23	343.64
480.60	344.30
480.96	344.99
481.33	345.99
481.69	346.97
482.06	347.96
482.42	348.87
482.79	349.99
483.15	351.29
483.52	352.78
483.88	354.20
484.25	355.71
484.61	357.29
484.98	359.00
485.34	360.93
485.71	362.93
486.07	365.09
486.44	367.23
486.80	369.63
487.17	372.11
487.53	374.83
487.90	377.67
488.26	380.77
488.62	384.03
488.99	387.29
489.35	390.71
489.72	394.43
490.08	398.33
490.44	402.38
490.81	406.60
491.17	410.90
491.54	415.53
491.90	420.33
492.26	425.45
492.63	430.82
492.99	436.41
493.36	442.19
493.72	448.26
494.08	454.51
494.45	461.13
494.81	468.00
495.17	475.02
495.54	482.45
495.90	490.19
496.26	498.10
496.63	506.29
496.99	514.80
497.35	523.66
497.72	532.84
498.08	542.23
498.44	551.93
498.80	562.19
499.17	572.72
499.53	583.59
499.89	594.80
500.26	606.20
500.62	617.89
500.98	630.25
501.34	642.76
501.71	655.80
502.07	668.98
502.43	682.67
502.79	696.66
503.16	711.08
503.52	725.73
503.88	740.79
504.24	756.29
504.60	771.98
504.97	788.13
505.33	804.64
505.69	822.08
506.05	839.78
506.41	857.45
506.78	875.29
507.14	893.61
507.50	912.42
507.86	931.54
508.22	950.90
508.59	970.09
508.95	990.12
509.31	1010.80
509.67	1032.21
510.03	1053.60
510.39	1074.99
510.75	1096.63
511.12	1118.50
511.48	1140.45
511.84	1162.50
512.20	1184.87
512.56	1208.08
512.92	1231.34
513.28	1254.18
513.64	1277.20
514.00	1300.59
514.37	1324.30
514.73	1348.09
515.09	1371.67
515.45	1395.56
515.81	1419.63
516.17	1443.70
516.53	1467.29
516.89	1490.78
517.25	1514.49
517.61	1538.09
517.97	1562.08
518.33	1585.36
518.69	1608.59
519.05	1632.36
519.41	1656.25
519.77	1680.39
520.13	1703.80
520.49	1727.06
520.85	1750.61
521.21	1773.88
521.57	1797.57
521.93	1820.68
522.29	1844.20
522.65	1867.15
523.01	1890.04
523.37	1912.46
523.73	1935.69
524.09	1958.55
524.45	1981.21
524.81	2003.29
525.17	2025.12
525.53	2046.48
525.89	2068.45
526.25	2090.38
526.61	2111.33
526.97	2132.35
527.33	2153.15
527.68	2173.65
528.04	2193.47
528.40	2212.32
528.76	2231.23
529.12	2249.49
529.48	2267.65
529.84	2283.90
530.20	2300.84
530.56	2317.20
530.91	2333.71
531.27	2349.75
531.63	2364.97
531.99	2379.77
532.35	2394.05
532.71	2408.37
533.07	2423.08
533.42	2435.83
533.78	2449.65
534.14	2463.68
534.50	2476.77
534.86	2489.72
535.21	2500.84
535.57	2512.43
535.93	2523.79
536.29	2534.01
536.65	2544.24
537.00	2553.58
537.36	2564.03
537.72	2573.04
538.08	2581.47
538.44	2589.30
538.79	2596.76
539.15	2603.45
539.51	2609.70
539.87	2615.18
540.22	2619.07
540.58	2622.93
540.94	2628.22
541.29	2631.82
541.65	2633.60
542.01	2634.87
542.37	2635.46
542.72	2637.21
543.08	2637.42
543.44	2638.13
543.79	2637.97
544.15	2636.92
544.51	2636.16
544.87	2634.18
545.22	2631.51
545.58	2628.24
545.94	2624.91
546.29	2620.40
546.65	2616.00
547.01	2611.50
547.36	2607.67
547.72	2603.66
548.07	2598.43
548.43	2591.79
548.79	2584.16
549.14	2577.74
549.50	2571.55
549.86	2564.39
550.21	2556.39
550.57	2549.04
550.92	2539.65
551.28	2530.83
551.64	2522.26
551.99	2513.36
552.35	2503.99
552.70	2494.92
553.06	2486.37
553.41	2477.24
553.77	2467.79
554.13	2458.02
554.48	2447.67
554.84	2436.21
555.19	2425.38
555.55	2414.36
555.90	2403.32
556.26	2392.77
556.61	2381.33
556.97	2368.49
557.32	2356.27
557.68	2343.66
558.03	2331.07
558.39	2319.55
558.74	2308.22
559.10	2295.47
559.45	2282.83
559.81	2270.77
560.16	2258.28
560.52	2245.72
560.87	2233.41
561.23	2220.41
561.58	2207.80
561.94	2194.71
562.29	2181.22
562.64	2168.36
563.00	2155.17
563.35	2142.56
563.71	2129.75
564.06	2116.81
564.42	2104.35
564.77	2091.39
565.12	2078.63
565.48	2065.77
565.83	2052.92
566.19	2040.26
566.54	2027.39
566.89	2013.71
567.25	2000.16
567.60	1987.58
567.96	1974.50
568.31	1960.13
568.66	1946.50
569.02	1933.85
569.37	1921.14
569.72	1908.94
570.08	1895.51
570.43	1881.78
570.78	1867.68
571.14	1853.21
571.49	1839.39
571.84	1826.14
572.20	1811.86
572.55	1797.72
572.90	1783.43
573.26	1769.13
573.61	1754.32
573.96	1740.02
574.31	1725.82
574.67	1711.76
575.02	1696.87
575.37	1681.78
575.72	1667.78
576.08	1654.07
576.43	1639.37
576.78	1625.05
577.13	1611.02
577.49	1597.50
577.84	1584.53
578.19	1570.76
578.54	1557.08
578.90	1542.97
579.25	1528.78
579.60	1515.90
579.95	1502.99
580.30	1489.88
580.66	1476.55
581.01	1463.17
581.36	1449.88
581.71	1437.55
582.06	1424.96
582.42	1412.66
582.77	1400.56
583.12	1388.33
583.47	1375.93
583.82	1363.69
584.17	1351.19
584.53	1338.33
584.88	1325.70
585.23	1312.76
585.58	1300.67
585.93	1288.77
586.28	1277.46
586.63	1266.10
586.98	1254.39
587.34	1242.74
587.69	1230.96
588.04	1219.56
588.39	1208.57
588.74	1197.64
589.09	1186.52
589.44	1175.06
589.79	1164.11
590.14	1153.29
590.49	1142.35
590.84	1131.59
591.19	1121.09
591.54	1110.47
591.89	1100.06
592.25	1089.85
592.60	1079.32
592.95	1069.05
593.30	1058.99
593.65	1048.79
594.00	1038.61
594.35	1029.06
594.70	1019.13
595.05	1009.98
595.40	1000.74
595.75	991.32
596.10	982.31
596.45	973.10
596.80	964.22
597.15	955.19
597.50	946.27
597.85	937.77
598.19	929.10
598.54	920.51
598.89	912.27
599.24	904.27
599.59	896.17
599.94	888.91
600.29	881.47
600.64	873.77
600.99	865.71
601.34	858.08
601.69	850.06
602.04	842.63
602.39	835.12
602.74	827.63
603.08	820.14
603.43	812.65
603.78	805.28
604.13	798.09
604.48	790.84
604.83	783.78
605.18	776.58
605.53	769.63
605.87	762.56
606.22	755.79
606.57	748.92
606.92	741.93
607.27	734.95
607.62	728.31
607.96	722.00
608.31	716.03
608.66	709.87
609.01	704.02
609.36	698.27
609.70	692.25
610.05	686.26
610.40	680.50
610.75	674.77
611.10	669.34
611.44	663.77
611.79	658.28
612.14	652.74
612.49	647.32
612.83	642.08
613.18	636.94
613.53	631.73
613.88	626.60
614.22	621.85
614.57	616.98
614.92	611.94
615.27	607.00
615.61	602.17
615.96	597.43
616.31	592.63
616.65	587.94
617.00	583.43
617.35	578.97
617.70	574.59
618.04	570.29
618.39	565.94
618.74	561.77
619.08	557.65
619.43	553.62
619.78	549.62
620.12	545.60
620.47	541.74
620.82	537.96
621.16	534.19
621.51	530.37
621.85	526.60
622.20	522.98
622.55	519.38
622.89	515.80
623.24	512.25
623.59	508.73
623.93	505.30
624.28	501.96
624.62	498.77
624.97	495.59
625.32	492.35
625.66	489.08
626.01	485.78
626.35	482.56
626.70	479.36
627.04	476.36
627.39	473.27
627.73	470.33
628.08	467.46
628.43	464.59
628.77	461.79
629.12	459.09
629.46	456.40
629.81	453.68
630.15	450.97
630.50	448.30
630.84	445.72
631.19	443.20
631.53	440.77
631.88	438.27
632.22	435.79
632.57	433.60
632.91	431.39
633.26	429.28
633.60	427.19
633.95	425.17
634.29	423.05
634.64	420.98
634.98	418.74
635.32	416.68
635.67	414.76
636.01	412.74
636.36	410.76
636.70	408.93
637.05	407.08
637.39	405.28
637.73	403.51
638.08	401.82
638.42	400.12
638.77	398.30
639.11	396.43
639.45	394.65
639.80	392.80
640.14	391.06
640.49	389.30
640.83	387.49
641.17	385.75
641.52	384.07
641.86	382.40
642.20	380.94
642.55	379.29
642.89	377.70
643.23	376.18
643.58	374.82
643.92	373.32
644.26	371.87
644.61	370.46
644.95	368.99
645.29	367.47
645.64	365.96
645.98	364.54
646.32	363.25
646.66	361.89
647.01	360.56
647.35	359.29
647.69	358.01
648.04	356.86
648.38	355.63
648.72	354.41
649.06	353.19
649.41	351.96
649.75	350.81
650.09	349.64
650.43	348.49
650.78	347.27
651.12	346.11
651.46	344.99
651.80	343.87
652.14	342.80
652.49	341.81
652.83	340.78
653.17	339.75
653.51	338.76
653.85	337.84
654.20	336.85
654.54	335.79
654.88	334.82
655.22	333.86
655.56	332.90
655.90	331.98
656.25	331.12
656.59	330.21
656.93	329.35
657.27	328.52
657.61	327.63
657.95	326.78
658.29	325.90
658.64	325.08
658.98	324.27
659.32	323.45
659.66	322.68
660.00	321.92
660.34	321.19
660.68	320.41
661.02	319.59
661.36	318.81
661.70	318.06
662.05	317.31
662.39	316.58
662.73	315.92
663.07	315.27
663.41	314.57
663.75	313.86
664.09	313.16
664.43	312.42
664.77	311.74
665.11	311.03
665.45	310.40
665.79	309.77
666.13	309.09
666.47	308.40
666.81	307.69
667.15	306.94
667.49	306.30
667.83	305.70
668.17	305.08
668.51	304.50
668.85	303.96
669.19	303.44
669.53	302.83
669.87	302.19
670.21	301.55
670.55	300.96
670.89	300.46
671.23	299.91
671.57	299.38
671.91	298.89
672.25	298.42
672.58	297.93
672.92	297.35
673.26	296.89
673.60	296.42
673.94	295.96
674.28	295.54
674.62	295.07
674.96	294.56
675.30	294.10
675.64	293.61
675.97	293.10
676.31	292.57
676.65	292.08
676.99	291.67
677.33	291.18
677.67	290.72
678.01	290.19
678.34	289.72
678.68	289.29
679.02	288.79
679.36	288.31
679.70	287.84
680.04	287.41
680.37	286.95
680.71	286.51
681.05	286.09
681.39	285.62
681.73	285.13
682.06	284.66
682.40	284.22
682.74	283.82
683.08	283.46
683.42	283.03
683.75	282.64
684.09	282.17
684.43	281.76
684.77	281.34
685.10	280.97
685.44	280.57
685.78	280.16
686.12	279.77
686.45	279.37
686.79	278.95
687.13	278.55
687.46	278.13
687.80	277.74
688.14	277.29
688.48	276.90
688.81	276.50
689.15	276.15
689.49	275.75
689.82	275.34
690.16	274.87
690.50	274.50
690.83	274.10
691.17	273.69
691.51	273.32
691.84	272.95
692.18	272.54
692.52	272.14
692.85	271.74
693.19	271.40
693.52	271.02
693.86	270.63
694.20	270.25
694.53	269.89
694.87	269.50
695.21	269.12
695.54	268.74
695.88	268.37
696.21	267.95
696.55	267.58
696.88	267.22
697.22	266.86
697.56	266.49
697.89	266.10
698.23	265.74
698.56	265.35
698.90	265.00
699.23	264.62
699.57	264.24
699.90	263.87
700.24	263.50
700.58	263.18
700.91	262.88
701.25	262.66
701.58	262.39
701.92	262.10
702.25	261.79
702.59	261.46
702.92	261.14
703.26	260.82
703.59	260.48
703.93	260.25
704.26	259.94
704.60	259.63
704.93	259.31
705.26	259.00
705.60	258.73
705.93	258.39
706.27	258.12
706.60	257.87
706.94	257.63
707.27	257.29
707.61	256.97
707.94	256.64
708.27	256.20
708.61	255.86
708.94	255.55
709.28	255.26
709.61	254.95
709.94	254.68
710.28	254.42
710.61	254.19
710.95	253.83
711.28	253.63
711.61	253.37
711.95	253.15
712.28	252.88
712.61	252.60
712.95	252.43
713.28	252.24
713.61	251.95
713.95	251.67
714.28	251.45
714.61	251.20
714.95	250.96
715.28	250.74
715.61	250.50
715.95	250.27
716.28	250.03
716.61	249.85
716.95	249.60
717.28	249.37
717.61	249.13
717.94	248.90
718.28	248.59
718.61	248.35
718.94	248.10
719.27	247.88
719.61	247.69
719.94	247.44
720.27	247.14
720.60	246.93
720.94	246.72
721.27	246.50
721.60	246.32
721.93	246.12
722.27	245.96
722.60	245.78
722.93	245.56
723.26	245.38
723.59	245.14
723.93	244.96
724.26	244.78
724.59	244.59
724.92	244.43
725.25	244.30
725.59	244.13
725.92	243.99
726.25	243.82
726.58	243.65
726.91	243.47
727.24	243.32
727.57	243.16
727.91	242.98
728.24	242.85
728.57	242.68
728.90	242.53
729.23	242.34
729.56	242.21
729.89	242.06
730.22	241.89
730.55	241.75
730.89	241.60
731.22	241.46
731.55	241.30
731.88	241.15
732.21	240.97
732.54	240.81
732.87	240.66
733.20	240.53
733.53	240.39
733.86	240.26
734.19	240.11
734.52	240.00
734.85	239.95
735.18	239.78
735.51	239.68
735.84	239.56
736.17	239.46
736.50	239.28
736.83	239.30
737.16	239.19
737.49	239.07
737.82	238.94
738.15	238.84
738.48	238.72
738.81	238.59
739.14	238.47
739.47	238.35
739.80	238.23
740.13	238.11
740.46	237.98
740.79	237.85
741.12	237.73
741.45	237.58
741.78	237.38
742.11	237.30
742.44	237.15
742.77	237.06
743.10	236.93
743.43	236.82
743.75	236.58
744.08	236.67
744.41	236.55
744.74	236.43
745.07	236.29
745.40	236.20
745.73	236.15
746.06	236.06
746.39	235.98
746.71	235.88
747.04	235.77
747.37	235.66
747.70	235.59
748.03	235.51
748.36	235.44
748.68	235.36
749.01	235.24
749.34	235.15
749.67	235.06
750.00	234.99
750.33	234.99
750.65	234.91
750.98	234.64
751.31	234.56
751.64	234.48
751.97	234.47
752.29	234.38
752.62	234.23
752.95	234.15
753.28	234.05
753.60	233.95
753.93	233.90
754.26	233.84
754.59	233.71
754.91	233.61
755.24	233.51
755.57	233.48
755.90	233.40
756.22	233.31
756.55	233.21
756.88	233.11
757.20	232.94
757.53	232.83
757.86	232.75
758.19	232.68
758.51	232.61
758.84	232.47
759.17	232.38
759.49	232.33
759.82	232.32
760.15	232.28
760.47	232.21
760.80	232.11
761.13	232.06
761.45	232.01
761.78	231.95
762.11	231.90
762.43	231.77
762.76	231.72
763.08	231.67
763.41	231.62
763.74	231.58
764.06	231.52
764.39	231.48
764.71	231.41
765.04	231.35
765.37	231.28
765.69	231.23
766.02	231.18
766.34	231.12
766.67	231.02
767.00	230.97
767.32	231.00
767.65	231.02
767.97	230.95
768.30	230.91
768.62	230.86
768.95	230.80
769.27	230.75
769.60	230.72
769.92	230.65
770.25	230.58
770.57	230.51
770.90	230.47
771.22	230.41
771.55	230.36
771.87	230.33
772.20	230.29
772.52	230.35
772.85	230.46
773.17	230.42
773.50	230.38
773.82	230.32
774.15	230.21
774.47	230.10
774.80	230.06
775.12	230.02
775.45	229.99
775.77	229.97
776.09	229.95
776.42	229.91
776.74	229.92
777.07	229.89
777.39	229.86
777.72	229.81
778.04	229.80
778.36	229.76
778.69	229.73
779.01	229.70
779.33	229.57
779.66	229.39
779.98	229.35
780.31	229.32
780.63	229.34
780.95	229.34
781.28	229.31
781.60	229.27
781.92	229.24
782.25	229.22
782.57	229.19
782.89	229.16
783.22	229.12
783.54	229.07
783.86	229.05
784.19	229.01
784.51	229.03
784.83	228.98
785.16	228.96
785.48	228.95
785.80	228.93
786.12	228.92
786.45	228.90
786.77	228.89
787.09	228.86
787.42	228.79
787.74	228.77
788.06	228.75
788.38	228.73
788.71	228.70
789.03	228.68
789.35	228.68
789.67	228.64
789.99	228.62
790.32	228.58
790.64	228.58
790.96	228.68
791.28	228.62
791.61	228.60
791.93	228.59
792.25	228.56
792.57	228.62
792.89	228.58
793.21	228.58
793.54	228.54
793.86	228.52
794.18	228.52
794.50	228.48
794.82	228.46
795.14	228.46
795.47	228.46
795.79	228.44
796.11	228.39
796.43	228.37
796.75	228.36
797.07	228.36
797.39	228.34
797.71	228.22
798.04	228.21
798.36	228.20
798.68	228.19
799.00	228.19
799.32	228.12
799.64	228.13
799.96	228.11
800.28	228.12
800.60	228.11
800.92	228.10
801.24	228.08
801.56	228.08
801.89	228.05
802.21	228.05
802.53	228.02
802.85	228.04
803.17	228.09
803.49	228.04
803.81	228.03
804.13	228.00
804.45	227.98
804.77	227.97
805.09	227.97
805.41	227.94
805.73	227.90
806.05	227.85
806.37	227.82
806.69	227.80
807.01	227.77
807.33	227.77
807.65	227.71
807.97	227.75
808.28	227.72
808.60	227.70
808.92	227.68
809.24	227.75
809.56	227.71
809.88	227.65
810.20	227.66
810.52	227.66
810.84	227.64
811.16	227.61
811.48	227.59
811.80	227.62
812.12	227.61
812.43	227.63
812.75	227.63
813.07	227.61
813.39	227.61
813.71	227.58
814.03	227.55
814.35	227.55
814.67	227.50
814.98	227.48
815.30	227.47
815.62	227.44
815.94	227.34
816.26	227.35
816.58	227.32
816.89	227.31
817.21	227.26
817.53	227.26
817.85	227.26
818.17	227.24
818.48	227.18
818.80	227.19
819.12	227.16
819.44	227.13
819.76	227.09
820.07	227.08
820.39	227.07
820.71	227.08
821.03	227.06
821.34	227.03
821.66	227.04
821.98	227.04
822.30	227.05
822.61	227.10
822.93	227.08
823.25	227.07
823.57	227.05
823.88	227.07
824.20	227.06
824.52	227.07
824.83	227.06
825.15	227.05
825.47	227.03
825.79	227.03
826.10	227.02
826.42	227.02
826.74	227.03
827.05	227.03
827.37	227.01
827.69	227.01
828.00	227.01
828.32	227.00
828.64	226.98
828.95	227.02
829.27	226.98
829.58	226.97
829.90	226.99
830.22	226.98
830.53	226.95
830.85	226.93
831.17	226.88
831.48	226.88
831.80	226.87
832.11	226.86
832.43	226.85
832.75	226.84
833.06	226.91
833.38	226.87
833.69	226.86
834.01	226.86
834.32	226.85
834.64	226.83
834.96	226.83
835.27	226.83
835.59	226.79
835.90	226.76
836.22	226.76
836.53	226.73
836.85	226.71
837.16	226.84
837.48	226.84
837.79	226.89
838.11	226.89
838.42	226.88
838.74	226.89
839.05	226.88
839.37	226.88
839.68	226.79
840.00	226.78
840.31	226.80
840.63	226.78
840.94	226.77
841.26	226.75
841.57	226.75
841.88	226.75
842.20	226.74
842.51	226.73
842.83	226.72
843.14	226.84
843.46	226.84
843.77	226.76
844.08	226.76
844.40	226.71
844.71	226.70
845.03	226.68
845.34	226.66
845.65	226.67
845.97	226.66
846.28	226.67
846.60	226.69
846.91	226.67
847.22	226.67
847.54	226.70
847.85	226.71
848.16	226.69
848.48	226.67
848.79	226.72
849.10	226.73
849.42	226.74
849.73	226.63
850.04	226.63
850.36	226.58
850.67	226.60
850.98	226.59
851.30	226.61
851.61	226.61
851.92	226.61
852.23	226.64
852.55	226.65
852.86	226.66
853.17	226.66
853.49	226.69
853.80	226.71
854.11	226.71
854.42	226.73
854.74	226.71
855.05	226.71
855.36	226.64
855.67	226.63
855.99	226.64
856.30	226.78
856.61	226.77
856.92	226.77
857.23	226.77
857.55	226.76
857.86	226.75
858.17	226.77
858.48	226.76
858.79	226.73
859.11	226.73
859.42	226.73
859.73	226.69
860.04	226.68
860.35	226.65
860.66	226.61
860.98	226.61
861.29	226.63
861.60	226.62
861.91	226.65
862.22	226.62
862.53	226.61
862.84	226.46
863.16	226.49
863.47	226.47
863.78	226.45
864.09	226.46
864.40	226.46
864.71	226.46
865.02	226.47
865.33	226.46
865.64	226.43
865.95	226.42
866.27	226.51
866.58	226.50
866.89	226.52
867.20	226.51
867.51	226.48
867.82	226.47
868.13	226.50
868.44	226.48
868.75	226.50
869.06	226.50
869.37	226.51
869.68	226.47
869.99	226.49
870.30	226.49
870.61	226.49
870.92	226.48
871.23	226.46
871.54	226.47
871.85	226.50
872.16	226.52
872.47	226.52
872.78	226.44
873.09	226.45
873.40	226.44
873.71	226.45
874.02	226.46
874.33	226.45
874.64	226.42
874.95	226.44
875.26	226.42
875.56	226.41
875.87	226.40
876.18	226.40
876.49	226.52
876.80	226.51
877.11	226.49
877.42	226.50
877.73	226.49
878.04	226.48
878.35	226.48
878.66	226.47
878.96	226.46
879.27	226.47
879.58	226.46
879.89	226.45
880.20	226.49
880.51	226.49
880.82	226.49
881.12	226.50
881.43	226.47
881.74	226.45
882.05	226.45
882.36	226.45
882.67	226.46
882.97	226.33
883.28	226.32
883.59	226.32
883.90	226.32
884.21	226.34
884.51	226.32
884.82	226.29
885.13	226.30
885.44	226.30
885.74	226.29
886.05	226.29
886.36	226.29
886.67	226.25
886.98	226.30
887.28	226.31
887.59	226.30
887.90	226.31
888.20	226.32
888.51	226.35
888.82	226.32
889.13	226.34
889.43	226.45
889.74	226.44
890.05	226.44
890.35	226.42
890.66	226.41
890.97	226.40
891.28	226.41
891.58	226.41
891.89	226.40
892.20	226.39
892.50	226.38
892.81	226.38
893.12	226.38
893.42	226.32
893.73	226.32
894.04	226.33
894.34	226.33
894.65	226.34
894.95	226.31
895.26	226.32
895.57	226.37
895.87	226.24
896.18	226.27
896.48	226.28
896.79	226.28
897.10	226.29
897.40	226.30
897.71	226.30
898.01	226.28
898.32	226.30
898.63	226.29
898.93	226.30
899.24	226.30
899.54	226.28
899.85	226.28
900.15	226.27
900.46	226.27
900.76	226.26
901.07	226.27
901.38	226.27
901.68	226.29
901.99	226.22
902.29	226.23
902.60	226.21
902.90	226.20
903.21	226.20
903.51	226.19
903.82	226.22
904.12	226.22
904.43	226.23
904.73	226.22
905.03	226.23
905.34	226.35
905.64	226.33
905.95	226.34
906.25	226.34
906.56	226.34
906.86	226.34
907.17	226.34
907.47	226.34
907.77	226.32
908.08	226.29
908.38	226.31
908.69	226.32
908.99	226.34
909.30	226.34
909.60	226.33
909.90	226.35
910.21	226.31
910.51	226.30
910.81	226.30
911.12	226.31
911.42	226.31
911.73	226.18
912.03	226.20
912.33	226.23
912.64	226.21
912.94	226.21
913.24	226.18
913.55	226.17
913.85	226.17
914.15	226.19
914.46	226.20
914.76	226.18
915.06	226.18
915.37	226.16
915.67	226.15
915.97	226.15
916.27	226.12
916.58	226.12
916.88	226.11
917.18	226.10
917.49	226.19
917.79	226.18
918.09	226.19
918.39	226.21
918.70	226.20
919.00	226.19
919.30	226.24
919.60	226.24
919.91	226.23
920.21	226.22
920.51	226.20
920.81	226.18
921.12	226.21
921.42	226.21
921.72	226.22
922.02	226.23
922.32	226.24
922.63	226.26
922.93	226.32
923.23	226.33
923.53	226.32
923.83	226.23
924.13	226.24
924.44	226.24
924.74	226.26
925.04	226.28
925.34	226.30
925.64	226.24
925.94	226.24
926.24	226.31
926.55	226.30
926.85	226.32
927.15	226.31
927.45	226.30
927.75	226.29
928.05	226.29
928.35	226.28
928.65	226.30
928.95	226.30
929.26	226.23
929.56	226.25
929.86	226.27
930.16	226.27
930.46	226.25
930.76	226.26
931.06	226.20
931.36	226.17
931.66	226.18
931.96	226.22
932.26	226.22
932.56	226.16
932.86	226.17
933.16	226.17
933.46	226.16
933.76	226.15
934.06	226.18
934.36	226.22
934.66	226.21
934.96	226.19
935.26	226.20
935.56	226.24
935.86	226.21
936.16	226.18
936.46	226.17
936.76	226.17
937.06	226.15
937.36	226.17
937.66	226.17
937.96	226.17
938.26	226.14
938.56	226.15
938.86	226.15
939.16	226.18
939.46	226.19
939.76	226.20
940.06	226.21
940.35	226.18
940.65	226.11
940.95	226.13
941.25	226.10
941.55	226.08
941.85	226.07
942.15	226.10
942.45	226.13
942.75	226.14
943.04	226.16
943.34	226.18
943.64	226.16
943.94	226.16
944.24	226.15
944.54	226.16
944.84	226.16
945.13	226.14
945.43	226.12
945.73	226.11
946.03	226.10
946.33	226.09
946.62	226.08
946.92	226.08
947.22	226.08
947.52	226.10
947.82	226.11
948.11	226.10
948.41	226.07
948.71	226.04
949.01	226.04
949.31	226.02
949.60	226.01
949.90	226.03
950.20	226.03
950.50	226.02
950.79	226.00
951.09	226.01
951.39	226.02
951.69	226.01
951.98	226.03
952.28	226.04
952.58	226.03
952.87	226.04
953.17	226.06
953.47	226.04
953.76	226.04
954.06	226.02
954.36	226.01
954.66	226.02
954.95	226.06
955.25	226.07
955.55	226.08
955.84	226.05
956.14	226.06
956.44	226.06
956.73	226.05
957.03	226.05
957.32	226.05
957.62	226.04
957.92	226.07
958.21	226.05
958.51	226.20
958.81	226.22
959.10	226.23
959.40	226.26
959.69	226.27
959.99	226.29
960.29	226.29
960.58	226.28
960.88	226.32
961.17	226.31
961.47	226.31
961.76	226.30
962.06	226.33
962.36	226.31
962.65	226.32
962.95	226.32
963.24	226.31
963.54	226.32
963.83	226.33
964.13	226.31
964.42	226.31
964.72	226.19
965.01	226.19
965.31	226.17
965.60	226.13
965.90	226.20
966.19	226.17
966.49	226.19
966.78	226.17
967.08	226.16
967.37	226.15
967.67	226.13
967.96	226.15
968.26	226.14
968.55	226.17
968.85	226.16
969.14	226.16
969.43	226.16
969.73	226.15
970.02	226.14
970.32	226.13
970.61	226.11
970.91	226.08
971.20	226.04
971.49	226.04
971.79	226.06
972.08	225.97
972.38	225.97
972.67	225.96
972.96	225.98
973.26	225.95
973.55	225.98
973.85	225.97
974.14	225.97
974.43	225.97
974.73	225.95
975.02	225.94
975.31	225.94
975.61	225.93
975.90	225.92
976.19	225.91
976.49	225.93
976.78	225.93
977.07	225.93
977.37	225.95
977.66	225.96
977.95	225.94
978.24	225.94
978.54	225.97
978.83	225.96
979.12	225.94
979.42	225.96
979.71	225.94
980.00	225.94
980.29	225.94
980.59	225.91
980.88	225.95
981.17	225.96
981.46	225.95
981.76	225.96
982.05	226.00
982.34	226.01
982.63	226.01
982.93	226.02
983.22	226.06
983.51	226.06
983.80	226.09
984.09	226.11
984.39	226.11
984.68	226.09
984.97	226.11
985.26	226.10
985.55	226.11
985.85	226.08
986.14	226.10
986.43	226.11
986.72	226.11
987.01	226.06
987.30	226.04
987.59	226.03
987.89	226.03
988.18	226.00
988.47	225.99
988.76	225.97
989.05	225.95
989.34	225.94
989.63	225.96
989.92	225.93
990.22	225.91
990.51	225.91
990.80	225.90
991.09	225.91
991.38	225.93
991.67	225.92
991.96	225.90
992.25	225.91
992.54	225.89
992.83	225.89
993.12	225.89
993.41	225.92
993.70	225.97
993.99	225.99
994.28	226.00
994.58	226.02
994.87	226.02
995.16	226.02
995.45	226.00
995.74	225.96
996.03	225.98
996.32	226.00
996.61	226.02
996.90	226.02
997.19	226.01
997.48	226.00
997.77	225.98
998.06	226.00
998.34	225.98
998.63	225.98
998.92	225.99
999.21	226.01
999.50	226.00
999.79	225.96
1000.08	225.95
1000.37	225.95
1000.66	225.93
1000.95	225.95
1001.24	225.96
1001.53	225.98
1001.82	225.98
1002.11	225.95
1002.40	225.95
1002.68	225.98
1002.97	226.08
1003.26	226.06
1003.55	226.04
1003.84	226.07
1004.13	226.10
1004.42	226.11
1004.71	226.11
1004.99	226.10
1005.28	226.12
1005.57	226.12
1005.86	226.10
1006.15	226.09
1006.44	226.07
1006.72	226.09
1007.01	226.07
1007.30	226.07
1007.59	226.05
1007.88	226.05
1008.17	226.06
1008.45	226.03
1008.74	225.98
1009.03	225.92
1009.32	225.92
1009.60	225.93
1009.89	225.92
1010.18	225.87
1010.47	225.86
1010.76	225.86
1011.04	225.87
1011.33	225.85
1011.62	225.87
1011.91	225.88
1012.19	225.89
1012.48	225.91
1012.77	225.91
1013.05	225.95
1013.34	225.95
1013.63	225.94
1013.92	225.96
1014.20	225.95
1014.49	225.96
1014.78	225.96
1015.06	225.92
1015.35	225.92
1015.64	225.94
1015.92	225.96
1016.21	225.98
1016.50	225.97
1016.78	225.98
1017.07	225.98
1017.36	225.97
1017.64	225.95
1017.93	225.96
1018.22	225.95
1018.50	225.95
1018.79	225.95
1019.08	225.91
1019.36	225.92
1019.65	225.92
1019.93	225.95
1020.22	225.98
1020.51	226.04
1020.79	226.03
1021.08	225.83
1021.36	225.82
1021.65	225.98
1021.94	225.87
1022.22	226.02
1022.51	225.88
1022.79	226.59
1023.08	226.23
1023.36	227.45
1023.65	225.66
>>>>>End Processed Spectral Data<<<<<
