SpectraSuite Data File
++++++++++++++++++++++++++++++++++++
Date: Fri Oct 02 15:49:20 EDT 2015
User: lab3
Dark Spectrum Present: No
Reference Spectrum Present: No
Number of Sampled Component Spectra: 1
Spectrometers: USB2E7196
Integration Time (usec): 46000 (USB2E7196)
Spectra Averaged: 1200 (USB2E7196)
Boxcar Smoothing: 10 (USB2E7196)
Correct for Electrical Dark: No (USB2E7196)
Strobe/Lamp Enabled: No (USB2E7196)
Correct for Detector Non-linearity: No (USB2E7196)
Correct for Stray Light: No (USB2E7196)
Number of Pixels in Processed Spectrum: 2048
>>>>>Begin Processed Spectral Data<<<<<
339.09	0.00
339.48	213.75
339.86	215.32
340.24	216.77
340.63	218.11
341.01	221.37
341.39	220.97
341.78	222.21
342.16	223.51
342.54	223.89
342.93	212.34
343.31	223.07
343.69	223.61
344.07	224.07
344.46	224.50
344.84	224.90
345.22	225.12
345.60	225.38
345.99	225.57
346.37	225.70
346.75	225.80
347.13	225.88
347.52	225.95
347.90	226.04
348.28	226.07
348.66	226.12
349.05	226.12
349.43	226.17
349.81	226.22
350.19	226.28
350.57	226.34
350.96	226.43
351.34	226.52
351.72	226.62
352.10	226.73
352.48	226.80
352.87	226.85
353.25	226.91
353.63	226.97
354.01	227.03
354.39	227.12
354.77	227.20
355.15	227.31
355.54	227.36
355.92	227.40
356.30	227.48
356.68	227.63
357.06	227.70
357.44	227.75
357.82	227.81
358.20	227.92
358.58	227.98
358.97	228.05
359.35	228.13
359.73	228.22
360.11	228.28
360.49	228.34
360.87	228.38
361.25	228.45
361.63	228.54
362.01	228.60
362.39	228.62
362.77	228.67
363.15	228.69
363.53	228.72
363.91	228.75
364.29	228.77
364.67	228.67
365.05	228.71
365.43	228.75
365.81	228.78
366.19	228.79
366.57	228.85
366.95	228.85
367.33	228.82
367.71	228.81
368.09	228.83
368.47	228.83
368.85	228.82
369.23	228.82
369.61	228.76
369.99	228.77
370.37	228.77
370.75	228.84
371.13	228.81
371.51	228.78
371.89	228.76
372.27	228.74
372.65	228.72
373.03	228.67
373.41	228.63
373.78	228.59
374.16	228.49
374.54	228.41
374.92	228.36
375.30	228.31
375.68	228.24
376.06	228.19
376.44	228.12
376.82	228.08
377.19	228.03
377.57	227.99
377.95	227.90
378.33	227.84
378.71	227.67
379.09	227.62
379.47	227.60
379.84	227.53
380.22	227.46
380.60	227.39
380.98	227.34
381.36	227.29
381.73	227.23
382.11	227.20
382.49	227.16
382.87	227.10
383.25	227.06
383.62	227.16
384.00	227.10
384.38	227.07
384.76	227.05
385.13	227.05
385.51	227.01
385.89	226.95
386.27	226.91
386.64	226.89
387.02	226.85
387.40	226.79
387.78	226.77
388.15	226.75
388.53	226.71
388.91	226.68
389.29	226.64
389.66	226.63
390.04	226.59
390.42	226.59
390.79	226.58
391.17	226.56
391.55	226.40
391.92	226.38
392.30	226.38
392.68	226.34
393.05	226.31
393.43	226.32
393.81	226.32
394.18	226.30
394.56	226.31
394.94	226.34
395.31	226.34
395.69	226.39
396.06	226.41
396.44	226.44
396.82	226.44
397.19	226.52
397.57	226.54
397.95	226.58
398.32	226.56
398.70	226.61
399.07	226.68
399.45	226.72
399.82	226.78
400.20	226.81
400.58	226.87
400.95	226.89
401.33	226.98
401.70	227.15
402.08	227.26
402.45	227.35
402.83	227.47
403.20	227.58
403.58	227.67
403.95	227.81
404.33	227.97
404.71	228.12
405.08	228.33
405.46	228.49
405.83	228.67
406.21	228.87
406.58	229.09
406.96	229.29
407.33	229.53
407.70	229.81
408.08	230.20
408.45	230.54
408.83	230.90
409.20	231.22
409.58	231.51
409.95	231.90
410.33	232.34
410.70	232.75
411.08	233.22
411.45	233.74
411.82	234.26
412.20	234.86
412.57	235.57
412.95	236.12
413.32	236.86
413.69	237.61
414.07	238.40
414.44	239.27
414.82	240.15
415.19	241.18
415.56	242.23
415.94	243.30
416.31	244.51
416.68	245.72
417.06	247.13
417.43	248.46
417.81	249.98
418.18	251.55
418.55	253.23
418.93	255.01
419.30	256.85
419.67	258.81
420.04	260.80
420.42	262.91
420.79	265.34
421.16	267.78
421.54	270.28
421.91	272.89
422.28	275.59
422.66	278.50
423.03	281.28
423.40	284.20
423.77	287.35
424.15	290.56
424.52	293.90
424.89	297.51
425.26	301.10
425.64	304.44
426.01	308.19
426.38	312.03
426.75	315.99
427.13	320.06
427.50	324.32
427.87	328.75
428.24	333.21
428.61	337.50
428.99	342.15
429.36	347.25
429.73	352.13
430.10	357.01
430.47	362.02
430.85	367.18
431.22	372.69
431.59	378.38
431.96	383.93
432.33	390.09
432.70	395.98
433.08	402.92
433.45	409.48
433.82	415.97
434.19	423.21
434.56	430.34
434.93	437.26
435.30	444.08
435.68	451.78
436.05	459.33
436.42	466.86
436.79	473.74
437.16	481.15
437.53	489.09
437.90	497.04
438.27	504.82
438.64	513.20
439.01	520.81
439.38	527.75
439.75	534.44
440.13	541.98
440.50	549.16
440.87	554.88
441.24	561.13
441.61	567.90
441.98	572.81
442.35	578.65
442.72	584.57
443.09	590.23
443.46	593.77
443.83	596.34
444.20	598.44
444.57	601.61
444.94	603.35
445.31	605.14
445.68	606.64
446.05	607.65
446.42	607.09
446.79	606.33
447.16	605.59
447.53	604.92
447.90	602.28
448.27	599.71
448.64	595.94
449.01	593.24
449.37	588.16
449.74	583.56
450.11	577.70
450.48	571.32
450.85	564.92
451.22	559.46
451.59	554.11
451.96	549.29
452.33	542.36
452.70	536.20
453.07	528.73
453.43	521.31
453.80	514.11
454.17	507.22
454.54	500.91
454.91	493.80
455.28	487.14
455.65	480.87
456.02	474.28
456.38	468.97
456.75	462.15
457.12	456.67
457.49	451.14
457.86	445.93
458.23	441.40
458.59	436.37
458.96	431.23
459.33	426.74
459.70	422.14
460.07	418.67
460.43	414.58
460.80	410.77
461.17	407.46
461.54	403.87
461.91	400.52
462.27	397.10
462.64	394.38
463.01	391.20
463.38	388.02
463.74	385.14
464.11	382.61
464.48	380.35
464.85	377.88
465.21	376.04
465.58	373.97
465.95	371.56
466.32	369.66
466.68	367.79
467.05	365.89
467.42	364.04
467.78	362.05
468.15	360.21
468.52	358.89
468.88	357.09
469.25	355.46
469.62	354.17
469.98	352.76
470.35	351.50
470.72	350.36
471.08	349.21
471.45	348.24
471.82	347.15
472.18	346.00
472.55	345.27
472.92	344.32
473.28	343.58
473.65	342.79
474.02	342.04
474.38	341.42
474.75	341.06
475.11	340.57
475.48	340.32
475.85	340.06
476.21	339.94
476.58	339.84
476.94	339.99
477.31	340.06
477.67	340.16
478.04	340.37
478.41	340.67
478.77	341.09
479.14	341.37
479.50	341.88
479.87	342.54
480.23	343.22
480.60	343.89
480.96	344.55
481.33	345.55
481.69	346.54
482.06	347.52
482.42	348.42
482.79	349.53
483.15	350.84
483.52	352.32
483.88	353.74
484.25	355.24
484.61	356.82
484.98	358.51
485.34	360.43
485.71	362.44
486.07	364.58
486.44	366.73
486.80	369.12
487.17	371.62
487.53	374.34
487.90	377.16
488.26	380.25
488.62	383.51
488.99	386.76
489.35	390.19
489.72	393.91
490.08	397.82
490.44	401.88
490.81	406.08
491.17	410.37
491.54	414.99
491.90	419.77
492.26	424.88
492.63	430.23
492.99	435.81
493.36	441.59
493.72	447.66
494.08	453.88
494.45	460.49
494.81	467.36
495.17	474.38
495.54	481.79
495.90	489.52
496.26	497.43
496.63	505.59
496.99	514.06
497.35	522.91
497.72	532.07
498.08	541.44
498.44	551.11
498.80	561.37
499.17	571.88
499.53	582.73
499.89	593.92
500.26	605.35
500.62	617.01
500.98	629.33
501.34	641.81
501.71	654.85
502.07	667.98
502.43	681.65
502.79	695.64
503.16	710.05
503.52	724.67
503.88	739.67
504.24	755.16
504.60	770.85
504.97	786.99
505.33	803.46
505.69	820.87
506.05	838.59
506.41	856.27
506.78	874.08
507.14	892.39
507.50	911.14
507.86	930.21
508.22	949.56
508.59	968.76
508.95	988.76
509.31	1009.41
509.67	1030.80
510.03	1052.15
510.39	1073.52
510.75	1095.10
511.12	1116.92
511.48	1138.89
511.84	1160.86
512.20	1183.17
512.56	1206.36
512.92	1229.57
513.28	1252.35
513.64	1275.26
514.00	1298.58
514.37	1322.26
514.73	1345.97
515.09	1369.52
515.45	1393.39
515.81	1417.46
516.17	1441.47
516.53	1465.05
516.89	1488.52
517.25	1512.18
517.61	1535.75
517.97	1559.60
518.33	1582.81
518.69	1605.99
519.05	1629.68
519.41	1653.57
519.77	1677.69
520.13	1701.07
520.49	1724.33
520.85	1747.86
521.21	1771.13
521.57	1794.76
521.93	1817.83
522.29	1841.33
522.65	1864.24
523.01	1887.06
523.37	1909.46
523.73	1932.68
524.09	1955.48
524.45	1978.09
524.81	2000.14
525.17	2021.90
525.53	2043.32
525.89	2065.32
526.25	2087.28
526.61	2108.16
526.97	2129.05
527.33	2149.77
527.68	2170.25
528.04	2190.04
528.40	2208.84
528.76	2227.69
529.12	2245.92
529.48	2264.08
529.84	2280.31
530.20	2297.20
530.56	2313.53
530.91	2329.90
531.27	2345.85
531.63	2361.06
531.99	2375.76
532.35	2389.95
532.71	2404.30
533.07	2418.95
533.42	2431.65
533.78	2445.38
534.14	2459.42
534.50	2472.57
534.86	2485.51
535.21	2496.59
535.57	2508.16
535.93	2519.52
536.29	2529.75
536.65	2540.01
537.00	2549.26
537.36	2559.64
537.72	2568.68
538.08	2577.06
538.44	2584.87
538.79	2592.30
539.15	2598.93
539.51	2605.22
539.87	2610.75
540.22	2614.53
540.58	2618.38
540.94	2623.63
541.29	2627.21
541.65	2629.01
542.01	2630.23
542.37	2630.82
542.72	2632.52
543.08	2632.69
543.44	2633.40
543.79	2633.18
544.15	2632.12
544.51	2631.38
544.87	2629.43
545.22	2626.74
545.58	2623.48
545.94	2620.13
546.29	2615.61
546.65	2611.26
547.01	2606.70
547.36	2602.87
547.72	2598.93
548.07	2593.67
548.43	2587.08
548.79	2579.49
549.14	2573.04
549.50	2566.96
549.86	2559.81
550.21	2551.81
550.57	2544.44
550.92	2535.00
551.28	2526.21
551.64	2517.62
551.99	2508.76
552.35	2499.34
552.70	2490.27
553.06	2481.74
553.41	2472.67
553.77	2463.25
554.13	2453.52
554.48	2443.23
554.84	2431.77
555.19	2420.89
555.55	2409.93
555.90	2398.85
556.26	2388.30
556.61	2376.86
556.97	2363.97
557.32	2351.72
557.68	2339.19
558.03	2326.56
558.39	2315.12
558.74	2303.81
559.10	2291.03
559.45	2278.38
559.81	2266.34
560.16	2253.85
560.52	2241.32
560.87	2229.04
561.23	2216.13
561.58	2203.44
561.94	2190.39
562.29	2176.99
562.64	2164.12
563.00	2150.96
563.35	2138.36
563.71	2125.53
564.06	2112.62
564.42	2100.27
564.77	2087.39
565.12	2074.59
565.48	2061.83
565.83	2048.96
566.19	2036.35
566.54	2023.50
566.89	2009.86
567.25	1996.30
567.60	1983.81
567.96	1970.74
568.31	1956.34
568.66	1942.60
569.02	1930.01
569.37	1917.30
569.72	1905.07
570.08	1891.71
570.43	1877.98
570.78	1863.94
571.14	1849.57
571.49	1835.74
571.84	1822.41
572.20	1808.09
572.55	1793.95
572.90	1779.69
573.26	1765.43
573.61	1750.64
573.96	1736.38
574.31	1722.20
574.67	1708.23
575.02	1693.34
575.37	1678.32
575.72	1664.32
576.08	1650.71
576.43	1635.97
576.78	1621.70
577.13	1607.67
577.49	1594.14
577.84	1581.15
578.19	1567.37
578.54	1553.68
578.90	1539.59
579.25	1525.41
579.60	1512.59
579.95	1499.75
580.30	1486.68
580.66	1473.36
581.01	1460.04
581.36	1446.76
581.71	1434.41
582.06	1421.85
582.42	1409.54
582.77	1397.45
583.12	1385.31
583.47	1372.89
583.82	1360.77
584.17	1348.29
584.53	1335.47
584.88	1322.92
585.23	1310.05
585.58	1298.00
585.93	1286.11
586.28	1274.82
586.63	1263.51
586.98	1251.89
587.34	1240.26
587.69	1228.49
588.04	1217.11
588.39	1206.10
588.74	1195.23
589.09	1184.19
589.44	1172.77
589.79	1161.85
590.14	1151.04
590.49	1140.15
590.84	1129.44
591.19	1118.90
591.54	1108.28
591.89	1097.91
592.25	1087.69
592.60	1077.19
592.95	1066.98
593.30	1056.98
593.65	1046.81
594.00	1036.67
594.35	1027.08
594.70	1017.10
595.05	1007.91
595.40	998.72
595.75	989.31
596.10	980.31
596.45	971.10
596.80	962.23
597.15	953.22
597.50	944.32
597.85	935.83
598.19	927.18
598.54	918.62
598.89	910.41
599.24	902.40
599.59	894.32
599.94	887.03
600.29	879.57
600.64	871.88
600.99	863.86
601.34	856.24
601.69	848.24
602.04	840.87
602.39	833.38
602.74	825.91
603.08	818.43
603.43	810.95
603.78	803.61
604.13	796.44
604.48	789.20
604.83	782.15
605.18	774.94
605.53	768.02
605.87	760.95
606.22	754.19
606.57	747.37
606.92	740.43
607.27	733.49
607.62	726.85
607.96	720.54
608.31	714.59
608.66	708.45
609.01	702.59
609.36	696.85
609.70	690.89
610.05	684.90
610.40	679.16
610.75	673.44
611.10	668.03
611.44	662.45
611.79	656.98
612.14	651.45
612.49	646.02
612.83	640.79
613.18	635.69
613.53	630.50
613.88	625.39
614.22	620.64
614.57	615.79
614.92	610.78
615.27	605.86
615.61	601.03
615.96	596.26
616.31	591.47
616.65	586.81
617.00	582.31
617.35	577.85
617.70	573.47
618.04	569.19
618.39	564.83
618.74	560.67
619.08	556.57
619.43	552.56
619.78	548.59
620.12	544.59
620.47	540.71
620.82	536.93
621.16	533.15
621.51	529.34
621.85	525.54
622.20	521.92
622.55	518.34
622.89	514.76
623.24	511.26
623.59	507.77
623.93	504.34
624.28	501.01
624.62	497.83
624.97	494.67
625.32	491.43
625.66	488.17
626.01	484.90
626.35	481.67
626.70	478.47
627.04	475.48
627.39	472.40
627.73	469.46
628.08	466.59
628.43	463.74
628.77	460.93
629.12	458.25
629.46	455.59
629.81	452.87
630.15	450.16
630.50	447.49
630.84	444.90
631.19	442.38
631.53	439.95
631.88	437.45
632.22	434.96
632.57	432.78
632.91	430.59
633.26	428.48
633.60	426.40
633.95	424.40
634.29	422.27
634.64	420.23
634.98	418.02
635.32	415.96
635.67	414.02
636.01	412.02
636.36	410.07
636.70	408.22
637.05	406.39
637.39	404.61
637.73	402.87
638.08	401.21
638.42	399.52
638.77	397.70
639.11	395.87
639.45	394.11
639.80	392.26
640.14	390.52
640.49	388.75
640.83	386.97
641.17	385.24
641.52	383.55
641.86	381.90
642.20	380.43
642.55	378.80
642.89	377.22
643.23	375.70
643.58	374.32
643.92	372.82
644.26	371.36
644.61	369.94
644.95	368.49
645.29	366.97
645.64	365.46
645.98	364.06
646.32	362.74
646.66	361.39
647.01	360.09
647.35	358.81
647.69	357.54
648.04	356.39
648.38	355.14
648.72	353.92
649.06	352.70
649.41	351.49
649.75	350.32
650.09	349.18
650.43	348.04
650.78	346.82
651.12	345.67
651.46	344.57
651.80	343.48
652.14	342.41
652.49	341.39
652.83	340.36
653.17	339.35
653.51	338.38
653.85	337.46
654.20	336.47
654.54	335.43
654.88	334.45
655.22	333.50
655.56	332.53
655.90	331.62
656.25	330.74
656.59	329.84
656.93	328.99
657.27	328.14
657.61	327.23
657.95	326.39
658.29	325.52
658.64	324.68
658.98	323.85
659.32	323.03
659.66	322.27
660.00	321.51
660.34	320.76
660.68	319.97
661.02	319.15
661.36	318.37
661.70	317.62
662.05	316.88
662.39	316.14
662.73	315.52
663.07	314.88
663.41	314.18
663.75	313.47
664.09	312.77
664.43	312.02
664.77	311.37
665.11	310.66
665.45	310.02
665.79	309.41
666.13	308.75
666.47	308.06
666.81	307.35
667.15	306.62
667.49	305.99
667.83	305.40
668.17	304.78
668.51	304.20
668.85	303.64
669.19	303.13
669.53	302.50
669.87	301.84
670.21	301.22
670.55	300.64
670.89	300.14
671.23	299.58
671.57	299.06
671.91	298.58
672.25	298.10
672.58	297.63
672.92	297.07
673.26	296.58
673.60	296.11
673.94	295.66
674.28	295.23
674.62	294.76
674.96	294.25
675.30	293.79
675.64	293.30
675.97	292.80
676.31	292.26
676.65	291.78
676.99	291.36
677.33	290.86
677.67	290.40
678.01	289.86
678.34	289.38
678.68	288.94
679.02	288.44
679.36	287.96
679.70	287.48
680.04	287.03
680.37	286.58
680.71	286.14
681.05	285.71
681.39	285.25
681.73	284.78
682.06	284.30
682.40	283.86
682.74	283.46
683.08	283.10
683.42	282.66
683.75	282.27
684.09	281.80
684.43	281.39
684.77	280.97
685.10	280.59
685.44	280.19
685.78	279.79
686.12	279.41
686.45	278.99
686.79	278.55
687.13	278.16
687.46	277.72
687.80	277.33
688.14	276.87
688.48	276.47
688.81	276.06
689.15	275.70
689.49	275.29
689.82	274.87
690.16	274.41
690.50	274.03
690.83	273.63
691.17	273.24
691.51	272.86
691.84	272.50
692.18	272.11
692.52	271.71
692.85	271.31
693.19	270.96
693.52	270.58
693.86	270.21
694.20	269.83
694.53	269.48
694.87	269.09
695.21	268.71
695.54	268.33
695.88	267.95
696.21	267.54
696.55	267.17
696.88	266.82
697.22	266.45
697.56	266.09
697.89	265.68
698.23	265.32
698.56	264.94
698.90	264.58
699.23	264.20
699.57	263.83
699.90	263.46
700.24	263.09
700.58	262.76
700.91	262.47
701.25	262.25
701.58	261.97
701.92	261.68
702.25	261.38
702.59	261.06
702.92	260.75
703.26	260.42
703.59	260.09
703.93	259.86
704.26	259.56
704.60	259.24
704.93	258.93
705.26	258.60
705.60	258.32
705.93	257.98
706.27	257.72
706.60	257.46
706.94	257.22
707.27	256.88
707.61	256.58
707.94	256.24
708.27	255.82
708.61	255.45
708.94	255.14
709.28	254.85
709.61	254.55
709.94	254.27
710.28	254.02
710.61	253.78
710.95	253.41
711.28	253.22
711.61	252.96
711.95	252.73
712.28	252.46
712.61	252.19
712.95	252.02
713.28	251.84
713.61	251.55
713.95	251.24
714.28	251.02
714.61	250.77
714.95	250.54
715.28	250.32
715.61	250.09
715.95	249.88
716.28	249.65
716.61	249.47
716.95	249.23
717.28	249.02
717.61	248.77
717.94	248.55
718.28	248.24
718.61	248.01
718.94	247.77
719.27	247.57
719.61	247.38
719.94	247.13
720.27	246.83
720.60	246.62
720.94	246.43
721.27	246.23
721.60	246.05
721.93	245.84
722.27	245.67
722.60	245.48
722.93	245.27
723.26	245.09
723.59	244.85
723.93	244.68
724.26	244.49
724.59	244.31
724.92	244.15
725.25	244.02
725.59	243.86
725.92	243.72
726.25	243.54
726.58	243.37
726.91	243.19
727.24	243.05
727.57	242.89
727.91	242.71
728.24	242.56
728.57	242.40
728.90	242.26
729.23	242.07
729.56	241.97
729.89	241.81
730.22	241.63
730.55	241.48
730.89	241.32
731.22	241.16
731.55	241.00
731.88	240.84
732.21	240.66
732.54	240.51
732.87	240.36
733.20	240.22
733.53	240.07
733.86	239.94
734.19	239.78
734.52	239.67
734.85	239.63
735.18	239.47
735.51	239.37
735.84	239.23
736.17	239.14
736.50	238.94
736.83	238.96
737.16	238.84
737.49	238.73
737.82	238.61
738.15	238.51
738.48	238.39
738.81	238.27
739.14	238.14
739.47	238.02
739.80	237.89
740.13	237.79
740.46	237.65
740.79	237.52
741.12	237.41
741.45	237.26
741.78	237.07
742.11	236.99
742.44	236.85
742.77	236.75
743.10	236.60
743.43	236.49
743.75	236.25
744.08	236.34
744.41	236.21
744.74	236.09
745.07	235.96
745.40	235.88
745.73	235.82
746.06	235.73
746.39	235.64
746.71	235.54
747.04	235.43
747.37	235.33
747.70	235.26
748.03	235.16
748.36	235.09
748.68	234.99
749.01	234.86
749.34	234.76
749.67	234.68
750.00	234.62
750.33	234.63
750.65	234.55
750.98	234.27
751.31	234.20
751.64	234.14
751.97	234.12
752.29	234.03
752.62	233.90
752.95	233.81
753.28	233.70
753.60	233.61
753.93	233.56
754.26	233.49
754.59	233.37
754.91	233.28
755.24	233.18
755.57	233.16
755.90	233.08
756.22	232.99
756.55	232.89
756.88	232.78
757.20	232.62
757.53	232.50
757.86	232.43
758.19	232.35
758.51	232.27
758.84	232.13
759.17	232.05
759.49	231.99
759.82	231.98
760.15	231.93
760.47	231.87
760.80	231.77
761.13	231.73
761.45	231.67
761.78	231.60
762.11	231.55
762.43	231.41
762.76	231.35
763.08	231.30
763.41	231.25
763.74	231.20
764.06	231.14
764.39	231.10
764.71	231.05
765.04	230.99
765.37	230.91
765.69	230.86
766.02	230.80
766.34	230.74
766.67	230.65
767.00	230.62
767.32	230.64
767.65	230.67
767.97	230.61
768.30	230.57
768.62	230.53
768.95	230.48
769.27	230.44
769.60	230.41
769.92	230.34
770.25	230.28
770.57	230.21
770.90	230.17
771.22	230.13
771.55	230.08
771.87	230.05
772.20	230.02
772.52	230.09
772.85	230.20
773.17	230.16
773.50	230.10
773.82	230.03
774.15	229.93
774.47	229.80
774.80	229.75
775.12	229.71
775.45	229.67
775.77	229.64
776.09	229.61
776.42	229.58
776.74	229.60
777.07	229.56
777.39	229.53
777.72	229.48
778.04	229.46
778.36	229.42
778.69	229.39
779.01	229.37
779.33	229.22
779.66	229.04
779.98	229.01
780.31	228.98
780.63	229.01
780.95	229.00
781.28	228.98
781.60	228.94
781.92	228.90
782.25	228.88
782.57	228.85
782.89	228.82
783.22	228.79
783.54	228.73
783.86	228.72
784.19	228.70
784.51	228.72
784.83	228.69
785.16	228.66
785.48	228.64
785.80	228.63
786.12	228.61
786.45	228.58
786.77	228.57
787.09	228.53
787.42	228.47
787.74	228.44
788.06	228.42
788.38	228.39
788.71	228.37
789.03	228.36
789.35	228.35
789.67	228.32
789.99	228.31
790.32	228.27
790.64	228.25
790.96	228.35
791.28	228.28
791.61	228.24
791.93	228.23
792.25	228.22
792.57	228.28
792.89	228.24
793.21	228.24
793.54	228.22
793.86	228.20
794.18	228.19
794.50	228.15
794.82	228.13
795.14	228.14
795.47	228.14
795.79	228.11
796.11	228.07
796.43	228.04
796.75	228.02
797.07	228.01
797.39	227.99
797.71	227.86
798.04	227.86
798.36	227.88
798.68	227.85
799.00	227.84
799.32	227.76
799.64	227.76
799.96	227.75
800.28	227.76
800.60	227.74
800.92	227.73
801.24	227.71
801.56	227.71
801.89	227.69
802.21	227.68
802.53	227.65
802.85	227.67
803.17	227.73
803.49	227.69
803.81	227.68
804.13	227.65
804.45	227.63
804.77	227.61
805.09	227.58
805.41	227.56
805.73	227.52
806.05	227.48
806.37	227.45
806.69	227.42
807.01	227.40
807.33	227.39
807.65	227.33
807.97	227.37
808.28	227.33
808.60	227.31
808.92	227.28
809.24	227.36
809.56	227.32
809.88	227.25
810.20	227.24
810.52	227.25
810.84	227.22
811.16	227.20
811.48	227.19
811.80	227.23
812.12	227.20
812.43	227.22
812.75	227.22
813.07	227.20
813.39	227.19
813.71	227.16
814.03	227.15
814.35	227.15
814.67	227.09
814.98	227.09
815.30	227.08
815.62	227.05
815.94	226.95
816.26	226.95
816.58	226.93
816.89	226.93
817.21	226.90
817.53	226.90
817.85	226.90
818.17	226.89
818.48	226.82
818.80	226.84
819.12	226.82
819.44	226.79
819.76	226.76
820.07	226.76
820.39	226.75
820.71	226.75
821.03	226.74
821.34	226.73
821.66	226.73
821.98	226.74
822.30	226.72
822.61	226.79
822.93	226.77
823.25	226.76
823.57	226.75
823.88	226.76
824.20	226.74
824.52	226.76
824.83	226.75
825.15	226.73
825.47	226.72
825.79	226.72
826.10	226.72
826.42	226.72
826.74	226.71
827.05	226.72
827.37	226.72
827.69	226.70
828.00	226.70
828.32	226.69
828.64	226.67
828.95	226.74
829.27	226.70
829.58	226.70
829.90	226.71
830.22	226.71
830.53	226.69
830.85	226.67
831.17	226.63
831.48	226.63
831.80	226.64
832.11	226.63
832.43	226.61
832.75	226.60
833.06	226.67
833.38	226.64
833.69	226.63
834.01	226.62
834.32	226.62
834.64	226.60
834.96	226.60
835.27	226.58
835.59	226.52
835.90	226.50
836.22	226.49
836.53	226.45
836.85	226.44
837.16	226.56
837.48	226.55
837.79	226.60
838.11	226.60
838.42	226.59
838.74	226.60
839.05	226.60
839.37	226.59
839.68	226.52
840.00	226.51
840.31	226.52
840.63	226.51
840.94	226.49
841.26	226.48
841.57	226.48
841.88	226.50
842.20	226.49
842.51	226.45
842.83	226.45
843.14	226.56
843.46	226.55
843.77	226.47
844.08	226.46
844.40	226.41
844.71	226.39
845.03	226.39
845.34	226.37
845.65	226.37
845.97	226.36
846.28	226.36
846.60	226.36
846.91	226.34
847.22	226.34
847.54	226.37
847.85	226.38
848.16	226.36
848.48	226.33
848.79	226.37
849.10	226.38
849.42	226.39
849.73	226.28
850.04	226.27
850.36	226.23
850.67	226.25
850.98	226.25
851.30	226.25
851.61	226.25
851.92	226.24
852.23	226.26
852.55	226.26
852.86	226.26
853.17	226.27
853.49	226.30
853.80	226.32
854.11	226.32
854.42	226.33
854.74	226.32
855.05	226.32
855.36	226.27
855.67	226.27
855.99	226.26
856.30	226.41
856.61	226.41
856.92	226.41
857.23	226.40
857.55	226.38
857.86	226.37
858.17	226.38
858.48	226.36
858.79	226.33
859.11	226.35
859.42	226.34
859.73	226.32
860.04	226.31
860.35	226.26
860.66	226.22
860.98	226.20
861.29	226.22
861.60	226.21
861.91	226.23
862.22	226.21
862.53	226.20
862.84	226.04
863.16	226.07
863.47	226.05
863.78	226.04
864.09	226.06
864.40	226.07
864.71	226.08
865.02	226.10
865.33	226.09
865.64	226.07
865.95	226.06
866.27	226.13
866.58	226.11
866.89	226.13
867.20	226.14
867.51	226.13
867.82	226.12
868.13	226.16
868.44	226.13
868.75	226.14
869.06	226.14
869.37	226.16
869.68	226.13
869.99	226.16
870.30	226.17
870.61	226.18
870.92	226.17
871.23	226.15
871.54	226.16
871.85	226.19
872.16	226.20
872.47	226.19
872.78	226.13
873.09	226.14
873.40	226.12
873.71	226.14
874.02	226.13
874.33	226.12
874.64	226.09
874.95	226.11
875.26	226.10
875.56	226.09
875.87	226.08
876.18	226.08
876.49	226.19
876.80	226.17
877.11	226.15
877.42	226.15
877.73	226.15
878.04	226.13
878.35	226.12
878.66	226.12
878.96	226.13
879.27	226.12
879.58	226.12
879.89	226.11
880.20	226.14
880.51	226.14
880.82	226.14
881.12	226.16
881.43	226.13
881.74	226.11
882.05	226.11
882.36	226.11
882.67	226.13
882.97	225.99
883.28	225.98
883.59	225.98
883.90	225.98
884.21	226.00
884.51	226.00
884.82	225.98
885.13	225.98
885.44	225.98
885.74	225.98
886.05	225.98
886.36	225.98
886.67	225.94
886.98	226.01
887.28	226.02
887.59	226.02
887.90	226.03
888.20	226.04
888.51	226.06
888.82	226.04
889.13	226.04
889.43	226.16
889.74	226.15
890.05	226.15
890.35	226.14
890.66	226.12
890.97	226.11
891.28	226.09
891.58	226.10
891.89	226.09
892.20	226.07
892.50	226.06
892.81	226.05
893.12	226.04
893.42	225.97
893.73	225.98
894.04	225.97
894.34	225.98
894.65	225.97
894.95	225.96
895.26	225.96
895.57	226.00
895.87	225.88
896.18	225.91
896.48	225.90
896.79	225.91
897.10	225.92
897.40	225.92
897.71	225.94
898.01	225.92
898.32	225.94
898.63	225.94
898.93	225.95
899.24	225.95
899.54	225.95
899.85	225.95
900.15	225.94
900.46	225.94
900.76	225.94
901.07	225.94
901.38	225.93
901.68	225.96
901.99	225.90
902.29	225.91
902.60	225.90
902.90	225.89
903.21	225.88
903.51	225.87
903.82	225.90
904.12	225.90
904.43	225.91
904.73	225.89
905.03	225.91
905.34	226.03
905.64	226.02
905.95	226.02
906.25	226.01
906.56	226.01
906.86	226.00
907.17	225.99
907.47	226.00
907.77	225.99
908.08	225.96
908.38	225.96
908.69	225.97
908.99	225.99
909.30	226.01
909.60	226.00
909.90	226.01
910.21	225.98
910.51	225.95
910.81	225.95
911.12	225.96
911.42	225.95
911.73	225.81
912.03	225.81
912.33	225.85
912.64	225.83
912.94	225.82
913.24	225.79
913.55	225.78
913.85	225.77
914.15	225.80
914.46	225.80
914.76	225.80
915.06	225.79
915.37	225.76
915.67	225.74
915.97	225.74
916.27	225.70
916.58	225.71
916.88	225.72
917.18	225.70
917.49	225.79
917.79	225.79
918.09	225.82
918.39	225.85
918.70	225.84
919.00	225.84
919.30	225.91
919.60	225.91
919.91	225.90
920.21	225.91
920.51	225.88
920.81	225.87
921.12	225.89
921.42	225.88
921.72	225.89
922.02	225.90
922.32	225.92
922.63	225.92
922.93	225.99
923.23	225.99
923.53	225.98
923.83	225.89
924.13	225.90
924.44	225.90
924.74	225.92
925.04	225.95
925.34	225.95
925.64	225.90
925.94	225.90
926.24	225.97
926.55	225.96
926.85	225.98
927.15	225.98
927.45	225.98
927.75	225.98
928.05	225.99
928.35	225.99
928.65	226.01
928.95	226.02
929.26	225.96
929.56	225.97
929.86	226.00
930.16	225.99
930.46	225.98
930.76	225.98
931.06	225.91
931.36	225.88
931.66	225.90
931.96	225.92
932.26	225.93
932.56	225.88
932.86	225.89
933.16	225.89
933.46	225.88
933.76	225.86
934.06	225.88
934.36	225.92
934.66	225.91
934.96	225.88
935.26	225.89
935.56	225.91
935.86	225.88
936.16	225.86
936.46	225.84
936.76	225.84
937.06	225.82
937.36	225.84
937.66	225.84
937.96	225.83
938.26	225.80
938.56	225.79
938.86	225.80
939.16	225.82
939.46	225.82
939.76	225.83
940.06	225.82
940.35	225.80
940.65	225.73
940.95	225.75
941.25	225.72
941.55	225.70
941.85	225.69
942.15	225.72
942.45	225.75
942.75	225.75
943.04	225.75
943.34	225.78
943.64	225.75
943.94	225.73
944.24	225.72
944.54	225.74
944.84	225.73
945.13	225.70
945.43	225.68
945.73	225.67
946.03	225.65
946.33	225.66
946.62	225.64
946.92	225.65
947.22	225.65
947.52	225.67
947.82	225.69
948.11	225.68
948.41	225.65
948.71	225.62
949.01	225.63
949.31	225.62
949.60	225.60
949.90	225.64
950.20	225.64
950.50	225.64
950.79	225.62
951.09	225.65
951.39	225.65
951.69	225.63
951.98	225.66
952.28	225.67
952.58	225.66
952.87	225.67
953.17	225.67
953.47	225.66
953.76	225.66
954.06	225.64
954.36	225.62
954.66	225.62
954.95	225.66
955.25	225.67
955.55	225.68
955.84	225.67
956.14	225.67
956.44	225.68
956.73	225.66
957.03	225.67
957.32	225.66
957.62	225.66
957.92	225.69
958.21	225.68
958.51	225.81
958.81	225.83
959.10	225.84
959.40	225.87
959.69	225.89
959.99	225.90
960.29	225.91
960.58	225.91
960.88	225.97
961.17	225.95
961.47	225.97
961.76	225.96
962.06	225.98
962.36	225.96
962.65	225.97
962.95	225.98
963.24	225.97
963.54	225.98
963.83	225.99
964.13	225.99
964.42	225.98
964.72	225.88
965.01	225.88
965.31	225.87
965.60	225.83
965.90	225.89
966.19	225.86
966.49	225.86
966.78	225.85
967.08	225.83
967.37	225.83
967.67	225.79
967.96	225.81
968.26	225.81
968.55	225.83
968.85	225.83
969.14	225.83
969.43	225.83
969.73	225.81
970.02	225.81
970.32	225.79
970.61	225.77
970.91	225.74
971.20	225.72
971.49	225.71
971.79	225.73
972.08	225.64
972.38	225.65
972.67	225.65
972.96	225.68
973.26	225.65
973.55	225.68
973.85	225.67
974.14	225.66
974.43	225.67
974.73	225.63
975.02	225.63
975.31	225.62
975.61	225.61
975.90	225.60
976.19	225.58
976.49	225.59
976.78	225.60
977.07	225.59
977.37	225.62
977.66	225.64
977.95	225.62
978.24	225.63
978.54	225.67
978.83	225.65
979.12	225.63
979.42	225.64
979.71	225.61
980.00	225.62
980.29	225.62
980.59	225.60
980.88	225.64
981.17	225.63
981.46	225.63
981.76	225.64
982.05	225.67
982.34	225.69
982.63	225.69
982.93	225.68
983.22	225.72
983.51	225.71
983.80	225.72
984.09	225.73
984.39	225.72
984.68	225.69
984.97	225.69
985.26	225.68
985.55	225.69
985.85	225.67
986.14	225.68
986.43	225.69
986.72	225.67
987.01	225.62
987.30	225.62
987.59	225.62
987.89	225.62
988.18	225.58
988.47	225.57
988.76	225.56
989.05	225.56
989.34	225.54
989.63	225.56
989.92	225.55
990.22	225.54
990.51	225.54
990.80	225.53
991.09	225.55
991.38	225.56
991.67	225.55
991.96	225.55
992.25	225.56
992.54	225.55
992.83	225.56
993.12	225.56
993.41	225.57
993.70	225.62
993.99	225.65
994.28	225.67
994.58	225.69
994.87	225.68
995.16	225.68
995.45	225.67
995.74	225.62
996.03	225.64
996.32	225.67
996.61	225.69
996.90	225.69
997.19	225.68
997.48	225.68
997.77	225.67
998.06	225.67
998.34	225.65
998.63	225.65
998.92	225.65
999.21	225.68
999.50	225.69
999.79	225.65
1000.08	225.64
1000.37	225.64
1000.66	225.61
1000.95	225.65
1001.24	225.67
1001.53	225.68
1001.82	225.69
1002.11	225.66
1002.40	225.66
1002.68	225.68
1002.97	225.76
1003.26	225.74
1003.55	225.72
1003.84	225.73
1004.13	225.77
1004.42	225.77
1004.71	225.76
1004.99	225.76
1005.28	225.79
1005.57	225.78
1005.86	225.77
1006.15	225.76
1006.44	225.74
1006.72	225.76
1007.01	225.73
1007.30	225.73
1007.59	225.72
1007.88	225.72
1008.17	225.73
1008.45	225.70
1008.74	225.65
1009.03	225.60
1009.32	225.61
1009.60	225.61
1009.89	225.60
1010.18	225.55
1010.47	225.55
1010.76	225.55
1011.04	225.55
1011.33	225.54
1011.62	225.54
1011.91	225.55
1012.19	225.56
1012.48	225.56
1012.77	225.55
1013.05	225.59
1013.34	225.58
1013.63	225.58
1013.92	225.59
1014.20	225.58
1014.49	225.59
1014.78	225.61
1015.06	225.57
1015.35	225.57
1015.64	225.59
1015.92	225.61
1016.21	225.62
1016.50	225.62
1016.78	225.63
1017.07	225.64
1017.36	225.62
1017.64	225.59
1017.93	225.60
1018.22	225.59
1018.50	225.58
1018.79	225.59
1019.08	225.55
1019.36	225.55
1019.65	225.53
1019.93	225.57
1020.22	225.59
1020.51	225.65
1020.79	225.64
1021.08	225.44
1021.36	225.31
1021.65	225.67
1021.94	225.46
1022.22	225.57
1022.51	225.34
1022.79	226.26
1023.08	225.89
1023.36	227.11
1023.65	225.34
>>>>>End Processed Spectral Data<<<<<
