SpectraSuite Data File
++++++++++++++++++++++++++++++++++++
Date: Sun Oct 04 12:41:23 EDT 2015
User: lab3
Dark Spectrum Present: No
Reference Spectrum Present: No
Number of Sampled Component Spectra: 1
Spectrometers: USB2E7196
Integration Time (usec): 46000 (USB2E7196)
Spectra Averaged: 24000 (USB2E7196)
Boxcar Smoothing: 10 (USB2E7196)
Correct for Electrical Dark: No (USB2E7196)
Strobe/Lamp Enabled: No (USB2E7196)
Correct for Detector Non-linearity: No (USB2E7196)
Correct for Stray Light: No (USB2E7196)
Number of Pixels in Processed Spectrum: 2048
>>>>>Begin Processed Spectral Data<<<<<
339.09	0.00
339.48	213.39
339.86	214.89
340.24	216.25
340.63	217.71
341.01	220.99
341.39	220.39
341.78	221.77
342.16	223.02
342.54	223.42
342.93	211.90
343.31	222.61
343.69	223.15
344.07	223.61
344.46	224.05
344.84	224.44
345.22	224.66
345.60	224.92
345.99	225.12
346.37	225.26
346.75	225.37
347.13	225.45
347.52	225.52
347.90	225.62
348.28	225.65
348.66	225.72
349.05	225.71
349.43	225.77
349.81	225.83
350.19	225.89
350.57	225.96
350.96	226.04
351.34	226.14
351.72	226.24
352.10	226.35
352.48	226.42
352.87	226.47
353.25	226.54
353.63	226.60
354.01	226.66
354.39	226.74
354.77	226.82
355.15	226.92
355.54	226.97
355.92	226.99
356.30	227.07
356.68	227.22
357.06	227.30
357.44	227.35
357.82	227.40
358.20	227.52
358.58	227.58
358.97	227.64
359.35	227.73
359.73	227.81
360.11	227.86
360.49	227.91
360.87	227.96
361.25	228.03
361.63	228.12
362.01	228.17
362.39	228.19
362.77	228.24
363.15	228.26
363.53	228.30
363.91	228.33
364.29	228.35
364.67	228.25
365.05	228.28
365.43	228.31
365.81	228.34
366.19	228.36
366.57	228.42
366.95	228.42
367.33	228.39
367.71	228.38
368.09	228.40
368.47	228.40
368.85	228.39
369.23	228.40
369.61	228.34
369.99	228.36
370.37	228.36
370.75	228.43
371.13	228.40
371.51	228.36
371.89	228.34
372.27	228.32
372.65	228.30
373.03	228.26
373.41	228.21
373.78	228.16
374.16	228.06
374.54	227.97
374.92	227.92
375.30	227.88
375.68	227.82
376.06	227.77
376.44	227.72
376.82	227.68
377.19	227.63
377.57	227.58
377.95	227.49
378.33	227.43
378.71	227.27
379.09	227.22
379.47	227.20
379.84	227.13
380.22	227.07
380.60	227.00
380.98	226.95
381.36	226.90
381.73	226.84
382.11	226.82
382.49	226.78
382.87	226.72
383.25	226.68
383.62	226.79
384.00	226.72
384.38	226.68
384.76	226.67
385.13	226.67
385.51	226.63
385.89	226.58
386.27	226.55
386.64	226.53
387.02	226.49
387.40	226.44
387.78	226.42
388.15	226.40
388.53	226.37
388.91	226.35
389.29	226.31
389.66	226.31
390.04	226.27
390.42	226.27
390.79	226.26
391.17	226.24
391.55	226.09
391.92	226.08
392.30	226.08
392.68	226.04
393.05	226.02
393.43	226.02
393.81	226.03
394.18	226.01
394.56	226.02
394.94	226.06
395.31	226.06
395.69	226.10
396.06	226.14
396.44	226.17
396.82	226.18
397.19	226.28
397.57	226.29
397.95	226.35
398.32	226.35
398.70	226.40
399.07	226.47
399.45	226.52
399.82	226.57
400.20	226.61
400.58	226.68
400.95	226.70
401.33	226.79
401.70	226.96
402.08	227.07
402.45	227.17
402.83	227.29
403.20	227.42
403.58	227.53
403.95	227.68
404.33	227.85
404.71	228.01
405.08	228.23
405.46	228.42
405.83	228.63
406.21	228.85
406.58	229.10
406.96	229.34
407.33	229.62
407.70	229.94
408.08	230.36
408.45	230.74
408.83	231.14
409.20	231.51
409.58	231.85
409.95	232.31
410.33	232.81
410.70	233.28
411.08	233.83
411.45	234.42
411.82	235.01
412.20	235.68
412.57	236.48
412.95	237.12
413.32	237.95
413.69	238.80
414.07	239.70
414.44	240.68
414.82	241.67
415.19	242.84
415.56	244.02
415.94	245.25
416.31	246.63
416.68	248.01
417.06	249.61
417.43	251.11
417.81	252.83
418.18	254.59
418.55	256.52
418.93	258.51
419.30	260.60
419.67	262.81
420.04	265.09
420.42	267.46
420.79	270.19
421.16	272.96
421.54	275.76
421.91	278.70
422.28	281.75
422.66	285.05
423.03	288.18
423.40	291.48
423.77	295.00
424.15	298.62
424.52	302.39
424.89	306.46
425.26	310.52
425.64	314.29
426.01	318.52
426.38	322.86
426.75	327.32
427.13	331.90
427.50	336.70
427.87	341.69
428.24	346.72
428.61	351.57
428.99	356.80
429.36	362.55
429.73	368.03
430.10	373.52
430.47	379.12
430.85	384.90
431.22	391.09
431.59	397.44
431.96	403.66
432.33	410.55
432.70	417.11
433.08	424.85
433.45	432.18
433.82	439.40
434.19	447.45
434.56	455.39
434.93	463.08
435.30	470.66
435.68	479.23
436.05	487.63
436.42	496.01
436.79	503.65
437.16	511.89
437.53	520.73
437.90	529.57
438.27	538.22
438.64	547.59
439.01	556.06
439.38	563.82
439.75	571.28
440.13	579.71
440.50	587.73
440.87	594.09
441.24	601.05
441.61	608.63
441.98	614.15
442.35	620.72
442.72	627.41
443.09	633.80
443.46	637.83
443.83	640.76
444.20	643.20
444.57	646.88
444.94	648.92
445.31	651.04
445.68	652.81
446.05	654.12
446.42	653.65
446.79	652.95
447.16	652.33
447.53	651.75
447.90	648.98
448.27	646.32
448.64	642.32
449.01	639.51
449.37	634.00
449.74	629.04
450.11	622.62
450.48	615.61
450.85	608.62
451.22	602.66
451.59	596.84
451.96	591.57
452.33	583.92
452.70	577.15
453.07	568.89
453.43	560.67
453.80	552.68
454.17	545.02
454.54	538.01
454.91	530.06
455.28	522.62
455.65	515.60
456.02	508.17
456.38	502.22
456.75	494.55
457.12	488.39
457.49	482.16
457.86	476.33
458.23	471.20
458.59	465.51
458.96	459.65
459.33	454.51
459.70	449.27
460.07	445.30
460.43	440.63
460.80	436.25
461.17	432.46
461.54	428.33
461.91	424.46
462.27	420.53
462.64	417.38
463.01	413.72
463.38	410.04
463.74	406.76
464.11	403.84
464.48	401.21
464.85	398.34
465.21	396.17
465.58	393.74
465.95	390.95
466.32	388.74
466.68	386.57
467.05	384.38
467.42	382.24
467.78	379.92
468.15	377.78
468.52	376.22
468.88	374.12
469.25	372.20
469.62	370.66
469.98	368.99
470.35	367.49
470.72	366.13
471.08	364.75
471.45	363.58
471.82	362.27
472.18	360.89
472.55	359.99
472.92	358.85
473.28	357.96
473.65	357.00
474.02	356.08
474.38	355.30
474.75	354.81
475.11	354.16
475.48	353.82
475.85	353.46
476.21	353.25
476.58	353.08
476.94	353.17
477.31	353.18
477.67	353.23
478.04	353.40
478.41	353.67
478.77	354.06
479.14	354.30
479.50	354.82
479.87	355.50
480.23	356.19
480.60	356.87
480.96	357.55
481.33	358.59
481.69	359.62
482.06	360.65
482.42	361.58
482.79	362.76
483.15	364.14
483.52	365.70
483.88	367.20
484.25	368.81
484.61	370.48
484.98	372.29
485.34	374.34
485.71	376.48
486.07	378.77
486.44	381.07
486.80	383.63
487.17	386.27
487.53	389.18
487.90	392.20
488.26	395.52
488.62	399.01
488.99	402.51
489.35	406.20
489.72	410.20
490.08	414.43
490.44	418.78
490.81	423.29
491.17	427.92
491.54	432.89
491.90	438.01
492.26	443.50
492.63	449.24
492.99	455.24
493.36	461.45
493.72	467.98
494.08	474.66
494.45	481.77
494.81	489.15
495.17	496.73
495.54	504.75
495.90	513.08
496.26	521.59
496.63	530.35
496.99	539.44
497.35	548.95
497.72	558.77
498.08	568.80
498.44	579.17
498.80	590.18
499.17	601.46
499.53	613.10
499.89	625.10
500.26	637.37
500.62	649.92
500.98	663.17
501.34	676.60
501.71	690.58
502.07	704.75
502.43	719.46
502.79	734.42
503.16	749.87
503.52	765.49
503.88	781.60
504.24	798.19
504.60	814.99
504.97	832.30
505.33	850.03
505.69	868.73
506.05	887.82
506.41	906.83
506.78	926.02
507.14	945.70
507.50	965.86
507.86	986.37
508.22	1007.13
508.59	1027.68
508.95	1049.04
509.31	1071.18
509.67	1094.12
510.03	1117.08
510.39	1140.03
510.75	1163.09
511.12	1186.46
511.48	1209.99
511.84	1233.50
512.20	1257.46
512.56	1282.38
512.92	1307.32
513.28	1331.76
513.64	1356.43
514.00	1381.59
514.37	1407.13
514.73	1432.57
515.09	1457.86
515.45	1483.45
515.81	1509.25
516.17	1535.11
516.53	1560.51
516.89	1585.74
517.25	1611.13
517.61	1636.33
517.97	1661.99
518.33	1687.20
518.69	1712.33
519.05	1737.89
519.41	1763.72
519.77	1789.83
520.13	1815.03
520.49	1840.15
520.85	1865.64
521.21	1890.79
521.57	1916.25
521.93	1941.06
522.29	1966.47
522.65	1991.26
523.01	2016.04
523.37	2040.33
523.73	2065.43
524.09	2090.10
524.45	2114.56
524.81	2138.63
525.17	2162.52
525.53	2185.77
525.89	2209.50
526.25	2233.29
526.61	2256.06
526.97	2278.96
527.33	2301.71
527.68	2324.24
528.04	2345.85
528.40	2366.53
528.76	2387.21
529.12	2407.41
529.48	2427.42
529.84	2445.39
530.20	2464.13
530.56	2482.15
530.91	2500.31
531.27	2518.13
531.63	2535.04
531.99	2551.43
532.35	2567.04
532.71	2582.90
533.07	2599.44
533.42	2613.99
533.78	2629.52
534.14	2645.35
534.50	2660.21
534.86	2674.77
535.21	2687.20
535.57	2700.28
535.93	2713.15
536.29	2724.92
536.65	2736.43
537.00	2747.04
537.36	2758.80
537.72	2769.12
538.08	2778.87
538.44	2787.86
538.79	2796.34
539.15	2804.14
539.51	2811.62
539.87	2818.47
540.22	2823.11
540.58	2827.88
540.94	2833.91
541.29	2838.34
541.65	2840.86
542.01	2842.55
542.37	2843.57
542.72	2846.13
543.08	2846.80
543.44	2848.03
543.79	2848.24
544.15	2847.60
544.51	2847.41
544.87	2846.00
545.22	2843.76
545.58	2840.84
545.94	2837.93
546.29	2833.80
546.65	2829.59
547.01	2825.24
547.36	2821.71
547.72	2818.47
548.07	2813.32
548.43	2806.72
548.79	2799.01
549.14	2792.65
549.50	2786.71
549.86	2779.75
550.21	2771.58
550.57	2764.45
550.92	2754.90
551.28	2745.84
551.64	2737.30
551.99	2728.40
552.35	2718.83
552.70	2709.53
553.06	2700.62
553.41	2691.10
553.77	2681.34
554.13	2671.52
554.48	2660.82
554.84	2648.76
555.19	2637.05
555.55	2625.54
555.90	2614.12
556.26	2603.35
556.61	2591.39
556.97	2577.74
557.32	2564.51
557.68	2551.37
558.03	2537.88
558.39	2525.83
558.74	2514.10
559.10	2500.51
559.45	2487.01
559.81	2474.19
560.16	2460.79
560.52	2447.73
560.87	2435.06
561.23	2421.61
561.58	2408.10
561.94	2394.37
562.29	2380.03
562.64	2366.51
563.00	2352.67
563.35	2339.17
563.71	2325.52
564.06	2311.80
564.42	2298.92
564.77	2285.57
565.12	2272.06
565.48	2258.53
565.83	2244.84
566.19	2231.34
566.54	2217.74
566.89	2203.04
567.25	2188.57
567.60	2175.52
567.96	2161.46
568.31	2145.99
568.66	2131.16
569.02	2117.64
569.37	2104.09
569.72	2091.11
570.08	2076.84
570.43	2062.15
570.78	2047.39
571.14	2031.86
571.49	2016.97
571.84	2002.63
572.20	1987.06
572.55	1971.66
572.90	1956.29
573.26	1941.04
573.61	1925.24
573.96	1909.92
574.31	1894.88
574.67	1879.88
575.02	1863.72
575.37	1847.71
575.72	1832.62
576.08	1817.86
576.43	1802.01
576.78	1786.54
577.13	1771.32
577.49	1756.49
577.84	1742.33
578.19	1727.21
578.54	1712.24
578.90	1696.75
579.25	1681.17
579.60	1667.22
579.95	1653.21
580.30	1638.97
580.66	1624.42
581.01	1609.84
581.36	1595.24
581.71	1581.63
582.06	1567.94
582.42	1554.47
582.77	1541.08
583.12	1527.67
583.47	1514.13
583.82	1500.72
584.17	1486.97
584.53	1472.93
584.88	1459.23
585.23	1445.16
585.58	1431.85
585.93	1418.73
586.28	1406.40
586.63	1393.99
586.98	1381.16
587.34	1368.38
587.69	1355.37
588.04	1342.68
588.39	1330.33
588.74	1318.16
589.09	1305.77
589.44	1292.97
589.79	1280.84
590.14	1268.78
590.49	1256.63
590.84	1244.63
591.19	1233.01
591.54	1221.18
591.89	1209.50
592.25	1198.04
592.60	1186.19
592.95	1174.79
593.30	1163.66
593.65	1152.22
594.00	1140.94
594.35	1130.22
594.70	1119.04
595.05	1108.73
595.40	1098.33
595.75	1087.76
596.10	1077.71
596.45	1067.44
596.80	1057.53
597.15	1047.31
597.50	1037.27
597.85	1027.66
598.19	1017.88
598.54	1008.15
598.89	998.93
599.24	990.00
599.59	980.84
599.94	972.59
600.29	964.17
600.64	955.48
600.99	946.43
601.34	937.72
601.69	928.67
602.04	920.34
602.39	911.81
602.74	903.36
603.08	894.86
603.43	886.33
603.78	877.98
604.13	869.75
604.48	861.57
604.83	853.55
605.18	845.47
605.53	837.58
605.87	829.54
606.22	821.73
606.57	813.88
606.92	805.98
607.27	798.02
607.62	790.34
607.96	783.05
608.31	776.21
608.66	769.16
609.01	762.40
609.36	755.72
609.70	748.88
610.05	742.01
610.40	735.42
610.75	728.79
611.10	722.53
611.44	716.11
611.79	709.79
612.14	703.39
612.49	697.08
612.83	691.05
613.18	685.14
613.53	679.19
613.88	673.24
614.22	667.66
614.57	662.05
614.92	656.31
615.27	650.66
615.61	645.07
615.96	639.56
616.31	634.04
616.65	628.57
617.00	623.29
617.35	618.13
617.70	612.99
618.04	607.95
618.39	602.81
618.74	597.90
619.08	593.03
619.43	588.31
619.78	583.57
620.12	578.81
620.47	574.18
620.82	569.67
621.16	565.24
621.51	560.71
621.85	556.21
622.20	551.86
622.55	547.57
622.89	543.35
623.24	539.14
623.59	534.95
623.93	530.93
624.28	527.01
624.62	523.18
624.97	519.40
625.32	515.55
625.66	511.69
626.01	507.81
626.35	503.99
626.70	500.21
627.04	496.63
627.39	492.95
627.73	489.46
628.08	486.05
628.43	482.63
628.77	479.28
629.12	476.05
629.46	472.87
629.81	469.58
630.15	466.28
630.50	463.09
630.84	459.95
631.19	456.87
631.53	453.88
631.88	450.86
632.22	447.86
632.57	445.14
632.91	442.45
633.26	439.85
633.60	437.27
633.95	434.74
634.29	432.13
634.64	429.59
634.98	426.88
635.32	424.29
635.67	421.90
636.01	419.45
636.36	417.03
636.70	414.72
637.05	412.44
637.39	410.20
637.73	407.97
638.08	405.86
638.42	403.74
638.77	401.48
639.11	399.17
639.45	396.94
639.80	394.67
640.14	392.49
640.49	390.30
640.83	388.09
641.17	385.98
641.52	383.92
641.86	381.89
642.20	380.05
642.55	378.07
642.89	376.11
643.23	374.24
643.58	372.53
643.92	370.70
644.26	368.93
644.61	367.20
644.95	365.45
645.29	363.63
645.64	361.82
645.98	360.12
646.32	358.53
646.66	356.93
647.01	355.36
647.35	353.82
647.69	352.27
648.04	350.84
648.38	349.35
648.72	347.87
649.06	346.40
649.41	344.93
649.75	343.52
650.09	342.13
650.43	340.74
650.78	339.32
651.12	337.94
651.46	336.60
651.80	335.29
652.14	334.01
652.49	332.78
652.83	331.52
653.17	330.31
653.51	329.13
653.85	328.00
654.20	326.83
654.54	325.60
654.88	324.44
655.22	323.33
655.56	322.20
655.90	321.14
656.25	320.11
656.59	319.06
656.93	318.08
657.27	317.11
657.61	316.08
657.95	315.11
658.29	314.13
658.64	313.20
658.98	312.26
659.32	311.36
659.66	310.50
660.00	309.67
660.34	308.83
660.68	307.97
661.02	307.08
661.36	306.23
661.70	305.43
662.05	304.65
662.39	303.87
662.73	303.16
663.07	302.46
663.41	301.71
663.75	300.96
664.09	300.23
664.43	299.45
664.77	298.76
665.11	298.02
665.45	297.35
665.79	296.69
666.13	296.00
666.47	295.29
666.81	294.57
667.15	293.83
667.49	293.19
667.83	292.61
668.17	291.99
668.51	291.42
668.85	290.87
669.19	290.36
669.53	289.75
669.87	289.14
670.21	288.54
670.55	288.00
670.89	287.53
671.23	287.00
671.57	286.50
671.91	286.04
672.25	285.60
672.58	285.17
672.92	284.65
673.26	284.21
673.60	283.78
673.94	283.37
674.28	282.99
674.62	282.57
674.96	282.10
675.30	281.70
675.64	281.26
675.97	280.81
676.31	280.33
676.65	279.90
676.99	279.54
677.33	279.11
677.67	278.71
678.01	278.24
678.34	277.85
678.68	277.48
679.02	277.05
679.36	276.63
679.70	276.21
680.04	275.84
680.37	275.47
680.71	275.11
681.05	274.76
681.39	274.37
681.73	273.97
682.06	273.59
682.40	273.22
682.74	272.90
683.08	272.63
683.42	272.29
683.75	271.99
684.09	271.60
684.43	271.29
684.77	270.96
685.10	270.68
685.44	270.37
685.78	270.05
686.12	269.76
686.45	269.45
686.79	269.12
687.13	268.83
687.46	268.50
687.80	268.20
688.14	267.85
688.48	267.56
688.81	267.27
689.15	267.00
689.49	266.69
689.82	266.38
690.16	266.00
690.50	265.71
690.83	265.41
691.17	265.11
691.51	264.81
691.84	264.53
692.18	264.22
692.52	263.91
692.85	263.62
693.19	263.36
693.52	263.08
693.86	262.80
694.20	262.51
694.53	262.24
694.87	261.94
695.21	261.66
695.54	261.38
695.88	261.09
696.21	260.77
696.55	260.50
696.88	260.23
697.22	259.97
697.56	259.70
697.89	259.39
698.23	259.13
698.56	258.83
698.90	258.57
699.23	258.28
699.57	258.01
699.90	257.72
700.24	257.42
700.58	257.18
700.91	256.95
701.25	256.80
701.58	256.60
701.92	256.39
702.25	256.15
702.59	255.89
702.92	255.66
703.26	255.41
703.59	255.15
703.93	255.00
704.26	254.77
704.60	254.52
704.93	254.27
705.26	254.01
705.60	253.81
705.93	253.54
706.27	253.35
706.60	253.15
706.94	252.97
707.27	252.71
707.61	252.46
707.94	252.20
708.27	251.84
708.61	251.54
708.94	251.27
709.28	251.04
709.61	250.81
709.94	250.60
710.28	250.39
710.61	250.20
710.95	249.88
711.28	249.74
711.61	249.52
711.95	249.35
712.28	249.13
712.61	248.90
712.95	248.76
713.28	248.61
713.61	248.37
713.95	248.12
714.28	247.93
714.61	247.72
714.95	247.52
715.28	247.33
715.61	247.14
715.95	246.97
716.28	246.79
716.61	246.63
716.95	246.43
717.28	246.23
717.61	246.03
717.94	245.85
718.28	245.58
718.61	245.39
718.94	245.18
719.27	245.00
719.61	244.84
719.94	244.63
720.27	244.37
720.60	244.19
720.94	244.02
721.27	243.85
721.60	243.70
721.93	243.53
722.27	243.40
722.60	243.25
722.93	243.06
723.26	242.90
723.59	242.70
723.93	242.54
724.26	242.39
724.59	242.21
724.92	242.07
725.25	241.96
725.59	241.81
725.92	241.68
726.25	241.53
726.58	241.38
726.91	241.23
727.24	241.10
727.57	240.96
727.91	240.80
728.24	240.68
728.57	240.53
728.90	240.40
729.23	240.22
729.56	240.13
729.89	239.99
730.22	239.84
730.55	239.71
730.89	239.57
731.22	239.43
731.55	239.30
731.88	239.17
732.21	239.01
732.54	238.88
732.87	238.75
733.20	238.63
733.53	238.51
733.86	238.39
734.19	238.25
734.52	238.15
734.85	238.12
735.18	237.97
735.51	237.88
735.84	237.77
736.17	237.69
736.50	237.52
736.83	237.55
737.16	237.45
737.49	237.35
737.82	237.24
738.15	237.15
738.48	237.04
738.81	236.92
739.14	236.81
739.47	236.69
739.80	236.57
740.13	236.47
740.46	236.35
740.79	236.22
741.12	236.12
741.45	235.99
741.78	235.81
742.11	235.75
742.44	235.61
742.77	235.53
743.10	235.40
743.43	235.29
743.75	235.06
744.08	235.16
744.41	235.05
744.74	234.95
745.07	234.83
745.40	234.76
745.73	234.72
746.06	234.64
746.39	234.57
746.71	234.48
747.04	234.38
747.37	234.29
747.70	234.23
748.03	234.16
748.36	234.10
748.68	234.01
749.01	233.89
749.34	233.81
749.67	233.73
750.00	233.67
750.33	233.69
750.65	233.62
750.98	233.35
751.31	233.27
751.64	233.21
751.97	233.20
752.29	233.11
752.62	232.97
752.95	232.89
753.28	232.79
753.60	232.71
753.93	232.67
754.26	232.61
754.59	232.49
754.91	232.40
755.24	232.31
755.57	232.30
755.90	232.22
756.22	232.14
756.55	232.04
756.88	231.94
757.20	231.79
757.53	231.68
757.86	231.61
758.19	231.55
758.51	231.48
758.84	231.35
759.17	231.27
759.49	231.21
759.82	231.21
760.15	231.16
760.47	231.10
760.80	231.00
761.13	230.95
761.45	230.90
761.78	230.84
762.11	230.79
762.43	230.66
762.76	230.61
763.08	230.57
763.41	230.53
763.74	230.48
764.06	230.43
764.39	230.38
764.71	230.33
765.04	230.27
765.37	230.21
765.69	230.16
766.02	230.11
766.34	230.05
766.67	229.96
767.00	229.93
767.32	229.95
767.65	229.99
767.97	229.93
768.30	229.89
768.62	229.84
768.95	229.78
769.27	229.74
769.60	229.72
769.92	229.65
770.25	229.59
770.57	229.52
770.90	229.48
771.22	229.42
771.55	229.38
771.87	229.35
772.20	229.31
772.52	229.38
772.85	229.50
773.17	229.46
773.50	229.42
773.82	229.36
774.15	229.26
774.47	229.14
774.80	229.09
775.12	229.06
775.45	229.02
775.77	229.00
776.09	228.98
776.42	228.94
776.74	228.96
777.07	228.92
777.39	228.90
777.72	228.86
778.04	228.85
778.36	228.81
778.69	228.78
779.01	228.77
779.33	228.63
779.66	228.45
779.98	228.42
780.31	228.40
780.63	228.43
780.95	228.42
781.28	228.39
781.60	228.36
781.92	228.34
782.25	228.31
782.57	228.29
782.89	228.25
783.22	228.22
783.54	228.17
783.86	228.15
784.19	228.12
784.51	228.14
784.83	228.10
785.16	228.07
785.48	228.06
785.80	228.03
786.12	228.02
786.45	228.00
786.77	227.99
787.09	227.96
787.42	227.88
787.74	227.86
788.06	227.85
788.38	227.83
788.71	227.80
789.03	227.79
789.35	227.78
789.67	227.75
789.99	227.74
790.32	227.71
790.64	227.70
790.96	227.80
791.28	227.74
791.61	227.71
791.93	227.70
792.25	227.68
792.57	227.75
792.89	227.71
793.21	227.70
793.54	227.67
793.86	227.64
794.18	227.63
794.50	227.59
794.82	227.58
795.14	227.58
795.47	227.58
795.79	227.56
796.11	227.52
796.43	227.50
796.75	227.48
797.07	227.48
797.39	227.45
797.71	227.33
798.04	227.33
798.36	227.32
798.68	227.30
799.00	227.30
799.32	227.22
799.64	227.23
799.96	227.21
800.28	227.22
800.60	227.20
800.92	227.19
801.24	227.17
801.56	227.17
801.89	227.14
802.21	227.13
802.53	227.10
802.85	227.11
803.17	227.16
803.49	227.13
803.81	227.10
804.13	227.08
804.45	227.05
804.77	227.05
805.09	227.03
805.41	227.01
805.73	226.98
806.05	226.93
806.37	226.91
806.69	226.89
807.01	226.86
807.33	226.86
807.65	226.81
807.97	226.85
808.28	226.82
808.60	226.81
808.92	226.78
809.24	226.85
809.56	226.81
809.88	226.75
810.20	226.75
810.52	226.77
810.84	226.74
811.16	226.72
811.48	226.70
811.80	226.73
812.12	226.72
812.43	226.74
812.75	226.73
813.07	226.71
813.39	226.71
813.71	226.69
814.03	226.66
814.35	226.66
814.67	226.60
814.98	226.58
815.30	226.57
815.62	226.54
815.94	226.45
816.26	226.46
816.58	226.43
816.89	226.43
817.21	226.39
817.53	226.39
817.85	226.39
818.17	226.38
818.48	226.32
818.80	226.34
819.12	226.30
819.44	226.28
819.76	226.26
820.07	226.25
820.39	226.24
820.71	226.24
821.03	226.24
821.34	226.22
821.66	226.23
821.98	226.24
822.30	226.23
822.61	226.30
822.93	226.27
823.25	226.27
823.57	226.25
823.88	226.26
824.20	226.25
824.52	226.26
824.83	226.25
825.15	226.23
825.47	226.22
825.79	226.22
826.10	226.21
826.42	226.20
826.74	226.20
827.05	226.19
827.37	226.19
827.69	226.17
828.00	226.18
828.32	226.17
828.64	226.14
828.95	226.21
829.27	226.16
829.58	226.16
829.90	226.18
830.22	226.18
830.53	226.16
830.85	226.14
831.17	226.10
831.48	226.10
831.80	226.10
832.11	226.09
832.43	226.06
832.75	226.06
833.06	226.13
833.38	226.09
833.69	226.09
834.01	226.09
834.32	226.08
834.64	226.06
834.96	226.06
835.27	226.06
835.59	226.01
835.90	225.98
836.22	225.97
836.53	225.94
836.85	225.92
837.16	226.05
837.48	226.05
837.79	226.09
838.11	226.09
838.42	226.09
838.74	226.10
839.05	226.09
839.37	226.08
839.68	226.00
840.00	226.00
840.31	226.01
840.63	225.99
840.94	225.98
841.26	225.97
841.57	225.96
841.88	225.97
842.20	225.95
842.51	225.93
842.83	225.92
843.14	226.04
843.46	226.03
843.77	225.95
844.08	225.95
844.40	225.90
844.71	225.89
845.03	225.87
845.34	225.86
845.65	225.86
845.97	225.86
846.28	225.86
846.60	225.87
846.91	225.85
847.22	225.84
847.54	225.87
847.85	225.87
848.16	225.86
848.48	225.83
848.79	225.88
849.10	225.90
849.42	225.90
849.73	225.77
850.04	225.77
850.36	225.73
850.67	225.75
850.98	225.75
851.30	225.76
851.61	225.76
851.92	225.75
852.23	225.79
852.55	225.80
852.86	225.80
853.17	225.80
853.49	225.83
853.80	225.85
854.11	225.86
854.42	225.87
854.74	225.86
855.05	225.86
855.36	225.79
855.67	225.80
855.99	225.80
856.30	225.95
856.61	225.94
856.92	225.94
857.23	225.94
857.55	225.93
857.86	225.92
858.17	225.94
858.48	225.91
858.79	225.88
859.11	225.89
859.42	225.88
859.73	225.86
860.04	225.85
860.35	225.81
860.66	225.77
860.98	225.76
861.29	225.78
861.60	225.77
861.91	225.80
862.22	225.78
862.53	225.75
862.84	225.60
863.16	225.63
863.47	225.61
863.78	225.59
864.09	225.59
864.40	225.60
864.71	225.60
865.02	225.62
865.33	225.60
865.64	225.58
865.95	225.58
866.27	225.65
866.58	225.64
866.89	225.66
867.20	225.66
867.51	225.64
867.82	225.62
868.13	225.66
868.44	225.63
868.75	225.65
869.06	225.66
869.37	225.67
869.68	225.64
869.99	225.66
870.30	225.67
870.61	225.68
870.92	225.66
871.23	225.64
871.54	225.66
871.85	225.69
872.16	225.70
872.47	225.69
872.78	225.62
873.09	225.63
873.40	225.61
873.71	225.62
874.02	225.63
874.33	225.62
874.64	225.59
874.95	225.61
875.26	225.58
875.56	225.58
875.87	225.58
876.18	225.57
876.49	225.69
876.80	225.68
877.11	225.65
877.42	225.66
877.73	225.66
878.04	225.64
878.35	225.63
878.66	225.64
878.96	225.63
879.27	225.63
879.58	225.62
879.89	225.61
880.20	225.65
880.51	225.64
880.82	225.64
881.12	225.65
881.43	225.62
881.74	225.61
882.05	225.60
882.36	225.60
882.67	225.61
882.97	225.47
883.28	225.46
883.59	225.46
883.90	225.47
884.21	225.49
884.51	225.48
884.82	225.46
885.13	225.46
885.44	225.46
885.74	225.46
886.05	225.45
886.36	225.45
886.67	225.40
886.98	225.47
887.28	225.48
887.59	225.47
887.90	225.48
888.20	225.48
888.51	225.50
888.82	225.47
889.13	225.48
889.43	225.59
889.74	225.59
890.05	225.59
890.35	225.57
890.66	225.55
890.97	225.54
891.28	225.53
891.58	225.53
891.89	225.53
892.20	225.51
892.50	225.50
892.81	225.49
893.12	225.49
893.42	225.43
893.73	225.43
894.04	225.43
894.34	225.43
894.65	225.43
894.95	225.42
895.26	225.42
895.57	225.47
895.87	225.35
896.18	225.37
896.48	225.38
896.79	225.38
897.10	225.40
897.40	225.41
897.71	225.42
898.01	225.41
898.32	225.42
898.63	225.42
898.93	225.42
899.24	225.43
899.54	225.42
899.85	225.42
900.15	225.41
900.46	225.41
900.76	225.42
901.07	225.42
901.38	225.41
901.68	225.43
901.99	225.36
902.29	225.37
902.60	225.36
902.90	225.35
903.21	225.35
903.51	225.33
903.82	225.35
904.12	225.35
904.43	225.36
904.73	225.35
905.03	225.36
905.34	225.48
905.64	225.47
905.95	225.47
906.25	225.47
906.56	225.47
906.86	225.46
907.17	225.45
907.47	225.46
907.77	225.45
908.08	225.42
908.38	225.43
908.69	225.44
908.99	225.46
909.30	225.47
909.60	225.46
909.90	225.46
910.21	225.42
910.51	225.40
910.81	225.40
911.12	225.41
911.42	225.41
911.73	225.28
912.03	225.29
912.33	225.31
912.64	225.31
912.94	225.30
913.24	225.28
913.55	225.27
913.85	225.26
914.15	225.29
914.46	225.30
914.76	225.29
915.06	225.28
915.37	225.25
915.67	225.24
915.97	225.24
916.27	225.22
916.58	225.23
916.88	225.23
917.18	225.22
917.49	225.30
917.79	225.30
918.09	225.32
918.39	225.35
918.70	225.34
919.00	225.35
919.30	225.41
919.60	225.40
919.91	225.39
920.21	225.39
920.51	225.37
920.81	225.36
921.12	225.38
921.42	225.38
921.72	225.38
922.02	225.39
922.32	225.41
922.63	225.42
922.93	225.49
923.23	225.49
923.53	225.48
923.83	225.39
924.13	225.40
924.44	225.40
924.74	225.41
925.04	225.44
925.34	225.44
925.64	225.38
925.94	225.39
926.24	225.46
926.55	225.45
926.85	225.47
927.15	225.47
927.45	225.46
927.75	225.46
928.05	225.46
928.35	225.45
928.65	225.47
928.95	225.48
929.26	225.42
929.56	225.44
929.86	225.45
930.16	225.44
930.46	225.44
930.76	225.44
931.06	225.38
931.36	225.35
931.66	225.36
931.96	225.38
932.26	225.38
932.56	225.33
932.86	225.33
933.16	225.33
933.46	225.32
933.76	225.31
934.06	225.33
934.36	225.37
934.66	225.37
934.96	225.35
935.26	225.35
935.56	225.37
935.86	225.33
936.16	225.32
936.46	225.31
936.76	225.30
937.06	225.28
937.36	225.29
937.66	225.30
937.96	225.29
938.26	225.26
938.56	225.25
938.86	225.26
939.16	225.28
939.46	225.29
939.76	225.30
940.06	225.30
940.35	225.27
940.65	225.21
940.95	225.22
941.25	225.19
941.55	225.18
941.85	225.16
942.15	225.19
942.45	225.23
942.75	225.23
943.04	225.23
943.34	225.26
943.64	225.25
943.94	225.23
944.24	225.23
944.54	225.24
944.84	225.24
945.13	225.22
945.43	225.20
945.73	225.19
946.03	225.18
946.33	225.17
946.62	225.16
946.92	225.16
947.22	225.16
947.52	225.18
947.82	225.19
948.11	225.18
948.41	225.15
948.71	225.11
949.01	225.12
949.31	225.11
949.60	225.10
949.90	225.12
950.20	225.11
950.50	225.11
950.79	225.10
951.09	225.12
951.39	225.12
951.69	225.11
951.98	225.13
952.28	225.14
952.58	225.14
952.87	225.14
953.17	225.16
953.47	225.14
953.76	225.14
954.06	225.11
954.36	225.10
954.66	225.10
954.95	225.13
955.25	225.14
955.55	225.16
955.84	225.14
956.14	225.14
956.44	225.15
956.73	225.13
957.03	225.14
957.32	225.14
957.62	225.13
957.92	225.16
958.21	225.14
958.51	225.29
958.81	225.31
959.10	225.32
959.40	225.35
959.69	225.36
959.99	225.38
960.29	225.39
960.58	225.38
960.88	225.43
961.17	225.41
961.47	225.42
961.76	225.41
962.06	225.43
962.36	225.42
962.65	225.42
962.95	225.43
963.24	225.42
963.54	225.42
963.83	225.43
964.13	225.42
964.42	225.41
964.72	225.30
965.01	225.31
965.31	225.30
965.60	225.26
965.90	225.34
966.19	225.31
966.49	225.32
966.78	225.31
967.08	225.30
967.37	225.30
967.67	225.28
967.96	225.30
968.26	225.29
968.55	225.31
968.85	225.30
969.14	225.30
969.43	225.30
969.73	225.28
970.02	225.28
970.32	225.27
970.61	225.25
970.91	225.21
971.20	225.19
971.49	225.18
971.79	225.19
972.08	225.10
972.38	225.11
972.67	225.10
972.96	225.12
973.26	225.10
973.55	225.14
973.85	225.13
974.14	225.12
974.43	225.13
974.73	225.10
975.02	225.09
975.31	225.09
975.61	225.09
975.90	225.08
976.19	225.07
976.49	225.08
976.78	225.09
977.07	225.09
977.37	225.11
977.66	225.12
977.95	225.10
978.24	225.11
978.54	225.14
978.83	225.13
979.12	225.12
979.42	225.12
979.71	225.09
980.00	225.09
980.29	225.10
980.59	225.08
980.88	225.11
981.17	225.11
981.46	225.11
981.76	225.11
982.05	225.16
982.34	225.16
982.63	225.16
982.93	225.16
983.22	225.19
983.51	225.19
983.80	225.21
984.09	225.22
984.39	225.21
984.68	225.19
984.97	225.20
985.26	225.19
985.55	225.20
985.85	225.18
986.14	225.19
986.43	225.21
986.72	225.20
987.01	225.16
987.30	225.16
987.59	225.15
987.89	225.15
988.18	225.11
988.47	225.10
988.76	225.09
989.05	225.08
989.34	225.07
989.63	225.10
989.92	225.08
990.22	225.06
990.51	225.06
990.80	225.05
991.09	225.06
991.38	225.08
991.67	225.07
991.96	225.06
992.25	225.06
992.54	225.03
992.83	225.04
993.12	225.04
993.41	225.06
993.70	225.11
993.99	225.14
994.28	225.16
994.58	225.18
994.87	225.17
995.16	225.16
995.45	225.15
995.74	225.11
996.03	225.13
996.32	225.15
996.61	225.17
996.90	225.18
997.19	225.17
997.48	225.17
997.77	225.15
998.06	225.16
998.34	225.15
998.63	225.15
998.92	225.15
999.21	225.17
999.50	225.17
999.79	225.13
1000.08	225.12
1000.37	225.12
1000.66	225.11
1000.95	225.14
1001.24	225.15
1001.53	225.17
1001.82	225.17
1002.11	225.14
1002.40	225.14
1002.68	225.17
1002.97	225.26
1003.26	225.24
1003.55	225.23
1003.84	225.24
1004.13	225.28
1004.42	225.28
1004.71	225.28
1004.99	225.27
1005.28	225.29
1005.57	225.28
1005.86	225.27
1006.15	225.26
1006.44	225.24
1006.72	225.25
1007.01	225.23
1007.30	225.23
1007.59	225.21
1007.88	225.21
1008.17	225.22
1008.45	225.19
1008.74	225.14
1009.03	225.08
1009.32	225.08
1009.60	225.08
1009.89	225.07
1010.18	225.01
1010.47	225.01
1010.76	225.01
1011.04	225.01
1011.33	225.00
1011.62	225.02
1011.91	225.03
1012.19	225.03
1012.48	225.04
1012.77	225.03
1013.05	225.07
1013.34	225.07
1013.63	225.07
1013.92	225.08
1014.20	225.07
1014.49	225.08
1014.78	225.09
1015.06	225.05
1015.35	225.05
1015.64	225.07
1015.92	225.08
1016.21	225.09
1016.50	225.10
1016.78	225.11
1017.07	225.11
1017.36	225.09
1017.64	225.07
1017.93	225.08
1018.22	225.07
1018.50	225.06
1018.79	225.06
1019.08	225.01
1019.36	225.02
1019.65	225.01
1019.93	225.05
1020.22	225.06
1020.51	225.13
1020.79	225.11
1021.08	224.89
1021.36	224.84
1021.65	225.08
1021.94	224.98
1022.22	225.14
1022.51	224.81
1022.79	225.71
1023.08	225.21
1023.36	226.52
1023.65	224.72
>>>>>End Processed Spectral Data<<<<<
