SpectraSuite Data File
++++++++++++++++++++++++++++++++++++
Date: Sun Oct 04 10:29:28 EDT 2015
User: lab3
Dark Spectrum Present: No
Reference Spectrum Present: No
Number of Sampled Component Spectra: 1
Spectrometers: USB2E7196
Integration Time (usec): 46000 (USB2E7196)
Spectra Averaged: 24000 (USB2E7196)
Boxcar Smoothing: 10 (USB2E7196)
Correct for Electrical Dark: No (USB2E7196)
Strobe/Lamp Enabled: No (USB2E7196)
Correct for Detector Non-linearity: No (USB2E7196)
Correct for Stray Light: No (USB2E7196)
Number of Pixels in Processed Spectrum: 2048
>>>>>Begin Processed Spectral Data<<<<<
339.09	0.00
339.48	213.62
339.86	215.04
340.24	216.45
340.63	217.87
341.01	221.15
341.39	220.56
341.78	221.98
342.16	223.21
342.54	223.57
342.93	212.07
343.31	222.78
343.69	223.31
344.07	223.78
344.46	224.21
344.84	224.60
345.22	224.83
345.60	225.09
345.99	225.28
346.37	225.42
346.75	225.53
347.13	225.61
347.52	225.69
347.90	225.78
348.28	225.82
348.66	225.88
349.05	225.88
349.43	225.94
349.81	226.00
350.19	226.06
350.57	226.13
350.96	226.21
351.34	226.31
351.72	226.41
352.10	226.52
352.48	226.59
352.87	226.64
353.25	226.71
353.63	226.77
354.01	226.83
354.39	226.91
354.77	226.98
355.15	227.09
355.54	227.13
355.92	227.16
356.30	227.24
356.68	227.39
357.06	227.46
357.44	227.51
357.82	227.57
358.20	227.69
358.58	227.75
358.97	227.81
359.35	227.90
359.73	227.98
360.11	228.03
360.49	228.09
360.87	228.14
361.25	228.20
361.63	228.28
362.01	228.33
362.39	228.36
362.77	228.41
363.15	228.43
363.53	228.47
363.91	228.50
364.29	228.53
364.67	228.43
365.05	228.45
365.43	228.48
365.81	228.51
366.19	228.53
366.57	228.59
366.95	228.59
367.33	228.55
367.71	228.55
368.09	228.57
368.47	228.56
368.85	228.55
369.23	228.56
369.61	228.50
369.99	228.53
370.37	228.52
370.75	228.60
371.13	228.57
371.51	228.53
371.89	228.51
372.27	228.49
372.65	228.47
373.03	228.43
373.41	228.38
373.78	228.33
374.16	228.23
374.54	228.15
374.92	228.10
375.30	228.06
375.68	227.99
376.06	227.95
376.44	227.89
376.82	227.85
377.19	227.80
377.57	227.75
377.95	227.66
378.33	227.60
378.71	227.44
379.09	227.40
379.47	227.36
379.84	227.30
380.22	227.23
380.60	227.16
380.98	227.11
381.36	227.06
381.73	227.00
382.11	226.98
382.49	226.94
382.87	226.88
383.25	226.84
383.62	226.94
384.00	226.88
384.38	226.84
384.76	226.82
385.13	226.82
385.51	226.78
385.89	226.73
386.27	226.70
386.64	226.68
387.02	226.64
387.40	226.59
387.78	226.58
388.15	226.55
388.53	226.52
388.91	226.49
389.29	226.46
389.66	226.46
390.04	226.42
390.42	226.42
390.79	226.41
391.17	226.39
391.55	226.23
391.92	226.22
392.30	226.23
392.68	226.19
393.05	226.17
393.43	226.17
393.81	226.18
394.18	226.16
394.56	226.17
394.94	226.20
395.31	226.21
395.69	226.25
396.06	226.28
396.44	226.31
396.82	226.33
397.19	226.42
397.57	226.43
397.95	226.48
398.32	226.48
398.70	226.53
399.07	226.60
399.45	226.64
399.82	226.70
400.20	226.74
400.58	226.80
400.95	226.82
401.33	226.92
401.70	227.09
402.08	227.20
402.45	227.29
402.83	227.42
403.20	227.55
403.58	227.65
403.95	227.80
404.33	227.97
404.71	228.13
405.08	228.36
405.46	228.55
405.83	228.75
406.21	228.97
406.58	229.22
406.96	229.46
407.33	229.73
407.70	230.04
408.08	230.46
408.45	230.83
408.83	231.24
409.20	231.60
409.58	231.94
409.95	232.39
410.33	232.89
410.70	233.35
411.08	233.90
411.45	234.48
411.82	235.07
412.20	235.74
412.57	236.54
412.95	237.17
413.32	237.99
413.69	238.83
414.07	239.72
414.44	240.69
414.82	241.68
415.19	242.83
415.56	244.01
415.94	245.24
416.31	246.60
416.68	247.97
417.06	249.55
417.43	251.04
417.81	252.75
418.18	254.50
418.55	256.40
418.93	258.38
419.30	260.45
419.67	262.65
420.04	264.91
420.42	267.26
420.79	269.98
421.16	272.72
421.54	275.51
421.91	278.43
422.28	281.46
422.66	284.73
423.03	287.84
423.40	291.12
423.77	294.62
424.15	298.22
424.52	301.96
424.89	306.02
425.26	310.05
425.64	313.80
426.01	318.01
426.38	322.33
426.75	326.76
427.13	331.31
427.50	336.08
427.87	341.04
428.24	346.05
428.61	350.88
428.99	356.09
429.36	361.81
429.73	367.27
430.10	372.74
430.47	378.32
430.85	384.07
431.22	390.25
431.59	396.59
431.96	402.78
432.33	409.66
432.70	416.19
433.08	423.91
433.45	431.22
433.82	438.43
434.19	446.45
434.56	454.39
434.93	462.05
435.30	469.61
435.68	478.18
436.05	486.56
436.42	494.92
436.79	502.53
437.16	510.76
437.53	519.58
437.90	528.40
438.27	537.04
438.64	546.38
439.01	554.83
439.38	562.56
439.75	570.00
440.13	578.39
440.50	586.38
440.87	592.71
441.24	599.63
441.61	607.18
441.98	612.66
442.35	619.18
442.72	625.83
443.09	632.16
443.46	636.13
443.83	639.02
444.20	641.42
444.57	645.05
444.94	647.03
445.31	649.10
445.68	650.81
446.05	652.04
446.42	651.51
446.79	650.75
447.16	650.07
447.53	649.42
447.90	646.60
448.27	643.89
448.64	639.85
449.01	636.99
449.37	631.45
449.74	626.45
450.11	620.00
450.48	612.97
450.85	605.96
451.22	599.97
451.59	594.13
451.96	588.84
452.33	581.18
452.70	574.41
453.07	566.15
453.43	557.95
453.80	549.97
454.17	542.33
454.54	535.33
454.91	527.40
455.28	519.99
455.65	513.00
456.02	505.60
456.38	499.67
456.75	492.04
457.12	485.92
457.49	479.72
457.86	473.92
458.23	468.83
458.59	463.18
458.96	457.38
459.33	452.28
459.70	447.08
460.07	443.13
460.43	438.50
460.80	434.18
461.17	430.42
461.54	426.32
461.91	422.50
462.27	418.61
462.64	415.48
463.01	411.87
463.38	408.22
463.74	404.97
464.11	402.07
464.48	399.47
464.85	396.62
465.21	394.48
465.58	392.06
465.95	389.30
466.32	387.11
466.68	384.96
467.05	382.79
467.42	380.68
467.78	378.38
468.15	376.27
468.52	374.72
468.88	372.65
469.25	370.75
469.62	369.23
469.98	367.57
470.35	366.10
470.72	364.75
471.08	363.39
471.45	362.23
471.82	360.94
472.18	359.57
472.55	358.68
472.92	357.56
473.28	356.69
473.65	355.74
474.02	354.83
474.38	354.06
474.75	353.58
475.11	352.94
475.48	352.61
475.85	352.26
476.21	352.06
476.58	351.89
476.94	351.99
477.31	352.01
477.67	352.06
478.04	352.23
478.41	352.50
478.77	352.91
479.14	353.15
479.50	353.67
479.87	354.36
480.23	355.05
480.60	355.73
480.96	356.41
481.33	357.45
481.69	358.48
482.06	359.51
482.42	360.44
482.79	361.61
483.15	362.98
483.52	364.54
483.88	366.03
484.25	367.64
484.61	369.30
484.98	371.11
485.34	373.14
485.71	375.27
486.07	377.56
486.44	379.85
486.80	382.39
487.17	385.04
487.53	387.93
487.90	390.95
488.26	394.25
488.62	397.74
488.99	401.22
489.35	404.89
489.72	408.89
490.08	413.09
490.44	417.44
490.81	421.94
491.17	426.56
491.54	431.51
491.90	436.62
492.26	442.09
492.63	447.81
492.99	453.79
493.36	459.99
493.72	466.49
494.08	473.16
494.45	480.25
494.81	487.61
495.17	495.17
495.54	503.18
495.90	511.49
496.26	519.97
496.63	528.71
496.99	537.79
497.35	547.27
497.72	557.06
498.08	567.06
498.44	577.42
498.80	588.40
499.17	599.66
499.53	611.26
499.89	623.24
500.26	635.46
500.62	648.00
500.98	661.20
501.34	674.59
501.71	688.54
502.07	702.66
502.43	717.34
502.79	732.26
503.16	747.66
503.52	763.25
503.88	779.31
504.24	795.86
504.60	812.63
504.97	829.91
505.33	847.63
505.69	866.29
506.05	885.32
506.41	904.28
506.78	923.42
507.14	943.06
507.50	963.18
507.86	983.66
508.22	1004.36
508.59	1024.86
508.95	1046.20
509.31	1068.34
509.67	1091.23
510.03	1114.13
510.39	1137.04
510.75	1160.08
511.12	1183.43
511.48	1206.93
511.84	1230.42
512.20	1254.36
512.56	1279.25
512.92	1304.13
513.28	1328.53
513.64	1353.17
514.00	1378.31
514.37	1403.79
514.73	1429.21
515.09	1454.48
515.45	1480.09
515.81	1505.85
516.17	1531.73
516.53	1557.07
516.89	1582.22
517.25	1607.60
517.61	1632.80
517.97	1658.47
518.33	1683.65
518.69	1708.74
519.05	1734.31
519.41	1760.16
519.77	1786.17
520.13	1811.33
520.49	1836.42
520.85	1861.93
521.21	1886.99
521.57	1912.42
521.93	1937.23
522.29	1962.60
522.65	1987.39
523.01	2012.15
523.37	2036.45
523.73	2061.53
524.09	2086.24
524.45	2110.70
524.81	2134.74
525.17	2158.61
525.53	2181.83
525.89	2205.51
526.25	2229.29
526.61	2252.07
526.97	2274.96
527.33	2297.77
527.68	2320.29
528.04	2341.90
528.40	2362.55
528.76	2383.33
529.12	2403.54
529.48	2423.51
529.84	2441.53
530.20	2460.24
530.56	2478.26
530.91	2496.42
531.27	2514.24
531.63	2531.16
531.99	2547.65
532.35	2563.33
532.71	2579.20
533.07	2595.77
533.42	2610.37
533.78	2625.97
534.14	2641.79
534.50	2656.60
534.86	2671.14
535.21	2683.62
535.57	2696.70
535.93	2709.55
536.29	2721.27
536.65	2732.79
537.00	2743.51
537.36	2755.26
537.72	2765.56
538.08	2775.34
538.44	2784.37
538.79	2792.89
539.15	2800.69
539.51	2808.09
539.87	2814.87
540.22	2819.57
540.58	2824.37
540.94	2830.48
541.29	2834.87
541.65	2837.35
542.01	2839.13
542.37	2840.25
542.72	2842.81
543.08	2843.52
543.44	2844.81
543.79	2845.08
544.15	2844.48
544.51	2844.28
544.87	2842.91
545.22	2840.70
545.58	2837.81
545.94	2834.99
546.29	2830.88
546.65	2826.71
547.01	2822.47
547.36	2819.06
547.72	2815.77
548.07	2810.65
548.43	2804.00
548.79	2796.34
549.14	2790.06
549.50	2784.08
549.86	2777.12
550.21	2769.01
550.57	2761.92
550.92	2752.44
551.28	2743.48
551.64	2735.01
551.99	2726.16
552.35	2716.62
552.70	2707.40
553.06	2698.52
553.41	2688.99
553.77	2679.24
554.13	2669.40
554.48	2658.68
554.84	2646.65
555.19	2635.08
555.55	2623.63
555.90	2612.30
556.26	2601.56
556.61	2589.67
556.97	2576.05
557.32	2562.90
557.68	2549.77
558.03	2536.41
558.39	2524.36
558.74	2512.64
559.10	2499.06
559.45	2485.64
559.81	2472.95
560.16	2459.61
560.52	2446.57
560.87	2433.89
561.23	2420.44
561.58	2407.05
561.94	2393.36
562.29	2379.03
562.64	2365.53
563.00	2351.71
563.35	2338.30
563.71	2324.70
564.06	2311.00
564.42	2298.15
564.77	2284.78
565.12	2271.27
565.48	2257.73
565.83	2244.14
566.19	2230.67
566.54	2217.10
566.89	2202.39
567.25	2187.92
567.60	2174.84
567.96	2160.84
568.31	2145.45
568.66	2130.76
569.02	2117.26
569.37	2103.77
569.72	2090.86
570.08	2076.60
570.43	2061.96
570.78	2047.16
571.14	2031.63
571.49	2016.84
571.84	2002.60
572.20	1987.07
572.55	1971.81
572.90	1956.46
573.26	1941.17
573.61	1925.37
573.96	1910.08
574.31	1895.07
574.67	1880.05
575.02	1863.95
575.37	1847.95
575.72	1832.86
576.08	1818.09
576.43	1802.26
576.78	1786.83
577.13	1771.65
577.49	1756.85
577.84	1742.71
578.19	1727.58
578.54	1712.68
578.90	1697.21
579.25	1681.65
579.60	1667.74
579.95	1653.69
580.30	1639.43
580.66	1624.90
581.01	1610.33
581.36	1595.75
581.71	1582.20
582.06	1568.53
582.42	1555.08
582.77	1541.70
583.12	1528.29
583.47	1514.78
583.82	1501.36
584.17	1487.60
584.53	1473.51
584.88	1459.83
585.23	1445.72
585.58	1432.44
585.93	1419.33
586.28	1406.97
586.63	1394.59
586.98	1381.73
587.34	1368.93
587.69	1355.94
588.04	1343.26
588.39	1330.95
588.74	1318.77
589.09	1306.36
589.44	1293.56
589.79	1281.44
590.14	1269.40
590.49	1257.26
590.84	1245.27
591.19	1233.67
591.54	1221.87
591.89	1210.23
592.25	1198.77
592.60	1186.94
592.95	1175.56
593.30	1164.42
593.65	1152.99
594.00	1141.68
594.35	1130.99
594.70	1119.86
595.05	1109.58
595.40	1099.19
595.75	1088.65
596.10	1078.65
596.45	1068.39
596.80	1058.46
597.15	1048.25
597.50	1038.23
597.85	1028.60
598.19	1018.81
598.54	1009.10
598.89	999.86
599.24	990.93
599.59	981.78
599.94	973.57
600.29	965.15
600.64	956.47
600.99	947.42
601.34	938.73
601.69	929.67
602.04	921.34
602.39	912.82
602.74	904.36
603.08	895.85
603.43	887.33
603.78	878.97
604.13	870.76
604.48	862.56
604.83	854.54
605.18	846.45
605.53	838.56
605.87	830.48
606.22	822.68
606.57	814.82
606.92	806.91
607.27	798.91
607.62	791.22
607.96	783.94
608.31	777.10
608.66	770.05
609.01	763.29
609.36	756.62
609.70	749.76
610.05	742.88
610.40	736.27
610.75	729.65
611.10	723.38
611.44	716.95
611.79	710.63
612.14	704.22
612.49	697.91
612.83	691.87
613.18	685.99
613.53	680.02
613.88	674.07
614.22	668.51
614.57	662.91
614.92	657.15
615.27	651.49
615.61	645.90
615.96	640.37
616.31	634.83
616.65	629.36
617.00	624.09
617.35	618.92
617.70	613.80
618.04	608.75
618.39	603.62
618.74	598.71
619.08	593.86
619.43	589.13
619.78	584.41
620.12	579.66
620.47	575.05
620.82	570.55
621.16	566.10
621.51	561.55
621.85	557.03
622.20	552.70
622.55	548.40
622.89	544.18
623.24	539.95
623.59	535.76
623.93	531.74
624.28	527.81
624.62	523.97
624.97	520.18
625.32	516.34
625.66	512.47
626.01	508.59
626.35	504.76
626.70	500.98
627.04	497.37
627.39	493.70
627.73	490.19
628.08	486.78
628.43	483.36
628.77	480.01
629.12	476.79
629.46	473.58
629.81	470.29
630.15	466.99
630.50	463.80
630.84	460.67
631.19	457.59
631.53	454.60
631.88	451.58
632.22	448.59
632.57	445.87
632.91	443.18
633.26	440.58
633.60	438.00
633.95	435.47
634.29	432.85
634.64	430.32
634.98	427.59
635.32	425.01
635.67	422.62
636.01	420.16
636.36	417.74
636.70	415.46
637.05	413.18
637.39	410.94
637.73	408.70
638.08	406.59
638.42	404.45
638.77	402.19
639.11	399.88
639.45	397.66
639.80	395.37
640.14	393.20
640.49	391.01
640.83	388.80
641.17	386.69
641.52	384.63
641.86	382.59
642.20	380.76
642.55	378.77
642.89	376.81
643.23	374.93
643.58	373.22
643.92	371.39
644.26	369.61
644.61	367.88
644.95	366.13
645.29	364.31
645.64	362.50
645.98	360.80
646.32	359.21
646.66	357.60
647.01	356.03
647.35	354.49
647.69	352.94
648.04	351.52
648.38	350.01
648.72	348.53
649.06	347.06
649.41	345.60
649.75	344.19
650.09	342.80
650.43	341.42
650.78	339.99
651.12	338.60
651.46	337.27
651.80	335.96
652.14	334.67
652.49	333.44
652.83	332.18
653.17	330.97
653.51	329.78
653.85	328.65
654.20	327.48
654.54	326.24
654.88	325.09
655.22	323.97
655.56	322.85
655.90	321.79
656.25	320.75
656.59	319.69
656.93	318.71
657.27	317.73
657.61	316.71
657.95	315.74
658.29	314.75
658.64	313.82
658.98	312.89
659.32	311.98
659.66	311.12
660.00	310.29
660.34	309.45
660.68	308.58
661.02	307.70
661.36	306.85
661.70	306.04
662.05	305.25
662.39	304.46
662.73	303.75
663.07	303.04
663.41	302.29
663.75	301.55
664.09	300.81
664.43	300.04
664.77	299.34
665.11	298.61
665.45	297.93
665.79	297.27
666.13	296.57
666.47	295.86
666.81	295.14
667.15	294.40
667.49	293.76
667.83	293.17
668.17	292.56
668.51	291.98
668.85	291.44
669.19	290.93
669.53	290.32
669.87	289.70
670.21	289.11
670.55	288.56
670.89	288.08
671.23	287.56
671.57	287.05
671.91	286.59
672.25	286.15
672.58	285.71
672.92	285.19
673.26	284.76
673.60	284.33
673.94	283.92
674.28	283.53
674.62	283.11
674.96	282.64
675.30	282.23
675.64	281.79
675.97	281.34
676.31	280.86
676.65	280.43
676.99	280.07
677.33	279.64
677.67	279.24
678.01	278.76
678.34	278.37
678.68	278.00
679.02	277.56
679.36	277.15
679.70	276.73
680.04	276.36
680.37	275.97
680.71	275.61
681.05	275.25
681.39	274.87
681.73	274.46
682.06	274.07
682.40	273.70
682.74	273.38
683.08	273.10
683.42	272.76
683.75	272.46
684.09	272.08
684.43	271.76
684.77	271.43
685.10	271.15
685.44	270.83
685.78	270.51
686.12	270.22
686.45	269.90
686.79	269.58
687.13	269.28
687.46	268.95
687.80	268.65
688.14	268.30
688.48	268.01
688.81	267.71
689.15	267.45
689.49	267.13
689.82	266.82
690.16	266.44
690.50	266.15
690.83	265.84
691.17	265.53
691.51	265.24
691.84	264.96
692.18	264.64
692.52	264.33
692.85	264.03
693.19	263.78
693.52	263.49
693.86	263.20
694.20	262.91
694.53	262.64
694.87	262.34
695.21	262.06
695.54	261.77
695.88	261.48
696.21	261.17
696.55	260.90
696.88	260.62
697.22	260.35
697.56	260.08
697.89	259.77
698.23	259.50
698.56	259.20
698.90	258.94
699.23	258.65
699.57	258.37
699.90	258.09
700.24	257.79
700.58	257.54
700.91	257.32
701.25	257.17
701.58	256.96
701.92	256.75
702.25	256.51
702.59	256.25
702.92	256.01
703.26	255.76
703.59	255.49
703.93	255.34
704.26	255.10
704.60	254.85
704.93	254.60
705.26	254.35
705.60	254.14
705.93	253.87
706.27	253.67
706.60	253.48
706.94	253.29
707.27	253.03
707.61	252.78
707.94	252.51
708.27	252.14
708.61	251.85
708.94	251.59
709.28	251.36
709.61	251.12
709.94	250.91
710.28	250.70
710.61	250.51
710.95	250.18
711.28	250.05
711.61	249.83
711.95	249.65
712.28	249.43
712.61	249.20
712.95	249.06
713.28	248.91
713.61	248.67
713.95	248.42
714.28	248.23
714.61	248.02
714.95	247.82
715.28	247.63
715.61	247.44
715.95	247.27
716.28	247.08
716.61	246.93
716.95	246.72
717.28	246.53
717.61	246.33
717.94	246.15
718.28	245.87
718.61	245.68
718.94	245.47
719.27	245.30
719.61	245.14
719.94	244.92
720.27	244.66
720.60	244.48
720.94	244.31
721.27	244.14
721.60	243.99
721.93	243.81
722.27	243.68
722.60	243.53
722.93	243.34
723.26	243.18
723.59	242.97
723.93	242.82
724.26	242.66
724.59	242.49
724.92	242.34
725.25	242.23
725.59	242.08
725.92	241.95
726.25	241.80
726.58	241.65
726.91	241.49
727.24	241.36
727.57	241.22
727.91	241.06
728.24	240.93
728.57	240.78
728.90	240.65
729.23	240.47
729.56	240.38
729.89	240.24
730.22	240.09
730.55	239.96
730.89	239.82
731.22	239.68
731.55	239.54
731.88	239.41
732.21	239.25
732.54	239.11
732.87	238.98
733.20	238.86
733.53	238.74
733.86	238.62
734.19	238.48
734.52	238.38
734.85	238.35
735.18	238.20
735.51	238.11
735.84	238.00
736.17	237.92
736.50	237.74
736.83	237.77
737.16	237.66
737.49	237.56
737.82	237.45
738.15	237.36
738.48	237.25
738.81	237.14
739.14	237.02
739.47	236.91
739.80	236.79
740.13	236.69
740.46	236.57
740.79	236.44
741.12	236.34
741.45	236.21
741.78	236.03
742.11	235.96
742.44	235.83
742.77	235.74
743.10	235.62
743.43	235.51
743.75	235.28
744.08	235.38
744.41	235.27
744.74	235.17
745.07	235.04
745.40	234.97
745.73	234.93
746.06	234.85
746.39	234.78
746.71	234.68
747.04	234.58
747.37	234.49
747.70	234.43
748.03	234.35
748.36	234.29
748.68	234.20
749.01	234.08
749.34	234.00
749.67	233.92
750.00	233.86
750.33	233.87
750.65	233.80
750.98	233.53
751.31	233.46
751.64	233.39
751.97	233.38
752.29	233.29
752.62	233.16
752.95	233.07
753.28	232.98
753.60	232.90
753.93	232.85
754.26	232.79
754.59	232.67
754.91	232.59
755.24	232.50
755.57	232.48
755.90	232.41
756.22	232.32
756.55	232.23
756.88	232.13
757.20	231.98
757.53	231.87
757.86	231.80
758.19	231.74
758.51	231.67
758.84	231.53
759.17	231.46
759.49	231.40
759.82	231.40
760.15	231.35
760.47	231.28
760.80	231.19
761.13	231.15
761.45	231.09
761.78	231.04
762.11	230.98
762.43	230.86
762.76	230.81
763.08	230.77
763.41	230.72
763.74	230.67
764.06	230.62
764.39	230.57
764.71	230.52
765.04	230.46
765.37	230.39
765.69	230.35
766.02	230.30
766.34	230.24
766.67	230.14
767.00	230.12
767.32	230.14
767.65	230.17
767.97	230.11
768.30	230.07
768.62	230.03
768.95	229.97
769.27	229.92
769.60	229.89
769.92	229.83
770.25	229.76
770.57	229.70
770.90	229.65
771.22	229.60
771.55	229.56
771.87	229.53
772.20	229.49
772.52	229.56
772.85	229.68
773.17	229.64
773.50	229.59
773.82	229.53
774.15	229.43
774.47	229.31
774.80	229.27
775.12	229.23
775.45	229.19
775.77	229.16
776.09	229.14
776.42	229.11
776.74	229.12
777.07	229.09
777.39	229.07
777.72	229.03
778.04	229.02
778.36	228.98
778.69	228.95
779.01	228.93
779.33	228.79
779.66	228.62
779.98	228.58
780.31	228.57
780.63	228.59
780.95	228.59
781.28	228.56
781.60	228.53
781.92	228.51
782.25	228.49
782.57	228.46
782.89	228.43
783.22	228.39
783.54	228.34
783.86	228.33
784.19	228.29
784.51	228.31
784.83	228.27
785.16	228.24
785.48	228.22
785.80	228.20
786.12	228.18
786.45	228.16
786.77	228.15
787.09	228.12
787.42	228.05
787.74	228.03
788.06	228.02
788.38	227.99
788.71	227.97
789.03	227.95
789.35	227.95
789.67	227.91
789.99	227.91
790.32	227.87
790.64	227.87
790.96	227.97
791.28	227.90
791.61	227.88
791.93	227.87
792.25	227.85
792.57	227.92
792.89	227.88
793.21	227.87
793.54	227.84
793.86	227.81
794.18	227.80
794.50	227.76
794.82	227.74
795.14	227.74
795.47	227.75
795.79	227.73
796.11	227.69
796.43	227.67
796.75	227.65
797.07	227.65
797.39	227.63
797.71	227.51
798.04	227.50
798.36	227.50
798.68	227.48
799.00	227.47
799.32	227.39
799.64	227.40
799.96	227.39
800.28	227.40
800.60	227.38
800.92	227.37
801.24	227.35
801.56	227.35
801.89	227.32
802.21	227.31
802.53	227.27
802.85	227.29
803.17	227.33
803.49	227.29
803.81	227.26
804.13	227.24
804.45	227.21
804.77	227.21
805.09	227.19
805.41	227.17
805.73	227.13
806.05	227.09
806.37	227.06
806.69	227.04
807.01	227.02
807.33	227.01
807.65	226.96
807.97	227.00
808.28	226.97
808.60	226.96
808.92	226.93
809.24	227.00
809.56	226.97
809.88	226.91
810.20	226.91
810.52	226.92
810.84	226.90
811.16	226.88
811.48	226.85
811.80	226.89
812.12	226.87
812.43	226.89
812.75	226.89
813.07	226.87
813.39	226.87
813.71	226.84
814.03	226.82
814.35	226.82
814.67	226.76
814.98	226.74
815.30	226.73
815.62	226.70
815.94	226.61
816.26	226.61
816.58	226.58
816.89	226.59
817.21	226.55
817.53	226.55
817.85	226.55
818.17	226.54
818.48	226.48
818.80	226.50
819.12	226.47
819.44	226.44
819.76	226.42
820.07	226.41
820.39	226.41
820.71	226.41
821.03	226.41
821.34	226.39
821.66	226.40
821.98	226.41
822.30	226.40
822.61	226.47
822.93	226.44
823.25	226.44
823.57	226.41
823.88	226.42
824.20	226.41
824.52	226.42
824.83	226.42
825.15	226.40
825.47	226.38
825.79	226.39
826.10	226.38
826.42	226.37
826.74	226.37
827.05	226.37
827.37	226.36
827.69	226.35
828.00	226.35
828.32	226.34
828.64	226.32
828.95	226.38
829.27	226.34
829.58	226.34
829.90	226.35
830.22	226.36
830.53	226.33
830.85	226.32
831.17	226.28
831.48	226.28
831.80	226.28
832.11	226.27
832.43	226.25
832.75	226.24
833.06	226.31
833.38	226.27
833.69	226.27
834.01	226.26
834.32	226.26
834.64	226.24
834.96	226.24
835.27	226.23
835.59	226.18
835.90	226.16
836.22	226.15
836.53	226.12
836.85	226.10
837.16	226.23
837.48	226.22
837.79	226.26
838.11	226.27
838.42	226.26
838.74	226.27
839.05	226.26
839.37	226.25
839.68	226.17
840.00	226.17
840.31	226.18
840.63	226.17
840.94	226.15
841.26	226.14
841.57	226.13
841.88	226.14
842.20	226.12
842.51	226.10
842.83	226.09
843.14	226.21
843.46	226.20
843.77	226.12
844.08	226.12
844.40	226.07
844.71	226.06
845.03	226.04
845.34	226.03
845.65	226.02
845.97	226.02
846.28	226.03
846.60	226.03
846.91	226.01
847.22	226.00
847.54	226.03
847.85	226.03
848.16	226.02
848.48	225.99
848.79	226.03
849.10	226.05
849.42	226.05
849.73	225.93
850.04	225.93
850.36	225.88
850.67	225.90
850.98	225.90
851.30	225.91
851.61	225.91
851.92	225.90
852.23	225.94
852.55	225.94
852.86	225.95
853.17	225.95
853.49	225.98
853.80	226.00
854.11	226.01
854.42	226.02
854.74	226.01
855.05	226.01
855.36	225.95
855.67	225.95
855.99	225.95
856.30	226.10
856.61	226.10
856.92	226.10
857.23	226.10
857.55	226.08
857.86	226.07
858.17	226.09
858.48	226.07
858.79	226.04
859.11	226.05
859.42	226.04
859.73	226.03
860.04	226.01
860.35	225.97
860.66	225.94
860.98	225.93
861.29	225.94
861.60	225.93
861.91	225.96
862.22	225.94
862.53	225.92
862.84	225.76
863.16	225.79
863.47	225.77
863.78	225.75
864.09	225.76
864.40	225.77
864.71	225.76
865.02	225.78
865.33	225.76
865.64	225.74
865.95	225.74
866.27	225.81
866.58	225.80
866.89	225.81
867.20	225.81
867.51	225.79
867.82	225.78
868.13	225.82
868.44	225.79
868.75	225.81
869.06	225.82
869.37	225.83
869.68	225.80
869.99	225.82
870.30	225.83
870.61	225.84
870.92	225.82
871.23	225.81
871.54	225.82
871.85	225.85
872.16	225.87
872.47	225.86
872.78	225.79
873.09	225.80
873.40	225.78
873.71	225.79
874.02	225.80
874.33	225.79
874.64	225.76
874.95	225.79
875.26	225.76
875.56	225.76
875.87	225.75
876.18	225.74
876.49	225.86
876.80	225.85
877.11	225.83
877.42	225.84
877.73	225.84
878.04	225.82
878.35	225.81
878.66	225.81
878.96	225.81
879.27	225.80
879.58	225.79
879.89	225.79
880.20	225.82
880.51	225.82
880.82	225.82
881.12	225.82
881.43	225.79
881.74	225.78
882.05	225.77
882.36	225.78
882.67	225.79
882.97	225.65
883.28	225.64
883.59	225.64
883.90	225.65
884.21	225.66
884.51	225.66
884.82	225.64
885.13	225.64
885.44	225.64
885.74	225.64
886.05	225.63
886.36	225.64
886.67	225.59
886.98	225.65
887.28	225.66
887.59	225.66
887.90	225.67
888.20	225.66
888.51	225.69
888.82	225.66
889.13	225.67
889.43	225.78
889.74	225.78
890.05	225.77
890.35	225.76
890.66	225.74
890.97	225.72
891.28	225.71
891.58	225.71
891.89	225.71
892.20	225.69
892.50	225.68
892.81	225.67
893.12	225.67
893.42	225.60
893.73	225.60
894.04	225.60
894.34	225.61
894.65	225.60
894.95	225.59
895.26	225.60
895.57	225.65
895.87	225.52
896.18	225.55
896.48	225.55
896.79	225.55
897.10	225.57
897.40	225.58
897.71	225.59
898.01	225.58
898.32	225.59
898.63	225.59
898.93	225.60
899.24	225.60
899.54	225.60
899.85	225.60
900.15	225.59
900.46	225.59
900.76	225.59
901.07	225.59
901.38	225.59
901.68	225.60
901.99	225.53
902.29	225.54
902.60	225.53
902.90	225.51
903.21	225.51
903.51	225.50
903.82	225.52
904.12	225.52
904.43	225.53
904.73	225.52
905.03	225.53
905.34	225.64
905.64	225.64
905.95	225.64
906.25	225.64
906.56	225.63
906.86	225.63
907.17	225.62
907.47	225.63
907.77	225.62
908.08	225.59
908.38	225.60
908.69	225.61
908.99	225.63
909.30	225.64
909.60	225.64
909.90	225.64
910.21	225.60
910.51	225.58
910.81	225.58
911.12	225.59
911.42	225.59
911.73	225.46
912.03	225.47
912.33	225.49
912.64	225.48
912.94	225.47
913.24	225.45
913.55	225.44
913.85	225.43
914.15	225.45
914.46	225.47
914.76	225.45
915.06	225.45
915.37	225.42
915.67	225.41
915.97	225.42
916.27	225.40
916.58	225.40
916.88	225.40
917.18	225.39
917.49	225.48
917.79	225.47
918.09	225.49
918.39	225.52
918.70	225.51
919.00	225.52
919.30	225.58
919.60	225.57
919.91	225.56
920.21	225.57
920.51	225.54
920.81	225.53
921.12	225.55
921.42	225.55
921.72	225.56
922.02	225.56
922.32	225.58
922.63	225.59
922.93	225.66
923.23	225.66
923.53	225.65
923.83	225.56
924.13	225.58
924.44	225.57
924.74	225.59
925.04	225.61
925.34	225.61
925.64	225.55
925.94	225.55
926.24	225.63
926.55	225.62
926.85	225.63
927.15	225.63
927.45	225.63
927.75	225.63
928.05	225.62
928.35	225.61
928.65	225.63
928.95	225.64
929.26	225.58
929.56	225.60
929.86	225.62
930.16	225.61
930.46	225.60
930.76	225.60
931.06	225.54
931.36	225.50
931.66	225.52
931.96	225.54
932.26	225.55
932.56	225.49
932.86	225.50
933.16	225.50
933.46	225.49
933.76	225.47
934.06	225.49
934.36	225.53
934.66	225.53
934.96	225.50
935.26	225.51
935.56	225.52
935.86	225.49
936.16	225.47
936.46	225.46
936.76	225.46
937.06	225.44
937.36	225.45
937.66	225.45
937.96	225.44
938.26	225.41
938.56	225.40
938.86	225.41
939.16	225.44
939.46	225.45
939.76	225.46
940.06	225.46
940.35	225.44
940.65	225.37
940.95	225.38
941.25	225.35
941.55	225.34
941.85	225.33
942.15	225.36
942.45	225.39
942.75	225.39
943.04	225.40
943.34	225.43
943.64	225.41
943.94	225.40
944.24	225.40
944.54	225.41
944.84	225.40
945.13	225.39
945.43	225.36
945.73	225.35
946.03	225.34
946.33	225.33
946.62	225.32
946.92	225.31
947.22	225.32
947.52	225.33
947.82	225.35
948.11	225.33
948.41	225.31
948.71	225.27
949.01	225.28
949.31	225.27
949.60	225.26
949.90	225.28
950.20	225.28
950.50	225.28
950.79	225.26
951.09	225.28
951.39	225.28
951.69	225.27
951.98	225.30
952.28	225.30
952.58	225.30
952.87	225.31
953.17	225.33
953.47	225.31
953.76	225.31
954.06	225.29
954.36	225.27
954.66	225.27
954.95	225.30
955.25	225.31
955.55	225.32
955.84	225.30
956.14	225.31
956.44	225.32
956.73	225.30
957.03	225.31
957.32	225.31
957.62	225.30
957.92	225.33
958.21	225.31
958.51	225.45
958.81	225.47
959.10	225.49
959.40	225.51
959.69	225.52
959.99	225.54
960.29	225.54
960.58	225.54
960.88	225.58
961.17	225.57
961.47	225.58
961.76	225.56
962.06	225.59
962.36	225.57
962.65	225.58
962.95	225.59
963.24	225.58
963.54	225.58
963.83	225.59
964.13	225.58
964.42	225.57
964.72	225.46
965.01	225.46
965.31	225.45
965.60	225.42
965.90	225.50
966.19	225.47
966.49	225.48
966.78	225.47
967.08	225.46
967.37	225.46
967.67	225.44
967.96	225.46
968.26	225.46
968.55	225.48
968.85	225.47
969.14	225.47
969.43	225.47
969.73	225.45
970.02	225.45
970.32	225.44
970.61	225.42
970.91	225.39
971.20	225.37
971.49	225.36
971.79	225.37
972.08	225.28
972.38	225.29
972.67	225.28
972.96	225.30
973.26	225.27
973.55	225.31
973.85	225.31
974.14	225.29
974.43	225.30
974.73	225.27
975.02	225.26
975.31	225.26
975.61	225.26
975.90	225.25
976.19	225.24
976.49	225.25
976.78	225.26
977.07	225.27
977.37	225.27
977.66	225.29
977.95	225.27
978.24	225.28
978.54	225.31
978.83	225.30
979.12	225.29
979.42	225.29
979.71	225.27
980.00	225.27
980.29	225.27
980.59	225.25
980.88	225.29
981.17	225.28
981.46	225.28
981.76	225.28
982.05	225.32
982.34	225.33
982.63	225.33
982.93	225.33
983.22	225.36
983.51	225.37
983.80	225.38
984.09	225.40
984.39	225.39
984.68	225.37
984.97	225.38
985.26	225.37
985.55	225.38
985.85	225.36
986.14	225.37
986.43	225.39
986.72	225.38
987.01	225.34
987.30	225.34
987.59	225.33
987.89	225.33
988.18	225.30
988.47	225.28
988.76	225.27
989.05	225.26
989.34	225.24
989.63	225.27
989.92	225.25
990.22	225.23
990.51	225.23
990.80	225.22
991.09	225.23
991.38	225.24
991.67	225.23
991.96	225.22
992.25	225.22
992.54	225.19
992.83	225.20
993.12	225.19
993.41	225.21
993.70	225.27
993.99	225.29
994.28	225.31
994.58	225.33
994.87	225.31
995.16	225.31
995.45	225.30
995.74	225.26
996.03	225.28
996.32	225.30
996.61	225.32
996.90	225.32
997.19	225.31
997.48	225.31
997.77	225.30
998.06	225.31
998.34	225.30
998.63	225.30
998.92	225.30
999.21	225.33
999.50	225.32
999.79	225.28
1000.08	225.27
1000.37	225.27
1000.66	225.25
1000.95	225.29
1001.24	225.30
1001.53	225.32
1001.82	225.31
1002.11	225.28
1002.40	225.30
1002.68	225.32
1002.97	225.41
1003.26	225.40
1003.55	225.38
1003.84	225.39
1004.13	225.43
1004.42	225.43
1004.71	225.43
1004.99	225.42
1005.28	225.44
1005.57	225.43
1005.86	225.42
1006.15	225.41
1006.44	225.39
1006.72	225.41
1007.01	225.38
1007.30	225.38
1007.59	225.37
1007.88	225.37
1008.17	225.38
1008.45	225.35
1008.74	225.30
1009.03	225.24
1009.32	225.24
1009.60	225.24
1009.89	225.23
1010.18	225.18
1010.47	225.17
1010.76	225.18
1011.04	225.17
1011.33	225.17
1011.62	225.18
1011.91	225.19
1012.19	225.20
1012.48	225.20
1012.77	225.20
1013.05	225.24
1013.34	225.24
1013.63	225.24
1013.92	225.24
1014.20	225.24
1014.49	225.24
1014.78	225.26
1015.06	225.22
1015.35	225.22
1015.64	225.24
1015.92	225.26
1016.21	225.27
1016.50	225.27
1016.78	225.28
1017.07	225.29
1017.36	225.27
1017.64	225.25
1017.93	225.26
1018.22	225.24
1018.50	225.24
1018.79	225.24
1019.08	225.20
1019.36	225.20
1019.65	225.19
1019.93	225.22
1020.22	225.24
1020.51	225.31
1020.79	225.29
1021.08	225.08
1021.36	225.06
1021.65	225.23
1021.94	225.14
1022.22	225.32
1022.51	224.98
1022.79	225.85
1023.08	225.41
1023.36	226.74
1023.65	224.94
>>>>>End Processed Spectral Data<<<<<
