SpectraSuite Data File
++++++++++++++++++++++++++++++++++++
Date: Fri Oct 02 21:26:10 EDT 2015
User: lab3
Dark Spectrum Present: No
Reference Spectrum Present: No
Number of Sampled Component Spectra: 1
Spectrometers: USB2E7196
Integration Time (usec): 46000 (USB2E7196)
Spectra Averaged: 12000 (USB2E7196)
Boxcar Smoothing: 10 (USB2E7196)
Correct for Electrical Dark: No (USB2E7196)
Strobe/Lamp Enabled: No (USB2E7196)
Correct for Detector Non-linearity: No (USB2E7196)
Correct for Stray Light: No (USB2E7196)
Number of Pixels in Processed Spectrum: 2048
>>>>>Begin Processed Spectral Data<<<<<
339.09	0.00
339.48	215.45
339.86	216.95
340.24	218.29
340.63	219.72
341.01	222.93
341.39	222.43
341.78	223.80
342.16	225.04
342.54	225.45
342.93	213.81
343.31	224.62
343.69	225.15
344.07	225.61
344.46	226.05
344.84	226.43
345.22	226.66
345.60	226.91
345.99	227.10
346.37	227.24
346.75	227.35
347.13	227.42
347.52	227.49
347.90	227.58
348.28	227.62
348.66	227.68
349.05	227.68
349.43	227.73
349.81	227.79
350.19	227.84
350.57	227.91
350.96	228.00
351.34	228.09
351.72	228.18
352.10	228.29
352.48	228.36
352.87	228.41
353.25	228.48
353.63	228.54
354.01	228.60
354.39	228.68
354.77	228.75
355.15	228.86
355.54	228.91
355.92	228.93
356.30	229.01
356.68	229.15
357.06	229.23
357.44	229.28
357.82	229.33
358.20	229.45
358.58	229.51
358.97	229.57
359.35	229.65
359.73	229.74
360.11	229.79
360.49	229.85
360.87	229.89
361.25	229.96
361.63	230.04
362.01	230.10
362.39	230.13
362.77	230.17
363.15	230.20
363.53	230.23
363.91	230.27
364.29	230.29
364.67	230.19
365.05	230.22
365.43	230.25
365.81	230.28
366.19	230.30
366.57	230.36
366.95	230.36
367.33	230.33
367.71	230.32
368.09	230.34
368.47	230.34
368.85	230.33
369.23	230.34
369.61	230.28
369.99	230.30
370.37	230.30
370.75	230.37
371.13	230.34
371.51	230.30
371.89	230.28
372.27	230.25
372.65	230.23
373.03	230.19
373.41	230.15
373.78	230.10
374.16	229.99
374.54	229.91
374.92	229.86
375.30	229.82
375.68	229.75
376.06	229.71
376.44	229.65
376.82	229.61
377.19	229.56
377.57	229.51
377.95	229.42
378.33	229.36
378.71	229.20
379.09	229.15
379.47	229.12
379.84	229.05
380.22	228.99
380.60	228.91
380.98	228.87
381.36	228.82
381.73	228.75
382.11	228.73
382.49	228.69
382.87	228.63
383.25	228.58
383.62	228.68
384.00	228.62
384.38	228.58
384.76	228.56
385.13	228.56
385.51	228.52
385.89	228.47
386.27	228.44
386.64	228.42
387.02	228.38
387.40	228.33
387.78	228.30
388.15	228.28
388.53	228.25
388.91	228.23
389.29	228.19
389.66	228.19
390.04	228.15
390.42	228.15
390.79	228.13
391.17	228.11
391.55	227.96
391.92	227.95
392.30	227.95
392.68	227.91
393.05	227.89
393.43	227.89
393.81	227.90
394.18	227.88
394.56	227.88
394.94	227.91
395.31	227.91
395.69	227.96
396.06	227.98
396.44	228.01
396.82	228.02
397.19	228.10
397.57	228.11
397.95	228.16
398.32	228.15
398.70	228.20
399.07	228.27
399.45	228.30
399.82	228.35
400.20	228.38
400.58	228.44
400.95	228.45
401.33	228.53
401.70	228.68
402.08	228.78
402.45	228.86
402.83	228.98
403.20	229.09
403.58	229.18
403.95	229.32
404.33	229.46
404.71	229.60
405.08	229.81
405.46	229.97
405.83	230.15
406.21	230.34
406.58	230.55
406.96	230.76
407.33	231.01
407.70	231.28
408.08	231.66
408.45	231.98
408.83	232.33
409.20	232.65
409.58	232.94
409.95	233.33
410.33	233.76
410.70	234.16
411.08	234.64
411.45	235.14
411.82	235.65
412.20	236.23
412.57	236.93
412.95	237.47
413.32	238.18
413.69	238.91
414.07	239.69
414.44	240.53
414.82	241.38
415.19	242.39
415.56	243.41
415.94	244.46
416.31	245.64
416.68	246.83
417.06	248.20
417.43	249.49
417.81	250.97
418.18	252.49
418.55	254.14
418.93	255.85
419.30	257.64
419.67	259.55
420.04	261.49
420.42	263.52
420.79	265.89
421.16	268.26
421.54	270.68
421.91	273.20
422.28	275.82
422.66	278.64
423.03	281.34
423.40	284.16
423.77	287.19
424.15	290.29
424.52	293.52
424.89	297.01
425.26	300.49
425.64	303.72
426.01	307.35
426.38	311.06
426.75	314.89
427.13	318.81
427.50	322.93
427.87	327.20
428.24	331.53
428.61	335.67
428.99	340.17
429.36	345.08
429.73	349.79
430.10	354.50
430.47	359.32
430.85	364.29
431.22	369.63
431.59	375.12
431.96	380.47
432.33	386.42
432.70	392.09
433.08	398.78
433.45	405.11
433.82	411.35
434.19	418.31
434.56	425.18
434.93	431.81
435.30	438.38
435.68	445.79
436.05	453.05
436.42	460.28
436.79	466.87
437.16	474.00
437.53	481.62
437.90	489.24
438.27	496.71
438.64	504.74
439.01	512.03
439.38	518.68
439.75	525.10
440.13	532.32
440.50	539.17
440.87	544.61
441.24	550.55
441.61	557.04
441.98	561.73
442.35	567.31
442.72	572.99
443.09	578.38
443.46	581.75
443.83	584.19
444.20	586.19
444.57	589.23
444.94	590.88
445.31	592.59
445.68	594.01
446.05	594.98
446.42	594.42
446.79	593.67
447.16	593.00
447.53	592.36
447.90	589.84
448.27	587.41
448.64	583.84
449.01	581.30
449.37	576.46
449.74	572.06
450.11	566.45
450.48	560.33
450.85	554.23
451.22	548.99
451.59	543.89
451.96	539.26
452.33	532.62
452.70	526.74
453.07	519.58
453.43	512.45
453.80	505.54
454.17	498.95
454.54	492.88
454.91	486.04
455.28	479.64
455.65	473.61
456.02	467.27
456.38	462.15
456.75	455.58
457.12	450.30
457.49	444.97
457.86	439.97
458.23	435.59
458.59	430.74
458.96	425.78
459.33	421.42
459.70	416.99
460.07	413.64
460.43	409.67
460.80	405.99
461.17	402.80
461.54	399.32
461.91	396.08
462.27	392.80
462.64	390.15
463.01	387.08
463.38	384.00
463.74	381.21
464.11	378.76
464.48	376.56
464.85	374.16
465.21	372.36
465.58	370.34
465.95	368.01
466.32	366.16
466.68	364.35
467.05	362.52
467.42	360.73
467.78	358.80
468.15	357.03
468.52	355.75
468.88	354.00
469.25	352.40
469.62	351.15
469.98	349.77
470.35	348.54
470.72	347.44
471.08	346.30
471.45	345.36
471.82	344.30
472.18	343.17
472.55	342.45
472.92	341.53
473.28	340.82
473.65	340.04
474.02	339.31
474.38	338.70
474.75	338.34
475.11	337.85
475.48	337.62
475.85	337.37
476.21	337.24
476.58	337.15
476.94	337.29
477.31	337.36
477.67	337.44
478.04	337.64
478.41	337.93
478.77	338.35
479.14	338.60
479.50	339.09
479.87	339.74
480.23	340.38
480.60	341.01
480.96	341.66
481.33	342.61
481.69	343.56
482.06	344.51
482.42	345.38
482.79	346.46
483.15	347.70
483.52	349.12
483.88	350.47
484.25	351.93
484.61	353.45
484.98	355.09
485.34	356.95
485.71	358.88
486.07	360.95
486.44	363.00
486.80	365.31
487.17	367.71
487.53	370.32
487.90	373.07
488.26	376.05
488.62	379.19
488.99	382.34
489.35	385.65
489.72	389.25
490.08	393.03
490.44	396.94
490.81	401.01
491.17	405.18
491.54	409.66
491.90	414.29
492.26	419.25
492.63	424.43
492.99	429.84
493.36	435.44
493.72	441.33
494.08	447.38
494.45	453.79
494.81	460.46
495.17	467.31
495.54	474.54
495.90	482.07
496.26	489.78
496.63	497.74
496.99	506.00
497.35	514.65
497.72	523.58
498.08	532.71
498.44	542.18
498.80	552.19
499.17	562.46
499.53	573.02
499.89	583.96
500.26	595.13
500.62	606.60
500.98	618.67
501.34	630.93
501.71	643.70
502.07	656.68
502.43	670.18
502.79	683.89
503.16	698.06
503.52	712.44
503.88	727.24
504.24	742.47
504.60	757.93
504.97	773.87
505.33	790.24
505.69	807.50
506.05	825.05
506.41	842.54
506.78	860.24
507.14	878.48
507.50	897.15
507.86	916.17
508.22	935.41
508.59	954.50
508.95	974.44
509.31	995.11
509.67	1016.41
510.03	1037.70
510.39	1059.09
510.75	1080.71
511.12	1102.60
511.48	1124.63
511.84	1146.78
512.20	1169.34
512.56	1192.70
512.92	1216.07
513.28	1239.12
513.64	1262.46
514.00	1286.24
514.37	1310.27
514.73	1334.37
515.09	1358.38
515.45	1382.74
515.81	1407.21
516.17	1431.89
516.53	1455.99
516.89	1480.03
517.25	1504.30
517.61	1528.52
517.97	1553.22
518.33	1577.37
518.69	1601.46
519.05	1626.12
519.41	1651.04
519.77	1676.06
520.13	1700.44
520.49	1724.76
520.85	1749.47
521.21	1773.59
521.57	1798.25
521.93	1822.42
522.29	1847.03
522.65	1871.21
523.01	1895.33
523.37	1919.09
523.73	1943.52
524.09	1967.78
524.45	1991.79
524.81	2015.40
525.17	2038.88
525.53	2061.75
525.89	2085.10
526.25	2108.47
526.61	2130.83
526.97	2153.35
527.33	2175.89
527.68	2198.04
528.04	2219.47
528.40	2239.91
528.76	2260.86
529.12	2281.16
529.48	2301.08
529.84	2319.33
530.20	2338.20
530.56	2356.45
530.91	2374.94
531.27	2393.04
531.63	2410.31
531.99	2427.22
532.35	2443.46
532.71	2459.70
533.07	2476.63
533.42	2491.83
533.78	2508.02
534.14	2524.35
534.50	2539.60
534.86	2554.73
535.21	2568.02
535.57	2581.79
535.93	2595.36
536.29	2607.69
536.65	2620.01
537.00	2631.71
537.36	2644.26
537.72	2655.20
538.08	2665.84
538.44	2675.78
538.79	2685.29
539.15	2693.97
539.51	2702.25
539.87	2709.80
540.22	2715.64
540.58	2721.54
540.94	2728.67
541.29	2734.01
541.65	2737.60
542.01	2740.72
542.37	2743.06
542.72	2746.72
543.08	2748.74
543.44	2751.28
543.79	2752.76
544.15	2753.34
544.51	2754.35
544.87	2754.26
545.22	2753.46
545.58	2751.96
545.94	2750.52
546.29	2747.75
546.65	2744.99
547.01	2742.21
547.36	2740.21
547.72	2737.99
548.07	2734.18
548.43	2728.78
548.79	2722.68
549.14	2717.87
549.50	2713.12
549.86	2707.53
550.21	2700.82
550.57	2694.99
550.92	2686.96
551.28	2679.60
551.64	2672.44
551.99	2664.74
552.35	2656.44
552.70	2648.45
553.06	2640.74
553.41	2632.35
553.77	2623.74
554.13	2615.00
554.48	2605.37
554.84	2594.60
555.19	2584.55
555.55	2574.35
555.90	2564.21
556.26	2554.52
556.61	2543.74
556.97	2531.42
557.32	2519.65
557.68	2507.69
558.03	2495.61
558.39	2484.59
558.74	2473.81
559.10	2461.37
559.45	2449.27
559.81	2437.78
560.16	2425.56
560.52	2413.53
560.87	2401.80
561.23	2389.27
561.58	2377.03
561.94	2364.32
562.29	2351.05
562.64	2338.42
563.00	2325.50
563.35	2313.14
563.71	2300.51
564.06	2287.72
564.42	2275.63
564.77	2262.84
565.12	2250.08
565.48	2237.23
565.83	2224.47
566.19	2211.69
566.54	2198.92
566.89	2184.94
567.25	2171.18
567.60	2158.66
567.96	2145.32
568.31	2130.69
568.66	2116.87
569.02	2104.01
569.37	2091.16
569.72	2078.83
570.08	2065.21
570.43	2051.33
570.78	2037.05
571.14	2022.18
571.49	2008.06
571.84	1994.45
572.20	1979.56
572.55	1965.02
572.90	1950.22
573.26	1935.40
573.61	1920.12
573.96	1905.25
574.31	1890.70
574.67	1876.04
575.02	1860.52
575.37	1845.03
575.72	1830.43
576.08	1816.05
576.43	1800.55
576.78	1785.49
577.13	1770.73
577.49	1756.31
577.84	1742.41
578.19	1727.61
578.54	1713.04
578.90	1697.98
579.25	1682.78
579.60	1669.19
579.95	1655.37
580.30	1641.48
580.66	1627.34
581.01	1613.07
581.36	1598.87
581.71	1585.68
582.06	1572.32
582.42	1559.18
582.77	1546.06
583.12	1532.81
583.47	1519.51
583.82	1506.33
584.17	1492.81
584.53	1478.90
584.88	1465.34
585.23	1451.36
585.58	1438.31
585.93	1425.46
586.28	1413.31
586.63	1401.19
586.98	1388.53
587.34	1375.93
587.69	1363.08
588.04	1350.57
588.39	1338.48
588.74	1326.45
589.09	1314.18
589.44	1301.56
589.79	1289.60
590.14	1277.74
590.49	1265.86
590.84	1254.07
591.19	1242.70
591.54	1231.14
591.89	1219.73
592.25	1208.46
592.60	1196.90
592.95	1185.68
593.30	1174.61
593.65	1163.25
594.00	1151.99
594.35	1141.39
594.70	1130.38
595.05	1120.29
595.40	1110.06
595.75	1099.64
596.10	1089.78
596.45	1079.56
596.80	1069.68
597.15	1059.60
597.50	1049.65
597.85	1040.07
598.19	1030.36
598.54	1020.72
598.89	1011.49
599.24	1002.60
599.59	993.58
599.94	985.48
600.29	977.14
600.64	968.50
600.99	959.50
601.34	950.90
601.69	941.95
602.04	933.66
602.39	925.20
602.74	916.74
603.08	908.31
603.43	899.83
603.78	891.54
604.13	883.46
604.48	875.29
604.83	867.34
605.18	859.28
605.53	851.37
605.87	843.25
606.22	835.54
606.57	827.71
606.92	819.76
607.27	811.72
607.62	804.09
607.96	796.86
608.31	790.06
608.66	783.06
609.01	776.35
609.36	769.74
609.70	762.83
610.05	755.97
610.40	749.35
610.75	742.74
611.10	736.46
611.44	730.03
611.79	723.70
612.14	717.29
612.49	711.02
612.83	705.03
613.18	699.17
613.53	693.16
613.88	687.24
614.22	681.76
614.57	676.16
614.92	670.38
615.27	664.74
615.61	659.14
615.96	653.61
616.31	648.07
616.65	642.60
617.00	637.40
617.35	632.28
617.70	627.22
618.04	622.17
618.39	617.08
618.74	612.24
619.08	607.44
619.43	602.75
619.78	598.09
620.12	593.36
620.47	588.83
620.82	584.40
621.16	579.94
621.51	575.36
621.85	570.88
622.20	566.59
622.55	562.31
622.89	558.09
623.24	553.87
623.59	549.72
623.93	545.73
624.28	541.79
624.62	537.96
624.97	534.16
625.32	530.37
625.66	526.51
626.01	522.60
626.35	518.79
626.70	515.02
627.04	511.41
627.39	507.78
627.73	504.29
628.08	500.90
628.43	497.52
628.77	494.23
629.12	491.03
629.46	487.82
629.81	484.55
630.15	481.30
630.50	478.16
630.84	475.04
631.19	471.98
631.53	469.06
631.88	466.09
632.22	463.14
632.57	460.48
632.91	457.86
633.26	455.32
633.60	452.78
633.95	450.34
634.29	447.78
634.64	445.31
634.98	442.61
635.32	440.10
635.67	437.77
636.01	435.36
636.36	433.02
636.70	430.85
637.05	428.63
637.39	426.44
637.73	424.28
638.08	422.24
638.42	420.15
638.77	417.93
639.11	415.66
639.45	413.50
639.80	411.27
640.14	409.15
640.49	407.00
640.83	404.84
641.17	402.76
641.52	400.74
641.86	398.72
642.20	396.94
642.55	394.98
642.89	393.06
643.23	391.22
643.58	389.55
643.92	387.72
644.26	385.98
644.61	384.30
644.95	382.56
645.29	380.76
645.64	378.99
645.98	377.31
646.32	375.76
646.66	374.17
647.01	372.60
647.35	371.09
647.69	369.57
648.04	368.19
648.38	366.71
648.72	365.26
649.06	363.82
649.41	362.39
649.75	361.01
650.09	359.63
650.43	358.27
650.78	356.84
651.12	355.47
651.46	354.13
651.80	352.84
652.14	351.58
652.49	350.35
652.83	349.13
653.17	347.93
653.51	346.77
653.85	345.66
654.20	344.50
654.54	343.28
654.88	342.14
655.22	341.01
655.56	339.88
655.90	338.81
656.25	337.77
656.59	336.71
656.93	335.72
657.27	334.75
657.61	333.71
657.95	332.72
658.29	331.73
658.64	330.79
658.98	329.84
659.32	328.90
659.66	328.02
660.00	327.15
660.34	326.29
660.68	325.38
661.02	324.43
661.36	323.53
661.70	322.67
662.05	321.82
662.39	320.99
662.73	320.24
663.07	319.48
663.41	318.69
663.75	317.89
664.09	317.10
664.43	316.26
664.77	315.52
665.11	314.74
665.45	314.02
665.79	313.30
666.13	312.53
666.47	311.76
666.81	310.99
667.15	310.18
667.49	309.48
667.83	308.85
668.17	308.19
668.51	307.57
668.85	306.97
669.19	306.41
669.53	305.73
669.87	305.05
670.21	304.40
670.55	303.78
670.89	303.24
671.23	302.65
671.57	302.09
671.91	301.56
672.25	301.05
672.58	300.53
672.92	299.94
673.26	299.46
673.60	298.96
673.94	298.47
674.28	298.03
674.62	297.53
674.96	296.98
675.30	296.50
675.64	295.98
675.97	295.45
676.31	294.90
676.65	294.40
676.99	293.96
677.33	293.44
677.67	292.96
678.01	292.41
678.34	291.94
678.68	291.49
679.02	290.98
679.36	290.48
679.70	289.99
680.04	289.54
680.37	289.07
680.71	288.62
681.05	288.19
681.39	287.71
681.73	287.22
682.06	286.73
682.40	286.29
682.74	285.89
683.08	285.53
683.42	285.11
683.75	284.72
684.09	284.25
684.43	283.85
684.77	283.43
685.10	283.07
685.44	282.67
685.78	282.28
686.12	281.90
686.45	281.50
686.79	281.10
687.13	280.71
687.46	280.30
687.80	279.91
688.14	279.47
688.48	279.10
688.81	278.71
689.15	278.37
689.49	277.97
689.82	277.56
690.16	277.10
690.50	276.71
690.83	276.32
691.17	275.93
691.51	275.54
691.84	275.18
692.18	274.77
692.52	274.36
692.85	273.97
693.19	273.62
693.52	273.24
693.86	272.86
694.20	272.49
694.53	272.14
694.87	271.75
695.21	271.37
695.54	271.00
695.88	270.63
696.21	270.23
696.55	269.87
696.88	269.52
697.22	269.16
697.56	268.80
697.89	268.41
698.23	268.05
698.56	267.67
698.90	267.32
699.23	266.94
699.57	266.59
699.90	266.23
700.24	265.85
700.58	265.53
700.91	265.24
701.25	265.02
701.58	264.74
701.92	264.45
702.25	264.14
702.59	263.80
702.92	263.48
703.26	263.15
703.59	262.81
703.93	262.59
704.26	262.29
704.60	261.97
704.93	261.66
705.26	261.34
705.60	261.07
705.93	260.73
706.27	260.47
706.60	260.22
706.94	259.96
707.27	259.63
707.61	259.32
707.94	258.98
708.27	258.56
708.61	258.21
708.94	257.89
709.28	257.59
709.61	257.30
709.94	257.04
710.28	256.78
710.61	256.54
710.95	256.17
711.28	255.97
711.61	255.71
711.95	255.47
712.28	255.20
712.61	254.92
712.95	254.74
713.28	254.54
713.61	254.24
713.95	253.95
714.28	253.71
714.61	253.45
714.95	253.21
715.28	252.97
715.61	252.73
715.95	252.52
716.28	252.29
716.61	252.10
716.95	251.85
717.28	251.61
717.61	251.37
717.94	251.14
718.28	250.83
718.61	250.60
718.94	250.35
719.27	250.14
719.61	249.94
719.94	249.69
720.27	249.40
720.60	249.19
720.94	248.99
721.27	248.78
721.60	248.60
721.93	248.39
722.27	248.22
722.60	248.04
722.93	247.82
723.26	247.62
723.59	247.38
723.93	247.20
724.26	247.01
724.59	246.81
724.92	246.64
725.25	246.51
725.59	246.33
725.92	246.17
726.25	246.00
726.58	245.82
726.91	245.63
727.24	245.48
727.57	245.31
727.91	245.13
728.24	244.99
728.57	244.81
728.90	244.66
729.23	244.45
729.56	244.34
729.89	244.17
730.22	244.00
730.55	243.84
730.89	243.68
731.22	243.52
731.55	243.36
731.88	243.20
732.21	243.02
732.54	242.87
732.87	242.72
733.20	242.57
733.53	242.43
733.86	242.29
734.19	242.12
734.52	241.99
734.85	241.94
735.18	241.76
735.51	241.65
735.84	241.52
736.17	241.43
736.50	241.23
736.83	241.24
737.16	241.11
737.49	240.99
737.82	240.86
738.15	240.76
738.48	240.63
738.81	240.50
739.14	240.36
739.47	240.22
739.80	240.09
740.13	239.97
740.46	239.82
740.79	239.68
741.12	239.56
741.45	239.41
741.78	239.22
742.11	239.13
742.44	238.98
742.77	238.86
743.10	238.73
743.43	238.61
743.75	238.36
744.08	238.44
744.41	238.32
744.74	238.20
745.07	238.06
745.40	237.98
745.73	237.93
746.06	237.83
746.39	237.75
746.71	237.64
747.04	237.52
747.37	237.42
747.70	237.34
748.03	237.26
748.36	237.18
748.68	237.08
749.01	236.95
749.34	236.86
749.67	236.77
750.00	236.69
750.33	236.69
750.65	236.60
750.98	236.33
751.31	236.24
751.64	236.15
751.97	236.13
752.29	236.03
752.62	235.88
752.95	235.78
753.28	235.67
753.60	235.58
753.93	235.52
754.26	235.44
754.59	235.31
754.91	235.21
755.24	235.12
755.57	235.10
755.90	235.01
756.22	234.91
756.55	234.81
756.88	234.70
757.20	234.54
757.53	234.42
757.86	234.34
758.19	234.27
758.51	234.19
758.84	234.05
759.17	233.96
759.49	233.89
759.82	233.88
760.15	233.82
760.47	233.75
760.80	233.65
761.13	233.60
761.45	233.54
761.78	233.48
762.11	233.42
762.43	233.29
762.76	233.23
763.08	233.19
763.41	233.13
763.74	233.08
764.06	233.02
764.39	232.97
764.71	232.91
765.04	232.84
765.37	232.78
765.69	232.72
766.02	232.67
766.34	232.61
766.67	232.50
767.00	232.47
767.32	232.49
767.65	232.51
767.97	232.45
768.30	232.40
768.62	232.35
768.95	232.28
769.27	232.23
769.60	232.19
769.92	232.12
770.25	232.05
770.57	231.97
770.90	231.93
771.22	231.87
771.55	231.82
771.87	231.78
772.20	231.74
772.52	231.80
772.85	231.90
773.17	231.86
773.50	231.81
773.82	231.75
774.15	231.65
774.47	231.52
774.80	231.47
775.12	231.43
775.45	231.39
775.77	231.36
776.09	231.33
776.42	231.30
776.74	231.30
777.07	231.27
777.39	231.24
777.72	231.20
778.04	231.18
778.36	231.14
778.69	231.10
779.01	231.09
779.33	230.94
779.66	230.76
779.98	230.73
780.31	230.71
780.63	230.73
780.95	230.71
781.28	230.69
781.60	230.65
781.92	230.62
782.25	230.59
782.57	230.56
782.89	230.53
783.22	230.49
783.54	230.44
783.86	230.42
784.19	230.39
784.51	230.40
784.83	230.37
785.16	230.34
785.48	230.32
785.80	230.29
786.12	230.27
786.45	230.25
786.77	230.24
787.09	230.20
787.42	230.13
787.74	230.11
788.06	230.10
788.38	230.07
788.71	230.04
789.03	230.02
789.35	230.02
789.67	229.99
789.99	229.97
790.32	229.93
790.64	229.92
790.96	230.02
791.28	229.95
791.61	229.92
791.93	229.91
792.25	229.88
792.57	229.95
792.89	229.91
793.21	229.89
793.54	229.86
793.86	229.83
794.18	229.82
794.50	229.78
794.82	229.76
795.14	229.76
795.47	229.76
795.79	229.74
796.11	229.70
796.43	229.68
796.75	229.66
797.07	229.66
797.39	229.63
797.71	229.51
798.04	229.50
798.36	229.49
798.68	229.47
799.00	229.46
799.32	229.39
799.64	229.40
799.96	229.38
800.28	229.39
800.60	229.37
800.92	229.36
801.24	229.34
801.56	229.33
801.89	229.31
802.21	229.29
802.53	229.26
802.85	229.27
803.17	229.31
803.49	229.27
803.81	229.24
804.13	229.22
804.45	229.20
804.77	229.19
805.09	229.18
805.41	229.15
805.73	229.12
806.05	229.07
806.37	229.05
806.69	229.02
807.01	228.99
807.33	228.98
807.65	228.92
807.97	228.97
808.28	228.95
808.60	228.93
808.92	228.90
809.24	228.97
809.56	228.94
809.88	228.88
810.20	228.88
810.52	228.89
810.84	228.86
811.16	228.84
811.48	228.82
811.80	228.85
812.12	228.84
812.43	228.85
812.75	228.85
813.07	228.83
813.39	228.83
813.71	228.80
814.03	228.78
814.35	228.78
814.67	228.71
814.98	228.70
815.30	228.68
815.62	228.65
815.94	228.56
816.26	228.56
816.58	228.53
816.89	228.53
817.21	228.49
817.53	228.49
817.85	228.49
818.17	228.47
818.48	228.41
818.80	228.43
819.12	228.39
819.44	228.36
819.76	228.34
820.07	228.33
820.39	228.33
820.71	228.33
821.03	228.32
821.34	228.31
821.66	228.32
821.98	228.33
822.30	228.32
822.61	228.39
822.93	228.36
823.25	228.35
823.57	228.33
823.88	228.34
824.20	228.33
824.52	228.35
824.83	228.34
825.15	228.32
825.47	228.30
825.79	228.31
826.10	228.30
826.42	228.29
826.74	228.29
827.05	228.28
827.37	228.27
827.69	228.26
828.00	228.26
828.32	228.25
828.64	228.22
828.95	228.28
829.27	228.24
829.58	228.24
829.90	228.26
830.22	228.26
830.53	228.23
830.85	228.22
831.17	228.18
831.48	228.17
831.80	228.17
832.11	228.16
832.43	228.14
832.75	228.13
833.06	228.20
833.38	228.16
833.69	228.15
834.01	228.15
834.32	228.14
834.64	228.13
834.96	228.12
835.27	228.12
835.59	228.07
835.90	228.05
836.22	228.04
836.53	228.01
836.85	227.99
837.16	228.11
837.48	228.11
837.79	228.15
838.11	228.15
838.42	228.15
838.74	228.16
839.05	228.15
839.37	228.14
839.68	228.06
840.00	228.06
840.31	228.07
840.63	228.05
840.94	228.04
841.26	228.02
841.57	228.01
841.88	228.02
842.20	228.00
842.51	227.98
842.83	227.97
843.14	228.09
843.46	228.08
843.77	228.00
844.08	227.99
844.40	227.95
844.71	227.94
845.03	227.93
845.34	227.91
845.65	227.90
845.97	227.90
846.28	227.91
846.60	227.91
846.91	227.89
847.22	227.89
847.54	227.91
847.85	227.92
848.16	227.90
848.48	227.88
848.79	227.93
849.10	227.94
849.42	227.94
849.73	227.82
850.04	227.82
850.36	227.78
850.67	227.80
850.98	227.80
851.30	227.80
851.61	227.80
851.92	227.79
852.23	227.83
852.55	227.84
852.86	227.83
853.17	227.84
853.49	227.87
853.80	227.89
854.11	227.89
854.42	227.91
854.74	227.89
855.05	227.90
855.36	227.83
855.67	227.83
855.99	227.83
856.30	227.98
856.61	227.98
856.92	227.98
857.23	227.98
857.55	227.96
857.86	227.95
858.17	227.97
858.48	227.95
858.79	227.92
859.11	227.92
859.42	227.92
859.73	227.90
860.04	227.88
860.35	227.85
860.66	227.81
860.98	227.80
861.29	227.82
861.60	227.80
861.91	227.83
862.22	227.81
862.53	227.79
862.84	227.64
863.16	227.67
863.47	227.64
863.78	227.62
864.09	227.63
864.40	227.64
864.71	227.63
865.02	227.65
865.33	227.64
865.64	227.61
865.95	227.61
866.27	227.69
866.58	227.68
866.89	227.69
867.20	227.69
867.51	227.67
867.82	227.67
868.13	227.70
868.44	227.67
868.75	227.69
869.06	227.70
869.37	227.72
869.68	227.69
869.99	227.71
870.30	227.72
870.61	227.73
870.92	227.71
871.23	227.70
871.54	227.71
871.85	227.74
872.16	227.75
872.47	227.74
872.78	227.67
873.09	227.69
873.40	227.67
873.71	227.68
874.02	227.69
874.33	227.67
874.64	227.64
874.95	227.67
875.26	227.64
875.56	227.64
875.87	227.63
876.18	227.62
876.49	227.74
876.80	227.73
877.11	227.70
877.42	227.71
877.73	227.71
878.04	227.69
878.35	227.68
878.66	227.68
878.96	227.68
879.27	227.67
879.58	227.66
879.89	227.66
880.20	227.69
880.51	227.69
880.82	227.69
881.12	227.69
881.43	227.67
881.74	227.65
882.05	227.64
882.36	227.65
882.67	227.66
882.97	227.52
883.28	227.51
883.59	227.51
883.90	227.52
884.21	227.53
884.51	227.53
884.82	227.51
885.13	227.51
885.44	227.51
885.74	227.51
886.05	227.50
886.36	227.50
886.67	227.46
886.98	227.52
887.28	227.53
887.59	227.53
887.90	227.53
888.20	227.53
888.51	227.56
888.82	227.53
889.13	227.55
889.43	227.65
889.74	227.64
890.05	227.64
890.35	227.63
890.66	227.61
890.97	227.60
891.28	227.59
891.58	227.59
891.89	227.58
892.20	227.57
892.50	227.56
892.81	227.55
893.12	227.55
893.42	227.48
893.73	227.48
894.04	227.48
894.34	227.49
894.65	227.48
894.95	227.46
895.26	227.47
895.57	227.52
895.87	227.39
896.18	227.42
896.48	227.42
896.79	227.42
897.10	227.44
897.40	227.44
897.71	227.45
898.01	227.44
898.32	227.45
898.63	227.45
898.93	227.46
899.24	227.46
899.54	227.45
899.85	227.45
900.15	227.44
900.46	227.44
900.76	227.45
901.07	227.45
901.38	227.45
901.68	227.46
901.99	227.40
902.29	227.41
902.60	227.40
902.90	227.39
903.21	227.39
903.51	227.38
903.82	227.40
904.12	227.40
904.43	227.41
904.73	227.40
905.03	227.41
905.34	227.53
905.64	227.52
905.95	227.52
906.25	227.52
906.56	227.52
906.86	227.52
907.17	227.51
907.47	227.51
907.77	227.50
908.08	227.47
908.38	227.48
908.69	227.48
908.99	227.50
909.30	227.51
909.60	227.51
909.90	227.51
910.21	227.47
910.51	227.45
910.81	227.45
911.12	227.46
911.42	227.46
911.73	227.33
912.03	227.34
912.33	227.36
912.64	227.35
912.94	227.33
913.24	227.31
913.55	227.30
913.85	227.30
914.15	227.32
914.46	227.34
914.76	227.33
915.06	227.32
915.37	227.29
915.67	227.29
915.97	227.28
916.27	227.26
916.58	227.27
916.88	227.27
917.18	227.26
917.49	227.34
917.79	227.33
918.09	227.35
918.39	227.38
918.70	227.37
919.00	227.39
919.30	227.44
919.60	227.44
919.91	227.43
920.21	227.44
920.51	227.41
920.81	227.40
921.12	227.42
921.42	227.41
921.72	227.42
922.02	227.43
922.32	227.45
922.63	227.45
922.93	227.52
923.23	227.52
923.53	227.51
923.83	227.43
924.13	227.44
924.44	227.44
924.74	227.45
925.04	227.47
925.34	227.47
925.64	227.41
925.94	227.41
926.24	227.48
926.55	227.47
926.85	227.49
927.15	227.49
927.45	227.49
927.75	227.49
928.05	227.49
928.35	227.48
928.65	227.49
928.95	227.50
929.26	227.45
929.56	227.47
929.86	227.49
930.16	227.48
930.46	227.46
930.76	227.47
931.06	227.41
931.36	227.37
931.66	227.39
931.96	227.41
932.26	227.42
932.56	227.36
932.86	227.37
933.16	227.37
933.46	227.36
933.76	227.34
934.06	227.36
934.36	227.40
934.66	227.39
934.96	227.38
935.26	227.38
935.56	227.39
935.86	227.36
936.16	227.34
936.46	227.33
936.76	227.32
937.06	227.30
937.36	227.31
937.66	227.32
937.96	227.31
938.26	227.28
938.56	227.27
938.86	227.28
939.16	227.30
939.46	227.31
939.76	227.32
940.06	227.32
940.35	227.30
940.65	227.24
940.95	227.25
941.25	227.22
941.55	227.21
941.85	227.20
942.15	227.23
942.45	227.26
942.75	227.26
943.04	227.26
943.34	227.29
943.64	227.28
943.94	227.26
944.24	227.27
944.54	227.28
944.84	227.27
945.13	227.25
945.43	227.23
945.73	227.22
946.03	227.21
946.33	227.20
946.62	227.19
946.92	227.19
947.22	227.20
947.52	227.21
947.82	227.22
948.11	227.21
948.41	227.17
948.71	227.14
949.01	227.15
949.31	227.14
949.60	227.12
949.90	227.14
950.20	227.13
950.50	227.13
950.79	227.11
951.09	227.13
951.39	227.13
951.69	227.12
951.98	227.14
952.28	227.15
952.58	227.15
952.87	227.15
953.17	227.16
953.47	227.15
953.76	227.14
954.06	227.12
954.36	227.11
954.66	227.11
954.95	227.14
955.25	227.15
955.55	227.16
955.84	227.14
956.14	227.15
956.44	227.16
956.73	227.14
957.03	227.15
957.32	227.15
957.62	227.15
957.92	227.18
958.21	227.16
958.51	227.29
958.81	227.31
959.10	227.32
959.40	227.34
959.69	227.35
959.99	227.37
960.29	227.38
960.58	227.37
960.88	227.42
961.17	227.41
961.47	227.42
961.76	227.40
962.06	227.42
962.36	227.41
962.65	227.41
962.95	227.43
963.24	227.41
963.54	227.41
963.83	227.42
964.13	227.41
964.42	227.40
964.72	227.30
965.01	227.30
965.31	227.29
965.60	227.26
965.90	227.34
966.19	227.31
966.49	227.32
966.78	227.31
967.08	227.30
967.37	227.30
967.67	227.27
967.96	227.30
968.26	227.30
968.55	227.31
968.85	227.31
969.14	227.31
969.43	227.31
969.73	227.30
970.02	227.29
970.32	227.28
970.61	227.26
970.91	227.23
971.20	227.21
971.49	227.20
971.79	227.21
972.08	227.12
972.38	227.13
972.67	227.12
972.96	227.14
973.26	227.12
973.55	227.15
973.85	227.15
974.14	227.13
974.43	227.14
974.73	227.12
975.02	227.11
975.31	227.11
975.61	227.11
975.90	227.10
976.19	227.09
976.49	227.10
976.78	227.11
977.07	227.11
977.37	227.11
977.66	227.13
977.95	227.11
978.24	227.13
978.54	227.15
978.83	227.14
979.12	227.13
979.42	227.14
979.71	227.11
980.00	227.11
980.29	227.12
980.59	227.10
980.88	227.13
981.17	227.13
981.46	227.13
981.76	227.13
982.05	227.18
982.34	227.18
982.63	227.18
982.93	227.18
983.22	227.21
983.51	227.22
983.80	227.23
984.09	227.25
984.39	227.24
984.68	227.22
984.97	227.23
985.26	227.22
985.55	227.22
985.85	227.20
986.14	227.22
986.43	227.23
986.72	227.22
987.01	227.19
987.30	227.19
987.59	227.18
987.89	227.19
988.18	227.15
988.47	227.14
988.76	227.13
989.05	227.12
989.34	227.10
989.63	227.13
989.92	227.11
990.22	227.09
990.51	227.09
990.80	227.08
991.09	227.09
991.38	227.11
991.67	227.10
991.96	227.09
992.25	227.09
992.54	227.07
992.83	227.08
993.12	227.07
993.41	227.10
993.70	227.14
993.99	227.16
994.28	227.18
994.58	227.20
994.87	227.19
995.16	227.19
995.45	227.18
995.74	227.13
996.03	227.15
996.32	227.17
996.61	227.19
996.90	227.19
997.19	227.19
997.48	227.18
997.77	227.17
998.06	227.18
998.34	227.17
998.63	227.17
998.92	227.17
999.21	227.19
999.50	227.19
999.79	227.14
1000.08	227.14
1000.37	227.14
1000.66	227.11
1000.95	227.15
1001.24	227.16
1001.53	227.18
1001.82	227.17
1002.11	227.14
1002.40	227.16
1002.68	227.18
1002.97	227.27
1003.26	227.26
1003.55	227.24
1003.84	227.25
1004.13	227.29
1004.42	227.29
1004.71	227.29
1004.99	227.28
1005.28	227.31
1005.57	227.30
1005.86	227.29
1006.15	227.28
1006.44	227.26
1006.72	227.28
1007.01	227.25
1007.30	227.25
1007.59	227.24
1007.88	227.24
1008.17	227.25
1008.45	227.22
1008.74	227.17
1009.03	227.11
1009.32	227.11
1009.60	227.12
1009.89	227.10
1010.18	227.05
1010.47	227.05
1010.76	227.05
1011.04	227.05
1011.33	227.04
1011.62	227.04
1011.91	227.05
1012.19	227.06
1012.48	227.06
1012.77	227.06
1013.05	227.11
1013.34	227.11
1013.63	227.10
1013.92	227.11
1014.20	227.11
1014.49	227.11
1014.78	227.13
1015.06	227.09
1015.35	227.09
1015.64	227.11
1015.92	227.13
1016.21	227.13
1016.50	227.14
1016.78	227.15
1017.07	227.16
1017.36	227.14
1017.64	227.12
1017.93	227.13
1018.22	227.12
1018.50	227.12
1018.79	227.11
1019.08	227.07
1019.36	227.07
1019.65	227.06
1019.93	227.10
1020.22	227.11
1020.51	227.18
1020.79	227.16
1021.08	226.92
1021.36	226.89
1021.65	227.07
1021.94	227.07
1022.22	227.23
1022.51	226.88
1022.79	227.69
1023.08	227.30
1023.36	228.55
1023.65	226.77
>>>>>End Processed Spectral Data<<<<<
