SpectraSuite Data File
++++++++++++++++++++++++++++++++++++
Date: Fri Oct 02 19:06:01 EDT 2015
User: lab3
Dark Spectrum Present: No
Reference Spectrum Present: No
Number of Sampled Component Spectra: 1
Spectrometers: USB2E7196
Integration Time (usec): 46000 (USB2E7196)
Spectra Averaged: 1500 (USB2E7196)
Boxcar Smoothing: 10 (USB2E7196)
Correct for Electrical Dark: No (USB2E7196)
Strobe/Lamp Enabled: No (USB2E7196)
Correct for Detector Non-linearity: No (USB2E7196)
Correct for Stray Light: No (USB2E7196)
Number of Pixels in Processed Spectrum: 2048
>>>>>Begin Processed Spectral Data<<<<<
339.09	0.00
339.48	215.66
339.86	217.15
340.24	218.29
340.63	219.70
341.01	222.98
341.39	222.59
341.78	223.87
342.16	225.23
342.54	225.54
342.93	213.89
343.31	224.70
343.69	225.24
344.07	225.69
344.46	226.13
344.84	226.53
345.22	226.75
345.60	227.01
345.99	227.21
346.37	227.34
346.75	227.44
347.13	227.53
347.52	227.60
347.90	227.69
348.28	227.72
348.66	227.79
349.05	227.78
349.43	227.84
349.81	227.90
350.19	227.96
350.57	228.02
350.96	228.11
351.34	228.20
351.72	228.29
352.10	228.40
352.48	228.47
352.87	228.52
353.25	228.59
353.63	228.65
354.01	228.71
354.39	228.79
354.77	228.87
355.15	228.98
355.54	229.03
355.92	229.06
356.30	229.14
356.68	229.29
357.06	229.36
357.44	229.40
357.82	229.47
358.20	229.59
358.58	229.65
358.97	229.72
359.35	229.80
359.73	229.88
360.11	229.94
360.49	229.99
360.87	230.04
361.25	230.10
361.63	230.19
362.01	230.24
362.39	230.27
362.77	230.31
363.15	230.34
363.53	230.37
363.91	230.41
364.29	230.43
364.67	230.33
365.05	230.36
365.43	230.39
365.81	230.42
366.19	230.44
366.57	230.49
366.95	230.49
367.33	230.46
367.71	230.45
368.09	230.47
368.47	230.47
368.85	230.46
369.23	230.47
369.61	230.41
369.99	230.43
370.37	230.44
370.75	230.51
371.13	230.48
371.51	230.43
371.89	230.41
372.27	230.38
372.65	230.36
373.03	230.31
373.41	230.27
373.78	230.23
374.16	230.13
374.54	230.05
374.92	230.00
375.30	229.95
375.68	229.88
376.06	229.84
376.44	229.78
376.82	229.74
377.19	229.68
377.57	229.63
377.95	229.54
378.33	229.47
378.71	229.32
379.09	229.28
379.47	229.25
379.84	229.19
380.22	229.14
380.60	229.07
380.98	229.03
381.36	228.98
381.73	228.90
382.11	228.88
382.49	228.85
382.87	228.79
383.25	228.74
383.62	228.85
384.00	228.79
384.38	228.74
384.76	228.74
385.13	228.73
385.51	228.69
385.89	228.64
386.27	228.60
386.64	228.58
387.02	228.53
387.40	228.48
387.78	228.45
388.15	228.43
388.53	228.39
388.91	228.36
389.29	228.34
389.66	228.34
390.04	228.29
390.42	228.29
390.79	228.28
391.17	228.27
391.55	228.11
391.92	228.09
392.30	228.10
392.68	228.05
393.05	228.04
393.43	228.03
393.81	228.04
394.18	228.01
394.56	228.01
394.94	228.04
395.31	228.04
395.69	228.09
396.06	228.12
396.44	228.15
396.82	228.17
397.19	228.24
397.57	228.24
397.95	228.29
398.32	228.28
398.70	228.32
399.07	228.38
399.45	228.42
399.82	228.46
400.20	228.49
400.58	228.55
400.95	228.55
401.33	228.64
401.70	228.79
402.08	228.89
402.45	228.98
402.83	229.10
403.20	229.21
403.58	229.29
403.95	229.43
404.33	229.57
404.71	229.70
405.08	229.91
405.46	230.07
405.83	230.25
406.21	230.44
406.58	230.65
406.96	230.86
407.33	231.10
407.70	231.38
408.08	231.75
408.45	232.07
408.83	232.42
409.20	232.74
409.58	233.01
409.95	233.41
410.33	233.83
410.70	234.22
411.08	234.69
411.45	235.18
411.82	235.67
412.20	236.24
412.57	236.93
412.95	237.46
413.32	238.16
413.69	238.88
414.07	239.63
414.44	240.46
414.82	241.30
415.19	242.29
415.56	243.30
415.94	244.33
416.31	245.49
416.68	246.66
417.06	248.01
417.43	249.29
417.81	250.74
418.18	252.22
418.55	253.85
418.93	255.54
419.30	257.31
419.67	259.19
420.04	261.11
420.42	263.10
420.79	265.43
421.16	267.76
421.54	270.15
421.91	272.64
422.28	275.21
422.66	277.98
423.03	280.63
423.40	283.40
423.77	286.38
424.15	289.43
424.52	292.61
424.89	296.04
425.26	299.46
425.64	302.63
426.01	306.19
426.38	309.84
426.75	313.60
427.13	317.45
427.50	321.48
427.87	325.67
428.24	329.90
428.61	333.97
428.99	338.37
429.36	343.18
429.73	347.78
430.10	352.40
430.47	357.12
430.85	361.98
431.22	367.20
431.59	372.58
431.96	377.80
432.33	383.61
432.70	389.14
433.08	395.68
433.45	401.87
433.82	407.95
434.19	414.76
434.56	421.45
434.93	427.93
435.30	434.33
435.68	441.57
436.05	448.66
436.42	455.71
436.79	462.13
437.16	469.08
437.53	476.52
437.90	483.95
438.27	491.21
438.64	499.04
439.01	506.14
439.38	512.61
439.75	518.86
440.13	525.91
440.50	532.61
440.87	537.92
441.24	543.72
441.61	550.07
441.98	554.65
442.35	560.13
442.72	565.68
443.09	570.97
443.46	574.29
443.83	576.71
444.20	578.68
444.57	581.70
444.94	583.34
445.31	585.05
445.68	586.49
446.05	587.51
446.42	587.02
446.79	586.34
447.16	585.76
447.53	585.19
447.90	582.79
448.27	580.47
448.64	577.04
449.01	574.64
449.37	569.93
449.74	565.70
450.11	560.26
450.48	554.34
450.85	548.44
451.22	543.35
451.59	538.39
451.96	533.91
452.33	527.44
452.70	521.71
453.07	514.73
453.43	507.79
453.80	501.05
454.17	494.62
454.54	488.69
454.91	482.00
455.28	475.76
455.65	469.87
456.02	463.66
456.38	458.64
456.75	452.19
457.12	447.01
457.49	441.78
457.86	436.85
458.23	432.56
458.59	427.80
458.96	422.92
459.33	418.63
459.70	414.28
460.07	410.99
460.43	407.09
460.80	403.47
461.17	400.33
461.54	396.90
461.91	393.70
462.27	390.46
462.64	387.85
463.01	384.80
463.38	381.75
463.74	378.99
464.11	376.57
464.48	374.42
464.85	372.05
465.21	370.27
465.58	368.28
465.95	365.98
466.32	364.16
466.68	362.37
467.05	360.58
467.42	358.81
467.78	356.91
468.15	355.16
468.52	353.89
468.88	352.17
469.25	350.61
469.62	349.38
469.98	348.04
470.35	346.83
470.72	345.75
471.08	344.65
471.45	343.73
471.82	342.70
472.18	341.59
472.55	340.88
472.92	339.98
473.28	339.28
473.65	338.52
474.02	337.81
474.38	337.21
474.75	336.86
475.11	336.38
475.48	336.16
475.85	335.92
476.21	335.79
476.58	335.71
476.94	335.85
477.31	335.93
477.67	336.01
478.04	336.21
478.41	336.49
478.77	336.89
479.14	337.14
479.50	337.62
479.87	338.25
480.23	338.90
480.60	339.54
480.96	340.18
481.33	341.12
481.69	342.05
482.06	342.98
482.42	343.85
482.79	344.91
483.15	346.13
483.52	347.54
483.88	348.87
484.25	350.32
484.61	351.81
484.98	353.43
485.34	355.25
485.71	357.15
486.07	359.20
486.44	361.24
486.80	363.50
487.17	365.86
487.53	368.43
487.90	371.12
488.26	374.05
488.62	377.15
488.99	380.25
489.35	383.51
489.72	387.05
490.08	390.77
490.44	394.62
490.81	398.62
491.17	402.71
491.54	407.13
491.90	411.67
492.26	416.54
492.63	421.63
492.99	426.95
493.36	432.44
493.72	438.23
494.08	444.18
494.45	450.50
494.81	457.07
495.17	463.83
495.54	470.94
495.90	478.34
496.26	485.90
496.63	493.73
496.99	501.85
497.35	510.36
497.72	519.14
498.08	528.14
498.44	537.46
498.80	547.32
499.17	557.43
499.53	567.85
499.89	578.63
500.26	589.64
500.62	600.96
500.98	612.88
501.34	625.00
501.71	637.61
502.07	650.42
502.43	663.76
502.79	677.31
503.16	691.32
503.52	705.53
503.88	720.17
504.24	735.24
504.60	750.55
504.97	766.33
505.33	782.53
505.69	799.59
506.05	817.00
506.41	834.31
506.78	851.86
507.14	869.93
507.50	888.44
507.86	907.32
508.22	926.40
508.59	945.35
508.95	965.14
509.31	985.67
509.67	1006.81
510.03	1027.98
510.39	1049.25
510.75	1070.74
511.12	1092.50
511.48	1114.41
511.84	1136.45
512.20	1158.89
512.56	1182.17
512.92	1205.45
513.28	1228.39
513.64	1251.61
514.00	1275.33
514.37	1299.30
514.73	1323.32
515.09	1347.25
515.45	1371.55
515.81	1395.98
516.17	1420.59
516.53	1444.65
516.89	1468.67
517.25	1492.90
517.61	1517.09
517.97	1541.73
518.33	1565.87
518.69	1590.00
519.05	1614.66
519.41	1639.63
519.77	1664.68
520.13	1689.13
520.49	1713.53
520.85	1738.32
521.21	1762.56
521.57	1787.25
521.93	1811.52
522.29	1836.23
522.65	1860.49
523.01	1884.68
523.37	1908.54
523.73	1933.09
524.09	1957.45
524.45	1981.56
524.81	2005.34
525.17	2028.95
525.53	2051.99
525.89	2075.52
526.25	2099.02
526.61	2121.55
526.97	2144.22
527.33	2166.93
527.68	2189.25
528.04	2210.84
528.40	2231.48
528.76	2252.61
529.12	2273.15
529.48	2293.26
529.84	2311.76
530.20	2330.86
530.56	2349.41
530.91	2368.17
531.27	2386.52
531.63	2404.07
531.99	2421.22
532.35	2437.74
532.71	2454.31
533.07	2471.53
533.42	2487.01
533.78	2503.52
534.14	2520.17
534.50	2535.81
534.86	2551.31
535.21	2564.93
535.57	2579.02
535.93	2592.96
536.29	2605.58
536.65	2618.22
537.00	2630.26
537.36	2643.11
537.72	2654.43
538.08	2665.35
538.44	2675.67
538.79	2685.59
539.15	2694.63
539.51	2703.24
539.87	2711.14
540.22	2717.31
540.58	2723.56
540.94	2731.06
541.29	2736.76
541.65	2740.75
542.01	2744.15
542.37	2746.85
542.72	2750.92
543.08	2753.30
543.44	2756.17
543.79	2758.07
544.15	2759.06
544.51	2760.48
544.87	2760.80
545.22	2760.38
545.58	2759.28
545.94	2758.18
546.29	2755.72
546.65	2753.32
547.01	2750.98
547.36	2749.35
547.72	2747.55
548.07	2744.11
548.43	2739.06
548.79	2733.31
549.14	2728.86
549.50	2724.45
549.86	2719.16
550.21	2712.74
550.57	2707.27
550.92	2699.55
551.28	2692.46
551.64	2685.58
551.99	2678.17
552.35	2670.09
552.70	2662.36
553.06	2654.90
553.41	2646.75
553.77	2638.44
554.13	2629.99
554.48	2620.61
554.84	2610.07
555.19	2600.22
555.55	2590.24
555.90	2580.33
556.26	2570.86
556.61	2560.28
556.97	2548.11
557.32	2536.49
557.68	2524.73
558.03	2512.79
558.39	2502.04
558.74	2491.49
559.10	2479.23
559.45	2467.30
559.81	2456.01
560.16	2443.95
560.52	2432.11
560.87	2420.57
561.23	2408.20
561.58	2396.08
561.94	2383.50
562.29	2370.34
562.64	2357.85
563.00	2345.04
563.35	2332.77
563.71	2320.23
564.06	2307.47
564.42	2295.53
564.77	2282.87
565.12	2270.15
565.48	2257.37
565.83	2244.57
566.19	2231.83
566.54	2219.03
566.89	2205.03
567.25	2191.23
567.60	2178.78
567.96	2165.44
568.31	2150.76
568.66	2136.86
569.02	2123.97
569.37	2111.13
569.72	2098.78
570.08	2085.08
570.43	2071.13
570.78	2056.79
571.14	2041.87
571.49	2027.70
571.84	2014.04
572.20	1999.07
572.55	1984.44
572.90	1969.58
573.26	1954.73
573.61	1939.37
573.96	1924.46
574.31	1909.87
574.67	1895.20
575.02	1879.59
575.37	1864.00
575.72	1849.33
576.08	1834.91
576.43	1819.27
576.78	1804.07
577.13	1789.24
577.49	1774.71
577.84	1760.76
578.19	1745.89
578.54	1731.19
578.90	1716.02
579.25	1700.68
579.60	1687.01
579.95	1673.11
580.30	1659.09
580.66	1644.81
581.01	1630.45
581.36	1616.10
581.71	1602.77
582.06	1589.23
582.42	1575.96
582.77	1562.72
583.12	1549.36
583.47	1535.92
583.82	1522.63
584.17	1508.96
584.53	1494.86
584.88	1481.21
585.23	1467.03
585.58	1453.83
585.93	1440.80
586.28	1428.49
586.63	1416.25
586.98	1403.47
587.34	1390.74
587.69	1377.74
588.04	1365.07
588.39	1352.79
588.74	1340.64
589.09	1328.25
589.44	1315.48
589.79	1303.37
590.14	1291.33
590.49	1279.27
590.84	1267.33
591.19	1255.82
591.54	1244.12
591.89	1232.56
592.25	1221.14
592.60	1209.45
592.95	1198.10
593.30	1186.96
593.65	1175.50
594.00	1164.08
594.35	1153.32
594.70	1142.13
595.05	1131.85
595.40	1121.46
595.75	1110.91
596.10	1100.94
596.45	1090.60
596.80	1080.62
597.15	1070.41
597.50	1060.37
597.85	1050.69
598.19	1040.85
598.54	1031.09
598.89	1021.74
599.24	1012.75
599.59	1003.64
599.94	995.42
600.29	986.96
600.64	978.17
600.99	969.02
601.34	960.33
601.69	951.26
602.04	942.88
602.39	934.37
602.74	925.85
603.08	917.34
603.43	908.75
603.78	900.37
604.13	892.19
604.48	883.92
604.83	875.86
605.18	867.73
605.53	859.78
605.87	851.58
606.22	843.80
606.57	835.90
606.92	827.84
607.27	819.73
607.62	812.03
607.96	804.74
608.31	797.88
608.66	790.79
609.01	784.02
609.36	777.34
609.70	770.36
610.05	763.43
610.40	756.73
610.75	750.05
611.10	743.70
611.44	737.19
611.79	730.79
612.14	724.33
612.49	717.97
612.83	711.88
613.18	705.95
613.53	699.87
613.88	693.90
614.22	688.38
614.57	682.72
614.92	676.87
615.27	671.18
615.61	665.56
615.96	659.99
616.31	654.41
616.65	648.90
617.00	643.68
617.35	638.50
617.70	633.40
618.04	628.31
618.39	623.17
618.74	618.29
619.08	613.44
619.43	608.70
619.78	604.00
620.12	599.27
620.47	594.70
620.82	590.24
621.16	585.75
621.51	581.14
621.85	576.61
622.20	572.29
622.55	567.97
622.89	563.70
623.24	559.43
623.59	555.25
623.93	551.21
624.28	547.24
624.62	543.38
624.97	539.55
625.32	535.73
625.66	531.85
626.01	527.91
626.35	524.08
626.70	520.29
627.04	516.68
627.39	513.01
627.73	509.52
628.08	506.10
628.43	502.70
628.77	499.40
629.12	496.20
629.46	492.98
629.81	489.69
630.15	486.42
630.50	483.26
630.84	480.13
631.19	477.06
631.53	474.10
631.88	471.11
632.22	468.14
632.57	465.46
632.91	462.80
633.26	460.27
633.60	457.73
633.95	455.27
634.29	452.69
634.64	450.19
634.98	447.48
635.32	444.95
635.67	442.61
636.01	440.17
636.36	437.80
636.70	435.59
637.05	433.37
637.39	431.16
637.73	428.99
638.08	426.94
638.42	424.83
638.77	422.62
639.11	420.35
639.45	418.17
639.80	415.94
640.14	413.82
640.49	411.65
640.83	409.46
641.17	407.37
641.52	405.31
641.86	403.28
642.20	401.48
642.55	399.50
642.89	397.56
643.23	395.70
643.58	394.04
643.92	392.21
644.26	390.45
644.61	388.74
644.95	386.97
645.29	385.15
645.64	383.37
645.98	381.65
646.32	380.08
646.66	378.48
647.01	376.90
647.35	375.38
647.69	373.84
648.04	372.44
648.38	370.96
648.72	369.50
649.06	368.04
649.41	366.59
649.75	365.20
650.09	363.80
650.43	362.42
650.78	360.99
651.12	359.60
651.46	358.26
651.80	356.96
652.14	355.70
652.49	354.47
652.83	353.22
653.17	352.01
653.51	350.83
653.85	349.72
654.20	348.53
654.54	347.29
654.88	346.13
655.22	344.99
655.56	343.84
655.90	342.76
656.25	341.71
656.59	340.65
656.93	339.66
657.27	338.68
657.61	337.61
657.95	336.59
658.29	335.58
658.64	334.64
658.98	333.68
659.32	332.74
659.66	331.83
660.00	330.95
660.34	330.08
660.68	329.16
661.02	328.19
661.36	327.28
661.70	326.39
662.05	325.54
662.39	324.69
662.73	323.92
663.07	323.14
663.41	322.32
663.75	321.49
664.09	320.67
664.43	319.82
664.77	319.06
665.11	318.25
665.45	317.51
665.79	316.77
666.13	315.98
666.47	315.18
666.81	314.37
667.15	313.54
667.49	312.81
667.83	312.15
668.17	311.47
668.51	310.84
668.85	310.21
669.19	309.62
669.53	308.93
669.87	308.23
670.21	307.57
670.55	306.94
670.89	306.39
671.23	305.78
671.57	305.19
671.91	304.64
672.25	304.12
672.58	303.57
672.92	302.96
673.26	302.44
673.60	301.94
673.94	301.44
674.28	300.98
674.62	300.47
674.96	299.90
675.30	299.40
675.64	298.84
675.97	298.30
676.31	297.72
676.65	297.20
676.99	296.75
677.33	296.21
677.67	295.71
678.01	295.13
678.34	294.65
678.68	294.18
679.02	293.66
679.36	293.14
679.70	292.64
680.04	292.16
680.37	291.68
680.71	291.22
681.05	290.76
681.39	290.27
681.73	289.75
682.06	289.25
682.40	288.77
682.74	288.36
683.08	287.98
683.42	287.53
683.75	287.12
684.09	286.63
684.43	286.21
684.77	285.77
685.10	285.38
685.44	284.95
685.78	284.54
686.12	284.14
686.45	283.73
686.79	283.30
687.13	282.90
687.46	282.45
687.80	282.03
688.14	281.58
688.48	281.19
688.81	280.78
689.15	280.42
689.49	280.01
689.82	279.58
690.16	279.10
690.50	278.70
690.83	278.28
691.17	277.87
691.51	277.46
691.84	277.08
692.18	276.66
692.52	276.23
692.85	275.82
693.19	275.46
693.52	275.06
693.86	274.66
694.20	274.28
694.53	273.90
694.87	273.49
695.21	273.09
695.54	272.70
695.88	272.31
696.21	271.89
696.55	271.51
696.88	271.13
697.22	270.76
697.56	270.38
697.89	269.97
698.23	269.61
698.56	269.20
698.90	268.84
699.23	268.45
699.57	268.07
699.90	267.69
700.24	267.30
700.58	266.95
700.91	266.66
701.25	266.42
701.58	266.13
701.92	265.82
702.25	265.50
702.59	265.15
702.92	264.82
703.26	264.47
703.59	264.12
703.93	263.88
704.26	263.57
704.60	263.22
704.93	262.88
705.26	262.55
705.60	262.27
705.93	261.91
706.27	261.63
706.60	261.37
706.94	261.10
707.27	260.75
707.61	260.42
707.94	260.07
708.27	259.62
708.61	259.26
708.94	258.93
709.28	258.63
709.61	258.31
709.94	258.04
710.28	257.77
710.61	257.53
710.95	257.14
711.28	256.93
711.61	256.66
711.95	256.43
712.28	256.15
712.61	255.85
712.95	255.66
713.28	255.46
713.61	255.14
713.95	254.82
714.28	254.57
714.61	254.30
714.95	254.04
715.28	253.79
715.61	253.53
715.95	253.31
716.28	253.07
716.61	252.87
716.95	252.61
717.28	252.36
717.61	252.11
717.94	251.87
718.28	251.54
718.61	251.30
718.94	251.06
719.27	250.84
719.61	250.64
719.94	250.38
720.27	250.08
720.60	249.86
720.94	249.66
721.27	249.45
721.60	249.27
721.93	249.04
722.27	248.88
722.60	248.70
722.93	248.47
723.26	248.26
723.59	248.02
723.93	247.82
724.26	247.63
724.59	247.43
724.92	247.25
725.25	247.10
725.59	246.92
725.92	246.75
726.25	246.58
726.58	246.39
726.91	246.20
727.24	246.05
727.57	245.87
727.91	245.69
728.24	245.54
728.57	245.36
728.90	245.21
729.23	245.00
729.56	244.87
729.89	244.70
730.22	244.52
730.55	244.37
730.89	244.21
731.22	244.04
731.55	243.89
731.88	243.73
732.21	243.55
732.54	243.39
732.87	243.23
733.20	243.09
733.53	242.94
733.86	242.80
734.19	242.62
734.52	242.50
734.85	242.44
735.18	242.26
735.51	242.16
735.84	242.01
736.17	241.91
736.50	241.71
736.83	241.73
737.16	241.61
737.49	241.49
737.82	241.35
738.15	241.23
738.48	241.09
738.81	240.97
739.14	240.83
739.47	240.69
739.80	240.55
740.13	240.41
740.46	240.27
740.79	240.13
741.12	240.00
741.45	239.84
741.78	239.63
742.11	239.54
742.44	239.38
742.77	239.26
743.10	239.12
743.43	238.99
743.75	238.73
744.08	238.81
744.41	238.68
744.74	238.56
745.07	238.43
745.40	238.34
745.73	238.27
746.06	238.16
746.39	238.07
746.71	237.96
747.04	237.85
747.37	237.74
747.70	237.67
748.03	237.57
748.36	237.50
748.68	237.41
749.01	237.27
749.34	237.18
749.67	237.09
750.00	237.01
750.33	237.01
750.65	236.93
750.98	236.64
751.31	236.55
751.64	236.47
751.97	236.43
752.29	236.33
752.62	236.17
752.95	236.07
753.28	235.97
753.60	235.87
753.93	235.81
754.26	235.74
754.59	235.61
754.91	235.51
755.24	235.41
755.57	235.38
755.90	235.29
756.22	235.19
756.55	235.08
756.88	234.98
757.20	234.81
757.53	234.69
757.86	234.61
758.19	234.53
758.51	234.45
758.84	234.31
759.17	234.22
759.49	234.16
759.82	234.15
760.15	234.09
760.47	234.02
760.80	233.92
761.13	233.87
761.45	233.79
761.78	233.73
762.11	233.67
762.43	233.54
762.76	233.48
763.08	233.44
763.41	233.40
763.74	233.34
764.06	233.27
764.39	233.22
764.71	233.16
765.04	233.08
765.37	233.02
765.69	232.97
766.02	232.91
766.34	232.85
766.67	232.75
767.00	232.72
767.32	232.74
767.65	232.76
767.97	232.70
768.30	232.65
768.62	232.60
768.95	232.55
769.27	232.49
769.60	232.45
769.92	232.38
770.25	232.30
770.57	232.23
770.90	232.18
771.22	232.11
771.55	232.07
771.87	232.04
772.20	231.99
772.52	232.05
772.85	232.15
773.17	232.11
773.50	232.05
773.82	231.98
774.15	231.87
774.47	231.75
774.80	231.69
775.12	231.65
775.45	231.61
775.77	231.57
776.09	231.55
776.42	231.51
776.74	231.51
777.07	231.48
777.39	231.46
777.72	231.41
778.04	231.39
778.36	231.35
778.69	231.32
779.01	231.30
779.33	231.15
779.66	230.98
779.98	230.94
780.31	230.91
780.63	230.93
780.95	230.93
781.28	230.89
781.60	230.85
781.92	230.82
782.25	230.79
782.57	230.75
782.89	230.72
783.22	230.68
783.54	230.62
783.86	230.60
784.19	230.56
784.51	230.59
784.83	230.54
785.16	230.51
785.48	230.48
785.80	230.45
786.12	230.44
786.45	230.42
786.77	230.40
787.09	230.37
787.42	230.31
787.74	230.29
788.06	230.28
788.38	230.26
788.71	230.22
789.03	230.21
789.35	230.21
789.67	230.18
789.99	230.16
790.32	230.12
790.64	230.12
790.96	230.21
791.28	230.14
791.61	230.12
791.93	230.11
792.25	230.09
792.57	230.15
792.89	230.11
793.21	230.10
793.54	230.07
793.86	230.04
794.18	230.02
794.50	229.98
794.82	229.95
795.14	229.96
795.47	229.96
795.79	229.95
796.11	229.90
796.43	229.87
796.75	229.86
797.07	229.85
797.39	229.83
797.71	229.71
798.04	229.69
798.36	229.68
798.68	229.65
799.00	229.64
799.32	229.58
799.64	229.58
799.96	229.55
800.28	229.56
800.60	229.54
800.92	229.53
801.24	229.51
801.56	229.50
801.89	229.47
802.21	229.45
802.53	229.42
802.85	229.43
803.17	229.48
803.49	229.44
803.81	229.41
804.13	229.38
804.45	229.35
804.77	229.34
805.09	229.34
805.41	229.31
805.73	229.28
806.05	229.23
806.37	229.21
806.69	229.18
807.01	229.14
807.33	229.14
807.65	229.08
807.97	229.12
808.28	229.09
808.60	229.08
808.92	229.06
809.24	229.12
809.56	229.08
809.88	229.02
810.20	229.01
810.52	229.01
810.84	228.98
811.16	228.97
811.48	228.94
811.80	228.97
812.12	228.95
812.43	228.96
812.75	228.95
813.07	228.93
813.39	228.93
813.71	228.91
814.03	228.88
814.35	228.87
814.67	228.81
814.98	228.79
815.30	228.78
815.62	228.74
815.94	228.65
816.26	228.66
816.58	228.63
816.89	228.63
817.21	228.60
817.53	228.60
817.85	228.60
818.17	228.59
818.48	228.54
818.80	228.56
819.12	228.52
819.44	228.50
819.76	228.48
820.07	228.47
820.39	228.46
820.71	228.47
821.03	228.47
821.34	228.46
821.66	228.48
821.98	228.48
822.30	228.47
822.61	228.54
822.93	228.50
823.25	228.50
823.57	228.48
823.88	228.48
824.20	228.48
824.52	228.49
824.83	228.47
825.15	228.46
825.47	228.44
825.79	228.44
826.10	228.44
826.42	228.43
826.74	228.43
827.05	228.43
827.37	228.42
827.69	228.40
828.00	228.40
828.32	228.39
828.64	228.37
828.95	228.43
829.27	228.38
829.58	228.37
829.90	228.39
830.22	228.40
830.53	228.37
830.85	228.35
831.17	228.31
831.48	228.31
831.80	228.31
832.11	228.29
832.43	228.27
832.75	228.27
833.06	228.34
833.38	228.30
833.69	228.29
834.01	228.30
834.32	228.29
834.64	228.27
834.96	228.27
835.27	228.26
835.59	228.22
835.90	228.20
836.22	228.19
836.53	228.16
836.85	228.13
837.16	228.25
837.48	228.25
837.79	228.29
838.11	228.29
838.42	228.30
838.74	228.31
839.05	228.30
839.37	228.29
839.68	228.21
840.00	228.21
840.31	228.22
840.63	228.20
840.94	228.19
841.26	228.17
841.57	228.17
841.88	228.18
842.20	228.16
842.51	228.14
842.83	228.15
843.14	228.25
843.46	228.24
843.77	228.17
844.08	228.16
844.40	228.11
844.71	228.10
845.03	228.07
845.34	228.06
845.65	228.05
845.97	228.05
846.28	228.06
846.60	228.06
846.91	228.02
847.22	228.01
847.54	228.03
847.85	228.04
848.16	228.02
848.48	227.98
848.79	228.03
849.10	228.04
849.42	228.04
849.73	227.92
850.04	227.92
850.36	227.88
850.67	227.89
850.98	227.91
851.30	227.91
851.61	227.91
851.92	227.90
852.23	227.94
852.55	227.94
852.86	227.93
853.17	227.94
853.49	227.96
853.80	227.99
854.11	228.00
854.42	228.01
854.74	228.00
855.05	228.01
855.36	227.94
855.67	227.94
855.99	227.93
856.30	228.08
856.61	228.08
856.92	228.07
857.23	228.07
857.55	228.05
857.86	228.04
858.17	228.05
858.48	228.04
858.79	228.01
859.11	228.02
859.42	228.02
859.73	228.00
860.04	228.00
860.35	227.96
860.66	227.91
860.98	227.91
861.29	227.92
861.60	227.90
861.91	227.93
862.22	227.91
862.53	227.88
862.84	227.73
863.16	227.75
863.47	227.73
863.78	227.71
864.09	227.72
864.40	227.72
864.71	227.72
865.02	227.73
865.33	227.72
865.64	227.70
865.95	227.69
866.27	227.77
866.58	227.76
866.89	227.78
867.20	227.78
867.51	227.77
867.82	227.76
868.13	227.80
868.44	227.77
868.75	227.80
869.06	227.81
869.37	227.82
869.68	227.79
869.99	227.82
870.30	227.83
870.61	227.84
870.92	227.82
871.23	227.81
871.54	227.82
871.85	227.85
872.16	227.87
872.47	227.86
872.78	227.80
873.09	227.80
873.40	227.78
873.71	227.79
874.02	227.79
874.33	227.78
874.64	227.77
874.95	227.79
875.26	227.76
875.56	227.76
875.87	227.75
876.18	227.74
876.49	227.87
876.80	227.86
877.11	227.84
877.42	227.85
877.73	227.85
878.04	227.83
878.35	227.83
878.66	227.83
878.96	227.83
879.27	227.82
879.58	227.81
879.89	227.81
880.20	227.84
880.51	227.84
880.82	227.84
881.12	227.84
881.43	227.81
881.74	227.80
882.05	227.80
882.36	227.80
882.67	227.82
882.97	227.69
883.28	227.68
883.59	227.67
883.90	227.69
884.21	227.70
884.51	227.69
884.82	227.66
885.13	227.65
885.44	227.65
885.74	227.64
886.05	227.64
886.36	227.64
886.67	227.59
886.98	227.65
887.28	227.67
887.59	227.67
887.90	227.67
888.20	227.67
888.51	227.70
888.82	227.67
889.13	227.68
889.43	227.78
889.74	227.77
890.05	227.77
890.35	227.75
890.66	227.73
890.97	227.72
891.28	227.72
891.58	227.73
891.89	227.73
892.20	227.72
892.50	227.71
892.81	227.70
893.12	227.70
893.42	227.63
893.73	227.63
894.04	227.62
894.34	227.63
894.65	227.62
894.95	227.61
895.26	227.62
895.57	227.68
895.87	227.56
896.18	227.58
896.48	227.59
896.79	227.59
897.10	227.62
897.40	227.63
897.71	227.64
898.01	227.63
898.32	227.64
898.63	227.64
898.93	227.66
899.24	227.66
899.54	227.65
899.85	227.66
900.15	227.65
900.46	227.65
900.76	227.66
901.07	227.66
901.38	227.65
901.68	227.66
901.99	227.59
902.29	227.59
902.60	227.58
902.90	227.57
903.21	227.57
903.51	227.55
903.82	227.57
904.12	227.57
904.43	227.58
904.73	227.57
905.03	227.57
905.34	227.68
905.64	227.68
905.95	227.68
906.25	227.67
906.56	227.67
906.86	227.68
907.17	227.67
907.47	227.67
907.77	227.66
908.08	227.64
908.38	227.64
908.69	227.66
908.99	227.68
909.30	227.68
909.60	227.69
909.90	227.69
910.21	227.65
910.51	227.63
910.81	227.62
911.12	227.64
911.42	227.64
911.73	227.50
912.03	227.52
912.33	227.54
912.64	227.53
912.94	227.52
913.24	227.49
913.55	227.48
913.85	227.47
914.15	227.49
914.46	227.50
914.76	227.49
915.06	227.48
915.37	227.44
915.67	227.43
915.97	227.43
916.27	227.40
916.58	227.41
916.88	227.41
917.18	227.40
917.49	227.47
917.79	227.46
918.09	227.48
918.39	227.51
918.70	227.49
919.00	227.50
919.30	227.55
919.60	227.55
919.91	227.55
920.21	227.55
920.51	227.53
920.81	227.53
921.12	227.54
921.42	227.54
921.72	227.55
922.02	227.56
922.32	227.57
922.63	227.58
922.93	227.65
923.23	227.66
923.53	227.66
923.83	227.58
924.13	227.59
924.44	227.58
924.74	227.60
925.04	227.63
925.34	227.63
925.64	227.57
925.94	227.58
926.24	227.64
926.55	227.64
926.85	227.65
927.15	227.64
927.45	227.64
927.75	227.64
928.05	227.63
928.35	227.62
928.65	227.65
928.95	227.65
929.26	227.59
929.56	227.61
929.86	227.62
930.16	227.60
930.46	227.58
930.76	227.59
931.06	227.52
931.36	227.49
931.66	227.51
931.96	227.53
932.26	227.53
932.56	227.48
932.86	227.48
933.16	227.49
933.46	227.48
933.76	227.47
934.06	227.49
934.36	227.53
934.66	227.54
934.96	227.52
935.26	227.52
935.56	227.54
935.86	227.51
936.16	227.49
936.46	227.49
936.76	227.48
937.06	227.46
937.36	227.48
937.66	227.48
937.96	227.47
938.26	227.44
938.56	227.43
938.86	227.44
939.16	227.46
939.46	227.47
939.76	227.47
940.06	227.47
940.35	227.44
940.65	227.39
940.95	227.38
941.25	227.34
941.55	227.33
941.85	227.31
942.15	227.35
942.45	227.39
942.75	227.38
943.04	227.39
943.34	227.42
943.64	227.41
943.94	227.39
944.24	227.39
944.54	227.40
944.84	227.39
945.13	227.37
945.43	227.35
945.73	227.34
946.03	227.34
946.33	227.33
946.62	227.33
946.92	227.32
947.22	227.34
947.52	227.35
947.82	227.37
948.11	227.35
948.41	227.32
948.71	227.28
949.01	227.29
949.31	227.27
949.60	227.26
949.90	227.27
950.20	227.26
950.50	227.25
950.79	227.25
951.09	227.27
951.39	227.28
951.69	227.27
951.98	227.30
952.28	227.30
952.58	227.30
952.87	227.29
953.17	227.31
953.47	227.30
953.76	227.30
954.06	227.28
954.36	227.26
954.66	227.26
954.95	227.30
955.25	227.31
955.55	227.32
955.84	227.30
956.14	227.31
956.44	227.32
956.73	227.31
957.03	227.33
957.32	227.32
957.62	227.32
957.92	227.35
958.21	227.32
958.51	227.46
958.81	227.48
959.10	227.50
959.40	227.53
959.69	227.54
959.99	227.55
960.29	227.55
960.58	227.54
960.88	227.59
961.17	227.57
961.47	227.58
961.76	227.57
962.06	227.61
962.36	227.59
962.65	227.59
962.95	227.61
963.24	227.59
963.54	227.59
963.83	227.60
964.13	227.58
964.42	227.58
964.72	227.47
965.01	227.47
965.31	227.44
965.60	227.41
965.90	227.49
966.19	227.47
966.49	227.48
966.78	227.49
967.08	227.46
967.37	227.47
967.67	227.45
967.96	227.47
968.26	227.45
968.55	227.47
968.85	227.47
969.14	227.46
969.43	227.47
969.73	227.45
970.02	227.44
970.32	227.44
970.61	227.41
970.91	227.38
971.20	227.36
971.49	227.36
971.79	227.37
972.08	227.28
972.38	227.29
972.67	227.28
972.96	227.29
973.26	227.27
973.55	227.32
973.85	227.30
974.14	227.27
974.43	227.28
974.73	227.26
975.02	227.24
975.31	227.25
975.61	227.24
975.90	227.22
976.19	227.21
976.49	227.22
976.78	227.23
977.07	227.23
977.37	227.24
977.66	227.25
977.95	227.24
978.24	227.25
978.54	227.27
978.83	227.26
979.12	227.25
979.42	227.25
979.71	227.21
980.00	227.22
980.29	227.23
980.59	227.22
980.88	227.25
981.17	227.24
981.46	227.24
981.76	227.24
982.05	227.29
982.34	227.30
982.63	227.29
982.93	227.30
983.22	227.32
983.51	227.33
983.80	227.35
984.09	227.35
984.39	227.34
984.68	227.33
984.97	227.34
985.26	227.34
985.55	227.35
985.85	227.33
986.14	227.36
986.43	227.37
986.72	227.37
987.01	227.33
987.30	227.34
987.59	227.34
987.89	227.36
988.18	227.31
988.47	227.30
988.76	227.29
989.05	227.27
989.34	227.26
989.63	227.29
989.92	227.27
990.22	227.26
990.51	227.26
990.80	227.24
991.09	227.25
991.38	227.27
991.67	227.25
991.96	227.23
992.25	227.23
992.54	227.19
992.83	227.19
993.12	227.19
993.41	227.21
993.70	227.26
993.99	227.27
994.28	227.29
994.58	227.31
994.87	227.30
995.16	227.31
995.45	227.29
995.74	227.25
996.03	227.26
996.32	227.29
996.61	227.32
996.90	227.31
997.19	227.31
997.48	227.30
997.77	227.29
998.06	227.31
998.34	227.29
998.63	227.30
998.92	227.30
999.21	227.32
999.50	227.32
999.79	227.28
1000.08	227.28
1000.37	227.28
1000.66	227.26
1000.95	227.29
1001.24	227.30
1001.53	227.31
1001.82	227.31
1002.11	227.29
1002.40	227.30
1002.68	227.32
1002.97	227.41
1003.26	227.40
1003.55	227.38
1003.84	227.40
1004.13	227.44
1004.42	227.44
1004.71	227.43
1004.99	227.43
1005.28	227.45
1005.57	227.43
1005.86	227.41
1006.15	227.41
1006.44	227.39
1006.72	227.41
1007.01	227.39
1007.30	227.39
1007.59	227.38
1007.88	227.38
1008.17	227.38
1008.45	227.36
1008.74	227.31
1009.03	227.24
1009.32	227.25
1009.60	227.25
1009.89	227.24
1010.18	227.19
1010.47	227.18
1010.76	227.19
1011.04	227.19
1011.33	227.18
1011.62	227.19
1011.91	227.21
1012.19	227.21
1012.48	227.21
1012.77	227.20
1013.05	227.25
1013.34	227.24
1013.63	227.24
1013.92	227.24
1014.20	227.24
1014.49	227.25
1014.78	227.26
1015.06	227.22
1015.35	227.23
1015.64	227.24
1015.92	227.26
1016.21	227.27
1016.50	227.29
1016.78	227.30
1017.07	227.31
1017.36	227.30
1017.64	227.28
1017.93	227.28
1018.22	227.27
1018.50	227.27
1018.79	227.26
1019.08	227.21
1019.36	227.22
1019.65	227.21
1019.93	227.23
1020.22	227.25
1020.51	227.32
1020.79	227.30
1021.08	226.96
1021.36	226.94
1021.65	227.16
1021.94	227.13
1022.22	227.25
1022.51	227.02
1022.79	227.80
1023.08	227.50
1023.36	228.72
1023.65	226.97
>>>>>End Processed Spectral Data<<<<<
