SpectraSuite Data File
++++++++++++++++++++++++++++++++++++
Date: Sat Oct 03 06:04:17 EDT 2015
User: lab3
Dark Spectrum Present: No
Reference Spectrum Present: No
Number of Sampled Component Spectra: 1
Spectrometers: USB2E7196
Integration Time (usec): 46000 (USB2E7196)
Spectra Averaged: 12000 (USB2E7196)
Boxcar Smoothing: 10 (USB2E7196)
Correct for Electrical Dark: No (USB2E7196)
Strobe/Lamp Enabled: No (USB2E7196)
Correct for Detector Non-linearity: No (USB2E7196)
Correct for Stray Light: No (USB2E7196)
Number of Pixels in Processed Spectrum: 2048
>>>>>Begin Processed Spectral Data<<<<<
339.09	0.00
339.48	213.70
339.86	215.09
340.24	216.50
340.63	217.88
341.01	221.18
341.39	220.64
341.78	221.99
342.16	223.22
342.54	223.63
342.93	212.10
343.31	222.82
343.69	223.35
344.07	223.82
344.46	224.25
344.84	224.64
345.22	224.86
345.60	225.12
345.99	225.31
346.37	225.45
346.75	225.56
347.13	225.64
347.52	225.71
347.90	225.80
348.28	225.83
348.66	225.89
349.05	225.89
349.43	225.95
349.81	226.01
350.19	226.06
350.57	226.13
350.96	226.22
351.34	226.31
351.72	226.41
352.10	226.52
352.48	226.59
352.87	226.64
353.25	226.71
353.63	226.77
354.01	226.83
354.39	226.92
354.77	226.99
355.15	227.10
355.54	227.15
355.92	227.18
356.30	227.26
356.68	227.41
357.06	227.49
357.44	227.53
357.82	227.59
358.20	227.71
358.58	227.76
358.97	227.83
359.35	227.91
359.73	227.99
360.11	228.04
360.49	228.11
360.87	228.15
361.25	228.22
361.63	228.31
362.01	228.36
362.39	228.39
362.77	228.44
363.15	228.46
363.53	228.50
363.91	228.53
364.29	228.55
364.67	228.45
365.05	228.48
365.43	228.51
365.81	228.54
366.19	228.56
366.57	228.62
366.95	228.62
367.33	228.59
367.71	228.58
368.09	228.61
368.47	228.60
368.85	228.59
369.23	228.59
369.61	228.53
369.99	228.55
370.37	228.55
370.75	228.62
371.13	228.59
371.51	228.54
371.89	228.52
372.27	228.50
372.65	228.48
373.03	228.44
373.41	228.40
373.78	228.35
374.16	228.24
374.54	228.16
374.92	228.11
375.30	228.07
375.68	228.00
376.06	227.96
376.44	227.90
376.82	227.86
377.19	227.81
377.57	227.76
377.95	227.67
378.33	227.61
378.71	227.45
379.09	227.41
379.47	227.37
379.84	227.31
380.22	227.25
380.60	227.18
380.98	227.13
381.36	227.08
381.73	227.01
382.11	226.99
382.49	226.95
382.87	226.89
383.25	226.85
383.62	226.95
384.00	226.88
384.38	226.84
384.76	226.83
385.13	226.82
385.51	226.78
385.89	226.73
386.27	226.70
386.64	226.68
387.02	226.64
387.40	226.59
387.78	226.57
388.15	226.55
388.53	226.51
388.91	226.48
389.29	226.45
389.66	226.45
390.04	226.41
390.42	226.40
390.79	226.39
391.17	226.38
391.55	226.22
391.92	226.21
392.30	226.21
392.68	226.17
393.05	226.15
393.43	226.16
393.81	226.16
394.18	226.14
394.56	226.15
394.94	226.18
395.31	226.17
395.69	226.22
396.06	226.25
396.44	226.28
396.82	226.29
397.19	226.38
397.57	226.39
397.95	226.43
398.32	226.43
398.70	226.47
399.07	226.54
399.45	226.58
399.82	226.63
400.20	226.66
400.58	226.73
400.95	226.74
401.33	226.82
401.70	226.98
402.08	227.09
402.45	227.17
402.83	227.29
403.20	227.41
403.58	227.50
403.95	227.64
404.33	227.80
404.71	227.94
405.08	228.16
405.46	228.32
405.83	228.51
406.21	228.71
406.58	228.93
406.96	229.15
407.33	229.40
407.70	229.69
408.08	230.07
408.45	230.41
408.83	230.77
409.20	231.10
409.58	231.40
409.95	231.81
410.33	232.26
410.70	232.68
411.08	233.17
411.45	233.70
411.82	234.22
412.20	234.83
412.57	235.55
412.95	236.11
413.32	236.85
413.69	237.61
414.07	238.41
414.44	239.29
414.82	240.18
415.19	241.23
415.56	242.28
415.94	243.38
416.31	244.61
416.68	245.84
417.06	247.27
417.43	248.61
417.81	250.14
418.18	251.71
418.55	253.42
418.93	255.20
419.30	257.06
419.67	259.03
420.04	261.05
420.42	263.16
420.79	265.60
421.16	268.06
421.54	270.57
421.91	273.19
422.28	275.90
422.66	278.82
423.03	281.62
423.40	284.54
423.77	287.68
424.15	290.89
424.52	294.24
424.89	297.87
425.26	301.47
425.64	304.81
426.01	308.58
426.38	312.43
426.75	316.40
427.13	320.47
427.50	324.74
427.87	329.17
428.24	333.64
428.61	337.94
428.99	342.58
429.36	347.68
429.73	352.55
430.10	357.43
430.47	362.42
430.85	367.56
431.22	373.07
431.59	378.73
431.96	384.25
432.33	390.40
432.70	396.24
433.08	403.14
433.45	409.67
433.82	416.10
434.19	423.28
434.56	430.36
434.93	437.20
435.30	443.96
435.68	451.60
436.05	459.08
436.42	466.54
436.79	473.35
437.16	480.68
437.53	488.53
437.90	496.41
438.27	504.11
438.64	512.42
439.01	519.96
439.38	526.86
439.75	533.50
440.13	540.98
440.50	548.09
440.87	553.73
441.24	559.90
441.61	566.64
441.98	571.54
442.35	577.35
442.72	583.27
443.09	588.91
443.46	592.47
443.83	595.06
444.20	597.20
444.57	600.41
444.94	602.21
445.31	604.07
445.68	605.63
446.05	606.74
446.42	606.27
446.79	605.61
447.16	605.01
447.53	604.45
447.90	601.94
448.27	599.52
448.64	595.93
449.01	593.41
449.37	588.48
449.74	584.01
450.11	578.29
450.48	572.05
450.85	565.80
451.22	560.46
451.59	555.25
451.96	550.54
452.33	543.72
452.70	537.68
453.07	530.31
453.43	522.97
453.80	515.85
454.17	509.03
454.54	502.76
454.91	495.68
455.28	489.06
455.65	482.83
456.02	476.25
456.38	470.95
456.75	464.14
457.12	458.65
457.49	453.13
457.86	447.93
458.23	443.39
458.59	438.35
458.96	433.18
459.33	428.64
459.70	424.02
460.07	420.52
460.43	416.39
460.80	412.54
461.17	409.20
461.54	405.57
461.91	402.19
462.27	398.75
462.64	395.98
463.01	392.77
463.38	389.55
463.74	386.64
464.11	384.07
464.48	381.77
464.85	379.26
465.21	377.37
465.58	375.24
465.95	372.78
466.32	370.84
466.68	368.94
467.05	367.02
467.42	365.16
467.78	363.12
468.15	361.26
468.52	359.91
468.88	358.08
469.25	356.41
469.62	355.08
469.98	353.62
470.35	352.33
470.72	351.16
471.08	349.97
471.45	348.97
471.82	347.85
472.18	346.66
472.55	345.89
472.92	344.92
473.28	344.16
473.65	343.35
474.02	342.56
474.38	341.90
474.75	341.51
475.11	340.96
475.48	340.71
475.85	340.42
476.21	340.27
476.58	340.16
476.94	340.27
477.31	340.32
477.67	340.39
478.04	340.59
478.41	340.87
478.77	341.28
479.14	341.53
479.50	342.02
479.87	342.68
480.23	343.33
480.60	343.97
480.96	344.63
481.33	345.61
481.69	346.58
482.06	347.55
482.42	348.43
482.79	349.54
483.15	350.82
483.52	352.27
483.88	353.67
484.25	355.16
484.61	356.72
484.98	358.41
485.34	360.31
485.71	362.29
486.07	364.41
486.44	366.53
486.80	368.90
487.17	371.35
487.53	374.05
487.90	376.86
488.26	379.92
488.62	383.15
488.99	386.38
489.35	389.79
489.72	393.48
490.08	397.37
490.44	401.38
490.81	405.56
491.17	409.84
491.54	414.44
491.90	419.19
492.26	424.26
492.63	429.58
492.99	435.13
493.36	440.88
493.72	446.93
494.08	453.12
494.45	459.71
494.81	466.54
495.17	473.56
495.54	480.97
495.90	488.68
496.26	496.58
496.63	504.71
496.99	513.16
497.35	522.00
497.72	531.14
498.08	540.48
498.44	550.13
498.80	560.36
499.17	570.85
499.53	581.67
499.89	592.87
500.26	604.28
500.62	616.00
500.98	628.35
501.34	640.89
501.71	653.94
502.07	667.17
502.43	680.94
502.79	694.95
503.16	709.42
503.52	724.08
503.88	739.17
504.24	754.73
504.60	770.49
504.97	786.74
505.33	803.42
505.69	820.99
506.05	838.92
506.41	856.79
506.78	874.83
507.14	893.38
507.50	912.39
507.86	931.74
508.22	951.31
508.59	970.73
508.95	990.94
509.31	1011.90
509.67	1033.56
510.03	1055.24
510.39	1076.95
510.75	1098.86
511.12	1121.05
511.48	1143.43
511.84	1165.86
512.20	1188.67
512.56	1212.35
512.92	1236.05
513.28	1259.39
513.64	1282.99
514.00	1307.03
514.37	1331.38
514.73	1355.75
515.09	1379.98
515.45	1404.53
515.81	1429.27
516.17	1454.15
516.53	1478.57
516.89	1502.89
517.25	1527.35
517.61	1551.71
517.97	1576.56
518.33	1600.91
518.69	1625.18
519.05	1649.90
519.41	1674.90
519.77	1700.19
520.13	1724.71
520.49	1749.14
520.85	1773.90
521.21	1798.25
521.57	1822.97
521.93	1847.20
522.29	1871.94
522.65	1896.14
523.01	1920.33
523.37	1944.12
523.73	1968.60
524.09	1992.82
524.45	2016.84
524.81	2040.47
525.17	2063.95
525.53	2086.86
525.89	2110.22
526.25	2133.55
526.61	2155.90
526.97	2178.42
527.33	2200.80
527.68	2222.94
528.04	2244.29
528.40	2264.75
528.76	2285.36
529.12	2305.56
529.48	2325.50
529.84	2343.57
530.20	2362.27
530.56	2380.35
530.91	2398.58
531.27	2416.48
531.63	2433.48
531.99	2449.99
532.35	2465.88
532.71	2481.95
533.07	2498.68
533.42	2513.59
533.78	2529.47
534.14	2545.53
534.50	2560.67
534.86	2575.55
535.21	2588.57
535.57	2602.08
535.93	2615.32
536.29	2627.48
536.65	2639.41
537.00	2650.60
537.36	2662.76
537.72	2673.52
538.08	2683.80
538.44	2693.39
538.79	2702.57
539.15	2710.96
539.51	2719.07
539.87	2726.53
540.22	2731.89
540.58	2737.28
540.94	2743.88
541.29	2748.96
541.65	2752.31
542.01	2754.83
542.37	2756.73
542.72	2759.94
543.08	2761.45
543.44	2763.58
543.79	2764.63
544.15	2764.85
544.51	2765.47
544.87	2764.94
545.22	2763.74
545.58	2761.85
545.94	2759.94
546.29	2756.72
546.65	2753.49
547.01	2750.12
547.36	2747.46
547.72	2745.06
548.07	2740.90
548.43	2735.30
548.79	2728.67
549.14	2723.29
549.50	2718.27
549.86	2712.33
550.21	2705.22
550.57	2699.08
550.92	2690.66
551.28	2682.79
551.64	2675.29
551.99	2667.29
552.35	2658.69
552.70	2650.29
553.06	2642.23
553.41	2633.57
553.77	2624.66
554.13	2615.70
554.48	2605.95
554.84	2594.92
555.19	2584.33
555.55	2573.77
555.90	2563.29
556.26	2553.38
556.61	2542.43
556.97	2529.82
557.32	2517.73
557.68	2505.57
558.03	2493.11
558.39	2481.85
558.74	2470.89
559.10	2458.17
559.45	2445.69
559.81	2433.86
560.16	2421.40
560.52	2409.17
560.87	2397.27
561.23	2384.59
561.58	2371.96
561.94	2359.00
562.29	2345.53
562.64	2332.76
563.00	2319.69
563.35	2307.01
563.71	2294.20
564.06	2281.21
564.42	2268.98
564.77	2256.12
565.12	2243.18
565.48	2230.24
565.83	2217.24
566.19	2204.37
566.54	2191.50
566.89	2177.49
567.25	2163.59
567.60	2151.04
567.96	2137.58
568.31	2122.79
568.66	2108.71
569.02	2095.86
569.37	2082.90
569.72	2070.43
570.08	2056.72
570.43	2042.67
570.78	2028.47
571.14	2013.51
571.49	1999.20
571.84	1985.42
572.20	1970.46
572.55	1955.72
572.90	1940.92
573.26	1926.12
573.61	1910.84
573.96	1895.99
574.31	1881.36
574.67	1866.81
575.02	1851.21
575.37	1835.70
575.72	1821.01
576.08	1806.68
576.43	1791.18
576.78	1776.11
577.13	1761.31
577.49	1746.85
577.84	1733.01
578.19	1718.23
578.54	1703.65
578.90	1688.57
579.25	1673.39
579.60	1659.76
579.95	1646.07
580.30	1632.18
580.66	1618.05
581.01	1603.78
581.36	1589.48
581.71	1576.21
582.06	1562.86
582.42	1549.72
582.77	1536.66
583.12	1523.56
583.47	1510.30
583.82	1497.17
584.17	1483.71
584.53	1469.92
584.88	1456.50
585.23	1442.62
585.58	1429.55
585.93	1416.69
586.28	1404.62
586.63	1392.50
586.98	1379.94
587.34	1367.44
587.69	1354.60
588.04	1342.11
588.39	1330.01
588.74	1318.07
589.09	1305.90
589.44	1293.28
589.79	1281.31
590.14	1269.44
590.49	1257.50
590.84	1245.76
591.19	1234.38
591.54	1222.79
591.89	1211.36
592.25	1200.10
592.60	1188.50
592.95	1177.32
593.30	1166.35
593.65	1155.03
594.00	1143.88
594.35	1133.27
594.70	1122.22
595.05	1112.10
595.40	1101.88
595.75	1091.50
596.10	1081.65
596.45	1071.51
596.80	1061.74
597.15	1051.67
597.50	1041.76
597.85	1032.30
598.19	1022.63
598.54	1013.00
598.89	1003.86
599.24	995.02
599.59	985.97
599.94	977.88
600.29	969.55
600.64	960.96
600.99	952.02
601.34	943.41
601.69	934.49
602.04	926.24
602.39	917.81
602.74	909.43
603.08	901.02
603.43	892.55
603.78	884.28
604.13	876.17
604.48	868.09
604.83	860.15
605.18	852.11
605.53	844.25
605.87	836.21
606.22	828.47
606.57	820.68
606.92	812.82
607.27	804.86
607.62	797.22
607.96	789.99
608.31	783.21
608.66	776.22
609.01	769.50
609.36	762.88
609.70	756.06
610.05	749.21
610.40	742.63
610.75	736.04
611.10	729.79
611.44	723.36
611.79	717.04
612.14	710.67
612.49	704.37
612.83	698.37
613.18	692.51
613.53	686.53
613.88	680.60
614.22	675.06
614.57	669.49
614.92	663.76
615.27	658.13
615.61	652.54
615.96	647.02
616.31	641.51
616.65	636.06
617.00	630.80
617.35	625.67
617.70	620.58
618.04	615.55
618.39	610.44
618.74	605.59
619.08	600.78
619.43	596.09
619.78	591.40
620.12	586.67
620.47	582.11
620.82	577.67
621.16	573.25
621.51	568.72
621.85	564.22
622.20	559.88
622.55	555.58
622.89	551.38
623.24	547.17
623.59	543.00
623.93	538.99
624.28	535.07
624.62	531.24
624.97	527.45
625.32	523.63
625.66	519.76
626.01	515.86
626.35	512.04
626.70	508.25
627.04	504.68
627.39	501.02
627.73	497.53
628.08	494.12
628.43	490.70
628.77	487.36
629.12	484.15
629.46	480.97
629.81	477.69
630.15	474.40
630.50	471.22
630.84	468.08
631.19	465.01
631.53	462.05
631.88	459.06
632.22	456.08
632.57	453.40
632.91	450.76
633.26	448.19
633.60	445.63
633.95	443.14
634.29	440.55
634.64	438.05
634.98	435.36
635.32	432.81
635.67	430.46
636.01	428.04
636.36	425.66
636.70	423.42
637.05	421.17
637.39	418.97
637.73	416.79
638.08	414.73
638.42	412.63
638.77	410.40
639.11	408.11
639.45	405.92
639.80	403.65
640.14	401.50
640.49	399.34
640.83	397.15
641.17	395.05
641.52	393.01
641.86	390.98
642.20	389.16
642.55	387.19
642.89	385.24
643.23	383.38
643.58	381.68
643.92	379.86
644.26	378.11
644.61	376.40
644.95	374.66
645.29	372.84
645.64	371.05
645.98	369.35
646.32	367.78
646.66	366.19
647.01	364.61
647.35	363.08
647.69	361.53
648.04	360.12
648.38	358.63
648.72	357.17
649.06	355.70
649.41	354.25
649.75	352.85
650.09	351.47
650.43	350.09
650.78	348.65
651.12	347.26
651.46	345.93
651.80	344.62
652.14	343.34
652.49	342.11
652.83	340.86
653.17	339.65
653.51	338.46
653.85	337.34
654.20	336.18
654.54	334.95
654.88	333.80
655.22	332.67
655.56	331.53
655.90	330.45
656.25	329.41
656.59	328.36
656.93	327.36
657.27	326.37
657.61	325.34
657.95	324.35
658.29	323.34
658.64	322.40
658.98	321.45
659.32	320.52
659.66	319.64
660.00	318.78
660.34	317.92
660.68	317.03
661.02	316.11
661.36	315.22
661.70	314.38
662.05	313.55
662.39	312.74
662.73	312.01
663.07	311.28
663.41	310.51
663.75	309.73
664.09	308.96
664.43	308.15
664.77	307.43
665.11	306.67
665.45	305.98
665.79	305.28
666.13	304.56
666.47	303.82
666.81	303.07
667.15	302.30
667.49	301.63
667.83	301.01
668.17	300.37
668.51	299.77
668.85	299.20
669.19	298.67
669.53	298.03
669.87	297.38
670.21	296.76
670.55	296.17
670.89	295.67
671.23	295.11
671.57	294.57
671.91	294.07
672.25	293.60
672.58	293.12
672.92	292.56
673.26	292.09
673.60	291.62
673.94	291.16
674.28	290.74
674.62	290.28
674.96	289.76
675.30	289.31
675.64	288.83
675.97	288.33
676.31	287.80
676.65	287.32
676.99	286.92
677.33	286.43
677.67	285.99
678.01	285.47
678.34	285.04
678.68	284.62
679.02	284.15
679.36	283.70
679.70	283.24
680.04	282.83
680.37	282.40
680.71	282.00
681.05	281.61
681.39	281.18
681.73	280.72
682.06	280.29
682.40	279.88
682.74	279.51
683.08	279.20
683.42	278.82
683.75	278.47
684.09	278.04
684.43	277.68
684.77	277.30
685.10	276.98
685.44	276.62
685.78	276.26
686.12	275.93
686.45	275.56
686.79	275.19
687.13	274.85
687.46	274.47
687.80	274.12
688.14	273.72
688.48	273.39
688.81	273.04
689.15	272.73
689.49	272.38
689.82	272.01
690.16	271.59
690.50	271.24
690.83	270.89
691.17	270.54
691.51	270.20
691.84	269.87
692.18	269.51
692.52	269.14
692.85	268.79
693.19	268.48
693.52	268.14
693.86	267.81
694.20	267.49
694.53	267.17
694.87	266.82
695.21	266.49
695.54	266.16
695.88	265.82
696.21	265.46
696.55	265.14
696.88	264.82
697.22	264.51
697.56	264.19
697.89	263.83
698.23	263.52
698.56	263.18
698.90	262.87
699.23	262.53
699.57	262.22
699.90	261.89
700.24	261.54
700.58	261.25
700.91	260.99
701.25	260.79
701.58	260.55
701.92	260.29
702.25	260.02
702.59	259.72
702.92	259.43
703.26	259.14
703.59	258.84
703.93	258.65
704.26	258.38
704.60	258.09
704.93	257.80
705.26	257.50
705.60	257.27
705.93	256.96
706.27	256.72
706.60	256.49
706.94	256.27
707.27	255.97
707.61	255.68
707.94	255.38
708.27	254.98
708.61	254.65
708.94	254.36
709.28	254.09
709.61	253.82
709.94	253.58
710.28	253.34
710.61	253.12
710.95	252.77
711.28	252.60
711.61	252.35
711.95	252.15
712.28	251.90
712.61	251.63
712.95	251.47
713.28	251.30
713.61	251.03
713.95	250.75
714.28	250.53
714.61	250.29
714.95	250.07
715.28	249.85
715.61	249.63
715.95	249.43
716.28	249.22
716.61	249.04
716.95	248.81
717.28	248.60
717.61	248.37
717.94	248.16
718.28	247.86
718.61	247.64
718.94	247.42
719.27	247.22
719.61	247.03
719.94	246.80
720.27	246.52
720.60	246.33
720.94	246.14
721.27	245.95
721.60	245.78
721.93	245.58
722.27	245.43
722.60	245.26
722.93	245.06
723.26	244.87
723.59	244.65
723.93	244.48
724.26	244.30
724.59	244.11
724.92	243.95
725.25	243.83
725.59	243.66
725.92	243.51
726.25	243.35
726.58	243.18
726.91	243.01
727.24	242.86
727.57	242.70
727.91	242.53
728.24	242.39
728.57	242.22
728.90	242.08
729.23	241.88
729.56	241.78
729.89	241.62
730.22	241.46
730.55	241.31
730.89	241.16
731.22	241.01
731.55	240.86
731.88	240.71
732.21	240.53
732.54	240.38
732.87	240.24
733.20	240.10
733.53	239.97
733.86	239.84
734.19	239.68
734.52	239.56
734.85	239.52
735.18	239.35
735.51	239.25
735.84	239.12
736.17	239.03
736.50	238.84
736.83	238.86
737.16	238.75
737.49	238.63
737.82	238.51
738.15	238.41
738.48	238.29
738.81	238.17
739.14	238.04
739.47	237.91
739.80	237.78
740.13	237.67
740.46	237.53
740.79	237.40
741.12	237.28
741.45	237.14
741.78	236.95
742.11	236.87
742.44	236.73
742.77	236.63
743.10	236.49
743.43	236.38
743.75	236.14
744.08	236.22
744.41	236.10
744.74	235.99
745.07	235.86
745.40	235.77
745.73	235.73
746.06	235.63
746.39	235.55
746.71	235.45
747.04	235.34
747.37	235.25
747.70	235.18
748.03	235.09
748.36	235.03
748.68	234.93
749.01	234.80
749.34	234.72
749.67	234.63
750.00	234.56
750.33	234.57
750.65	234.48
750.98	234.21
751.31	234.13
751.64	234.05
751.97	234.04
752.29	233.94
752.62	233.80
752.95	233.70
753.28	233.60
753.60	233.51
753.93	233.47
754.26	233.39
754.59	233.27
754.91	233.17
755.24	233.08
755.57	233.06
755.90	232.98
756.22	232.89
756.55	232.79
756.88	232.68
757.20	232.52
757.53	232.41
757.86	232.33
758.19	232.27
758.51	232.19
758.84	232.05
759.17	231.96
759.49	231.89
759.82	231.89
760.15	231.83
760.47	231.76
760.80	231.66
761.13	231.61
761.45	231.55
761.78	231.49
762.11	231.43
762.43	231.30
762.76	231.24
763.08	231.20
763.41	231.14
763.74	231.10
764.06	231.04
764.39	230.99
764.71	230.93
765.04	230.86
765.37	230.80
765.69	230.75
766.02	230.70
766.34	230.63
766.67	230.53
767.00	230.49
767.32	230.51
767.65	230.55
767.97	230.48
768.30	230.44
768.62	230.39
768.95	230.33
769.27	230.27
769.60	230.24
769.92	230.17
770.25	230.10
770.57	230.03
770.90	229.99
771.22	229.93
771.55	229.89
771.87	229.85
772.20	229.81
772.52	229.88
772.85	229.99
773.17	229.95
773.50	229.90
773.82	229.84
774.15	229.74
774.47	229.61
774.80	229.56
775.12	229.52
775.45	229.48
775.77	229.46
776.09	229.43
776.42	229.40
776.74	229.41
777.07	229.37
777.39	229.35
777.72	229.31
778.04	229.29
778.36	229.25
778.69	229.22
779.01	229.20
779.33	229.06
779.66	228.88
779.98	228.84
780.31	228.82
780.63	228.84
780.95	228.83
781.28	228.81
781.60	228.78
781.92	228.75
782.25	228.73
782.57	228.70
782.89	228.66
783.22	228.62
783.54	228.57
783.86	228.55
784.19	228.52
784.51	228.53
784.83	228.49
785.16	228.46
785.48	228.44
785.80	228.41
786.12	228.40
786.45	228.37
786.77	228.36
787.09	228.34
787.42	228.27
787.74	228.25
788.06	228.24
788.38	228.21
788.71	228.19
789.03	228.17
789.35	228.17
789.67	228.13
789.99	228.12
790.32	228.09
790.64	228.08
790.96	228.18
791.28	228.12
791.61	228.10
791.93	228.09
792.25	228.06
792.57	228.13
792.89	228.08
793.21	228.08
793.54	228.04
793.86	228.01
794.18	228.00
794.50	227.96
794.82	227.94
795.14	227.94
795.47	227.94
795.79	227.93
796.11	227.88
796.43	227.86
796.75	227.85
797.07	227.84
797.39	227.82
797.71	227.69
798.04	227.68
798.36	227.67
798.68	227.66
799.00	227.65
799.32	227.58
799.64	227.58
799.96	227.56
800.28	227.57
800.60	227.55
800.92	227.55
801.24	227.52
801.56	227.52
801.89	227.49
802.21	227.48
802.53	227.44
802.85	227.46
803.17	227.50
803.49	227.46
803.81	227.43
804.13	227.41
804.45	227.39
804.77	227.38
805.09	227.37
805.41	227.34
805.73	227.31
806.05	227.26
806.37	227.23
806.69	227.21
807.01	227.19
807.33	227.18
807.65	227.12
807.97	227.17
808.28	227.14
808.60	227.13
808.92	227.09
809.24	227.16
809.56	227.13
809.88	227.07
810.20	227.07
810.52	227.08
810.84	227.05
811.16	227.03
811.48	227.01
811.80	227.04
812.12	227.03
812.43	227.05
812.75	227.04
813.07	227.02
813.39	227.02
813.71	227.00
814.03	226.97
814.35	226.97
814.67	226.91
814.98	226.89
815.30	226.88
815.62	226.85
815.94	226.75
816.26	226.76
816.58	226.73
816.89	226.73
817.21	226.69
817.53	226.69
817.85	226.69
818.17	226.68
818.48	226.61
818.80	226.63
819.12	226.60
819.44	226.58
819.76	226.55
820.07	226.54
820.39	226.53
820.71	226.54
821.03	226.53
821.34	226.51
821.66	226.52
821.98	226.53
822.30	226.52
822.61	226.59
822.93	226.57
823.25	226.56
823.57	226.53
823.88	226.54
824.20	226.53
824.52	226.55
824.83	226.54
825.15	226.52
825.47	226.50
825.79	226.51
826.10	226.49
826.42	226.49
826.74	226.49
827.05	226.48
827.37	226.47
827.69	226.46
828.00	226.46
828.32	226.45
828.64	226.42
828.95	226.49
829.27	226.44
829.58	226.44
829.90	226.46
830.22	226.46
830.53	226.44
830.85	226.42
831.17	226.38
831.48	226.37
831.80	226.37
832.11	226.36
832.43	226.34
832.75	226.33
833.06	226.40
833.38	226.37
833.69	226.36
834.01	226.36
834.32	226.35
834.64	226.33
834.96	226.33
835.27	226.33
835.59	226.27
835.90	226.25
836.22	226.24
836.53	226.21
836.85	226.19
837.16	226.32
837.48	226.31
837.79	226.36
838.11	226.36
838.42	226.36
838.74	226.37
839.05	226.36
839.37	226.36
839.68	226.27
840.00	226.27
840.31	226.28
840.63	226.26
840.94	226.25
841.26	226.24
841.57	226.23
841.88	226.24
842.20	226.22
842.51	226.19
842.83	226.19
843.14	226.31
843.46	226.30
843.77	226.22
844.08	226.22
844.40	226.17
844.71	226.16
845.03	226.14
845.34	226.12
845.65	226.12
845.97	226.12
846.28	226.12
846.60	226.13
846.91	226.10
847.22	226.10
847.54	226.13
847.85	226.14
848.16	226.12
848.48	226.09
848.79	226.14
849.10	226.15
849.42	226.16
849.73	226.04
850.04	226.03
850.36	225.99
850.67	226.01
850.98	226.02
851.30	226.03
851.61	226.02
851.92	226.01
852.23	226.06
852.55	226.06
852.86	226.06
853.17	226.07
853.49	226.09
853.80	226.11
854.11	226.12
854.42	226.13
854.74	226.12
855.05	226.13
855.36	226.06
855.67	226.06
855.99	226.05
856.30	226.20
856.61	226.19
856.92	226.19
857.23	226.19
857.55	226.17
857.86	226.16
858.17	226.18
858.48	226.16
858.79	226.13
859.11	226.14
859.42	226.13
859.73	226.11
860.04	226.11
860.35	226.07
860.66	226.02
860.98	226.02
861.29	226.03
861.60	226.02
861.91	226.05
862.22	226.03
862.53	226.01
862.84	225.86
863.16	225.88
863.47	225.86
863.78	225.84
864.09	225.85
864.40	225.85
864.71	225.85
865.02	225.86
865.33	225.85
865.64	225.82
865.95	225.81
866.27	225.89
866.58	225.87
866.89	225.89
867.20	225.89
867.51	225.87
867.82	225.86
868.13	225.90
868.44	225.86
868.75	225.89
869.06	225.89
869.37	225.91
869.68	225.88
869.99	225.90
870.30	225.91
870.61	225.92
870.92	225.90
871.23	225.89
871.54	225.90
871.85	225.93
872.16	225.95
872.47	225.94
872.78	225.87
873.09	225.88
873.40	225.87
873.71	225.88
874.02	225.89
874.33	225.88
874.64	225.84
874.95	225.87
875.26	225.84
875.56	225.84
875.87	225.83
876.18	225.82
876.49	225.95
876.80	225.93
877.11	225.91
877.42	225.92
877.73	225.92
878.04	225.89
878.35	225.89
878.66	225.89
878.96	225.88
879.27	225.88
879.58	225.87
879.89	225.86
880.20	225.89
880.51	225.89
880.82	225.89
881.12	225.90
881.43	225.87
881.74	225.85
882.05	225.85
882.36	225.86
882.67	225.87
882.97	225.72
883.28	225.72
883.59	225.71
883.90	225.72
884.21	225.74
884.51	225.74
884.82	225.72
885.13	225.71
885.44	225.71
885.74	225.71
886.05	225.70
886.36	225.70
886.67	225.66
886.98	225.72
887.28	225.73
887.59	225.73
887.90	225.74
888.20	225.74
888.51	225.76
888.82	225.74
889.13	225.74
889.43	225.86
889.74	225.85
890.05	225.85
890.35	225.83
890.66	225.81
890.97	225.80
891.28	225.79
891.58	225.79
891.89	225.79
892.20	225.77
892.50	225.77
892.81	225.76
893.12	225.76
893.42	225.69
893.73	225.69
894.04	225.69
894.34	225.70
894.65	225.70
894.95	225.68
895.26	225.69
895.57	225.74
895.87	225.61
896.18	225.63
896.48	225.64
896.79	225.64
897.10	225.65
897.40	225.66
897.71	225.67
898.01	225.67
898.32	225.68
898.63	225.68
898.93	225.68
899.24	225.68
899.54	225.68
899.85	225.67
900.15	225.67
900.46	225.66
900.76	225.67
901.07	225.67
901.38	225.66
901.68	225.67
901.99	225.61
902.29	225.61
902.60	225.60
902.90	225.59
903.21	225.59
903.51	225.57
903.82	225.60
904.12	225.60
904.43	225.60
904.73	225.59
905.03	225.60
905.34	225.72
905.64	225.71
905.95	225.71
906.25	225.71
906.56	225.71
906.86	225.71
907.17	225.69
907.47	225.70
907.77	225.69
908.08	225.66
908.38	225.67
908.69	225.68
908.99	225.70
909.30	225.71
909.60	225.71
909.90	225.71
910.21	225.68
910.51	225.65
910.81	225.65
911.12	225.66
911.42	225.66
911.73	225.52
912.03	225.54
912.33	225.56
912.64	225.55
912.94	225.54
913.24	225.52
913.55	225.51
913.85	225.50
914.15	225.53
914.46	225.54
914.76	225.53
915.06	225.52
915.37	225.50
915.67	225.49
915.97	225.49
916.27	225.46
916.58	225.47
916.88	225.47
917.18	225.46
917.49	225.55
917.79	225.54
918.09	225.56
918.39	225.58
918.70	225.57
919.00	225.58
919.30	225.64
919.60	225.64
919.91	225.63
920.21	225.63
920.51	225.60
920.81	225.59
921.12	225.62
921.42	225.61
921.72	225.62
922.02	225.64
922.32	225.65
922.63	225.66
922.93	225.73
923.23	225.73
923.53	225.72
923.83	225.63
924.13	225.65
924.44	225.64
924.74	225.66
925.04	225.69
925.34	225.68
925.64	225.62
925.94	225.63
926.24	225.70
926.55	225.69
926.85	225.71
927.15	225.71
927.45	225.71
927.75	225.71
928.05	225.71
928.35	225.69
928.65	225.71
928.95	225.72
929.26	225.66
929.56	225.69
929.86	225.70
930.16	225.69
930.46	225.68
930.76	225.69
931.06	225.63
931.36	225.60
931.66	225.62
931.96	225.63
932.26	225.64
932.56	225.58
932.86	225.59
933.16	225.58
933.46	225.57
933.76	225.55
934.06	225.57
934.36	225.61
934.66	225.61
934.96	225.59
935.26	225.59
935.56	225.61
935.86	225.58
936.16	225.56
936.46	225.55
936.76	225.55
937.06	225.53
937.36	225.54
937.66	225.54
937.96	225.54
938.26	225.51
938.56	225.50
938.86	225.51
939.16	225.54
939.46	225.55
939.76	225.56
940.06	225.56
940.35	225.54
940.65	225.47
940.95	225.48
941.25	225.45
941.55	225.44
941.85	225.43
942.15	225.46
942.45	225.49
942.75	225.49
943.04	225.49
943.34	225.52
943.64	225.51
943.94	225.49
944.24	225.49
944.54	225.51
944.84	225.50
945.13	225.48
945.43	225.46
945.73	225.45
946.03	225.44
946.33	225.43
946.62	225.42
946.92	225.42
947.22	225.42
947.52	225.44
947.82	225.45
948.11	225.44
948.41	225.40
948.71	225.37
949.01	225.38
949.31	225.37
949.60	225.36
949.90	225.38
950.20	225.37
950.50	225.37
950.79	225.35
951.09	225.38
951.39	225.37
951.69	225.37
951.98	225.39
952.28	225.40
952.58	225.39
952.87	225.40
953.17	225.42
953.47	225.40
953.76	225.40
954.06	225.37
954.36	225.36
954.66	225.36
954.95	225.40
955.25	225.40
955.55	225.41
955.84	225.39
956.14	225.39
956.44	225.40
956.73	225.38
957.03	225.39
957.32	225.39
957.62	225.39
957.92	225.41
958.21	225.39
958.51	225.54
958.81	225.56
959.10	225.57
959.40	225.60
959.69	225.61
959.99	225.63
960.29	225.63
960.58	225.63
960.88	225.68
961.17	225.66
961.47	225.67
961.76	225.65
962.06	225.68
962.36	225.66
962.65	225.67
962.95	225.68
963.24	225.67
963.54	225.67
963.83	225.68
964.13	225.67
964.42	225.66
964.72	225.55
965.01	225.55
965.31	225.54
965.60	225.50
965.90	225.58
966.19	225.55
966.49	225.56
966.78	225.56
967.08	225.54
967.37	225.54
967.67	225.52
967.96	225.55
968.26	225.54
968.55	225.55
968.85	225.55
969.14	225.54
969.43	225.54
969.73	225.53
970.02	225.52
970.32	225.51
970.61	225.49
970.91	225.45
971.20	225.44
971.49	225.43
971.79	225.44
972.08	225.35
972.38	225.37
972.67	225.36
972.96	225.38
973.26	225.35
973.55	225.39
973.85	225.39
974.14	225.38
974.43	225.38
974.73	225.36
975.02	225.35
975.31	225.35
975.61	225.35
975.90	225.35
976.19	225.34
976.49	225.35
976.78	225.36
977.07	225.36
977.37	225.37
977.66	225.38
977.95	225.36
978.24	225.37
978.54	225.40
978.83	225.39
979.12	225.38
979.42	225.38
979.71	225.35
980.00	225.35
980.29	225.36
980.59	225.33
980.88	225.37
981.17	225.36
981.46	225.36
981.76	225.36
982.05	225.40
982.34	225.41
982.63	225.41
982.93	225.41
983.22	225.44
983.51	225.45
983.80	225.46
984.09	225.48
984.39	225.47
984.68	225.45
984.97	225.46
985.26	225.46
985.55	225.46
985.85	225.44
986.14	225.46
986.43	225.47
986.72	225.47
987.01	225.42
987.30	225.43
987.59	225.42
987.89	225.42
988.18	225.39
988.47	225.37
988.76	225.36
989.05	225.35
989.34	225.34
989.63	225.37
989.92	225.35
990.22	225.33
990.51	225.32
990.80	225.31
991.09	225.32
991.38	225.34
991.67	225.33
991.96	225.32
992.25	225.32
992.54	225.29
992.83	225.30
993.12	225.29
993.41	225.32
993.70	225.37
993.99	225.39
994.28	225.40
994.58	225.42
994.87	225.42
995.16	225.41
995.45	225.40
995.74	225.35
996.03	225.38
996.32	225.40
996.61	225.43
996.90	225.43
997.19	225.42
997.48	225.42
997.77	225.40
998.06	225.41
998.34	225.40
998.63	225.40
998.92	225.41
999.21	225.43
999.50	225.43
999.79	225.38
1000.08	225.38
1000.37	225.37
1000.66	225.35
1000.95	225.39
1001.24	225.40
1001.53	225.41
1001.82	225.41
1002.11	225.38
1002.40	225.39
1002.68	225.41
1002.97	225.50
1003.26	225.49
1003.55	225.47
1003.84	225.48
1004.13	225.52
1004.42	225.52
1004.71	225.51
1004.99	225.51
1005.28	225.53
1005.57	225.52
1005.86	225.51
1006.15	225.50
1006.44	225.48
1006.72	225.49
1007.01	225.47
1007.30	225.47
1007.59	225.45
1007.88	225.45
1008.17	225.46
1008.45	225.44
1008.74	225.38
1009.03	225.33
1009.32	225.33
1009.60	225.33
1009.89	225.32
1010.18	225.26
1010.47	225.26
1010.76	225.26
1011.04	225.26
1011.33	225.25
1011.62	225.26
1011.91	225.27
1012.19	225.28
1012.48	225.28
1012.77	225.28
1013.05	225.32
1013.34	225.32
1013.63	225.32
1013.92	225.32
1014.20	225.32
1014.49	225.32
1014.78	225.33
1015.06	225.29
1015.35	225.30
1015.64	225.32
1015.92	225.33
1016.21	225.35
1016.50	225.35
1016.78	225.36
1017.07	225.37
1017.36	225.35
1017.64	225.32
1017.93	225.34
1018.22	225.32
1018.50	225.32
1018.79	225.32
1019.08	225.27
1019.36	225.28
1019.65	225.27
1019.93	225.30
1020.22	225.32
1020.51	225.39
1020.79	225.37
1021.08	225.12
1021.36	225.10
1021.65	225.27
1021.94	225.23
1022.22	225.37
1022.51	225.06
1022.79	225.97
1023.08	225.52
1023.36	226.83
1023.65	225.06
>>>>>End Processed Spectral Data<<<<<
