SpectraSuite Data File
++++++++++++++++++++++++++++++++++++
Date: Fri Oct 02 17:36:19 EDT 2015
User: lab3
Dark Spectrum Present: No
Reference Spectrum Present: No
Number of Sampled Component Spectra: 1
Spectrometers: USB2E7196
Integration Time (usec): 46000 (USB2E7196)
Spectra Averaged: 1500 (USB2E7196)
Boxcar Smoothing: 10 (USB2E7196)
Correct for Electrical Dark: No (USB2E7196)
Strobe/Lamp Enabled: No (USB2E7196)
Correct for Detector Non-linearity: No (USB2E7196)
Correct for Stray Light: No (USB2E7196)
Number of Pixels in Processed Spectrum: 2048
>>>>>Begin Processed Spectral Data<<<<<
339.09	0.00
339.48	215.20
339.86	216.57
340.24	218.02
340.63	219.29
341.01	222.71
341.39	222.13
341.78	223.53
342.16	224.64
342.54	225.21
342.93	213.56
343.31	224.35
343.69	224.89
344.07	225.35
344.46	225.78
344.84	226.17
345.22	226.39
345.60	226.65
345.99	226.83
346.37	226.98
346.75	227.08
347.13	227.16
347.52	227.22
347.90	227.32
348.28	227.35
348.66	227.41
349.05	227.39
349.43	227.45
349.81	227.50
350.19	227.57
350.57	227.63
350.96	227.71
351.34	227.80
351.72	227.90
352.10	228.01
352.48	228.08
352.87	228.13
353.25	228.20
353.63	228.26
354.01	228.33
354.39	228.41
354.77	228.50
355.15	228.60
355.54	228.66
355.92	228.69
356.30	228.77
356.68	228.92
357.06	229.01
357.44	229.05
357.82	229.11
358.20	229.22
358.58	229.29
358.97	229.35
359.35	229.43
359.73	229.52
360.11	229.58
360.49	229.64
360.87	229.70
361.25	229.76
361.63	229.86
362.01	229.91
362.39	229.94
362.77	229.98
363.15	230.00
363.53	230.03
363.91	230.07
364.29	230.09
364.67	230.00
365.05	230.02
365.43	230.06
365.81	230.09
366.19	230.11
366.57	230.16
366.95	230.17
367.33	230.13
367.71	230.12
368.09	230.13
368.47	230.13
368.85	230.12
369.23	230.12
369.61	230.06
369.99	230.07
370.37	230.08
370.75	230.15
371.13	230.13
371.51	230.09
371.89	230.07
372.27	230.05
372.65	230.03
373.03	229.99
373.41	229.95
373.78	229.91
374.16	229.81
374.54	229.72
374.92	229.66
375.30	229.64
375.68	229.57
376.06	229.51
376.44	229.45
376.82	229.41
377.19	229.36
377.57	229.31
377.95	229.21
378.33	229.14
378.71	228.98
379.09	228.93
379.47	228.90
379.84	228.83
380.22	228.77
380.60	228.70
380.98	228.64
381.36	228.59
381.73	228.52
382.11	228.50
382.49	228.47
382.87	228.41
383.25	228.36
383.62	228.46
384.00	228.40
384.38	228.37
384.76	228.35
385.13	228.33
385.51	228.30
385.89	228.26
386.27	228.22
386.64	228.21
387.02	228.16
387.40	228.11
387.78	228.08
388.15	228.06
388.53	228.02
388.91	227.99
389.29	227.95
389.66	227.94
390.04	227.90
390.42	227.90
390.79	227.88
391.17	227.87
391.55	227.71
391.92	227.69
392.30	227.69
392.68	227.66
393.05	227.64
393.43	227.63
393.81	227.63
394.18	227.62
394.56	227.62
394.94	227.66
395.31	227.65
395.69	227.70
396.06	227.72
396.44	227.76
396.82	227.77
397.19	227.85
397.57	227.87
397.95	227.91
398.32	227.90
398.70	227.95
399.07	228.00
399.45	228.04
399.82	228.09
400.20	228.13
400.58	228.19
400.95	228.20
401.33	228.28
401.70	228.44
402.08	228.53
402.45	228.61
402.83	228.71
403.20	228.83
403.58	228.92
403.95	229.06
404.33	229.19
404.71	229.33
405.08	229.54
405.46	229.69
405.83	229.87
406.21	230.05
406.58	230.26
406.96	230.47
407.33	230.72
407.70	230.99
408.08	231.36
408.45	231.67
408.83	232.03
409.20	232.35
409.58	232.64
409.95	233.04
410.33	233.46
410.70	233.86
411.08	234.34
411.45	234.84
411.82	235.34
412.20	235.93
412.57	236.62
412.95	237.16
413.32	237.86
413.69	238.60
414.07	239.38
414.44	240.22
414.82	241.07
415.19	242.09
415.56	243.10
415.94	244.16
416.31	245.33
416.68	246.52
417.06	247.89
417.43	249.18
417.81	250.66
418.18	252.17
418.55	253.81
418.93	255.52
419.30	257.32
419.67	259.21
420.04	261.15
420.42	263.19
420.79	265.55
421.16	267.94
421.54	270.35
421.91	272.87
422.28	275.49
422.66	278.31
423.03	281.00
423.40	283.83
423.77	286.86
424.15	289.97
424.52	293.21
424.89	296.71
425.26	300.18
425.64	303.41
426.01	307.06
426.38	310.78
426.75	314.62
427.13	318.54
427.50	322.68
427.87	326.97
428.24	331.31
428.61	335.47
428.99	339.97
429.36	344.90
429.73	349.63
430.10	354.35
430.47	359.18
430.85	364.18
431.22	369.53
431.59	375.04
431.96	380.41
432.33	386.39
432.70	392.09
433.08	398.83
433.45	405.19
433.82	411.46
434.19	418.46
434.56	425.38
434.93	432.06
435.30	438.66
435.68	446.12
436.05	453.42
436.42	460.70
436.79	467.36
437.16	474.54
437.53	482.22
437.90	489.91
438.27	497.43
438.64	505.54
439.01	512.88
439.38	519.59
439.75	526.04
440.13	533.31
440.50	540.20
440.87	545.66
441.24	551.64
441.61	558.16
441.98	562.89
442.35	568.48
442.72	574.17
443.09	579.59
443.46	582.96
443.83	585.41
444.20	587.40
444.57	590.42
444.94	592.03
445.31	593.71
445.68	595.08
446.05	596.02
446.42	595.40
446.79	594.60
447.16	593.87
447.53	593.16
447.90	590.56
448.27	588.05
448.64	584.42
449.01	581.80
449.37	576.87
449.74	572.41
450.11	566.71
450.48	560.52
450.85	554.32
451.22	549.01
451.59	543.82
451.96	539.14
452.33	532.43
452.70	526.50
453.07	519.27
453.43	512.10
453.80	505.14
454.17	498.51
454.54	492.39
454.91	485.51
455.28	479.09
455.65	473.04
456.02	466.69
456.38	461.55
456.75	454.97
457.12	449.68
457.49	444.33
457.86	439.30
458.23	434.92
458.59	430.08
458.96	425.11
459.33	420.76
459.70	416.31
460.07	412.96
460.43	409.00
460.80	405.31
461.17	402.12
461.54	398.65
461.91	395.39
462.27	392.12
462.64	389.48
463.01	386.41
463.38	383.33
463.74	380.54
464.11	378.10
464.48	375.90
464.85	373.50
465.21	371.69
465.58	369.69
465.95	367.36
466.32	365.53
466.68	363.73
467.05	361.90
467.42	360.13
467.78	358.20
468.15	356.44
468.52	355.17
468.88	353.44
469.25	351.85
469.62	350.60
469.98	349.22
470.35	348.02
470.72	346.92
471.08	345.81
471.45	344.87
471.82	343.83
472.18	342.72
472.55	342.01
472.92	341.10
473.28	340.39
473.65	339.64
474.02	338.90
474.38	338.29
474.75	337.94
475.11	337.44
475.48	337.20
475.85	336.96
476.21	336.83
476.58	336.75
476.94	336.90
477.31	336.98
477.67	337.08
478.04	337.27
478.41	337.55
478.77	337.97
479.14	338.24
479.50	338.72
479.87	339.39
480.23	340.04
480.60	340.69
480.96	341.33
481.33	342.30
481.69	343.26
482.06	344.21
482.42	345.09
482.79	346.19
483.15	347.46
483.52	348.87
483.88	350.27
484.25	351.74
484.61	353.27
484.98	354.92
485.34	356.81
485.71	358.76
486.07	360.83
486.44	362.91
486.80	365.22
487.17	367.65
487.53	370.27
487.90	373.04
488.26	376.04
488.62	379.21
488.99	382.38
489.35	385.72
489.72	389.33
490.08	393.16
490.44	397.08
490.81	401.18
491.17	405.40
491.54	409.89
491.90	414.55
492.26	419.53
492.63	424.75
492.99	430.18
493.36	435.81
493.72	441.76
494.08	447.83
494.45	454.28
494.81	460.98
495.17	467.87
495.54	475.12
495.90	482.68
496.26	490.42
496.63	498.41
496.99	506.70
497.35	515.37
497.72	524.31
498.08	533.47
498.44	542.94
498.80	552.97
499.17	563.27
499.53	573.88
499.89	584.87
500.26	596.07
500.62	607.55
500.98	619.66
501.34	631.93
501.71	644.73
502.07	657.72
502.43	671.22
502.79	684.96
503.16	699.15
503.52	713.53
503.88	728.32
504.24	743.57
504.60	759.02
504.97	774.97
505.33	791.33
505.69	808.55
506.05	826.11
506.41	843.59
506.78	861.28
507.14	879.48
507.50	898.13
507.86	917.11
508.22	936.33
508.59	955.39
508.95	975.28
509.31	995.86
509.67	1017.10
510.03	1038.38
510.39	1059.71
510.75	1081.30
511.12	1103.13
511.48	1125.11
511.84	1147.15
512.20	1169.57
512.56	1192.85
512.92	1216.13
513.28	1239.07
513.64	1262.26
514.00	1285.89
514.37	1309.82
514.73	1333.73
515.09	1357.50
515.45	1381.66
515.81	1405.96
516.17	1430.43
516.53	1454.39
516.89	1478.27
517.25	1502.31
517.61	1526.24
517.97	1550.63
518.33	1574.48
518.69	1598.31
519.05	1622.65
519.41	1647.28
519.77	1672.06
520.13	1696.16
520.49	1720.22
520.85	1744.62
521.21	1768.53
521.57	1792.89
521.93	1816.74
522.29	1841.04
522.65	1864.89
523.01	1888.66
523.37	1912.06
523.73	1936.18
524.09	1960.01
524.45	1983.64
524.81	2006.93
525.17	2030.05
525.53	2052.61
525.89	2075.59
526.25	2098.56
526.61	2120.52
526.97	2142.61
527.33	2164.72
527.68	2186.48
528.04	2207.47
528.40	2227.52
528.76	2247.90
529.12	2267.75
529.48	2287.23
529.84	2305.05
530.20	2323.48
530.56	2341.29
530.91	2359.27
531.27	2376.84
531.63	2393.68
531.99	2410.04
532.35	2425.76
532.71	2441.54
533.07	2457.93
533.42	2472.62
533.78	2488.27
534.14	2504.12
534.50	2518.95
534.86	2533.57
535.21	2546.34
535.57	2559.57
535.93	2572.61
536.29	2584.57
536.65	2596.34
537.00	2607.50
537.36	2619.51
537.72	2630.03
538.08	2640.10
538.44	2649.53
538.79	2658.56
539.15	2666.73
539.51	2674.55
539.87	2681.80
540.22	2687.12
540.58	2692.55
540.94	2699.14
541.29	2704.13
541.65	2707.36
542.01	2710.01
542.37	2711.94
542.72	2715.21
543.08	2716.79
543.44	2718.98
543.79	2720.04
544.15	2720.31
544.51	2720.97
544.87	2720.45
545.22	2719.25
545.58	2717.45
545.94	2715.64
546.29	2712.57
546.65	2709.48
547.01	2706.29
547.36	2703.76
547.72	2701.33
548.07	2697.21
548.43	2691.62
548.79	2685.14
549.14	2679.92
549.50	2674.94
549.86	2669.05
550.21	2662.01
550.57	2655.94
550.92	2647.56
551.28	2639.76
551.64	2632.27
551.99	2624.28
552.35	2615.77
552.70	2607.52
553.06	2599.53
553.41	2590.92
553.77	2582.06
554.13	2573.18
554.48	2563.53
554.84	2552.60
555.19	2542.23
555.55	2531.90
555.90	2521.65
556.26	2511.84
556.61	2500.99
556.97	2488.43
557.32	2476.43
557.68	2464.39
558.03	2452.17
558.39	2441.09
558.74	2430.29
559.10	2417.78
559.45	2405.55
559.81	2393.92
560.16	2381.61
560.52	2369.51
560.87	2357.75
561.23	2345.20
561.58	2332.76
561.94	2319.94
562.29	2306.61
562.64	2293.99
563.00	2281.00
563.35	2268.48
563.71	2255.78
564.06	2242.92
564.42	2230.88
564.77	2218.17
565.12	2205.38
565.48	2192.52
565.83	2179.68
566.19	2166.94
566.54	2154.17
566.89	2140.27
567.25	2126.46
567.60	2114.01
567.96	2100.71
568.31	2086.08
568.66	2072.16
569.02	2059.36
569.37	2046.50
569.72	2034.16
570.08	2020.52
570.43	2006.62
570.78	1992.46
571.14	1977.62
571.49	1963.49
571.84	1949.93
572.20	1935.16
572.55	1920.63
572.90	1905.98
573.26	1891.29
573.61	1876.15
573.96	1861.45
574.31	1846.98
574.67	1832.64
575.02	1817.26
575.37	1801.97
575.72	1787.51
576.08	1773.38
576.43	1758.07
576.78	1743.19
577.13	1728.63
577.49	1714.41
577.84	1700.73
578.19	1686.13
578.54	1671.74
578.90	1656.85
579.25	1641.87
579.60	1628.47
579.95	1614.92
580.30	1601.19
580.66	1587.24
581.01	1573.19
581.36	1559.12
581.71	1546.07
582.06	1532.85
582.42	1519.96
582.77	1507.05
583.12	1494.09
583.47	1480.98
583.82	1467.99
584.17	1454.70
584.53	1441.07
584.88	1427.83
585.23	1414.16
585.58	1401.37
585.93	1388.76
586.28	1376.91
586.63	1365.02
586.98	1352.66
587.34	1340.32
587.69	1327.72
588.04	1315.47
588.39	1303.61
588.74	1291.89
589.09	1279.92
589.44	1267.56
589.79	1255.82
590.14	1244.16
590.49	1232.47
590.84	1220.94
591.19	1209.84
591.54	1198.50
591.89	1187.29
592.25	1176.22
592.60	1164.89
592.95	1153.91
593.30	1143.13
593.65	1132.07
594.00	1121.10
594.35	1110.70
594.70	1099.92
595.05	1090.02
595.40	1079.98
595.75	1069.81
596.10	1060.14
596.45	1050.21
596.80	1040.62
597.15	1030.75
597.50	1021.10
597.85	1011.81
598.19	1002.39
598.54	993.01
598.89	984.10
599.24	975.48
599.59	966.69
599.94	958.79
600.29	950.66
600.64	942.30
600.99	933.56
601.34	925.19
601.69	916.46
602.04	908.41
602.39	900.21
602.74	892.05
603.08	883.87
603.43	875.66
603.78	867.62
604.13	859.74
604.48	851.87
604.83	844.14
605.18	836.34
605.53	828.70
605.87	820.86
606.22	813.36
606.57	805.82
606.92	798.17
607.27	790.44
607.62	783.05
607.96	776.03
608.31	769.45
608.66	762.67
609.01	756.20
609.36	749.83
609.70	743.24
610.05	736.64
610.40	730.27
610.75	723.92
611.10	717.88
611.44	711.69
611.79	705.60
612.14	699.45
612.49	693.39
612.83	687.59
613.18	681.95
613.53	676.16
613.88	670.42
614.22	665.11
614.57	659.72
614.92	654.17
615.27	648.76
615.61	643.40
615.96	638.10
616.31	632.80
616.65	627.55
617.00	622.52
617.35	617.61
617.70	612.72
618.04	607.88
618.39	602.98
618.74	598.34
619.08	593.72
619.43	589.20
619.78	584.73
620.12	580.23
620.47	575.89
620.82	571.66
621.16	567.44
621.51	563.10
621.85	558.80
622.20	554.69
622.55	550.58
622.89	546.57
623.24	542.54
623.59	538.56
623.93	534.75
624.28	531.02
624.62	527.36
624.97	523.79
625.32	520.17
625.66	516.49
626.01	512.78
626.35	509.14
626.70	505.56
627.04	502.12
627.39	498.62
627.73	495.30
628.08	492.08
628.43	488.87
628.77	485.73
629.12	482.70
629.46	479.69
629.81	476.58
630.15	473.46
630.50	470.45
630.84	467.49
631.19	464.58
631.53	461.76
631.88	458.94
632.22	456.11
632.57	453.59
632.91	451.11
633.26	448.69
633.60	446.27
633.95	443.95
634.29	441.54
634.64	439.20
634.98	436.66
635.32	434.26
635.67	432.05
636.01	429.77
636.36	427.53
636.70	425.43
637.05	423.35
637.39	421.29
637.73	419.27
638.08	417.34
638.42	415.38
638.77	413.30
639.11	411.15
639.45	409.11
639.80	406.98
640.14	404.97
640.49	402.95
640.83	400.92
641.17	398.96
641.52	397.04
641.86	395.15
642.20	393.46
642.55	391.62
642.89	389.78
643.23	388.04
643.58	386.46
643.92	384.75
644.26	383.12
644.61	381.52
644.95	379.87
645.29	378.18
645.64	376.51
645.98	374.91
646.32	373.45
646.66	371.94
647.01	370.48
647.35	369.05
647.69	367.59
648.04	366.27
648.38	364.86
648.72	363.47
649.06	362.09
649.41	360.73
649.75	359.41
650.09	358.12
650.43	356.83
650.78	355.49
651.12	354.17
651.46	352.91
651.80	351.68
652.14	350.47
652.49	349.30
652.83	348.10
653.17	346.95
653.51	345.84
653.85	344.79
654.20	343.69
654.54	342.50
654.88	341.41
655.22	340.35
655.56	339.27
655.90	338.27
656.25	337.30
656.59	336.29
656.93	335.35
657.27	334.41
657.61	333.41
657.95	332.45
658.29	331.49
658.64	330.58
658.98	329.66
659.32	328.77
659.66	327.93
660.00	327.13
660.34	326.30
660.68	325.43
661.02	324.53
661.36	323.65
661.70	322.83
662.05	322.03
662.39	321.22
662.73	320.51
663.07	319.79
663.41	319.01
663.75	318.23
664.09	317.45
664.43	316.64
664.77	315.93
665.11	315.17
665.45	314.48
665.79	313.78
666.13	313.03
666.47	312.28
666.81	311.52
667.15	310.71
667.49	310.03
667.83	309.40
668.17	308.75
668.51	308.15
668.85	307.57
669.19	307.01
669.53	306.36
669.87	305.70
670.21	305.05
670.55	304.45
670.89	303.92
671.23	303.35
671.57	302.78
671.91	302.26
672.25	301.76
672.58	301.23
672.92	300.65
673.26	300.17
673.60	299.67
673.94	299.20
674.28	298.75
674.62	298.26
674.96	297.72
675.30	297.23
675.64	296.70
675.97	296.16
676.31	295.59
676.65	295.07
676.99	294.63
677.33	294.09
677.67	293.60
678.01	293.03
678.34	292.55
678.68	292.11
679.02	291.58
679.36	291.08
679.70	290.59
680.04	290.14
680.37	289.65
680.71	289.21
681.05	288.75
681.39	288.26
681.73	287.76
682.06	287.28
682.40	286.82
682.74	286.40
683.08	286.04
683.42	285.62
683.75	285.23
684.09	284.74
684.43	284.33
684.77	283.91
685.10	283.54
685.44	283.13
685.78	282.72
686.12	282.34
686.45	281.93
686.79	281.51
687.13	281.11
687.46	280.69
687.80	280.28
688.14	279.83
688.48	279.46
688.81	279.06
689.15	278.71
689.49	278.30
689.82	277.88
690.16	277.41
690.50	277.02
690.83	276.62
691.17	276.22
691.51	275.84
691.84	275.47
692.18	275.06
692.52	274.64
692.85	274.23
693.19	273.87
693.52	273.49
693.86	273.11
694.20	272.73
694.53	272.36
694.87	271.97
695.21	271.59
695.54	271.20
695.88	270.82
696.21	270.40
696.55	270.05
696.88	269.68
697.22	269.31
697.56	268.95
697.89	268.53
698.23	268.16
698.56	267.75
698.90	267.40
699.23	267.01
699.57	266.64
699.90	266.27
700.24	265.88
700.58	265.54
700.91	265.23
701.25	265.00
701.58	264.72
701.92	264.41
702.25	264.10
702.59	263.76
702.92	263.43
703.26	263.11
703.59	262.75
703.93	262.52
704.26	262.21
704.60	261.87
704.93	261.55
705.26	261.24
705.60	260.97
705.93	260.62
706.27	260.33
706.60	260.07
706.94	259.81
707.27	259.48
707.61	259.16
707.94	258.83
708.27	258.40
708.61	258.03
708.94	257.70
709.28	257.41
709.61	257.11
709.94	256.83
710.28	256.57
710.61	256.33
710.95	255.94
711.28	255.73
711.61	255.47
711.95	255.24
712.28	254.97
712.61	254.67
712.95	254.49
713.28	254.29
713.61	254.00
713.95	253.70
714.28	253.46
714.61	253.19
714.95	252.94
715.28	252.69
715.61	252.46
715.95	252.24
716.28	251.99
716.61	251.79
716.95	251.55
717.28	251.31
717.61	251.07
717.94	250.84
718.28	250.53
718.61	250.30
718.94	250.03
719.27	249.82
719.61	249.62
719.94	249.37
720.27	249.07
720.60	248.87
720.94	248.66
721.27	248.45
721.60	248.26
721.93	248.05
722.27	247.89
722.60	247.70
722.93	247.48
723.26	247.30
723.59	247.06
723.93	246.87
724.26	246.67
724.59	246.47
724.92	246.29
725.25	246.15
725.59	245.97
725.92	245.83
726.25	245.64
726.58	245.47
726.91	245.28
727.24	245.13
727.57	244.97
727.91	244.78
728.24	244.63
728.57	244.47
728.90	244.32
729.23	244.11
729.56	244.00
729.89	243.83
730.22	243.66
730.55	243.50
730.89	243.34
731.22	243.18
731.55	243.02
731.88	242.86
732.21	242.69
732.54	242.54
732.87	242.38
733.20	242.24
733.53	242.09
733.86	241.95
734.19	241.80
734.52	241.67
734.85	241.62
735.18	241.45
735.51	241.33
735.84	241.20
736.17	241.09
736.50	240.90
736.83	240.91
737.16	240.77
737.49	240.66
737.82	240.51
738.15	240.41
738.48	240.28
738.81	240.15
739.14	240.01
739.47	239.87
739.80	239.73
740.13	239.61
740.46	239.47
740.79	239.32
741.12	239.18
741.45	239.03
741.78	238.84
742.11	238.76
742.44	238.60
742.77	238.49
743.10	238.35
743.43	238.23
743.75	237.98
744.08	238.07
744.41	237.95
744.74	237.84
745.07	237.70
745.40	237.61
745.73	237.56
746.06	237.46
746.39	237.38
746.71	237.27
747.04	237.16
747.37	237.06
747.70	236.99
748.03	236.90
748.36	236.83
748.68	236.74
749.01	236.61
749.34	236.52
749.67	236.43
750.00	236.36
750.33	236.35
750.65	236.28
750.98	236.00
751.31	235.92
751.64	235.84
751.97	235.82
752.29	235.71
752.62	235.56
752.95	235.47
753.28	235.36
753.60	235.27
753.93	235.22
754.26	235.14
754.59	235.01
754.91	234.91
755.24	234.80
755.57	234.77
755.90	234.70
756.22	234.60
756.55	234.50
756.88	234.39
757.20	234.22
757.53	234.11
757.86	234.03
758.19	233.96
758.51	233.86
758.84	233.72
759.17	233.64
759.49	233.58
759.82	233.57
760.15	233.50
760.47	233.42
760.80	233.32
761.13	233.26
761.45	233.21
761.78	233.14
762.11	233.10
762.43	232.97
762.76	232.90
763.08	232.84
763.41	232.79
763.74	232.73
764.06	232.68
764.39	232.63
764.71	232.57
765.04	232.50
765.37	232.44
765.69	232.39
766.02	232.34
766.34	232.27
766.67	232.17
767.00	232.14
767.32	232.15
767.65	232.19
767.97	232.12
768.30	232.07
768.62	232.02
768.95	231.96
769.27	231.91
769.60	231.88
769.92	231.81
770.25	231.74
770.57	231.68
770.90	231.62
771.22	231.57
771.55	231.52
771.87	231.48
772.20	231.44
772.52	231.50
772.85	231.62
773.17	231.59
773.50	231.54
773.82	231.48
774.15	231.38
774.47	231.26
774.80	231.21
775.12	231.16
775.45	231.13
775.77	231.10
776.09	231.07
776.42	231.03
776.74	231.04
777.07	231.01
777.39	230.98
777.72	230.93
778.04	230.93
778.36	230.89
778.69	230.86
779.01	230.84
779.33	230.69
779.66	230.51
779.98	230.47
780.31	230.44
780.63	230.46
780.95	230.45
781.28	230.44
781.60	230.40
781.92	230.37
782.25	230.34
782.57	230.31
782.89	230.28
783.22	230.25
783.54	230.18
783.86	230.16
784.19	230.14
784.51	230.16
784.83	230.11
785.16	230.08
785.48	230.06
785.80	230.03
786.12	230.02
786.45	229.99
786.77	229.98
787.09	229.95
787.42	229.88
787.74	229.85
788.06	229.82
788.38	229.80
788.71	229.77
789.03	229.75
789.35	229.74
789.67	229.70
789.99	229.68
790.32	229.64
790.64	229.64
790.96	229.73
791.28	229.67
791.61	229.64
791.93	229.63
792.25	229.60
792.57	229.66
792.89	229.63
793.21	229.61
793.54	229.57
793.86	229.54
794.18	229.54
794.50	229.50
794.82	229.49
795.14	229.49
795.47	229.50
795.79	229.49
796.11	229.44
796.43	229.43
796.75	229.41
797.07	229.41
797.39	229.37
797.71	229.26
798.04	229.24
798.36	229.23
798.68	229.21
799.00	229.21
799.32	229.13
799.64	229.13
799.96	229.12
800.28	229.13
800.60	229.11
800.92	229.10
801.24	229.08
801.56	229.07
801.89	229.04
802.21	229.02
802.53	228.97
802.85	228.99
803.17	229.04
803.49	229.00
803.81	228.97
804.13	228.95
804.45	228.93
804.77	228.93
805.09	228.91
805.41	228.90
805.73	228.86
806.05	228.82
806.37	228.79
806.69	228.76
807.01	228.74
807.33	228.74
807.65	228.68
807.97	228.72
808.28	228.70
808.60	228.68
808.92	228.65
809.24	228.73
809.56	228.69
809.88	228.64
810.20	228.63
810.52	228.65
810.84	228.62
811.16	228.59
811.48	228.56
811.80	228.60
812.12	228.58
812.43	228.61
812.75	228.60
813.07	228.59
813.39	228.59
813.71	228.57
814.03	228.55
814.35	228.55
814.67	228.49
814.98	228.47
815.30	228.46
815.62	228.44
815.94	228.34
816.26	228.35
816.58	228.32
816.89	228.32
817.21	228.29
817.53	228.29
817.85	228.29
818.17	228.28
818.48	228.22
818.80	228.24
819.12	228.21
819.44	228.18
819.76	228.16
820.07	228.16
820.39	228.14
820.71	228.15
821.03	228.15
821.34	228.13
821.66	228.14
821.98	228.15
822.30	228.14
822.61	228.20
822.93	228.18
823.25	228.17
823.57	228.15
823.88	228.15
824.20	228.14
824.52	228.17
824.83	228.16
825.15	228.14
825.47	228.11
825.79	228.11
826.10	228.11
826.42	228.10
826.74	228.09
827.05	228.09
827.37	228.07
827.69	228.06
828.00	228.06
828.32	228.05
828.64	228.03
828.95	228.09
829.27	228.04
829.58	228.04
829.90	228.05
830.22	228.06
830.53	228.04
830.85	228.01
831.17	227.96
831.48	227.95
831.80	227.95
832.11	227.94
832.43	227.92
832.75	227.92
833.06	227.98
833.38	227.94
833.69	227.93
834.01	227.93
834.32	227.92
834.64	227.90
834.96	227.89
835.27	227.89
835.59	227.84
835.90	227.82
836.22	227.81
836.53	227.78
836.85	227.76
837.16	227.87
837.48	227.88
837.79	227.92
838.11	227.92
838.42	227.92
838.74	227.93
839.05	227.92
839.37	227.91
839.68	227.82
840.00	227.81
840.31	227.82
840.63	227.81
840.94	227.79
841.26	227.78
841.57	227.78
841.88	227.78
842.20	227.76
842.51	227.74
842.83	227.74
843.14	227.85
843.46	227.85
843.77	227.77
844.08	227.77
844.40	227.72
844.71	227.71
845.03	227.69
845.34	227.66
845.65	227.66
845.97	227.66
846.28	227.67
846.60	227.69
846.91	227.66
847.22	227.66
847.54	227.69
847.85	227.69
848.16	227.67
848.48	227.65
848.79	227.70
849.10	227.71
849.42	227.72
849.73	227.59
850.04	227.58
850.36	227.54
850.67	227.55
850.98	227.56
851.30	227.57
851.61	227.57
851.92	227.56
852.23	227.60
852.55	227.61
852.86	227.61
853.17	227.61
853.49	227.64
853.80	227.65
854.11	227.65
854.42	227.66
854.74	227.64
855.05	227.64
855.36	227.58
855.67	227.58
855.99	227.57
856.30	227.72
856.61	227.72
856.92	227.71
857.23	227.72
857.55	227.70
857.86	227.69
858.17	227.70
858.48	227.68
858.79	227.65
859.11	227.66
859.42	227.66
859.73	227.63
860.04	227.63
860.35	227.59
860.66	227.55
860.98	227.54
861.29	227.56
861.60	227.56
861.91	227.57
862.22	227.56
862.53	227.54
862.84	227.40
863.16	227.43
863.47	227.42
863.78	227.39
864.09	227.40
864.40	227.40
864.71	227.39
865.02	227.41
865.33	227.39
865.64	227.37
865.95	227.36
866.27	227.44
866.58	227.42
866.89	227.44
867.20	227.44
867.51	227.42
867.82	227.41
868.13	227.45
868.44	227.43
868.75	227.44
869.06	227.45
869.37	227.46
869.68	227.42
869.99	227.44
870.30	227.45
870.61	227.45
870.92	227.43
871.23	227.42
871.54	227.44
871.85	227.47
872.16	227.49
872.47	227.48
872.78	227.41
873.09	227.42
873.40	227.41
873.71	227.42
874.02	227.44
874.33	227.43
874.64	227.39
874.95	227.42
875.26	227.40
875.56	227.39
875.87	227.38
876.18	227.38
876.49	227.49
876.80	227.48
877.11	227.47
877.42	227.48
877.73	227.48
878.04	227.45
878.35	227.45
878.66	227.43
878.96	227.43
879.27	227.43
879.58	227.41
879.89	227.41
880.20	227.43
880.51	227.42
880.82	227.42
881.12	227.42
881.43	227.38
881.74	227.37
882.05	227.36
882.36	227.37
882.67	227.37
882.97	227.24
883.28	227.24
883.59	227.23
883.90	227.23
884.21	227.26
884.51	227.26
884.82	227.24
885.13	227.24
885.44	227.23
885.74	227.23
886.05	227.23
886.36	227.23
886.67	227.18
886.98	227.25
887.28	227.26
887.59	227.25
887.90	227.26
888.20	227.26
888.51	227.28
888.82	227.26
889.13	227.27
889.43	227.38
889.74	227.37
890.05	227.37
890.35	227.36
890.66	227.33
890.97	227.32
891.28	227.31
891.58	227.31
891.89	227.31
892.20	227.30
892.50	227.29
892.81	227.29
893.12	227.29
893.42	227.21
893.73	227.22
894.04	227.21
894.34	227.22
894.65	227.21
894.95	227.21
895.26	227.22
895.57	227.27
895.87	227.13
896.18	227.15
896.48	227.15
896.79	227.16
897.10	227.18
897.40	227.19
897.71	227.19
898.01	227.18
898.32	227.20
898.63	227.20
898.93	227.20
899.24	227.21
899.54	227.21
899.85	227.21
900.15	227.20
900.46	227.20
900.76	227.21
901.07	227.22
901.38	227.20
901.68	227.21
901.99	227.16
902.29	227.18
902.60	227.17
902.90	227.16
903.21	227.15
903.51	227.14
903.82	227.16
904.12	227.17
904.43	227.18
904.73	227.17
905.03	227.18
905.34	227.31
905.64	227.30
905.95	227.30
906.25	227.30
906.56	227.30
906.86	227.30
907.17	227.29
907.47	227.30
907.77	227.30
908.08	227.27
908.38	227.28
908.69	227.28
908.99	227.30
909.30	227.32
909.60	227.32
909.90	227.33
910.21	227.29
910.51	227.26
910.81	227.27
911.12	227.27
911.42	227.26
911.73	227.14
912.03	227.14
912.33	227.17
912.64	227.15
912.94	227.14
913.24	227.13
913.55	227.11
913.85	227.10
914.15	227.12
914.46	227.14
914.76	227.12
915.06	227.11
915.37	227.09
915.67	227.07
915.97	227.07
916.27	227.05
916.58	227.06
916.88	227.06
917.18	227.04
917.49	227.12
917.79	227.11
918.09	227.12
918.39	227.14
918.70	227.12
919.00	227.13
919.30	227.18
919.60	227.18
919.91	227.16
920.21	227.17
920.51	227.15
920.81	227.13
921.12	227.15
921.42	227.15
921.72	227.16
922.02	227.18
922.32	227.19
922.63	227.20
922.93	227.26
923.23	227.26
923.53	227.26
923.83	227.18
924.13	227.20
924.44	227.20
924.74	227.21
925.04	227.25
925.34	227.25
925.64	227.20
925.94	227.20
926.24	227.28
926.55	227.26
926.85	227.28
927.15	227.28
927.45	227.27
927.75	227.26
928.05	227.25
928.35	227.24
928.65	227.26
928.95	227.26
929.26	227.20
929.56	227.24
929.86	227.25
930.16	227.24
930.46	227.22
930.76	227.23
931.06	227.17
931.36	227.13
931.66	227.15
931.96	227.17
932.26	227.16
932.56	227.10
932.86	227.10
933.16	227.10
933.46	227.09
933.76	227.07
934.06	227.10
934.36	227.15
934.66	227.15
934.96	227.13
935.26	227.13
935.56	227.15
935.86	227.10
936.16	227.08
936.46	227.06
936.76	227.05
937.06	227.03
937.36	227.05
937.66	227.06
937.96	227.05
938.26	227.02
938.56	227.02
938.86	227.03
939.16	227.06
939.46	227.07
939.76	227.08
940.06	227.08
940.35	227.06
940.65	226.99
940.95	227.00
941.25	226.97
941.55	226.95
941.85	226.95
942.15	226.98
942.45	227.02
942.75	227.03
943.04	227.04
943.34	227.06
943.64	227.04
943.94	227.02
944.24	227.02
944.54	227.03
944.84	227.04
945.13	227.02
945.43	227.00
945.73	226.99
946.03	226.97
946.33	226.95
946.62	226.94
946.92	226.95
947.22	226.96
947.52	226.96
947.82	226.98
948.11	226.96
948.41	226.93
948.71	226.89
949.01	226.90
949.31	226.89
949.60	226.88
949.90	226.90
950.20	226.90
950.50	226.89
950.79	226.88
951.09	226.90
951.39	226.90
951.69	226.89
951.98	226.91
952.28	226.93
952.58	226.94
952.87	226.93
953.17	226.95
953.47	226.93
953.76	226.93
954.06	226.91
954.36	226.90
954.66	226.91
954.95	226.94
955.25	226.94
955.55	226.95
955.84	226.93
956.14	226.94
956.44	226.95
956.73	226.93
957.03	226.94
957.32	226.93
957.62	226.92
957.92	226.95
958.21	226.93
958.51	227.07
958.81	227.08
959.10	227.10
959.40	227.12
959.69	227.13
959.99	227.15
960.29	227.16
960.58	227.16
960.88	227.20
961.17	227.19
961.47	227.21
961.76	227.20
962.06	227.22
962.36	227.20
962.65	227.21
962.95	227.22
963.24	227.21
963.54	227.22
963.83	227.24
964.13	227.23
964.42	227.23
964.72	227.13
965.01	227.13
965.31	227.12
965.60	227.10
965.90	227.18
966.19	227.15
966.49	227.15
966.78	227.16
967.08	227.14
967.37	227.14
967.67	227.12
967.96	227.14
968.26	227.14
968.55	227.16
968.85	227.17
969.14	227.16
969.43	227.17
969.73	227.15
970.02	227.14
970.32	227.12
970.61	227.10
970.91	227.06
971.20	227.04
971.49	227.03
971.79	227.04
972.08	226.95
972.38	226.96
972.67	226.95
972.96	226.96
973.26	226.94
973.55	226.98
973.85	226.96
974.14	226.94
974.43	226.95
974.73	226.93
975.02	226.91
975.31	226.91
975.61	226.92
975.90	226.92
976.19	226.91
976.49	226.93
976.78	226.94
977.07	226.94
977.37	226.94
977.66	226.94
977.95	226.93
978.24	226.94
978.54	226.96
978.83	226.95
979.12	226.94
979.42	226.94
979.71	226.91
980.00	226.92
980.29	226.92
980.59	226.89
980.88	226.92
981.17	226.92
981.46	226.92
981.76	226.91
982.05	226.94
982.34	226.95
982.63	226.95
982.93	226.96
983.22	226.99
983.51	227.00
983.80	227.01
984.09	227.04
984.39	227.02
984.68	227.01
984.97	227.01
985.26	227.00
985.55	227.01
985.85	226.98
986.14	227.00
986.43	227.02
986.72	227.01
987.01	226.96
987.30	226.97
987.59	226.97
987.89	226.97
988.18	226.92
988.47	226.91
988.76	226.90
989.05	226.88
989.34	226.86
989.63	226.89
989.92	226.87
990.22	226.85
990.51	226.85
990.80	226.84
991.09	226.86
991.38	226.89
991.67	226.86
991.96	226.85
992.25	226.86
992.54	226.84
992.83	226.83
993.12	226.83
993.41	226.84
993.70	226.88
993.99	226.90
994.28	226.93
994.58	226.96
994.87	226.94
995.16	226.94
995.45	226.93
995.74	226.89
996.03	226.91
996.32	226.92
996.61	226.95
996.90	226.95
997.19	226.94
997.48	226.94
997.77	226.94
998.06	226.95
998.34	226.93
998.63	226.93
998.92	226.96
999.21	226.97
999.50	226.97
999.79	226.93
1000.08	226.93
1000.37	226.92
1000.66	226.90
1000.95	226.93
1001.24	226.94
1001.53	226.95
1001.82	226.96
1002.11	226.93
1002.40	226.93
1002.68	226.96
1002.97	227.04
1003.26	227.03
1003.55	227.00
1003.84	227.02
1004.13	227.06
1004.42	227.06
1004.71	227.06
1004.99	227.05
1005.28	227.09
1005.57	227.09
1005.86	227.07
1006.15	227.06
1006.44	227.04
1006.72	227.06
1007.01	227.04
1007.30	227.04
1007.59	227.03
1007.88	227.02
1008.17	227.04
1008.45	227.02
1008.74	226.96
1009.03	226.90
1009.32	226.91
1009.60	226.91
1009.89	226.90
1010.18	226.85
1010.47	226.85
1010.76	226.85
1011.04	226.84
1011.33	226.83
1011.62	226.83
1011.91	226.84
1012.19	226.84
1012.48	226.85
1012.77	226.85
1013.05	226.89
1013.34	226.89
1013.63	226.88
1013.92	226.89
1014.20	226.87
1014.49	226.87
1014.78	226.89
1015.06	226.85
1015.35	226.85
1015.64	226.87
1015.92	226.88
1016.21	226.89
1016.50	226.89
1016.78	226.91
1017.07	226.92
1017.36	226.90
1017.64	226.87
1017.93	226.89
1018.22	226.89
1018.50	226.88
1018.79	226.87
1019.08	226.83
1019.36	226.83
1019.65	226.82
1019.93	226.86
1020.22	226.88
1020.51	226.94
1020.79	226.92
1021.08	226.87
1021.36	226.59
1021.65	226.83
1021.94	226.74
1022.22	226.79
1022.51	226.54
1022.79	227.66
1023.08	227.01
1023.36	228.21
1023.65	226.59
>>>>>End Processed Spectral Data<<<<<
