SpectraSuite Data File
++++++++++++++++++++++++++++++++++++
Date: Sat Oct 03 04:30:04 EDT 2015
User: lab3
Dark Spectrum Present: No
Reference Spectrum Present: No
Number of Sampled Component Spectra: 1
Spectrometers: USB2E7196
Integration Time (usec): 46000 (USB2E7196)
Spectra Averaged: 12000 (USB2E7196)
Boxcar Smoothing: 10 (USB2E7196)
Correct for Electrical Dark: No (USB2E7196)
Strobe/Lamp Enabled: No (USB2E7196)
Correct for Detector Non-linearity: No (USB2E7196)
Correct for Stray Light: No (USB2E7196)
Number of Pixels in Processed Spectrum: 2048
>>>>>Begin Processed Spectral Data<<<<<
339.09	0.00
339.48	213.62
339.86	215.01
340.24	216.46
340.63	217.81
341.01	221.11
341.39	220.58
341.78	221.93
342.16	223.14
342.54	223.51
342.93	212.04
343.31	222.75
343.69	223.29
344.07	223.75
344.46	224.18
344.84	224.58
345.22	224.80
345.60	225.05
345.99	225.25
346.37	225.38
346.75	225.49
347.13	225.58
347.52	225.65
347.90	225.74
348.28	225.78
348.66	225.84
349.05	225.83
349.43	225.88
349.81	225.94
350.19	226.00
350.57	226.07
350.96	226.15
351.34	226.25
351.72	226.35
352.10	226.45
352.48	226.52
352.87	226.57
353.25	226.64
353.63	226.70
354.01	226.76
354.39	226.84
354.77	226.92
355.15	227.03
355.54	227.07
355.92	227.10
356.30	227.17
356.68	227.32
357.06	227.40
357.44	227.45
357.82	227.51
358.20	227.63
358.58	227.69
358.97	227.75
359.35	227.83
359.73	227.91
360.11	227.96
360.49	228.03
360.87	228.08
361.25	228.14
361.63	228.23
362.01	228.29
362.39	228.31
362.77	228.36
363.15	228.38
363.53	228.42
363.91	228.45
364.29	228.48
364.67	228.38
365.05	228.40
365.43	228.44
365.81	228.47
366.19	228.48
366.57	228.54
366.95	228.54
367.33	228.51
367.71	228.51
368.09	228.53
368.47	228.52
368.85	228.51
369.23	228.52
369.61	228.45
369.99	228.47
370.37	228.47
370.75	228.55
371.13	228.52
371.51	228.48
371.89	228.46
372.27	228.43
372.65	228.41
373.03	228.37
373.41	228.32
373.78	228.27
374.16	228.16
374.54	228.08
374.92	228.03
375.30	227.99
375.68	227.92
376.06	227.87
376.44	227.82
376.82	227.77
377.19	227.72
377.57	227.67
377.95	227.58
378.33	227.52
378.71	227.36
379.09	227.31
379.47	227.28
379.84	227.21
380.22	227.14
380.60	227.07
380.98	227.03
381.36	226.98
381.73	226.92
382.11	226.89
382.49	226.85
382.87	226.79
383.25	226.75
383.62	226.85
384.00	226.79
384.38	226.75
384.76	226.73
385.13	226.73
385.51	226.70
385.89	226.65
386.27	226.61
386.64	226.60
387.02	226.55
387.40	226.50
387.78	226.48
388.15	226.46
388.53	226.42
388.91	226.40
389.29	226.36
389.66	226.36
390.04	226.32
390.42	226.32
390.79	226.31
391.17	226.29
391.55	226.13
391.92	226.12
392.30	226.12
392.68	226.08
393.05	226.06
393.43	226.05
393.81	226.06
394.18	226.04
394.56	226.04
394.94	226.08
395.31	226.08
395.69	226.12
396.06	226.15
396.44	226.18
396.82	226.19
397.19	226.28
397.57	226.29
397.95	226.34
398.32	226.33
398.70	226.37
399.07	226.44
399.45	226.47
399.82	226.52
400.20	226.56
400.58	226.62
400.95	226.63
401.33	226.72
401.70	226.87
402.08	226.98
402.45	227.06
402.83	227.18
403.20	227.29
403.58	227.38
403.95	227.52
404.33	227.68
404.71	227.82
405.08	228.03
405.46	228.19
405.83	228.38
406.21	228.58
406.58	228.80
406.96	229.02
407.33	229.28
407.70	229.56
408.08	229.95
408.45	230.28
408.83	230.65
409.20	230.98
409.58	231.27
409.95	231.68
410.33	232.12
410.70	232.53
411.08	233.03
411.45	233.55
411.82	234.07
412.20	234.67
412.57	235.39
412.95	235.95
413.32	236.69
413.69	237.44
414.07	238.24
414.44	239.11
414.82	239.99
415.19	241.03
415.56	242.07
415.94	243.16
416.31	244.38
416.68	245.60
417.06	247.02
417.43	248.35
417.81	249.88
418.18	251.43
418.55	253.13
418.93	254.90
419.30	256.74
419.67	258.70
420.04	260.71
420.42	262.80
420.79	265.23
421.16	267.68
421.54	270.16
421.91	272.76
422.28	275.45
422.66	278.35
423.03	281.13
423.40	284.03
423.77	287.15
424.15	290.34
424.52	293.66
424.89	297.26
425.26	300.83
425.64	304.16
426.01	307.89
426.38	311.72
426.75	315.66
427.13	319.70
427.50	323.93
427.87	328.33
428.24	332.77
428.61	337.03
428.99	341.64
429.36	346.70
429.73	351.54
430.10	356.39
430.47	361.34
430.85	366.43
431.22	371.91
431.59	377.52
431.96	383.01
432.33	389.11
432.70	394.92
433.08	401.77
433.45	408.25
433.82	414.64
434.19	421.77
434.56	428.79
434.93	435.58
435.30	442.29
435.68	449.88
436.05	457.31
436.42	464.72
436.79	471.48
437.16	478.76
437.53	486.56
437.90	494.38
438.27	502.02
438.64	510.28
439.01	517.77
439.38	524.61
439.75	531.20
440.13	538.63
440.50	545.69
440.87	551.29
441.24	557.42
441.61	564.12
441.98	568.98
442.35	574.76
442.72	580.65
443.09	586.25
443.46	589.78
443.83	592.34
444.20	594.47
444.57	597.67
444.94	599.46
445.31	601.31
445.68	602.86
446.05	603.98
446.42	603.52
446.79	602.87
447.16	602.27
447.53	601.71
447.90	599.22
448.27	596.82
448.64	593.26
449.01	590.75
449.37	585.85
449.74	581.42
450.11	575.74
450.48	569.54
450.85	563.33
451.22	558.04
451.59	552.87
451.96	548.19
452.33	541.41
452.70	535.41
453.07	528.09
453.43	520.80
453.80	513.72
454.17	506.95
454.54	500.72
454.91	493.69
455.28	487.13
455.65	480.94
456.02	474.41
456.38	469.15
456.75	462.38
457.12	456.94
457.49	451.46
457.86	446.29
458.23	441.78
458.59	436.78
458.96	431.64
459.33	427.14
459.70	422.54
460.07	419.07
460.43	414.97
460.80	411.14
461.17	407.84
461.54	404.23
461.91	400.87
462.27	397.45
462.64	394.71
463.01	391.52
463.38	388.32
463.74	385.42
464.11	382.88
464.48	380.60
464.85	378.10
465.21	376.22
465.58	374.11
465.95	371.68
466.32	369.76
466.68	367.87
467.05	365.97
467.42	364.11
467.78	362.09
468.15	360.24
468.52	358.91
468.88	357.08
469.25	355.42
469.62	354.10
469.98	352.66
470.35	351.38
470.72	350.21
471.08	349.03
471.45	348.04
471.82	346.93
472.18	345.74
472.55	344.99
472.92	344.02
473.28	343.27
473.65	342.46
474.02	341.69
474.38	341.03
474.75	340.65
475.11	340.11
475.48	339.86
475.85	339.58
476.21	339.43
476.58	339.32
476.94	339.44
477.31	339.49
477.67	339.57
478.04	339.76
478.41	340.04
478.77	340.45
479.14	340.70
479.50	341.20
479.87	341.85
480.23	342.50
480.60	343.14
480.96	343.79
481.33	344.76
481.69	345.72
482.06	346.69
482.42	347.57
482.79	348.66
483.15	349.93
483.52	351.38
483.88	352.76
484.25	354.25
484.61	355.80
484.98	357.48
485.34	359.37
485.71	361.34
486.07	363.45
486.44	365.55
486.80	367.90
487.17	370.34
487.53	373.01
487.90	375.81
488.26	378.86
488.62	382.08
488.99	385.29
489.35	388.68
489.72	392.35
490.08	396.21
490.44	400.20
490.81	404.36
491.17	408.61
491.54	413.19
491.90	417.91
492.26	422.96
492.63	428.25
492.99	433.77
493.36	439.49
493.72	445.51
494.08	451.67
494.45	458.23
494.81	465.02
495.17	472.00
495.54	479.37
495.90	487.05
496.26	494.90
496.63	502.99
496.99	511.40
497.35	520.20
497.72	529.29
498.08	538.59
498.44	548.21
498.80	558.39
499.17	568.83
499.53	579.60
499.89	590.73
500.26	602.11
500.62	613.77
500.98	626.06
501.34	638.54
501.71	651.54
502.07	664.71
502.43	678.42
502.79	692.37
503.16	706.77
503.52	721.38
503.88	736.40
504.24	751.89
504.60	767.58
504.97	783.77
505.33	800.37
505.69	817.87
506.05	835.71
506.41	853.51
506.78	871.47
507.14	889.95
507.50	908.90
507.86	928.16
508.22	947.68
508.59	967.02
508.95	987.16
509.31	1008.02
509.67	1029.61
510.03	1051.22
510.39	1072.87
510.75	1094.71
511.12	1116.83
511.48	1139.16
511.84	1161.51
512.20	1184.24
512.56	1207.85
512.92	1231.48
513.28	1254.76
513.64	1278.29
514.00	1302.27
514.37	1326.58
514.73	1350.87
515.09	1375.03
515.45	1399.51
515.81	1424.20
516.17	1449.02
516.53	1473.41
516.89	1497.68
517.25	1522.09
517.61	1546.39
517.97	1571.18
518.33	1595.47
518.69	1619.68
519.05	1644.33
519.41	1669.26
519.77	1694.52
520.13	1718.99
520.49	1743.38
520.85	1768.09
521.21	1792.43
521.57	1817.12
521.93	1841.30
522.29	1866.02
522.65	1890.20
523.01	1914.35
523.37	1938.11
523.73	1962.55
524.09	1986.74
524.45	2010.73
524.81	2034.35
525.17	2057.82
525.53	2080.73
525.89	2104.09
526.25	2127.41
526.61	2149.76
526.97	2172.28
527.33	2194.63
527.68	2216.78
528.04	2238.15
528.40	2258.61
528.76	2279.19
529.12	2299.39
529.48	2319.36
529.84	2337.45
530.20	2356.14
530.56	2374.26
530.91	2392.49
531.27	2410.41
531.63	2427.44
531.99	2443.99
532.35	2459.91
532.71	2475.99
533.07	2492.73
533.42	2507.66
533.78	2523.56
534.14	2539.64
534.50	2554.84
534.86	2569.79
535.21	2582.86
535.57	2596.38
535.93	2609.68
536.29	2621.92
536.65	2633.91
537.00	2645.13
537.36	2657.34
537.72	2668.19
538.08	2678.51
538.44	2688.15
538.79	2697.41
539.15	2705.86
539.51	2714.03
539.87	2721.57
540.22	2727.01
540.58	2732.49
540.94	2739.13
541.29	2744.31
541.65	2747.77
542.01	2750.35
542.37	2752.29
542.72	2755.57
543.08	2757.18
543.44	2759.39
543.79	2760.52
544.15	2760.79
544.51	2761.50
544.87	2761.05
545.22	2759.93
545.58	2758.12
545.94	2756.27
546.29	2753.14
546.65	2750.00
547.01	2746.67
547.36	2744.06
547.72	2741.73
548.07	2737.63
548.43	2732.15
548.79	2725.59
549.14	2720.27
549.50	2715.34
549.86	2709.50
550.21	2702.48
550.57	2696.41
550.92	2688.05
551.28	2680.22
551.64	2672.79
551.99	2664.86
552.35	2656.34
552.70	2647.99
553.06	2640.02
553.41	2631.45
553.77	2622.59
554.13	2613.71
554.48	2604.05
554.84	2593.12
555.19	2582.57
555.55	2572.08
555.90	2561.64
556.26	2551.79
556.61	2540.89
556.97	2528.35
557.32	2516.32
557.68	2504.21
558.03	2491.81
558.39	2480.61
558.74	2469.75
559.10	2457.10
559.45	2444.67
559.81	2432.86
560.16	2420.46
560.52	2408.27
560.87	2396.43
561.23	2383.81
561.58	2371.23
561.94	2358.34
562.29	2344.91
562.64	2332.20
563.00	2319.19
563.35	2306.54
563.71	2293.75
564.06	2280.84
564.42	2268.64
564.77	2255.82
565.12	2242.91
565.48	2230.02
565.83	2217.04
566.19	2204.19
566.54	2191.37
566.89	2177.40
567.25	2163.52
567.60	2151.01
567.96	2137.60
568.31	2122.85
568.66	2108.75
569.02	2095.89
569.37	2082.94
569.72	2070.49
570.08	2056.78
570.43	2042.75
570.78	2028.60
571.14	2013.69
571.49	1999.39
571.84	1985.62
572.20	1970.68
572.55	1955.96
572.90	1941.18
573.26	1926.41
573.61	1911.17
573.96	1896.34
574.31	1881.71
574.67	1867.20
575.02	1851.62
575.37	1836.11
575.72	1821.43
576.08	1807.13
576.43	1791.68
576.78	1776.63
577.13	1761.84
577.49	1747.41
577.84	1733.60
578.19	1718.84
578.54	1704.25
578.90	1689.18
579.25	1674.01
579.60	1660.40
579.95	1646.73
580.30	1632.85
580.66	1618.73
581.01	1604.45
581.36	1590.13
581.71	1576.87
582.06	1563.52
582.42	1550.38
582.77	1537.32
583.12	1524.24
583.47	1510.97
583.82	1497.84
584.17	1484.38
584.53	1470.60
584.88	1457.19
585.23	1443.32
585.58	1430.25
585.93	1417.38
586.28	1405.30
586.63	1393.18
586.98	1380.62
587.34	1368.11
587.69	1355.26
588.04	1342.77
588.39	1330.68
588.74	1318.76
589.09	1306.60
589.44	1293.98
589.79	1282.00
590.14	1270.15
590.49	1258.20
590.84	1246.47
591.19	1235.08
591.54	1223.50
591.89	1212.06
592.25	1200.79
592.60	1189.17
592.95	1177.99
593.30	1167.02
593.65	1155.72
594.00	1144.58
594.35	1133.97
594.70	1122.91
595.05	1112.78
595.40	1102.54
595.75	1092.17
596.10	1082.30
596.45	1072.17
596.80	1062.39
597.15	1052.32
597.50	1042.41
597.85	1032.96
598.19	1023.29
598.54	1013.66
598.89	1004.51
599.24	995.67
599.59	986.63
599.94	978.53
600.29	970.21
600.64	961.63
600.99	952.69
601.34	944.07
601.69	935.14
602.04	926.90
602.39	918.48
602.74	910.11
603.08	901.70
603.43	893.24
603.78	884.96
604.13	876.84
604.48	868.76
604.83	860.83
605.18	852.78
605.53	844.91
605.87	836.88
606.22	829.15
606.57	821.34
606.92	813.49
607.27	805.55
607.62	797.89
607.96	790.67
608.31	783.89
608.66	776.89
609.01	770.18
609.36	763.55
609.70	756.73
610.05	749.86
610.40	743.27
610.75	736.68
611.10	730.44
611.44	724.00
611.79	717.68
612.14	711.31
612.49	705.01
612.83	699.01
613.18	693.15
613.53	687.17
613.88	681.23
614.22	675.68
614.57	670.09
614.92	664.37
615.27	658.74
615.61	653.15
615.96	647.63
616.31	642.12
616.65	636.67
617.00	631.42
617.35	626.29
617.70	621.19
618.04	616.17
618.39	611.06
618.74	606.21
619.08	601.39
619.43	596.70
619.78	592.02
620.12	587.28
620.47	582.72
620.82	578.28
621.16	573.88
621.51	569.35
621.85	564.86
622.20	560.52
622.55	556.22
622.89	552.00
623.24	547.79
623.59	543.63
623.93	539.62
624.28	535.69
624.62	531.87
624.97	528.08
625.32	524.26
625.66	520.39
626.01	516.49
626.35	512.66
626.70	508.88
627.04	505.29
627.39	501.63
627.73	498.15
628.08	494.73
628.43	491.31
628.77	487.97
629.12	484.76
629.46	481.58
629.81	478.30
630.15	475.01
630.50	471.82
630.84	468.68
631.19	465.62
631.53	462.66
631.88	459.66
632.22	456.69
632.57	454.01
632.91	451.36
633.26	448.80
633.60	446.25
633.95	443.76
634.29	441.18
634.64	438.69
634.98	436.00
635.32	433.45
635.67	431.10
636.01	428.68
636.36	426.31
636.70	424.07
637.05	421.83
637.39	419.63
637.73	417.45
638.08	415.41
638.42	413.31
638.77	411.09
639.11	408.80
639.45	406.61
639.80	404.35
640.14	402.20
640.49	400.05
640.83	397.87
641.17	395.77
641.52	393.72
641.86	391.70
642.20	389.89
642.55	387.93
642.89	385.98
643.23	384.12
643.58	382.43
643.92	380.61
644.26	378.86
644.61	377.16
644.95	375.42
645.29	373.60
645.64	371.81
645.98	370.11
646.32	368.55
646.66	366.96
647.01	365.39
647.35	363.85
647.69	362.30
648.04	360.89
648.38	359.41
648.72	357.94
649.06	356.48
649.41	355.02
649.75	353.63
650.09	352.25
650.43	350.87
650.78	349.44
651.12	348.06
651.46	346.72
651.80	345.41
652.14	344.14
652.49	342.92
652.83	341.66
653.17	340.46
653.51	339.27
653.85	338.16
654.20	337.00
654.54	335.76
654.88	334.61
655.22	333.48
655.56	332.35
655.90	331.27
656.25	330.23
656.59	329.18
656.93	328.18
657.27	327.19
657.61	326.16
657.95	325.16
658.29	324.16
658.64	323.21
658.98	322.25
659.32	321.32
659.66	320.44
660.00	319.58
660.34	318.72
660.68	317.83
661.02	316.91
661.36	316.03
661.70	315.19
662.05	314.37
662.39	313.55
662.73	312.82
663.07	312.09
663.41	311.31
663.75	310.53
664.09	309.77
664.43	308.96
664.77	308.23
665.11	307.46
665.45	306.77
665.79	306.07
666.13	305.35
666.47	304.62
666.81	303.86
667.15	303.09
667.49	302.41
667.83	301.79
668.17	301.15
668.51	300.54
668.85	299.97
669.19	299.43
669.53	298.79
669.87	298.14
670.21	297.50
670.55	296.92
670.89	296.41
671.23	295.84
671.57	295.30
671.91	294.80
672.25	294.33
672.58	293.85
672.92	293.29
673.26	292.81
673.60	292.34
673.94	291.88
674.28	291.46
674.62	290.99
674.96	290.48
675.30	290.03
675.64	289.54
675.97	289.03
676.31	288.50
676.65	288.02
676.99	287.61
677.33	287.13
677.67	286.68
678.01	286.16
678.34	285.72
678.68	285.31
679.02	284.83
679.36	284.36
679.70	283.89
680.04	283.47
680.37	283.04
680.71	282.63
681.05	282.23
681.39	281.79
681.73	281.33
682.06	280.90
682.40	280.47
682.74	280.10
683.08	279.78
683.42	279.40
683.75	279.05
684.09	278.61
684.43	278.24
684.77	277.86
685.10	277.53
685.44	277.17
685.78	276.80
686.12	276.46
686.45	276.10
686.79	275.72
687.13	275.37
687.46	274.99
687.80	274.63
688.14	274.23
688.48	273.89
688.81	273.53
689.15	273.22
689.49	272.85
689.82	272.48
690.16	272.05
690.50	271.70
690.83	271.34
691.17	270.98
691.51	270.63
691.84	270.30
692.18	269.93
692.52	269.55
692.85	269.20
693.19	268.89
693.52	268.54
693.86	268.21
694.20	267.87
694.53	267.55
694.87	267.19
695.21	266.85
695.54	266.52
695.88	266.17
696.21	265.81
696.55	265.48
696.88	265.16
697.22	264.84
697.56	264.51
697.89	264.14
698.23	263.83
698.56	263.48
698.90	263.16
699.23	262.82
699.57	262.50
699.90	262.16
700.24	261.81
700.58	261.51
700.91	261.24
701.25	261.05
701.58	260.80
701.92	260.54
702.25	260.26
702.59	259.95
702.92	259.66
703.26	259.37
703.59	259.06
703.93	258.86
704.26	258.58
704.60	258.28
704.93	258.00
705.26	257.70
705.60	257.45
705.93	257.14
706.27	256.90
706.60	256.66
706.94	256.44
707.27	256.13
707.61	255.84
707.94	255.53
708.27	255.13
708.61	254.79
708.94	254.49
709.28	254.22
709.61	253.94
709.94	253.70
710.28	253.46
710.61	253.24
710.95	252.89
711.28	252.72
711.61	252.47
711.95	252.26
712.28	252.01
712.61	251.74
712.95	251.59
713.28	251.41
713.61	251.13
713.95	250.85
714.28	250.63
714.61	250.39
714.95	250.16
715.28	249.94
715.61	249.73
715.95	249.52
716.28	249.31
716.61	249.13
716.95	248.90
717.28	248.68
717.61	248.45
717.94	248.24
718.28	247.93
718.61	247.72
718.94	247.49
719.27	247.28
719.61	247.10
719.94	246.86
720.27	246.57
720.60	246.38
720.94	246.19
721.27	246.00
721.60	245.83
721.93	245.64
722.27	245.49
722.60	245.31
722.93	245.11
723.26	244.92
723.59	244.70
723.93	244.53
724.26	244.35
724.59	244.16
724.92	244.00
725.25	243.87
725.59	243.70
725.92	243.56
726.25	243.40
726.58	243.22
726.91	243.05
727.24	242.91
727.57	242.75
727.91	242.57
728.24	242.43
728.57	242.26
728.90	242.12
729.23	241.92
729.56	241.81
729.89	241.66
730.22	241.49
730.55	241.34
730.89	241.19
731.22	241.03
731.55	240.88
731.88	240.73
732.21	240.56
732.54	240.41
732.87	240.26
733.20	240.12
733.53	239.99
733.86	239.86
734.19	239.71
734.52	239.59
734.85	239.55
735.18	239.38
735.51	239.28
735.84	239.15
736.17	239.06
736.50	238.87
736.83	238.89
737.16	238.77
737.49	238.66
737.82	238.53
738.15	238.43
738.48	238.31
738.81	238.18
739.14	238.05
739.47	237.92
739.80	237.79
740.13	237.68
740.46	237.54
740.79	237.41
741.12	237.29
741.45	237.14
741.78	236.95
742.11	236.87
742.44	236.73
742.77	236.63
743.10	236.50
743.43	236.38
743.75	236.13
744.08	236.22
744.41	236.10
744.74	236.00
745.07	235.86
745.40	235.78
745.73	235.73
746.06	235.64
746.39	235.56
746.71	235.45
747.04	235.34
747.37	235.25
747.70	235.18
748.03	235.09
748.36	235.02
748.68	234.93
749.01	234.80
749.34	234.71
749.67	234.62
750.00	234.55
750.33	234.56
750.65	234.48
750.98	234.20
751.31	234.11
751.64	234.04
751.97	234.02
752.29	233.92
752.62	233.78
752.95	233.68
753.28	233.58
753.60	233.50
753.93	233.44
754.26	233.37
754.59	233.25
754.91	233.15
755.24	233.05
755.57	233.03
755.90	232.95
756.22	232.85
756.55	232.76
756.88	232.65
757.20	232.49
757.53	232.37
757.86	232.29
758.19	232.23
758.51	232.15
758.84	232.01
759.17	231.92
759.49	231.86
759.82	231.85
760.15	231.79
760.47	231.72
760.80	231.61
761.13	231.56
761.45	231.50
761.78	231.44
762.11	231.38
762.43	231.26
762.76	231.20
763.08	231.16
763.41	231.10
763.74	231.05
764.06	230.99
764.39	230.94
764.71	230.88
765.04	230.81
765.37	230.75
765.69	230.70
766.02	230.64
766.34	230.58
766.67	230.47
767.00	230.44
767.32	230.46
767.65	230.49
767.97	230.43
768.30	230.39
768.62	230.34
768.95	230.27
769.27	230.22
769.60	230.19
769.92	230.12
770.25	230.05
770.57	229.98
770.90	229.94
771.22	229.88
771.55	229.83
771.87	229.80
772.20	229.75
772.52	229.82
772.85	229.93
773.17	229.89
773.50	229.85
773.82	229.78
774.15	229.68
774.47	229.56
774.80	229.50
775.12	229.46
775.45	229.42
775.77	229.40
776.09	229.37
776.42	229.34
776.74	229.35
777.07	229.31
777.39	229.29
777.72	229.25
778.04	229.23
778.36	229.20
778.69	229.17
779.01	229.15
779.33	229.00
779.66	228.83
779.98	228.79
780.31	228.77
780.63	228.80
780.95	228.79
781.28	228.76
781.60	228.73
781.92	228.70
782.25	228.68
782.57	228.65
782.89	228.61
783.22	228.57
783.54	228.51
783.86	228.50
784.19	228.47
784.51	228.48
784.83	228.44
785.16	228.41
785.48	228.38
785.80	228.36
786.12	228.35
786.45	228.32
786.77	228.31
787.09	228.28
787.42	228.21
787.74	228.18
788.06	228.17
788.38	228.14
788.71	228.11
789.03	228.09
789.35	228.08
789.67	228.05
789.99	228.04
790.32	228.01
790.64	228.00
790.96	228.10
791.28	228.04
791.61	228.01
791.93	228.00
792.25	227.98
792.57	228.05
792.89	228.00
793.21	227.99
793.54	227.96
793.86	227.93
794.18	227.92
794.50	227.87
794.82	227.85
795.14	227.85
795.47	227.86
795.79	227.84
796.11	227.79
796.43	227.77
796.75	227.75
797.07	227.74
797.39	227.72
797.71	227.59
798.04	227.58
798.36	227.57
798.68	227.55
799.00	227.55
799.32	227.47
799.64	227.47
799.96	227.45
800.28	227.46
800.60	227.44
800.92	227.43
801.24	227.41
801.56	227.41
801.89	227.38
802.21	227.37
802.53	227.33
802.85	227.35
803.17	227.40
803.49	227.36
803.81	227.33
804.13	227.31
804.45	227.28
804.77	227.28
805.09	227.26
805.41	227.24
805.73	227.20
806.05	227.15
806.37	227.13
806.69	227.11
807.01	227.09
807.33	227.08
807.65	227.03
807.97	227.07
808.28	227.05
808.60	227.03
808.92	227.00
809.24	227.07
809.56	227.03
809.88	226.97
810.20	226.97
810.52	226.98
810.84	226.95
811.16	226.93
811.48	226.91
811.80	226.95
812.12	226.93
812.43	226.95
812.75	226.95
813.07	226.92
813.39	226.92
813.71	226.89
814.03	226.87
814.35	226.87
814.67	226.81
814.98	226.79
815.30	226.77
815.62	226.74
815.94	226.65
816.26	226.66
816.58	226.63
816.89	226.63
817.21	226.59
817.53	226.60
817.85	226.60
818.17	226.58
818.48	226.53
818.80	226.55
819.12	226.51
819.44	226.49
819.76	226.47
820.07	226.46
820.39	226.45
820.71	226.46
821.03	226.45
821.34	226.43
821.66	226.44
821.98	226.46
822.30	226.45
822.61	226.52
822.93	226.49
823.25	226.48
823.57	226.46
823.88	226.47
824.20	226.46
824.52	226.48
824.83	226.46
825.15	226.44
825.47	226.42
825.79	226.43
826.10	226.42
826.42	226.41
826.74	226.41
827.05	226.40
827.37	226.40
827.69	226.39
828.00	226.39
828.32	226.38
828.64	226.35
828.95	226.41
829.27	226.37
829.58	226.37
829.90	226.38
830.22	226.38
830.53	226.36
830.85	226.34
831.17	226.30
831.48	226.30
831.80	226.30
832.11	226.29
832.43	226.27
832.75	226.26
833.06	226.33
833.38	226.29
833.69	226.28
834.01	226.28
834.32	226.28
834.64	226.26
834.96	226.25
835.27	226.25
835.59	226.19
835.90	226.17
836.22	226.17
836.53	226.14
836.85	226.12
837.16	226.24
837.48	226.24
837.79	226.28
838.11	226.28
838.42	226.28
838.74	226.29
839.05	226.28
839.37	226.27
839.68	226.19
840.00	226.18
840.31	226.20
840.63	226.18
840.94	226.16
841.26	226.15
841.57	226.15
841.88	226.15
842.20	226.14
842.51	226.11
842.83	226.11
843.14	226.22
843.46	226.21
843.77	226.13
844.08	226.12
844.40	226.08
844.71	226.06
845.03	226.05
845.34	226.03
845.65	226.03
845.97	226.03
846.28	226.03
846.60	226.03
846.91	226.01
847.22	226.00
847.54	226.03
847.85	226.04
848.16	226.02
848.48	225.99
848.79	226.04
849.10	226.05
849.42	226.05
849.73	225.93
850.04	225.93
850.36	225.88
850.67	225.91
850.98	225.91
851.30	225.92
851.61	225.91
851.92	225.90
852.23	225.94
852.55	225.94
852.86	225.95
853.17	225.95
853.49	225.98
853.80	226.01
854.11	226.01
854.42	226.02
854.74	226.01
855.05	226.01
855.36	225.95
855.67	225.95
855.99	225.95
856.30	226.09
856.61	226.09
856.92	226.09
857.23	226.09
857.55	226.08
857.86	226.06
858.17	226.08
858.48	226.07
858.79	226.04
859.11	226.05
859.42	226.04
859.73	226.02
860.04	226.01
860.35	225.97
860.66	225.94
860.98	225.93
861.29	225.94
861.60	225.93
861.91	225.96
862.22	225.94
862.53	225.92
862.84	225.76
863.16	225.79
863.47	225.77
863.78	225.75
864.09	225.76
864.40	225.77
864.71	225.77
865.02	225.79
865.33	225.77
865.64	225.74
865.95	225.74
866.27	225.82
866.58	225.80
866.89	225.82
867.20	225.82
867.51	225.80
867.82	225.79
868.13	225.83
868.44	225.80
868.75	225.83
869.06	225.84
869.37	225.85
869.68	225.82
869.99	225.84
870.30	225.85
870.61	225.86
870.92	225.83
871.23	225.82
871.54	225.84
871.85	225.86
872.16	225.88
872.47	225.87
872.78	225.80
873.09	225.81
873.40	225.79
873.71	225.80
874.02	225.81
874.33	225.80
874.64	225.77
874.95	225.79
875.26	225.76
875.56	225.76
875.87	225.75
876.18	225.74
876.49	225.87
876.80	225.85
877.11	225.83
877.42	225.84
877.73	225.84
878.04	225.82
878.35	225.81
878.66	225.82
878.96	225.82
879.27	225.81
879.58	225.80
879.89	225.80
880.20	225.83
880.51	225.83
880.82	225.83
881.12	225.84
881.43	225.81
881.74	225.79
882.05	225.79
882.36	225.79
882.67	225.80
882.97	225.66
883.28	225.65
883.59	225.64
883.90	225.65
884.21	225.67
884.51	225.66
884.82	225.64
885.13	225.64
885.44	225.63
885.74	225.63
886.05	225.63
886.36	225.63
886.67	225.58
886.98	225.64
887.28	225.65
887.59	225.65
887.90	225.66
888.20	225.65
888.51	225.67
888.82	225.66
889.13	225.67
889.43	225.78
889.74	225.77
890.05	225.77
890.35	225.76
890.66	225.74
890.97	225.72
891.28	225.71
891.58	225.71
891.89	225.71
892.20	225.70
892.50	225.69
892.81	225.68
893.12	225.68
893.42	225.61
893.73	225.61
894.04	225.61
894.34	225.62
894.65	225.62
894.95	225.60
895.26	225.61
895.57	225.65
895.87	225.52
896.18	225.55
896.48	225.56
896.79	225.55
897.10	225.57
897.40	225.58
897.71	225.59
898.01	225.58
898.32	225.59
898.63	225.59
898.93	225.60
899.24	225.60
899.54	225.60
899.85	225.59
900.15	225.59
900.46	225.58
900.76	225.59
901.07	225.59
901.38	225.58
901.68	225.60
901.99	225.54
902.29	225.55
902.60	225.53
902.90	225.52
903.21	225.52
903.51	225.50
903.82	225.53
904.12	225.53
904.43	225.54
904.73	225.53
905.03	225.54
905.34	225.66
905.64	225.65
905.95	225.65
906.25	225.65
906.56	225.64
906.86	225.64
907.17	225.63
907.47	225.63
907.77	225.62
908.08	225.59
908.38	225.60
908.69	225.60
908.99	225.62
909.30	225.64
909.60	225.63
909.90	225.64
910.21	225.61
910.51	225.58
910.81	225.58
911.12	225.58
911.42	225.59
911.73	225.45
912.03	225.47
912.33	225.49
912.64	225.48
912.94	225.47
913.24	225.45
913.55	225.44
913.85	225.44
914.15	225.47
914.46	225.48
914.76	225.47
915.06	225.46
915.37	225.44
915.67	225.43
915.97	225.43
916.27	225.40
916.58	225.41
916.88	225.41
917.18	225.40
917.49	225.49
917.79	225.48
918.09	225.50
918.39	225.53
918.70	225.51
919.00	225.52
919.30	225.58
919.60	225.58
919.91	225.56
920.21	225.57
920.51	225.54
920.81	225.53
921.12	225.55
921.42	225.55
921.72	225.56
922.02	225.56
922.32	225.58
922.63	225.58
922.93	225.65
923.23	225.66
923.53	225.65
923.83	225.56
924.13	225.57
924.44	225.57
924.74	225.58
925.04	225.61
925.34	225.61
925.64	225.55
925.94	225.55
926.24	225.63
926.55	225.61
926.85	225.63
927.15	225.63
927.45	225.63
927.75	225.62
928.05	225.62
928.35	225.62
928.65	225.63
928.95	225.64
929.26	225.58
929.56	225.60
929.86	225.62
930.16	225.61
930.46	225.59
930.76	225.60
931.06	225.54
931.36	225.50
931.66	225.53
931.96	225.54
932.26	225.55
932.56	225.49
932.86	225.50
933.16	225.50
933.46	225.49
933.76	225.47
934.06	225.49
934.36	225.53
934.66	225.53
934.96	225.51
935.26	225.51
935.56	225.53
935.86	225.49
936.16	225.48
936.46	225.47
936.76	225.46
937.06	225.44
937.36	225.45
937.66	225.46
937.96	225.45
938.26	225.42
938.56	225.41
938.86	225.42
939.16	225.44
939.46	225.45
939.76	225.46
940.06	225.46
940.35	225.44
940.65	225.38
940.95	225.39
941.25	225.36
941.55	225.34
941.85	225.33
942.15	225.36
942.45	225.39
942.75	225.39
943.04	225.39
943.34	225.42
943.64	225.41
943.94	225.39
944.24	225.39
944.54	225.40
944.84	225.40
945.13	225.38
945.43	225.35
945.73	225.35
946.03	225.33
946.33	225.32
946.62	225.31
946.92	225.31
947.22	225.31
947.52	225.32
947.82	225.34
948.11	225.32
948.41	225.30
948.71	225.26
949.01	225.27
949.31	225.26
949.60	225.25
949.90	225.27
950.20	225.26
950.50	225.26
950.79	225.25
951.09	225.27
951.39	225.27
951.69	225.25
951.98	225.27
952.28	225.29
952.58	225.28
952.87	225.28
953.17	225.30
953.47	225.29
953.76	225.28
954.06	225.26
954.36	225.24
954.66	225.24
954.95	225.28
955.25	225.28
955.55	225.30
955.84	225.28
956.14	225.28
956.44	225.29
956.73	225.28
957.03	225.29
957.32	225.28
957.62	225.28
957.92	225.31
958.21	225.29
958.51	225.44
958.81	225.46
959.10	225.47
959.40	225.50
959.69	225.50
959.99	225.52
960.29	225.53
960.58	225.52
960.88	225.57
961.17	225.56
961.47	225.57
961.76	225.55
962.06	225.58
962.36	225.56
962.65	225.57
962.95	225.58
963.24	225.56
963.54	225.57
963.83	225.58
964.13	225.57
964.42	225.55
964.72	225.45
965.01	225.44
965.31	225.44
965.60	225.41
965.90	225.49
966.19	225.46
966.49	225.47
966.78	225.47
967.08	225.45
967.37	225.45
967.67	225.43
967.96	225.45
968.26	225.45
968.55	225.46
968.85	225.46
969.14	225.46
969.43	225.46
969.73	225.44
970.02	225.44
970.32	225.43
970.61	225.41
970.91	225.37
971.20	225.35
971.49	225.34
971.79	225.35
972.08	225.26
972.38	225.28
972.67	225.26
972.96	225.28
973.26	225.26
973.55	225.29
973.85	225.29
974.14	225.27
974.43	225.28
974.73	225.25
975.02	225.24
975.31	225.24
975.61	225.24
975.90	225.23
976.19	225.22
976.49	225.23
976.78	225.24
977.07	225.25
977.37	225.26
977.66	225.27
977.95	225.25
978.24	225.26
978.54	225.29
978.83	225.28
979.12	225.27
979.42	225.27
979.71	225.25
980.00	225.24
980.29	225.25
980.59	225.23
980.88	225.27
981.17	225.26
981.46	225.26
981.76	225.27
982.05	225.31
982.34	225.32
982.63	225.32
982.93	225.32
983.22	225.34
983.51	225.35
983.80	225.37
984.09	225.39
984.39	225.38
984.68	225.36
984.97	225.37
985.26	225.36
985.55	225.37
985.85	225.35
986.14	225.37
986.43	225.38
986.72	225.38
987.01	225.34
987.30	225.34
987.59	225.33
987.89	225.34
988.18	225.30
988.47	225.29
988.76	225.28
989.05	225.27
989.34	225.25
989.63	225.28
989.92	225.26
990.22	225.24
990.51	225.24
990.80	225.23
991.09	225.24
991.38	225.26
991.67	225.24
991.96	225.23
992.25	225.23
992.54	225.21
992.83	225.21
993.12	225.21
993.41	225.23
993.70	225.28
993.99	225.30
994.28	225.32
994.58	225.34
994.87	225.32
995.16	225.32
995.45	225.32
995.74	225.27
996.03	225.29
996.32	225.32
996.61	225.34
996.90	225.34
997.19	225.33
997.48	225.33
997.77	225.32
998.06	225.33
998.34	225.32
998.63	225.32
998.92	225.32
999.21	225.34
999.50	225.34
999.79	225.30
1000.08	225.29
1000.37	225.29
1000.66	225.28
1000.95	225.31
1001.24	225.32
1001.53	225.33
1001.82	225.33
1002.11	225.30
1002.40	225.30
1002.68	225.33
1002.97	225.42
1003.26	225.40
1003.55	225.38
1003.84	225.40
1004.13	225.44
1004.42	225.43
1004.71	225.43
1004.99	225.43
1005.28	225.45
1005.57	225.44
1005.86	225.42
1006.15	225.41
1006.44	225.39
1006.72	225.41
1007.01	225.38
1007.30	225.38
1007.59	225.37
1007.88	225.36
1008.17	225.37
1008.45	225.35
1008.74	225.30
1009.03	225.23
1009.32	225.24
1009.60	225.24
1009.89	225.23
1010.18	225.17
1010.47	225.16
1010.76	225.17
1011.04	225.17
1011.33	225.16
1011.62	225.17
1011.91	225.18
1012.19	225.18
1012.48	225.19
1012.77	225.18
1013.05	225.23
1013.34	225.23
1013.63	225.23
1013.92	225.24
1014.20	225.23
1014.49	225.23
1014.78	225.25
1015.06	225.21
1015.35	225.21
1015.64	225.23
1015.92	225.25
1016.21	225.26
1016.50	225.26
1016.78	225.27
1017.07	225.28
1017.36	225.26
1017.64	225.25
1017.93	225.26
1018.22	225.25
1018.50	225.24
1018.79	225.24
1019.08	225.19
1019.36	225.20
1019.65	225.18
1019.93	225.22
1020.22	225.23
1020.51	225.30
1020.79	225.28
1021.08	225.06
1021.36	225.00
1021.65	225.18
1021.94	225.16
1022.22	225.32
1022.51	224.94
1022.79	225.83
1023.08	225.38
1023.36	226.76
1023.65	224.93
>>>>>End Processed Spectral Data<<<<<
