SpectraSuite Data File
++++++++++++++++++++++++++++++++++++
Date: Sat Oct 03 01:31:06 EDT 2015
User: lab3
Dark Spectrum Present: No
Reference Spectrum Present: No
Number of Sampled Component Spectra: 1
Spectrometers: USB2E7196
Integration Time (usec): 46000 (USB2E7196)
Spectra Averaged: 12000 (USB2E7196)
Boxcar Smoothing: 10 (USB2E7196)
Correct for Electrical Dark: No (USB2E7196)
Strobe/Lamp Enabled: No (USB2E7196)
Correct for Detector Non-linearity: No (USB2E7196)
Correct for Stray Light: No (USB2E7196)
Number of Pixels in Processed Spectrum: 2048
>>>>>Begin Processed Spectral Data<<<<<
339.09	0.00
339.48	214.32
339.86	215.81
340.24	217.21
340.63	218.58
341.01	221.79
341.39	221.35
341.78	222.63
342.16	223.87
342.54	224.31
342.93	212.75
343.31	223.50
343.69	224.04
344.07	224.50
344.46	224.93
344.84	225.32
345.22	225.54
345.60	225.80
345.99	225.99
346.37	226.12
346.75	226.23
347.13	226.30
347.52	226.37
347.90	226.46
348.28	226.50
348.66	226.56
349.05	226.55
349.43	226.60
349.81	226.66
350.19	226.71
350.57	226.78
350.96	226.86
351.34	226.96
351.72	227.05
352.10	227.16
352.48	227.23
352.87	227.28
353.25	227.35
353.63	227.41
354.01	227.47
354.39	227.55
354.77	227.63
355.15	227.73
355.54	227.78
355.92	227.81
356.30	227.88
356.68	228.04
357.06	228.12
357.44	228.16
357.82	228.22
358.20	228.34
358.58	228.40
358.97	228.46
359.35	228.55
359.73	228.64
360.11	228.69
360.49	228.74
360.87	228.79
361.25	228.86
361.63	228.94
362.01	228.99
362.39	229.02
362.77	229.07
363.15	229.09
363.53	229.13
363.91	229.16
364.29	229.19
364.67	229.09
365.05	229.11
365.43	229.14
365.81	229.17
366.19	229.19
366.57	229.25
366.95	229.25
367.33	229.22
367.71	229.21
368.09	229.24
368.47	229.23
368.85	229.22
369.23	229.23
369.61	229.18
369.99	229.20
370.37	229.20
370.75	229.27
371.13	229.24
371.51	229.20
371.89	229.17
372.27	229.15
372.65	229.14
373.03	229.09
373.41	229.05
373.78	229.00
374.16	228.90
374.54	228.81
374.92	228.76
375.30	228.72
375.68	228.65
376.06	228.60
376.44	228.55
376.82	228.50
377.19	228.46
377.57	228.40
377.95	228.31
378.33	228.25
378.71	228.08
379.09	228.04
379.47	228.01
379.84	227.95
380.22	227.89
380.60	227.81
380.98	227.76
381.36	227.71
381.73	227.65
382.11	227.62
382.49	227.58
382.87	227.52
383.25	227.48
383.62	227.59
384.00	227.52
384.38	227.48
384.76	227.47
385.13	227.46
385.51	227.42
385.89	227.38
386.27	227.34
386.64	227.33
387.02	227.28
387.40	227.23
387.78	227.21
388.15	227.18
388.53	227.15
388.91	227.12
389.29	227.09
389.66	227.08
390.04	227.04
390.42	227.04
390.79	227.03
391.17	227.01
391.55	226.85
391.92	226.84
392.30	226.84
392.68	226.80
393.05	226.78
393.43	226.78
393.81	226.79
394.18	226.77
394.56	226.77
394.94	226.80
395.31	226.81
395.69	226.85
396.06	226.88
396.44	226.91
396.82	226.92
397.19	227.01
397.57	227.02
397.95	227.07
398.32	227.06
398.70	227.11
399.07	227.18
399.45	227.21
399.82	227.26
400.20	227.30
400.58	227.36
400.95	227.37
401.33	227.45
401.70	227.61
402.08	227.71
402.45	227.80
402.83	227.91
403.20	228.02
403.58	228.11
403.95	228.25
404.33	228.40
404.71	228.54
405.08	228.75
405.46	228.91
405.83	229.10
406.21	229.29
406.58	229.51
406.96	229.72
407.33	229.96
407.70	230.24
408.08	230.62
408.45	230.95
408.83	231.31
409.20	231.64
409.58	231.92
409.95	232.32
410.33	232.76
410.70	233.17
411.08	233.66
411.45	234.17
411.82	234.69
412.20	235.28
412.57	235.98
412.95	236.53
413.32	237.26
413.69	238.00
414.07	238.79
414.44	239.64
414.82	240.52
415.19	241.55
415.56	242.58
415.94	243.65
416.31	244.86
416.68	246.07
417.06	247.46
417.43	248.78
417.81	250.28
418.18	251.82
418.55	253.50
418.93	255.24
419.30	257.06
419.67	258.99
420.04	260.98
420.42	263.04
420.79	265.44
421.16	267.85
421.54	270.30
421.91	272.86
422.28	275.52
422.66	278.38
423.03	281.12
423.40	283.98
423.77	287.05
424.15	290.19
424.52	293.47
424.89	297.01
425.26	300.54
425.64	303.82
426.01	307.50
426.38	311.27
426.75	315.15
427.13	319.13
427.50	323.30
427.87	327.64
428.24	332.01
428.61	336.21
428.99	340.76
429.36	345.74
429.73	350.51
430.10	355.28
430.47	360.16
430.85	365.18
431.22	370.58
431.59	376.13
431.96	381.54
432.33	387.55
432.70	393.28
433.08	400.03
433.45	406.42
433.82	412.72
434.19	419.74
434.56	426.68
434.93	433.37
435.30	439.99
435.68	447.47
436.05	454.80
436.42	462.09
436.79	468.76
437.16	475.95
437.53	483.64
437.90	491.35
438.27	498.88
438.64	507.02
439.01	514.39
439.38	521.13
439.75	527.62
440.13	534.94
440.50	541.89
440.87	547.40
441.24	553.45
441.61	560.03
441.98	564.82
442.35	570.50
442.72	576.30
443.09	581.81
443.46	585.28
443.83	587.81
444.20	589.89
444.57	593.04
444.94	594.78
445.31	596.60
445.68	598.12
446.05	599.20
446.42	598.73
446.79	598.07
447.16	597.48
447.53	596.92
447.90	594.45
448.27	592.08
448.64	588.56
449.01	586.08
449.37	581.25
449.74	576.87
450.11	571.26
450.48	565.14
450.85	559.02
451.22	553.79
451.59	548.69
451.96	544.06
452.33	537.38
452.70	531.46
453.07	524.24
453.43	517.05
453.80	510.07
454.17	503.40
454.54	497.27
454.91	490.34
455.28	483.86
455.65	477.76
456.02	471.33
456.38	466.15
456.75	459.48
457.12	454.12
457.49	448.71
457.86	443.63
458.23	439.18
458.59	434.26
458.96	429.20
459.33	424.76
459.70	420.24
460.07	416.82
460.43	412.78
460.80	409.02
461.17	405.77
461.54	402.22
461.91	398.92
462.27	395.55
462.64	392.85
463.01	389.72
463.38	386.57
463.74	383.72
464.11	381.21
464.48	378.96
464.85	376.51
465.21	374.67
465.58	372.59
465.95	370.20
466.32	368.31
466.68	366.45
467.05	364.59
467.42	362.77
467.78	360.79
468.15	358.97
468.52	357.66
468.88	355.87
469.25	354.23
469.62	352.95
469.98	351.53
470.35	350.28
470.72	349.14
471.08	347.98
471.45	347.00
471.82	345.91
472.18	344.75
472.55	344.01
472.92	343.06
473.28	342.33
473.65	341.54
474.02	340.78
474.38	340.14
474.75	339.76
475.11	339.24
475.48	338.99
475.85	338.72
476.21	338.58
476.58	338.48
476.94	338.61
477.31	338.66
477.67	338.73
478.04	338.92
478.41	339.20
478.77	339.62
479.14	339.87
479.50	340.37
479.87	341.02
480.23	341.66
480.60	342.30
480.96	342.94
481.33	343.90
481.69	344.86
482.06	345.82
482.42	346.69
482.79	347.78
483.15	349.04
483.52	350.47
483.88	351.84
484.25	353.32
484.61	354.85
484.98	356.51
485.34	358.38
485.71	360.33
486.07	362.42
486.44	364.50
486.80	366.83
487.17	369.24
487.53	371.89
487.90	374.66
488.26	377.67
488.62	380.86
488.99	384.04
489.35	387.39
489.72	391.02
490.08	394.84
490.44	398.79
490.81	402.90
491.17	407.12
491.54	411.64
491.90	416.32
492.26	421.31
492.63	426.54
492.99	432.01
493.36	437.67
493.72	443.63
494.08	449.73
494.45	456.21
494.81	462.95
495.17	469.86
495.54	477.16
495.90	484.76
496.26	492.52
496.63	500.54
496.99	508.86
497.35	517.58
497.72	526.59
498.08	535.79
498.44	545.32
498.80	555.40
499.17	565.75
499.53	576.42
499.89	587.46
500.26	598.72
500.62	610.27
500.98	622.45
501.34	634.81
501.71	647.69
502.07	660.74
502.43	674.33
502.79	688.15
503.16	702.43
503.52	716.91
503.88	731.81
504.24	747.17
504.60	762.73
504.97	778.78
505.33	795.25
505.69	812.62
506.05	830.32
506.41	847.96
506.78	865.78
507.14	884.12
507.50	902.91
507.86	922.04
508.22	941.40
508.59	960.60
508.95	980.61
509.31	1001.34
509.67	1022.78
510.03	1044.22
510.39	1065.73
510.75	1087.43
511.12	1109.40
511.48	1131.55
511.84	1153.76
512.20	1176.37
512.56	1199.83
512.92	1223.30
513.28	1246.43
513.64	1269.82
514.00	1293.66
514.37	1317.82
514.73	1341.97
515.09	1366.01
515.45	1390.37
515.81	1414.91
516.17	1439.60
516.53	1463.83
516.89	1487.95
517.25	1512.24
517.61	1536.44
517.97	1561.13
518.33	1585.31
518.69	1609.44
519.05	1634.02
519.41	1658.87
519.77	1684.00
520.13	1708.38
520.49	1732.69
520.85	1757.31
521.21	1781.53
521.57	1806.13
521.93	1830.25
522.29	1854.89
522.65	1878.99
523.01	1903.07
523.37	1926.77
523.73	1951.15
524.09	1975.29
524.45	1999.25
524.81	2022.81
525.17	2046.24
525.53	2069.09
525.89	2092.39
526.25	2115.67
526.61	2137.97
526.97	2160.44
527.33	2182.78
527.68	2204.89
528.04	2226.23
528.40	2246.67
528.76	2267.32
529.12	2287.53
529.48	2307.45
529.84	2325.55
530.20	2344.28
530.56	2362.42
530.91	2380.70
531.27	2398.67
531.63	2415.75
531.99	2432.36
532.35	2448.36
532.71	2464.48
533.07	2481.26
533.42	2496.24
533.78	2512.21
534.14	2528.36
534.50	2543.58
534.86	2558.58
535.21	2571.70
535.57	2585.29
535.93	2598.66
536.29	2610.94
536.65	2623.03
537.00	2634.38
537.36	2646.68
537.72	2657.55
538.08	2667.97
538.44	2677.71
538.79	2687.04
539.15	2695.57
539.51	2703.78
539.87	2711.34
540.22	2716.90
540.58	2722.50
540.94	2729.32
541.29	2734.57
541.65	2738.10
542.01	2740.84
542.37	2742.94
542.72	2746.37
543.08	2748.12
543.44	2750.46
543.79	2751.72
544.15	2752.13
544.51	2752.96
544.87	2752.66
545.22	2751.67
545.58	2750.01
545.94	2748.33
546.29	2745.34
546.65	2742.35
547.01	2739.23
547.36	2736.84
547.72	2734.62
548.07	2730.63
548.43	2725.23
548.79	2718.83
549.14	2713.71
549.50	2708.90
549.86	2703.17
550.21	2696.28
550.57	2690.33
550.92	2682.11
551.28	2674.46
551.64	2667.16
551.99	2659.35
552.35	2650.93
552.70	2642.75
553.06	2634.87
553.41	2626.38
553.77	2617.64
554.13	2608.85
554.48	2599.28
554.84	2588.44
555.19	2578.05
555.55	2567.73
555.90	2557.42
556.26	2547.68
556.61	2536.88
556.97	2524.42
557.32	2512.49
557.68	2500.48
558.03	2488.23
558.39	2477.14
558.74	2466.35
559.10	2453.78
559.45	2441.48
559.81	2429.81
560.16	2417.50
560.52	2405.43
560.87	2393.67
561.23	2381.14
561.58	2368.68
561.94	2355.89
562.29	2342.56
562.64	2329.93
563.00	2316.96
563.35	2304.44
563.71	2291.75
564.06	2278.89
564.42	2266.79
564.77	2254.05
565.12	2241.22
565.48	2228.37
565.83	2215.46
566.19	2202.68
566.54	2189.92
566.89	2176.00
567.25	2162.19
567.60	2149.74
567.96	2136.35
568.31	2121.66
568.66	2107.66
569.02	2094.86
569.37	2081.96
569.72	2069.57
570.08	2055.92
570.43	2041.97
570.78	2027.82
571.14	2012.94
571.49	1998.74
571.84	1985.05
572.20	1970.15
572.55	1955.49
572.90	1940.75
573.26	1926.03
573.61	1910.82
573.96	1896.04
574.31	1881.46
574.67	1866.97
575.02	1851.42
575.37	1835.98
575.72	1821.37
576.08	1807.10
576.43	1791.66
576.78	1776.63
577.13	1761.88
577.49	1747.45
577.84	1733.66
578.19	1718.92
578.54	1704.37
578.90	1689.32
579.25	1674.17
579.60	1660.60
579.95	1646.94
580.30	1633.08
580.66	1618.99
581.01	1604.76
581.36	1590.48
581.71	1577.26
582.06	1563.94
582.42	1550.83
582.77	1537.78
583.12	1524.68
583.47	1511.43
583.82	1498.31
584.17	1484.87
584.53	1471.09
584.88	1457.70
585.23	1443.83
585.58	1430.78
585.93	1417.95
586.28	1405.89
586.63	1393.81
586.98	1381.28
587.34	1368.78
587.69	1355.96
588.04	1343.48
588.39	1331.41
588.74	1319.49
589.09	1307.33
589.44	1294.74
589.79	1282.80
590.14	1270.97
590.49	1259.07
590.84	1247.33
591.19	1235.97
591.54	1224.41
591.89	1213.01
592.25	1201.78
592.60	1190.20
592.95	1179.03
593.30	1168.07
593.65	1156.79
594.00	1145.64
594.35	1135.01
594.70	1123.99
595.05	1113.88
595.40	1103.66
595.75	1093.28
596.10	1083.43
596.45	1073.30
596.80	1063.53
597.15	1053.48
597.50	1043.58
597.85	1034.11
598.19	1024.46
598.54	1014.86
598.89	1005.71
599.24	996.88
599.59	987.85
599.94	979.77
600.29	971.45
600.64	962.87
600.99	953.91
601.34	945.31
601.69	936.39
602.04	928.16
602.39	919.74
602.74	911.37
603.08	902.97
603.43	894.52
603.78	886.25
604.13	878.15
604.48	870.06
604.83	862.14
605.18	854.10
605.53	846.24
605.87	838.19
606.22	830.47
606.57	822.67
606.92	814.81
607.27	806.85
607.62	799.21
607.96	792.00
608.31	785.23
608.66	778.25
609.01	771.56
609.36	764.94
609.70	758.12
610.05	751.26
610.40	744.69
610.75	738.12
611.10	731.88
611.44	725.45
611.79	719.14
612.14	712.77
612.49	706.48
612.83	700.50
613.18	694.65
613.53	688.68
613.88	682.76
614.22	677.24
614.57	671.66
614.92	665.93
615.27	660.32
615.61	654.74
615.96	649.23
616.31	643.72
616.65	638.28
617.00	633.05
617.35	627.94
617.70	622.86
618.04	617.82
618.39	612.73
618.74	607.89
619.08	603.09
619.43	598.41
619.78	593.74
620.12	589.01
620.47	584.46
620.82	580.03
621.16	575.63
621.51	571.10
621.85	566.62
622.20	562.31
622.55	558.01
622.89	553.81
623.24	549.61
623.59	545.45
623.93	541.45
624.28	537.52
624.62	533.70
624.97	529.92
625.32	526.11
625.66	522.26
626.01	518.36
626.35	514.54
626.70	510.78
627.04	507.19
627.39	503.55
627.73	500.07
628.08	496.66
628.43	493.25
628.77	489.94
629.12	486.74
629.46	483.56
629.81	480.29
630.15	477.02
630.50	473.84
630.84	470.72
631.19	467.67
631.53	464.72
631.88	461.74
632.22	458.78
632.57	456.11
632.91	453.48
633.26	450.93
633.60	448.39
633.95	445.91
634.29	443.35
634.64	440.86
634.98	438.18
635.32	435.64
635.67	433.31
636.01	430.89
636.36	428.53
636.70	426.30
637.05	424.08
637.39	421.89
637.73	419.73
638.08	417.69
638.42	415.60
638.77	413.38
639.11	411.10
639.45	408.93
639.80	406.68
640.14	404.54
640.49	402.39
640.83	400.21
641.17	398.13
641.52	396.09
641.86	394.08
642.20	392.27
642.55	390.31
642.89	388.37
643.23	386.52
643.58	384.84
643.92	383.02
644.26	381.26
644.61	379.57
644.95	377.83
645.29	376.02
645.64	374.24
645.98	372.55
646.32	370.99
646.66	369.40
647.01	367.83
647.35	366.30
647.69	364.76
648.04	363.36
648.38	361.88
648.72	360.42
649.06	358.97
649.41	357.53
649.75	356.14
650.09	354.77
650.43	353.39
650.78	351.97
651.12	350.60
651.46	349.26
651.80	347.96
652.14	346.68
652.49	345.46
652.83	344.22
653.17	343.01
653.51	341.84
653.85	340.73
654.20	339.57
654.54	338.34
654.88	337.20
655.22	336.08
655.56	334.94
655.90	333.87
656.25	332.84
656.59	331.79
656.93	330.80
657.27	329.81
657.61	328.78
657.95	327.78
658.29	326.78
658.64	325.84
658.98	324.89
659.32	323.97
659.66	323.08
660.00	322.22
660.34	321.35
660.68	320.46
661.02	319.53
661.36	318.64
661.70	317.79
662.05	316.96
662.39	316.14
662.73	315.39
663.07	314.66
663.41	313.87
663.75	313.08
664.09	312.30
664.43	311.49
664.77	310.76
665.11	310.00
665.45	309.29
665.79	308.58
666.13	307.85
666.47	307.10
666.81	306.34
667.15	305.56
667.49	304.88
667.83	304.26
668.17	303.61
668.51	303.00
668.85	302.42
669.19	301.88
669.53	301.24
669.87	300.57
670.21	299.93
670.55	299.33
670.89	298.82
671.23	298.25
671.57	297.69
671.91	297.18
672.25	296.70
672.58	296.21
672.92	295.64
673.26	295.16
673.60	294.68
673.94	294.21
674.28	293.77
674.62	293.30
674.96	292.77
675.30	292.31
675.64	291.80
675.97	291.28
676.31	290.74
676.65	290.25
676.99	289.83
677.33	289.33
677.67	288.87
678.01	288.33
678.34	287.88
678.68	287.46
679.02	286.97
679.36	286.49
679.70	286.00
680.04	285.57
680.37	285.13
680.71	284.71
681.05	284.29
681.39	283.84
681.73	283.36
682.06	282.91
682.40	282.48
682.74	282.10
683.08	281.76
683.42	281.36
683.75	281.00
684.09	280.55
684.43	280.17
684.77	279.78
685.10	279.44
685.44	279.06
685.78	278.69
686.12	278.34
686.45	277.96
686.79	277.57
687.13	277.21
687.46	276.81
687.80	276.44
688.14	276.02
688.48	275.68
688.81	275.31
689.15	274.99
689.49	274.61
689.82	274.22
690.16	273.78
690.50	273.42
690.83	273.05
691.17	272.68
691.51	272.33
691.84	271.98
692.18	271.60
692.52	271.21
692.85	270.85
693.19	270.52
693.52	270.17
693.86	269.83
694.20	269.48
694.53	269.15
694.87	268.78
695.21	268.44
695.54	268.09
695.88	267.74
696.21	267.36
696.55	267.03
696.88	266.69
697.22	266.36
697.56	266.03
697.89	265.66
698.23	265.33
698.56	264.97
698.90	264.64
699.23	264.29
699.57	263.96
699.90	263.61
700.24	263.25
700.58	262.95
700.91	262.67
701.25	262.46
701.58	262.20
701.92	261.93
702.25	261.64
702.59	261.32
702.92	261.02
703.26	260.72
703.59	260.41
703.93	260.20
704.26	259.91
704.60	259.61
704.93	259.31
705.26	259.01
705.60	258.76
705.93	258.44
706.27	258.19
706.60	257.94
706.94	257.71
707.27	257.40
707.61	257.10
707.94	256.79
708.27	256.38
708.61	256.04
708.94	255.74
709.28	255.46
709.61	255.18
709.94	254.93
710.28	254.69
710.61	254.46
710.95	254.10
711.28	253.92
711.61	253.67
711.95	253.45
712.28	253.19
712.61	252.91
712.95	252.75
713.28	252.56
713.61	252.28
713.95	251.99
714.28	251.77
714.61	251.53
714.95	251.29
715.28	251.06
715.61	250.84
715.95	250.64
716.28	250.42
716.61	250.24
716.95	250.00
717.28	249.77
717.61	249.54
717.94	249.33
718.28	249.03
718.61	248.80
718.94	248.57
719.27	248.36
719.61	248.18
719.94	247.93
720.27	247.65
720.60	247.45
720.94	247.25
721.27	247.06
721.60	246.88
721.93	246.68
722.27	246.53
722.60	246.35
722.93	246.14
723.26	245.94
723.59	245.72
723.93	245.54
724.26	245.36
724.59	245.17
724.92	245.00
725.25	244.86
725.59	244.70
725.92	244.55
726.25	244.38
726.58	244.21
726.91	244.03
727.24	243.88
727.57	243.72
727.91	243.54
728.24	243.40
728.57	243.22
728.90	243.08
729.23	242.88
729.56	242.77
729.89	242.61
730.22	242.44
730.55	242.29
730.89	242.13
731.22	241.97
731.55	241.82
731.88	241.67
732.21	241.50
732.54	241.35
732.87	241.20
733.20	241.06
733.53	240.92
733.86	240.78
734.19	240.62
734.52	240.51
734.85	240.46
735.18	240.29
735.51	240.19
735.84	240.06
736.17	239.96
736.50	239.77
736.83	239.79
737.16	239.67
737.49	239.55
737.82	239.42
738.15	239.32
738.48	239.19
738.81	239.06
739.14	238.93
739.47	238.80
739.80	238.67
740.13	238.56
740.46	238.42
740.79	238.28
741.12	238.16
741.45	238.02
741.78	237.83
742.11	237.74
742.44	237.59
742.77	237.49
743.10	237.35
743.43	237.23
743.75	236.99
744.08	237.07
744.41	236.95
744.74	236.84
745.07	236.71
745.40	236.62
745.73	236.58
746.06	236.48
746.39	236.40
746.71	236.29
747.04	236.18
747.37	236.08
747.70	236.01
748.03	235.93
748.36	235.86
748.68	235.76
749.01	235.63
749.34	235.55
749.67	235.46
750.00	235.39
750.33	235.39
750.65	235.31
750.98	235.03
751.31	234.95
751.64	234.87
751.97	234.85
752.29	234.75
752.62	234.61
752.95	234.51
753.28	234.41
753.60	234.33
753.93	234.27
754.26	234.20
754.59	234.07
754.91	233.97
755.24	233.88
755.57	233.85
755.90	233.77
756.22	233.67
756.55	233.57
756.88	233.46
757.20	233.30
757.53	233.19
757.86	233.11
758.19	233.04
758.51	232.95
758.84	232.82
759.17	232.73
759.49	232.66
759.82	232.65
760.15	232.59
760.47	232.52
760.80	232.41
761.13	232.36
761.45	232.30
761.78	232.24
762.11	232.18
762.43	232.05
762.76	231.99
763.08	231.94
763.41	231.89
763.74	231.83
764.06	231.78
764.39	231.73
764.71	231.67
765.04	231.60
765.37	231.53
765.69	231.48
766.02	231.43
766.34	231.37
766.67	231.27
767.00	231.24
767.32	231.25
767.65	231.28
767.97	231.22
768.30	231.17
768.62	231.12
768.95	231.06
769.27	231.00
769.60	230.97
769.92	230.90
770.25	230.84
770.57	230.77
770.90	230.72
771.22	230.66
771.55	230.62
771.87	230.58
772.20	230.54
772.52	230.60
772.85	230.71
773.17	230.67
773.50	230.62
773.82	230.56
774.15	230.46
774.47	230.34
774.80	230.28
775.12	230.25
775.45	230.21
775.77	230.18
776.09	230.15
776.42	230.12
776.74	230.13
777.07	230.09
777.39	230.07
777.72	230.02
778.04	230.01
778.36	229.97
778.69	229.93
779.01	229.91
779.33	229.77
779.66	229.59
779.98	229.55
780.31	229.53
780.63	229.56
780.95	229.55
781.28	229.52
781.60	229.49
781.92	229.46
782.25	229.43
782.57	229.40
782.89	229.37
783.22	229.33
783.54	229.27
783.86	229.26
784.19	229.23
784.51	229.24
784.83	229.20
785.16	229.17
785.48	229.15
785.80	229.12
786.12	229.11
786.45	229.08
786.77	229.07
787.09	229.03
787.42	228.96
787.74	228.94
788.06	228.93
788.38	228.90
788.71	228.87
789.03	228.85
789.35	228.85
789.67	228.81
789.99	228.80
790.32	228.76
790.64	228.75
790.96	228.85
791.28	228.78
791.61	228.75
791.93	228.74
792.25	228.71
792.57	228.78
792.89	228.74
793.21	228.73
793.54	228.70
793.86	228.67
794.18	228.66
794.50	228.62
794.82	228.60
795.14	228.60
795.47	228.60
795.79	228.58
796.11	228.54
796.43	228.52
796.75	228.50
797.07	228.49
797.39	228.47
797.71	228.34
798.04	228.34
798.36	228.33
798.68	228.31
799.00	228.31
799.32	228.23
799.64	228.23
799.96	228.21
800.28	228.22
800.60	228.20
800.92	228.19
801.24	228.17
801.56	228.16
801.89	228.14
802.21	228.12
802.53	228.09
802.85	228.10
803.17	228.15
803.49	228.11
803.81	228.08
804.13	228.06
804.45	228.03
804.77	228.03
805.09	228.02
805.41	227.99
805.73	227.95
806.05	227.91
806.37	227.88
806.69	227.86
807.01	227.83
807.33	227.83
807.65	227.77
807.97	227.82
808.28	227.79
808.60	227.78
808.92	227.74
809.24	227.82
809.56	227.78
809.88	227.73
810.20	227.72
810.52	227.74
810.84	227.71
811.16	227.69
811.48	227.67
811.80	227.70
812.12	227.69
812.43	227.70
812.75	227.70
813.07	227.68
813.39	227.68
813.71	227.66
814.03	227.64
814.35	227.64
814.67	227.57
814.98	227.55
815.30	227.54
815.62	227.51
815.94	227.42
816.26	227.42
816.58	227.39
816.89	227.39
817.21	227.35
817.53	227.35
817.85	227.35
818.17	227.34
818.48	227.28
818.80	227.29
819.12	227.26
819.44	227.23
819.76	227.22
820.07	227.20
820.39	227.19
820.71	227.20
821.03	227.19
821.34	227.17
821.66	227.18
821.98	227.19
822.30	227.18
822.61	227.25
822.93	227.23
823.25	227.22
823.57	227.20
823.88	227.20
824.20	227.20
824.52	227.21
824.83	227.20
825.15	227.18
825.47	227.16
825.79	227.17
826.10	227.15
826.42	227.14
826.74	227.14
827.05	227.14
827.37	227.13
827.69	227.12
828.00	227.12
828.32	227.11
828.64	227.08
828.95	227.15
829.27	227.10
829.58	227.10
829.90	227.11
830.22	227.11
830.53	227.09
830.85	227.07
831.17	227.04
831.48	227.03
831.80	227.03
832.11	227.02
832.43	227.00
832.75	227.00
833.06	227.07
833.38	227.03
833.69	227.02
834.01	227.02
834.32	227.01
834.64	226.99
834.96	226.98
835.27	226.98
835.59	226.93
835.90	226.91
836.22	226.90
836.53	226.87
836.85	226.85
837.16	226.98
837.48	226.97
837.79	227.01
838.11	227.01
838.42	227.01
838.74	227.02
839.05	227.01
839.37	227.00
839.68	226.91
840.00	226.91
840.31	226.93
840.63	226.92
840.94	226.90
841.26	226.89
841.57	226.89
841.88	226.89
842.20	226.87
842.51	226.85
842.83	226.85
843.14	226.96
843.46	226.95
843.77	226.88
844.08	226.87
844.40	226.83
844.71	226.81
845.03	226.79
845.34	226.78
845.65	226.78
845.97	226.78
846.28	226.78
846.60	226.79
846.91	226.76
847.22	226.76
847.54	226.78
847.85	226.79
848.16	226.77
848.48	226.75
848.79	226.79
849.10	226.81
849.42	226.81
849.73	226.69
850.04	226.69
850.36	226.64
850.67	226.66
850.98	226.66
851.30	226.67
851.61	226.66
851.92	226.66
852.23	226.70
852.55	226.70
852.86	226.71
853.17	226.71
853.49	226.74
853.80	226.76
854.11	226.76
854.42	226.77
854.74	226.76
855.05	226.76
855.36	226.70
855.67	226.70
855.99	226.70
856.30	226.85
856.61	226.84
856.92	226.85
857.23	226.84
857.55	226.83
857.86	226.82
858.17	226.84
858.48	226.82
858.79	226.79
859.11	226.79
859.42	226.78
859.73	226.76
860.04	226.75
860.35	226.72
860.66	226.68
860.98	226.67
861.29	226.69
861.60	226.68
861.91	226.71
862.22	226.69
862.53	226.67
862.84	226.52
863.16	226.55
863.47	226.52
863.78	226.50
864.09	226.52
864.40	226.52
864.71	226.52
865.02	226.54
865.33	226.52
865.64	226.50
865.95	226.50
866.27	226.58
866.58	226.57
866.89	226.58
867.20	226.58
867.51	226.56
867.82	226.55
868.13	226.58
868.44	226.56
868.75	226.58
869.06	226.58
869.37	226.59
869.68	226.56
869.99	226.58
870.30	226.59
870.61	226.60
870.92	226.58
871.23	226.57
871.54	226.58
871.85	226.61
872.16	226.62
872.47	226.61
872.78	226.54
873.09	226.55
873.40	226.54
873.71	226.55
874.02	226.55
874.33	226.54
874.64	226.51
874.95	226.53
875.26	226.51
875.56	226.50
875.87	226.49
876.18	226.49
876.49	226.61
876.80	226.60
877.11	226.57
877.42	226.58
877.73	226.58
878.04	226.56
878.35	226.56
878.66	226.56
878.96	226.56
879.27	226.55
879.58	226.55
879.89	226.54
880.20	226.58
880.51	226.57
880.82	226.57
881.12	226.58
881.43	226.55
881.74	226.53
882.05	226.53
882.36	226.54
882.67	226.54
882.97	226.41
883.28	226.39
883.59	226.39
883.90	226.41
884.21	226.42
884.51	226.41
884.82	226.39
885.13	226.39
885.44	226.39
885.74	226.38
886.05	226.37
886.36	226.38
886.67	226.32
886.98	226.39
887.28	226.40
887.59	226.40
887.90	226.40
888.20	226.40
888.51	226.42
888.82	226.40
889.13	226.41
889.43	226.52
889.74	226.51
890.05	226.51
890.35	226.49
890.66	226.47
890.97	226.45
891.28	226.44
891.58	226.44
891.89	226.44
892.20	226.43
892.50	226.42
892.81	226.41
893.12	226.41
893.42	226.34
893.73	226.34
894.04	226.34
894.34	226.35
894.65	226.35
894.95	226.33
895.26	226.34
895.57	226.39
895.87	226.27
896.18	226.29
896.48	226.29
896.79	226.29
897.10	226.30
897.40	226.31
897.71	226.33
898.01	226.31
898.32	226.33
898.63	226.33
898.93	226.34
899.24	226.35
899.54	226.34
899.85	226.33
900.15	226.32
900.46	226.32
900.76	226.33
901.07	226.33
901.38	226.32
901.68	226.34
901.99	226.27
902.29	226.28
902.60	226.27
902.90	226.26
903.21	226.26
903.51	226.25
903.82	226.27
904.12	226.27
904.43	226.28
904.73	226.27
905.03	226.27
905.34	226.39
905.64	226.38
905.95	226.38
906.25	226.38
906.56	226.38
906.86	226.38
907.17	226.36
907.47	226.37
907.77	226.36
908.08	226.34
908.38	226.34
908.69	226.35
908.99	226.37
909.30	226.38
909.60	226.38
909.90	226.38
910.21	226.35
910.51	226.32
910.81	226.33
911.12	226.34
911.42	226.34
911.73	226.20
912.03	226.21
912.33	226.24
912.64	226.23
912.94	226.22
913.24	226.20
913.55	226.19
913.85	226.18
914.15	226.21
914.46	226.23
914.76	226.21
915.06	226.21
915.37	226.18
915.67	226.18
915.97	226.18
916.27	226.15
916.58	226.16
916.88	226.15
917.18	226.14
917.49	226.22
917.79	226.22
918.09	226.24
918.39	226.27
918.70	226.26
919.00	226.27
919.30	226.32
919.60	226.32
919.91	226.31
920.21	226.31
920.51	226.29
920.81	226.27
921.12	226.30
921.42	226.29
921.72	226.30
922.02	226.30
922.32	226.32
922.63	226.33
922.93	226.40
923.23	226.41
923.53	226.40
923.83	226.31
924.13	226.32
924.44	226.32
924.74	226.34
925.04	226.37
925.34	226.37
925.64	226.31
925.94	226.32
926.24	226.39
926.55	226.37
926.85	226.39
927.15	226.39
927.45	226.39
927.75	226.38
928.05	226.38
928.35	226.37
928.65	226.39
928.95	226.40
929.26	226.34
929.56	226.36
929.86	226.38
930.16	226.37
930.46	226.35
930.76	226.35
931.06	226.29
931.36	226.25
931.66	226.27
931.96	226.28
932.26	226.29
932.56	226.24
932.86	226.24
933.16	226.24
933.46	226.23
933.76	226.21
934.06	226.23
934.36	226.27
934.66	226.27
934.96	226.25
935.26	226.25
935.56	226.27
935.86	226.23
936.16	226.22
936.46	226.21
936.76	226.20
937.06	226.19
937.36	226.20
937.66	226.20
937.96	226.19
938.26	226.16
938.56	226.15
938.86	226.16
939.16	226.18
939.46	226.19
939.76	226.21
940.06	226.20
940.35	226.18
940.65	226.12
940.95	226.13
941.25	226.09
941.55	226.08
941.85	226.06
942.15	226.09
942.45	226.13
942.75	226.12
943.04	226.13
943.34	226.15
943.64	226.14
943.94	226.12
944.24	226.12
944.54	226.13
944.84	226.12
945.13	226.10
945.43	226.08
945.73	226.07
946.03	226.06
946.33	226.05
946.62	226.04
946.92	226.04
947.22	226.05
947.52	226.06
947.82	226.07
948.11	226.06
948.41	226.03
948.71	226.00
949.01	226.01
949.31	226.00
949.60	225.98
949.90	226.01
950.20	226.00
950.50	226.00
950.79	225.99
951.09	226.01
951.39	226.01
951.69	226.00
951.98	226.02
952.28	226.03
952.58	226.03
952.87	226.03
953.17	226.05
953.47	226.03
953.76	226.03
954.06	226.00
954.36	225.99
954.66	225.99
954.95	226.02
955.25	226.03
955.55	226.04
955.84	226.02
956.14	226.03
956.44	226.04
956.73	226.02
957.03	226.03
957.32	226.03
957.62	226.02
957.92	226.05
958.21	226.03
958.51	226.17
958.81	226.18
959.10	226.20
959.40	226.22
959.69	226.23
959.99	226.25
960.29	226.26
960.58	226.25
960.88	226.30
961.17	226.28
961.47	226.29
961.76	226.28
962.06	226.30
962.36	226.29
962.65	226.29
962.95	226.30
963.24	226.29
963.54	226.29
963.83	226.30
964.13	226.29
964.42	226.28
964.72	226.18
965.01	226.17
965.31	226.16
965.60	226.13
965.90	226.21
966.19	226.18
966.49	226.19
966.78	226.18
967.08	226.17
967.37	226.17
967.67	226.15
967.96	226.17
968.26	226.16
968.55	226.18
968.85	226.17
969.14	226.17
969.43	226.17
969.73	226.16
970.02	226.16
970.32	226.15
970.61	226.13
970.91	226.09
971.20	226.07
971.49	226.06
971.79	226.08
972.08	225.99
972.38	226.01
972.67	226.00
972.96	226.02
973.26	225.99
973.55	226.03
973.85	226.02
974.14	226.01
974.43	226.02
974.73	225.99
975.02	225.98
975.31	225.99
975.61	225.99
975.90	225.97
976.19	225.97
976.49	225.98
976.78	225.99
977.07	225.99
977.37	226.00
977.66	226.01
977.95	225.99
978.24	226.00
978.54	226.03
978.83	226.02
979.12	226.01
979.42	226.01
979.71	225.99
980.00	225.98
980.29	225.99
980.59	225.97
980.88	226.00
981.17	226.00
981.46	226.00
981.76	226.00
982.05	226.04
982.34	226.05
982.63	226.05
982.93	226.05
983.22	226.08
983.51	226.08
983.80	226.10
984.09	226.12
984.39	226.11
984.68	226.09
984.97	226.10
985.26	226.09
985.55	226.10
985.85	226.08
986.14	226.10
986.43	226.11
986.72	226.11
987.01	226.07
987.30	226.07
987.59	226.07
987.89	226.07
988.18	226.03
988.47	226.02
988.76	226.01
989.05	226.01
989.34	225.98
989.63	226.02
989.92	226.00
990.22	225.98
990.51	225.98
990.80	225.97
991.09	225.98
991.38	226.00
991.67	225.98
991.96	225.97
992.25	225.98
992.54	225.95
992.83	225.96
993.12	225.95
993.41	225.97
993.70	226.02
993.99	226.04
994.28	226.06
994.58	226.08
994.87	226.06
995.16	226.06
995.45	226.06
995.74	226.01
996.03	226.03
996.32	226.05
996.61	226.08
996.90	226.08
997.19	226.07
997.48	226.07
997.77	226.06
998.06	226.07
998.34	226.05
998.63	226.05
998.92	226.06
999.21	226.08
999.50	226.08
999.79	226.03
1000.08	226.03
1000.37	226.03
1000.66	226.01
1000.95	226.04
1001.24	226.05
1001.53	226.06
1001.82	226.06
1002.11	226.03
1002.40	226.04
1002.68	226.06
1002.97	226.15
1003.26	226.13
1003.55	226.11
1003.84	226.12
1004.13	226.16
1004.42	226.16
1004.71	226.16
1004.99	226.15
1005.28	226.18
1005.57	226.17
1005.86	226.16
1006.15	226.15
1006.44	226.13
1006.72	226.14
1007.01	226.12
1007.30	226.12
1007.59	226.11
1007.88	226.11
1008.17	226.11
1008.45	226.09
1008.74	226.04
1009.03	225.98
1009.32	225.99
1009.60	225.99
1009.89	225.97
1010.18	225.92
1010.47	225.92
1010.76	225.92
1011.04	225.91
1011.33	225.91
1011.62	225.92
1011.91	225.93
1012.19	225.94
1012.48	225.94
1012.77	225.94
1013.05	225.98
1013.34	225.98
1013.63	225.97
1013.92	225.98
1014.20	225.97
1014.49	225.98
1014.78	225.99
1015.06	225.95
1015.35	225.94
1015.64	225.96
1015.92	225.98
1016.21	225.99
1016.50	225.99
1016.78	226.01
1017.07	226.01
1017.36	225.99
1017.64	225.97
1017.93	225.98
1018.22	225.97
1018.50	225.97
1018.79	225.96
1019.08	225.92
1019.36	225.93
1019.65	225.92
1019.93	225.95
1020.22	225.97
1020.51	226.04
1020.79	226.02
1021.08	225.77
1021.36	225.80
1021.65	225.94
1021.94	225.94
1022.22	226.05
1022.51	225.75
1022.79	226.53
1023.08	226.18
1023.36	227.47
1023.65	225.67
>>>>>End Processed Spectral Data<<<<<
