SpectraSuite Data File
++++++++++++++++++++++++++++++++++++
Date: Sat Oct 03 05:26:36 EDT 2015
User: lab3
Dark Spectrum Present: No
Reference Spectrum Present: No
Number of Sampled Component Spectra: 1
Spectrometers: USB2E7196
Integration Time (usec): 46000 (USB2E7196)
Spectra Averaged: 12000 (USB2E7196)
Boxcar Smoothing: 10 (USB2E7196)
Correct for Electrical Dark: No (USB2E7196)
Strobe/Lamp Enabled: No (USB2E7196)
Correct for Detector Non-linearity: No (USB2E7196)
Correct for Stray Light: No (USB2E7196)
Number of Pixels in Processed Spectrum: 2048
>>>>>Begin Processed Spectral Data<<<<<
339.09	0.00
339.48	213.65
339.86	215.14
340.24	216.46
340.63	217.94
341.01	221.23
341.39	220.64
341.78	222.07
342.16	223.27
342.54	223.63
342.93	212.14
343.31	222.86
343.69	223.40
344.07	223.86
344.46	224.30
344.84	224.68
345.22	224.91
345.60	225.17
345.99	225.36
346.37	225.50
346.75	225.61
347.13	225.69
347.52	225.76
347.90	225.85
348.28	225.89
348.66	225.95
349.05	225.95
349.43	226.00
349.81	226.06
350.19	226.12
350.57	226.18
350.96	226.26
351.34	226.36
351.72	226.45
352.10	226.56
352.48	226.63
352.87	226.68
353.25	226.75
353.63	226.81
354.01	226.87
354.39	226.94
354.77	227.02
355.15	227.12
355.54	227.17
355.92	227.20
356.30	227.27
356.68	227.42
357.06	227.50
357.44	227.54
357.82	227.60
358.20	227.72
358.58	227.78
358.97	227.85
359.35	227.93
359.73	228.01
360.11	228.06
360.49	228.12
360.87	228.17
361.25	228.23
361.63	228.32
362.01	228.38
362.39	228.40
362.77	228.45
363.15	228.47
363.53	228.51
363.91	228.54
364.29	228.57
364.67	228.46
365.05	228.48
365.43	228.52
365.81	228.55
366.19	228.56
366.57	228.62
366.95	228.62
367.33	228.58
367.71	228.58
368.09	228.60
368.47	228.59
368.85	228.58
369.23	228.59
369.61	228.52
369.99	228.54
370.37	228.54
370.75	228.62
371.13	228.58
371.51	228.53
371.89	228.52
372.27	228.49
372.65	228.47
373.03	228.44
373.41	228.39
373.78	228.34
374.16	228.24
374.54	228.15
374.92	228.10
375.30	228.06
375.68	227.99
376.06	227.95
376.44	227.90
376.82	227.86
377.19	227.81
377.57	227.76
377.95	227.67
378.33	227.61
378.71	227.44
379.09	227.40
379.47	227.37
379.84	227.31
380.22	227.24
380.60	227.17
380.98	227.12
381.36	227.07
381.73	227.01
382.11	226.99
382.49	226.95
382.87	226.89
383.25	226.84
383.62	226.95
384.00	226.88
384.38	226.84
384.76	226.82
385.13	226.82
385.51	226.79
385.89	226.74
386.27	226.70
386.64	226.69
387.02	226.64
387.40	226.59
387.78	226.57
388.15	226.55
388.53	226.52
388.91	226.49
389.29	226.45
389.66	226.45
390.04	226.41
390.42	226.41
390.79	226.40
391.17	226.38
391.55	226.22
391.92	226.21
392.30	226.22
392.68	226.18
393.05	226.15
393.43	226.15
393.81	226.16
394.18	226.14
394.56	226.14
394.94	226.17
395.31	226.17
395.69	226.22
396.06	226.25
396.44	226.28
396.82	226.29
397.19	226.38
397.57	226.39
397.95	226.44
398.32	226.44
398.70	226.48
399.07	226.55
399.45	226.59
399.82	226.64
400.20	226.67
400.58	226.73
400.95	226.74
401.33	226.83
401.70	226.99
402.08	227.09
402.45	227.18
402.83	227.29
403.20	227.41
403.58	227.49
403.95	227.64
404.33	227.79
404.71	227.94
405.08	228.15
405.46	228.31
405.83	228.50
406.21	228.69
406.58	228.92
406.96	229.13
407.33	229.39
407.70	229.67
408.08	230.06
408.45	230.39
408.83	230.76
409.20	231.09
409.58	231.39
409.95	231.80
410.33	232.24
410.70	232.66
411.08	233.15
411.45	233.68
411.82	234.20
412.20	234.80
412.57	235.52
412.95	236.09
413.32	236.83
413.69	237.58
414.07	238.38
414.44	239.25
414.82	240.14
415.19	241.18
415.56	242.24
415.94	243.32
416.31	244.55
416.68	245.78
417.06	247.20
417.43	248.54
417.81	250.07
418.18	251.63
418.55	253.33
418.93	255.11
419.30	256.96
419.67	258.93
420.04	260.94
420.42	263.04
420.79	265.48
421.16	267.94
421.54	270.43
421.91	273.04
422.28	275.75
422.66	278.66
423.03	281.45
423.40	284.37
423.77	287.50
424.15	290.71
424.52	294.05
424.89	297.66
425.26	301.25
425.64	304.59
426.01	308.35
426.38	312.19
426.75	316.15
427.13	320.21
427.50	324.46
427.87	328.88
428.24	333.34
428.61	337.63
428.99	342.26
429.36	347.35
429.73	352.21
430.10	357.07
430.47	362.05
430.85	367.16
431.22	372.66
431.59	378.30
431.96	383.82
432.33	389.94
432.70	395.78
433.08	402.66
433.45	409.17
433.82	415.59
434.19	422.75
434.56	429.82
434.93	436.64
435.30	443.38
435.68	451.00
436.05	458.46
436.42	465.89
436.79	472.68
437.16	480.00
437.53	487.84
437.90	495.69
438.27	503.37
438.64	511.68
439.01	519.20
439.38	526.07
439.75	532.69
440.13	540.15
440.50	547.25
440.87	552.87
441.24	559.03
441.61	565.75
441.98	570.63
442.35	576.43
442.72	582.33
443.09	587.96
443.46	591.51
443.83	594.09
444.20	596.21
444.57	599.44
444.94	601.22
445.31	603.07
445.68	604.63
446.05	605.75
446.42	605.28
446.79	604.61
447.16	604.01
447.53	603.45
447.90	600.94
448.27	598.53
448.64	594.95
449.01	592.43
449.37	587.51
449.74	583.05
450.11	577.34
450.48	571.12
450.85	564.89
451.22	559.56
451.59	554.37
451.96	549.67
452.33	542.86
452.70	536.84
453.07	529.49
453.43	522.16
453.80	515.06
454.17	508.26
454.54	502.01
454.91	494.95
455.28	488.35
455.65	482.14
456.02	475.58
456.38	470.30
456.75	463.51
457.12	458.04
457.49	452.53
457.86	447.34
458.23	442.81
458.59	437.79
458.96	432.63
459.33	428.11
459.70	423.49
460.07	420.01
460.43	415.89
460.80	412.05
461.17	408.72
461.54	405.10
461.91	401.72
462.27	398.29
462.64	395.53
463.01	392.33
463.38	389.11
463.74	386.20
464.11	383.64
464.48	381.35
464.85	378.84
465.21	376.96
465.58	374.84
465.95	372.40
466.32	370.46
466.68	368.56
467.05	366.65
467.42	364.78
467.78	362.76
468.15	360.90
468.52	359.55
468.88	357.71
469.25	356.05
469.62	354.73
469.98	353.28
470.35	351.99
470.72	350.83
471.08	349.63
471.45	348.64
471.82	347.52
472.18	346.33
472.55	345.57
472.92	344.60
473.28	343.84
473.65	343.02
474.02	342.25
474.38	341.59
474.75	341.20
475.11	340.66
475.48	340.40
475.85	340.13
476.21	339.97
476.58	339.86
476.94	339.98
477.31	340.03
477.67	340.10
478.04	340.29
478.41	340.57
478.77	340.98
479.14	341.24
479.50	341.74
479.87	342.39
480.23	343.04
480.60	343.68
480.96	344.34
481.33	345.31
481.69	346.28
482.06	347.24
482.42	348.12
482.79	349.23
483.15	350.50
483.52	351.95
483.88	353.35
484.25	354.84
484.61	356.40
484.98	358.08
485.34	359.98
485.71	361.96
486.07	364.07
486.44	366.19
486.80	368.54
487.17	371.00
487.53	373.68
487.90	376.49
488.26	379.55
488.62	382.78
488.99	386.00
489.35	389.40
489.72	393.08
490.08	396.96
490.44	400.96
490.81	405.12
491.17	409.39
491.54	413.98
491.90	418.72
492.26	423.79
492.63	429.09
492.99	434.63
493.36	440.37
493.72	446.40
494.08	452.58
494.45	459.15
494.81	465.96
495.17	472.96
495.54	480.36
495.90	488.06
496.26	495.93
496.63	504.05
496.99	512.48
497.35	521.31
497.72	530.44
498.08	539.76
498.44	549.40
498.80	559.61
499.17	570.08
499.53	580.88
499.89	592.05
500.26	603.45
500.62	615.15
500.98	627.47
501.34	640.00
501.71	653.03
502.07	666.24
502.43	679.99
502.79	693.98
503.16	708.42
503.52	723.06
503.88	738.13
504.24	753.66
504.60	769.38
504.97	785.60
505.33	802.26
505.69	819.81
506.05	837.70
506.41	855.53
506.78	873.55
507.14	892.07
507.50	911.05
507.86	930.36
508.22	949.92
508.59	969.31
508.95	989.49
509.31	1010.41
509.67	1032.05
510.03	1053.69
510.39	1075.38
510.75	1097.26
511.12	1119.43
511.48	1141.78
511.84	1164.17
512.20	1186.96
512.56	1210.61
512.92	1234.28
513.28	1257.60
513.64	1281.17
514.00	1305.19
514.37	1329.52
514.73	1353.85
515.09	1378.05
515.45	1402.58
515.81	1427.30
516.17	1452.16
516.53	1476.57
516.89	1500.86
517.25	1525.31
517.61	1549.64
517.97	1574.47
518.33	1598.79
518.69	1623.04
519.05	1647.74
519.41	1672.72
519.77	1698.00
520.13	1722.50
520.49	1746.90
520.85	1771.63
521.21	1795.97
521.57	1820.68
521.93	1844.89
522.29	1869.63
522.65	1893.84
523.01	1918.01
523.37	1941.78
523.73	1966.25
524.09	1990.45
524.45	2014.45
524.81	2038.07
525.17	2061.55
525.53	2084.47
525.89	2107.81
526.25	2131.15
526.61	2153.52
526.97	2176.04
527.33	2198.41
527.68	2220.57
528.04	2241.93
528.40	2262.40
528.76	2283.00
529.12	2303.19
529.48	2323.13
529.84	2341.20
530.20	2359.88
530.56	2377.96
530.91	2396.18
531.27	2414.09
531.63	2431.11
531.99	2447.64
532.35	2463.56
532.71	2479.63
533.07	2496.36
533.42	2511.28
533.78	2527.17
534.14	2543.21
534.50	2558.37
534.86	2573.28
535.21	2586.29
535.57	2599.80
535.93	2613.06
536.29	2625.28
536.65	2637.23
537.00	2648.45
537.36	2660.64
537.72	2671.46
538.08	2681.76
538.44	2691.37
538.79	2700.58
539.15	2709.02
539.51	2717.16
539.87	2724.64
540.22	2730.04
540.58	2735.48
540.94	2742.09
541.29	2747.20
541.65	2750.62
542.01	2753.16
542.37	2755.07
542.72	2758.32
543.08	2759.88
543.44	2762.05
543.79	2763.11
544.15	2763.36
544.51	2764.01
544.87	2763.52
545.22	2762.32
545.58	2760.45
545.94	2758.58
546.29	2755.40
546.65	2752.18
547.01	2748.79
547.36	2746.16
547.72	2743.75
548.07	2739.59
548.43	2734.03
548.79	2727.44
549.14	2722.07
549.50	2717.08
549.86	2711.17
550.21	2704.10
550.57	2697.98
550.92	2689.59
551.28	2681.75
551.64	2674.26
551.99	2666.29
552.35	2657.73
552.70	2649.34
553.06	2641.33
553.41	2632.69
553.77	2623.80
554.13	2614.88
554.48	2605.19
554.84	2594.21
555.19	2583.66
555.55	2573.14
555.90	2562.68
556.26	2552.78
556.61	2541.84
556.97	2529.26
557.32	2517.20
557.68	2505.06
558.03	2492.61
558.39	2481.37
558.74	2470.45
559.10	2457.74
559.45	2445.28
559.81	2433.45
560.16	2421.02
560.52	2408.79
560.87	2396.92
561.23	2384.26
561.58	2371.64
561.94	2358.69
562.29	2345.22
562.64	2332.47
563.00	2319.41
563.35	2306.75
563.71	2293.95
564.06	2280.99
564.42	2268.77
564.77	2255.93
565.12	2242.99
565.48	2230.08
565.83	2217.10
566.19	2204.23
566.54	2191.41
566.89	2177.41
567.25	2163.51
567.60	2150.99
567.96	2137.55
568.31	2122.78
568.66	2108.70
569.02	2095.86
569.37	2082.92
569.72	2070.47
570.08	2056.75
570.43	2042.72
570.78	2028.54
571.14	2013.61
571.49	1999.31
571.84	1985.54
572.20	1970.58
572.55	1955.87
572.90	1941.09
573.26	1926.28
573.61	1911.01
573.96	1896.16
574.31	1881.53
574.67	1867.02
575.02	1851.43
575.37	1835.92
575.72	1821.24
576.08	1806.91
576.43	1791.43
576.78	1776.36
577.13	1761.56
577.49	1747.11
577.84	1733.29
578.19	1718.51
578.54	1703.93
578.90	1688.86
579.25	1673.67
579.60	1660.04
579.95	1646.34
580.30	1632.46
580.66	1618.33
581.01	1604.07
581.36	1589.77
581.71	1576.51
582.06	1563.16
582.42	1550.01
582.77	1536.95
583.12	1523.85
583.47	1510.58
583.82	1497.45
584.17	1484.00
584.53	1470.20
584.88	1456.78
585.23	1442.91
585.58	1429.84
585.93	1416.98
586.28	1404.90
586.63	1392.79
586.98	1380.24
587.34	1367.73
587.69	1354.88
588.04	1342.40
588.39	1330.30
588.74	1318.37
589.09	1306.19
589.44	1293.58
589.79	1281.60
590.14	1269.74
590.49	1257.81
590.84	1246.07
591.19	1234.69
591.54	1223.11
591.89	1211.69
592.25	1200.43
592.60	1188.83
592.95	1177.65
593.30	1166.67
593.65	1155.37
594.00	1144.23
594.35	1133.61
594.70	1122.56
595.05	1112.44
595.40	1102.21
595.75	1091.84
596.10	1081.97
596.45	1071.84
596.80	1062.05
597.15	1051.99
597.50	1042.09
597.85	1032.63
598.19	1022.96
598.54	1013.34
598.89	1004.18
599.24	995.36
599.59	986.31
599.94	978.22
600.29	969.89
600.64	961.31
600.99	952.36
601.34	943.75
601.69	934.83
602.04	926.59
602.39	918.15
602.74	909.78
603.08	901.37
603.43	892.90
603.78	884.63
604.13	876.52
604.48	868.44
604.83	860.51
605.18	852.46
605.53	844.60
605.87	836.55
606.22	828.82
606.57	821.01
606.92	813.16
607.27	805.20
607.62	797.56
607.96	790.34
608.31	783.56
608.66	776.57
609.01	769.86
609.36	763.23
609.70	756.42
610.05	749.56
610.40	742.99
610.75	736.40
611.10	730.15
611.44	723.72
611.79	717.40
612.14	711.02
612.49	704.73
612.83	698.73
613.18	692.88
613.53	686.90
613.88	680.96
614.22	675.42
614.57	669.83
614.92	664.10
615.27	658.47
615.61	652.87
615.96	647.35
616.31	641.83
616.65	636.38
617.00	631.13
617.35	626.00
617.70	620.90
618.04	615.87
618.39	610.77
618.74	605.92
619.08	601.10
619.43	596.40
619.78	591.72
620.12	586.98
620.47	582.42
620.82	577.98
621.16	573.57
621.51	569.03
621.85	564.54
622.20	560.21
622.55	555.90
622.89	551.70
623.24	547.49
623.59	543.32
623.93	539.30
624.28	535.37
624.62	531.54
624.97	527.75
625.32	523.93
625.66	520.05
626.01	516.16
626.35	512.33
626.70	508.55
627.04	504.94
627.39	501.28
627.73	497.79
628.08	494.37
628.43	490.95
628.77	487.61
629.12	484.40
629.46	481.21
629.81	477.94
630.15	474.66
630.50	471.47
630.84	468.34
631.19	465.28
631.53	462.33
631.88	459.33
632.22	456.36
632.57	453.67
632.91	451.02
633.26	448.45
633.60	445.90
633.95	443.41
634.29	440.85
634.64	438.35
634.98	435.67
635.32	433.12
635.67	430.77
636.01	428.36
636.36	425.99
636.70	423.74
637.05	421.50
637.39	419.29
637.73	417.11
638.08	415.06
638.42	412.96
638.77	410.73
639.11	408.44
639.45	406.24
639.80	403.98
640.14	401.83
640.49	399.67
640.83	397.49
641.17	395.39
641.52	393.34
641.86	391.31
642.20	389.50
642.55	387.52
642.89	385.57
643.23	383.71
643.58	382.01
643.92	380.18
644.26	378.43
644.61	376.72
644.95	374.98
645.29	373.16
645.64	371.37
645.98	369.67
646.32	368.10
646.66	366.51
647.01	364.94
647.35	363.40
647.69	361.85
648.04	360.45
648.38	358.96
648.72	357.50
649.06	356.04
649.41	354.59
649.75	353.19
650.09	351.82
650.43	350.43
650.78	349.00
651.12	347.61
651.46	346.27
651.80	344.97
652.14	343.68
652.49	342.46
652.83	341.20
653.17	339.99
653.51	338.81
653.85	337.69
654.20	336.53
654.54	335.30
654.88	334.15
655.22	333.02
655.56	331.88
655.90	330.81
656.25	329.76
656.59	328.70
656.93	327.71
657.27	326.73
657.61	325.69
657.95	324.70
658.29	323.70
658.64	322.77
658.98	321.80
659.32	320.88
659.66	320.00
660.00	319.15
660.34	318.29
660.68	317.40
661.02	316.49
661.36	315.60
661.70	314.76
662.05	313.94
662.39	313.12
662.73	312.39
663.07	311.66
663.41	310.89
663.75	310.11
664.09	309.33
664.43	308.53
664.77	307.80
665.11	307.04
665.45	306.34
665.79	305.65
666.13	304.93
666.47	304.19
666.81	303.43
667.15	302.65
667.49	301.98
667.83	301.37
668.17	300.72
668.51	300.12
668.85	299.55
669.19	299.01
669.53	298.37
669.87	297.72
670.21	297.09
670.55	296.51
670.89	296.00
671.23	295.44
671.57	294.90
671.91	294.40
672.25	293.93
672.58	293.45
672.92	292.89
673.26	292.42
673.60	291.95
673.94	291.49
674.28	291.07
674.62	290.60
674.96	290.09
675.30	289.64
675.64	289.15
675.97	288.65
676.31	288.13
676.65	287.65
676.99	287.25
677.33	286.76
677.67	286.32
678.01	285.80
678.34	285.36
678.68	284.95
679.02	284.48
679.36	284.02
679.70	283.56
680.04	283.14
680.37	282.71
680.71	282.30
681.05	281.90
681.39	281.47
681.73	281.01
682.06	280.58
682.40	280.16
682.74	279.79
683.08	279.47
683.42	279.09
683.75	278.74
684.09	278.30
684.43	277.94
684.77	277.56
685.10	277.24
685.44	276.88
685.78	276.52
686.12	276.18
686.45	275.82
686.79	275.44
687.13	275.10
687.46	274.72
687.80	274.36
688.14	273.96
688.48	273.62
688.81	273.28
689.15	272.97
689.49	272.61
689.82	272.24
690.16	271.81
690.50	271.47
690.83	271.11
691.17	270.76
691.51	270.41
691.84	270.09
692.18	269.72
692.52	269.35
692.85	269.00
693.19	268.69
693.52	268.35
693.86	268.01
694.20	267.68
694.53	267.37
694.87	267.02
695.21	266.68
695.54	266.35
695.88	266.01
696.21	265.65
696.55	265.33
696.88	265.00
697.22	264.69
697.56	264.37
697.89	264.00
698.23	263.69
698.56	263.34
698.90	263.03
699.23	262.69
699.57	262.36
699.90	262.04
700.24	261.69
700.58	261.40
700.91	261.13
701.25	260.94
701.58	260.70
701.92	260.44
702.25	260.16
702.59	259.86
702.92	259.58
703.26	259.29
703.59	258.98
703.93	258.79
704.26	258.51
704.60	258.22
704.93	257.93
705.26	257.64
705.60	257.40
705.93	257.09
706.27	256.85
706.60	256.62
706.94	256.39
707.27	256.09
707.61	255.80
707.94	255.49
708.27	255.09
708.61	254.76
708.94	254.46
709.28	254.19
709.61	253.92
709.94	253.68
710.28	253.44
710.61	253.22
710.95	252.86
711.28	252.69
711.61	252.44
711.95	252.24
712.28	251.98
712.61	251.71
712.95	251.55
713.28	251.38
713.61	251.11
713.95	250.83
714.28	250.61
714.61	250.37
714.95	250.15
715.28	249.92
715.61	249.71
715.95	249.50
716.28	249.29
716.61	249.11
716.95	248.88
717.28	248.66
717.61	248.44
717.94	248.23
718.28	247.93
718.61	247.72
718.94	247.49
719.27	247.29
719.61	247.11
719.94	246.88
720.27	246.59
720.60	246.40
720.94	246.21
721.27	246.02
721.60	245.85
721.93	245.65
722.27	245.51
722.60	245.33
722.93	245.13
723.26	244.94
723.59	244.72
723.93	244.55
724.26	244.37
724.59	244.18
724.92	244.02
725.25	243.89
725.59	243.72
725.92	243.57
726.25	243.41
726.58	243.24
726.91	243.06
727.24	242.92
727.57	242.76
727.91	242.58
728.24	242.45
728.57	242.27
728.90	242.13
729.23	241.93
729.56	241.83
729.89	241.67
730.22	241.51
730.55	241.36
730.89	241.21
731.22	241.05
731.55	240.90
731.88	240.76
732.21	240.58
732.54	240.43
732.87	240.29
733.20	240.16
733.53	240.02
733.86	239.89
734.19	239.73
734.52	239.62
734.85	239.57
735.18	239.41
735.51	239.31
735.84	239.18
736.17	239.09
736.50	238.90
736.83	238.92
737.16	238.80
737.49	238.69
737.82	238.57
738.15	238.47
738.48	238.35
738.81	238.22
739.14	238.09
739.47	237.96
739.80	237.84
740.13	237.73
740.46	237.59
740.79	237.45
741.12	237.34
741.45	237.20
741.78	237.01
742.11	236.93
742.44	236.79
742.77	236.69
743.10	236.55
743.43	236.44
743.75	236.20
744.08	236.29
744.41	236.17
744.74	236.06
745.07	235.92
745.40	235.84
745.73	235.79
746.06	235.69
746.39	235.62
746.71	235.51
747.04	235.40
747.37	235.31
747.70	235.24
748.03	235.16
748.36	235.09
748.68	234.99
749.01	234.87
749.34	234.78
749.67	234.69
750.00	234.62
750.33	234.63
750.65	234.55
750.98	234.27
751.31	234.19
751.64	234.11
751.97	234.10
752.29	234.01
752.62	233.86
752.95	233.77
753.28	233.67
753.60	233.58
753.93	233.53
754.26	233.46
754.59	233.33
754.91	233.23
755.24	233.14
755.57	233.12
755.90	233.03
756.22	232.94
756.55	232.84
756.88	232.74
757.20	232.57
757.53	232.45
757.86	232.38
758.19	232.31
758.51	232.23
758.84	232.09
759.17	232.00
759.49	231.93
759.82	231.93
760.15	231.87
760.47	231.80
760.80	231.69
761.13	231.65
761.45	231.59
761.78	231.53
762.11	231.47
762.43	231.34
762.76	231.28
763.08	231.23
763.41	231.18
763.74	231.13
764.06	231.07
764.39	231.03
764.71	230.97
765.04	230.90
765.37	230.84
765.69	230.79
766.02	230.74
766.34	230.67
766.67	230.57
767.00	230.54
767.32	230.55
767.65	230.58
767.97	230.52
768.30	230.47
768.62	230.42
768.95	230.36
769.27	230.31
769.60	230.28
769.92	230.21
770.25	230.14
770.57	230.07
770.90	230.03
771.22	229.97
771.55	229.92
771.87	229.89
772.20	229.84
772.52	229.90
772.85	230.01
773.17	229.98
773.50	229.93
773.82	229.87
774.15	229.77
774.47	229.65
774.80	229.59
775.12	229.55
775.45	229.51
775.77	229.48
776.09	229.46
776.42	229.42
776.74	229.43
777.07	229.40
777.39	229.37
777.72	229.33
778.04	229.31
778.36	229.27
778.69	229.24
779.01	229.22
779.33	229.08
779.66	228.90
779.98	228.87
780.31	228.85
780.63	228.87
780.95	228.86
781.28	228.83
781.60	228.80
781.92	228.77
782.25	228.75
782.57	228.72
782.89	228.68
783.22	228.64
783.54	228.59
783.86	228.58
784.19	228.55
784.51	228.56
784.83	228.52
785.16	228.49
785.48	228.47
785.80	228.44
786.12	228.43
786.45	228.41
786.77	228.39
787.09	228.36
787.42	228.29
787.74	228.27
788.06	228.26
788.38	228.23
788.71	228.20
789.03	228.18
789.35	228.18
789.67	228.14
789.99	228.13
790.32	228.10
790.64	228.09
790.96	228.19
791.28	228.12
791.61	228.10
791.93	228.09
792.25	228.06
792.57	228.13
792.89	228.09
793.21	228.08
793.54	228.05
793.86	228.02
794.18	228.00
794.50	227.96
794.82	227.94
795.14	227.94
795.47	227.95
795.79	227.93
796.11	227.88
796.43	227.86
796.75	227.84
797.07	227.84
797.39	227.81
797.71	227.68
798.04	227.68
798.36	227.67
798.68	227.65
799.00	227.65
799.32	227.57
799.64	227.57
799.96	227.55
800.28	227.56
800.60	227.54
800.92	227.53
801.24	227.51
801.56	227.51
801.89	227.48
802.21	227.47
802.53	227.44
802.85	227.45
803.17	227.50
803.49	227.46
803.81	227.43
804.13	227.41
804.45	227.38
804.77	227.38
805.09	227.36
805.41	227.34
805.73	227.30
806.05	227.25
806.37	227.23
806.69	227.20
807.01	227.18
807.33	227.17
807.65	227.12
807.97	227.16
808.28	227.13
808.60	227.12
808.92	227.09
809.24	227.15
809.56	227.12
809.88	227.06
810.20	227.06
810.52	227.07
810.84	227.04
811.16	227.02
811.48	227.00
811.80	227.04
812.12	227.02
812.43	227.04
812.75	227.04
813.07	227.02
813.39	227.02
813.71	226.99
814.03	226.97
814.35	226.97
814.67	226.91
814.98	226.89
815.30	226.87
815.62	226.84
815.94	226.75
816.26	226.75
816.58	226.72
816.89	226.72
817.21	226.68
817.53	226.69
817.85	226.69
818.17	226.67
818.48	226.61
818.80	226.63
819.12	226.59
819.44	226.56
819.76	226.54
820.07	226.53
820.39	226.52
820.71	226.52
821.03	226.51
821.34	226.50
821.66	226.51
821.98	226.52
822.30	226.51
822.61	226.58
822.93	226.55
823.25	226.55
823.57	226.52
823.88	226.53
824.20	226.52
824.52	226.54
824.83	226.52
825.15	226.51
825.47	226.49
825.79	226.50
826.10	226.49
826.42	226.48
826.74	226.48
827.05	226.47
827.37	226.47
827.69	226.46
828.00	226.46
828.32	226.45
828.64	226.43
828.95	226.49
829.27	226.45
829.58	226.44
829.90	226.46
830.22	226.47
830.53	226.44
830.85	226.42
831.17	226.39
831.48	226.38
831.80	226.39
832.11	226.37
832.43	226.35
832.75	226.35
833.06	226.42
833.38	226.38
833.69	226.37
834.01	226.37
834.32	226.37
834.64	226.35
834.96	226.34
835.27	226.34
835.59	226.29
835.90	226.26
836.22	226.26
836.53	226.22
836.85	226.20
837.16	226.33
837.48	226.33
837.79	226.37
838.11	226.37
838.42	226.36
838.74	226.37
839.05	226.36
839.37	226.36
839.68	226.27
840.00	226.27
840.31	226.28
840.63	226.27
840.94	226.25
841.26	226.24
841.57	226.23
841.88	226.24
842.20	226.22
842.51	226.19
842.83	226.19
843.14	226.30
843.46	226.30
843.77	226.22
844.08	226.21
844.40	226.17
844.71	226.15
845.03	226.14
845.34	226.13
845.65	226.12
845.97	226.12
846.28	226.12
846.60	226.13
846.91	226.10
847.22	226.10
847.54	226.12
847.85	226.13
848.16	226.12
848.48	226.09
848.79	226.14
849.10	226.16
849.42	226.16
849.73	226.04
850.04	226.04
850.36	225.99
850.67	226.01
850.98	226.01
851.30	226.02
851.61	226.01
851.92	226.01
852.23	226.05
852.55	226.06
852.86	226.06
853.17	226.07
853.49	226.09
853.80	226.12
854.11	226.12
854.42	226.14
854.74	226.12
855.05	226.13
855.36	226.06
855.67	226.06
855.99	226.07
856.30	226.22
856.61	226.21
856.92	226.21
857.23	226.22
857.55	226.20
857.86	226.19
858.17	226.21
858.48	226.19
858.79	226.16
859.11	226.17
859.42	226.16
859.73	226.14
860.04	226.13
860.35	226.09
860.66	226.05
860.98	226.04
861.29	226.06
861.60	226.05
861.91	226.08
862.22	226.06
862.53	226.03
862.84	225.88
863.16	225.91
863.47	225.89
863.78	225.87
864.09	225.88
864.40	225.89
864.71	225.89
865.02	225.90
865.33	225.88
865.64	225.86
865.95	225.86
866.27	225.93
866.58	225.92
866.89	225.93
867.20	225.93
867.51	225.91
867.82	225.90
868.13	225.94
868.44	225.91
868.75	225.94
869.06	225.94
869.37	225.96
869.68	225.92
869.99	225.94
870.30	225.95
870.61	225.96
870.92	225.94
871.23	225.92
871.54	225.93
871.85	225.96
872.16	225.98
872.47	225.96
872.78	225.89
873.09	225.90
873.40	225.89
873.71	225.90
874.02	225.91
874.33	225.89
874.64	225.86
874.95	225.88
875.26	225.85
875.56	225.85
875.87	225.83
876.18	225.83
876.49	225.96
876.80	225.94
877.11	225.92
877.42	225.92
877.73	225.92
878.04	225.90
878.35	225.90
878.66	225.90
878.96	225.89
879.27	225.89
879.58	225.88
879.89	225.87
880.20	225.91
880.51	225.90
880.82	225.90
881.12	225.91
881.43	225.88
881.74	225.86
882.05	225.86
882.36	225.86
882.67	225.87
882.97	225.74
883.28	225.73
883.59	225.72
883.90	225.73
884.21	225.75
884.51	225.74
884.82	225.72
885.13	225.72
885.44	225.72
885.74	225.72
886.05	225.71
886.36	225.72
886.67	225.67
886.98	225.74
887.28	225.75
887.59	225.74
887.90	225.75
888.20	225.75
888.51	225.77
888.82	225.75
889.13	225.76
889.43	225.87
889.74	225.86
890.05	225.86
890.35	225.85
890.66	225.83
890.97	225.81
891.28	225.80
891.58	225.80
891.89	225.80
892.20	225.79
892.50	225.77
892.81	225.77
893.12	225.77
893.42	225.70
893.73	225.70
894.04	225.70
894.34	225.71
894.65	225.70
894.95	225.69
895.26	225.70
895.57	225.75
895.87	225.63
896.18	225.65
896.48	225.66
896.79	225.65
897.10	225.67
897.40	225.68
897.71	225.69
898.01	225.68
898.32	225.69
898.63	225.69
898.93	225.70
899.24	225.71
899.54	225.70
899.85	225.70
900.15	225.69
900.46	225.69
900.76	225.70
901.07	225.70
901.38	225.69
901.68	225.70
901.99	225.63
902.29	225.64
902.60	225.63
902.90	225.62
903.21	225.62
903.51	225.61
903.82	225.64
904.12	225.64
904.43	225.64
904.73	225.64
905.03	225.64
905.34	225.77
905.64	225.75
905.95	225.76
906.25	225.75
906.56	225.75
906.86	225.75
907.17	225.74
907.47	225.74
907.77	225.73
908.08	225.71
908.38	225.72
908.69	225.72
908.99	225.74
909.30	225.75
909.60	225.74
909.90	225.75
910.21	225.71
910.51	225.69
910.81	225.69
911.12	225.70
911.42	225.70
911.73	225.56
912.03	225.58
912.33	225.60
912.64	225.59
912.94	225.58
913.24	225.56
913.55	225.55
913.85	225.54
914.15	225.56
914.46	225.58
914.76	225.56
915.06	225.55
915.37	225.53
915.67	225.52
915.97	225.52
916.27	225.50
916.58	225.50
916.88	225.50
917.18	225.49
917.49	225.57
917.79	225.57
918.09	225.59
918.39	225.62
918.70	225.61
919.00	225.62
919.30	225.68
919.60	225.67
919.91	225.66
920.21	225.67
920.51	225.64
920.81	225.64
921.12	225.66
921.42	225.65
921.72	225.66
922.02	225.67
922.32	225.68
922.63	225.69
922.93	225.76
923.23	225.76
923.53	225.75
923.83	225.67
924.13	225.68
924.44	225.68
924.74	225.69
925.04	225.72
925.34	225.72
925.64	225.67
925.94	225.67
926.24	225.74
926.55	225.73
926.85	225.74
927.15	225.74
927.45	225.74
927.75	225.74
928.05	225.74
928.35	225.73
928.65	225.75
928.95	225.76
929.26	225.70
929.56	225.72
929.86	225.73
930.16	225.72
930.46	225.71
930.76	225.71
931.06	225.65
931.36	225.62
931.66	225.63
931.96	225.65
932.26	225.66
932.56	225.60
932.86	225.61
933.16	225.61
933.46	225.60
933.76	225.58
934.06	225.60
934.36	225.65
934.66	225.64
934.96	225.63
935.26	225.63
935.56	225.65
935.86	225.61
936.16	225.59
936.46	225.58
936.76	225.57
937.06	225.56
937.36	225.57
937.66	225.57
937.96	225.57
938.26	225.54
938.56	225.53
938.86	225.53
939.16	225.56
939.46	225.57
939.76	225.58
940.06	225.57
940.35	225.55
940.65	225.48
940.95	225.49
941.25	225.46
941.55	225.44
941.85	225.43
942.15	225.46
942.45	225.49
942.75	225.49
943.04	225.50
943.34	225.53
943.64	225.51
943.94	225.49
944.24	225.49
944.54	225.50
944.84	225.50
945.13	225.48
945.43	225.45
945.73	225.45
946.03	225.44
946.33	225.43
946.62	225.41
946.92	225.42
947.22	225.42
947.52	225.44
947.82	225.45
948.11	225.44
948.41	225.41
948.71	225.38
949.01	225.38
949.31	225.37
949.60	225.36
949.90	225.38
950.20	225.38
950.50	225.37
950.79	225.36
951.09	225.38
951.39	225.38
951.69	225.37
951.98	225.39
952.28	225.39
952.58	225.39
952.87	225.39
953.17	225.41
953.47	225.39
953.76	225.39
954.06	225.37
954.36	225.35
954.66	225.36
954.95	225.39
955.25	225.40
955.55	225.41
955.84	225.39
956.14	225.40
956.44	225.41
956.73	225.39
957.03	225.40
957.32	225.40
957.62	225.40
957.92	225.42
958.21	225.41
958.51	225.55
958.81	225.57
959.10	225.58
959.40	225.61
959.69	225.62
959.99	225.64
960.29	225.64
960.58	225.64
960.88	225.69
961.17	225.67
961.47	225.67
961.76	225.66
962.06	225.68
962.36	225.67
962.65	225.67
962.95	225.68
963.24	225.67
963.54	225.67
963.83	225.68
964.13	225.67
964.42	225.65
964.72	225.54
965.01	225.54
965.31	225.53
965.60	225.50
965.90	225.58
966.19	225.55
966.49	225.56
966.78	225.55
967.08	225.54
967.37	225.55
967.67	225.52
967.96	225.55
968.26	225.54
968.55	225.56
968.85	225.56
969.14	225.55
969.43	225.55
969.73	225.54
970.02	225.53
970.32	225.52
970.61	225.51
970.91	225.47
971.20	225.45
971.49	225.44
971.79	225.46
972.08	225.37
972.38	225.38
972.67	225.37
972.96	225.39
973.26	225.36
973.55	225.40
973.85	225.39
974.14	225.38
974.43	225.38
974.73	225.36
975.02	225.35
975.31	225.35
975.61	225.35
975.90	225.34
976.19	225.33
976.49	225.34
976.78	225.35
977.07	225.35
977.37	225.36
977.66	225.37
977.95	225.35
978.24	225.36
978.54	225.39
978.83	225.38
979.12	225.37
979.42	225.37
979.71	225.35
980.00	225.35
980.29	225.35
980.59	225.33
980.88	225.37
981.17	225.37
981.46	225.37
981.76	225.37
982.05	225.41
982.34	225.42
982.63	225.41
982.93	225.41
983.22	225.44
983.51	225.45
983.80	225.46
984.09	225.48
984.39	225.47
984.68	225.45
984.97	225.45
985.26	225.45
985.55	225.46
985.85	225.43
986.14	225.45
986.43	225.47
986.72	225.46
987.01	225.42
987.30	225.42
987.59	225.41
987.89	225.42
988.18	225.38
988.47	225.37
988.76	225.35
989.05	225.34
989.34	225.32
989.63	225.35
989.92	225.33
990.22	225.32
990.51	225.32
990.80	225.31
991.09	225.32
991.38	225.33
991.67	225.32
991.96	225.31
992.25	225.32
992.54	225.29
992.83	225.30
993.12	225.29
993.41	225.32
993.70	225.36
993.99	225.38
994.28	225.40
994.58	225.42
994.87	225.41
995.16	225.41
995.45	225.40
995.74	225.36
996.03	225.38
996.32	225.39
996.61	225.42
996.90	225.42
997.19	225.41
997.48	225.41
997.77	225.40
998.06	225.41
998.34	225.40
998.63	225.40
998.92	225.40
999.21	225.42
999.50	225.42
999.79	225.38
1000.08	225.37
1000.37	225.37
1000.66	225.36
1000.95	225.39
1001.24	225.40
1001.53	225.41
1001.82	225.42
1002.11	225.39
1002.40	225.40
1002.68	225.42
1002.97	225.51
1003.26	225.50
1003.55	225.48
1003.84	225.50
1004.13	225.54
1004.42	225.54
1004.71	225.54
1004.99	225.53
1005.28	225.55
1005.57	225.55
1005.86	225.54
1006.15	225.53
1006.44	225.50
1006.72	225.52
1007.01	225.50
1007.30	225.50
1007.59	225.48
1007.88	225.48
1008.17	225.49
1008.45	225.46
1008.74	225.40
1009.03	225.35
1009.32	225.35
1009.60	225.35
1009.89	225.34
1010.18	225.29
1010.47	225.28
1010.76	225.28
1011.04	225.28
1011.33	225.27
1011.62	225.28
1011.91	225.29
1012.19	225.29
1012.48	225.30
1012.77	225.30
1013.05	225.34
1013.34	225.34
1013.63	225.33
1013.92	225.34
1014.20	225.33
1014.49	225.34
1014.78	225.35
1015.06	225.31
1015.35	225.31
1015.64	225.33
1015.92	225.35
1016.21	225.35
1016.50	225.35
1016.78	225.36
1017.07	225.38
1017.36	225.36
1017.64	225.34
1017.93	225.35
1018.22	225.33
1018.50	225.33
1018.79	225.33
1019.08	225.28
1019.36	225.29
1019.65	225.27
1019.93	225.31
1020.22	225.32
1020.51	225.39
1020.79	225.38
1021.08	225.16
1021.36	225.13
1021.65	225.32
1021.94	225.22
1022.22	225.43
1022.51	225.04
1022.79	225.95
1023.08	225.48
1023.36	226.86
1023.65	224.99
>>>>>End Processed Spectral Data<<<<<
