SpectraSuite Data File
++++++++++++++++++++++++++++++++++++
Date: Sat Oct 03 17:50:58 EDT 2015
User: lab3
Dark Spectrum Present: No
Reference Spectrum Present: No
Number of Sampled Component Spectra: 1
Spectrometers: USB2E7196
Integration Time (usec): 46000 (USB2E7196)
Spectra Averaged: 24000 (USB2E7196)
Boxcar Smoothing: 10 (USB2E7196)
Correct for Electrical Dark: No (USB2E7196)
Strobe/Lamp Enabled: No (USB2E7196)
Correct for Detector Non-linearity: No (USB2E7196)
Correct for Stray Light: No (USB2E7196)
Number of Pixels in Processed Spectrum: 2048
>>>>>Begin Processed Spectral Data<<<<<
339.09	0.00
339.48	213.87
339.86	215.33
340.24	216.67
340.63	218.11
341.01	221.36
341.39	220.81
341.78	222.20
342.16	223.45
342.54	223.82
342.93	212.30
343.31	223.02
343.69	223.56
344.07	224.02
344.46	224.46
344.84	224.85
345.22	225.07
345.60	225.33
345.99	225.53
346.37	225.66
346.75	225.77
347.13	225.85
347.52	225.92
347.90	226.01
348.28	226.05
348.66	226.11
349.05	226.11
349.43	226.16
349.81	226.22
350.19	226.28
350.57	226.35
350.96	226.43
351.34	226.53
351.72	226.63
352.10	226.73
352.48	226.81
352.87	226.86
353.25	226.92
353.63	226.98
354.01	227.04
354.39	227.12
354.77	227.20
355.15	227.31
355.54	227.36
355.92	227.38
356.30	227.46
356.68	227.61
357.06	227.69
357.44	227.73
357.82	227.79
358.20	227.91
358.58	227.97
358.97	228.03
359.35	228.11
359.73	228.20
360.11	228.25
360.49	228.31
360.87	228.35
361.25	228.42
361.63	228.51
362.01	228.56
362.39	228.59
362.77	228.64
363.15	228.66
363.53	228.69
363.91	228.73
364.29	228.75
364.67	228.65
365.05	228.68
365.43	228.71
365.81	228.75
366.19	228.76
366.57	228.82
366.95	228.82
367.33	228.80
367.71	228.79
368.09	228.81
368.47	228.81
368.85	228.80
369.23	228.81
369.61	228.74
369.99	228.76
370.37	228.76
370.75	228.84
371.13	228.81
371.51	228.77
371.89	228.75
372.27	228.72
372.65	228.70
373.03	228.66
373.41	228.62
373.78	228.57
374.16	228.46
374.54	228.38
374.92	228.33
375.30	228.29
375.68	228.22
376.06	228.18
376.44	228.12
376.82	228.08
377.19	228.04
377.57	227.98
377.95	227.89
378.33	227.83
378.71	227.67
379.09	227.63
379.47	227.60
379.84	227.53
380.22	227.47
380.60	227.40
380.98	227.35
381.36	227.30
381.73	227.24
382.11	227.21
382.49	227.17
382.87	227.11
383.25	227.07
383.62	227.18
384.00	227.11
384.38	227.07
384.76	227.05
385.13	227.05
385.51	227.01
385.89	226.97
386.27	226.93
386.64	226.92
387.02	226.87
387.40	226.82
387.78	226.80
388.15	226.78
388.53	226.75
388.91	226.72
389.29	226.68
389.66	226.68
390.04	226.64
390.42	226.64
390.79	226.63
391.17	226.61
391.55	226.45
391.92	226.44
392.30	226.44
392.68	226.40
393.05	226.38
393.43	226.38
393.81	226.39
394.18	226.37
394.56	226.37
394.94	226.41
395.31	226.41
395.69	226.46
396.06	226.48
396.44	226.51
396.82	226.53
397.19	226.62
397.57	226.63
397.95	226.68
398.32	226.67
398.70	226.72
399.07	226.79
399.45	226.82
399.82	226.87
400.20	226.91
400.58	226.97
400.95	226.99
401.33	227.08
401.70	227.24
402.08	227.34
402.45	227.43
402.83	227.55
403.20	227.67
403.58	227.77
403.95	227.91
404.33	228.07
404.71	228.21
405.08	228.43
405.46	228.60
405.83	228.79
406.21	229.00
406.58	229.23
406.96	229.45
407.33	229.71
407.70	230.01
408.08	230.40
408.45	230.75
408.83	231.13
409.20	231.47
409.58	231.78
409.95	232.20
410.33	232.66
410.70	233.09
411.08	233.60
411.45	234.15
411.82	234.70
412.20	235.32
412.57	236.07
412.95	236.66
413.32	237.42
413.69	238.21
414.07	239.04
414.44	239.95
414.82	240.88
415.19	241.96
415.56	243.06
415.94	244.20
416.31	245.48
416.68	246.76
417.06	248.24
417.43	249.63
417.81	251.23
418.18	252.86
418.55	254.65
418.93	256.50
419.30	258.43
419.67	260.48
420.04	262.59
420.42	264.79
420.79	267.33
421.16	269.89
421.54	272.50
421.91	275.23
422.28	278.05
422.66	281.10
423.03	284.01
423.40	287.06
423.77	290.34
424.15	293.69
424.52	297.18
424.89	300.97
425.26	304.72
425.64	308.22
426.01	312.15
426.38	316.17
426.75	320.31
427.13	324.56
427.50	329.01
427.87	333.64
428.24	338.31
428.61	342.81
428.99	347.67
429.36	353.00
429.73	358.09
430.10	363.19
430.47	368.41
430.85	373.78
431.22	379.55
431.59	385.47
431.96	391.25
432.33	397.67
432.70	403.78
433.08	410.99
433.45	417.82
433.82	424.55
434.19	432.05
434.56	439.46
434.93	446.62
435.30	453.70
435.68	461.70
436.05	469.53
436.42	477.34
436.79	484.46
437.16	492.14
437.53	500.39
437.90	508.63
438.27	516.70
438.64	525.41
439.01	533.30
439.38	540.52
439.75	547.47
440.13	555.30
440.50	562.74
440.87	568.64
441.24	575.09
441.61	582.13
441.98	587.24
442.35	593.32
442.72	599.51
443.09	605.40
443.46	609.10
443.83	611.80
444.20	614.02
444.57	617.39
444.94	619.23
445.31	621.15
445.68	622.74
446.05	623.86
446.42	623.34
446.79	622.62
447.16	621.97
447.53	621.35
447.90	618.70
448.27	616.16
448.64	612.38
449.01	609.70
449.37	604.52
449.74	599.84
450.11	593.82
450.48	587.26
450.85	580.71
451.22	575.10
451.59	569.63
451.96	564.68
452.33	557.54
452.70	551.20
453.07	543.49
453.43	535.81
453.80	528.37
454.17	521.23
454.54	514.68
454.91	507.28
455.28	500.35
455.65	493.82
456.02	486.93
456.38	481.40
456.75	474.29
457.12	468.56
457.49	462.79
457.86	457.37
458.23	452.62
458.59	447.35
458.96	441.95
459.33	437.21
459.70	432.37
460.07	428.70
460.43	424.39
460.80	420.36
461.17	416.87
461.54	413.06
461.91	409.52
462.27	405.91
462.64	403.02
463.01	399.66
463.38	396.29
463.74	393.26
464.11	390.57
464.48	388.17
464.85	385.53
465.21	383.55
465.58	381.33
465.95	378.77
466.32	376.74
466.68	374.75
467.05	372.75
467.42	370.79
467.78	368.67
468.15	366.71
468.52	365.29
468.88	363.37
469.25	361.62
469.62	360.23
469.98	358.70
470.35	357.34
470.72	356.12
471.08	354.86
471.45	353.80
471.82	352.62
472.18	351.37
472.55	350.57
472.92	349.54
473.28	348.74
473.65	347.87
474.02	347.05
474.38	346.35
474.75	345.93
475.11	345.36
475.48	345.07
475.85	344.77
476.21	344.60
476.58	344.48
476.94	344.59
477.31	344.63
477.67	344.71
478.04	344.89
478.41	345.17
478.77	345.58
479.14	345.83
479.50	346.34
479.87	347.01
480.23	347.68
480.60	348.34
480.96	349.00
481.33	350.00
481.69	350.99
482.06	351.98
482.42	352.88
482.79	354.01
483.15	355.33
483.52	356.83
483.88	358.26
484.25	359.80
484.61	361.40
484.98	363.13
485.34	365.08
485.71	367.13
486.07	369.31
486.44	371.50
486.80	373.93
487.17	376.46
487.53	379.23
487.90	382.12
488.26	385.28
488.62	388.61
488.99	391.94
489.35	395.46
489.72	399.27
490.08	403.28
490.44	407.42
490.81	411.72
491.17	416.13
491.54	420.86
491.90	425.75
492.26	430.98
492.63	436.46
492.99	442.17
493.36	448.09
493.72	454.31
494.08	460.69
494.45	467.46
494.81	474.49
495.17	481.72
495.54	489.36
495.90	497.30
496.26	505.42
496.63	513.79
496.99	522.48
497.35	531.58
497.72	540.97
498.08	550.55
498.44	560.48
498.80	571.00
499.17	581.78
499.53	592.89
499.89	604.38
500.26	616.10
500.62	628.12
500.98	640.79
501.34	653.63
501.71	667.01
502.07	680.59
502.43	694.72
502.79	709.06
503.16	723.86
503.52	738.83
503.88	754.27
504.24	770.18
504.60	786.30
504.97	802.90
505.33	819.96
505.69	837.94
506.05	856.25
506.41	874.49
506.78	892.93
507.14	911.89
507.50	931.28
507.86	951.03
508.22	971.00
508.59	990.78
508.95	1011.39
509.31	1032.77
509.67	1054.85
510.03	1076.92
510.39	1099.05
510.75	1121.36
511.12	1143.97
511.48	1166.72
511.84	1189.48
512.20	1212.68
512.56	1236.79
512.92	1260.89
513.28	1284.55
513.64	1308.50
514.00	1332.91
514.37	1357.65
514.73	1382.34
515.09	1406.91
515.45	1431.82
515.81	1456.87
516.17	1482.02
516.53	1506.69
516.89	1531.21
517.25	1555.93
517.61	1580.49
517.97	1605.50
518.33	1630.04
518.69	1654.53
519.05	1679.49
519.41	1704.76
519.77	1730.18
520.13	1754.83
520.49	1779.41
520.85	1804.37
521.21	1828.87
521.57	1853.74
521.93	1878.02
522.29	1902.86
522.65	1927.15
523.01	1951.41
523.37	1975.28
523.73	1999.92
524.09	2024.19
524.45	2048.19
524.81	2071.86
525.17	2095.42
525.53	2118.34
525.89	2141.70
526.25	2165.11
526.61	2187.50
526.97	2209.97
527.33	2232.43
527.68	2254.61
528.04	2275.91
528.40	2296.23
528.76	2316.85
529.12	2336.91
529.48	2356.67
529.84	2374.56
530.20	2393.15
530.56	2411.08
530.91	2429.18
531.27	2446.91
531.63	2463.75
531.99	2480.29
532.35	2495.97
532.71	2511.77
533.07	2528.24
533.42	2542.91
533.78	2558.53
534.14	2574.37
534.50	2589.22
534.86	2603.78
535.21	2616.35
535.57	2629.53
535.93	2642.54
536.29	2654.31
536.65	2665.88
537.00	2676.71
537.36	2688.52
537.72	2698.97
538.08	2708.87
538.44	2718.08
538.79	2726.83
539.15	2734.86
539.51	2742.39
539.87	2749.37
540.22	2754.34
540.58	2759.46
540.94	2765.75
541.29	2770.39
541.65	2773.22
542.01	2775.38
542.37	2776.93
542.72	2779.81
543.08	2780.92
543.44	2782.65
543.79	2783.35
544.15	2783.22
544.51	2783.51
544.87	2782.70
545.22	2780.98
545.58	2778.58
545.94	2776.23
546.29	2772.57
546.65	2768.92
547.01	2765.31
547.36	2762.43
547.72	2759.64
548.07	2755.08
548.43	2749.02
548.79	2741.97
549.14	2736.25
549.50	2730.79
549.86	2724.30
550.21	2716.69
550.57	2710.12
550.92	2701.15
551.28	2692.79
551.64	2684.86
551.99	2676.46
552.35	2667.35
552.70	2658.63
553.06	2650.21
553.41	2641.09
553.77	2631.86
554.13	2622.56
554.48	2612.30
554.84	2600.85
555.19	2589.84
555.55	2578.91
555.90	2568.12
556.26	2557.94
556.61	2546.56
556.97	2533.51
557.32	2520.97
557.68	2508.46
558.03	2495.69
558.39	2484.18
558.74	2472.94
559.10	2459.92
559.45	2447.16
559.81	2435.08
560.16	2422.21
560.52	2409.71
560.87	2397.64
561.23	2384.65
561.58	2371.72
561.94	2358.52
562.29	2344.68
562.64	2331.67
563.00	2318.34
563.35	2305.39
563.71	2292.20
564.06	2278.96
564.42	2266.57
564.77	2253.61
565.12	2240.50
565.48	2227.32
565.83	2214.12
566.19	2201.03
566.54	2187.87
566.89	2173.61
567.25	2159.50
567.60	2146.84
567.96	2133.26
568.31	2118.27
568.66	2104.05
569.02	2090.99
569.37	2077.88
569.72	2065.34
570.08	2051.48
570.43	2037.25
570.78	2022.87
571.14	2007.80
571.49	1993.43
571.84	1979.61
572.20	1964.54
572.55	1949.78
572.90	1934.86
573.26	1920.03
573.61	1904.67
573.96	1889.75
574.31	1875.09
574.67	1860.51
575.02	1844.83
575.37	1829.29
575.72	1814.61
576.08	1800.17
576.43	1784.65
576.78	1769.59
577.13	1754.74
577.49	1740.24
577.84	1726.36
578.19	1711.53
578.54	1696.89
578.90	1681.74
579.25	1666.49
579.60	1652.89
579.95	1639.08
580.30	1625.12
580.66	1610.85
581.01	1596.60
581.36	1582.38
581.71	1569.14
582.06	1555.75
582.42	1542.61
582.77	1529.47
583.12	1516.35
583.47	1503.16
583.82	1490.06
584.17	1476.55
584.53	1462.75
584.88	1449.35
585.23	1435.52
585.58	1422.49
585.93	1409.67
586.28	1397.58
586.63	1385.46
586.98	1372.83
587.34	1360.30
587.69	1347.57
588.04	1335.13
588.39	1323.04
588.74	1311.04
589.09	1298.83
589.44	1286.23
589.79	1274.29
590.14	1262.42
590.49	1250.45
590.84	1238.63
591.19	1227.25
591.54	1215.67
591.89	1204.24
592.25	1193.01
592.60	1181.43
592.95	1170.25
593.30	1159.31
593.65	1148.09
594.00	1136.99
594.35	1126.48
594.70	1115.54
595.05	1105.43
595.40	1095.20
595.75	1084.80
596.10	1074.98
596.45	1064.89
596.80	1055.13
597.15	1045.13
597.50	1035.30
597.85	1025.84
598.19	1016.21
598.54	1006.64
598.89	997.53
599.24	988.73
599.59	979.72
599.94	971.63
600.29	963.31
600.64	954.72
600.99	945.76
601.34	937.15
601.69	928.23
602.04	919.96
602.39	911.53
602.74	903.18
603.08	894.77
603.43	886.35
603.78	878.09
604.13	869.97
604.48	861.83
604.83	853.89
605.18	845.91
605.53	838.08
605.87	830.06
606.22	822.33
606.57	814.57
606.92	806.71
607.27	798.77
607.62	791.16
607.96	783.96
608.31	777.20
608.66	770.25
609.01	763.56
609.36	756.98
609.70	750.19
610.05	743.39
610.40	736.85
610.75	730.28
611.10	724.05
611.44	717.70
611.79	711.44
612.14	705.10
612.49	698.85
612.83	692.88
613.18	687.06
613.53	681.14
613.88	675.23
614.22	669.72
614.57	664.17
614.92	658.46
615.27	652.84
615.61	647.30
615.96	641.81
616.31	636.32
616.65	630.88
617.00	625.66
617.35	620.54
617.70	615.47
618.04	610.45
618.39	605.35
618.74	600.48
619.08	595.67
619.43	590.98
619.78	586.29
620.12	581.58
620.47	577.02
620.82	572.57
621.16	568.14
621.51	563.61
621.85	559.12
622.20	554.82
622.55	550.56
622.89	546.36
623.24	542.16
623.59	538.00
623.93	534.02
624.28	530.14
624.62	526.33
624.97	522.57
625.32	518.77
625.66	514.94
626.01	511.07
626.35	507.26
626.70	503.51
627.04	499.93
627.39	496.28
627.73	492.81
628.08	489.42
628.43	486.05
628.77	482.74
629.12	479.56
629.46	476.39
629.81	473.11
630.15	469.84
630.50	466.67
630.84	463.57
631.19	460.50
631.53	457.53
631.88	454.53
632.22	451.55
632.57	448.86
632.91	446.19
633.26	443.62
633.60	441.07
633.95	438.56
634.29	435.98
634.64	433.46
634.98	430.75
635.32	428.19
635.67	425.81
636.01	423.37
636.36	420.97
636.70	418.71
637.05	416.45
637.39	414.22
637.73	412.02
638.08	409.93
638.42	407.82
638.77	405.58
639.11	403.29
639.45	401.08
639.80	398.82
640.14	396.67
640.49	394.49
640.83	392.30
641.17	390.21
641.52	388.16
641.86	386.14
642.20	384.32
642.55	382.35
642.89	380.41
643.23	378.56
643.58	376.86
643.92	375.04
644.26	373.28
644.61	371.57
644.95	369.84
645.29	368.03
645.64	366.24
645.98	364.54
646.32	362.97
646.66	361.37
647.01	359.81
647.35	358.28
647.69	356.75
648.04	355.34
648.38	353.84
648.72	352.37
649.06	350.91
649.41	349.46
649.75	348.05
650.09	346.68
650.43	345.31
650.78	343.88
651.12	342.50
651.46	341.17
651.80	339.86
652.14	338.59
652.49	337.36
652.83	336.10
653.17	334.90
653.51	333.72
653.85	332.59
654.20	331.42
654.54	330.19
654.88	329.04
655.22	327.92
655.56	326.80
655.90	325.74
656.25	324.70
656.59	323.64
656.93	322.65
657.27	321.67
657.61	320.64
657.95	319.66
658.29	318.67
658.64	317.74
658.98	316.80
659.32	315.88
659.66	315.01
660.00	314.17
660.34	313.33
660.68	312.45
661.02	311.55
661.36	310.69
661.70	309.88
662.05	309.08
662.39	308.28
662.73	307.56
663.07	306.84
663.41	306.09
663.75	305.34
664.09	304.59
664.43	303.80
664.77	303.10
665.11	302.35
665.45	301.67
665.79	300.99
666.13	300.28
666.47	299.56
666.81	298.82
667.15	298.07
667.49	297.41
667.83	296.82
668.17	296.19
668.51	295.61
668.85	295.05
669.19	294.53
669.53	293.90
669.87	293.27
670.21	292.67
670.55	292.10
670.89	291.62
671.23	291.09
671.57	290.56
671.91	290.09
672.25	289.63
672.58	289.18
672.92	288.64
673.26	288.19
673.60	287.75
673.94	287.32
674.28	286.92
674.62	286.49
674.96	285.99
675.30	285.57
675.64	285.11
675.97	284.64
676.31	284.13
676.65	283.69
676.99	283.32
677.33	282.86
677.67	282.44
678.01	281.95
678.34	281.54
678.68	281.15
679.02	280.69
679.36	280.26
679.70	279.82
680.04	279.43
680.37	279.03
680.71	278.65
681.05	278.27
681.39	277.86
681.73	277.43
682.06	277.03
682.40	276.64
682.74	276.31
683.08	276.01
683.42	275.65
683.75	275.33
684.09	274.93
684.43	274.59
684.77	274.25
685.10	273.94
685.44	273.61
685.78	273.27
686.12	272.96
686.45	272.63
686.79	272.28
687.13	271.97
687.46	271.63
687.80	271.30
688.14	270.93
688.48	270.63
688.81	270.31
689.15	270.03
689.49	269.70
689.82	269.36
690.16	268.97
690.50	268.66
690.83	268.33
691.17	268.00
691.51	267.68
691.84	267.38
692.18	267.05
692.52	266.71
692.85	266.39
693.19	266.11
693.52	265.80
693.86	265.48
694.20	265.18
694.53	264.89
694.87	264.57
695.21	264.26
695.54	263.96
695.88	263.65
696.21	263.31
696.55	263.02
696.88	262.72
697.22	262.44
697.56	262.14
697.89	261.81
698.23	261.53
698.56	261.21
698.90	260.93
699.23	260.61
699.57	260.32
699.90	260.02
700.24	259.70
700.58	259.43
700.91	259.19
701.25	259.02
701.58	258.80
701.92	258.57
702.25	258.31
702.59	258.03
702.92	257.77
703.26	257.50
703.59	257.21
703.93	257.04
704.26	256.79
704.60	256.51
704.93	256.25
705.26	255.97
705.60	255.76
705.93	255.46
706.27	255.25
706.60	255.04
706.94	254.84
707.27	254.56
707.61	254.30
707.94	254.02
708.27	253.64
708.61	253.33
708.94	253.05
709.28	252.81
709.61	252.55
709.94	252.33
710.28	252.11
710.61	251.90
710.95	251.57
711.28	251.42
711.61	251.20
711.95	251.00
712.28	250.77
712.61	250.52
712.95	250.38
713.28	250.21
713.61	249.96
713.95	249.70
714.28	249.50
714.61	249.28
714.95	249.06
715.28	248.86
715.61	248.66
715.95	248.48
716.28	248.28
716.61	248.12
716.95	247.90
717.28	247.70
717.61	247.49
717.94	247.29
718.28	247.01
718.61	246.80
718.94	246.59
719.27	246.40
719.61	246.23
719.94	246.01
720.27	245.74
720.60	245.55
720.94	245.37
721.27	245.19
721.60	245.04
721.93	244.85
722.27	244.71
722.60	244.55
722.93	244.35
723.26	244.18
723.59	243.97
723.93	243.81
724.26	243.65
724.59	243.47
724.92	243.31
725.25	243.20
725.59	243.04
725.92	242.90
726.25	242.75
726.58	242.59
726.91	242.43
727.24	242.29
727.57	242.14
727.91	241.97
728.24	241.84
728.57	241.68
728.90	241.55
729.23	241.36
729.56	241.26
729.89	241.12
730.22	240.96
730.55	240.82
730.89	240.67
731.22	240.52
731.55	240.38
731.88	240.24
732.21	240.08
732.54	239.93
732.87	239.80
733.20	239.67
733.53	239.54
733.86	239.42
734.19	239.27
734.52	239.16
734.85	239.12
735.18	238.96
735.51	238.87
735.84	238.75
736.17	238.67
736.50	238.48
736.83	238.51
737.16	238.40
737.49	238.29
737.82	238.17
738.15	238.08
738.48	237.96
738.81	237.84
739.14	237.72
739.47	237.59
739.80	237.47
740.13	237.37
740.46	237.24
740.79	237.11
741.12	237.00
741.45	236.87
741.78	236.69
742.11	236.61
742.44	236.47
742.77	236.39
743.10	236.26
743.43	236.14
743.75	235.91
744.08	236.00
744.41	235.89
744.74	235.78
745.07	235.66
745.40	235.58
745.73	235.54
746.06	235.45
746.39	235.38
746.71	235.28
747.04	235.18
747.37	235.09
747.70	235.02
748.03	234.94
748.36	234.87
748.68	234.78
749.01	234.66
749.34	234.58
749.67	234.49
750.00	234.43
750.33	234.44
750.65	234.36
750.98	234.09
751.31	234.01
751.64	233.94
751.97	233.93
752.29	233.84
752.62	233.70
752.95	233.61
753.28	233.51
753.60	233.43
753.93	233.38
754.26	233.32
754.59	233.20
754.91	233.10
755.24	233.01
755.57	233.00
755.90	232.92
756.22	232.83
756.55	232.73
756.88	232.63
757.20	232.47
757.53	232.36
757.86	232.29
758.19	232.22
758.51	232.15
758.84	232.01
759.17	231.93
759.49	231.87
759.82	231.86
760.15	231.81
760.47	231.75
760.80	231.65
761.13	231.60
761.45	231.54
761.78	231.48
762.11	231.43
762.43	231.30
762.76	231.24
763.08	231.20
763.41	231.15
763.74	231.10
764.06	231.05
764.39	231.00
764.71	230.95
765.04	230.88
765.37	230.82
765.69	230.77
766.02	230.72
766.34	230.66
766.67	230.56
767.00	230.53
767.32	230.55
767.65	230.58
767.97	230.52
768.30	230.49
768.62	230.44
768.95	230.38
769.27	230.33
769.60	230.30
769.92	230.24
770.25	230.17
770.57	230.11
770.90	230.06
771.22	230.01
771.55	229.96
771.87	229.93
772.20	229.89
772.52	229.96
772.85	230.07
773.17	230.04
773.50	229.99
773.82	229.92
774.15	229.82
774.47	229.70
774.80	229.65
775.12	229.61
775.45	229.58
775.77	229.55
776.09	229.53
776.42	229.49
776.74	229.50
777.07	229.47
777.39	229.44
777.72	229.40
778.04	229.39
778.36	229.35
778.69	229.32
779.01	229.30
779.33	229.16
779.66	228.98
779.98	228.95
780.31	228.93
780.63	228.96
780.95	228.95
781.28	228.93
781.60	228.89
781.92	228.87
782.25	228.84
782.57	228.81
782.89	228.78
783.22	228.74
783.54	228.69
783.86	228.68
784.19	228.65
784.51	228.66
784.83	228.62
785.16	228.59
785.48	228.57
785.80	228.55
786.12	228.54
786.45	228.51
786.77	228.50
787.09	228.46
787.42	228.39
787.74	228.37
788.06	228.36
788.38	228.33
788.71	228.31
789.03	228.29
789.35	228.29
789.67	228.25
789.99	228.24
790.32	228.21
790.64	228.20
790.96	228.30
791.28	228.24
791.61	228.21
791.93	228.20
792.25	228.17
792.57	228.25
792.89	228.20
793.21	228.20
793.54	228.17
793.86	228.14
794.18	228.13
794.50	228.09
794.82	228.07
795.14	228.07
795.47	228.07
795.79	228.06
796.11	228.01
796.43	227.99
796.75	227.97
797.07	227.97
797.39	227.94
797.71	227.82
798.04	227.81
798.36	227.81
798.68	227.79
799.00	227.78
799.32	227.70
799.64	227.71
799.96	227.69
800.28	227.70
800.60	227.68
800.92	227.67
801.24	227.65
801.56	227.65
801.89	227.62
802.21	227.61
802.53	227.57
802.85	227.59
803.17	227.63
803.49	227.59
803.81	227.57
804.13	227.55
804.45	227.52
804.77	227.52
805.09	227.50
805.41	227.48
805.73	227.44
806.05	227.40
806.37	227.37
806.69	227.35
807.01	227.32
807.33	227.32
807.65	227.26
807.97	227.31
808.28	227.28
808.60	227.27
808.92	227.24
809.24	227.31
809.56	227.27
809.88	227.22
810.20	227.22
810.52	227.23
810.84	227.20
811.16	227.18
811.48	227.16
811.80	227.19
812.12	227.18
812.43	227.20
812.75	227.20
813.07	227.18
813.39	227.18
813.71	227.15
814.03	227.13
814.35	227.13
814.67	227.07
814.98	227.05
815.30	227.04
815.62	227.01
815.94	226.92
816.26	226.92
816.58	226.89
816.89	226.89
817.21	226.85
817.53	226.85
817.85	226.85
818.17	226.84
818.48	226.78
818.80	226.80
819.12	226.77
819.44	226.74
819.76	226.72
820.07	226.71
820.39	226.70
820.71	226.70
821.03	226.69
821.34	226.68
821.66	226.69
821.98	226.70
822.30	226.69
822.61	226.76
822.93	226.73
823.25	226.72
823.57	226.70
823.88	226.71
824.20	226.70
824.52	226.72
824.83	226.71
825.15	226.69
825.47	226.67
825.79	226.67
826.10	226.66
826.42	226.66
826.74	226.66
827.05	226.65
827.37	226.65
827.69	226.63
828.00	226.63
828.32	226.62
828.64	226.60
828.95	226.66
829.27	226.62
829.58	226.62
829.90	226.64
830.22	226.64
830.53	226.61
830.85	226.60
831.17	226.56
831.48	226.55
831.80	226.55
832.11	226.54
832.43	226.52
832.75	226.51
833.06	226.59
833.38	226.55
833.69	226.54
834.01	226.54
834.32	226.53
834.64	226.52
834.96	226.51
835.27	226.51
835.59	226.46
835.90	226.43
836.22	226.43
836.53	226.39
836.85	226.38
837.16	226.50
837.48	226.50
837.79	226.54
838.11	226.54
838.42	226.53
838.74	226.54
839.05	226.53
839.37	226.52
839.68	226.44
840.00	226.44
840.31	226.45
840.63	226.43
840.94	226.42
841.26	226.41
841.57	226.40
841.88	226.41
842.20	226.39
842.51	226.36
842.83	226.36
843.14	226.48
843.46	226.47
843.77	226.39
844.08	226.38
844.40	226.34
844.71	226.32
845.03	226.31
845.34	226.29
845.65	226.29
845.97	226.29
846.28	226.29
846.60	226.30
846.91	226.27
847.22	226.27
847.54	226.29
847.85	226.30
848.16	226.28
848.48	226.26
848.79	226.30
849.10	226.32
849.42	226.32
849.73	226.20
850.04	226.20
850.36	226.15
850.67	226.17
850.98	226.18
851.30	226.18
851.61	226.18
851.92	226.17
852.23	226.21
852.55	226.22
852.86	226.22
853.17	226.22
853.49	226.25
853.80	226.27
854.11	226.28
854.42	226.29
854.74	226.28
855.05	226.28
855.36	226.21
855.67	226.21
855.99	226.21
856.30	226.36
856.61	226.35
856.92	226.36
857.23	226.36
857.55	226.34
857.86	226.33
858.17	226.36
858.48	226.33
858.79	226.31
859.11	226.32
859.42	226.31
859.73	226.29
860.04	226.28
860.35	226.24
860.66	226.20
860.98	226.19
861.29	226.21
861.60	226.20
861.91	226.23
862.22	226.20
862.53	226.19
862.84	226.03
863.16	226.06
863.47	226.04
863.78	226.02
864.09	226.03
864.40	226.03
864.71	226.03
865.02	226.05
865.33	226.03
865.64	226.01
865.95	226.01
866.27	226.08
866.58	226.07
866.89	226.09
867.20	226.08
867.51	226.06
867.82	226.05
868.13	226.09
868.44	226.06
868.75	226.08
869.06	226.09
869.37	226.10
869.68	226.06
869.99	226.09
870.30	226.09
870.61	226.10
870.92	226.08
871.23	226.07
871.54	226.08
871.85	226.11
872.16	226.13
872.47	226.11
872.78	226.04
873.09	226.05
873.40	226.04
873.71	226.05
874.02	226.06
874.33	226.05
874.64	226.02
874.95	226.05
875.26	226.02
875.56	226.02
875.87	226.01
876.18	226.00
876.49	226.13
876.80	226.11
877.11	226.09
877.42	226.09
877.73	226.09
878.04	226.07
878.35	226.07
878.66	226.07
878.96	226.07
879.27	226.06
879.58	226.05
879.89	226.05
880.20	226.08
880.51	226.07
880.82	226.07
881.12	226.08
881.43	226.05
881.74	226.04
882.05	226.03
882.36	226.04
882.67	226.05
882.97	225.91
883.28	225.90
883.59	225.90
883.90	225.91
884.21	225.93
884.51	225.92
884.82	225.90
885.13	225.90
885.44	225.89
885.74	225.90
886.05	225.89
886.36	225.89
886.67	225.84
886.98	225.91
887.28	225.92
887.59	225.92
887.90	225.92
888.20	225.92
888.51	225.94
888.82	225.92
889.13	225.92
889.43	226.04
889.74	226.03
890.05	226.03
890.35	226.02
890.66	225.99
890.97	225.98
891.28	225.97
891.58	225.97
891.89	225.97
892.20	225.96
892.50	225.94
892.81	225.94
893.12	225.94
893.42	225.87
893.73	225.87
894.04	225.87
894.34	225.87
894.65	225.87
894.95	225.86
895.26	225.87
895.57	225.92
895.87	225.79
896.18	225.82
896.48	225.82
896.79	225.82
897.10	225.84
897.40	225.85
897.71	225.86
898.01	225.85
898.32	225.86
898.63	225.86
898.93	225.87
899.24	225.87
899.54	225.87
899.85	225.87
900.15	225.86
900.46	225.86
900.76	225.87
901.07	225.87
901.38	225.86
901.68	225.87
901.99	225.80
902.29	225.81
902.60	225.80
902.90	225.79
903.21	225.78
903.51	225.77
903.82	225.80
904.12	225.80
904.43	225.80
904.73	225.79
905.03	225.80
905.34	225.92
905.64	225.91
905.95	225.91
906.25	225.91
906.56	225.91
906.86	225.91
907.17	225.89
907.47	225.90
907.77	225.89
908.08	225.86
908.38	225.87
908.69	225.88
908.99	225.90
909.30	225.91
909.60	225.91
909.90	225.91
910.21	225.88
910.51	225.86
910.81	225.86
911.12	225.86
911.42	225.86
911.73	225.73
912.03	225.74
912.33	225.77
912.64	225.76
912.94	225.74
913.24	225.73
913.55	225.72
913.85	225.71
914.15	225.73
914.46	225.75
914.76	225.74
915.06	225.73
915.37	225.70
915.67	225.69
915.97	225.69
916.27	225.67
916.58	225.68
916.88	225.67
917.18	225.66
917.49	225.75
917.79	225.74
918.09	225.76
918.39	225.79
918.70	225.78
919.00	225.78
919.30	225.85
919.60	225.84
919.91	225.83
920.21	225.84
920.51	225.81
920.81	225.80
921.12	225.82
921.42	225.82
921.72	225.83
922.02	225.84
922.32	225.85
922.63	225.86
922.93	225.93
923.23	225.94
923.53	225.93
923.83	225.84
924.13	225.85
924.44	225.85
924.74	225.87
925.04	225.89
925.34	225.89
925.64	225.83
925.94	225.84
926.24	225.91
926.55	225.90
926.85	225.91
927.15	225.91
927.45	225.91
927.75	225.90
928.05	225.90
928.35	225.89
928.65	225.91
928.95	225.92
929.26	225.85
929.56	225.88
929.86	225.89
930.16	225.89
930.46	225.87
930.76	225.88
931.06	225.82
931.36	225.79
931.66	225.80
931.96	225.82
932.26	225.82
932.56	225.77
932.86	225.78
933.16	225.78
933.46	225.77
933.76	225.75
934.06	225.77
934.36	225.81
934.66	225.81
934.96	225.79
935.26	225.79
935.56	225.81
935.86	225.77
936.16	225.75
936.46	225.74
936.76	225.74
937.06	225.72
937.36	225.73
937.66	225.74
937.96	225.72
938.26	225.70
938.56	225.69
938.86	225.69
939.16	225.72
939.46	225.73
939.76	225.74
940.06	225.73
940.35	225.71
940.65	225.65
940.95	225.66
941.25	225.63
941.55	225.61
941.85	225.60
942.15	225.63
942.45	225.67
942.75	225.67
943.04	225.67
943.34	225.70
943.64	225.68
943.94	225.67
944.24	225.67
944.54	225.68
944.84	225.67
945.13	225.66
945.43	225.63
945.73	225.62
946.03	225.61
946.33	225.60
946.62	225.59
946.92	225.59
947.22	225.60
947.52	225.61
947.82	225.62
948.11	225.61
948.41	225.58
948.71	225.55
949.01	225.56
949.31	225.55
949.60	225.53
949.90	225.55
950.20	225.55
950.50	225.54
950.79	225.53
951.09	225.55
951.39	225.55
951.69	225.54
951.98	225.56
952.28	225.57
952.58	225.57
952.87	225.57
953.17	225.59
953.47	225.58
953.76	225.57
954.06	225.55
954.36	225.54
954.66	225.54
954.95	225.57
955.25	225.58
955.55	225.59
955.84	225.57
956.14	225.58
956.44	225.59
956.73	225.57
957.03	225.58
957.32	225.58
957.62	225.57
957.92	225.60
958.21	225.58
958.51	225.73
958.81	225.75
959.10	225.76
959.40	225.78
959.69	225.79
959.99	225.81
960.29	225.81
960.58	225.81
960.88	225.85
961.17	225.84
961.47	225.84
961.76	225.83
962.06	225.86
962.36	225.84
962.65	225.84
962.95	225.86
963.24	225.84
963.54	225.85
963.83	225.85
964.13	225.84
964.42	225.83
964.72	225.72
965.01	225.72
965.31	225.71
965.60	225.68
965.90	225.76
966.19	225.73
966.49	225.74
966.78	225.73
967.08	225.72
967.37	225.72
967.67	225.70
967.96	225.72
968.26	225.71
968.55	225.73
968.85	225.73
969.14	225.72
969.43	225.72
969.73	225.71
970.02	225.71
970.32	225.70
970.61	225.68
970.91	225.64
971.20	225.63
971.49	225.62
971.79	225.63
972.08	225.54
972.38	225.56
972.67	225.55
972.96	225.57
973.26	225.54
973.55	225.58
973.85	225.57
974.14	225.56
974.43	225.57
974.73	225.55
975.02	225.53
975.31	225.53
975.61	225.53
975.90	225.53
976.19	225.52
976.49	225.53
976.78	225.54
977.07	225.54
977.37	225.55
977.66	225.57
977.95	225.55
978.24	225.56
978.54	225.58
978.83	225.57
979.12	225.56
979.42	225.57
979.71	225.54
980.00	225.54
980.29	225.55
980.59	225.52
980.88	225.56
981.17	225.56
981.46	225.56
981.76	225.56
982.05	225.60
982.34	225.61
982.63	225.61
982.93	225.61
983.22	225.64
983.51	225.65
983.80	225.66
984.09	225.68
984.39	225.67
984.68	225.65
984.97	225.66
985.26	225.65
985.55	225.66
985.85	225.63
986.14	225.65
986.43	225.67
986.72	225.66
987.01	225.62
987.30	225.62
987.59	225.61
987.89	225.62
988.18	225.58
988.47	225.57
988.76	225.56
989.05	225.55
989.34	225.53
989.63	225.55
989.92	225.53
990.22	225.52
990.51	225.52
990.80	225.51
991.09	225.51
991.38	225.53
991.67	225.52
991.96	225.51
992.25	225.51
992.54	225.48
992.83	225.49
993.12	225.49
993.41	225.51
993.70	225.56
993.99	225.58
994.28	225.60
994.58	225.62
994.87	225.61
995.16	225.61
995.45	225.60
995.74	225.55
996.03	225.57
996.32	225.59
996.61	225.61
996.90	225.61
997.19	225.61
997.48	225.60
997.77	225.59
998.06	225.60
998.34	225.59
998.63	225.59
998.92	225.59
999.21	225.61
999.50	225.61
999.79	225.57
1000.08	225.56
1000.37	225.56
1000.66	225.54
1000.95	225.57
1001.24	225.58
1001.53	225.60
1001.82	225.60
1002.11	225.56
1002.40	225.57
1002.68	225.60
1002.97	225.69
1003.26	225.67
1003.55	225.65
1003.84	225.67
1004.13	225.71
1004.42	225.70
1004.71	225.70
1004.99	225.70
1005.28	225.72
1005.57	225.71
1005.86	225.70
1006.15	225.69
1006.44	225.67
1006.72	225.68
1007.01	225.66
1007.30	225.66
1007.59	225.64
1007.88	225.64
1008.17	225.65
1008.45	225.62
1008.74	225.57
1009.03	225.51
1009.32	225.52
1009.60	225.52
1009.89	225.50
1010.18	225.45
1010.47	225.44
1010.76	225.44
1011.04	225.44
1011.33	225.44
1011.62	225.45
1011.91	225.46
1012.19	225.46
1012.48	225.47
1012.77	225.47
1013.05	225.51
1013.34	225.51
1013.63	225.51
1013.92	225.51
1014.20	225.51
1014.49	225.52
1014.78	225.53
1015.06	225.49
1015.35	225.49
1015.64	225.51
1015.92	225.53
1016.21	225.54
1016.50	225.54
1016.78	225.55
1017.07	225.56
1017.36	225.54
1017.64	225.52
1017.93	225.53
1018.22	225.52
1018.50	225.52
1018.79	225.52
1019.08	225.47
1019.36	225.48
1019.65	225.47
1019.93	225.50
1020.22	225.52
1020.51	225.58
1020.79	225.56
1021.08	225.34
1021.36	225.33
1021.65	225.52
1021.94	225.43
1022.22	225.59
1022.51	225.26
1022.79	226.10
1023.08	225.66
1023.36	226.99
1023.65	225.19
>>>>>End Processed Spectral Data<<<<<
