SpectraSuite Data File
++++++++++++++++++++++++++++++++++++
Date: Sat Oct 03 03:05:18 EDT 2015
User: lab3
Dark Spectrum Present: No
Reference Spectrum Present: No
Number of Sampled Component Spectra: 1
Spectrometers: USB2E7196
Integration Time (usec): 46000 (USB2E7196)
Spectra Averaged: 12000 (USB2E7196)
Boxcar Smoothing: 10 (USB2E7196)
Correct for Electrical Dark: No (USB2E7196)
Strobe/Lamp Enabled: No (USB2E7196)
Correct for Detector Non-linearity: No (USB2E7196)
Correct for Stray Light: No (USB2E7196)
Number of Pixels in Processed Spectrum: 2048
>>>>>Begin Processed Spectral Data<<<<<
339.09	0.00
339.48	213.61
339.86	215.11
340.24	216.48
340.63	217.92
341.01	221.21
341.39	220.66
341.78	222.01
342.16	223.24
342.54	223.55
342.93	212.11
343.31	222.82
343.69	223.36
344.07	223.83
344.46	224.26
344.84	224.65
345.22	224.87
345.60	225.13
345.99	225.32
346.37	225.45
346.75	225.56
347.13	225.64
347.52	225.71
347.90	225.80
348.28	225.84
348.66	225.90
349.05	225.89
349.43	225.94
349.81	226.00
350.19	226.06
350.57	226.13
350.96	226.21
351.34	226.30
351.72	226.39
352.10	226.49
352.48	226.56
352.87	226.62
353.25	226.68
353.63	226.74
354.01	226.80
354.39	226.88
354.77	226.96
355.15	227.06
355.54	227.11
355.92	227.13
356.30	227.21
356.68	227.36
357.06	227.44
357.44	227.48
357.82	227.54
358.20	227.66
358.58	227.72
358.97	227.78
359.35	227.87
359.73	227.96
360.11	228.00
360.49	228.06
360.87	228.11
361.25	228.18
361.63	228.27
362.01	228.32
362.39	228.35
362.77	228.40
363.15	228.42
363.53	228.46
363.91	228.49
364.29	228.52
364.67	228.42
365.05	228.44
365.43	228.47
365.81	228.51
366.19	228.52
366.57	228.57
366.95	228.57
367.33	228.55
367.71	228.54
368.09	228.56
368.47	228.55
368.85	228.54
369.23	228.55
369.61	228.49
369.99	228.51
370.37	228.51
370.75	228.58
371.13	228.55
371.51	228.51
371.89	228.49
372.27	228.47
372.65	228.45
373.03	228.41
373.41	228.36
373.78	228.31
374.16	228.20
374.54	228.12
374.92	228.07
375.30	228.03
375.68	227.96
376.06	227.91
376.44	227.86
376.82	227.82
377.19	227.77
377.57	227.72
377.95	227.62
378.33	227.56
378.71	227.40
379.09	227.35
379.47	227.32
379.84	227.25
380.22	227.19
380.60	227.12
380.98	227.07
381.36	227.02
381.73	226.96
382.11	226.94
382.49	226.89
382.87	226.83
383.25	226.79
383.62	226.90
384.00	226.83
384.38	226.79
384.76	226.78
385.13	226.78
385.51	226.74
385.89	226.69
386.27	226.65
386.64	226.64
387.02	226.59
387.40	226.54
387.78	226.52
388.15	226.49
388.53	226.46
388.91	226.43
389.29	226.40
389.66	226.39
390.04	226.35
390.42	226.35
390.79	226.34
391.17	226.32
391.55	226.16
391.92	226.15
392.30	226.16
392.68	226.12
393.05	226.09
393.43	226.10
393.81	226.10
394.18	226.09
394.56	226.09
394.94	226.12
395.31	226.12
395.69	226.17
396.06	226.19
396.44	226.22
396.82	226.23
397.19	226.32
397.57	226.33
397.95	226.38
398.32	226.37
398.70	226.42
399.07	226.49
399.45	226.53
399.82	226.57
400.20	226.61
400.58	226.67
400.95	226.68
401.33	226.77
401.70	226.93
402.08	227.03
402.45	227.12
402.83	227.23
403.20	227.35
403.58	227.44
403.95	227.58
404.33	227.73
404.71	227.88
405.08	228.09
405.46	228.25
405.83	228.43
406.21	228.63
406.58	228.85
406.96	229.06
407.33	229.31
407.70	229.59
408.08	229.98
408.45	230.31
408.83	230.67
409.20	231.00
409.58	231.29
409.95	231.70
410.33	232.14
410.70	232.55
411.08	233.03
411.45	233.55
411.82	234.07
412.20	234.67
412.57	235.38
412.95	235.93
413.32	236.66
413.69	237.41
414.07	238.20
414.44	239.06
414.82	239.94
415.19	240.97
415.56	242.01
415.94	243.09
416.31	244.30
416.68	245.52
417.06	246.92
417.43	248.24
417.81	249.76
418.18	251.31
418.55	253.00
418.93	254.76
419.30	256.59
419.67	258.54
420.04	260.53
420.42	262.61
420.79	265.03
421.16	267.45
421.54	269.92
421.91	272.51
422.28	275.19
422.66	278.07
423.03	280.83
423.40	283.72
423.77	286.81
424.15	289.98
424.52	293.28
424.89	296.85
425.26	300.41
425.64	303.71
426.01	307.42
426.38	311.22
426.75	315.13
427.13	319.14
427.50	323.35
427.87	327.72
428.24	332.13
428.61	336.36
428.99	340.96
429.36	345.99
429.73	350.79
430.10	355.60
430.47	360.53
430.85	365.59
431.22	371.04
431.59	376.63
431.96	382.08
432.33	388.15
432.70	393.92
433.08	400.73
433.45	407.18
433.82	413.53
434.19	420.62
434.56	427.62
434.93	434.37
435.30	441.05
435.68	448.60
436.05	455.99
436.42	463.35
436.79	470.07
437.16	477.31
437.53	485.07
437.90	492.84
438.27	500.44
438.64	508.66
439.01	516.10
439.38	522.91
439.75	529.46
440.13	536.84
440.50	543.86
440.87	549.43
441.24	555.53
441.61	562.19
441.98	567.02
442.35	572.75
442.72	578.60
443.09	584.17
443.46	587.67
443.83	590.21
444.20	592.31
444.57	595.49
444.94	597.26
445.31	599.09
445.68	600.64
446.05	601.73
446.42	601.26
446.79	600.59
447.16	599.99
447.53	599.42
447.90	596.94
448.27	594.54
448.64	590.99
449.01	588.48
449.37	583.59
449.74	579.17
450.11	573.51
450.48	567.33
450.85	561.15
451.22	555.87
451.59	550.72
451.96	546.06
452.33	539.32
452.70	533.34
453.07	526.06
453.43	518.80
453.80	511.76
454.17	505.02
454.54	498.83
454.91	491.84
455.28	485.31
455.65	479.15
456.02	472.66
456.38	467.43
456.75	460.71
457.12	455.30
457.49	449.85
457.86	444.71
458.23	440.23
458.59	435.26
458.96	430.17
459.33	425.69
459.70	421.13
460.07	417.68
460.43	413.61
460.80	409.81
461.17	406.53
461.54	402.95
461.91	399.62
462.27	396.22
462.64	393.49
463.01	390.33
463.38	387.15
463.74	384.28
464.11	381.75
464.48	379.49
464.85	377.01
465.21	375.16
465.58	373.07
465.95	370.65
466.32	368.75
466.68	366.87
467.05	364.99
467.42	363.15
467.78	361.15
468.15	359.31
468.52	357.99
468.88	356.18
469.25	354.53
469.62	353.23
469.98	351.80
470.35	350.53
470.72	349.38
471.08	348.20
471.45	347.22
471.82	346.12
472.18	344.94
472.55	344.19
472.92	343.23
473.28	342.48
473.65	341.68
474.02	340.91
474.38	340.26
474.75	339.88
475.11	339.35
475.48	339.10
475.85	338.82
476.21	338.67
476.58	338.57
476.94	338.69
477.31	338.74
477.67	338.82
478.04	339.01
478.41	339.29
478.77	339.70
479.14	339.95
479.50	340.45
479.87	341.09
480.23	341.74
480.60	342.39
480.96	343.03
481.33	344.00
481.69	344.96
482.06	345.92
482.42	346.80
482.79	347.88
483.15	349.15
483.52	350.59
483.88	351.97
484.25	353.45
484.61	354.99
484.98	356.66
485.34	358.54
485.71	360.50
486.07	362.60
486.44	364.69
486.80	367.03
487.17	369.46
487.53	372.12
487.90	374.90
488.26	377.94
488.62	381.14
488.99	384.34
489.35	387.71
489.72	391.36
490.08	395.21
490.44	399.19
490.81	403.32
491.17	407.56
491.54	412.12
491.90	416.82
492.26	421.85
492.63	427.12
492.99	432.62
493.36	438.31
493.72	444.30
494.08	450.44
494.45	456.96
494.81	463.73
495.17	470.68
495.54	478.01
495.90	485.65
496.26	493.46
496.63	501.51
496.99	509.88
497.35	518.64
497.72	527.70
498.08	536.95
498.44	546.53
498.80	556.66
499.17	567.05
499.53	577.77
499.89	588.86
500.26	600.19
500.62	611.79
500.98	624.04
501.34	636.47
501.71	649.42
502.07	662.54
502.43	676.20
502.79	690.10
503.16	704.46
503.52	719.02
503.88	733.99
504.24	749.43
504.60	765.05
504.97	781.19
505.33	797.72
505.69	815.17
506.05	832.94
506.41	850.68
506.78	868.60
507.14	887.02
507.50	905.89
507.86	925.10
508.22	944.56
508.59	963.84
508.95	983.91
509.31	1004.70
509.67	1026.23
510.03	1047.77
510.39	1069.35
510.75	1091.10
511.12	1113.15
511.48	1135.41
511.84	1157.70
512.20	1180.38
512.56	1203.92
512.92	1227.50
513.28	1250.72
513.64	1274.18
514.00	1298.10
514.37	1322.35
514.73	1346.58
515.09	1370.68
515.45	1395.11
515.81	1419.74
516.17	1444.51
516.53	1468.83
516.89	1493.04
517.25	1517.41
517.61	1541.66
517.97	1566.40
518.33	1590.66
518.69	1614.85
519.05	1639.46
519.41	1664.36
519.77	1689.57
520.13	1714.00
520.49	1738.35
520.85	1763.02
521.21	1787.36
521.57	1812.01
521.93	1836.16
522.29	1860.86
522.65	1885.00
523.01	1909.12
523.37	1932.84
523.73	1957.26
524.09	1981.42
524.45	2005.41
524.81	2029.00
525.17	2052.46
525.53	2075.36
525.89	2098.71
526.25	2122.02
526.61	2144.35
526.97	2166.85
527.33	2189.20
527.68	2211.34
528.04	2232.70
528.40	2253.17
528.76	2273.75
529.12	2293.94
529.48	2313.91
529.84	2332.00
530.20	2350.71
530.56	2368.84
530.91	2387.11
531.27	2405.07
531.63	2422.14
531.99	2438.69
532.35	2454.64
532.71	2470.76
533.07	2487.54
533.42	2502.49
533.78	2518.42
534.14	2534.56
534.50	2549.80
534.86	2564.78
535.21	2577.88
535.57	2591.46
535.93	2604.78
536.29	2617.06
536.65	2629.09
537.00	2640.34
537.36	2652.61
537.72	2663.51
538.08	2673.88
538.44	2683.56
538.79	2692.86
539.15	2701.36
539.51	2709.58
539.87	2717.18
540.22	2722.68
540.58	2728.19
540.94	2734.87
541.29	2740.09
541.65	2743.59
542.01	2746.22
542.37	2748.23
542.72	2751.58
543.08	2753.24
543.44	2755.53
543.79	2756.72
544.15	2757.09
544.51	2757.88
544.87	2757.48
545.22	2756.43
545.58	2754.68
545.94	2752.90
546.29	2749.84
546.65	2746.75
547.01	2743.52
547.36	2740.97
547.72	2738.71
548.07	2734.67
548.43	2729.24
548.79	2722.77
549.14	2717.54
549.50	2712.71
549.86	2706.91
550.21	2699.95
550.57	2693.94
550.92	2685.63
551.28	2677.87
551.64	2670.48
551.99	2662.60
552.35	2654.15
552.70	2645.84
553.06	2637.92
553.41	2629.39
553.77	2620.59
554.13	2611.77
554.48	2602.18
554.84	2591.28
555.19	2580.78
555.55	2570.37
555.90	2560.00
556.26	2550.20
556.61	2539.33
556.97	2526.81
557.32	2514.81
557.68	2502.75
558.03	2490.39
558.39	2479.27
558.74	2468.46
559.10	2455.87
559.45	2443.48
559.81	2431.71
560.16	2419.35
560.52	2407.22
560.87	2395.44
561.23	2382.87
561.58	2370.30
561.94	2357.44
562.29	2344.05
562.64	2331.38
563.00	2318.40
563.35	2305.80
563.71	2293.05
564.06	2280.18
564.42	2268.03
564.77	2255.26
565.12	2242.38
565.48	2229.52
565.83	2216.54
566.19	2203.72
566.54	2190.91
566.89	2176.98
567.25	2163.14
567.60	2150.68
567.96	2137.27
568.31	2122.52
568.66	2108.43
569.02	2095.61
569.37	2082.68
569.72	2070.25
570.08	2056.56
570.43	2042.54
570.78	2028.40
571.14	2013.50
571.49	1999.21
571.84	1985.46
572.20	1970.56
572.55	1955.84
572.90	1941.09
573.26	1926.34
573.61	1911.11
573.96	1896.30
574.31	1881.70
574.67	1867.22
575.02	1851.63
575.37	1836.16
575.72	1821.51
576.08	1807.25
576.43	1791.81
576.78	1776.76
577.13	1761.99
577.49	1747.57
577.84	1733.75
578.19	1719.01
578.54	1704.42
578.90	1689.36
579.25	1674.19
579.60	1660.58
579.95	1646.92
580.30	1633.05
580.66	1618.96
581.01	1604.72
581.36	1590.41
581.71	1577.13
582.06	1563.78
582.42	1550.65
582.77	1537.60
583.12	1524.51
583.47	1511.24
583.82	1498.12
584.17	1484.68
584.53	1470.90
584.88	1457.51
585.23	1443.66
585.58	1430.59
585.93	1417.74
586.28	1405.68
586.63	1393.58
586.98	1381.04
587.34	1368.55
587.69	1355.71
588.04	1343.21
588.39	1331.10
588.74	1319.19
589.09	1307.05
589.44	1294.45
589.79	1282.50
590.14	1270.64
590.49	1258.71
590.84	1246.97
591.19	1235.60
591.54	1224.01
591.89	1212.58
592.25	1201.32
592.60	1189.71
592.95	1178.53
593.30	1167.57
593.65	1156.27
594.00	1145.13
594.35	1134.50
594.70	1123.45
595.05	1113.31
595.40	1103.08
595.75	1092.70
596.10	1082.83
596.45	1072.68
596.80	1062.91
597.15	1052.84
597.50	1042.93
597.85	1033.49
598.19	1023.82
598.54	1014.19
598.89	1005.04
599.24	996.21
599.59	987.16
599.94	979.06
600.29	970.73
600.64	962.15
600.99	953.19
601.34	944.59
601.69	935.68
602.04	927.44
602.39	919.02
602.74	910.66
603.08	902.25
603.43	893.79
603.78	885.52
604.13	877.40
604.48	869.32
604.83	861.39
605.18	853.35
605.53	845.48
605.87	837.46
606.22	829.73
606.57	821.93
606.92	814.08
607.27	806.14
607.62	798.49
607.96	791.27
608.31	784.50
608.66	777.51
609.01	770.79
609.36	764.17
609.70	757.35
610.05	750.49
610.40	743.93
610.75	737.34
611.10	731.09
611.44	724.67
611.79	718.35
612.14	711.97
612.49	705.68
612.83	699.69
613.18	693.81
613.53	687.84
613.88	681.90
614.22	676.36
614.57	670.76
614.92	665.04
615.27	659.42
615.61	653.82
615.96	648.30
616.31	642.79
616.65	637.33
617.00	632.09
617.35	626.96
617.70	621.86
618.04	616.83
618.39	611.73
618.74	606.88
619.08	602.06
619.43	597.38
619.78	592.70
620.12	587.96
620.47	583.40
620.82	578.96
621.16	574.56
621.51	570.04
621.85	565.55
622.20	561.22
622.55	556.92
622.89	552.71
623.24	548.50
623.59	544.33
623.93	540.31
624.28	536.40
624.62	532.57
624.97	528.79
625.32	524.97
625.66	521.09
626.01	517.19
626.35	513.36
626.70	509.58
627.04	505.99
627.39	502.33
627.73	498.85
628.08	495.43
628.43	492.01
628.77	488.69
629.12	485.48
629.46	482.31
629.81	479.04
630.15	475.76
630.50	472.57
630.84	469.44
631.19	466.39
631.53	463.43
631.88	460.44
632.22	457.46
632.57	454.78
632.91	452.15
633.26	449.59
633.60	447.05
633.95	444.56
634.29	442.00
634.64	439.50
634.98	436.82
635.32	434.28
635.67	431.93
636.01	429.51
636.36	427.13
636.70	424.90
637.05	422.66
637.39	420.46
637.73	418.30
638.08	416.25
638.42	414.16
638.77	411.93
639.11	409.65
639.45	407.46
639.80	405.20
640.14	403.05
640.49	400.91
640.83	398.72
641.17	396.63
641.52	394.59
641.86	392.57
642.20	390.76
642.55	388.79
642.89	386.85
643.23	385.00
643.58	383.31
643.92	381.49
644.26	379.73
644.61	378.04
644.95	376.30
645.29	374.48
645.64	372.70
645.98	371.01
646.32	369.44
646.66	367.85
647.01	366.29
647.35	364.76
647.69	363.20
648.04	361.79
648.38	360.31
648.72	358.84
649.06	357.38
649.41	355.93
649.75	354.54
650.09	353.16
650.43	351.78
650.78	350.35
651.12	348.97
651.46	347.63
651.80	346.32
652.14	345.04
652.49	343.82
652.83	342.56
653.17	341.35
653.51	340.17
653.85	339.06
654.20	337.90
654.54	336.67
654.88	335.53
655.22	334.40
655.56	333.26
655.90	332.18
656.25	331.15
656.59	330.09
656.93	329.09
657.27	328.10
657.61	327.06
657.95	326.07
658.29	325.07
658.64	324.12
658.98	323.17
659.32	322.24
659.66	321.36
660.00	320.50
660.34	319.64
660.68	318.74
661.02	317.82
661.36	316.93
661.70	316.08
662.05	315.25
662.39	314.44
662.73	313.71
663.07	312.98
663.41	312.20
663.75	311.42
664.09	310.65
664.43	309.84
664.77	309.12
665.11	308.35
665.45	307.64
665.79	306.94
666.13	306.22
666.47	305.48
666.81	304.72
667.15	303.94
667.49	303.26
667.83	302.64
668.17	302.00
668.51	301.39
668.85	300.82
669.19	300.28
669.53	299.63
669.87	298.98
670.21	298.34
670.55	297.74
670.89	297.23
671.23	296.67
671.57	296.11
671.91	295.61
672.25	295.13
672.58	294.65
672.92	294.08
673.26	293.60
673.60	293.12
673.94	292.66
674.28	292.23
674.62	291.76
674.96	291.23
675.30	290.77
675.64	290.28
675.97	289.76
676.31	289.22
676.65	288.74
676.99	288.32
677.33	287.83
677.67	287.37
678.01	286.85
678.34	286.40
678.68	285.98
679.02	285.50
679.36	285.03
679.70	284.56
680.04	284.14
680.37	283.71
680.71	283.29
681.05	282.89
681.39	282.44
681.73	281.98
682.06	281.54
682.40	281.11
682.74	280.74
683.08	280.41
683.42	280.02
683.75	279.66
684.09	279.22
684.43	278.85
684.77	278.46
685.10	278.13
685.44	277.76
685.78	277.39
686.12	277.05
686.45	276.67
686.79	276.28
687.13	275.93
687.46	275.54
687.80	275.18
688.14	274.76
688.48	274.41
688.81	274.06
689.15	273.74
689.49	273.36
689.82	272.99
690.16	272.55
690.50	272.20
690.83	271.83
691.17	271.47
691.51	271.12
691.84	270.79
692.18	270.41
692.52	270.03
692.85	269.67
693.19	269.35
693.52	269.00
693.86	268.66
694.20	268.32
694.53	268.00
694.87	267.64
695.21	267.30
695.54	266.96
695.88	266.62
696.21	266.24
696.55	265.91
696.88	265.58
697.22	265.26
697.56	264.93
697.89	264.56
698.23	264.24
698.56	263.89
698.90	263.57
699.23	263.22
699.57	262.90
699.90	262.56
700.24	262.20
700.58	261.91
700.91	261.63
701.25	261.43
701.58	261.18
701.92	260.91
702.25	260.62
702.59	260.32
702.92	260.02
703.26	259.72
703.59	259.41
703.93	259.22
704.26	258.93
704.60	258.63
704.93	258.34
705.26	258.04
705.60	257.79
705.93	257.47
706.27	257.23
706.60	256.98
706.94	256.75
707.27	256.45
707.61	256.16
707.94	255.85
708.27	255.44
708.61	255.11
708.94	254.80
709.28	254.53
709.61	254.25
709.94	254.01
710.28	253.76
710.61	253.54
710.95	253.18
711.28	253.01
711.61	252.76
711.95	252.54
712.28	252.29
712.61	252.02
712.95	251.86
713.28	251.68
713.61	251.41
713.95	251.12
714.28	250.90
714.61	250.65
714.95	250.42
715.28	250.19
715.61	249.98
715.95	249.77
716.28	249.55
716.61	249.37
716.95	249.13
717.28	248.91
717.61	248.68
717.94	248.47
718.28	248.17
718.61	247.95
718.94	247.71
719.27	247.51
719.61	247.33
719.94	247.08
720.27	246.80
720.60	246.60
720.94	246.41
721.27	246.21
721.60	246.04
721.93	245.84
722.27	245.69
722.60	245.51
722.93	245.30
723.26	245.11
723.59	244.89
723.93	244.71
724.26	244.53
724.59	244.34
724.92	244.17
725.25	244.04
725.59	243.88
725.92	243.73
726.25	243.57
726.58	243.39
726.91	243.22
727.24	243.07
727.57	242.91
727.91	242.72
728.24	242.59
728.57	242.42
728.90	242.28
729.23	242.08
729.56	241.97
729.89	241.81
730.22	241.65
730.55	241.50
730.89	241.34
731.22	241.19
731.55	241.04
731.88	240.89
732.21	240.71
732.54	240.55
732.87	240.41
733.20	240.27
733.53	240.13
733.86	240.00
734.19	239.84
734.52	239.73
734.85	239.68
735.18	239.51
735.51	239.41
735.84	239.28
736.17	239.19
736.50	238.99
736.83	239.02
737.16	238.90
737.49	238.78
737.82	238.65
738.15	238.55
738.48	238.43
738.81	238.30
739.14	238.18
739.47	238.05
739.80	237.92
740.13	237.81
740.46	237.67
740.79	237.53
741.12	237.41
741.45	237.27
741.78	237.08
742.11	237.00
742.44	236.85
742.77	236.75
743.10	236.62
743.43	236.51
743.75	236.26
744.08	236.35
744.41	236.23
744.74	236.12
745.07	235.99
745.40	235.90
745.73	235.86
746.06	235.76
746.39	235.68
746.71	235.58
747.04	235.47
747.37	235.37
747.70	235.30
748.03	235.21
748.36	235.15
748.68	235.05
749.01	234.92
749.34	234.83
749.67	234.74
750.00	234.67
750.33	234.68
750.65	234.59
750.98	234.31
751.31	234.23
751.64	234.15
751.97	234.13
752.29	234.03
752.62	233.88
752.95	233.79
753.28	233.69
753.60	233.60
753.93	233.55
754.26	233.47
754.59	233.34
754.91	233.25
755.24	233.15
755.57	233.13
755.90	233.04
756.22	232.95
756.55	232.85
756.88	232.74
757.20	232.58
757.53	232.46
757.86	232.38
758.19	232.31
758.51	232.23
758.84	232.10
759.17	232.01
759.49	231.95
759.82	231.94
760.15	231.89
760.47	231.82
760.80	231.71
761.13	231.66
761.45	231.60
761.78	231.54
762.11	231.48
762.43	231.35
762.76	231.29
763.08	231.24
763.41	231.19
763.74	231.14
764.06	231.08
764.39	231.03
764.71	230.98
765.04	230.91
765.37	230.84
765.69	230.79
766.02	230.74
766.34	230.68
766.67	230.57
767.00	230.54
767.32	230.56
767.65	230.59
767.97	230.52
768.30	230.48
768.62	230.43
768.95	230.36
769.27	230.31
769.60	230.28
769.92	230.21
770.25	230.14
770.57	230.07
770.90	230.02
771.22	229.97
771.55	229.92
771.87	229.89
772.20	229.84
772.52	229.91
772.85	230.02
773.17	229.98
773.50	229.93
773.82	229.87
774.15	229.76
774.47	229.64
774.80	229.59
775.12	229.55
775.45	229.50
775.77	229.48
776.09	229.45
776.42	229.42
776.74	229.42
777.07	229.39
777.39	229.36
777.72	229.32
778.04	229.31
778.36	229.26
778.69	229.23
779.01	229.21
779.33	229.07
779.66	228.90
779.98	228.86
780.31	228.83
780.63	228.86
780.95	228.85
781.28	228.82
781.60	228.79
781.92	228.76
782.25	228.74
782.57	228.71
782.89	228.68
783.22	228.64
783.54	228.59
783.86	228.57
784.19	228.54
784.51	228.55
784.83	228.51
785.16	228.48
785.48	228.46
785.80	228.43
786.12	228.42
786.45	228.40
786.77	228.39
787.09	228.36
787.42	228.28
787.74	228.26
788.06	228.24
788.38	228.21
788.71	228.19
789.03	228.17
789.35	228.16
789.67	228.13
789.99	228.12
790.32	228.09
790.64	228.08
790.96	228.18
791.28	228.11
791.61	228.09
791.93	228.08
792.25	228.05
792.57	228.12
792.89	228.08
793.21	228.07
793.54	228.04
793.86	228.01
794.18	228.00
794.50	227.96
794.82	227.94
795.14	227.94
795.47	227.94
795.79	227.92
796.11	227.88
796.43	227.86
796.75	227.84
797.07	227.83
797.39	227.80
797.71	227.68
798.04	227.68
798.36	227.67
798.68	227.65
799.00	227.65
799.32	227.57
799.64	227.57
799.96	227.55
800.28	227.56
800.60	227.54
800.92	227.53
801.24	227.51
801.56	227.51
801.89	227.48
802.21	227.47
802.53	227.43
802.85	227.44
803.17	227.48
803.49	227.44
803.81	227.42
804.13	227.39
804.45	227.36
804.77	227.36
805.09	227.34
805.41	227.31
805.73	227.28
806.05	227.23
806.37	227.20
806.69	227.18
807.01	227.15
807.33	227.14
807.65	227.09
807.97	227.13
808.28	227.10
808.60	227.08
808.92	227.05
809.24	227.12
809.56	227.09
809.88	227.03
810.20	227.03
810.52	227.05
810.84	227.02
811.16	227.00
811.48	226.98
811.80	227.01
812.12	227.00
812.43	227.01
812.75	227.01
813.07	226.99
813.39	226.99
813.71	226.97
814.03	226.94
814.35	226.94
814.67	226.88
814.98	226.86
815.30	226.84
815.62	226.82
815.94	226.72
816.26	226.73
816.58	226.69
816.89	226.69
817.21	226.65
817.53	226.66
817.85	226.65
818.17	226.64
818.48	226.58
818.80	226.60
819.12	226.57
819.44	226.54
819.76	226.52
820.07	226.51
820.39	226.50
820.71	226.50
821.03	226.49
821.34	226.48
821.66	226.49
821.98	226.50
822.30	226.49
822.61	226.56
822.93	226.53
823.25	226.53
823.57	226.51
823.88	226.52
824.20	226.51
824.52	226.52
824.83	226.51
825.15	226.49
825.47	226.47
825.79	226.48
826.10	226.47
826.42	226.46
826.74	226.46
827.05	226.45
827.37	226.45
827.69	226.43
828.00	226.43
828.32	226.43
828.64	226.40
828.95	226.46
829.27	226.42
829.58	226.42
829.90	226.44
830.22	226.44
830.53	226.41
830.85	226.40
831.17	226.36
831.48	226.35
831.80	226.35
832.11	226.34
832.43	226.32
832.75	226.31
833.06	226.39
833.38	226.35
833.69	226.34
834.01	226.34
834.32	226.33
834.64	226.32
834.96	226.31
835.27	226.31
835.59	226.26
835.90	226.24
836.22	226.23
836.53	226.20
836.85	226.18
837.16	226.30
837.48	226.30
837.79	226.34
838.11	226.34
838.42	226.34
838.74	226.35
839.05	226.34
839.37	226.33
839.68	226.24
840.00	226.24
840.31	226.26
840.63	226.24
840.94	226.23
841.26	226.21
841.57	226.20
841.88	226.21
842.20	226.19
842.51	226.16
842.83	226.16
843.14	226.27
843.46	226.26
843.77	226.18
844.08	226.18
844.40	226.13
844.71	226.12
845.03	226.10
845.34	226.09
845.65	226.08
845.97	226.09
846.28	226.09
846.60	226.09
846.91	226.07
847.22	226.06
847.54	226.09
847.85	226.10
848.16	226.08
848.48	226.05
848.79	226.10
849.10	226.12
849.42	226.12
849.73	226.00
850.04	226.00
850.36	225.96
850.67	225.97
850.98	225.98
851.30	225.99
851.61	225.98
851.92	225.98
852.23	226.01
852.55	226.02
852.86	226.02
853.17	226.03
853.49	226.05
853.80	226.07
854.11	226.08
854.42	226.09
854.74	226.08
855.05	226.08
855.36	226.01
855.67	226.01
855.99	226.01
856.30	226.16
856.61	226.15
856.92	226.16
857.23	226.16
857.55	226.14
857.86	226.13
858.17	226.15
858.48	226.13
858.79	226.10
859.11	226.10
859.42	226.10
859.73	226.08
860.04	226.07
860.35	226.03
860.66	225.99
860.98	225.98
861.29	226.00
861.60	225.99
861.91	226.02
862.22	226.00
862.53	225.98
862.84	225.83
863.16	225.86
863.47	225.84
863.78	225.82
864.09	225.83
864.40	225.84
864.71	225.84
865.02	225.85
865.33	225.84
865.64	225.81
865.95	225.81
866.27	225.89
866.58	225.88
866.89	225.90
867.20	225.90
867.51	225.88
867.82	225.87
868.13	225.90
868.44	225.87
868.75	225.90
869.06	225.90
869.37	225.92
869.68	225.88
869.99	225.90
870.30	225.91
870.61	225.92
870.92	225.90
871.23	225.88
871.54	225.90
871.85	225.92
872.16	225.94
872.47	225.93
872.78	225.85
873.09	225.86
873.40	225.84
873.71	225.85
874.02	225.86
874.33	225.84
874.64	225.81
874.95	225.84
875.26	225.81
875.56	225.80
875.87	225.79
876.18	225.78
876.49	225.91
876.80	225.89
877.11	225.86
877.42	225.87
877.73	225.88
878.04	225.85
878.35	225.84
878.66	225.85
878.96	225.85
879.27	225.84
879.58	225.83
879.89	225.83
880.20	225.86
880.51	225.86
880.82	225.86
881.12	225.86
881.43	225.84
881.74	225.82
882.05	225.82
882.36	225.83
882.67	225.84
882.97	225.70
883.28	225.69
883.59	225.69
883.90	225.70
884.21	225.71
884.51	225.70
884.82	225.68
885.13	225.68
885.44	225.68
885.74	225.68
886.05	225.67
886.36	225.68
886.67	225.63
886.98	225.69
887.28	225.70
887.59	225.69
887.90	225.70
888.20	225.70
888.51	225.71
888.82	225.69
889.13	225.70
889.43	225.81
889.74	225.80
890.05	225.80
890.35	225.79
890.66	225.77
890.97	225.76
891.28	225.74
891.58	225.74
891.89	225.74
892.20	225.73
892.50	225.71
892.81	225.70
893.12	225.70
893.42	225.64
893.73	225.64
894.04	225.65
894.34	225.65
894.65	225.65
894.95	225.64
895.26	225.65
895.57	225.70
895.87	225.58
896.18	225.60
896.48	225.60
896.79	225.60
897.10	225.62
897.40	225.63
897.71	225.64
898.01	225.63
898.32	225.64
898.63	225.64
898.93	225.65
899.24	225.66
899.54	225.65
899.85	225.64
900.15	225.63
900.46	225.63
900.76	225.64
901.07	225.64
901.38	225.63
901.68	225.64
901.99	225.58
902.29	225.59
902.60	225.58
902.90	225.57
903.21	225.56
903.51	225.55
903.82	225.58
904.12	225.58
904.43	225.59
904.73	225.58
905.03	225.59
905.34	225.71
905.64	225.70
905.95	225.70
906.25	225.70
906.56	225.70
906.86	225.70
907.17	225.68
907.47	225.69
907.77	225.68
908.08	225.66
908.38	225.66
908.69	225.67
908.99	225.69
909.30	225.70
909.60	225.69
909.90	225.70
910.21	225.66
910.51	225.64
910.81	225.64
911.12	225.65
911.42	225.65
911.73	225.52
912.03	225.53
912.33	225.56
912.64	225.54
912.94	225.53
913.24	225.52
913.55	225.51
913.85	225.50
914.15	225.52
914.46	225.54
914.76	225.53
915.06	225.52
915.37	225.50
915.67	225.49
915.97	225.49
916.27	225.47
916.58	225.48
916.88	225.48
917.18	225.46
917.49	225.55
917.79	225.54
918.09	225.55
918.39	225.58
918.70	225.57
919.00	225.58
919.30	225.64
919.60	225.64
919.91	225.62
920.21	225.63
920.51	225.60
920.81	225.59
921.12	225.61
921.42	225.61
921.72	225.62
922.02	225.62
922.32	225.64
922.63	225.64
922.93	225.71
923.23	225.71
923.53	225.70
923.83	225.62
924.13	225.63
924.44	225.63
924.74	225.65
925.04	225.67
925.34	225.67
925.64	225.61
925.94	225.62
926.24	225.69
926.55	225.68
926.85	225.69
927.15	225.69
927.45	225.69
927.75	225.69
928.05	225.69
928.35	225.68
928.65	225.69
928.95	225.70
929.26	225.65
929.56	225.67
929.86	225.68
930.16	225.67
930.46	225.66
930.76	225.66
931.06	225.60
931.36	225.56
931.66	225.58
931.96	225.59
932.26	225.60
932.56	225.55
932.86	225.56
933.16	225.56
933.46	225.55
933.76	225.53
934.06	225.55
934.36	225.60
934.66	225.59
934.96	225.57
935.26	225.58
935.56	225.59
935.86	225.56
936.16	225.54
936.46	225.54
936.76	225.53
937.06	225.52
937.36	225.53
937.66	225.53
937.96	225.52
938.26	225.50
938.56	225.49
938.86	225.50
939.16	225.52
939.46	225.53
939.76	225.54
940.06	225.54
940.35	225.52
940.65	225.45
940.95	225.47
941.25	225.44
941.55	225.42
941.85	225.41
942.15	225.44
942.45	225.48
942.75	225.47
943.04	225.48
943.34	225.51
943.64	225.49
943.94	225.48
944.24	225.48
944.54	225.49
944.84	225.49
945.13	225.47
945.43	225.45
945.73	225.44
946.03	225.43
946.33	225.42
946.62	225.41
946.92	225.41
947.22	225.41
947.52	225.42
947.82	225.43
948.11	225.42
948.41	225.39
948.71	225.35
949.01	225.36
949.31	225.35
949.60	225.33
949.90	225.35
950.20	225.35
950.50	225.34
950.79	225.33
951.09	225.35
951.39	225.34
951.69	225.33
951.98	225.35
952.28	225.36
952.58	225.36
952.87	225.36
953.17	225.38
953.47	225.36
953.76	225.36
954.06	225.34
954.36	225.32
954.66	225.32
954.95	225.36
955.25	225.36
955.55	225.37
955.84	225.35
956.14	225.36
956.44	225.37
956.73	225.35
957.03	225.36
957.32	225.36
957.62	225.35
957.92	225.38
958.21	225.36
958.51	225.50
958.81	225.52
959.10	225.53
959.40	225.56
959.69	225.57
959.99	225.58
960.29	225.59
960.58	225.58
960.88	225.63
961.17	225.62
961.47	225.63
961.76	225.61
962.06	225.64
962.36	225.62
962.65	225.63
962.95	225.64
963.24	225.62
963.54	225.62
963.83	225.63
964.13	225.63
964.42	225.61
964.72	225.50
965.01	225.50
965.31	225.49
965.60	225.46
965.90	225.53
966.19	225.50
966.49	225.51
966.78	225.50
967.08	225.49
967.37	225.49
967.67	225.47
967.96	225.49
968.26	225.48
968.55	225.50
968.85	225.49
969.14	225.49
969.43	225.49
969.73	225.48
970.02	225.47
970.32	225.46
970.61	225.44
970.91	225.41
971.20	225.39
971.49	225.38
971.79	225.40
972.08	225.31
972.38	225.32
972.67	225.31
972.96	225.34
973.26	225.31
973.55	225.35
973.85	225.35
974.14	225.33
974.43	225.34
974.73	225.32
975.02	225.31
975.31	225.31
975.61	225.31
975.90	225.30
976.19	225.29
976.49	225.30
976.78	225.31
977.07	225.31
977.37	225.32
977.66	225.34
977.95	225.32
978.24	225.33
978.54	225.35
978.83	225.35
979.12	225.33
979.42	225.34
979.71	225.31
980.00	225.31
980.29	225.32
980.59	225.29
980.88	225.33
981.17	225.32
981.46	225.32
981.76	225.32
982.05	225.36
982.34	225.37
982.63	225.37
982.93	225.37
983.22	225.40
983.51	225.41
983.80	225.43
984.09	225.45
984.39	225.43
984.68	225.42
984.97	225.42
985.26	225.42
985.55	225.43
985.85	225.41
986.14	225.43
986.43	225.44
986.72	225.44
987.01	225.40
987.30	225.40
987.59	225.39
987.89	225.40
988.18	225.36
988.47	225.35
988.76	225.34
989.05	225.33
989.34	225.31
989.63	225.33
989.92	225.31
990.22	225.30
990.51	225.30
990.80	225.29
991.09	225.30
991.38	225.32
991.67	225.30
991.96	225.29
992.25	225.29
992.54	225.26
992.83	225.27
993.12	225.27
993.41	225.29
993.70	225.34
993.99	225.36
994.28	225.38
994.58	225.41
994.87	225.39
995.16	225.40
995.45	225.39
995.74	225.34
996.03	225.36
996.32	225.38
996.61	225.40
996.90	225.40
997.19	225.39
997.48	225.39
997.77	225.38
998.06	225.39
998.34	225.38
998.63	225.38
998.92	225.38
999.21	225.40
999.50	225.40
999.79	225.36
1000.08	225.35
1000.37	225.35
1000.66	225.33
1000.95	225.36
1001.24	225.37
1001.53	225.39
1001.82	225.39
1002.11	225.36
1002.40	225.37
1002.68	225.39
1002.97	225.48
1003.26	225.47
1003.55	225.44
1003.84	225.45
1004.13	225.50
1004.42	225.49
1004.71	225.49
1004.99	225.48
1005.28	225.51
1005.57	225.50
1005.86	225.48
1006.15	225.47
1006.44	225.45
1006.72	225.47
1007.01	225.45
1007.30	225.45
1007.59	225.43
1007.88	225.43
1008.17	225.44
1008.45	225.42
1008.74	225.36
1009.03	225.31
1009.32	225.31
1009.60	225.31
1009.89	225.30
1010.18	225.24
1010.47	225.24
1010.76	225.23
1011.04	225.23
1011.33	225.23
1011.62	225.24
1011.91	225.25
1012.19	225.25
1012.48	225.26
1012.77	225.25
1013.05	225.30
1013.34	225.30
1013.63	225.29
1013.92	225.30
1014.20	225.29
1014.49	225.30
1014.78	225.31
1015.06	225.27
1015.35	225.28
1015.64	225.29
1015.92	225.31
1016.21	225.33
1016.50	225.33
1016.78	225.34
1017.07	225.36
1017.36	225.33
1017.64	225.31
1017.93	225.32
1018.22	225.31
1018.50	225.31
1018.79	225.31
1019.08	225.26
1019.36	225.27
1019.65	225.25
1019.93	225.28
1020.22	225.30
1020.51	225.36
1020.79	225.35
1021.08	225.12
1021.36	225.09
1021.65	225.29
1021.94	225.20
1022.22	225.38
1022.51	225.04
1022.79	225.91
1023.08	225.42
1023.36	226.79
1023.65	225.03
>>>>>End Processed Spectral Data<<<<<
