SpectraSuite Data File
++++++++++++++++++++++++++++++++++++
Date: Sat Oct 03 17:32:07 EDT 2015
User: lab3
Dark Spectrum Present: No
Reference Spectrum Present: No
Number of Sampled Component Spectra: 1
Spectrometers: USB2E7196
Integration Time (usec): 46000 (USB2E7196)
Spectra Averaged: 24000 (USB2E7196)
Boxcar Smoothing: 10 (USB2E7196)
Correct for Electrical Dark: No (USB2E7196)
Strobe/Lamp Enabled: No (USB2E7196)
Correct for Detector Non-linearity: No (USB2E7196)
Correct for Stray Light: No (USB2E7196)
Number of Pixels in Processed Spectrum: 2048
>>>>>Begin Processed Spectral Data<<<<<
339.09	0.00
339.48	213.31
339.86	214.82
340.24	216.15
340.63	217.57
341.01	220.89
341.39	220.29
341.78	221.72
342.16	222.91
342.54	223.34
342.93	211.81
343.31	222.51
343.69	223.05
344.07	223.51
344.46	223.94
344.84	224.33
345.22	224.55
345.60	224.81
345.99	225.00
346.37	225.14
346.75	225.25
347.13	225.32
347.52	225.39
347.90	225.49
348.28	225.52
348.66	225.58
349.05	225.58
349.43	225.63
349.81	225.69
350.19	225.75
350.57	225.82
350.96	225.90
351.34	226.00
351.72	226.10
352.10	226.20
352.48	226.27
352.87	226.33
353.25	226.39
353.63	226.45
354.01	226.52
354.39	226.59
354.77	226.67
355.15	226.78
355.54	226.83
355.92	226.86
356.30	226.93
356.68	227.08
357.06	227.16
357.44	227.21
357.82	227.27
358.20	227.39
358.58	227.45
358.97	227.51
359.35	227.59
359.73	227.67
360.11	227.73
360.49	227.79
360.87	227.84
361.25	227.90
361.63	227.99
362.01	228.04
362.39	228.07
362.77	228.12
363.15	228.14
363.53	228.18
363.91	228.21
364.29	228.24
364.67	228.14
365.05	228.16
365.43	228.19
365.81	228.22
366.19	228.24
366.57	228.30
366.95	228.30
367.33	228.27
367.71	228.27
368.09	228.29
368.47	228.28
368.85	228.27
369.23	228.28
369.61	228.22
369.99	228.24
370.37	228.24
370.75	228.32
371.13	228.28
371.51	228.24
371.89	228.22
372.27	228.20
372.65	228.19
373.03	228.14
373.41	228.10
373.78	228.05
374.16	227.94
374.54	227.86
374.92	227.81
375.30	227.77
375.68	227.70
376.06	227.66
376.44	227.60
376.82	227.56
377.19	227.51
377.57	227.46
377.95	227.37
378.33	227.31
378.71	227.15
379.09	227.10
379.47	227.07
379.84	227.01
380.22	226.94
380.60	226.87
380.98	226.82
381.36	226.77
381.73	226.71
382.11	226.69
382.49	226.65
382.87	226.59
383.25	226.55
383.62	226.66
384.00	226.59
384.38	226.55
384.76	226.54
385.13	226.54
385.51	226.50
385.89	226.44
386.27	226.41
386.64	226.39
387.02	226.35
387.40	226.30
387.78	226.28
388.15	226.26
388.53	226.23
388.91	226.20
389.29	226.16
389.66	226.16
390.04	226.12
390.42	226.12
390.79	226.10
391.17	226.09
391.55	225.93
391.92	225.92
392.30	225.92
392.68	225.88
393.05	225.86
393.43	225.86
393.81	225.87
394.18	225.85
394.56	225.85
394.94	225.89
395.31	225.89
395.69	225.93
396.06	225.96
396.44	225.99
396.82	226.00
397.19	226.09
397.57	226.10
397.95	226.15
398.32	226.14
398.70	226.19
399.07	226.26
399.45	226.30
399.82	226.34
400.20	226.38
400.58	226.44
400.95	226.45
401.33	226.54
401.70	226.70
402.08	226.80
402.45	226.89
402.83	227.01
403.20	227.13
403.58	227.22
403.95	227.37
404.33	227.52
404.71	227.67
405.08	227.89
405.46	228.06
405.83	228.25
406.21	228.46
406.58	228.69
406.96	228.91
407.33	229.18
407.70	229.47
408.08	229.87
408.45	230.22
408.83	230.59
409.20	230.94
409.58	231.24
409.95	231.67
410.33	232.13
410.70	232.56
411.08	233.08
411.45	233.62
411.82	234.17
412.20	234.80
412.57	235.54
412.95	236.13
413.32	236.89
413.69	237.68
414.07	238.51
414.44	239.41
414.82	240.33
415.19	241.42
415.56	242.51
415.94	243.65
416.31	244.92
416.68	246.20
417.06	247.68
417.43	249.07
417.81	250.66
418.18	252.29
418.55	254.06
418.93	255.91
419.30	257.84
419.67	259.89
420.04	261.98
420.42	264.17
420.79	266.71
421.16	269.27
421.54	271.86
421.91	274.58
422.28	277.40
422.66	280.43
423.03	283.33
423.40	286.37
423.77	289.63
424.15	292.98
424.52	296.46
424.89	300.22
425.26	303.97
425.64	307.44
426.01	311.36
426.38	315.36
426.75	319.48
427.13	323.71
427.50	328.13
427.87	332.74
428.24	337.39
428.61	341.85
428.99	346.68
429.36	351.98
429.73	357.05
430.10	362.12
430.47	367.30
430.85	372.64
431.22	378.37
431.59	384.25
431.96	389.99
432.33	396.37
432.70	402.44
433.08	409.60
433.45	416.38
433.82	423.07
434.19	430.52
434.56	437.87
434.93	444.98
435.30	452.00
435.68	459.95
436.05	467.73
436.42	475.48
436.79	482.56
437.16	490.18
437.53	498.37
437.90	506.56
438.27	514.57
438.64	523.23
439.01	531.07
439.38	538.25
439.75	545.16
440.13	552.95
440.50	560.35
440.87	566.23
441.24	572.66
441.61	579.66
441.98	584.78
442.35	590.84
442.72	597.02
443.09	602.91
443.46	606.62
443.83	609.33
444.20	611.58
444.57	614.95
444.94	616.84
445.31	618.79
445.68	620.42
446.05	621.60
446.42	621.13
446.79	620.47
447.16	619.88
447.53	619.32
447.90	616.74
448.27	614.25
448.64	610.55
449.01	607.94
449.37	602.84
449.74	598.23
450.11	592.29
450.48	585.80
450.85	579.32
451.22	573.78
451.59	568.38
451.96	563.50
452.33	556.42
452.70	550.14
453.07	542.49
453.43	534.87
453.80	527.48
454.17	520.40
454.54	513.89
454.91	506.52
455.28	499.64
455.65	493.14
456.02	486.29
456.38	480.78
456.75	473.70
457.12	468.00
457.49	462.24
457.86	456.83
458.23	452.11
458.59	446.86
458.96	441.47
459.33	436.74
459.70	431.91
460.07	428.25
460.43	423.95
460.80	419.93
461.17	416.45
461.54	412.65
461.91	409.11
462.27	405.50
462.64	402.61
463.01	399.26
463.38	395.90
463.74	392.87
464.11	390.19
464.48	387.78
464.85	385.15
465.21	383.17
465.58	380.95
465.95	378.38
466.32	376.36
466.68	374.38
467.05	372.38
467.42	370.43
467.78	368.30
468.15	366.35
468.52	364.93
468.88	363.01
469.25	361.26
469.62	359.87
469.98	358.34
470.35	356.98
470.72	355.75
471.08	354.49
471.45	353.44
471.82	352.26
472.18	351.01
472.55	350.20
472.92	349.18
473.28	348.37
473.65	347.51
474.02	346.68
474.38	345.98
474.75	345.56
475.11	344.98
475.48	344.69
475.85	344.39
476.21	344.21
476.58	344.08
476.94	344.19
477.31	344.23
477.67	344.30
478.04	344.48
478.41	344.75
478.77	345.17
479.14	345.41
479.50	345.91
479.87	346.57
480.23	347.24
480.60	347.90
480.96	348.56
481.33	349.55
481.69	350.54
482.06	351.53
482.42	352.43
482.79	353.56
483.15	354.87
483.52	356.36
483.88	357.79
484.25	359.32
484.61	360.92
484.98	362.65
485.34	364.59
485.71	366.63
486.07	368.81
486.44	370.99
486.80	373.42
487.17	375.94
487.53	378.70
487.90	381.59
488.26	384.74
488.62	388.06
488.99	391.39
489.35	394.89
489.72	398.68
490.08	402.68
490.44	406.80
490.81	411.09
491.17	415.48
491.54	420.20
491.90	425.07
492.26	430.28
492.63	435.74
492.99	441.44
493.36	447.33
493.72	453.54
494.08	459.90
494.45	466.65
494.81	473.66
495.17	480.86
495.54	488.47
495.90	496.38
496.26	504.47
496.63	512.82
496.99	521.48
497.35	530.54
497.72	539.91
498.08	549.47
498.44	559.36
498.80	569.84
499.17	580.58
499.53	591.66
499.89	603.11
500.26	614.80
500.62	626.78
500.98	639.40
501.34	652.21
501.71	665.54
502.07	679.07
502.43	693.14
502.79	707.44
503.16	722.21
503.52	737.14
503.88	752.53
504.24	768.38
504.60	784.45
504.97	801.01
505.33	817.99
505.69	835.91
506.05	854.17
506.41	872.37
506.78	890.76
507.14	909.66
507.50	928.99
507.86	948.69
508.22	968.62
508.59	988.36
508.95	1008.90
509.31	1030.17
509.67	1052.20
510.03	1074.24
510.39	1096.32
510.75	1118.55
511.12	1141.09
511.48	1163.81
511.84	1186.51
512.20	1209.60
512.56	1233.64
512.92	1257.71
513.28	1281.31
513.64	1305.19
514.00	1329.53
514.37	1354.23
514.73	1378.86
515.09	1403.35
515.45	1428.18
515.81	1453.19
516.17	1478.25
516.53	1502.89
516.89	1527.39
517.25	1552.05
517.61	1576.52
517.97	1601.45
518.33	1625.94
518.69	1650.38
519.05	1675.25
519.41	1700.43
519.77	1725.86
520.13	1750.46
520.49	1775.01
520.85	1799.89
521.21	1824.39
521.57	1849.22
521.93	1873.43
522.29	1898.24
522.65	1922.48
523.01	1946.68
523.37	1970.47
523.73	1995.08
524.09	2019.27
524.45	2043.24
524.81	2066.86
525.17	2090.40
525.53	2113.32
525.89	2136.66
526.25	2160.02
526.61	2182.36
526.97	2204.81
527.33	2227.17
527.68	2249.33
528.04	2270.60
528.40	2290.94
528.76	2311.45
529.12	2331.47
529.48	2351.28
529.84	2369.14
530.20	2387.70
530.56	2405.63
530.91	2423.71
531.27	2441.42
531.63	2458.25
531.99	2474.69
532.35	2490.35
532.71	2506.15
533.07	2522.57
533.42	2537.24
533.78	2552.80
534.14	2568.65
534.50	2583.55
534.86	2598.16
535.21	2610.73
535.57	2623.89
535.93	2636.90
536.29	2648.73
536.65	2660.31
537.00	2671.06
537.36	2682.85
537.72	2693.35
538.08	2703.23
538.44	2712.39
538.79	2721.15
539.15	2729.21
539.51	2736.86
539.87	2743.92
540.22	2748.90
540.58	2754.02
540.94	2760.25
541.29	2764.97
541.65	2767.88
542.01	2770.03
542.37	2771.56
542.72	2774.47
543.08	2775.61
543.44	2777.33
543.79	2778.05
544.15	2777.96
544.51	2778.29
544.87	2777.51
545.22	2775.83
545.58	2773.51
545.94	2771.16
546.29	2767.53
546.65	2763.89
547.01	2760.19
547.36	2757.25
547.72	2754.53
548.07	2750.01
548.43	2744.06
548.79	2737.01
549.14	2731.27
549.50	2725.86
549.86	2719.44
550.21	2711.87
550.57	2705.32
550.92	2696.39
551.28	2687.97
551.64	2680.01
551.99	2671.64
552.35	2662.59
552.70	2653.88
553.06	2645.47
553.41	2636.45
553.77	2627.29
554.13	2618.06
554.48	2607.92
554.84	2596.52
555.19	2585.49
555.55	2574.60
555.90	2563.81
556.26	2553.70
556.61	2542.35
556.97	2529.34
557.32	2516.79
557.68	2504.32
558.03	2491.55
558.39	2480.07
558.74	2468.93
559.10	2455.99
559.45	2443.24
559.81	2431.11
560.16	2418.26
560.52	2405.79
560.87	2393.74
561.23	2380.80
561.58	2367.84
561.94	2354.66
562.29	2340.86
562.64	2327.86
563.00	2314.59
563.35	2301.62
563.71	2288.45
564.06	2275.28
564.42	2262.90
564.77	2250.01
565.12	2236.94
565.48	2223.81
565.83	2210.58
566.19	2197.52
566.54	2184.42
566.89	2170.22
567.25	2156.12
567.60	2143.53
567.96	2130.00
568.31	2115.03
568.66	2100.74
569.02	2087.70
569.37	2074.62
569.72	2062.09
570.08	2048.27
570.43	2034.02
570.78	2019.71
571.14	2004.69
571.49	1990.26
571.84	1976.43
572.20	1961.40
572.55	1946.57
572.90	1931.68
573.26	1916.92
573.61	1901.61
573.96	1886.72
574.31	1872.08
574.67	1857.58
575.02	1841.91
575.37	1826.39
575.72	1811.72
576.08	1797.33
576.43	1781.84
576.78	1766.79
577.13	1751.97
577.49	1737.49
577.84	1723.65
578.19	1708.86
578.54	1694.20
578.90	1679.07
579.25	1663.83
579.60	1650.23
579.95	1636.50
580.30	1622.58
580.66	1608.34
581.01	1594.08
581.36	1579.85
581.71	1566.57
582.06	1553.20
582.42	1540.07
582.77	1526.96
583.12	1513.90
583.47	1500.74
583.82	1487.68
584.17	1474.20
584.53	1460.45
584.88	1447.07
585.23	1433.30
585.58	1420.30
585.93	1407.49
586.28	1395.43
586.63	1383.32
586.98	1370.73
587.34	1358.24
587.69	1345.50
588.04	1333.08
588.39	1321.00
588.74	1309.04
589.09	1296.90
589.44	1284.31
589.79	1272.37
590.14	1260.51
590.49	1248.54
590.84	1236.74
591.19	1225.35
591.54	1213.79
591.89	1202.35
592.25	1191.14
592.60	1179.54
592.95	1168.35
593.30	1157.44
593.65	1146.24
594.00	1135.17
594.35	1124.67
594.70	1113.72
595.05	1103.60
595.40	1093.38
595.75	1082.99
596.10	1073.15
596.45	1063.07
596.80	1053.34
597.15	1043.35
597.50	1033.52
597.85	1024.10
598.19	1014.50
598.54	1004.92
598.89	995.84
599.24	987.07
599.59	978.07
599.94	969.97
600.29	961.68
600.64	953.11
600.99	944.19
601.34	935.59
601.69	926.66
602.04	918.43
602.39	910.00
602.74	901.68
603.08	893.29
603.43	884.88
603.78	876.63
604.13	868.51
604.48	860.41
604.83	852.48
605.18	844.51
605.53	836.70
605.87	828.73
606.22	821.00
606.57	813.25
606.92	805.42
607.27	797.51
607.62	789.91
607.96	782.71
608.31	775.95
608.66	769.01
609.01	762.33
609.36	755.75
609.70	749.00
610.05	742.20
610.40	735.68
610.75	729.13
611.10	722.92
611.44	716.57
611.79	710.33
612.14	704.00
612.49	697.74
612.83	691.77
613.18	685.94
613.53	680.04
613.88	674.13
614.22	668.61
614.57	663.06
614.92	657.36
615.27	651.76
615.61	646.22
615.96	640.74
616.31	635.28
616.65	629.85
617.00	624.61
617.35	619.52
617.70	614.44
618.04	609.44
618.39	604.34
618.74	599.47
619.08	594.65
619.43	589.96
619.78	585.28
620.12	580.58
620.47	576.02
620.82	571.57
621.16	567.17
621.51	562.66
621.85	558.18
622.20	553.88
622.55	549.63
622.89	545.44
623.24	541.27
623.59	537.11
623.93	533.12
624.28	529.25
624.62	525.45
624.97	521.70
625.32	517.91
625.66	514.08
626.01	510.23
626.35	506.43
626.70	502.68
627.04	499.12
627.39	495.47
627.73	492.01
628.08	488.64
628.43	485.26
628.77	481.95
629.12	478.77
629.46	475.62
629.81	472.35
630.15	469.07
630.50	465.90
630.84	462.80
631.19	459.74
631.53	456.77
631.88	453.77
632.22	450.79
632.57	448.10
632.91	445.44
633.26	442.87
633.60	440.32
633.95	437.82
634.29	435.24
634.64	432.73
634.98	430.03
635.32	427.46
635.67	425.09
636.01	422.66
636.36	420.26
636.70	417.99
637.05	415.74
637.39	413.53
637.73	411.33
638.08	409.24
638.42	407.14
638.77	404.91
639.11	402.63
639.45	400.43
639.80	398.17
640.14	396.02
640.49	393.85
640.83	391.67
641.17	389.58
641.52	387.53
641.86	385.52
642.20	383.70
642.55	381.73
642.89	379.79
643.23	377.94
643.58	376.25
643.92	374.44
644.26	372.68
644.61	370.98
644.95	369.24
645.29	367.44
645.64	365.65
645.98	363.96
646.32	362.38
646.66	360.79
647.01	359.23
647.35	357.72
647.69	356.18
648.04	354.77
648.38	353.28
648.72	351.80
649.06	350.34
649.41	348.89
649.75	347.49
650.09	346.11
650.43	344.74
650.78	343.32
651.12	341.94
651.46	340.61
651.80	339.31
652.14	338.03
652.49	336.80
652.83	335.55
653.17	334.34
653.51	333.16
653.85	332.04
654.20	330.87
654.54	329.63
654.88	328.48
655.22	327.36
655.56	326.24
655.90	325.18
656.25	324.15
656.59	323.10
656.93	322.11
657.27	321.13
657.61	320.10
657.95	319.13
658.29	318.14
658.64	317.21
658.98	316.26
659.32	315.35
659.66	314.48
660.00	313.64
660.34	312.80
660.68	311.93
661.02	311.03
661.36	310.17
661.70	309.36
662.05	308.56
662.39	307.77
662.73	307.05
663.07	306.35
663.41	305.59
663.75	304.83
664.09	304.08
664.43	303.30
664.77	302.59
665.11	301.84
665.45	301.16
665.79	300.48
666.13	299.78
666.47	299.06
666.81	298.33
667.15	297.57
667.49	296.91
667.83	296.31
668.17	295.69
668.51	295.11
668.85	294.55
669.19	294.03
669.53	293.40
669.87	292.78
670.21	292.16
670.55	291.61
670.89	291.12
671.23	290.59
671.57	290.07
671.91	289.59
672.25	289.14
672.58	288.69
672.92	288.16
673.26	287.70
673.60	287.25
673.94	286.82
674.28	286.43
674.62	285.99
674.96	285.50
675.30	285.07
675.64	284.61
675.97	284.13
676.31	283.63
676.65	283.19
676.99	282.81
677.33	282.36
677.67	281.93
678.01	281.44
678.34	281.03
678.68	280.64
679.02	280.19
679.36	279.75
679.70	279.31
680.04	278.92
680.37	278.52
680.71	278.13
681.05	277.76
681.39	277.35
681.73	276.93
682.06	276.52
682.40	276.13
682.74	275.79
683.08	275.50
683.42	275.14
683.75	274.82
684.09	274.41
684.43	274.07
684.77	273.72
685.10	273.42
685.44	273.09
685.78	272.75
686.12	272.45
686.45	272.11
686.79	271.76
687.13	271.45
687.46	271.10
687.80	270.78
688.14	270.41
688.48	270.09
688.81	269.78
689.15	269.50
689.49	269.17
689.82	268.83
690.16	268.43
690.50	268.12
690.83	267.79
691.17	267.47
691.51	267.15
691.84	266.85
692.18	266.51
692.52	266.17
692.85	265.85
693.19	265.57
693.52	265.26
693.86	264.95
694.20	264.64
694.53	264.36
694.87	264.03
695.21	263.73
695.54	263.43
695.88	263.12
696.21	262.78
696.55	262.49
696.88	262.20
697.22	261.92
697.56	261.62
697.89	261.29
698.23	261.01
698.56	260.69
698.90	260.41
699.23	260.09
699.57	259.80
699.90	259.50
700.24	259.18
700.58	258.92
700.91	258.68
701.25	258.51
701.58	258.29
701.92	258.05
702.25	257.80
702.59	257.51
702.92	257.26
703.26	256.99
703.59	256.71
703.93	256.54
704.26	256.28
704.60	256.02
704.93	255.75
705.26	255.47
705.60	255.25
705.93	254.97
706.27	254.76
706.60	254.55
706.94	254.35
707.27	254.07
707.61	253.80
707.94	253.53
708.27	253.15
708.61	252.83
708.94	252.56
709.28	252.31
709.61	252.06
709.94	251.83
710.28	251.61
710.61	251.41
710.95	251.07
711.28	250.92
711.61	250.69
711.95	250.51
712.28	250.27
712.61	250.02
712.95	249.87
713.28	249.71
713.61	249.46
713.95	249.19
714.28	249.00
714.61	248.77
714.95	248.56
715.28	248.35
715.61	248.16
715.95	247.97
716.28	247.78
716.61	247.62
716.95	247.40
717.28	247.19
717.61	246.98
717.94	246.79
718.28	246.50
718.61	246.30
718.94	246.08
719.27	245.89
719.61	245.72
719.94	245.50
720.27	245.23
720.60	245.04
720.94	244.86
721.27	244.68
721.60	244.52
721.93	244.34
722.27	244.20
722.60	244.03
722.93	243.84
723.26	243.66
723.59	243.45
723.93	243.29
724.26	243.12
724.59	242.95
724.92	242.78
725.25	242.67
725.59	242.51
725.92	242.38
726.25	242.22
726.58	242.06
726.91	241.90
727.24	241.77
727.57	241.62
727.91	241.45
728.24	241.32
728.57	241.16
728.90	241.03
729.23	240.84
729.56	240.75
729.89	240.60
730.22	240.44
730.55	240.30
730.89	240.16
731.22	240.01
731.55	239.87
731.88	239.73
732.21	239.56
732.54	239.42
732.87	239.28
733.20	239.15
733.53	239.02
733.86	238.90
734.19	238.76
734.52	238.65
734.85	238.61
735.18	238.45
735.51	238.36
735.84	238.24
736.17	238.15
736.50	237.97
736.83	238.00
737.16	237.89
737.49	237.78
737.82	237.66
738.15	237.57
738.48	237.46
738.81	237.34
739.14	237.22
739.47	237.10
739.80	236.97
740.13	236.87
740.46	236.74
740.79	236.61
741.12	236.50
741.45	236.36
741.78	236.18
742.11	236.11
742.44	235.97
742.77	235.88
743.10	235.75
743.43	235.64
743.75	235.41
744.08	235.50
744.41	235.39
744.74	235.28
745.07	235.15
745.40	235.08
745.73	235.04
746.06	234.95
746.39	234.88
746.71	234.78
747.04	234.67
747.37	234.59
747.70	234.52
748.03	234.44
748.36	234.37
748.68	234.28
749.01	234.16
749.34	234.07
749.67	233.99
750.00	233.92
750.33	233.93
750.65	233.85
750.98	233.58
751.31	233.50
751.64	233.43
751.97	233.42
752.29	233.33
752.62	233.19
752.95	233.10
753.28	233.00
753.60	232.92
753.93	232.87
754.26	232.80
754.59	232.68
754.91	232.59
755.24	232.50
755.57	232.48
755.90	232.41
756.22	232.32
756.55	232.22
756.88	232.12
757.20	231.96
757.53	231.85
757.86	231.78
758.19	231.72
758.51	231.64
758.84	231.50
759.17	231.42
759.49	231.36
759.82	231.35
760.15	231.30
760.47	231.23
760.80	231.13
761.13	231.09
761.45	231.03
761.78	230.97
762.11	230.92
762.43	230.79
762.76	230.73
763.08	230.69
763.41	230.64
763.74	230.59
764.06	230.53
764.39	230.48
764.71	230.43
765.04	230.36
765.37	230.30
765.69	230.25
766.02	230.19
766.34	230.13
766.67	230.03
767.00	230.01
767.32	230.03
767.65	230.06
767.97	230.00
768.30	229.96
768.62	229.91
768.95	229.85
769.27	229.80
769.60	229.77
769.92	229.70
770.25	229.64
770.57	229.57
770.90	229.53
771.22	229.47
771.55	229.43
771.87	229.39
772.20	229.35
772.52	229.42
772.85	229.53
773.17	229.50
773.50	229.45
773.82	229.39
774.15	229.29
774.47	229.17
774.80	229.12
775.12	229.07
775.45	229.04
775.77	229.01
776.09	228.98
776.42	228.95
776.74	228.96
777.07	228.93
777.39	228.90
777.72	228.86
778.04	228.85
778.36	228.81
778.69	228.79
779.01	228.77
779.33	228.62
779.66	228.45
779.98	228.41
780.31	228.39
780.63	228.42
780.95	228.41
781.28	228.38
781.60	228.35
781.92	228.32
782.25	228.30
782.57	228.27
782.89	228.24
783.22	228.20
783.54	228.15
783.86	228.13
784.19	228.10
784.51	228.12
784.83	228.07
785.16	228.05
785.48	228.02
785.80	228.00
786.12	227.99
786.45	227.96
786.77	227.95
787.09	227.92
787.42	227.85
787.74	227.83
788.06	227.82
788.38	227.79
788.71	227.77
789.03	227.75
789.35	227.75
789.67	227.71
789.99	227.70
790.32	227.67
790.64	227.66
790.96	227.76
791.28	227.70
791.61	227.68
791.93	227.67
792.25	227.64
792.57	227.72
792.89	227.68
793.21	227.67
793.54	227.64
793.86	227.61
794.18	227.60
794.50	227.56
794.82	227.54
795.14	227.54
795.47	227.54
795.79	227.53
796.11	227.48
796.43	227.46
796.75	227.44
797.07	227.44
797.39	227.41
797.71	227.29
798.04	227.28
798.36	227.28
798.68	227.25
799.00	227.25
799.32	227.17
799.64	227.18
799.96	227.16
800.28	227.16
800.60	227.15
800.92	227.14
801.24	227.12
801.56	227.12
801.89	227.09
802.21	227.07
802.53	227.04
802.85	227.06
803.17	227.10
803.49	227.06
803.81	227.04
804.13	227.02
804.45	226.99
804.77	226.99
805.09	226.97
805.41	226.95
805.73	226.92
806.05	226.87
806.37	226.84
806.69	226.82
807.01	226.79
807.33	226.79
807.65	226.73
807.97	226.78
808.28	226.75
808.60	226.74
808.92	226.71
809.24	226.78
809.56	226.75
809.88	226.69
810.20	226.69
810.52	226.70
810.84	226.67
811.16	226.65
811.48	226.63
811.80	226.67
812.12	226.65
812.43	226.67
812.75	226.67
813.07	226.64
813.39	226.64
813.71	226.62
814.03	226.60
814.35	226.60
814.67	226.53
814.98	226.51
815.30	226.50
815.62	226.47
815.94	226.38
816.26	226.38
816.58	226.35
816.89	226.35
817.21	226.31
817.53	226.32
817.85	226.31
818.17	226.30
818.48	226.24
818.80	226.26
819.12	226.23
819.44	226.21
819.76	226.18
820.07	226.18
820.39	226.17
820.71	226.17
821.03	226.17
821.34	226.15
821.66	226.16
821.98	226.17
822.30	226.16
822.61	226.24
822.93	226.21
823.25	226.20
823.57	226.18
823.88	226.19
824.20	226.17
824.52	226.19
824.83	226.18
825.15	226.16
825.47	226.14
825.79	226.15
826.10	226.14
826.42	226.13
826.74	226.13
827.05	226.12
827.37	226.12
827.69	226.11
828.00	226.11
828.32	226.10
828.64	226.08
828.95	226.14
829.27	226.10
829.58	226.10
829.90	226.11
830.22	226.12
830.53	226.09
830.85	226.08
831.17	226.04
831.48	226.03
831.80	226.04
832.11	226.03
832.43	226.00
832.75	226.00
833.06	226.07
833.38	226.03
833.69	226.03
834.01	226.02
834.32	226.01
834.64	226.00
834.96	225.99
835.27	225.99
835.59	225.94
835.90	225.91
836.22	225.90
836.53	225.87
836.85	225.85
837.16	225.98
837.48	225.98
837.79	226.02
838.11	226.02
838.42	226.01
838.74	226.02
839.05	226.01
839.37	226.01
839.68	225.92
840.00	225.92
840.31	225.93
840.63	225.92
840.94	225.90
841.26	225.89
841.57	225.88
841.88	225.89
842.20	225.87
842.51	225.84
842.83	225.84
843.14	225.96
843.46	225.95
843.77	225.87
844.08	225.86
844.40	225.81
844.71	225.80
845.03	225.78
845.34	225.77
845.65	225.76
845.97	225.76
846.28	225.77
846.60	225.77
846.91	225.75
847.22	225.74
847.54	225.77
847.85	225.77
848.16	225.76
848.48	225.73
848.79	225.78
849.10	225.80
849.42	225.80
849.73	225.68
850.04	225.68
850.36	225.63
850.67	225.65
850.98	225.65
851.30	225.66
851.61	225.66
851.92	225.66
852.23	225.69
852.55	225.70
852.86	225.70
853.17	225.71
853.49	225.74
853.80	225.76
854.11	225.76
854.42	225.77
854.74	225.76
855.05	225.76
855.36	225.70
855.67	225.70
855.99	225.70
856.30	225.85
856.61	225.84
856.92	225.85
857.23	225.85
857.55	225.83
857.86	225.82
858.17	225.84
858.48	225.81
858.79	225.78
859.11	225.79
859.42	225.78
859.73	225.76
860.04	225.75
860.35	225.71
860.66	225.67
860.98	225.66
861.29	225.68
861.60	225.67
861.91	225.70
862.22	225.68
862.53	225.65
862.84	225.50
863.16	225.53
863.47	225.51
863.78	225.49
864.09	225.50
864.40	225.50
864.71	225.50
865.02	225.52
865.33	225.50
865.64	225.48
865.95	225.48
866.27	225.56
866.58	225.55
866.89	225.56
867.20	225.56
867.51	225.54
867.82	225.53
868.13	225.57
868.44	225.54
868.75	225.56
869.06	225.57
869.37	225.58
869.68	225.55
869.99	225.57
870.30	225.58
870.61	225.59
870.92	225.57
871.23	225.56
871.54	225.57
871.85	225.60
872.16	225.62
872.47	225.60
872.78	225.53
873.09	225.54
873.40	225.52
873.71	225.53
874.02	225.54
874.33	225.53
874.64	225.50
874.95	225.52
875.26	225.49
875.56	225.49
875.87	225.48
876.18	225.47
876.49	225.59
876.80	225.58
877.11	225.55
877.42	225.55
877.73	225.56
878.04	225.53
878.35	225.53
878.66	225.53
878.96	225.53
879.27	225.52
879.58	225.52
879.89	225.51
880.20	225.54
880.51	225.54
880.82	225.54
881.12	225.54
881.43	225.52
881.74	225.50
882.05	225.50
882.36	225.50
882.67	225.52
882.97	225.38
883.28	225.37
883.59	225.37
883.90	225.38
884.21	225.39
884.51	225.39
884.82	225.37
885.13	225.36
885.44	225.36
885.74	225.36
886.05	225.35
886.36	225.36
886.67	225.31
886.98	225.37
887.28	225.38
887.59	225.38
887.90	225.39
888.20	225.38
888.51	225.41
888.82	225.39
889.13	225.40
889.43	225.51
889.74	225.50
890.05	225.50
890.35	225.49
890.66	225.47
890.97	225.45
891.28	225.44
891.58	225.44
891.89	225.45
892.20	225.43
892.50	225.42
892.81	225.41
893.12	225.42
893.42	225.35
893.73	225.35
894.04	225.35
894.34	225.36
894.65	225.36
894.95	225.34
895.26	225.35
895.57	225.40
895.87	225.27
896.18	225.30
896.48	225.30
896.79	225.30
897.10	225.32
897.40	225.33
897.71	225.34
898.01	225.33
898.32	225.34
898.63	225.34
898.93	225.35
899.24	225.35
899.54	225.34
899.85	225.34
900.15	225.33
900.46	225.33
900.76	225.33
901.07	225.34
901.38	225.33
901.68	225.34
901.99	225.27
902.29	225.28
902.60	225.27
902.90	225.26
903.21	225.26
903.51	225.25
903.82	225.27
904.12	225.27
904.43	225.28
904.73	225.27
905.03	225.28
905.34	225.40
905.64	225.39
905.95	225.39
906.25	225.39
906.56	225.39
906.86	225.39
907.17	225.38
907.47	225.38
907.77	225.37
908.08	225.34
908.38	225.35
908.69	225.36
908.99	225.38
909.30	225.38
909.60	225.38
909.90	225.39
910.21	225.35
910.51	225.32
910.81	225.32
911.12	225.33
911.42	225.33
911.73	225.20
912.03	225.21
912.33	225.23
912.64	225.22
912.94	225.21
913.24	225.19
913.55	225.18
913.85	225.17
914.15	225.19
914.46	225.21
914.76	225.20
915.06	225.19
915.37	225.17
915.67	225.15
915.97	225.16
916.27	225.13
916.58	225.14
916.88	225.14
917.18	225.13
917.49	225.21
917.79	225.20
918.09	225.22
918.39	225.25
918.70	225.24
919.00	225.25
919.30	225.31
919.60	225.30
919.91	225.29
920.21	225.30
920.51	225.27
920.81	225.27
921.12	225.29
921.42	225.29
921.72	225.29
922.02	225.30
922.32	225.32
922.63	225.33
922.93	225.40
923.23	225.40
923.53	225.39
923.83	225.31
924.13	225.32
924.44	225.32
924.74	225.33
925.04	225.36
925.34	225.35
925.64	225.30
925.94	225.30
926.24	225.37
926.55	225.36
926.85	225.38
927.15	225.38
927.45	225.37
927.75	225.37
928.05	225.37
928.35	225.36
928.65	225.38
928.95	225.39
929.26	225.33
929.56	225.35
929.86	225.37
930.16	225.36
930.46	225.35
930.76	225.35
931.06	225.29
931.36	225.26
931.66	225.28
931.96	225.30
932.26	225.30
932.56	225.24
932.86	225.25
933.16	225.25
933.46	225.24
933.76	225.22
934.06	225.24
934.36	225.29
934.66	225.28
934.96	225.26
935.26	225.26
935.56	225.28
935.86	225.25
936.16	225.23
936.46	225.22
936.76	225.22
937.06	225.20
937.36	225.20
937.66	225.21
937.96	225.20
938.26	225.17
938.56	225.16
938.86	225.17
939.16	225.19
939.46	225.20
939.76	225.21
940.06	225.21
940.35	225.19
940.65	225.13
940.95	225.14
941.25	225.11
941.55	225.09
941.85	225.08
942.15	225.11
942.45	225.14
942.75	225.14
943.04	225.15
943.34	225.18
943.64	225.16
943.94	225.15
944.24	225.15
944.54	225.16
944.84	225.16
945.13	225.14
945.43	225.11
945.73	225.11
946.03	225.09
946.33	225.08
946.62	225.07
946.92	225.07
947.22	225.08
947.52	225.09
947.82	225.10
948.11	225.09
948.41	225.06
948.71	225.02
949.01	225.03
949.31	225.02
949.60	225.01
949.90	225.03
950.20	225.03
950.50	225.02
950.79	225.01
951.09	225.03
951.39	225.03
951.69	225.01
951.98	225.04
952.28	225.04
952.58	225.04
952.87	225.05
953.17	225.06
953.47	225.05
953.76	225.05
954.06	225.02
954.36	225.00
954.66	225.01
954.95	225.04
955.25	225.05
955.55	225.06
955.84	225.04
956.14	225.04
956.44	225.05
956.73	225.04
957.03	225.05
957.32	225.04
957.62	225.04
957.92	225.07
958.21	225.05
958.51	225.20
958.81	225.21
959.10	225.23
959.40	225.25
959.69	225.26
959.99	225.28
960.29	225.29
960.58	225.28
960.88	225.33
961.17	225.31
961.47	225.33
961.76	225.31
962.06	225.34
962.36	225.32
962.65	225.33
962.95	225.34
963.24	225.32
963.54	225.32
963.83	225.34
964.13	225.33
964.42	225.32
964.72	225.21
965.01	225.21
965.31	225.20
965.60	225.17
965.90	225.24
966.19	225.21
966.49	225.22
966.78	225.22
967.08	225.20
967.37	225.20
967.67	225.18
967.96	225.20
968.26	225.20
968.55	225.22
968.85	225.21
969.14	225.21
969.43	225.21
969.73	225.19
970.02	225.19
970.32	225.18
970.61	225.16
970.91	225.12
971.20	225.10
971.49	225.09
971.79	225.10
972.08	225.01
972.38	225.02
972.67	225.01
972.96	225.04
973.26	225.01
973.55	225.05
973.85	225.04
974.14	225.03
974.43	225.04
974.73	225.01
975.02	225.00
975.31	225.00
975.61	225.00
975.90	224.99
976.19	224.98
976.49	225.00
976.78	225.00
977.07	225.01
977.37	225.02
977.66	225.03
977.95	225.01
978.24	225.02
978.54	225.05
978.83	225.04
979.12	225.03
979.42	225.03
979.71	225.00
980.00	225.00
980.29	225.00
980.59	224.98
980.88	225.02
981.17	225.01
981.46	225.01
981.76	225.01
982.05	225.05
982.34	225.06
982.63	225.06
982.93	225.06
983.22	225.09
983.51	225.10
983.80	225.12
984.09	225.13
984.39	225.12
984.68	225.11
984.97	225.12
985.26	225.11
985.55	225.12
985.85	225.09
986.14	225.12
986.43	225.13
986.72	225.12
987.01	225.08
987.30	225.09
987.59	225.08
987.89	225.08
988.18	225.04
988.47	225.03
988.76	225.02
989.05	225.00
989.34	224.98
989.63	225.01
989.92	224.99
990.22	224.98
990.51	224.98
990.80	224.97
991.09	224.97
991.38	224.99
991.67	224.98
991.96	224.97
992.25	224.97
992.54	224.95
992.83	224.95
993.12	224.95
993.41	224.97
993.70	225.02
993.99	225.04
994.28	225.06
994.58	225.08
994.87	225.07
995.16	225.07
995.45	225.06
995.74	225.01
996.03	225.03
996.32	225.05
996.61	225.08
996.90	225.08
997.19	225.07
997.48	225.07
997.77	225.06
998.06	225.07
998.34	225.06
998.63	225.06
998.92	225.06
999.21	225.08
999.50	225.08
999.79	225.04
1000.08	225.03
1000.37	225.03
1000.66	225.02
1000.95	225.05
1001.24	225.06
1001.53	225.08
1001.82	225.07
1002.11	225.04
1002.40	225.05
1002.68	225.08
1002.97	225.17
1003.26	225.15
1003.55	225.13
1003.84	225.14
1004.13	225.19
1004.42	225.18
1004.71	225.18
1004.99	225.18
1005.28	225.20
1005.57	225.19
1005.86	225.18
1006.15	225.17
1006.44	225.15
1006.72	225.16
1007.01	225.14
1007.30	225.14
1007.59	225.12
1007.88	225.12
1008.17	225.13
1008.45	225.10
1008.74	225.05
1009.03	224.99
1009.32	224.99
1009.60	224.99
1009.89	224.98
1010.18	224.92
1010.47	224.92
1010.76	224.92
1011.04	224.92
1011.33	224.91
1011.62	224.92
1011.91	224.93
1012.19	224.94
1012.48	224.94
1012.77	224.94
1013.05	224.99
1013.34	224.99
1013.63	224.98
1013.92	224.99
1014.20	224.98
1014.49	224.99
1014.78	225.01
1015.06	224.97
1015.35	224.97
1015.64	224.99
1015.92	225.01
1016.21	225.02
1016.50	225.02
1016.78	225.03
1017.07	225.04
1017.36	225.02
1017.64	225.00
1017.93	225.01
1018.22	225.00
1018.50	225.00
1018.79	225.00
1019.08	224.95
1019.36	224.95
1019.65	224.94
1019.93	224.98
1020.22	224.99
1020.51	225.06
1020.79	225.04
1021.08	224.78
1021.36	224.79
1021.65	225.02
1021.94	224.91
1022.22	225.06
1022.51	224.75
1022.79	225.56
1023.08	225.14
1023.36	226.49
1023.65	224.67
>>>>>End Processed Spectral Data<<<<<
