SpectraSuite Data File
++++++++++++++++++++++++++++++++++++
Date: Fri Oct 02 16:02:32 EDT 2015
User: lab3
Dark Spectrum Present: No
Reference Spectrum Present: No
Number of Sampled Component Spectra: 1
Spectrometers: USB2E7196
Integration Time (usec): 46000 (USB2E7196)
Spectra Averaged: 1200 (USB2E7196)
Boxcar Smoothing: 10 (USB2E7196)
Correct for Electrical Dark: No (USB2E7196)
Strobe/Lamp Enabled: No (USB2E7196)
Correct for Detector Non-linearity: No (USB2E7196)
Correct for Stray Light: No (USB2E7196)
Number of Pixels in Processed Spectrum: 2048
>>>>>Begin Processed Spectral Data<<<<<
339.09	0.00
339.48	214.58
339.86	216.01
340.24	217.40
340.63	218.80
341.01	222.20
341.39	221.57
341.78	222.84
342.16	224.16
342.54	224.60
342.93	212.99
343.31	223.75
343.69	224.29
344.07	224.75
344.46	225.18
344.84	225.57
345.22	225.79
345.60	226.05
345.99	226.24
346.37	226.38
346.75	226.49
347.13	226.56
347.52	226.62
347.90	226.72
348.28	226.76
348.66	226.81
349.05	226.81
349.43	226.86
349.81	226.91
350.19	226.97
350.57	227.03
350.96	227.12
351.34	227.21
351.72	227.29
352.10	227.41
352.48	227.47
352.87	227.53
353.25	227.59
353.63	227.64
354.01	227.70
354.39	227.78
354.77	227.85
355.15	227.96
355.54	228.02
355.92	228.03
356.30	228.11
356.68	228.26
357.06	228.34
357.44	228.38
357.82	228.45
358.20	228.56
358.58	228.63
358.97	228.69
359.35	228.78
359.73	228.87
360.11	228.92
360.49	228.98
360.87	229.03
361.25	229.10
361.63	229.19
362.01	229.25
362.39	229.28
362.77	229.32
363.15	229.35
363.53	229.38
363.91	229.43
364.29	229.46
364.67	229.36
365.05	229.39
365.43	229.43
365.81	229.46
366.19	229.48
366.57	229.54
366.95	229.55
367.33	229.51
367.71	229.51
368.09	229.54
368.47	229.53
368.85	229.53
369.23	229.54
369.61	229.48
369.99	229.50
370.37	229.50
370.75	229.58
371.13	229.54
371.51	229.50
371.89	229.48
372.27	229.45
372.65	229.43
373.03	229.38
373.41	229.34
373.78	229.28
374.16	229.18
374.54	229.09
374.92	229.04
375.30	229.00
375.68	228.92
376.06	228.87
376.44	228.81
376.82	228.77
377.19	228.73
377.57	228.67
377.95	228.58
378.33	228.52
378.71	228.36
379.09	228.32
379.47	228.28
379.84	228.21
380.22	228.15
380.60	228.07
380.98	228.03
381.36	227.97
381.73	227.91
382.11	227.89
382.49	227.85
382.87	227.80
383.25	227.75
383.62	227.86
384.00	227.79
384.38	227.76
384.76	227.75
385.13	227.74
385.51	227.70
385.89	227.65
386.27	227.62
386.64	227.60
387.02	227.55
387.40	227.50
387.78	227.47
388.15	227.45
388.53	227.43
388.91	227.39
389.29	227.37
389.66	227.36
390.04	227.31
390.42	227.30
390.79	227.28
391.17	227.27
391.55	227.12
391.92	227.11
392.30	227.11
392.68	227.07
393.05	227.04
393.43	227.04
393.81	227.05
394.18	227.03
394.56	227.03
394.94	227.07
395.31	227.07
395.69	227.13
396.06	227.16
396.44	227.18
396.82	227.19
397.19	227.28
397.57	227.29
397.95	227.34
398.32	227.33
398.70	227.37
399.07	227.44
399.45	227.46
399.82	227.50
400.20	227.53
400.58	227.59
400.95	227.60
401.33	227.68
401.70	227.82
402.08	227.92
402.45	228.01
402.83	228.12
403.20	228.22
403.58	228.30
403.95	228.44
404.33	228.58
404.71	228.71
405.08	228.92
405.46	229.08
405.83	229.26
406.21	229.46
406.58	229.68
406.96	229.89
407.33	230.14
407.70	230.41
408.08	230.80
408.45	231.14
408.83	231.49
409.20	231.81
409.58	232.11
409.95	232.52
410.33	232.96
410.70	233.37
411.08	233.86
411.45	234.38
411.82	234.89
412.20	235.49
412.57	236.22
412.95	236.78
413.32	237.52
413.69	238.26
414.07	239.07
414.44	239.93
414.82	240.81
415.19	241.85
415.56	242.91
415.94	243.98
416.31	245.20
416.68	246.42
417.06	247.85
417.43	249.17
417.81	250.69
418.18	252.26
418.55	253.97
418.93	255.74
419.30	257.61
419.67	259.58
420.04	261.59
420.42	263.69
420.79	266.12
421.16	268.58
421.54	271.09
421.91	273.69
422.28	276.40
422.66	279.32
423.03	282.11
423.40	285.04
423.77	288.18
424.15	291.39
424.52	294.75
424.89	298.38
425.26	301.99
425.64	305.34
426.01	309.09
426.38	312.93
426.75	316.91
427.13	320.99
427.50	325.26
427.87	329.70
428.24	334.19
428.61	338.50
428.99	343.17
429.36	348.29
429.73	353.20
430.10	358.11
430.47	363.14
430.85	368.31
431.22	373.87
431.59	379.57
431.96	385.15
432.33	391.34
432.70	397.23
433.08	404.19
433.45	410.79
433.82	417.30
434.19	424.58
434.56	431.73
434.93	438.65
435.30	445.50
435.68	453.24
436.05	460.83
436.42	468.38
436.79	475.28
437.16	482.71
437.53	490.68
437.90	498.64
438.27	506.46
438.64	514.87
439.01	522.50
439.38	529.49
439.75	536.20
440.13	543.77
440.50	550.99
440.87	556.70
441.24	562.93
441.61	569.71
441.98	574.62
442.35	580.46
442.72	586.40
443.09	592.04
443.46	595.56
443.83	598.09
444.20	600.19
444.57	603.36
444.94	605.10
445.31	606.87
445.68	608.34
446.05	609.32
446.42	608.70
446.79	607.89
447.16	607.13
447.53	606.41
447.90	603.72
448.27	601.14
448.64	597.34
449.01	594.63
449.37	589.53
449.74	584.90
450.11	579.00
450.48	572.61
450.85	566.20
451.22	560.70
451.59	555.35
451.96	550.49
452.33	543.54
452.70	537.34
453.07	529.85
453.43	522.40
453.80	515.19
454.17	508.31
454.54	501.97
454.91	494.82
455.28	488.16
455.65	481.88
456.02	475.26
456.38	469.95
456.75	463.10
457.12	457.60
457.49	452.06
457.86	446.84
458.23	442.29
458.59	437.25
458.96	432.10
459.33	427.57
459.70	422.96
460.07	419.46
460.43	415.36
460.80	411.54
461.17	408.22
461.54	404.63
461.91	401.28
462.27	397.86
462.64	395.13
463.01	391.95
463.38	388.75
463.74	385.88
464.11	383.34
464.48	381.08
464.85	378.61
465.21	376.76
465.58	374.68
465.95	372.27
466.32	370.38
466.68	368.50
467.05	366.61
467.42	364.78
467.78	362.80
468.15	360.96
468.52	359.63
468.88	357.83
469.25	356.18
469.62	354.87
469.98	353.46
470.35	352.20
470.72	351.07
471.08	349.90
471.45	348.92
471.82	347.84
472.18	346.68
472.55	345.93
472.92	345.00
473.28	344.27
473.65	343.47
474.02	342.70
474.38	342.08
474.75	341.74
475.11	341.24
475.48	341.01
475.85	340.77
476.21	340.65
476.58	340.56
476.94	340.72
477.31	340.79
477.67	340.89
478.04	341.11
478.41	341.41
478.77	341.84
479.14	342.12
479.50	342.64
479.87	343.32
480.23	344.00
480.60	344.68
480.96	345.35
481.33	346.35
481.69	347.36
482.06	348.35
482.42	349.24
482.79	350.37
483.15	351.66
483.52	353.13
483.88	354.55
484.25	356.07
484.61	357.64
484.98	359.35
485.34	361.28
485.71	363.29
486.07	365.44
486.44	367.60
486.80	370.00
487.17	372.49
487.53	375.22
487.90	378.07
488.26	381.15
488.62	384.41
488.99	387.65
489.35	391.08
489.72	394.80
490.08	398.73
490.44	402.78
490.81	407.00
491.17	411.33
491.54	415.95
491.90	420.74
492.26	425.86
492.63	431.23
492.99	436.81
493.36	442.60
493.72	448.69
494.08	454.92
494.45	461.56
494.81	468.44
495.17	475.50
495.54	482.94
495.90	490.71
496.26	498.64
496.63	506.85
496.99	515.35
497.35	524.23
497.72	533.41
498.08	542.81
498.44	552.52
498.80	562.80
499.17	573.35
499.53	584.22
499.89	595.45
500.26	606.89
500.62	618.58
500.98	630.94
501.34	643.46
501.71	656.51
502.07	669.70
502.43	683.43
502.79	697.41
503.16	711.85
503.52	726.46
503.88	741.52
504.24	757.03
504.60	772.74
504.97	788.94
505.33	805.50
505.69	822.93
506.05	840.67
506.41	858.37
506.78	876.22
507.14	894.56
507.50	913.33
507.86	932.47
508.22	951.88
508.59	971.11
508.95	991.20
509.31	1011.95
509.67	1033.34
510.03	1054.71
510.39	1076.10
510.75	1097.73
511.12	1119.64
511.48	1141.60
511.84	1163.63
512.20	1186.04
512.56	1209.25
512.92	1232.47
513.28	1255.32
513.64	1278.29
514.00	1301.66
514.37	1325.40
514.73	1349.21
515.09	1372.85
515.45	1396.78
515.81	1420.86
516.17	1444.96
516.53	1468.57
516.89	1492.05
517.25	1515.76
517.61	1539.40
517.97	1563.36
518.33	1586.64
518.69	1609.89
519.05	1633.70
519.41	1657.67
519.77	1681.82
520.13	1705.22
520.49	1728.52
520.85	1752.12
521.21	1775.47
521.57	1799.21
521.93	1822.33
522.29	1845.85
522.65	1868.82
523.01	1891.73
523.37	1914.22
523.73	1937.47
524.09	1960.30
524.45	1982.95
524.81	2005.10
525.17	2026.95
525.53	2048.40
525.89	2070.41
526.25	2092.39
526.61	2113.34
526.97	2134.32
527.33	2155.10
527.68	2175.63
528.04	2195.51
528.40	2214.33
528.76	2233.30
529.12	2251.52
529.48	2269.67
529.84	2285.97
530.20	2302.95
530.56	2319.27
530.91	2335.71
531.27	2351.77
531.63	2367.01
531.99	2381.82
532.35	2396.05
532.71	2410.40
533.07	2425.08
533.42	2437.87
533.78	2451.71
534.14	2465.75
534.50	2478.89
534.86	2491.88
535.21	2503.00
535.57	2514.57
535.93	2525.94
536.29	2536.15
536.65	2546.44
537.00	2555.83
537.36	2566.27
537.72	2575.28
538.08	2583.70
538.44	2591.60
538.79	2599.00
539.15	2605.70
539.51	2611.98
539.87	2617.50
540.22	2621.31
540.58	2625.24
540.94	2630.56
541.29	2634.06
541.65	2635.84
542.01	2637.12
542.37	2637.71
542.72	2639.46
543.08	2639.69
543.44	2640.49
543.79	2640.33
544.15	2639.31
544.51	2638.53
544.87	2636.61
545.22	2633.91
545.58	2630.65
545.94	2627.28
546.29	2622.77
546.65	2618.39
547.01	2613.91
547.36	2610.14
547.72	2606.18
548.07	2600.94
548.43	2594.24
548.79	2586.68
549.14	2580.29
549.50	2574.10
549.86	2566.91
550.21	2558.92
550.57	2551.52
550.92	2542.02
551.28	2533.18
551.64	2524.56
551.99	2515.66
552.35	2506.22
552.70	2497.11
553.06	2488.56
553.41	2479.50
553.77	2470.07
554.13	2460.28
554.48	2449.90
554.84	2438.33
555.19	2427.49
555.55	2416.47
555.90	2405.46
556.26	2394.88
556.61	2383.45
556.97	2370.62
557.32	2358.44
557.68	2345.86
558.03	2333.30
558.39	2321.81
558.74	2310.47
559.10	2297.66
559.45	2285.02
559.81	2272.98
560.16	2260.48
560.52	2247.94
560.87	2235.63
561.23	2222.63
561.58	2210.02
561.94	2196.96
562.29	2183.51
562.64	2170.62
563.00	2157.42
563.35	2144.75
563.71	2131.94
564.06	2118.94
564.42	2106.48
564.77	2093.50
565.12	2080.68
565.48	2067.88
565.83	2055.05
566.19	2042.39
566.54	2029.52
566.89	2015.81
567.25	2002.25
567.60	1989.70
567.96	1976.58
568.31	1962.14
568.66	1948.52
569.02	1935.88
569.37	1923.13
569.72	1910.99
570.08	1897.57
570.43	1883.82
570.78	1869.76
571.14	1855.32
571.49	1841.55
571.84	1828.32
572.20	1813.97
572.55	1799.81
572.90	1785.48
573.26	1771.13
573.61	1756.31
573.96	1742.01
574.31	1727.83
574.67	1713.71
575.02	1698.77
575.37	1683.69
575.72	1669.66
576.08	1655.89
576.43	1641.13
576.78	1626.84
577.13	1612.73
577.49	1599.23
577.84	1586.22
578.19	1572.41
578.54	1558.68
578.90	1544.54
579.25	1530.27
579.60	1517.44
579.95	1504.50
580.30	1491.38
580.66	1478.05
581.01	1464.68
581.36	1451.38
581.71	1439.06
582.06	1426.52
582.42	1414.22
582.77	1402.11
583.12	1389.89
583.47	1377.49
583.82	1365.27
584.17	1352.74
584.53	1339.88
584.88	1327.23
585.23	1314.27
585.58	1302.19
585.93	1290.30
586.28	1278.95
586.63	1267.64
586.98	1255.92
587.34	1244.24
587.69	1232.43
588.04	1221.00
588.39	1209.98
588.74	1199.06
589.09	1187.89
589.44	1176.40
589.79	1165.46
590.14	1154.63
590.49	1143.70
590.84	1132.94
591.19	1122.40
591.54	1111.80
591.89	1101.34
592.25	1091.12
592.60	1080.62
592.95	1070.34
593.30	1060.30
593.65	1050.11
594.00	1039.88
594.35	1030.30
594.70	1020.32
595.05	1011.16
595.40	1001.96
595.75	992.54
596.10	983.52
596.45	974.33
596.80	965.45
597.15	956.43
597.50	947.48
597.85	938.93
598.19	930.25
598.54	921.68
598.89	913.38
599.24	905.37
599.59	897.24
599.94	889.97
600.29	882.49
600.64	874.73
600.99	866.67
601.34	859.06
601.69	851.04
602.04	843.64
602.39	836.09
602.74	828.56
603.08	821.07
603.43	813.55
603.78	806.17
604.13	798.93
604.48	791.65
604.83	784.58
605.18	777.36
605.53	770.43
605.87	763.31
606.22	756.51
606.57	749.69
606.92	742.71
607.27	735.70
607.62	729.06
607.96	722.74
608.31	716.72
608.66	710.54
609.01	704.64
609.36	698.92
609.70	692.91
610.05	686.89
610.40	681.11
610.75	675.35
611.10	669.92
611.44	664.36
611.79	658.89
612.14	653.35
612.49	647.92
612.83	642.66
613.18	637.55
613.53	632.38
613.88	627.23
614.22	622.49
614.57	617.63
614.92	612.56
615.27	607.64
615.61	602.81
615.96	598.05
616.31	593.26
616.65	588.57
617.00	584.07
617.35	579.61
617.70	575.24
618.04	570.93
618.39	566.58
618.74	562.42
619.08	558.28
619.43	554.24
619.78	550.23
620.12	546.22
620.47	542.34
620.82	538.54
621.16	534.76
621.51	530.90
621.85	527.11
622.20	523.50
622.55	519.90
622.89	516.31
623.24	512.79
623.59	509.28
623.93	505.84
624.28	502.51
624.62	499.32
624.97	496.13
625.32	492.90
625.66	489.61
626.01	486.31
626.35	483.11
626.70	479.92
627.04	476.92
627.39	473.83
627.73	470.87
628.08	467.99
628.43	465.12
628.77	462.33
629.12	459.65
629.46	456.94
629.81	454.21
630.15	451.50
630.50	448.83
630.84	446.22
631.19	443.69
631.53	441.24
631.88	438.72
632.22	436.25
632.57	434.04
632.91	431.84
633.26	429.72
633.60	427.60
633.95	425.58
634.29	423.45
634.64	421.38
634.98	419.15
635.32	417.08
635.67	415.14
636.01	413.12
636.36	411.15
636.70	409.33
637.05	407.48
637.39	405.68
637.73	403.91
638.08	402.24
638.42	400.52
638.77	398.70
639.11	396.85
639.45	395.06
639.80	393.22
640.14	391.47
640.49	389.70
640.83	387.90
641.17	386.17
641.52	384.47
641.86	382.82
642.20	381.34
642.55	379.70
642.89	378.11
643.23	376.57
643.58	375.20
643.92	373.68
644.26	372.21
644.61	370.80
644.95	369.32
645.29	367.79
645.64	366.28
645.98	364.86
646.32	363.55
646.66	362.19
647.01	360.84
647.35	359.57
647.69	358.29
648.04	357.13
648.38	355.90
648.72	354.67
649.06	353.45
649.41	352.23
649.75	351.07
650.09	349.92
650.43	348.76
650.78	347.54
651.12	346.38
651.46	345.28
651.80	344.16
652.14	343.10
652.49	342.07
652.83	341.04
653.17	340.02
653.51	339.04
653.85	338.13
654.20	337.16
654.54	336.10
654.88	335.14
655.22	334.17
655.56	333.20
655.90	332.28
656.25	331.40
656.59	330.51
656.93	329.66
657.27	328.81
657.61	327.92
657.95	327.07
658.29	326.21
658.64	325.38
658.98	324.56
659.32	323.75
659.66	322.98
660.00	322.23
660.34	321.48
660.68	320.70
661.02	319.87
661.36	319.11
661.70	318.36
662.05	317.61
662.39	316.87
662.73	316.23
663.07	315.57
663.41	314.86
663.75	314.15
664.09	313.44
664.43	312.69
664.77	312.01
665.11	311.30
665.45	310.66
665.79	310.02
666.13	309.35
666.47	308.65
666.81	307.93
667.15	307.19
667.49	306.54
667.83	305.95
668.17	305.31
668.51	304.71
668.85	304.17
669.19	303.65
669.53	303.02
669.87	302.37
670.21	301.75
670.55	301.17
670.89	300.67
671.23	300.11
671.57	299.59
671.91	299.11
672.25	298.65
672.58	298.16
672.92	297.60
673.26	297.11
673.60	296.65
673.94	296.21
674.28	295.79
674.62	295.34
674.96	294.82
675.30	294.38
675.64	293.89
675.97	293.39
676.31	292.85
676.65	292.37
676.99	291.97
677.33	291.47
677.67	291.02
678.01	290.48
678.34	290.03
678.68	289.59
679.02	289.09
679.36	288.59
679.70	288.12
680.04	287.69
680.37	287.24
680.71	286.79
681.05	286.36
681.39	285.89
681.73	285.40
682.06	284.93
682.40	284.48
682.74	284.07
683.08	283.73
683.42	283.30
683.75	282.91
684.09	282.44
684.43	282.03
684.77	281.59
685.10	281.21
685.44	280.81
685.78	280.40
686.12	280.03
686.45	279.63
686.79	279.21
687.13	278.80
687.46	278.39
687.80	277.99
688.14	277.54
688.48	277.14
688.81	276.74
689.15	276.39
689.49	275.98
689.82	275.56
690.16	275.08
690.50	274.70
690.83	274.30
691.17	273.90
691.51	273.53
691.84	273.18
692.18	272.78
692.52	272.37
692.85	271.99
693.19	271.64
693.52	271.24
693.86	270.86
694.20	270.49
694.53	270.12
694.87	269.72
695.21	269.35
695.54	268.97
695.88	268.59
696.21	268.18
696.55	267.81
696.88	267.45
697.22	267.10
697.56	266.74
697.89	266.34
698.23	265.98
698.56	265.59
698.90	265.23
699.23	264.85
699.57	264.48
699.90	264.12
700.24	263.73
700.58	263.40
700.91	263.10
701.25	262.88
701.58	262.60
701.92	262.33
702.25	262.03
702.59	261.70
702.92	261.39
703.26	261.07
703.59	260.75
703.93	260.53
704.26	260.23
704.60	259.91
704.93	259.59
705.26	259.27
705.60	259.01
705.93	258.67
706.27	258.41
706.60	258.17
706.94	257.91
707.27	257.59
707.61	257.28
707.94	256.95
708.27	256.53
708.61	256.17
708.94	255.85
709.28	255.55
709.61	255.25
709.94	254.98
710.28	254.71
710.61	254.46
710.95	254.08
711.28	253.89
711.61	253.63
711.95	253.40
712.28	253.13
712.61	252.85
712.95	252.68
713.28	252.48
713.61	252.20
713.95	251.90
714.28	251.67
714.61	251.42
714.95	251.18
715.28	250.94
715.61	250.72
715.95	250.50
716.28	250.28
716.61	250.10
716.95	249.86
717.28	249.64
717.61	249.40
717.94	249.19
718.28	248.87
718.61	248.63
718.94	248.38
719.27	248.19
719.61	248.00
719.94	247.74
720.27	247.45
720.60	247.24
720.94	247.04
721.27	246.84
721.60	246.65
721.93	246.46
722.27	246.30
722.60	246.11
722.93	245.90
723.26	245.71
723.59	245.49
723.93	245.32
724.26	245.15
724.59	244.96
724.92	244.79
725.25	244.66
725.59	244.50
725.92	244.37
726.25	244.18
726.58	244.01
726.91	243.84
727.24	243.69
727.57	243.53
727.91	243.36
728.24	243.21
728.57	243.04
728.90	242.90
729.23	242.71
729.56	242.60
729.89	242.44
730.22	242.27
730.55	242.14
730.89	241.98
731.22	241.83
731.55	241.68
731.88	241.53
732.21	241.35
732.54	241.20
732.87	241.05
733.20	240.91
733.53	240.77
733.86	240.63
734.19	240.48
734.52	240.36
734.85	240.30
735.18	240.13
735.51	240.05
735.84	239.90
736.17	239.82
736.50	239.63
736.83	239.64
737.16	239.52
737.49	239.39
737.82	239.25
738.15	239.14
738.48	239.02
738.81	238.89
739.14	238.77
739.47	238.64
739.80	238.51
740.13	238.40
740.46	238.26
740.79	238.14
741.12	238.02
741.45	237.89
741.78	237.71
742.11	237.64
742.44	237.49
742.77	237.39
743.10	237.25
743.43	237.15
743.75	236.91
744.08	237.00
744.41	236.89
744.74	236.78
745.07	236.64
745.40	236.56
745.73	236.51
746.06	236.41
746.39	236.34
746.71	236.23
747.04	236.11
747.37	236.02
747.70	235.95
748.03	235.87
748.36	235.79
748.68	235.71
749.01	235.58
749.34	235.49
749.67	235.41
750.00	235.34
750.33	235.34
750.65	235.27
750.98	235.00
751.31	234.92
751.64	234.85
751.97	234.84
752.29	234.75
752.62	234.61
752.95	234.52
753.28	234.42
753.60	234.33
753.93	234.28
754.26	234.21
754.59	234.08
754.91	233.98
755.24	233.87
755.57	233.85
755.90	233.77
756.22	233.68
756.55	233.57
756.88	233.46
757.20	233.29
757.53	233.18
757.86	233.10
758.19	233.02
758.51	232.94
758.84	232.81
759.17	232.71
759.49	232.65
759.82	232.64
760.15	232.58
760.47	232.52
760.80	232.42
761.13	232.38
761.45	232.32
761.78	232.26
762.11	232.21
762.43	232.08
762.76	232.02
763.08	231.98
763.41	231.94
763.74	231.90
764.06	231.84
764.39	231.80
764.71	231.74
765.04	231.68
765.37	231.62
765.69	231.57
766.02	231.52
766.34	231.47
766.67	231.37
767.00	231.34
767.32	231.35
767.65	231.37
767.97	231.31
768.30	231.26
768.62	231.22
768.95	231.15
769.27	231.10
769.60	231.07
769.92	231.00
770.25	230.92
770.57	230.85
770.90	230.81
771.22	230.75
771.55	230.70
771.87	230.66
772.20	230.61
772.52	230.67
772.85	230.79
773.17	230.74
773.50	230.70
773.82	230.63
774.15	230.54
774.47	230.44
774.80	230.38
775.12	230.35
775.45	230.30
775.77	230.28
776.09	230.26
776.42	230.22
776.74	230.23
777.07	230.20
777.39	230.18
777.72	230.14
778.04	230.12
778.36	230.08
778.69	230.04
779.01	230.03
779.33	229.89
779.66	229.71
779.98	229.68
780.31	229.65
780.63	229.67
780.95	229.66
781.28	229.63
781.60	229.60
781.92	229.57
782.25	229.55
782.57	229.53
782.89	229.50
783.22	229.48
783.54	229.43
783.86	229.41
784.19	229.37
784.51	229.40
784.83	229.36
785.16	229.33
785.48	229.31
785.80	229.28
786.12	229.28
786.45	229.25
786.77	229.23
787.09	229.19
787.42	229.14
787.74	229.12
788.06	229.10
788.38	229.08
788.71	229.05
789.03	229.03
789.35	229.02
789.67	228.99
789.99	228.97
790.32	228.93
790.64	228.92
790.96	229.01
791.28	228.95
791.61	228.92
791.93	228.92
792.25	228.89
792.57	228.97
792.89	228.93
793.21	228.92
793.54	228.89
793.86	228.88
794.18	228.86
794.50	228.82
794.82	228.81
795.14	228.81
795.47	228.81
795.79	228.80
796.11	228.76
796.43	228.73
796.75	228.71
797.07	228.72
797.39	228.70
797.71	228.59
798.04	228.58
798.36	228.58
798.68	228.56
799.00	228.55
799.32	228.47
799.64	228.48
799.96	228.47
800.28	228.48
800.60	228.46
800.92	228.46
801.24	228.44
801.56	228.43
801.89	228.39
802.21	228.38
802.53	228.34
802.85	228.36
803.17	228.40
803.49	228.37
803.81	228.34
804.13	228.32
804.45	228.29
804.77	228.29
805.09	228.27
805.41	228.25
805.73	228.22
806.05	228.18
806.37	228.16
806.69	228.13
807.01	228.10
807.33	228.09
807.65	228.02
807.97	228.07
808.28	228.04
808.60	228.03
808.92	228.02
809.24	228.09
809.56	228.05
809.88	228.00
810.20	228.00
810.52	228.01
810.84	227.98
811.16	227.96
811.48	227.94
811.80	227.98
812.12	227.97
812.43	227.97
812.75	227.97
813.07	227.95
813.39	227.96
813.71	227.94
814.03	227.92
814.35	227.93
814.67	227.87
814.98	227.84
815.30	227.84
815.62	227.80
815.94	227.71
816.26	227.71
816.58	227.68
816.89	227.68
817.21	227.64
817.53	227.65
817.85	227.65
818.17	227.64
818.48	227.57
818.80	227.59
819.12	227.57
819.44	227.53
819.76	227.51
820.07	227.49
820.39	227.49
820.71	227.50
821.03	227.49
821.34	227.48
821.66	227.49
821.98	227.49
822.30	227.48
822.61	227.55
822.93	227.54
823.25	227.53
823.57	227.51
823.88	227.51
824.20	227.49
824.52	227.51
824.83	227.49
825.15	227.47
825.47	227.44
825.79	227.44
826.10	227.43
826.42	227.43
826.74	227.44
827.05	227.42
827.37	227.42
827.69	227.41
828.00	227.40
828.32	227.40
828.64	227.38
828.95	227.43
829.27	227.39
829.58	227.38
829.90	227.39
830.22	227.40
830.53	227.37
830.85	227.36
831.17	227.32
831.48	227.31
831.80	227.31
832.11	227.31
832.43	227.28
832.75	227.27
833.06	227.33
833.38	227.29
833.69	227.28
834.01	227.28
834.32	227.27
834.64	227.25
834.96	227.23
835.27	227.23
835.59	227.19
835.90	227.17
836.22	227.16
836.53	227.13
836.85	227.11
837.16	227.24
837.48	227.24
837.79	227.28
838.11	227.27
838.42	227.27
838.74	227.29
839.05	227.28
839.37	227.28
839.68	227.20
840.00	227.20
840.31	227.22
840.63	227.20
840.94	227.18
841.26	227.16
841.57	227.16
841.88	227.18
842.20	227.16
842.51	227.13
842.83	227.14
843.14	227.25
843.46	227.24
843.77	227.15
844.08	227.15
844.40	227.11
844.71	227.09
845.03	227.08
845.34	227.07
845.65	227.07
845.97	227.06
846.28	227.06
846.60	227.07
846.91	227.05
847.22	227.04
847.54	227.07
847.85	227.08
848.16	227.05
848.48	227.02
848.79	227.06
849.10	227.07
849.42	227.07
849.73	226.95
850.04	226.94
850.36	226.90
850.67	226.90
850.98	226.89
851.30	226.91
851.61	226.90
851.92	226.89
852.23	226.92
852.55	226.93
852.86	226.93
853.17	226.94
853.49	226.96
853.80	226.99
854.11	226.98
854.42	226.99
854.74	227.00
855.05	227.01
855.36	226.94
855.67	226.94
855.99	226.94
856.30	227.09
856.61	227.09
856.92	227.10
857.23	227.11
857.55	227.09
857.86	227.07
858.17	227.09
858.48	227.07
858.79	227.05
859.11	227.05
859.42	227.04
859.73	227.03
860.04	227.01
860.35	226.98
860.66	226.94
860.98	226.93
861.29	226.94
861.60	226.92
861.91	226.95
862.22	226.93
862.53	226.91
862.84	226.75
863.16	226.77
863.47	226.74
863.78	226.72
864.09	226.73
864.40	226.75
864.71	226.74
865.02	226.75
865.33	226.73
865.64	226.71
865.95	226.71
866.27	226.78
866.58	226.77
866.89	226.79
867.20	226.78
867.51	226.77
867.82	226.76
868.13	226.80
868.44	226.77
868.75	226.79
869.06	226.79
869.37	226.82
869.68	226.78
869.99	226.81
870.30	226.81
870.61	226.82
870.92	226.79
871.23	226.78
871.54	226.79
871.85	226.82
872.16	226.83
872.47	226.82
872.78	226.75
873.09	226.76
873.40	226.74
873.71	226.75
874.02	226.76
874.33	226.76
874.64	226.72
874.95	226.75
875.26	226.72
875.56	226.71
875.87	226.71
876.18	226.71
876.49	226.83
876.80	226.81
877.11	226.79
877.42	226.80
877.73	226.80
878.04	226.78
878.35	226.79
878.66	226.80
878.96	226.80
879.27	226.79
879.58	226.78
879.89	226.77
880.20	226.80
880.51	226.79
880.82	226.79
881.12	226.79
881.43	226.77
881.74	226.75
882.05	226.75
882.36	226.75
882.67	226.77
882.97	226.63
883.28	226.63
883.59	226.63
883.90	226.64
884.21	226.67
884.51	226.67
884.82	226.64
885.13	226.64
885.44	226.63
885.74	226.63
886.05	226.63
886.36	226.64
886.67	226.60
886.98	226.66
887.28	226.67
887.59	226.67
887.90	226.67
888.20	226.68
888.51	226.70
888.82	226.68
889.13	226.68
889.43	226.79
889.74	226.79
890.05	226.78
890.35	226.77
890.66	226.75
890.97	226.73
891.28	226.73
891.58	226.73
891.89	226.74
892.20	226.72
892.50	226.70
892.81	226.69
893.12	226.69
893.42	226.63
893.73	226.63
894.04	226.63
894.34	226.63
894.65	226.63
894.95	226.61
895.26	226.62
895.57	226.68
895.87	226.56
896.18	226.57
896.48	226.57
896.79	226.56
897.10	226.57
897.40	226.58
897.71	226.60
898.01	226.58
898.32	226.60
898.63	226.59
898.93	226.60
899.24	226.60
899.54	226.58
899.85	226.58
900.15	226.57
900.46	226.57
900.76	226.58
901.07	226.58
901.38	226.58
901.68	226.59
901.99	226.51
902.29	226.53
902.60	226.51
902.90	226.51
903.21	226.52
903.51	226.51
903.82	226.53
904.12	226.52
904.43	226.52
904.73	226.50
905.03	226.52
905.34	226.65
905.64	226.64
905.95	226.65
906.25	226.65
906.56	226.64
906.86	226.64
907.17	226.62
907.47	226.63
907.77	226.61
908.08	226.59
908.38	226.60
908.69	226.60
908.99	226.62
909.30	226.62
909.60	226.62
909.90	226.62
910.21	226.59
910.51	226.59
910.81	226.59
911.12	226.59
911.42	226.59
911.73	226.46
912.03	226.46
912.33	226.49
912.64	226.48
912.94	226.47
913.24	226.45
913.55	226.45
913.85	226.43
914.15	226.46
914.46	226.48
914.76	226.46
915.06	226.45
915.37	226.42
915.67	226.42
915.97	226.42
916.27	226.40
916.58	226.40
916.88	226.40
917.18	226.39
917.49	226.48
917.79	226.47
918.09	226.49
918.39	226.52
918.70	226.51
919.00	226.52
919.30	226.58
919.60	226.58
919.91	226.55
920.21	226.55
920.51	226.53
920.81	226.52
921.12	226.54
921.42	226.54
921.72	226.55
922.02	226.55
922.32	226.56
922.63	226.57
922.93	226.64
923.23	226.65
923.53	226.63
923.83	226.55
924.13	226.57
924.44	226.57
924.74	226.59
925.04	226.61
925.34	226.61
925.64	226.56
925.94	226.55
926.24	226.63
926.55	226.63
926.85	226.64
927.15	226.63
927.45	226.64
927.75	226.64
928.05	226.64
928.35	226.63
928.65	226.65
928.95	226.66
929.26	226.60
929.56	226.62
929.86	226.63
930.16	226.62
930.46	226.61
930.76	226.61
931.06	226.55
931.36	226.52
931.66	226.54
931.96	226.55
932.26	226.56
932.56	226.51
932.86	226.51
933.16	226.52
933.46	226.51
933.76	226.49
934.06	226.53
934.36	226.57
934.66	226.56
934.96	226.55
935.26	226.55
935.56	226.57
935.86	226.54
936.16	226.52
936.46	226.51
936.76	226.50
937.06	226.49
937.36	226.49
937.66	226.49
937.96	226.48
938.26	226.47
938.56	226.46
938.86	226.46
939.16	226.49
939.46	226.50
939.76	226.52
940.06	226.52
940.35	226.49
940.65	226.43
940.95	226.43
941.25	226.41
941.55	226.40
941.85	226.38
942.15	226.41
942.45	226.45
942.75	226.44
943.04	226.45
943.34	226.48
943.64	226.48
943.94	226.47
944.24	226.48
944.54	226.48
944.84	226.48
945.13	226.47
945.43	226.44
945.73	226.43
946.03	226.41
946.33	226.41
946.62	226.39
946.92	226.39
947.22	226.40
947.52	226.41
947.82	226.41
948.11	226.41
948.41	226.37
948.71	226.35
949.01	226.35
949.31	226.34
949.60	226.33
949.90	226.34
950.20	226.33
950.50	226.32
950.79	226.31
951.09	226.32
951.39	226.31
951.69	226.30
951.98	226.33
952.28	226.34
952.58	226.32
952.87	226.33
953.17	226.34
953.47	226.32
953.76	226.31
954.06	226.30
954.36	226.27
954.66	226.26
954.95	226.30
955.25	226.30
955.55	226.31
955.84	226.28
956.14	226.29
956.44	226.30
956.73	226.29
957.03	226.30
957.32	226.30
957.62	226.29
957.92	226.32
958.21	226.30
958.51	226.44
958.81	226.47
959.10	226.48
959.40	226.51
959.69	226.52
959.99	226.54
960.29	226.54
960.58	226.55
960.88	226.60
961.17	226.58
961.47	226.58
961.76	226.57
962.06	226.60
962.36	226.58
962.65	226.57
962.95	226.59
963.24	226.58
963.54	226.59
963.83	226.60
964.13	226.60
964.42	226.58
964.72	226.47
965.01	226.47
965.31	226.45
965.60	226.42
965.90	226.49
966.19	226.46
966.49	226.46
966.78	226.47
967.08	226.45
967.37	226.45
967.67	226.43
967.96	226.45
968.26	226.44
968.55	226.46
968.85	226.46
969.14	226.46
969.43	226.45
969.73	226.43
970.02	226.43
970.32	226.41
970.61	226.39
970.91	226.36
971.20	226.34
971.49	226.33
971.79	226.35
972.08	226.26
972.38	226.28
972.67	226.27
972.96	226.29
973.26	226.27
973.55	226.30
973.85	226.30
974.14	226.29
974.43	226.30
974.73	226.28
975.02	226.25
975.31	226.25
975.61	226.26
975.90	226.24
976.19	226.23
976.49	226.25
976.78	226.26
977.07	226.26
977.37	226.28
977.66	226.30
977.95	226.28
978.24	226.29
978.54	226.31
978.83	226.31
979.12	226.29
979.42	226.29
979.71	226.27
980.00	226.27
980.29	226.28
980.59	226.25
980.88	226.28
981.17	226.29
981.46	226.29
981.76	226.29
982.05	226.33
982.34	226.34
982.63	226.33
982.93	226.33
983.22	226.35
983.51	226.35
983.80	226.36
984.09	226.38
984.39	226.37
984.68	226.35
984.97	226.35
985.26	226.35
985.55	226.36
985.85	226.34
986.14	226.35
986.43	226.36
986.72	226.36
987.01	226.32
987.30	226.32
987.59	226.31
987.89	226.31
988.18	226.28
988.47	226.27
988.76	226.26
989.05	226.25
989.34	226.24
989.63	226.28
989.92	226.25
990.22	226.24
990.51	226.24
990.80	226.23
991.09	226.24
991.38	226.25
991.67	226.24
991.96	226.23
992.25	226.23
992.54	226.22
992.83	226.22
993.12	226.22
993.41	226.24
993.70	226.31
993.99	226.33
994.28	226.33
994.58	226.36
994.87	226.35
995.16	226.34
995.45	226.33
995.74	226.29
996.03	226.31
996.32	226.33
996.61	226.36
996.90	226.36
997.19	226.35
997.48	226.35
997.77	226.34
998.06	226.35
998.34	226.34
998.63	226.34
998.92	226.35
999.21	226.37
999.50	226.36
999.79	226.32
1000.08	226.31
1000.37	226.31
1000.66	226.30
1000.95	226.33
1001.24	226.35
1001.53	226.36
1001.82	226.35
1002.11	226.32
1002.40	226.33
1002.68	226.35
1002.97	226.44
1003.26	226.43
1003.55	226.41
1003.84	226.42
1004.13	226.45
1004.42	226.45
1004.71	226.44
1004.99	226.44
1005.28	226.46
1005.57	226.45
1005.86	226.44
1006.15	226.43
1006.44	226.42
1006.72	226.44
1007.01	226.41
1007.30	226.41
1007.59	226.41
1007.88	226.41
1008.17	226.42
1008.45	226.39
1008.74	226.34
1009.03	226.28
1009.32	226.29
1009.60	226.29
1009.89	226.28
1010.18	226.23
1010.47	226.22
1010.76	226.22
1011.04	226.22
1011.33	226.21
1011.62	226.21
1011.91	226.21
1012.19	226.22
1012.48	226.22
1012.77	226.22
1013.05	226.26
1013.34	226.26
1013.63	226.25
1013.92	226.26
1014.20	226.25
1014.49	226.25
1014.78	226.27
1015.06	226.22
1015.35	226.22
1015.64	226.24
1015.92	226.26
1016.21	226.27
1016.50	226.28
1016.78	226.28
1017.07	226.29
1017.36	226.28
1017.64	226.26
1017.93	226.27
1018.22	226.26
1018.50	226.26
1018.79	226.25
1019.08	226.21
1019.36	226.21
1019.65	226.20
1019.93	226.24
1020.22	226.26
1020.51	226.32
1020.79	226.30
1021.08	226.08
1021.36	226.00
1021.65	226.28
1021.94	226.21
1022.22	226.26
1022.51	226.02
1022.79	227.00
1023.08	226.35
1023.36	227.72
1023.65	226.01
>>>>>End Processed Spectral Data<<<<<
