SpectraSuite Data File
++++++++++++++++++++++++++++++++++++
Date: Sun Oct 04 17:23:59 EDT 2015
User: lab3
Dark Spectrum Present: No
Reference Spectrum Present: No
Number of Sampled Component Spectra: 1
Spectrometers: USB2E7196
Integration Time (usec): 46000 (USB2E7196)
Spectra Averaged: 24000 (USB2E7196)
Boxcar Smoothing: 10 (USB2E7196)
Correct for Electrical Dark: No (USB2E7196)
Strobe/Lamp Enabled: No (USB2E7196)
Correct for Detector Non-linearity: No (USB2E7196)
Correct for Stray Light: No (USB2E7196)
Number of Pixels in Processed Spectrum: 2048
>>>>>Begin Processed Spectral Data<<<<<
339.09	0.00
339.48	213.00
339.86	214.47
340.24	215.84
340.63	217.31
341.01	220.58
341.39	219.98
341.78	221.36
342.16	222.61
342.54	223.02
342.93	211.50
343.31	222.19
343.69	222.73
344.07	223.19
344.46	223.62
344.84	224.01
345.22	224.24
345.60	224.50
345.99	224.70
346.37	224.84
346.75	224.95
347.13	225.03
347.52	225.11
347.90	225.20
348.28	225.24
348.66	225.30
349.05	225.30
349.43	225.36
349.81	225.43
350.19	225.49
350.57	225.56
350.96	225.65
351.34	225.74
351.72	225.84
352.10	225.96
352.48	226.03
352.87	226.08
353.25	226.15
353.63	226.21
354.01	226.27
354.39	226.35
354.77	226.43
355.15	226.53
355.54	226.59
355.92	226.61
356.30	226.69
356.68	226.85
357.06	226.93
357.44	226.97
357.82	227.03
358.20	227.15
358.58	227.21
358.97	227.28
359.35	227.36
359.73	227.45
360.11	227.50
360.49	227.56
360.87	227.61
361.25	227.68
361.63	227.77
362.01	227.82
362.39	227.85
362.77	227.90
363.15	227.92
363.53	227.96
363.91	228.00
364.29	228.02
364.67	227.92
365.05	227.95
365.43	227.98
365.81	228.01
366.19	228.03
366.57	228.09
366.95	228.09
367.33	228.06
367.71	228.06
368.09	228.08
368.47	228.07
368.85	228.06
369.23	228.07
369.61	228.01
369.99	228.03
370.37	228.04
370.75	228.11
371.13	228.08
371.51	228.04
371.89	228.02
372.27	228.00
372.65	227.98
373.03	227.94
373.41	227.89
373.78	227.84
374.16	227.74
374.54	227.65
374.92	227.61
375.30	227.57
375.68	227.50
376.06	227.45
376.44	227.40
376.82	227.36
377.19	227.31
377.57	227.26
377.95	227.17
378.33	227.11
378.71	226.94
379.09	226.90
379.47	226.87
379.84	226.80
380.22	226.74
380.60	226.67
380.98	226.62
381.36	226.57
381.73	226.51
382.11	226.49
382.49	226.45
382.87	226.38
383.25	226.34
383.62	226.45
384.00	226.38
384.38	226.34
384.76	226.33
385.13	226.32
385.51	226.29
385.89	226.24
386.27	226.20
386.64	226.19
387.02	226.14
387.40	226.10
387.78	226.08
388.15	226.05
388.53	226.02
388.91	226.00
389.29	225.96
389.66	225.96
390.04	225.92
390.42	225.92
390.79	225.91
391.17	225.89
391.55	225.73
391.92	225.73
392.30	225.73
392.68	225.69
393.05	225.67
393.43	225.67
393.81	225.68
394.18	225.67
394.56	225.67
394.94	225.70
395.31	225.70
395.69	225.75
396.06	225.79
396.44	225.82
396.82	225.84
397.19	225.93
397.57	225.95
397.95	226.00
398.32	226.00
398.70	226.05
399.07	226.12
399.45	226.17
399.82	226.22
400.20	226.26
400.58	226.33
400.95	226.36
401.33	226.45
401.70	226.62
402.08	226.73
402.45	226.83
402.83	226.96
403.20	227.09
403.58	227.20
403.95	227.35
404.33	227.52
404.71	227.69
405.08	227.92
405.46	228.11
405.83	228.32
406.21	228.55
406.58	228.80
406.96	229.05
407.33	229.33
407.70	229.65
408.08	230.08
408.45	230.46
408.83	230.87
409.20	231.25
409.58	231.60
409.95	232.06
410.33	232.57
410.70	233.05
411.08	233.61
411.45	234.21
411.82	234.81
412.20	235.50
412.57	236.31
412.95	236.97
413.32	237.81
413.69	238.67
414.07	239.59
414.44	240.58
414.82	241.60
415.19	242.79
415.56	244.00
415.94	245.26
416.31	246.66
416.68	248.06
417.06	249.69
417.43	251.22
417.81	252.97
418.18	254.77
418.55	256.73
418.93	258.76
419.30	260.88
419.67	263.14
420.04	265.46
420.42	267.88
420.79	270.66
421.16	273.48
421.54	276.33
421.91	279.33
422.28	282.43
422.66	285.78
423.03	288.97
423.40	292.33
423.77	295.92
424.15	299.61
424.52	303.45
424.89	307.60
425.26	311.73
425.64	315.57
426.01	319.89
426.38	324.31
426.75	328.86
427.13	333.52
427.50	338.40
427.87	343.48
428.24	348.61
428.61	353.54
428.99	358.87
429.36	364.73
429.73	370.32
430.10	375.90
430.47	381.61
430.85	387.49
431.22	393.80
431.59	400.27
431.96	406.59
432.33	413.62
432.70	420.29
433.08	428.16
433.45	435.62
433.82	442.97
434.19	451.16
434.56	459.24
434.93	467.06
435.30	474.77
435.68	483.50
436.05	492.06
436.42	500.59
436.79	508.36
437.16	516.75
437.53	525.74
437.90	534.76
438.27	543.56
438.64	553.10
439.01	561.72
439.38	569.63
439.75	577.24
440.13	585.83
440.50	594.00
440.87	600.49
441.24	607.58
441.61	615.32
441.98	620.96
442.35	627.67
442.72	634.50
443.09	641.02
443.46	645.14
443.83	648.14
444.20	650.63
444.57	654.39
444.94	656.49
445.31	658.68
445.68	660.50
446.05	661.87
446.42	661.41
446.79	660.72
447.16	660.12
447.53	659.55
447.90	656.75
448.27	654.07
448.64	650.01
449.01	647.17
449.37	641.58
449.74	636.53
450.11	630.01
450.48	622.88
450.85	615.78
451.22	609.72
451.59	603.81
451.96	598.46
452.33	590.68
452.70	583.79
453.07	575.37
453.43	567.00
453.80	558.86
454.17	551.06
454.54	543.91
454.91	535.81
455.28	528.23
455.65	521.07
456.02	513.49
456.38	507.43
456.75	499.62
457.12	493.34
457.49	486.99
457.86	481.04
458.23	475.81
458.59	470.00
458.96	464.03
459.33	458.79
459.70	453.44
460.07	449.39
460.43	444.62
460.80	440.16
461.17	436.30
461.54	432.08
461.91	428.14
462.27	424.12
462.64	420.90
463.01	417.16
463.38	413.41
463.74	410.06
464.11	407.06
464.48	404.38
464.85	401.44
465.21	399.22
465.58	396.73
465.95	393.88
466.32	391.61
466.68	389.39
467.05	387.15
467.42	384.96
467.78	382.59
468.15	380.40
468.52	378.80
468.88	376.65
469.25	374.68
469.62	373.11
469.98	371.39
470.35	369.85
470.72	368.46
471.08	367.04
471.45	365.84
471.82	364.50
472.18	363.09
472.55	362.17
472.92	361.00
473.28	360.09
473.65	359.10
474.02	358.16
474.38	357.35
474.75	356.85
475.11	356.17
475.48	355.82
475.85	355.44
476.21	355.22
476.58	355.04
476.94	355.12
477.31	355.12
477.67	355.16
478.04	355.33
478.41	355.59
478.77	355.99
479.14	356.21
479.50	356.73
479.87	357.42
480.23	358.11
480.60	358.79
480.96	359.47
481.33	360.52
481.69	361.56
482.06	362.60
482.42	363.54
482.79	364.72
483.15	366.11
483.52	367.69
483.88	369.21
484.25	370.84
484.61	372.53
484.98	374.36
485.34	376.43
485.71	378.59
486.07	380.91
486.44	383.23
486.80	385.82
487.17	388.50
487.53	391.45
487.90	394.51
488.26	397.87
488.62	401.41
488.99	404.95
489.35	408.68
489.72	412.74
490.08	417.01
490.44	421.42
490.81	425.99
491.17	430.68
491.54	435.70
491.90	440.88
492.26	446.43
492.63	452.24
492.99	458.31
493.36	464.60
493.72	471.20
494.08	477.97
494.45	485.16
494.81	492.63
495.17	500.29
495.54	508.41
495.90	516.83
496.26	525.44
496.63	534.30
496.99	543.49
497.35	553.09
497.72	563.02
498.08	573.16
498.44	583.65
498.80	594.78
499.17	606.19
499.53	617.97
499.89	630.10
500.26	642.50
500.62	655.19
500.98	668.59
501.34	682.17
501.71	696.31
502.07	710.61
502.43	725.47
502.79	740.59
503.16	756.21
503.52	772.01
503.88	788.31
504.24	805.09
504.60	822.06
504.97	839.55
505.33	857.47
505.69	876.36
506.05	895.65
506.41	914.87
506.78	934.26
507.14	954.14
507.50	974.51
507.86	995.23
508.22	1016.20
508.59	1036.95
508.95	1058.51
509.31	1080.86
509.67	1104.04
510.03	1127.24
510.39	1150.42
510.75	1173.68
511.12	1197.25
511.48	1221.00
511.84	1244.73
512.20	1268.91
512.56	1294.04
512.92	1319.22
513.28	1343.88
513.64	1368.75
514.00	1394.12
514.37	1419.88
514.73	1445.55
515.09	1471.05
515.45	1496.83
515.81	1522.86
516.17	1548.94
516.53	1574.57
516.89	1600.02
517.25	1625.62
517.61	1651.01
517.97	1676.88
518.33	1702.30
518.69	1727.63
519.05	1753.36
519.41	1779.35
519.77	1805.67
520.13	1831.05
520.49	1856.36
520.85	1882.04
521.21	1907.39
521.57	1933.03
521.93	1958.01
522.29	1983.62
522.65	2008.58
523.01	2033.56
523.37	2058.00
523.73	2083.25
524.09	2108.08
524.45	2132.71
524.81	2156.93
525.17	2180.99
525.53	2204.36
525.89	2228.22
526.25	2252.15
526.61	2275.08
526.97	2298.14
527.33	2321.01
527.68	2343.68
528.04	2365.42
528.40	2386.23
528.76	2406.97
529.12	2427.26
529.48	2447.44
529.84	2465.49
530.20	2484.29
530.56	2502.39
530.91	2520.62
531.27	2538.51
531.63	2555.49
531.99	2571.89
532.35	2587.51
532.71	2603.42
533.07	2620.06
533.42	2634.67
533.78	2650.22
534.14	2666.10
534.50	2681.02
534.86	2695.67
535.21	2708.16
535.57	2721.24
535.93	2734.15
536.29	2745.99
536.65	2757.54
537.00	2768.11
537.36	2779.88
537.72	2790.25
538.08	2800.01
538.44	2808.99
538.79	2817.48
539.15	2825.26
539.51	2832.80
539.87	2839.69
540.22	2844.30
540.58	2849.01
540.94	2854.96
541.29	2859.39
541.65	2861.88
542.01	2863.49
542.37	2864.38
542.72	2866.84
543.08	2867.46
543.44	2868.58
543.79	2868.68
544.15	2867.93
544.51	2867.63
544.87	2866.10
545.22	2863.76
545.58	2860.72
545.94	2857.69
546.29	2853.42
546.65	2849.09
547.01	2844.53
547.36	2840.81
547.72	2837.47
548.07	2832.19
548.43	2825.50
548.79	2817.64
549.14	2811.10
549.50	2805.04
549.86	2797.98
550.21	2789.66
550.57	2782.37
550.92	2772.70
551.28	2763.49
551.64	2754.80
551.99	2745.80
552.35	2736.13
552.70	2726.70
553.06	2717.67
553.41	2708.06
553.77	2698.17
554.13	2688.22
554.48	2677.44
554.84	2665.26
555.19	2653.37
555.55	2641.70
555.90	2630.11
556.26	2619.20
556.61	2607.11
556.97	2593.35
557.32	2579.96
557.68	2566.68
558.03	2553.02
558.39	2540.79
558.74	2528.94
559.10	2515.21
559.45	2501.53
559.81	2488.49
560.16	2474.92
560.52	2461.69
560.87	2448.87
561.23	2435.28
561.58	2421.63
561.94	2407.75
562.29	2393.29
562.64	2379.61
563.00	2365.65
563.35	2352.00
563.71	2338.21
564.06	2324.37
564.42	2311.30
564.77	2297.83
565.12	2284.20
565.48	2270.56
565.83	2256.76
566.19	2243.12
566.54	2229.41
566.89	2214.57
567.25	2199.99
567.60	2186.83
567.96	2172.64
568.31	2157.04
568.66	2142.06
569.02	2128.40
569.37	2114.73
569.72	2101.60
570.08	2087.20
570.43	2072.36
570.78	2057.47
571.14	2041.82
571.49	2026.77
571.84	2012.29
572.20	1996.59
572.55	1980.99
572.90	1965.48
573.26	1950.08
573.61	1934.16
573.96	1918.71
574.31	1903.56
574.67	1888.43
575.02	1872.13
575.37	1855.98
575.72	1840.72
576.08	1825.84
576.43	1809.88
576.78	1794.25
577.13	1778.92
577.49	1763.99
577.84	1749.73
578.19	1734.52
578.54	1719.40
578.90	1703.80
579.25	1688.09
579.60	1674.01
579.95	1659.93
580.30	1645.57
580.66	1630.94
581.01	1616.23
581.36	1601.49
581.71	1587.73
582.06	1573.93
582.42	1560.34
582.77	1546.84
583.12	1533.34
583.47	1519.67
583.82	1506.13
584.17	1492.30
584.53	1478.16
584.88	1464.33
585.23	1450.17
585.58	1436.74
585.93	1423.53
586.28	1411.10
586.63	1398.60
586.98	1385.67
587.34	1372.82
587.69	1359.70
588.04	1346.88
588.39	1334.43
588.74	1322.18
589.09	1309.73
589.44	1296.84
589.79	1284.61
590.14	1272.49
590.49	1260.25
590.84	1248.20
591.19	1236.51
591.54	1224.59
591.89	1212.82
592.25	1201.29
592.60	1189.33
592.95	1177.84
593.30	1166.62
593.65	1155.12
594.00	1143.77
594.35	1132.94
594.70	1121.67
595.05	1111.28
595.40	1100.84
595.75	1090.23
596.10	1080.10
596.45	1069.77
596.80	1059.79
597.15	1049.49
597.50	1039.36
597.85	1029.69
598.19	1019.86
598.54	1010.06
598.89	1000.78
599.24	991.79
599.59	982.56
599.94	974.25
600.29	965.79
600.64	957.07
600.99	948.00
601.34	939.25
601.69	930.18
602.04	921.81
602.39	913.24
602.74	904.75
603.08	896.21
603.43	887.64
603.78	879.23
604.13	870.97
604.48	862.77
604.83	854.71
605.18	846.59
605.53	838.67
605.87	830.62
606.22	822.77
606.57	814.89
606.92	806.98
607.27	799.01
607.62	791.29
607.96	783.96
608.31	777.08
608.66	770.00
609.01	763.20
609.36	756.49
609.70	749.64
610.05	742.73
610.40	736.12
610.75	729.47
611.10	723.19
611.44	716.72
611.79	710.38
612.14	703.96
612.49	697.62
612.83	691.55
613.18	685.62
613.53	679.63
613.88	673.66
614.22	668.05
614.57	662.41
614.92	656.65
615.27	650.98
615.61	645.37
615.96	639.83
616.31	634.28
616.65	628.79
617.00	623.49
617.35	618.29
617.70	613.13
618.04	608.09
618.39	602.93
618.74	598.01
619.08	593.12
619.43	588.38
619.78	583.62
620.12	578.85
620.47	574.21
620.82	569.68
621.16	565.24
621.51	560.70
621.85	556.18
622.20	551.81
622.55	547.50
622.89	543.27
623.24	539.05
623.59	534.84
623.93	530.81
624.28	526.87
624.62	523.02
624.97	519.23
625.32	515.37
625.66	511.48
626.01	507.58
626.35	503.74
626.70	499.93
627.04	496.33
627.39	492.64
627.73	489.13
628.08	485.71
628.43	482.27
628.77	478.89
629.12	475.65
629.46	472.46
629.81	469.15
630.15	465.84
630.50	462.62
630.84	459.48
631.19	456.38
631.53	453.39
631.88	450.35
632.22	447.34
632.57	444.60
632.91	441.90
633.26	439.29
633.60	436.71
633.95	434.17
634.29	431.55
634.64	429.00
634.98	426.29
635.32	423.69
635.67	421.29
636.01	418.83
636.36	416.40
636.70	414.08
637.05	411.78
637.39	409.54
637.73	407.30
638.08	405.19
638.42	403.06
638.77	400.79
639.11	398.47
639.45	396.23
639.80	393.95
640.14	391.77
640.49	389.57
640.83	387.35
641.17	385.23
641.52	383.16
641.86	381.12
642.20	379.27
642.55	377.28
642.89	375.31
643.23	373.43
643.58	371.70
643.92	369.87
644.26	368.09
644.61	366.36
644.95	364.60
645.29	362.77
645.64	360.95
645.98	359.25
646.32	357.65
646.66	356.04
647.01	354.46
647.35	352.91
647.69	351.36
648.04	349.92
648.38	348.41
648.72	346.92
649.06	345.45
649.41	343.97
649.75	342.55
650.09	341.17
650.43	339.78
650.78	338.34
651.12	336.95
651.46	335.61
651.80	334.30
652.14	333.01
652.49	331.78
652.83	330.51
653.17	329.30
653.51	328.11
653.85	326.98
654.20	325.81
654.54	324.57
654.88	323.41
655.22	322.29
655.56	321.17
655.90	320.10
656.25	319.08
656.59	318.03
656.93	317.05
657.27	316.07
657.61	315.05
657.95	314.08
658.29	313.09
658.64	312.16
658.98	311.22
659.32	310.32
659.66	309.46
660.00	308.63
660.34	307.79
660.68	306.94
661.02	306.05
661.36	305.20
661.70	304.40
662.05	303.62
662.39	302.83
662.73	302.12
663.07	301.43
663.41	300.67
663.75	299.93
664.09	299.19
664.43	298.42
664.77	297.73
665.11	296.99
665.45	296.32
665.79	295.67
666.13	294.98
666.47	294.28
666.81	293.56
667.15	292.83
667.49	292.19
667.83	291.61
668.17	291.00
668.51	290.42
668.85	289.88
669.19	289.38
669.53	288.77
669.87	288.16
670.21	287.56
670.55	287.02
670.89	286.55
671.23	286.03
671.57	285.52
671.91	285.06
672.25	284.63
672.58	284.20
672.92	283.69
673.26	283.25
673.60	282.82
673.94	282.41
674.28	282.02
674.62	281.61
674.96	281.14
675.30	280.74
675.64	280.31
675.97	279.85
676.31	279.38
676.65	278.95
676.99	278.60
677.33	278.17
677.67	277.77
678.01	277.31
678.34	276.92
678.68	276.55
679.02	276.12
679.36	275.71
679.70	275.29
680.04	274.92
680.37	274.55
680.71	274.19
681.05	273.85
681.39	273.47
681.73	273.07
682.06	272.69
682.40	272.32
682.74	272.01
683.08	271.74
683.42	271.40
683.75	271.11
684.09	270.72
684.43	270.41
684.77	270.09
685.10	269.81
685.44	269.50
685.78	269.18
686.12	268.90
686.45	268.59
686.79	268.27
687.13	267.98
687.46	267.66
687.80	267.36
688.14	267.02
688.48	266.73
688.81	266.43
689.15	266.17
689.49	265.86
689.82	265.55
690.16	265.18
690.50	264.89
690.83	264.60
691.17	264.30
691.51	264.01
691.84	263.74
692.18	263.43
692.52	263.12
692.85	262.84
693.19	262.58
693.52	262.30
693.86	262.02
694.20	261.75
694.53	261.48
694.87	261.19
695.21	260.91
695.54	260.63
695.88	260.35
696.21	260.04
696.55	259.78
696.88	259.50
697.22	259.24
697.56	258.97
697.89	258.66
698.23	258.40
698.56	258.11
698.90	257.85
699.23	257.57
699.57	257.30
699.90	257.01
700.24	256.71
700.58	256.48
700.91	256.26
701.25	256.11
701.58	255.91
701.92	255.70
702.25	255.47
702.59	255.22
702.92	254.98
703.26	254.74
703.59	254.48
703.93	254.34
704.26	254.11
704.60	253.86
704.93	253.62
705.26	253.36
705.60	253.17
705.93	252.90
706.27	252.71
706.60	252.51
706.94	252.34
707.27	252.07
707.61	251.83
707.94	251.57
708.27	251.21
708.61	250.92
708.94	250.65
709.28	250.42
709.61	250.19
709.94	249.98
710.28	249.77
710.61	249.58
710.95	249.26
711.28	249.13
711.61	248.91
711.95	248.74
712.28	248.52
712.61	248.29
712.95	248.16
713.28	248.01
713.61	247.78
713.95	247.53
714.28	247.34
714.61	247.14
714.95	246.94
715.28	246.74
715.61	246.56
715.95	246.39
716.28	246.20
716.61	246.05
716.95	245.85
717.28	245.65
717.61	245.46
717.94	245.28
718.28	245.01
718.61	244.82
718.94	244.61
719.27	244.44
719.61	244.28
719.94	244.07
720.27	243.81
720.60	243.63
720.94	243.46
721.27	243.30
721.60	243.15
721.93	242.98
722.27	242.86
722.60	242.71
722.93	242.52
723.26	242.36
723.59	242.16
723.93	242.01
724.26	241.86
724.59	241.69
724.92	241.54
725.25	241.44
725.59	241.29
725.92	241.16
726.25	241.01
726.58	240.86
726.91	240.71
727.24	240.59
727.57	240.45
727.91	240.29
728.24	240.17
728.57	240.02
728.90	239.90
729.23	239.72
729.56	239.63
729.89	239.49
730.22	239.34
730.55	239.22
730.89	239.08
731.22	238.94
731.55	238.81
731.88	238.68
732.21	238.52
732.54	238.38
732.87	238.25
733.20	238.14
733.53	238.02
733.86	237.90
734.19	237.76
734.52	237.66
734.85	237.63
735.18	237.48
735.51	237.40
735.84	237.28
736.17	237.20
736.50	237.03
736.83	237.07
737.16	236.96
737.49	236.86
737.82	236.75
738.15	236.66
738.48	236.56
738.81	236.44
739.14	236.33
739.47	236.21
739.80	236.10
740.13	236.00
740.46	235.88
740.79	235.75
741.12	235.65
741.45	235.53
741.78	235.35
742.11	235.29
742.44	235.15
742.77	235.07
743.10	234.95
743.43	234.84
743.75	234.61
744.08	234.71
744.41	234.60
744.74	234.50
745.07	234.38
745.40	234.31
745.73	234.27
746.06	234.19
746.39	234.12
746.71	234.03
747.04	233.93
747.37	233.85
747.70	233.79
748.03	233.71
748.36	233.65
748.68	233.56
749.01	233.44
749.34	233.36
749.67	233.28
750.00	233.22
750.33	233.24
750.65	233.17
750.98	232.90
751.31	232.82
751.64	232.75
751.97	232.74
752.29	232.65
752.62	232.52
752.95	232.44
753.28	232.34
753.60	232.26
753.93	232.22
754.26	232.16
754.59	232.04
754.91	231.95
755.24	231.87
755.57	231.86
755.90	231.78
756.22	231.70
756.55	231.61
756.88	231.51
757.20	231.35
757.53	231.24
757.86	231.17
758.19	231.11
758.51	231.04
758.84	230.91
759.17	230.84
759.49	230.78
759.82	230.78
760.15	230.73
760.47	230.67
760.80	230.57
761.13	230.52
761.45	230.47
761.78	230.41
762.11	230.36
762.43	230.23
762.76	230.18
763.08	230.14
763.41	230.10
763.74	230.05
764.06	230.00
764.39	229.96
764.71	229.91
765.04	229.84
765.37	229.78
765.69	229.73
766.02	229.68
766.34	229.62
766.67	229.53
767.00	229.50
767.32	229.52
767.65	229.56
767.97	229.50
768.30	229.46
768.62	229.42
768.95	229.36
769.27	229.31
769.60	229.28
769.92	229.22
770.25	229.15
770.57	229.09
770.90	229.05
771.22	229.00
771.55	228.96
771.87	228.93
772.20	228.89
772.52	228.96
772.85	229.08
773.17	229.05
773.50	229.00
773.82	228.94
774.15	228.84
774.47	228.73
774.80	228.68
775.12	228.64
775.45	228.61
775.77	228.58
776.09	228.56
776.42	228.52
776.74	228.53
777.07	228.50
777.39	228.48
777.72	228.44
778.04	228.43
778.36	228.39
778.69	228.36
779.01	228.34
779.33	228.20
779.66	228.02
779.98	227.99
780.31	227.97
780.63	228.00
780.95	228.00
781.28	227.97
781.60	227.94
781.92	227.91
782.25	227.89
782.57	227.86
782.89	227.83
783.22	227.80
783.54	227.75
783.86	227.73
784.19	227.70
784.51	227.72
784.83	227.68
785.16	227.65
785.48	227.63
785.80	227.61
786.12	227.60
786.45	227.58
786.77	227.57
787.09	227.54
787.42	227.47
787.74	227.45
788.06	227.44
788.38	227.41
788.71	227.39
789.03	227.37
789.35	227.37
789.67	227.33
789.99	227.33
790.32	227.30
790.64	227.29
790.96	227.39
791.28	227.33
791.61	227.31
791.93	227.30
792.25	227.27
792.57	227.34
792.89	227.30
793.21	227.29
793.54	227.26
793.86	227.24
794.18	227.22
794.50	227.18
794.82	227.16
795.14	227.16
795.47	227.17
795.79	227.16
796.11	227.11
796.43	227.09
796.75	227.07
797.07	227.07
797.39	227.04
797.71	226.92
798.04	226.92
798.36	226.91
798.68	226.89
799.00	226.89
799.32	226.81
799.64	226.82
799.96	226.80
800.28	226.81
800.60	226.79
800.92	226.78
801.24	226.76
801.56	226.76
801.89	226.74
802.21	226.73
802.53	226.69
802.85	226.71
803.17	226.75
803.49	226.72
803.81	226.69
804.13	226.67
804.45	226.64
804.77	226.63
805.09	226.62
805.41	226.60
805.73	226.56
806.05	226.52
806.37	226.49
806.69	226.47
807.01	226.45
807.33	226.44
807.65	226.39
807.97	226.44
808.28	226.41
808.60	226.40
808.92	226.36
809.24	226.44
809.56	226.40
809.88	226.34
810.20	226.34
810.52	226.36
810.84	226.33
811.16	226.30
811.48	226.28
811.80	226.32
812.12	226.31
812.43	226.32
812.75	226.33
813.07	226.30
813.39	226.30
813.71	226.28
814.03	226.26
814.35	226.26
814.67	226.19
814.98	226.17
815.30	226.16
815.62	226.13
815.94	226.04
816.26	226.05
816.58	226.02
816.89	226.02
817.21	225.98
817.53	225.99
817.85	225.99
818.17	225.98
818.48	225.92
818.80	225.94
819.12	225.91
819.44	225.88
819.76	225.86
820.07	225.85
820.39	225.84
820.71	225.85
821.03	225.84
821.34	225.83
821.66	225.84
821.98	225.85
822.30	225.84
822.61	225.92
822.93	225.89
823.25	225.88
823.57	225.86
823.88	225.87
824.20	225.86
824.52	225.88
824.83	225.87
825.15	225.85
825.47	225.83
825.79	225.84
826.10	225.82
826.42	225.82
826.74	225.82
827.05	225.81
827.37	225.81
827.69	225.79
828.00	225.79
828.32	225.78
828.64	225.76
828.95	225.82
829.27	225.78
829.58	225.78
829.90	225.80
830.22	225.80
830.53	225.77
830.85	225.76
831.17	225.72
831.48	225.71
831.80	225.72
832.11	225.71
832.43	225.68
832.75	225.68
833.06	225.75
833.38	225.71
833.69	225.70
834.01	225.70
834.32	225.70
834.64	225.68
834.96	225.67
835.27	225.67
835.59	225.62
835.90	225.60
836.22	225.59
836.53	225.55
836.85	225.54
837.16	225.66
837.48	225.66
837.79	225.70
838.11	225.70
838.42	225.70
838.74	225.71
839.05	225.70
839.37	225.69
839.68	225.61
840.00	225.61
840.31	225.62
840.63	225.60
840.94	225.59
841.26	225.57
841.57	225.57
841.88	225.58
842.20	225.56
842.51	225.53
842.83	225.53
843.14	225.65
843.46	225.64
843.77	225.56
844.08	225.56
844.40	225.51
844.71	225.50
845.03	225.48
845.34	225.47
845.65	225.46
845.97	225.46
846.28	225.47
846.60	225.47
846.91	225.45
847.22	225.44
847.54	225.47
847.85	225.48
848.16	225.46
848.48	225.44
848.79	225.49
849.10	225.50
849.42	225.51
849.73	225.38
850.04	225.38
850.36	225.33
850.67	225.35
850.98	225.35
851.30	225.36
851.61	225.36
851.92	225.35
852.23	225.39
852.55	225.39
852.86	225.40
853.17	225.40
853.49	225.43
853.80	225.45
854.11	225.46
854.42	225.47
854.74	225.46
855.05	225.47
855.36	225.40
855.67	225.40
855.99	225.40
856.30	225.55
856.61	225.55
856.92	225.55
857.23	225.55
857.55	225.54
857.86	225.53
858.17	225.55
858.48	225.53
858.79	225.50
859.11	225.50
859.42	225.49
859.73	225.48
860.04	225.47
860.35	225.43
860.66	225.39
860.98	225.38
861.29	225.39
861.60	225.38
861.91	225.41
862.22	225.39
862.53	225.37
862.84	225.22
863.16	225.24
863.47	225.22
863.78	225.20
864.09	225.21
864.40	225.21
864.71	225.21
865.02	225.23
865.33	225.21
865.64	225.19
865.95	225.19
866.27	225.26
866.58	225.25
866.89	225.26
867.20	225.26
867.51	225.24
867.82	225.23
868.13	225.27
868.44	225.24
868.75	225.26
869.06	225.27
869.37	225.28
869.68	225.25
869.99	225.27
870.30	225.28
870.61	225.29
870.92	225.27
871.23	225.25
871.54	225.27
871.85	225.30
872.16	225.31
872.47	225.30
872.78	225.23
873.09	225.24
873.40	225.22
873.71	225.23
874.02	225.25
874.33	225.24
874.64	225.21
874.95	225.23
875.26	225.20
875.56	225.19
875.87	225.19
876.18	225.19
876.49	225.31
876.80	225.30
877.11	225.27
877.42	225.27
877.73	225.27
878.04	225.25
878.35	225.25
878.66	225.25
878.96	225.24
879.27	225.24
879.58	225.23
879.89	225.23
880.20	225.26
880.51	225.25
880.82	225.25
881.12	225.26
881.43	225.23
881.74	225.22
882.05	225.21
882.36	225.22
882.67	225.23
882.97	225.09
883.28	225.08
883.59	225.08
883.90	225.09
884.21	225.10
884.51	225.10
884.82	225.08
885.13	225.08
885.44	225.08
885.74	225.08
886.05	225.07
886.36	225.07
886.67	225.03
886.98	225.09
887.28	225.10
887.59	225.10
887.90	225.11
888.20	225.10
888.51	225.13
888.82	225.10
889.13	225.11
889.43	225.23
889.74	225.22
890.05	225.22
890.35	225.20
890.66	225.18
890.97	225.17
891.28	225.16
891.58	225.16
891.89	225.16
892.20	225.14
892.50	225.13
892.81	225.13
893.12	225.12
893.42	225.06
893.73	225.06
894.04	225.06
894.34	225.06
894.65	225.06
894.95	225.05
895.26	225.06
895.57	225.11
895.87	224.98
896.18	225.01
896.48	225.01
896.79	225.01
897.10	225.03
897.40	225.03
897.71	225.05
898.01	225.03
898.32	225.05
898.63	225.05
898.93	225.06
899.24	225.06
899.54	225.05
899.85	225.05
900.15	225.04
900.46	225.04
900.76	225.05
901.07	225.05
901.38	225.04
901.68	225.05
901.99	224.99
902.29	225.00
902.60	224.98
902.90	224.97
903.21	224.97
903.51	224.95
903.82	224.98
904.12	224.98
904.43	224.99
904.73	224.98
905.03	224.99
905.34	225.11
905.64	225.10
905.95	225.10
906.25	225.10
906.56	225.09
906.86	225.09
907.17	225.08
907.47	225.09
907.77	225.08
908.08	225.05
908.38	225.06
908.69	225.06
908.99	225.08
909.30	225.09
909.60	225.09
909.90	225.08
910.21	225.05
910.51	225.03
910.81	225.03
911.12	225.03
911.42	225.03
911.73	224.90
912.03	224.91
912.33	224.93
912.64	224.93
912.94	224.91
913.24	224.89
913.55	224.88
913.85	224.87
914.15	224.90
914.46	224.92
914.76	224.90
915.06	224.90
915.37	224.87
915.67	224.86
915.97	224.87
916.27	224.85
916.58	224.85
916.88	224.86
917.18	224.84
917.49	224.93
917.79	224.92
918.09	224.94
918.39	224.97
918.70	224.96
919.00	224.97
919.30	225.03
919.60	225.03
919.91	225.01
920.21	225.02
920.51	224.99
920.81	224.98
921.12	225.00
921.42	225.00
921.72	225.01
922.02	225.01
922.32	225.03
922.63	225.04
922.93	225.10
923.23	225.11
923.53	225.10
923.83	225.02
924.13	225.03
924.44	225.02
924.74	225.04
925.04	225.06
925.34	225.06
925.64	225.01
925.94	225.01
926.24	225.08
926.55	225.07
926.85	225.08
927.15	225.08
927.45	225.08
927.75	225.08
928.05	225.07
928.35	225.06
928.65	225.08
928.95	225.09
929.26	225.03
929.56	225.05
929.86	225.07
930.16	225.06
930.46	225.05
930.76	225.05
931.06	224.99
931.36	224.96
931.66	224.98
931.96	224.99
932.26	225.00
932.56	224.95
932.86	224.95
933.16	224.95
933.46	224.94
933.76	224.92
934.06	224.94
934.36	224.99
934.66	224.98
934.96	224.97
935.26	224.97
935.56	224.99
935.86	224.95
936.16	224.94
936.46	224.93
936.76	224.92
937.06	224.90
937.36	224.91
937.66	224.91
937.96	224.90
938.26	224.87
938.56	224.86
938.86	224.87
939.16	224.90
939.46	224.91
939.76	224.92
940.06	224.92
940.35	224.89
940.65	224.83
940.95	224.84
941.25	224.81
941.55	224.79
941.85	224.78
942.15	224.81
942.45	224.85
942.75	224.85
943.04	224.85
943.34	224.88
943.64	224.86
943.94	224.85
944.24	224.85
944.54	224.86
944.84	224.86
945.13	224.84
945.43	224.82
945.73	224.81
946.03	224.80
946.33	224.79
946.62	224.78
946.92	224.77
947.22	224.78
947.52	224.79
947.82	224.81
948.11	224.80
948.41	224.76
948.71	224.73
949.01	224.74
949.31	224.73
949.60	224.72
949.90	224.74
950.20	224.73
950.50	224.73
950.79	224.72
951.09	224.74
951.39	224.74
951.69	224.72
951.98	224.75
952.28	224.76
952.58	224.75
952.87	224.75
953.17	224.77
953.47	224.75
953.76	224.75
954.06	224.73
954.36	224.71
954.66	224.71
954.95	224.74
955.25	224.75
955.55	224.76
955.84	224.74
956.14	224.75
956.44	224.76
956.73	224.74
957.03	224.74
957.32	224.74
957.62	224.74
957.92	224.76
958.21	224.75
958.51	224.89
958.81	224.91
959.10	224.93
959.40	224.95
959.69	224.96
959.99	224.98
960.29	224.99
960.58	224.98
960.88	225.03
961.17	225.01
961.47	225.02
961.76	225.01
962.06	225.03
962.36	225.02
962.65	225.03
962.95	225.03
963.24	225.02
963.54	225.02
963.83	225.03
964.13	225.02
964.42	225.01
964.72	224.90
965.01	224.90
965.31	224.89
965.60	224.85
965.90	224.93
966.19	224.90
966.49	224.91
966.78	224.90
967.08	224.89
967.37	224.89
967.67	224.87
967.96	224.89
968.26	224.89
968.55	224.90
968.85	224.90
969.14	224.90
969.43	224.90
969.73	224.89
970.02	224.88
970.32	224.87
970.61	224.85
970.91	224.82
971.20	224.80
971.49	224.79
971.79	224.81
972.08	224.72
972.38	224.73
972.67	224.73
972.96	224.75
973.26	224.72
973.55	224.76
973.85	224.75
974.14	224.74
974.43	224.75
974.73	224.73
975.02	224.72
975.31	224.72
975.61	224.72
975.90	224.71
976.19	224.70
976.49	224.71
976.78	224.72
977.07	224.72
977.37	224.73
977.66	224.75
977.95	224.73
978.24	224.74
978.54	224.76
978.83	224.75
979.12	224.74
979.42	224.75
979.71	224.72
980.00	224.72
980.29	224.72
980.59	224.69
980.88	224.73
981.17	224.73
981.46	224.73
981.76	224.73
982.05	224.77
982.34	224.78
982.63	224.78
982.93	224.78
983.22	224.81
983.51	224.81
983.80	224.83
984.09	224.84
984.39	224.83
984.68	224.82
984.97	224.82
985.26	224.82
985.55	224.82
985.85	224.80
986.14	224.82
986.43	224.84
986.72	224.83
987.01	224.79
987.30	224.79
987.59	224.78
987.89	224.78
988.18	224.74
988.47	224.73
988.76	224.72
989.05	224.71
989.34	224.69
989.63	224.72
989.92	224.70
990.22	224.68
990.51	224.68
990.80	224.67
991.09	224.68
991.38	224.70
991.67	224.68
991.96	224.67
992.25	224.67
992.54	224.65
992.83	224.65
993.12	224.65
993.41	224.67
993.70	224.72
993.99	224.74
994.28	224.76
994.58	224.78
994.87	224.77
995.16	224.77
995.45	224.76
995.74	224.71
996.03	224.73
996.32	224.75
996.61	224.78
996.90	224.78
997.19	224.77
997.48	224.77
997.77	224.76
998.06	224.77
998.34	224.75
998.63	224.75
998.92	224.76
999.21	224.78
999.50	224.78
999.79	224.74
1000.08	224.73
1000.37	224.73
1000.66	224.71
1000.95	224.75
1001.24	224.76
1001.53	224.77
1001.82	224.77
1002.11	224.74
1002.40	224.75
1002.68	224.78
1002.97	224.87
1003.26	224.86
1003.55	224.83
1003.84	224.85
1004.13	224.89
1004.42	224.89
1004.71	224.89
1004.99	224.88
1005.28	224.90
1005.57	224.89
1005.86	224.88
1006.15	224.87
1006.44	224.85
1006.72	224.87
1007.01	224.84
1007.30	224.84
1007.59	224.83
1007.88	224.83
1008.17	224.84
1008.45	224.81
1008.74	224.75
1009.03	224.69
1009.32	224.69
1009.60	224.70
1009.89	224.68
1010.18	224.63
1010.47	224.62
1010.76	224.62
1011.04	224.62
1011.33	224.62
1011.62	224.63
1011.91	224.64
1012.19	224.64
1012.48	224.64
1012.77	224.64
1013.05	224.68
1013.34	224.68
1013.63	224.67
1013.92	224.68
1014.20	224.67
1014.49	224.68
1014.78	224.69
1015.06	224.65
1015.35	224.66
1015.64	224.68
1015.92	224.70
1016.21	224.71
1016.50	224.71
1016.78	224.72
1017.07	224.73
1017.36	224.71
1017.64	224.69
1017.93	224.70
1018.22	224.69
1018.50	224.69
1018.79	224.68
1019.08	224.64
1019.36	224.65
1019.65	224.64
1019.93	224.67
1020.22	224.69
1020.51	224.75
1020.79	224.74
1021.08	224.50
1021.36	224.47
1021.65	224.68
1021.94	224.62
1022.22	224.75
1022.51	224.42
1022.79	225.31
1023.08	224.87
1023.36	226.19
1023.65	224.34
>>>>>End Processed Spectral Data<<<<<
