SpectraSuite Data File
++++++++++++++++++++++++++++++++++++
Date: Sat Oct 03 08:35:06 EDT 2015
User: lab3
Dark Spectrum Present: No
Reference Spectrum Present: No
Number of Sampled Component Spectra: 1
Spectrometers: USB2E7196
Integration Time (usec): 46000 (USB2E7196)
Spectra Averaged: 12000 (USB2E7196)
Boxcar Smoothing: 10 (USB2E7196)
Correct for Electrical Dark: No (USB2E7196)
Strobe/Lamp Enabled: No (USB2E7196)
Correct for Detector Non-linearity: No (USB2E7196)
Correct for Stray Light: No (USB2E7196)
Number of Pixels in Processed Spectrum: 2048
>>>>>Begin Processed Spectral Data<<<<<
339.09	0.00
339.48	213.47
339.86	214.88
340.24	216.26
340.63	217.68
341.01	221.01
341.39	220.45
341.78	221.76
342.16	223.03
342.54	223.40
342.93	211.91
343.31	222.61
343.69	223.15
344.07	223.62
344.46	224.05
344.84	224.44
345.22	224.66
345.60	224.91
345.99	225.11
346.37	225.24
346.75	225.35
347.13	225.42
347.52	225.49
347.90	225.58
348.28	225.62
348.66	225.68
349.05	225.67
349.43	225.72
349.81	225.78
350.19	225.83
350.57	225.90
350.96	225.98
351.34	226.07
351.72	226.16
352.10	226.27
352.48	226.34
352.87	226.39
353.25	226.45
353.63	226.51
354.01	226.57
354.39	226.64
354.77	226.72
355.15	226.82
355.54	226.87
355.92	226.90
356.30	226.98
356.68	227.13
357.06	227.21
357.44	227.25
357.82	227.30
358.20	227.43
358.58	227.48
358.97	227.55
359.35	227.63
359.73	227.71
360.11	227.76
360.49	227.82
360.87	227.87
361.25	227.94
361.63	228.03
362.01	228.08
362.39	228.11
362.77	228.16
363.15	228.18
363.53	228.22
363.91	228.25
364.29	228.27
364.67	228.17
365.05	228.20
365.43	228.23
365.81	228.27
366.19	228.28
366.57	228.35
366.95	228.35
367.33	228.32
367.71	228.32
368.09	228.34
368.47	228.33
368.85	228.32
369.23	228.33
369.61	228.27
369.99	228.30
370.37	228.30
370.75	228.37
371.13	228.34
371.51	228.30
371.89	228.28
372.27	228.26
372.65	228.24
373.03	228.20
373.41	228.16
373.78	228.11
374.16	228.01
374.54	227.92
374.92	227.87
375.30	227.83
375.68	227.76
376.06	227.72
376.44	227.66
376.82	227.62
377.19	227.57
377.57	227.52
377.95	227.43
378.33	227.37
378.71	227.21
379.09	227.17
379.47	227.14
379.84	227.08
380.22	227.02
380.60	226.94
380.98	226.90
381.36	226.85
381.73	226.78
382.11	226.76
382.49	226.73
382.87	226.66
383.25	226.62
383.62	226.72
384.00	226.65
384.38	226.62
384.76	226.61
385.13	226.60
385.51	226.56
385.89	226.51
386.27	226.48
386.64	226.47
387.02	226.42
387.40	226.37
387.78	226.35
388.15	226.32
388.53	226.29
388.91	226.26
389.29	226.23
389.66	226.23
390.04	226.18
390.42	226.18
390.79	226.17
391.17	226.15
391.55	225.99
391.92	225.98
392.30	225.99
392.68	225.95
393.05	225.92
393.43	225.92
393.81	225.93
394.18	225.91
394.56	225.91
394.94	225.94
395.31	225.94
395.69	225.99
396.06	226.02
396.44	226.04
396.82	226.06
397.19	226.15
397.57	226.16
397.95	226.21
398.32	226.20
398.70	226.25
399.07	226.32
399.45	226.36
399.82	226.41
400.20	226.45
400.58	226.51
400.95	226.52
401.33	226.61
401.70	226.77
402.08	226.88
402.45	226.97
402.83	227.08
403.20	227.20
403.58	227.29
403.95	227.43
404.33	227.59
404.71	227.74
405.08	227.95
405.46	228.12
405.83	228.31
406.21	228.51
406.58	228.73
406.96	228.95
407.33	229.20
407.70	229.49
408.08	229.88
408.45	230.22
408.83	230.59
409.20	230.92
409.58	231.22
409.95	231.63
410.33	232.08
410.70	232.50
411.08	233.00
411.45	233.53
411.82	234.06
412.20	234.67
412.57	235.40
412.95	235.96
413.32	236.71
413.69	237.47
414.07	238.28
414.44	239.15
414.82	240.06
415.19	241.11
415.56	242.18
415.94	243.28
416.31	244.52
416.68	245.76
417.06	247.20
417.43	248.55
417.81	250.10
418.18	251.68
418.55	253.41
418.93	255.21
419.30	257.08
419.67	259.07
420.04	261.12
420.42	263.25
420.79	265.71
421.16	268.20
421.54	270.73
421.91	273.37
422.28	276.11
422.66	279.05
423.03	281.87
423.40	284.82
423.77	287.99
424.15	291.23
424.52	294.61
424.89	298.27
425.26	301.90
425.64	305.28
426.01	309.07
426.38	312.96
426.75	316.96
427.13	321.06
427.50	325.36
427.87	329.82
428.24	334.34
428.61	338.67
428.99	343.36
429.36	348.50
429.73	353.42
430.10	358.33
430.47	363.37
430.85	368.54
431.22	374.10
431.59	379.81
431.96	385.38
432.33	391.58
432.70	397.47
433.08	404.42
433.45	411.01
433.82	417.49
434.19	424.73
434.56	431.87
434.93	438.76
435.30	445.58
435.68	453.28
436.05	460.82
436.42	468.34
436.79	475.20
437.16	482.58
437.53	490.50
437.90	498.44
438.27	506.19
438.64	514.58
439.01	522.17
439.38	529.13
439.75	535.82
440.13	543.36
440.50	550.53
440.87	556.21
441.24	562.44
441.61	569.24
441.98	574.18
442.35	580.04
442.72	586.02
443.09	591.72
443.46	595.31
443.83	597.92
444.20	600.09
444.57	603.35
444.94	605.18
445.31	607.08
445.68	608.67
446.05	609.81
446.42	609.36
446.79	608.71
447.16	608.13
447.53	607.58
447.90	605.07
448.27	602.66
448.64	599.06
449.01	596.53
449.37	591.58
449.74	587.10
450.11	581.34
450.48	575.07
450.85	568.78
451.22	563.41
451.59	558.17
451.96	553.43
452.33	546.58
452.70	540.49
453.07	533.07
453.43	525.68
453.80	518.51
454.17	511.64
454.54	505.33
454.91	498.18
455.28	491.51
455.65	485.22
456.02	478.60
456.38	473.26
456.75	466.38
457.12	460.86
457.49	455.27
457.86	450.03
458.23	445.45
458.59	440.37
458.96	435.15
459.33	430.56
459.70	425.89
460.07	422.35
460.43	418.18
460.80	414.29
461.17	410.92
461.54	407.25
461.91	403.82
462.27	400.34
462.64	397.55
463.01	394.31
463.38	391.05
463.74	388.10
464.11	385.51
464.48	383.19
464.85	380.64
465.21	378.74
465.58	376.59
465.95	374.11
466.32	372.15
466.68	370.23
467.05	368.30
467.42	366.41
467.78	364.35
468.15	362.47
468.52	361.11
468.88	359.25
469.25	357.55
469.62	356.21
469.98	354.74
470.35	353.43
470.72	352.25
471.08	351.03
471.45	350.03
471.82	348.90
472.18	347.69
472.55	346.91
472.92	345.92
473.28	345.15
473.65	344.33
474.02	343.53
474.38	342.87
474.75	342.46
475.11	341.92
475.48	341.66
475.85	341.37
476.21	341.20
476.58	341.09
476.94	341.20
477.31	341.25
477.67	341.32
478.04	341.51
478.41	341.79
478.77	342.20
479.14	342.45
479.50	342.94
479.87	343.60
480.23	344.25
480.60	344.90
480.96	345.55
481.33	346.53
481.69	347.51
482.06	348.48
482.42	349.36
482.79	350.47
483.15	351.75
483.52	353.22
483.88	354.63
484.25	356.13
484.61	357.69
484.98	359.39
485.34	361.30
485.71	363.29
486.07	365.43
486.44	367.56
486.80	369.94
487.17	372.41
487.53	375.12
487.90	377.95
488.26	381.05
488.62	384.31
488.99	387.56
489.35	390.99
489.72	394.70
490.08	398.62
490.44	402.66
490.81	406.87
491.17	411.18
491.54	415.81
491.90	420.59
492.26	425.70
492.63	431.05
492.99	436.63
493.36	442.43
493.72	448.51
494.08	454.75
494.45	461.37
494.81	468.24
495.17	475.29
495.54	482.75
495.90	490.51
496.26	498.45
496.63	506.63
496.99	515.12
497.35	524.01
497.72	533.21
498.08	542.60
498.44	552.31
498.80	562.59
499.17	573.14
499.53	584.03
499.89	595.28
500.26	606.77
500.62	618.54
500.98	630.96
501.34	643.56
501.71	656.69
502.07	670.00
502.43	683.84
502.79	697.92
503.16	712.46
503.52	727.19
503.88	742.35
504.24	757.98
504.60	773.81
504.97	790.14
505.33	806.88
505.69	824.54
506.05	842.55
506.41	860.50
506.78	878.62
507.14	897.25
507.50	916.35
507.86	935.77
508.22	955.43
508.59	974.93
508.95	995.21
509.31	1016.24
509.67	1037.99
510.03	1059.75
510.39	1081.55
510.75	1103.54
511.12	1125.81
511.48	1148.28
511.84	1170.78
512.20	1193.66
512.56	1217.43
512.92	1241.21
513.28	1264.62
513.64	1288.27
514.00	1312.39
514.37	1336.83
514.73	1361.24
515.09	1385.52
515.45	1410.12
515.81	1434.92
516.17	1459.85
516.53	1484.33
516.89	1508.69
517.25	1533.21
517.61	1557.58
517.97	1582.44
518.33	1606.82
518.69	1631.14
519.05	1655.89
519.41	1680.93
519.77	1706.26
520.13	1730.81
520.49	1755.28
520.85	1780.05
521.21	1804.46
521.57	1829.20
521.93	1853.41
522.29	1878.18
522.65	1902.40
523.01	1926.60
523.37	1950.40
523.73	1974.90
524.09	1999.11
524.45	2023.10
524.81	2046.73
525.17	2070.24
525.53	2093.19
525.89	2116.56
526.25	2139.90
526.61	2162.25
526.97	2184.75
527.33	2207.10
527.68	2229.24
528.04	2250.59
528.40	2271.03
528.76	2291.60
529.12	2311.76
529.48	2331.69
529.84	2349.68
530.20	2368.33
530.56	2386.38
530.91	2404.55
531.27	2422.40
531.63	2439.37
531.99	2455.86
532.35	2471.67
532.71	2487.66
533.07	2504.29
533.42	2519.12
533.78	2534.91
534.14	2550.89
534.50	2565.98
534.86	2580.79
535.21	2593.70
535.57	2607.10
535.93	2620.28
536.29	2632.37
536.65	2644.21
537.00	2655.26
537.36	2667.36
537.72	2678.06
538.08	2688.22
538.44	2697.68
538.79	2706.76
539.15	2715.07
539.51	2723.06
539.87	2730.44
540.22	2735.68
540.58	2741.01
540.94	2747.49
541.29	2752.47
541.65	2755.73
542.01	2758.12
542.37	2759.91
542.72	2763.04
543.08	2764.45
543.44	2766.47
543.79	2767.43
544.15	2767.55
544.51	2768.10
544.87	2767.50
545.22	2766.20
545.58	2764.20
545.94	2762.17
546.29	2758.87
546.65	2755.53
547.01	2752.06
547.36	2749.29
547.72	2746.83
548.07	2742.55
548.43	2736.87
548.79	2730.12
549.14	2724.63
549.50	2719.53
549.86	2713.47
550.21	2706.22
550.57	2699.97
550.92	2691.42
551.28	2683.38
551.64	2675.76
551.99	2667.67
552.35	2658.96
552.70	2650.48
553.06	2642.33
553.41	2633.56
553.77	2624.58
554.13	2615.55
554.48	2605.73
554.84	2594.63
555.19	2583.91
555.55	2573.28
555.90	2562.72
556.26	2552.78
556.61	2541.74
556.97	2529.05
557.32	2516.85
557.68	2504.64
558.03	2492.09
558.39	2480.79
558.74	2469.82
559.10	2457.04
559.45	2444.49
559.81	2432.56
560.16	2420.00
560.52	2407.71
560.87	2395.82
561.23	2383.07
561.58	2370.35
561.94	2357.32
562.29	2343.79
562.64	2330.93
563.00	2317.81
563.35	2305.05
563.71	2292.12
564.06	2279.10
564.42	2266.82
564.77	2253.96
565.12	2240.97
565.48	2227.98
565.83	2214.91
566.19	2201.98
566.54	2189.06
566.89	2175.01
567.25	2161.05
567.60	2148.50
567.96	2135.00
568.31	2120.16
568.66	2106.01
569.02	2093.11
569.37	2080.14
569.72	2067.61
570.08	2053.89
570.43	2039.79
570.78	2025.60
571.14	2010.66
571.49	1996.32
571.84	1982.52
572.20	1967.54
572.55	1952.78
572.90	1937.98
573.26	1923.20
573.61	1907.94
573.96	1893.11
574.31	1878.47
574.67	1863.97
575.02	1848.36
575.37	1832.87
575.72	1818.18
576.08	1803.84
576.43	1788.35
576.78	1773.27
577.13	1758.49
577.49	1744.06
577.84	1730.23
578.19	1715.45
578.54	1700.85
578.90	1685.75
579.25	1670.58
579.60	1656.96
579.95	1643.26
580.30	1629.36
580.66	1615.20
581.01	1600.92
581.36	1586.61
581.71	1573.33
582.06	1559.96
582.42	1546.82
582.77	1533.75
583.12	1520.65
583.47	1507.41
583.82	1494.30
584.17	1480.85
584.53	1467.07
584.88	1453.66
585.23	1439.81
585.58	1426.76
585.93	1413.91
586.28	1401.83
586.63	1389.70
586.98	1377.16
587.34	1364.67
587.69	1351.86
588.04	1339.39
588.39	1327.29
588.74	1315.37
589.09	1303.22
589.44	1290.63
589.79	1278.66
590.14	1266.81
590.49	1254.89
590.84	1243.14
591.19	1231.76
591.54	1220.19
591.89	1208.75
592.25	1197.50
592.60	1185.88
592.95	1174.69
593.30	1163.73
593.65	1152.46
594.00	1141.35
594.35	1130.76
594.70	1119.72
595.05	1109.59
595.40	1099.38
595.75	1089.00
596.10	1079.15
596.45	1069.03
596.80	1059.27
597.15	1049.21
597.50	1039.32
597.85	1029.88
598.19	1020.24
598.54	1010.63
598.89	1001.50
599.24	992.69
599.59	983.67
599.94	975.59
600.29	967.29
600.64	958.71
600.99	949.76
601.34	941.15
601.69	932.23
602.04	923.99
602.39	915.58
602.74	907.22
603.08	898.82
603.43	890.37
603.78	882.12
604.13	874.00
604.48	865.92
604.83	858.00
605.18	849.97
605.53	842.11
605.87	834.10
606.22	826.36
606.57	818.57
606.92	810.72
607.27	802.79
607.62	795.14
607.96	787.93
608.31	781.16
608.66	774.18
609.01	767.47
609.36	760.86
609.70	754.05
610.05	747.21
610.40	740.65
610.75	734.08
611.10	727.84
611.44	721.43
611.79	715.13
612.14	708.77
612.49	702.48
612.83	696.49
613.18	690.64
613.53	684.70
613.88	678.76
614.22	673.22
614.57	667.64
614.92	661.93
615.27	656.30
615.61	650.73
615.96	645.21
616.31	639.71
616.65	634.26
617.00	629.01
617.35	623.88
617.70	618.78
618.04	613.76
618.39	608.65
618.74	603.79
619.08	598.97
619.43	594.27
619.78	589.58
620.12	584.86
620.47	580.29
620.82	575.85
621.16	571.45
621.51	566.93
621.85	562.44
622.20	558.12
622.55	553.82
622.89	549.62
623.24	545.42
623.59	541.25
623.93	537.26
624.28	533.35
624.62	529.52
624.97	525.74
625.32	521.92
625.66	518.06
626.01	514.17
626.35	510.36
626.70	506.59
627.04	503.00
627.39	499.34
627.73	495.85
628.08	492.44
628.43	489.03
628.77	485.69
629.12	482.48
629.46	479.30
629.81	476.03
630.15	472.75
630.50	469.56
630.84	466.43
631.19	463.36
631.53	460.40
631.88	457.40
632.22	454.42
632.57	451.74
632.91	449.09
633.26	446.53
633.60	443.97
633.95	441.47
634.29	438.89
634.64	436.38
634.98	433.70
635.32	431.15
635.67	428.79
636.01	426.37
636.36	423.98
636.70	421.72
637.05	419.47
637.39	417.27
637.73	415.08
638.08	413.03
638.42	410.93
638.77	408.71
639.11	406.42
639.45	404.22
639.80	401.95
640.14	399.79
640.49	397.63
640.83	395.44
641.17	393.35
641.52	391.31
641.86	389.28
642.20	387.47
642.55	385.49
642.89	383.54
643.23	381.68
643.58	379.99
643.92	378.17
644.26	376.41
644.61	374.71
644.95	372.98
645.29	371.15
645.64	369.37
645.98	367.67
646.32	366.09
646.66	364.50
647.01	362.93
647.35	361.40
647.69	359.86
648.04	358.45
648.38	356.96
648.72	355.49
649.06	354.03
649.41	352.56
649.75	351.17
650.09	349.80
650.43	348.42
650.78	346.99
651.12	345.61
651.46	344.28
651.80	342.97
652.14	341.68
652.49	340.46
652.83	339.19
653.17	337.98
653.51	336.81
653.85	335.68
654.20	334.52
654.54	333.28
654.88	332.13
655.22	331.01
655.56	329.87
655.90	328.80
656.25	327.76
656.59	326.70
656.93	325.71
657.27	324.72
657.61	323.69
657.95	322.69
658.29	321.70
658.64	320.76
658.98	319.81
659.32	318.89
659.66	318.01
660.00	317.16
660.34	316.30
660.68	315.42
661.02	314.52
661.36	313.64
661.70	312.81
662.05	312.00
662.39	311.19
662.73	310.46
663.07	309.74
663.41	308.98
663.75	308.21
664.09	307.44
664.43	306.65
664.77	305.93
665.11	305.18
665.45	304.48
665.79	303.79
666.13	303.07
666.47	302.34
666.81	301.60
667.15	300.83
667.49	300.17
667.83	299.56
668.17	298.91
668.51	298.31
668.85	297.75
669.19	297.22
669.53	296.58
669.87	295.94
670.21	295.31
670.55	294.73
670.89	294.23
671.23	293.69
671.57	293.15
671.91	292.65
672.25	292.19
672.58	291.72
672.92	291.16
673.26	290.70
673.60	290.24
673.94	289.79
674.28	289.38
674.62	288.92
674.96	288.41
675.30	287.97
675.64	287.49
675.97	287.00
676.31	286.48
676.65	286.01
676.99	285.62
677.33	285.14
677.67	284.71
678.01	284.20
678.34	283.77
678.68	283.37
679.02	282.90
679.36	282.45
679.70	282.00
680.04	281.59
680.37	281.17
680.71	280.77
681.05	280.39
681.39	279.96
681.73	279.52
682.06	279.10
682.40	278.69
682.74	278.34
683.08	278.03
683.42	277.66
683.75	277.32
684.09	276.89
684.43	276.54
684.77	276.17
685.10	275.85
685.44	275.50
685.78	275.15
686.12	274.83
686.45	274.47
686.79	274.10
687.13	273.77
687.46	273.40
687.80	273.06
688.14	272.67
688.48	272.35
688.81	272.01
689.15	271.71
689.49	271.36
689.82	271.00
690.16	270.58
690.50	270.24
690.83	269.90
691.17	269.55
691.51	269.22
691.84	268.90
692.18	268.55
692.52	268.19
692.85	267.85
693.19	267.55
693.52	267.22
693.86	266.90
694.20	266.58
694.53	266.27
694.87	265.93
695.21	265.61
695.54	265.28
695.88	264.95
696.21	264.60
696.55	264.29
696.88	263.97
697.22	263.67
697.56	263.36
697.89	263.01
698.23	262.70
698.56	262.37
698.90	262.06
699.23	261.73
699.57	261.42
699.90	261.09
700.24	260.75
700.58	260.47
700.91	260.22
701.25	260.03
701.58	259.79
701.92	259.54
702.25	259.26
702.59	258.97
702.92	258.69
703.26	258.41
703.59	258.12
703.93	257.93
704.26	257.66
704.60	257.38
704.93	257.10
705.26	256.81
705.60	256.57
705.93	256.27
706.27	256.04
706.60	255.81
706.94	255.60
707.27	255.31
707.61	255.02
707.94	254.73
708.27	254.33
708.61	254.01
708.94	253.72
709.28	253.46
709.61	253.19
709.94	252.95
710.28	252.72
710.61	252.50
710.95	252.16
711.28	251.99
711.61	251.75
711.95	251.55
712.28	251.31
712.61	251.05
712.95	250.90
713.28	250.73
713.61	250.47
713.95	250.19
714.28	249.98
714.61	249.75
714.95	249.52
715.28	249.31
715.61	249.10
715.95	248.90
716.28	248.70
716.61	248.53
716.95	248.30
717.28	248.09
717.61	247.86
717.94	247.66
718.28	247.36
718.61	247.15
718.94	246.92
719.27	246.73
719.61	246.55
719.94	246.31
720.27	246.03
720.60	245.84
720.94	245.65
721.27	245.47
721.60	245.30
721.93	245.11
722.27	244.96
722.60	244.79
722.93	244.59
723.26	244.41
723.59	244.19
723.93	244.03
724.26	243.85
724.59	243.67
724.92	243.51
725.25	243.39
725.59	243.22
725.92	243.09
726.25	242.93
726.58	242.76
726.91	242.59
727.24	242.45
727.57	242.29
727.91	242.11
728.24	241.98
728.57	241.81
728.90	241.67
729.23	241.48
729.56	241.37
729.89	241.22
730.22	241.05
730.55	240.91
730.89	240.76
731.22	240.60
731.55	240.46
731.88	240.31
732.21	240.13
732.54	239.99
732.87	239.84
733.20	239.71
733.53	239.57
733.86	239.44
734.19	239.29
734.52	239.17
734.85	239.14
735.18	238.97
735.51	238.87
735.84	238.75
736.17	238.66
736.50	238.47
736.83	238.50
737.16	238.38
737.49	238.27
737.82	238.14
738.15	238.04
738.48	237.93
738.81	237.80
739.14	237.67
739.47	237.55
739.80	237.42
740.13	237.31
740.46	237.18
740.79	237.05
741.12	236.93
741.45	236.79
741.78	236.60
742.11	236.53
742.44	236.39
742.77	236.29
743.10	236.16
743.43	236.05
743.75	235.80
744.08	235.89
744.41	235.77
744.74	235.66
745.07	235.53
745.40	235.45
745.73	235.41
746.06	235.32
746.39	235.23
746.71	235.13
747.04	235.03
747.37	234.93
747.70	234.87
748.03	234.79
748.36	234.72
748.68	234.63
749.01	234.50
749.34	234.41
749.67	234.33
750.00	234.26
750.33	234.27
750.65	234.19
750.98	233.92
751.31	233.83
751.64	233.76
751.97	233.75
752.29	233.65
752.62	233.51
752.95	233.42
753.28	233.32
753.60	233.23
753.93	233.18
754.26	233.11
754.59	232.99
754.91	232.89
755.24	232.79
755.57	232.77
755.90	232.70
756.22	232.60
756.55	232.50
756.88	232.40
757.20	232.24
757.53	232.12
757.86	232.05
758.19	231.98
758.51	231.90
758.84	231.76
759.17	231.68
759.49	231.61
759.82	231.61
760.15	231.56
760.47	231.49
760.80	231.39
761.13	231.34
761.45	231.28
761.78	231.22
762.11	231.16
762.43	231.03
762.76	230.98
763.08	230.93
763.41	230.88
763.74	230.83
764.06	230.77
764.39	230.72
764.71	230.67
765.04	230.60
765.37	230.53
765.69	230.48
766.02	230.43
766.34	230.37
766.67	230.26
767.00	230.23
767.32	230.25
767.65	230.28
767.97	230.22
768.30	230.17
768.62	230.13
768.95	230.07
769.27	230.02
769.60	229.98
769.92	229.91
770.25	229.85
770.57	229.78
770.90	229.73
771.22	229.67
771.55	229.63
771.87	229.60
772.20	229.56
772.52	229.62
772.85	229.74
773.17	229.70
773.50	229.66
773.82	229.59
774.15	229.49
774.47	229.37
774.80	229.32
775.12	229.28
775.45	229.24
775.77	229.21
776.09	229.18
776.42	229.15
776.74	229.16
777.07	229.12
777.39	229.10
777.72	229.06
778.04	229.05
778.36	229.00
778.69	228.97
779.01	228.95
779.33	228.81
779.66	228.63
779.98	228.59
780.31	228.57
780.63	228.59
780.95	228.58
781.28	228.56
781.60	228.52
781.92	228.49
782.25	228.47
782.57	228.44
782.89	228.41
783.22	228.37
783.54	228.31
783.86	228.30
784.19	228.27
784.51	228.28
784.83	228.24
785.16	228.21
785.48	228.19
785.80	228.17
786.12	228.16
786.45	228.14
786.77	228.12
787.09	228.09
787.42	228.02
787.74	228.00
788.06	227.99
788.38	227.96
788.71	227.94
789.03	227.92
789.35	227.91
789.67	227.88
789.99	227.87
790.32	227.84
790.64	227.83
790.96	227.93
791.28	227.87
791.61	227.84
791.93	227.83
792.25	227.80
792.57	227.87
792.89	227.83
793.21	227.83
793.54	227.79
793.86	227.76
794.18	227.75
794.50	227.70
794.82	227.68
795.14	227.68
795.47	227.69
795.79	227.67
796.11	227.62
796.43	227.60
796.75	227.58
797.07	227.57
797.39	227.55
797.71	227.42
798.04	227.42
798.36	227.41
798.68	227.40
799.00	227.39
799.32	227.31
799.64	227.32
799.96	227.30
800.28	227.31
800.60	227.29
800.92	227.28
801.24	227.27
801.56	227.26
801.89	227.23
802.21	227.22
802.53	227.18
802.85	227.20
803.17	227.25
803.49	227.20
803.81	227.18
804.13	227.16
804.45	227.13
804.77	227.12
805.09	227.11
805.41	227.08
805.73	227.04
806.05	226.99
806.37	226.97
806.69	226.94
807.01	226.92
807.33	226.91
807.65	226.86
807.97	226.90
808.28	226.88
808.60	226.86
808.92	226.83
809.24	226.90
809.56	226.87
809.88	226.81
810.20	226.81
810.52	226.82
810.84	226.79
811.16	226.77
811.48	226.75
811.80	226.78
812.12	226.77
812.43	226.78
812.75	226.78
813.07	226.76
813.39	226.76
813.71	226.73
814.03	226.71
814.35	226.71
814.67	226.65
814.98	226.62
815.30	226.61
815.62	226.58
815.94	226.49
816.26	226.49
816.58	226.46
816.89	226.46
817.21	226.42
817.53	226.43
817.85	226.43
818.17	226.42
818.48	226.36
818.80	226.37
819.12	226.34
819.44	226.32
819.76	226.29
820.07	226.28
820.39	226.28
820.71	226.28
821.03	226.27
821.34	226.26
821.66	226.27
821.98	226.27
822.30	226.26
822.61	226.33
822.93	226.30
823.25	226.30
823.57	226.27
823.88	226.28
824.20	226.27
824.52	226.28
824.83	226.27
825.15	226.26
825.47	226.24
825.79	226.25
826.10	226.24
826.42	226.23
826.74	226.23
827.05	226.22
827.37	226.22
827.69	226.21
828.00	226.21
828.32	226.20
828.64	226.17
828.95	226.24
829.27	226.20
829.58	226.20
829.90	226.21
830.22	226.22
830.53	226.19
830.85	226.17
831.17	226.13
831.48	226.13
831.80	226.13
832.11	226.12
832.43	226.09
832.75	226.08
833.06	226.16
833.38	226.12
833.69	226.11
834.01	226.11
834.32	226.10
834.64	226.08
834.96	226.08
835.27	226.07
835.59	226.02
835.90	226.00
836.22	225.99
836.53	225.96
836.85	225.94
837.16	226.07
837.48	226.07
837.79	226.11
838.11	226.11
838.42	226.11
838.74	226.12
839.05	226.11
839.37	226.11
839.68	226.03
840.00	226.02
840.31	226.04
840.63	226.02
840.94	226.00
841.26	225.99
841.57	225.98
841.88	225.99
842.20	225.98
842.51	225.95
842.83	225.94
843.14	226.06
843.46	226.05
843.77	225.98
844.08	225.97
844.40	225.92
844.71	225.90
845.03	225.89
845.34	225.88
845.65	225.87
845.97	225.87
846.28	225.87
846.60	225.88
846.91	225.85
847.22	225.85
847.54	225.88
847.85	225.88
848.16	225.87
848.48	225.84
848.79	225.89
849.10	225.90
849.42	225.91
849.73	225.79
850.04	225.79
850.36	225.74
850.67	225.76
850.98	225.76
851.30	225.77
851.61	225.77
851.92	225.76
852.23	225.80
852.55	225.81
852.86	225.81
853.17	225.81
853.49	225.84
853.80	225.86
854.11	225.87
854.42	225.88
854.74	225.87
855.05	225.87
855.36	225.81
855.67	225.81
855.99	225.81
856.30	225.95
856.61	225.95
856.92	225.95
857.23	225.95
857.55	225.94
857.86	225.93
858.17	225.94
858.48	225.92
858.79	225.89
859.11	225.89
859.42	225.88
859.73	225.86
860.04	225.85
860.35	225.81
860.66	225.77
860.98	225.76
861.29	225.77
861.60	225.76
861.91	225.79
862.22	225.77
862.53	225.74
862.84	225.59
863.16	225.62
863.47	225.60
863.78	225.58
864.09	225.59
864.40	225.60
864.71	225.60
865.02	225.62
865.33	225.60
865.64	225.58
865.95	225.58
866.27	225.66
866.58	225.65
866.89	225.66
867.20	225.66
867.51	225.64
867.82	225.63
868.13	225.67
868.44	225.64
868.75	225.67
869.06	225.67
869.37	225.68
869.68	225.65
869.99	225.67
870.30	225.68
870.61	225.69
870.92	225.66
871.23	225.65
871.54	225.66
871.85	225.69
872.16	225.70
872.47	225.69
872.78	225.62
873.09	225.63
873.40	225.62
873.71	225.62
874.02	225.63
874.33	225.62
874.64	225.59
874.95	225.62
875.26	225.59
875.56	225.59
875.87	225.58
876.18	225.57
876.49	225.69
876.80	225.68
877.11	225.65
877.42	225.66
877.73	225.66
878.04	225.63
878.35	225.63
878.66	225.63
878.96	225.63
879.27	225.63
879.58	225.62
879.89	225.61
880.20	225.65
880.51	225.64
880.82	225.65
881.12	225.65
881.43	225.63
881.74	225.61
882.05	225.61
882.36	225.61
882.67	225.63
882.97	225.49
883.28	225.48
883.59	225.48
883.90	225.49
884.21	225.51
884.51	225.50
884.82	225.48
885.13	225.47
885.44	225.47
885.74	225.47
886.05	225.46
886.36	225.46
886.67	225.41
886.98	225.47
887.28	225.48
887.59	225.48
887.90	225.48
888.20	225.48
888.51	225.50
888.82	225.48
889.13	225.49
889.43	225.60
889.74	225.59
890.05	225.59
890.35	225.57
890.66	225.55
890.97	225.54
891.28	225.53
891.58	225.53
891.89	225.53
892.20	225.51
892.50	225.50
892.81	225.50
893.12	225.50
893.42	225.43
893.73	225.44
894.04	225.43
894.34	225.44
894.65	225.44
894.95	225.43
895.26	225.44
895.57	225.49
895.87	225.36
896.18	225.39
896.48	225.39
896.79	225.39
897.10	225.41
897.40	225.42
897.71	225.44
898.01	225.43
898.32	225.44
898.63	225.44
898.93	225.45
899.24	225.45
899.54	225.44
899.85	225.44
900.15	225.43
900.46	225.42
900.76	225.43
901.07	225.44
901.38	225.43
901.68	225.44
901.99	225.37
902.29	225.39
902.60	225.37
902.90	225.36
903.21	225.36
903.51	225.35
903.82	225.37
904.12	225.37
904.43	225.38
904.73	225.37
905.03	225.38
905.34	225.50
905.64	225.49
905.95	225.49
906.25	225.49
906.56	225.49
906.86	225.49
907.17	225.48
907.47	225.48
907.77	225.47
908.08	225.45
908.38	225.46
908.69	225.46
908.99	225.49
909.30	225.49
909.60	225.50
909.90	225.50
910.21	225.47
910.51	225.44
910.81	225.44
911.12	225.45
911.42	225.45
911.73	225.32
912.03	225.33
912.33	225.35
912.64	225.34
912.94	225.33
913.24	225.31
913.55	225.30
913.85	225.29
914.15	225.32
914.46	225.33
914.76	225.32
915.06	225.30
915.37	225.28
915.67	225.27
915.97	225.26
916.27	225.23
916.58	225.24
916.88	225.25
917.18	225.24
917.49	225.32
917.79	225.31
918.09	225.33
918.39	225.36
918.70	225.35
919.00	225.35
919.30	225.41
919.60	225.41
919.91	225.40
920.21	225.40
920.51	225.37
920.81	225.37
921.12	225.39
921.42	225.39
921.72	225.39
922.02	225.40
922.32	225.42
922.63	225.42
922.93	225.49
923.23	225.50
923.53	225.49
923.83	225.40
924.13	225.42
924.44	225.41
924.74	225.43
925.04	225.46
925.34	225.45
925.64	225.40
925.94	225.40
926.24	225.47
926.55	225.46
926.85	225.48
927.15	225.48
927.45	225.48
927.75	225.47
928.05	225.47
928.35	225.46
928.65	225.48
928.95	225.49
929.26	225.43
929.56	225.46
929.86	225.47
930.16	225.46
930.46	225.45
930.76	225.45
931.06	225.39
931.36	225.36
931.66	225.38
931.96	225.40
932.26	225.40
932.56	225.35
932.86	225.36
933.16	225.35
933.46	225.34
933.76	225.32
934.06	225.35
934.36	225.39
934.66	225.39
934.96	225.37
935.26	225.37
935.56	225.39
935.86	225.35
936.16	225.34
936.46	225.33
936.76	225.32
937.06	225.30
937.36	225.32
937.66	225.33
937.96	225.31
938.26	225.29
938.56	225.28
938.86	225.28
939.16	225.31
939.46	225.32
939.76	225.33
940.06	225.33
940.35	225.30
940.65	225.24
940.95	225.25
941.25	225.22
941.55	225.21
941.85	225.20
942.15	225.23
942.45	225.26
942.75	225.26
943.04	225.27
943.34	225.29
943.64	225.28
943.94	225.26
944.24	225.26
944.54	225.27
944.84	225.27
945.13	225.25
945.43	225.22
945.73	225.22
946.03	225.20
946.33	225.19
946.62	225.18
946.92	225.18
947.22	225.18
947.52	225.20
947.82	225.21
948.11	225.20
948.41	225.17
948.71	225.13
949.01	225.14
949.31	225.13
949.60	225.12
949.90	225.14
950.20	225.14
950.50	225.13
950.79	225.12
951.09	225.14
951.39	225.14
951.69	225.13
951.98	225.15
952.28	225.16
952.58	225.16
952.87	225.16
953.17	225.18
953.47	225.16
953.76	225.16
954.06	225.13
954.36	225.12
954.66	225.12
954.95	225.16
955.25	225.16
955.55	225.18
955.84	225.16
956.14	225.16
956.44	225.17
956.73	225.15
957.03	225.16
957.32	225.16
957.62	225.16
957.92	225.19
958.21	225.17
958.51	225.32
958.81	225.33
959.10	225.35
959.40	225.37
959.69	225.38
959.99	225.40
960.29	225.40
960.58	225.40
960.88	225.45
961.17	225.43
961.47	225.44
961.76	225.43
962.06	225.45
962.36	225.44
962.65	225.44
962.95	225.45
963.24	225.44
963.54	225.44
963.83	225.45
964.13	225.44
964.42	225.42
964.72	225.31
965.01	225.32
965.31	225.31
965.60	225.28
965.90	225.36
966.19	225.32
966.49	225.34
966.78	225.34
967.08	225.32
967.37	225.32
967.67	225.30
967.96	225.32
968.26	225.31
968.55	225.33
968.85	225.33
969.14	225.33
969.43	225.32
969.73	225.31
970.02	225.30
970.32	225.30
970.61	225.28
970.91	225.24
971.20	225.22
971.49	225.21
971.79	225.23
972.08	225.13
972.38	225.15
972.67	225.14
972.96	225.15
973.26	225.13
973.55	225.17
973.85	225.16
974.14	225.15
974.43	225.15
974.73	225.13
975.02	225.12
975.31	225.12
975.61	225.12
975.90	225.11
976.19	225.10
976.49	225.11
976.78	225.12
977.07	225.12
977.37	225.14
977.66	225.15
977.95	225.13
978.24	225.14
978.54	225.17
978.83	225.16
979.12	225.15
979.42	225.15
979.71	225.12
980.00	225.12
980.29	225.13
980.59	225.11
980.88	225.14
981.17	225.14
981.46	225.14
981.76	225.14
982.05	225.18
982.34	225.19
982.63	225.18
982.93	225.19
983.22	225.22
983.51	225.22
983.80	225.24
984.09	225.25
984.39	225.24
984.68	225.22
984.97	225.23
985.26	225.22
985.55	225.24
985.85	225.21
986.14	225.23
986.43	225.25
986.72	225.24
987.01	225.20
987.30	225.20
987.59	225.19
987.89	225.20
988.18	225.16
988.47	225.15
988.76	225.13
989.05	225.12
989.34	225.10
989.63	225.13
989.92	225.11
990.22	225.09
990.51	225.09
990.80	225.08
991.09	225.08
991.38	225.10
991.67	225.08
991.96	225.07
992.25	225.07
992.54	225.05
992.83	225.05
993.12	225.05
993.41	225.07
993.70	225.12
993.99	225.14
994.28	225.16
994.58	225.18
994.87	225.17
995.16	225.17
995.45	225.16
995.74	225.11
996.03	225.13
996.32	225.15
996.61	225.17
996.90	225.17
997.19	225.17
997.48	225.17
997.77	225.15
998.06	225.16
998.34	225.15
998.63	225.15
998.92	225.16
999.21	225.18
999.50	225.18
999.79	225.13
1000.08	225.13
1000.37	225.12
1000.66	225.11
1000.95	225.14
1001.24	225.15
1001.53	225.17
1001.82	225.17
1002.11	225.15
1002.40	225.15
1002.68	225.18
1002.97	225.27
1003.26	225.25
1003.55	225.24
1003.84	225.25
1004.13	225.29
1004.42	225.28
1004.71	225.28
1004.99	225.27
1005.28	225.30
1005.57	225.29
1005.86	225.28
1006.15	225.27
1006.44	225.25
1006.72	225.26
1007.01	225.23
1007.30	225.23
1007.59	225.22
1007.88	225.22
1008.17	225.23
1008.45	225.20
1008.74	225.15
1009.03	225.09
1009.32	225.10
1009.60	225.10
1009.89	225.09
1010.18	225.04
1010.47	225.03
1010.76	225.03
1011.04	225.03
1011.33	225.02
1011.62	225.03
1011.91	225.05
1012.19	225.05
1012.48	225.06
1012.77	225.05
1013.05	225.10
1013.34	225.10
1013.63	225.09
1013.92	225.10
1014.20	225.09
1014.49	225.10
1014.78	225.11
1015.06	225.07
1015.35	225.07
1015.64	225.09
1015.92	225.11
1016.21	225.11
1016.50	225.12
1016.78	225.13
1017.07	225.14
1017.36	225.12
1017.64	225.10
1017.93	225.11
1018.22	225.09
1018.50	225.09
1018.79	225.09
1019.08	225.04
1019.36	225.04
1019.65	225.03
1019.93	225.06
1020.22	225.08
1020.51	225.15
1020.79	225.13
1021.08	224.90
1021.36	224.87
1021.65	225.06
1021.94	224.98
1022.22	225.15
1022.51	224.80
1022.79	225.69
1023.08	225.23
1023.36	226.60
1023.65	224.77
>>>>>End Processed Spectral Data<<<<<
