SpectraSuite Data File
++++++++++++++++++++++++++++++++++++
Date: Fri Oct 02 19:29:35 EDT 2015
User: lab3
Dark Spectrum Present: No
Reference Spectrum Present: No
Number of Sampled Component Spectra: 1
Spectrometers: USB2E7196
Integration Time (usec): 46000 (USB2E7196)
Spectra Averaged: 4500 (USB2E7196)
Boxcar Smoothing: 10 (USB2E7196)
Correct for Electrical Dark: No (USB2E7196)
Strobe/Lamp Enabled: No (USB2E7196)
Correct for Detector Non-linearity: No (USB2E7196)
Correct for Stray Light: No (USB2E7196)
Number of Pixels in Processed Spectrum: 2048
>>>>>Begin Processed Spectral Data<<<<<
339.09	0.00
339.48	215.18
339.86	216.63
340.24	218.07
340.63	219.41
341.01	222.65
341.39	222.10
341.78	223.58
342.16	224.77
342.54	225.18
342.93	213.55
343.31	224.34
343.69	224.87
344.07	225.33
344.46	225.76
344.84	226.15
345.22	226.37
345.60	226.63
345.99	226.82
346.37	226.95
346.75	227.05
347.13	227.12
347.52	227.18
347.90	227.27
348.28	227.31
348.66	227.37
349.05	227.37
349.43	227.42
349.81	227.48
350.19	227.53
350.57	227.59
350.96	227.67
351.34	227.76
351.72	227.85
352.10	227.95
352.48	228.02
352.87	228.07
353.25	228.14
353.63	228.20
354.01	228.25
354.39	228.33
354.77	228.41
355.15	228.52
355.54	228.56
355.92	228.59
356.30	228.66
356.68	228.82
357.06	228.89
357.44	228.94
357.82	228.99
358.20	229.11
358.58	229.16
358.97	229.23
359.35	229.31
359.73	229.40
360.11	229.46
360.49	229.51
360.87	229.56
361.25	229.62
361.63	229.71
362.01	229.77
362.39	229.79
362.77	229.84
363.15	229.86
363.53	229.90
363.91	229.93
364.29	229.95
364.67	229.85
365.05	229.87
365.43	229.91
365.81	229.95
366.19	229.97
366.57	230.03
366.95	230.03
367.33	230.00
367.71	230.00
368.09	230.02
368.47	230.01
368.85	230.00
369.23	230.02
369.61	229.96
369.99	229.97
370.37	229.98
370.75	230.05
371.13	230.02
371.51	229.98
371.89	229.96
372.27	229.94
372.65	229.92
373.03	229.89
373.41	229.84
373.78	229.79
374.16	229.69
374.54	229.60
374.92	229.55
375.30	229.50
375.68	229.43
376.06	229.39
376.44	229.33
376.82	229.28
377.19	229.24
377.57	229.19
377.95	229.10
378.33	229.04
378.71	228.88
379.09	228.84
379.47	228.81
379.84	228.75
380.22	228.68
380.60	228.61
380.98	228.56
381.36	228.50
381.73	228.45
382.11	228.43
382.49	228.39
382.87	228.33
383.25	228.28
383.62	228.38
384.00	228.32
384.38	228.28
384.76	228.27
385.13	228.27
385.51	228.23
385.89	228.17
386.27	228.14
386.64	228.12
387.02	228.07
387.40	228.03
387.78	228.00
388.15	227.98
388.53	227.95
388.91	227.91
389.29	227.88
389.66	227.87
390.04	227.83
390.42	227.83
390.79	227.82
391.17	227.80
391.55	227.65
391.92	227.63
392.30	227.64
392.68	227.60
393.05	227.57
393.43	227.57
393.81	227.58
394.18	227.56
394.56	227.55
394.94	227.59
395.31	227.58
395.69	227.62
396.06	227.65
396.44	227.68
396.82	227.69
397.19	227.78
397.57	227.79
397.95	227.84
398.32	227.83
398.70	227.87
399.07	227.94
399.45	227.97
399.82	228.02
400.20	228.05
400.58	228.10
400.95	228.12
401.33	228.20
401.70	228.35
402.08	228.45
402.45	228.54
402.83	228.65
403.20	228.76
403.58	228.85
403.95	228.99
404.33	229.13
404.71	229.26
405.08	229.46
405.46	229.62
405.83	229.79
406.21	229.97
406.58	230.19
406.96	230.39
407.33	230.63
407.70	230.90
408.08	231.27
408.45	231.59
408.83	231.94
409.20	232.25
409.58	232.53
409.95	232.93
410.33	233.35
410.70	233.74
411.08	234.21
411.45	234.70
411.82	235.20
412.20	235.78
412.57	236.47
412.95	237.01
413.32	237.71
413.69	238.43
414.07	239.19
414.44	240.03
414.82	240.87
415.19	241.87
415.56	242.88
415.94	243.92
416.31	245.09
416.68	246.27
417.06	247.63
417.43	248.91
417.81	250.37
418.18	251.87
418.55	253.50
418.93	255.19
419.30	256.97
419.67	258.86
420.04	260.78
420.42	262.79
420.79	265.13
421.16	267.47
421.54	269.87
421.91	272.37
422.28	274.95
422.66	277.74
423.03	280.41
423.40	283.20
423.77	286.19
424.15	289.26
424.52	292.46
424.89	295.92
425.26	299.36
425.64	302.56
426.01	306.16
426.38	309.84
426.75	313.64
427.13	317.53
427.50	321.61
427.87	325.85
428.24	330.14
428.61	334.25
428.99	338.71
429.36	343.58
429.73	348.26
430.10	352.94
430.47	357.73
430.85	362.66
431.22	367.96
431.59	373.41
431.96	378.72
432.33	384.63
432.70	390.27
433.08	396.91
433.45	403.20
433.82	409.40
434.19	416.33
434.56	423.15
434.93	429.73
435.30	436.25
435.68	443.63
436.05	450.85
436.42	458.03
436.79	464.60
437.16	471.69
437.53	479.27
437.90	486.85
438.27	494.26
438.64	502.26
439.01	509.50
439.38	516.11
439.75	522.48
440.13	529.65
440.50	536.46
440.87	541.84
441.24	547.74
441.61	554.18
441.98	558.83
442.35	564.37
442.72	570.01
443.09	575.35
443.46	578.68
443.83	581.08
444.20	583.05
444.57	586.03
444.94	587.63
445.31	589.30
445.68	590.68
446.05	591.62
446.42	591.02
446.79	590.26
447.16	589.56
447.53	588.89
447.90	586.34
448.27	583.88
448.64	580.31
449.01	577.74
449.37	572.89
449.74	568.49
450.11	562.88
450.48	556.77
450.85	550.67
451.22	545.43
451.59	540.32
451.96	535.71
452.33	529.10
452.70	523.24
453.07	516.12
453.43	509.03
453.80	502.15
454.17	495.59
454.54	489.54
454.91	482.74
455.28	476.39
455.65	470.41
456.02	464.12
456.38	459.04
456.75	452.53
457.12	447.29
457.49	442.01
457.86	437.04
458.23	432.70
458.59	427.91
458.96	423.00
459.33	418.69
459.70	414.30
460.07	410.98
460.43	407.05
460.80	403.40
461.17	400.25
461.54	396.81
461.91	393.61
462.27	390.36
462.64	387.75
463.01	384.71
463.38	381.66
463.74	378.90
464.11	376.48
464.48	374.30
464.85	371.93
465.21	370.16
465.58	368.16
465.95	365.86
466.32	364.04
466.68	362.24
467.05	360.44
467.42	358.68
467.78	356.77
468.15	355.02
468.52	353.75
468.88	352.02
469.25	350.45
469.62	349.21
469.98	347.85
470.35	346.64
470.72	345.55
471.08	344.43
471.45	343.51
471.82	342.48
472.18	341.37
472.55	340.65
472.92	339.74
473.28	339.04
473.65	338.28
474.02	337.56
474.38	336.96
474.75	336.61
475.11	336.12
475.48	335.89
475.85	335.64
476.21	335.52
476.58	335.44
476.94	335.57
477.31	335.64
477.67	335.73
478.04	335.93
478.41	336.22
478.77	336.63
479.14	336.88
479.50	337.37
479.87	338.01
480.23	338.65
480.60	339.29
480.96	339.93
481.33	340.88
481.69	341.82
482.06	342.76
482.42	343.62
482.79	344.70
483.15	345.93
483.52	347.33
483.88	348.68
484.25	350.13
484.61	351.63
484.98	353.25
485.34	355.10
485.71	357.02
486.07	359.06
486.44	361.10
486.80	363.39
487.17	365.77
487.53	368.36
487.90	371.08
488.26	374.03
488.62	377.16
488.99	380.28
489.35	383.58
489.72	387.14
490.08	390.89
490.44	394.77
490.81	398.80
491.17	402.95
491.54	407.40
491.90	412.00
492.26	416.92
492.63	422.08
492.99	427.45
493.36	433.01
493.72	438.87
494.08	444.88
494.45	451.27
494.81	457.89
495.17	464.70
495.54	471.88
495.90	479.37
496.26	487.01
496.63	494.91
496.99	503.12
497.35	511.71
497.72	520.59
498.08	529.66
498.44	539.07
498.80	549.02
499.17	559.22
499.53	569.72
499.89	580.59
500.26	591.69
500.62	603.10
500.98	615.10
501.34	627.28
501.71	639.98
502.07	652.87
502.43	666.31
502.79	679.94
503.16	694.04
503.52	708.34
503.88	723.07
504.24	738.24
504.60	753.63
504.97	769.50
505.33	785.78
505.69	802.96
506.05	820.44
506.41	837.88
506.78	855.51
507.14	873.66
507.50	892.27
507.86	911.23
508.22	930.40
508.59	949.42
508.95	969.29
509.31	989.89
509.67	1011.12
510.03	1032.35
510.39	1053.70
510.75	1075.26
511.12	1097.10
511.48	1119.09
511.84	1141.19
512.20	1163.68
512.56	1187.02
512.92	1210.37
513.28	1233.38
513.64	1256.69
514.00	1280.41
514.37	1304.44
514.73	1328.50
515.09	1352.49
515.45	1376.83
515.81	1401.28
516.17	1425.97
516.53	1450.10
516.89	1474.13
517.25	1498.38
517.61	1522.59
517.97	1547.26
518.33	1571.41
518.69	1595.51
519.05	1620.14
519.41	1645.05
519.77	1670.10
520.13	1694.49
520.49	1718.82
520.85	1743.54
521.21	1767.72
521.57	1792.38
521.93	1816.56
522.29	1841.22
522.65	1865.42
523.01	1889.57
523.37	1913.38
523.73	1937.85
524.09	1962.14
524.45	1986.23
524.81	2009.93
525.17	2033.50
525.53	2056.46
525.89	2079.90
526.25	2103.32
526.61	2125.77
526.97	2148.36
527.33	2170.97
527.68	2193.24
528.04	2214.78
528.40	2235.36
528.76	2256.39
529.12	2276.84
529.48	2296.90
529.84	2315.29
530.20	2334.29
530.56	2352.70
530.91	2371.28
531.27	2389.49
531.63	2406.90
531.99	2423.91
532.35	2440.27
532.71	2456.68
533.07	2473.76
533.42	2489.08
533.78	2505.42
534.14	2521.94
534.50	2537.45
534.86	2552.76
535.21	2566.22
535.57	2580.14
535.93	2593.85
536.29	2606.37
536.65	2618.83
537.00	2630.70
537.36	2643.38
537.72	2654.50
538.08	2665.27
538.44	2675.38
538.79	2685.09
539.15	2693.96
539.51	2702.44
539.87	2710.25
540.22	2716.20
540.58	2722.24
540.94	2729.55
541.29	2735.12
541.65	2738.94
542.01	2742.16
542.37	2744.68
542.72	2748.51
543.08	2750.70
543.44	2753.42
543.79	2755.09
544.15	2755.88
544.51	2757.08
544.87	2757.15
545.22	2756.55
545.58	2755.24
545.94	2753.96
546.29	2751.37
546.65	2748.78
547.01	2746.13
547.36	2744.17
547.72	2742.21
548.07	2738.55
548.43	2733.34
548.79	2727.35
549.14	2722.62
549.50	2718.06
549.86	2712.62
550.21	2706.04
550.57	2700.37
550.92	2692.45
551.28	2685.12
551.64	2678.03
551.99	2670.46
552.35	2662.28
552.70	2654.38
553.06	2646.75
553.41	2638.47
553.77	2629.95
554.13	2621.33
554.48	2611.85
554.84	2601.21
555.19	2591.17
555.55	2581.11
555.90	2571.05
556.26	2561.45
556.61	2550.80
556.97	2538.47
557.32	2526.72
557.68	2514.89
558.03	2502.83
558.39	2491.91
558.74	2481.28
559.10	2468.93
559.45	2456.87
559.81	2445.43
560.16	2433.26
560.52	2421.29
560.87	2409.64
561.23	2397.18
561.58	2384.93
561.94	2372.26
562.29	2359.04
562.64	2346.48
563.00	2333.59
563.35	2321.25
563.71	2308.65
564.06	2295.86
564.42	2283.85
564.77	2271.12
565.12	2258.35
565.48	2245.50
565.83	2232.67
566.19	2219.94
566.54	2207.16
566.89	2193.17
567.25	2179.36
567.60	2166.87
567.96	2153.55
568.31	2138.88
568.66	2124.99
569.02	2112.13
569.37	2099.23
569.72	2086.87
570.08	2073.18
570.43	2059.20
570.78	2044.92
571.14	2029.99
571.49	2015.80
571.84	2002.17
572.20	1987.26
572.55	1972.65
572.90	1957.85
573.26	1943.02
573.61	1927.67
573.96	1912.80
574.31	1898.23
574.67	1883.62
575.02	1868.05
575.37	1852.50
575.72	1837.83
576.08	1823.45
576.43	1807.89
576.78	1792.78
577.13	1777.96
577.49	1763.50
577.84	1749.61
578.19	1734.76
578.54	1720.15
578.90	1705.03
579.25	1689.76
579.60	1676.11
579.95	1662.28
580.30	1648.33
580.66	1634.16
581.01	1619.87
581.36	1605.56
581.71	1592.27
582.06	1578.83
582.42	1565.64
582.77	1552.47
583.12	1539.21
583.47	1525.85
583.82	1512.63
584.17	1499.05
584.53	1485.13
584.88	1471.57
585.23	1457.53
585.58	1444.40
585.93	1431.48
586.28	1419.30
586.63	1407.17
586.98	1394.46
587.34	1381.81
587.69	1368.88
588.04	1356.30
588.39	1344.13
588.74	1332.08
589.09	1319.78
589.44	1307.09
589.79	1295.07
590.14	1283.17
590.49	1271.21
590.84	1259.36
591.19	1247.94
591.54	1236.32
591.89	1224.84
592.25	1213.51
592.60	1201.87
592.95	1190.61
593.30	1179.52
593.65	1168.10
594.00	1156.78
594.35	1146.10
594.70	1135.02
595.05	1124.85
595.40	1114.55
595.75	1104.09
596.10	1094.18
596.45	1083.93
596.80	1074.01
597.15	1063.86
597.50	1053.87
597.85	1044.29
598.19	1034.54
598.54	1024.85
598.89	1015.57
599.24	1006.63
599.59	997.54
599.94	989.41
600.29	981.03
600.64	972.35
600.99	963.30
601.34	954.66
601.69	945.66
602.04	937.34
602.39	928.86
602.74	920.37
603.08	911.88
603.43	903.34
603.78	894.99
604.13	886.87
604.48	878.69
604.83	870.68
605.18	862.58
605.53	854.65
605.87	846.48
606.22	838.73
606.57	830.87
606.92	822.88
607.27	814.82
607.62	807.13
607.96	799.85
608.31	793.03
608.66	785.99
609.01	779.25
609.36	772.60
609.70	765.68
610.05	758.78
610.40	752.14
610.75	745.51
611.10	739.21
611.44	732.75
611.79	726.39
612.14	719.94
612.49	713.63
612.83	707.59
613.18	701.72
613.53	695.69
613.88	689.73
614.22	684.21
614.57	678.58
614.92	672.78
615.27	667.12
615.61	661.51
615.96	655.95
616.31	650.39
616.65	644.91
617.00	639.68
617.35	634.55
617.70	629.48
618.04	624.42
618.39	619.31
618.74	614.46
619.08	609.63
619.43	604.95
619.78	600.26
620.12	595.52
620.47	590.97
620.82	586.52
621.16	582.06
621.51	577.49
621.85	573.00
622.20	568.68
622.55	564.38
622.89	560.16
623.24	555.92
623.59	551.76
623.93	547.74
624.28	543.80
624.62	539.96
624.97	536.14
625.32	532.35
625.66	528.47
626.01	524.55
626.35	520.73
626.70	516.95
627.04	513.33
627.39	509.70
627.73	506.22
628.08	502.82
628.43	499.43
628.77	496.14
629.12	492.95
629.46	489.75
629.81	486.49
630.15	483.23
630.50	480.09
630.84	476.97
631.19	473.92
631.53	471.00
631.88	468.03
632.22	465.08
632.57	462.40
632.91	459.78
633.26	457.26
633.60	454.74
633.95	452.28
634.29	449.74
634.64	447.26
634.98	444.57
635.32	442.06
635.67	439.74
636.01	437.32
636.36	434.96
636.70	432.79
637.05	430.57
637.39	428.38
637.73	426.23
638.08	424.19
638.42	422.11
638.77	419.90
639.11	417.65
639.45	415.49
639.80	413.27
640.14	411.15
640.49	409.01
640.83	406.85
641.17	404.78
641.52	402.76
641.86	400.76
642.20	398.98
642.55	397.03
642.89	395.11
643.23	393.27
643.58	391.61
643.92	389.79
644.26	388.05
644.61	386.38
644.95	384.65
645.29	382.86
645.64	381.09
645.98	379.40
646.32	377.84
646.66	376.26
647.01	374.70
647.35	373.19
647.69	371.65
648.04	370.27
648.38	368.79
648.72	367.35
649.06	365.91
649.41	364.48
649.75	363.09
650.09	361.72
650.43	360.36
650.78	358.95
651.12	357.58
651.46	356.26
651.80	354.96
652.14	353.70
652.49	352.48
652.83	351.24
653.17	350.04
653.51	348.88
653.85	347.78
654.20	346.62
654.54	345.39
654.88	344.26
655.22	343.13
655.56	341.99
655.90	340.92
656.25	339.88
656.59	338.82
656.93	337.83
657.27	336.85
657.61	335.81
657.95	334.81
658.29	333.81
658.64	332.87
658.98	331.91
659.32	330.98
659.66	330.11
660.00	329.25
660.34	328.39
660.68	327.47
661.02	326.51
661.36	325.61
661.70	324.75
662.05	323.90
662.39	323.06
662.73	322.31
663.07	321.54
663.41	320.75
663.75	319.94
664.09	319.13
664.43	318.29
664.77	317.54
665.11	316.74
665.45	316.00
665.79	315.27
666.13	314.50
666.47	313.72
666.81	312.93
667.15	312.10
667.49	311.39
667.83	310.75
668.17	310.07
668.51	309.45
668.85	308.85
669.19	308.26
669.53	307.59
669.87	306.89
670.21	306.23
670.55	305.60
670.89	305.04
671.23	304.44
671.57	303.86
671.91	303.32
672.25	302.81
672.58	302.28
672.92	301.67
673.26	301.17
673.60	300.66
673.94	300.17
674.28	299.71
674.62	299.20
674.96	298.65
675.30	298.16
675.64	297.62
675.97	297.07
676.31	296.50
676.65	295.98
676.99	295.52
677.33	294.99
677.67	294.50
678.01	293.94
678.34	293.47
678.68	293.00
679.02	292.47
679.36	291.96
679.70	291.46
680.04	290.99
680.37	290.50
680.71	290.04
681.05	289.60
681.39	289.10
681.73	288.58
682.06	288.08
682.40	287.61
682.74	287.20
683.08	286.82
683.42	286.39
683.75	285.99
684.09	285.50
684.43	285.09
684.77	284.65
685.10	284.27
685.44	283.85
685.78	283.44
686.12	283.05
686.45	282.64
686.79	282.21
687.13	281.82
687.46	281.38
687.80	280.97
688.14	280.51
688.48	280.12
688.81	279.72
689.15	279.36
689.49	278.94
689.82	278.52
690.16	278.04
690.50	277.65
690.83	277.23
691.17	276.83
691.51	276.43
691.84	276.05
692.18	275.63
692.52	275.21
692.85	274.80
693.19	274.45
693.52	274.05
693.86	273.66
694.20	273.28
694.53	272.92
694.87	272.51
695.21	272.12
695.54	271.75
695.88	271.36
696.21	270.95
696.55	270.58
696.88	270.21
697.22	269.84
697.56	269.46
697.89	269.05
698.23	268.69
698.56	268.29
698.90	267.93
699.23	267.55
699.57	267.18
699.90	266.81
700.24	266.41
700.58	266.08
700.91	265.77
701.25	265.54
701.58	265.25
701.92	264.95
702.25	264.63
702.59	264.28
702.92	263.95
703.26	263.62
703.59	263.27
703.93	263.03
704.26	262.72
704.60	262.38
704.93	262.06
705.26	261.73
705.60	261.45
705.93	261.10
706.27	260.83
706.60	260.56
706.94	260.29
707.27	259.95
707.61	259.63
707.94	259.28
708.27	258.85
708.61	258.48
708.94	258.15
709.28	257.85
709.61	257.54
709.94	257.27
710.28	257.00
710.61	256.75
710.95	256.37
711.28	256.17
711.61	255.90
711.95	255.66
712.28	255.38
712.61	255.09
712.95	254.90
713.28	254.70
713.61	254.40
713.95	254.09
714.28	253.84
714.61	253.57
714.95	253.32
715.28	253.08
715.61	252.83
715.95	252.60
716.28	252.37
716.61	252.17
716.95	251.92
717.28	251.68
717.61	251.43
717.94	251.20
718.28	250.88
718.61	250.64
718.94	250.39
719.27	250.17
719.61	249.97
719.94	249.71
720.27	249.41
720.60	249.20
720.94	248.99
721.27	248.78
721.60	248.60
721.93	248.39
722.27	248.22
722.60	248.03
722.93	247.80
723.26	247.60
723.59	247.36
723.93	247.17
724.26	246.98
724.59	246.77
724.92	246.59
725.25	246.46
725.59	246.28
725.92	246.12
726.25	245.94
726.58	245.75
726.91	245.57
727.24	245.41
727.57	245.24
727.91	245.05
728.24	244.90
728.57	244.71
728.90	244.57
729.23	244.35
729.56	244.23
729.89	244.07
730.22	243.89
730.55	243.73
730.89	243.57
731.22	243.41
731.55	243.25
731.88	243.08
732.21	242.90
732.54	242.74
732.87	242.59
733.20	242.45
733.53	242.29
733.86	242.15
734.19	241.99
734.52	241.86
734.85	241.80
735.18	241.63
735.51	241.52
735.84	241.38
736.17	241.28
736.50	241.07
736.83	241.08
737.16	240.96
737.49	240.84
737.82	240.70
738.15	240.60
738.48	240.47
738.81	240.34
739.14	240.20
739.47	240.06
739.80	239.91
740.13	239.79
740.46	239.64
740.79	239.50
741.12	239.38
741.45	239.23
741.78	239.03
742.11	238.95
742.44	238.80
742.77	238.69
743.10	238.55
743.43	238.43
743.75	238.19
744.08	238.26
744.41	238.13
744.74	238.01
745.07	237.87
745.40	237.78
745.73	237.72
746.06	237.62
746.39	237.53
746.71	237.43
747.04	237.31
747.37	237.22
747.70	237.14
748.03	237.05
748.36	236.97
748.68	236.87
749.01	236.73
749.34	236.64
749.67	236.55
750.00	236.47
750.33	236.46
750.65	236.38
750.98	236.10
751.31	236.01
751.64	235.93
751.97	235.91
752.29	235.81
752.62	235.67
752.95	235.57
753.28	235.46
753.60	235.36
753.93	235.31
754.26	235.23
754.59	235.11
754.91	235.00
755.24	234.91
755.57	234.88
755.90	234.80
756.22	234.70
756.55	234.59
756.88	234.48
757.20	234.31
757.53	234.20
757.86	234.12
758.19	234.04
758.51	233.96
758.84	233.82
759.17	233.72
759.49	233.66
759.82	233.65
760.15	233.59
760.47	233.52
760.80	233.41
761.13	233.36
761.45	233.29
761.78	233.23
762.11	233.17
762.43	233.04
762.76	232.98
763.08	232.93
763.41	232.87
763.74	232.82
764.06	232.75
764.39	232.71
764.71	232.64
765.04	232.57
765.37	232.50
765.69	232.46
766.02	232.40
766.34	232.32
766.67	232.21
767.00	232.18
767.32	232.20
767.65	232.22
767.97	232.15
768.30	232.10
768.62	232.05
768.95	231.98
769.27	231.93
769.60	231.89
769.92	231.81
770.25	231.74
770.57	231.67
770.90	231.62
771.22	231.56
771.55	231.51
771.87	231.48
772.20	231.43
772.52	231.49
772.85	231.59
773.17	231.56
773.50	231.50
773.82	231.44
774.15	231.32
774.47	231.20
774.80	231.14
775.12	231.10
775.45	231.06
775.77	231.03
776.09	231.00
776.42	230.96
776.74	230.97
777.07	230.94
777.39	230.91
777.72	230.87
778.04	230.86
778.36	230.81
778.69	230.77
779.01	230.75
779.33	230.60
779.66	230.43
779.98	230.39
780.31	230.37
780.63	230.40
780.95	230.39
781.28	230.36
781.60	230.33
781.92	230.30
782.25	230.27
782.57	230.24
782.89	230.20
783.22	230.17
783.54	230.11
783.86	230.09
784.19	230.06
784.51	230.07
784.83	230.03
785.16	230.00
785.48	229.98
785.80	229.95
786.12	229.94
786.45	229.92
786.77	229.90
787.09	229.87
787.42	229.80
787.74	229.78
788.06	229.76
788.38	229.73
788.71	229.70
789.03	229.69
789.35	229.68
789.67	229.64
789.99	229.62
790.32	229.59
790.64	229.58
790.96	229.68
791.28	229.62
791.61	229.59
791.93	229.58
792.25	229.55
792.57	229.62
792.89	229.58
793.21	229.57
793.54	229.53
793.86	229.51
794.18	229.50
794.50	229.46
794.82	229.44
795.14	229.43
795.47	229.43
795.79	229.42
796.11	229.37
796.43	229.36
796.75	229.34
797.07	229.33
797.39	229.30
797.71	229.18
798.04	229.17
798.36	229.16
798.68	229.14
799.00	229.13
799.32	229.06
799.64	229.06
799.96	229.04
800.28	229.05
800.60	229.02
800.92	229.02
801.24	229.00
801.56	229.00
801.89	228.97
802.21	228.96
802.53	228.93
802.85	228.94
803.17	228.98
803.49	228.94
803.81	228.92
804.13	228.90
804.45	228.87
804.77	228.87
805.09	228.85
805.41	228.82
805.73	228.79
806.05	228.74
806.37	228.72
806.69	228.69
807.01	228.67
807.33	228.67
807.65	228.61
807.97	228.65
808.28	228.62
808.60	228.61
808.92	228.58
809.24	228.64
809.56	228.61
809.88	228.55
810.20	228.55
810.52	228.57
810.84	228.53
811.16	228.51
811.48	228.49
811.80	228.53
812.12	228.51
812.43	228.52
812.75	228.52
813.07	228.49
813.39	228.49
813.71	228.47
814.03	228.44
814.35	228.44
814.67	228.38
814.98	228.36
815.30	228.34
815.62	228.32
815.94	228.22
816.26	228.22
816.58	228.20
816.89	228.19
817.21	228.15
817.53	228.16
817.85	228.16
818.17	228.15
818.48	228.09
818.80	228.10
819.12	228.08
819.44	228.05
819.76	228.03
820.07	228.03
820.39	228.01
820.71	228.01
821.03	228.01
821.34	227.99
821.66	228.00
821.98	228.01
822.30	228.00
822.61	228.06
822.93	228.03
823.25	228.02
823.57	228.00
823.88	228.01
824.20	228.00
824.52	228.01
824.83	227.99
825.15	227.98
825.47	227.96
825.79	227.97
826.10	227.95
826.42	227.95
826.74	227.95
827.05	227.94
827.37	227.94
827.69	227.93
828.00	227.93
828.32	227.92
828.64	227.90
828.95	227.96
829.27	227.92
829.58	227.92
829.90	227.94
830.22	227.94
830.53	227.91
830.85	227.90
831.17	227.87
831.48	227.86
831.80	227.86
832.11	227.85
832.43	227.82
832.75	227.82
833.06	227.89
833.38	227.85
833.69	227.84
834.01	227.84
834.32	227.84
834.64	227.82
834.96	227.82
835.27	227.81
835.59	227.76
835.90	227.75
836.22	227.73
836.53	227.70
836.85	227.68
837.16	227.81
837.48	227.81
837.79	227.84
838.11	227.84
838.42	227.83
838.74	227.84
839.05	227.83
839.37	227.82
839.68	227.74
840.00	227.73
840.31	227.75
840.63	227.73
840.94	227.72
841.26	227.71
841.57	227.70
841.88	227.70
842.20	227.69
842.51	227.66
842.83	227.66
843.14	227.77
843.46	227.76
843.77	227.68
844.08	227.67
844.40	227.63
844.71	227.62
845.03	227.61
845.34	227.59
845.65	227.58
845.97	227.58
846.28	227.59
846.60	227.60
846.91	227.57
847.22	227.57
847.54	227.59
847.85	227.60
848.16	227.58
848.48	227.55
848.79	227.60
849.10	227.61
849.42	227.62
849.73	227.50
850.04	227.51
850.36	227.46
850.67	227.48
850.98	227.48
851.30	227.49
851.61	227.49
851.92	227.48
852.23	227.52
852.55	227.53
852.86	227.53
853.17	227.52
853.49	227.55
853.80	227.57
854.11	227.57
854.42	227.59
854.74	227.58
855.05	227.58
855.36	227.52
855.67	227.51
855.99	227.51
856.30	227.66
856.61	227.65
856.92	227.65
857.23	227.65
857.55	227.64
857.86	227.62
858.17	227.64
858.48	227.62
858.79	227.59
859.11	227.60
859.42	227.59
859.73	227.57
860.04	227.56
860.35	227.53
860.66	227.49
860.98	227.48
861.29	227.49
861.60	227.48
861.91	227.52
862.22	227.49
862.53	227.47
862.84	227.32
863.16	227.35
863.47	227.33
863.78	227.30
864.09	227.32
864.40	227.32
864.71	227.32
865.02	227.34
865.33	227.33
865.64	227.31
865.95	227.31
866.27	227.38
866.58	227.37
866.89	227.38
867.20	227.38
867.51	227.36
867.82	227.35
868.13	227.38
868.44	227.35
868.75	227.38
869.06	227.39
869.37	227.40
869.68	227.36
869.99	227.39
870.30	227.39
870.61	227.40
870.92	227.38
871.23	227.37
871.54	227.38
871.85	227.41
872.16	227.43
872.47	227.41
872.78	227.34
873.09	227.35
873.40	227.34
873.71	227.35
874.02	227.36
874.33	227.34
874.64	227.31
874.95	227.34
875.26	227.30
875.56	227.30
875.87	227.29
876.18	227.28
876.49	227.40
876.80	227.39
877.11	227.36
877.42	227.37
877.73	227.37
878.04	227.35
878.35	227.34
878.66	227.34
878.96	227.34
879.27	227.33
879.58	227.32
879.89	227.32
880.20	227.35
880.51	227.35
880.82	227.35
881.12	227.36
881.43	227.33
881.74	227.31
882.05	227.31
882.36	227.31
882.67	227.33
882.97	227.18
883.28	227.18
883.59	227.17
883.90	227.17
884.21	227.19
884.51	227.18
884.82	227.17
885.13	227.16
885.44	227.16
885.74	227.16
886.05	227.14
886.36	227.14
886.67	227.09
886.98	227.16
887.28	227.17
887.59	227.17
887.90	227.17
888.20	227.17
888.51	227.19
888.82	227.17
889.13	227.18
889.43	227.29
889.74	227.29
890.05	227.29
890.35	227.28
890.66	227.25
890.97	227.25
891.28	227.24
891.58	227.24
891.89	227.25
892.20	227.23
892.50	227.22
892.81	227.21
893.12	227.21
893.42	227.15
893.73	227.15
894.04	227.15
894.34	227.16
894.65	227.15
894.95	227.14
895.26	227.15
895.57	227.20
895.87	227.07
896.18	227.09
896.48	227.10
896.79	227.10
897.10	227.11
897.40	227.12
897.71	227.13
898.01	227.11
898.32	227.12
898.63	227.13
898.93	227.14
899.24	227.14
899.54	227.14
899.85	227.13
900.15	227.13
900.46	227.13
900.76	227.13
901.07	227.13
901.38	227.12
901.68	227.13
901.99	227.07
902.29	227.08
902.60	227.07
902.90	227.06
903.21	227.06
903.51	227.05
903.82	227.07
904.12	227.07
904.43	227.08
904.73	227.07
905.03	227.08
905.34	227.19
905.64	227.18
905.95	227.18
906.25	227.18
906.56	227.18
906.86	227.17
907.17	227.16
907.47	227.17
907.77	227.16
908.08	227.13
908.38	227.14
908.69	227.15
908.99	227.17
909.30	227.17
909.60	227.17
909.90	227.18
910.21	227.14
910.51	227.12
910.81	227.13
911.12	227.13
911.42	227.13
911.73	227.00
912.03	227.01
912.33	227.04
912.64	227.03
912.94	227.02
913.24	227.00
913.55	226.99
913.85	226.98
914.15	227.01
914.46	227.02
914.76	227.01
915.06	227.00
915.37	226.98
915.67	226.96
915.97	226.96
916.27	226.94
916.58	226.94
916.88	226.94
917.18	226.92
917.49	227.00
917.79	226.99
918.09	227.01
918.39	227.04
918.70	227.03
919.00	227.03
919.30	227.09
919.60	227.09
919.91	227.07
920.21	227.08
920.51	227.05
920.81	227.04
921.12	227.06
921.42	227.06
921.72	227.07
922.02	227.08
922.32	227.10
922.63	227.10
922.93	227.17
923.23	227.18
923.53	227.17
923.83	227.09
924.13	227.10
924.44	227.10
924.74	227.12
925.04	227.15
925.34	227.15
925.64	227.09
925.94	227.10
926.24	227.17
926.55	227.16
926.85	227.18
927.15	227.18
927.45	227.17
927.75	227.18
928.05	227.18
928.35	227.17
928.65	227.18
928.95	227.19
929.26	227.13
929.56	227.16
929.86	227.17
930.16	227.17
930.46	227.15
930.76	227.15
931.06	227.09
931.36	227.06
931.66	227.08
931.96	227.09
932.26	227.10
932.56	227.04
932.86	227.05
933.16	227.04
933.46	227.03
933.76	227.01
934.06	227.03
934.36	227.07
934.66	227.07
934.96	227.05
935.26	227.05
935.56	227.07
935.86	227.03
936.16	227.02
936.46	227.01
936.76	227.00
937.06	226.99
937.36	227.00
937.66	227.00
937.96	226.99
938.26	226.96
938.56	226.96
938.86	226.97
939.16	226.99
939.46	227.01
939.76	227.02
940.06	227.02
940.35	227.00
940.65	226.94
940.95	226.95
941.25	226.92
941.55	226.91
941.85	226.90
942.15	226.93
942.45	226.97
942.75	226.97
943.04	226.97
943.34	227.00
943.64	226.99
943.94	226.97
944.24	226.97
944.54	226.98
944.84	226.97
945.13	226.96
945.43	226.93
945.73	226.92
946.03	226.91
946.33	226.90
946.62	226.88
946.92	226.88
947.22	226.89
947.52	226.90
947.82	226.91
948.11	226.89
948.41	226.86
948.71	226.82
949.01	226.83
949.31	226.82
949.60	226.80
949.90	226.82
950.20	226.82
950.50	226.82
950.79	226.81
951.09	226.82
951.39	226.82
951.69	226.81
951.98	226.83
952.28	226.84
952.58	226.84
952.87	226.83
953.17	226.86
953.47	226.84
953.76	226.84
954.06	226.82
954.36	226.80
954.66	226.80
954.95	226.83
955.25	226.84
955.55	226.85
955.84	226.83
956.14	226.84
956.44	226.85
956.73	226.83
957.03	226.84
957.32	226.84
957.62	226.83
957.92	226.86
958.21	226.85
958.51	226.99
958.81	227.01
959.10	227.03
959.40	227.05
959.69	227.06
959.99	227.08
960.29	227.08
960.58	227.08
960.88	227.13
961.17	227.11
961.47	227.12
961.76	227.11
962.06	227.13
962.36	227.11
962.65	227.12
962.95	227.13
963.24	227.12
963.54	227.12
963.83	227.13
964.13	227.12
964.42	227.10
964.72	226.99
965.01	226.98
965.31	226.98
965.60	226.94
965.90	227.02
966.19	226.99
966.49	227.00
966.78	227.00
967.08	226.98
967.37	226.99
967.67	226.96
967.96	226.99
968.26	226.98
968.55	227.00
968.85	227.00
969.14	226.99
969.43	226.99
969.73	226.98
970.02	226.97
970.32	226.97
970.61	226.95
970.91	226.93
971.20	226.91
971.49	226.90
971.79	226.91
972.08	226.82
972.38	226.83
972.67	226.83
972.96	226.85
973.26	226.82
973.55	226.86
973.85	226.85
974.14	226.84
974.43	226.85
974.73	226.82
975.02	226.81
975.31	226.81
975.61	226.81
975.90	226.80
976.19	226.79
976.49	226.80
976.78	226.80
977.07	226.80
977.37	226.81
977.66	226.83
977.95	226.81
978.24	226.83
978.54	226.85
978.83	226.84
979.12	226.83
979.42	226.83
979.71	226.80
980.00	226.80
980.29	226.81
980.59	226.78
980.88	226.82
981.17	226.82
981.46	226.82
981.76	226.82
982.05	226.86
982.34	226.86
982.63	226.86
982.93	226.86
983.22	226.89
983.51	226.90
983.80	226.91
984.09	226.92
984.39	226.91
984.68	226.89
984.97	226.90
985.26	226.89
985.55	226.90
985.85	226.88
986.14	226.90
986.43	226.91
986.72	226.91
987.01	226.87
987.30	226.88
987.59	226.87
987.89	226.88
988.18	226.84
988.47	226.83
988.76	226.82
989.05	226.81
989.34	226.79
989.63	226.82
989.92	226.80
990.22	226.79
990.51	226.79
990.80	226.78
991.09	226.79
991.38	226.81
991.67	226.79
991.96	226.78
992.25	226.78
992.54	226.75
992.83	226.75
993.12	226.75
993.41	226.76
993.70	226.81
993.99	226.83
994.28	226.85
994.58	226.87
994.87	226.86
995.16	226.85
995.45	226.85
995.74	226.80
996.03	226.82
996.32	226.84
996.61	226.86
996.90	226.86
997.19	226.85
997.48	226.84
997.77	226.83
998.06	226.85
998.34	226.84
998.63	226.84
998.92	226.84
999.21	226.87
999.50	226.87
999.79	226.82
1000.08	226.82
1000.37	226.81
1000.66	226.80
1000.95	226.84
1001.24	226.85
1001.53	226.86
1001.82	226.86
1002.11	226.83
1002.40	226.83
1002.68	226.86
1002.97	226.95
1003.26	226.94
1003.55	226.92
1003.84	226.93
1004.13	226.97
1004.42	226.96
1004.71	226.97
1004.99	226.96
1005.28	226.98
1005.57	226.97
1005.86	226.96
1006.15	226.95
1006.44	226.93
1006.72	226.95
1007.01	226.93
1007.30	226.92
1007.59	226.91
1007.88	226.91
1008.17	226.92
1008.45	226.89
1008.74	226.85
1009.03	226.78
1009.32	226.79
1009.60	226.79
1009.89	226.78
1010.18	226.72
1010.47	226.71
1010.76	226.71
1011.04	226.71
1011.33	226.71
1011.62	226.72
1011.91	226.73
1012.19	226.73
1012.48	226.74
1012.77	226.73
1013.05	226.77
1013.34	226.77
1013.63	226.77
1013.92	226.78
1014.20	226.77
1014.49	226.77
1014.78	226.79
1015.06	226.75
1015.35	226.75
1015.64	226.77
1015.92	226.79
1016.21	226.80
1016.50	226.81
1016.78	226.82
1017.07	226.83
1017.36	226.81
1017.64	226.79
1017.93	226.80
1018.22	226.79
1018.50	226.79
1018.79	226.78
1019.08	226.73
1019.36	226.75
1019.65	226.74
1019.93	226.76
1020.22	226.79
1020.51	226.85
1020.79	226.84
1021.08	226.63
1021.36	226.53
1021.65	226.72
1021.94	226.67
1022.22	226.92
1022.51	226.58
1022.79	227.31
1023.08	226.97
1023.36	228.28
1023.65	226.53
>>>>>End Processed Spectral Data<<<<<
