SpectraSuite Data File
++++++++++++++++++++++++++++++++++++
Date: Sat Oct 03 06:41:57 EDT 2015
User: lab3
Dark Spectrum Present: No
Reference Spectrum Present: No
Number of Sampled Component Spectra: 1
Spectrometers: USB2E7196
Integration Time (usec): 46000 (USB2E7196)
Spectra Averaged: 12000 (USB2E7196)
Boxcar Smoothing: 10 (USB2E7196)
Correct for Electrical Dark: No (USB2E7196)
Strobe/Lamp Enabled: No (USB2E7196)
Correct for Detector Non-linearity: No (USB2E7196)
Correct for Stray Light: No (USB2E7196)
Number of Pixels in Processed Spectrum: 2048
>>>>>Begin Processed Spectral Data<<<<<
339.09	0.00
339.48	213.65
339.86	215.08
340.24	216.46
340.63	217.87
341.01	221.24
341.39	220.60
341.78	222.02
342.16	223.23
342.54	223.63
342.93	212.09
343.31	222.80
343.69	223.34
344.07	223.80
344.46	224.24
344.84	224.63
345.22	224.84
345.60	225.10
345.99	225.29
346.37	225.42
346.75	225.53
347.13	225.61
347.52	225.68
347.90	225.78
348.28	225.81
348.66	225.87
349.05	225.87
349.43	225.92
349.81	225.98
350.19	226.04
350.57	226.10
350.96	226.19
351.34	226.28
351.72	226.38
352.10	226.48
352.48	226.55
352.87	226.60
353.25	226.67
353.63	226.73
354.01	226.79
354.39	226.87
354.77	226.95
355.15	227.05
355.54	227.10
355.92	227.13
356.30	227.21
356.68	227.36
357.06	227.44
357.44	227.48
357.82	227.54
358.20	227.66
358.58	227.72
358.97	227.78
359.35	227.87
359.73	227.95
360.11	228.00
360.49	228.07
360.87	228.12
361.25	228.19
361.63	228.28
362.01	228.33
362.39	228.36
362.77	228.41
363.15	228.43
363.53	228.47
363.91	228.51
364.29	228.53
364.67	228.43
365.05	228.45
365.43	228.49
365.81	228.52
366.19	228.53
366.57	228.59
366.95	228.59
367.33	228.57
367.71	228.56
368.09	228.58
368.47	228.58
368.85	228.57
369.23	228.57
369.61	228.51
369.99	228.54
370.37	228.54
370.75	228.61
371.13	228.58
371.51	228.53
371.89	228.51
372.27	228.49
372.65	228.47
373.03	228.43
373.41	228.39
373.78	228.34
374.16	228.23
374.54	228.15
374.92	228.10
375.30	228.06
375.68	227.99
376.06	227.95
376.44	227.89
376.82	227.85
377.19	227.80
377.57	227.75
377.95	227.65
378.33	227.59
378.71	227.43
379.09	227.38
379.47	227.35
379.84	227.29
380.22	227.22
380.60	227.15
380.98	227.10
381.36	227.05
381.73	226.99
382.11	226.97
382.49	226.93
382.87	226.87
383.25	226.82
383.62	226.93
384.00	226.86
384.38	226.83
384.76	226.81
385.13	226.81
385.51	226.77
385.89	226.72
386.27	226.69
386.64	226.67
387.02	226.63
387.40	226.58
387.78	226.56
388.15	226.53
388.53	226.50
388.91	226.47
389.29	226.44
389.66	226.43
390.04	226.39
390.42	226.39
390.79	226.38
391.17	226.36
391.55	226.20
391.92	226.19
392.30	226.19
392.68	226.15
393.05	226.13
393.43	226.13
393.81	226.13
394.18	226.12
394.56	226.11
394.94	226.15
395.31	226.15
395.69	226.19
396.06	226.22
396.44	226.25
396.82	226.26
397.19	226.35
397.57	226.36
397.95	226.41
398.32	226.41
398.70	226.45
399.07	226.52
399.45	226.56
399.82	226.60
400.20	226.64
400.58	226.70
400.95	226.72
401.33	226.81
401.70	226.96
402.08	227.07
402.45	227.15
402.83	227.27
403.20	227.39
403.58	227.48
403.95	227.62
404.33	227.77
404.71	227.92
405.08	228.13
405.46	228.30
405.83	228.48
406.21	228.68
406.58	228.90
406.96	229.12
407.33	229.37
407.70	229.66
408.08	230.05
408.45	230.39
408.83	230.75
409.20	231.08
409.58	231.38
409.95	231.79
410.33	232.24
410.70	232.66
411.08	233.15
411.45	233.68
411.82	234.22
412.20	234.82
412.57	235.54
412.95	236.11
413.32	236.85
413.69	237.60
414.07	238.42
414.44	239.29
414.82	240.18
415.19	241.24
415.56	242.29
415.94	243.39
416.31	244.62
416.68	245.85
417.06	247.29
417.43	248.63
417.81	250.17
418.18	251.74
418.55	253.46
418.93	255.24
419.30	257.11
419.67	259.08
420.04	261.11
420.42	263.22
420.79	265.68
421.16	268.14
421.54	270.66
421.91	273.28
422.28	275.99
422.66	278.93
423.03	281.73
423.40	284.66
423.77	287.81
424.15	291.03
424.52	294.39
424.89	298.02
425.26	301.63
425.64	304.99
426.01	308.76
426.38	312.63
426.75	316.60
427.13	320.68
427.50	324.96
427.87	329.39
428.24	333.88
428.61	338.18
428.99	342.84
429.36	347.95
429.73	352.83
430.10	357.72
430.47	362.72
430.85	367.87
431.22	373.39
431.59	379.07
431.96	384.61
432.33	390.77
432.70	396.64
433.08	403.55
433.45	410.10
433.82	416.54
434.19	423.74
434.56	430.84
434.93	437.69
435.30	444.46
435.68	452.13
436.05	459.62
436.42	467.10
436.79	473.92
437.16	481.28
437.53	489.16
437.90	497.06
438.27	504.78
438.64	513.11
439.01	520.66
439.38	527.57
439.75	534.22
440.13	541.71
440.50	548.84
440.87	554.48
441.24	560.67
441.61	567.42
441.98	572.32
442.35	578.14
442.72	584.08
443.09	589.75
443.46	593.30
443.83	595.89
444.20	598.03
444.57	601.27
444.94	603.06
445.31	604.93
445.68	606.48
446.05	607.60
446.42	607.13
446.79	606.47
447.16	605.88
447.53	605.31
447.90	602.80
448.27	600.39
448.64	596.80
449.01	594.26
449.37	589.32
449.74	584.85
450.11	579.12
450.48	572.86
450.85	566.60
451.22	561.24
451.59	556.03
451.96	551.31
452.33	544.47
452.70	538.41
453.07	531.03
453.43	523.68
453.80	516.54
454.17	509.71
454.54	503.43
454.91	496.33
455.28	489.70
455.65	483.45
456.02	476.86
456.38	471.55
456.75	464.72
457.12	459.23
457.49	453.70
457.86	448.49
458.23	443.94
458.59	438.88
458.96	433.70
459.33	429.16
459.70	424.52
460.07	421.01
460.43	416.87
460.80	413.01
461.17	409.67
461.54	406.03
461.91	402.63
462.27	399.18
462.64	396.42
463.01	393.19
463.38	389.96
463.74	387.04
464.11	384.46
464.48	382.15
464.85	379.63
465.21	377.73
465.58	375.60
465.95	373.14
466.32	371.21
466.68	369.30
467.05	367.37
467.42	365.49
467.78	363.46
468.15	361.59
468.52	360.23
468.88	358.39
469.25	356.71
469.62	355.38
469.98	353.92
470.35	352.62
470.72	351.45
471.08	350.25
471.45	349.24
471.82	348.12
472.18	346.93
472.55	346.16
472.92	345.18
473.28	344.42
473.65	343.60
474.02	342.81
474.38	342.15
474.75	341.75
475.11	341.21
475.48	340.95
475.85	340.66
476.21	340.51
476.58	340.40
476.94	340.51
477.31	340.56
477.67	340.63
478.04	340.82
478.41	341.10
478.77	341.51
479.14	341.76
479.50	342.26
479.87	342.91
480.23	343.57
480.60	344.21
480.96	344.87
481.33	345.85
481.69	346.82
482.06	347.79
482.42	348.68
482.79	349.78
483.15	351.07
483.52	352.52
483.88	353.92
484.25	355.43
484.61	356.98
484.98	358.67
485.34	360.57
485.71	362.56
486.07	364.68
486.44	366.81
486.80	369.18
487.17	371.64
487.53	374.33
487.90	377.14
488.26	380.22
488.62	383.46
488.99	386.69
489.35	390.11
489.72	393.80
490.08	397.69
490.44	401.72
490.81	405.90
491.17	410.19
491.54	414.80
491.90	419.56
492.26	424.65
492.63	429.98
492.99	435.54
493.36	441.30
493.72	447.36
494.08	453.56
494.45	460.16
494.81	467.01
495.17	474.04
495.54	481.46
495.90	489.19
496.26	497.10
496.63	505.25
496.99	513.71
497.35	522.57
497.72	531.72
498.08	541.08
498.44	550.75
498.80	561.00
499.17	571.51
499.53	582.34
499.89	593.55
500.26	604.98
500.62	616.71
500.98	629.08
501.34	641.64
501.71	654.72
502.07	667.97
502.43	681.77
502.79	695.79
503.16	710.28
503.52	724.96
503.88	740.05
504.24	755.62
504.60	771.39
504.97	787.66
505.33	804.36
505.69	821.96
506.05	839.91
506.41	857.78
506.78	875.85
507.14	894.43
507.50	913.47
507.86	932.84
508.22	952.44
508.59	971.87
508.95	992.11
509.31	1013.06
509.67	1034.75
510.03	1056.44
510.39	1078.18
510.75	1100.11
511.12	1122.34
511.48	1144.75
511.84	1167.20
512.20	1190.03
512.56	1213.73
512.92	1237.46
513.28	1260.83
513.64	1284.43
514.00	1308.50
514.37	1332.88
514.73	1357.25
515.09	1381.50
515.45	1406.07
515.81	1430.82
516.17	1455.71
516.53	1480.14
516.89	1504.45
517.25	1528.94
517.61	1553.30
517.97	1578.15
518.33	1602.50
518.69	1626.78
519.05	1651.52
519.41	1676.53
519.77	1701.84
520.13	1726.36
520.49	1750.80
520.85	1775.55
521.21	1799.93
521.57	1824.64
521.93	1848.86
522.29	1873.61
522.65	1897.83
523.01	1922.02
523.37	1945.82
523.73	1970.30
524.09	1994.52
524.45	2018.54
524.81	2042.17
525.17	2065.69
525.53	2088.61
525.89	2111.98
526.25	2135.29
526.61	2157.65
526.97	2180.16
527.33	2202.54
527.68	2224.70
528.04	2246.06
528.40	2266.52
528.76	2287.13
529.12	2307.33
529.48	2327.25
529.84	2345.29
530.20	2363.96
530.56	2382.04
530.91	2400.26
531.27	2418.14
531.63	2435.14
531.99	2451.66
532.35	2467.52
532.71	2483.54
533.07	2500.25
533.42	2515.13
533.78	2531.01
534.14	2547.05
534.50	2562.18
534.86	2577.06
535.21	2590.02
535.57	2603.48
535.93	2616.71
536.29	2628.85
536.65	2640.76
537.00	2651.92
537.36	2664.08
537.72	2674.81
538.08	2685.05
538.44	2694.60
538.79	2703.76
539.15	2712.14
539.51	2720.20
539.87	2727.63
540.22	2732.96
540.58	2738.34
540.94	2744.93
541.29	2749.96
541.65	2753.30
542.01	2755.76
542.37	2757.61
542.72	2760.81
543.08	2762.31
543.44	2764.41
543.79	2765.42
544.15	2765.62
544.51	2766.22
544.87	2765.67
545.22	2764.44
545.58	2762.53
545.94	2760.59
546.29	2757.35
546.65	2754.09
547.01	2750.71
547.36	2748.04
547.72	2745.63
548.07	2741.41
548.43	2735.78
548.79	2729.12
549.14	2723.71
549.50	2718.69
549.86	2712.71
550.21	2705.54
550.57	2699.38
550.92	2690.93
551.28	2683.04
551.64	2675.49
551.99	2667.47
552.35	2658.83
552.70	2650.41
553.06	2642.33
553.41	2633.65
553.77	2624.72
554.13	2615.74
554.48	2605.97
554.84	2594.92
555.19	2584.29
555.55	2573.73
555.90	2563.22
556.26	2553.30
556.61	2542.33
556.97	2529.69
557.32	2517.58
557.68	2505.42
558.03	2492.92
558.39	2481.65
558.74	2470.69
559.10	2457.94
559.45	2445.45
559.81	2433.60
560.16	2421.11
560.52	2408.83
560.87	2396.93
561.23	2384.23
561.58	2371.59
561.94	2358.62
562.29	2345.12
562.64	2332.32
563.00	2319.23
563.35	2306.53
563.71	2293.67
564.06	2280.68
564.42	2268.43
564.77	2255.58
565.12	2242.60
565.48	2229.65
565.83	2216.64
566.19	2203.76
566.54	2190.88
566.89	2176.84
567.25	2162.91
567.60	2150.37
567.96	2136.91
568.31	2122.11
568.66	2108.02
569.02	2095.15
569.37	2082.18
569.72	2069.71
570.08	2055.99
570.43	2041.93
570.78	2027.74
571.14	2012.79
571.49	1998.48
571.84	1984.70
572.20	1969.72
572.55	1955.01
572.90	1940.22
573.26	1925.41
573.61	1910.12
573.96	1895.29
574.31	1880.68
574.67	1866.15
575.02	1850.56
575.37	1835.05
575.72	1820.35
576.08	1806.01
576.43	1790.51
576.78	1775.43
577.13	1760.64
577.49	1746.20
577.84	1732.37
578.19	1717.57
578.54	1702.99
578.90	1687.91
579.25	1672.72
579.60	1659.09
579.95	1645.38
580.30	1631.47
580.66	1617.33
581.01	1603.05
581.36	1588.74
581.71	1575.47
582.06	1562.11
582.42	1548.97
582.77	1535.90
583.12	1522.81
583.47	1509.55
583.82	1496.42
584.17	1482.96
584.53	1469.15
584.88	1455.74
585.23	1441.87
585.58	1428.80
585.93	1415.95
586.28	1403.86
586.63	1391.75
586.98	1379.20
587.34	1366.68
587.69	1353.86
588.04	1341.40
588.39	1329.31
588.74	1317.37
589.09	1305.21
589.44	1292.60
589.79	1280.64
590.14	1268.79
590.49	1256.86
590.84	1245.12
591.19	1233.75
591.54	1222.17
591.89	1210.74
592.25	1199.48
592.60	1187.89
592.95	1176.71
593.30	1165.73
593.65	1154.43
594.00	1143.29
594.35	1132.68
594.70	1121.65
595.05	1111.52
595.40	1101.29
595.75	1090.91
596.10	1081.06
596.45	1070.91
596.80	1061.13
597.15	1051.07
597.50	1041.17
597.85	1031.71
598.19	1022.03
598.54	1012.41
598.89	1003.25
599.24	994.43
599.59	985.39
599.94	977.29
600.29	968.97
600.64	960.39
600.99	951.44
601.34	942.84
601.69	933.92
602.04	925.67
602.39	917.25
602.74	908.88
603.08	900.48
603.43	892.02
603.78	883.76
604.13	875.65
604.48	867.56
604.83	859.64
605.18	851.60
605.53	843.75
605.87	835.71
606.22	827.98
606.57	820.18
606.92	812.33
607.27	804.39
607.62	796.75
607.96	789.54
608.31	782.76
608.66	775.77
609.01	769.06
609.36	762.45
609.70	755.63
610.05	748.78
610.40	742.20
610.75	735.61
611.10	729.37
611.44	722.95
611.79	716.64
612.14	710.26
612.49	703.96
612.83	697.96
613.18	692.12
613.53	686.15
613.88	680.21
614.22	674.68
614.57	669.09
614.92	663.37
615.27	657.74
615.61	652.15
615.96	646.64
616.31	641.13
616.65	635.67
617.00	630.42
617.35	625.29
617.70	620.20
618.04	615.17
618.39	610.06
618.74	605.21
619.08	600.39
619.43	595.70
619.78	591.02
620.12	586.28
620.47	581.71
620.82	577.27
621.16	572.86
621.51	568.33
621.85	563.83
622.20	559.50
622.55	555.19
622.89	550.99
623.24	546.78
623.59	542.62
623.93	538.60
624.28	534.68
624.62	530.85
624.97	527.06
625.32	523.24
625.66	519.37
626.01	515.47
626.35	511.64
626.70	507.86
627.04	504.27
627.39	500.62
627.73	497.12
628.08	493.71
628.43	490.29
628.77	486.96
629.12	483.75
629.46	480.56
629.81	477.28
630.15	473.99
630.50	470.80
630.84	467.67
631.19	464.61
631.53	461.65
631.88	458.65
632.22	455.68
632.57	452.99
632.91	450.34
633.26	447.78
633.60	445.22
633.95	442.73
634.29	440.15
634.64	437.65
634.98	434.97
635.32	432.42
635.67	430.06
636.01	427.64
636.36	425.25
636.70	423.01
637.05	420.77
637.39	418.56
637.73	416.38
638.08	414.32
638.42	412.22
638.77	409.99
639.11	407.70
639.45	405.51
639.80	403.24
640.14	401.09
640.49	398.93
640.83	396.74
641.17	394.65
641.52	392.60
641.86	390.57
642.20	388.76
642.55	386.77
642.89	384.83
643.23	382.97
643.58	381.27
643.92	379.45
644.26	377.69
644.61	375.99
644.95	374.25
645.29	372.43
645.64	370.64
645.98	368.94
646.32	367.37
646.66	365.77
647.01	364.20
647.35	362.67
647.69	361.12
648.04	359.71
648.38	358.22
648.72	356.76
649.06	355.30
649.41	353.84
649.75	352.44
650.09	351.07
650.43	349.69
650.78	348.25
651.12	346.87
651.46	345.53
651.80	344.22
652.14	342.94
652.49	341.72
652.83	340.46
653.17	339.26
653.51	338.07
653.85	336.96
654.20	335.79
654.54	334.56
654.88	333.41
655.22	332.27
655.56	331.14
655.90	330.06
656.25	329.02
656.59	327.96
656.93	326.96
657.27	325.97
657.61	324.94
657.95	323.94
658.29	322.94
658.64	322.00
658.98	321.04
659.32	320.11
659.66	319.23
660.00	318.37
660.34	317.51
660.68	316.62
661.02	315.70
661.36	314.82
661.70	313.99
662.05	313.17
662.39	312.36
662.73	311.63
663.07	310.90
663.41	310.13
663.75	309.36
664.09	308.60
664.43	307.80
664.77	307.08
665.11	306.32
665.45	305.62
665.79	304.93
666.13	304.21
666.47	303.47
666.81	302.73
667.15	301.95
667.49	301.28
667.83	300.67
668.17	300.02
668.51	299.43
668.85	298.86
669.19	298.32
669.53	297.68
669.87	297.04
670.21	296.41
670.55	295.82
670.89	295.32
671.23	294.77
671.57	294.23
671.91	293.73
672.25	293.26
672.58	292.79
672.92	292.23
673.26	291.76
673.60	291.30
673.94	290.85
674.28	290.43
674.62	289.97
674.96	289.46
675.30	289.01
675.64	288.53
675.97	288.03
676.31	287.50
676.65	287.03
676.99	286.63
677.33	286.15
677.67	285.72
678.01	285.20
678.34	284.76
678.68	284.36
679.02	283.89
679.36	283.43
679.70	282.97
680.04	282.56
680.37	282.14
680.71	281.73
681.05	281.35
681.39	280.91
681.73	280.46
682.06	280.03
682.40	279.61
682.74	279.25
683.08	278.94
683.42	278.56
683.75	278.22
684.09	277.79
684.43	277.43
684.77	277.05
685.10	276.73
685.44	276.38
685.78	276.02
686.12	275.69
686.45	275.33
686.79	274.95
687.13	274.62
687.46	274.25
687.80	273.89
688.14	273.50
688.48	273.16
688.81	272.82
689.15	272.52
689.49	272.16
689.82	271.80
690.16	271.37
690.50	271.03
690.83	270.67
691.17	270.32
691.51	269.98
691.84	269.66
692.18	269.29
692.52	268.93
692.85	268.58
693.19	268.27
693.52	267.94
693.86	267.61
694.20	267.28
694.53	266.97
694.87	266.62
695.21	266.29
695.54	265.96
695.88	265.63
696.21	265.27
696.55	264.95
696.88	264.63
697.22	264.32
697.56	264.00
697.89	263.65
698.23	263.34
698.56	263.00
698.90	262.69
699.23	262.36
699.57	262.04
699.90	261.71
700.24	261.37
700.58	261.08
700.91	260.82
701.25	260.62
701.58	260.37
701.92	260.12
702.25	259.84
702.59	259.54
702.92	259.26
703.26	258.97
703.59	258.67
703.93	258.48
704.26	258.20
704.60	257.91
704.93	257.63
705.26	257.33
705.60	257.10
705.93	256.79
706.27	256.55
706.60	256.32
706.94	256.10
707.27	255.80
707.61	255.52
707.94	255.21
708.27	254.82
708.61	254.49
708.94	254.20
709.28	253.94
709.61	253.67
709.94	253.42
710.28	253.19
710.61	252.97
710.95	252.62
711.28	252.45
711.61	252.21
711.95	252.01
712.28	251.76
712.61	251.50
712.95	251.34
713.28	251.17
713.61	250.90
713.95	250.63
714.28	250.42
714.61	250.18
714.95	249.95
715.28	249.73
715.61	249.53
715.95	249.33
716.28	249.11
716.61	248.94
716.95	248.71
717.28	248.49
717.61	248.27
717.94	248.06
718.28	247.77
718.61	247.55
718.94	247.32
719.27	247.12
719.61	246.94
719.94	246.71
720.27	246.43
720.60	246.23
720.94	246.04
721.27	245.85
721.60	245.68
721.93	245.49
722.27	245.34
722.60	245.17
722.93	244.96
723.26	244.78
723.59	244.56
723.93	244.39
724.26	244.21
724.59	244.02
724.92	243.86
725.25	243.74
725.59	243.57
725.92	243.43
726.25	243.26
726.58	243.09
726.91	242.92
727.24	242.78
727.57	242.62
727.91	242.44
728.24	242.31
728.57	242.14
728.90	242.00
729.23	241.80
729.56	241.70
729.89	241.55
730.22	241.38
730.55	241.23
730.89	241.08
731.22	240.93
731.55	240.78
731.88	240.63
732.21	240.46
732.54	240.31
732.87	240.17
733.20	240.03
733.53	239.90
733.86	239.77
734.19	239.62
734.52	239.50
734.85	239.46
735.18	239.29
735.51	239.19
735.84	239.06
736.17	238.97
736.50	238.78
736.83	238.81
737.16	238.69
737.49	238.58
737.82	238.45
738.15	238.35
738.48	238.23
738.81	238.11
739.14	237.98
739.47	237.85
739.80	237.72
740.13	237.61
740.46	237.48
740.79	237.34
741.12	237.22
741.45	237.08
741.78	236.89
742.11	236.81
742.44	236.67
742.77	236.57
743.10	236.44
743.43	236.32
743.75	236.08
744.08	236.17
744.41	236.05
744.74	235.94
745.07	235.81
745.40	235.73
745.73	235.68
746.06	235.59
746.39	235.51
746.71	235.41
747.04	235.29
747.37	235.20
747.70	235.13
748.03	235.05
748.36	234.98
748.68	234.89
749.01	234.76
749.34	234.68
749.67	234.59
750.00	234.52
750.33	234.53
750.65	234.45
750.98	234.17
751.31	234.09
751.64	234.01
751.97	234.00
752.29	233.90
752.62	233.76
752.95	233.67
753.28	233.57
753.60	233.48
753.93	233.43
754.26	233.36
754.59	233.23
754.91	233.14
755.24	233.04
755.57	233.02
755.90	232.94
756.22	232.85
756.55	232.75
756.88	232.64
757.20	232.48
757.53	232.37
757.86	232.29
758.19	232.23
758.51	232.15
758.84	232.01
759.17	231.92
759.49	231.86
759.82	231.85
760.15	231.79
760.47	231.72
760.80	231.62
761.13	231.57
761.45	231.51
761.78	231.45
762.11	231.40
762.43	231.27
762.76	231.21
763.08	231.16
763.41	231.11
763.74	231.07
764.06	231.01
764.39	230.95
764.71	230.90
765.04	230.83
765.37	230.77
765.69	230.72
766.02	230.66
766.34	230.60
766.67	230.50
767.00	230.47
767.32	230.49
767.65	230.52
767.97	230.45
768.30	230.41
768.62	230.36
768.95	230.29
769.27	230.24
769.60	230.21
769.92	230.14
770.25	230.07
770.57	230.01
770.90	229.96
771.22	229.90
771.55	229.86
771.87	229.82
772.20	229.78
772.52	229.85
772.85	229.96
773.17	229.92
773.50	229.87
773.82	229.81
774.15	229.71
774.47	229.59
774.80	229.53
775.12	229.49
775.45	229.46
775.77	229.43
776.09	229.40
776.42	229.37
776.74	229.38
777.07	229.34
777.39	229.32
777.72	229.28
778.04	229.26
778.36	229.22
778.69	229.19
779.01	229.17
779.33	229.02
779.66	228.85
779.98	228.81
780.31	228.79
780.63	228.81
780.95	228.80
781.28	228.78
781.60	228.74
781.92	228.71
782.25	228.68
782.57	228.66
782.89	228.62
783.22	228.58
783.54	228.53
783.86	228.51
784.19	228.48
784.51	228.49
784.83	228.45
785.16	228.42
785.48	228.40
785.80	228.38
786.12	228.37
786.45	228.34
786.77	228.33
787.09	228.30
787.42	228.23
787.74	228.21
788.06	228.19
788.38	228.17
788.71	228.14
789.03	228.13
789.35	228.12
789.67	228.09
789.99	228.07
790.32	228.04
790.64	228.04
790.96	228.14
791.28	228.07
791.61	228.05
791.93	228.04
792.25	228.01
792.57	228.08
792.89	228.04
793.21	228.03
793.54	228.00
793.86	227.97
794.18	227.96
794.50	227.92
794.82	227.90
795.14	227.90
795.47	227.90
795.79	227.89
796.11	227.84
796.43	227.82
796.75	227.80
797.07	227.79
797.39	227.77
797.71	227.65
798.04	227.64
798.36	227.64
798.68	227.62
799.00	227.61
799.32	227.53
799.64	227.54
799.96	227.52
800.28	227.52
800.60	227.50
800.92	227.50
801.24	227.48
801.56	227.47
801.89	227.44
802.21	227.43
802.53	227.39
802.85	227.40
803.17	227.45
803.49	227.42
803.81	227.39
804.13	227.37
804.45	227.34
804.77	227.33
805.09	227.32
805.41	227.29
805.73	227.25
806.05	227.21
806.37	227.18
806.69	227.16
807.01	227.13
807.33	227.13
807.65	227.07
807.97	227.12
808.28	227.09
808.60	227.08
808.92	227.05
809.24	227.11
809.56	227.08
809.88	227.03
810.20	227.02
810.52	227.04
810.84	227.01
811.16	226.99
811.48	226.96
811.80	227.00
812.12	226.99
812.43	227.00
812.75	227.00
813.07	226.98
813.39	226.98
813.71	226.96
814.03	226.93
814.35	226.93
814.67	226.86
814.98	226.84
815.30	226.83
815.62	226.81
815.94	226.72
816.26	226.72
816.58	226.69
816.89	226.69
817.21	226.65
817.53	226.65
817.85	226.65
818.17	226.64
818.48	226.58
818.80	226.60
819.12	226.57
819.44	226.55
819.76	226.52
820.07	226.51
820.39	226.50
820.71	226.50
821.03	226.50
821.34	226.48
821.66	226.49
821.98	226.50
822.30	226.49
822.61	226.56
822.93	226.53
823.25	226.53
823.57	226.51
823.88	226.52
824.20	226.50
824.52	226.51
824.83	226.50
825.15	226.49
825.47	226.47
825.79	226.47
826.10	226.46
826.42	226.45
826.74	226.45
827.05	226.44
827.37	226.44
827.69	226.43
828.00	226.43
828.32	226.42
828.64	226.40
828.95	226.46
829.27	226.41
829.58	226.41
829.90	226.43
830.22	226.43
830.53	226.41
830.85	226.39
831.17	226.35
831.48	226.34
831.80	226.34
832.11	226.33
832.43	226.31
832.75	226.30
833.06	226.38
833.38	226.34
833.69	226.33
834.01	226.33
834.32	226.32
834.64	226.31
834.96	226.30
835.27	226.30
835.59	226.25
835.90	226.23
836.22	226.21
836.53	226.18
836.85	226.16
837.16	226.28
837.48	226.28
837.79	226.33
838.11	226.33
838.42	226.32
838.74	226.34
839.05	226.33
839.37	226.32
839.68	226.24
840.00	226.23
840.31	226.25
840.63	226.23
840.94	226.22
841.26	226.20
841.57	226.19
841.88	226.20
842.20	226.18
842.51	226.16
842.83	226.15
843.14	226.27
843.46	226.26
843.77	226.18
844.08	226.18
844.40	226.13
844.71	226.11
845.03	226.10
845.34	226.08
845.65	226.08
845.97	226.07
846.28	226.08
846.60	226.08
846.91	226.06
847.22	226.05
847.54	226.08
847.85	226.08
848.16	226.07
848.48	226.04
848.79	226.09
849.10	226.10
849.42	226.11
849.73	225.98
850.04	225.99
850.36	225.94
850.67	225.96
850.98	225.96
851.30	225.97
851.61	225.97
851.92	225.96
852.23	226.00
852.55	226.01
852.86	226.01
853.17	226.02
853.49	226.04
853.80	226.07
854.11	226.07
854.42	226.09
854.74	226.08
855.05	226.08
855.36	226.02
855.67	226.02
855.99	226.02
856.30	226.17
856.61	226.16
856.92	226.16
857.23	226.16
857.55	226.15
857.86	226.14
858.17	226.16
858.48	226.14
858.79	226.11
859.11	226.12
859.42	226.11
859.73	226.09
860.04	226.08
860.35	226.04
860.66	226.00
860.98	225.99
861.29	226.00
861.60	225.99
861.91	226.02
862.22	226.00
862.53	225.98
862.84	225.83
863.16	225.85
863.47	225.83
863.78	225.80
864.09	225.81
864.40	225.82
864.71	225.82
865.02	225.83
865.33	225.82
865.64	225.79
865.95	225.80
866.27	225.88
866.58	225.86
866.89	225.88
867.20	225.88
867.51	225.86
867.82	225.84
868.13	225.88
868.44	225.85
868.75	225.87
869.06	225.88
869.37	225.89
869.68	225.86
869.99	225.88
870.30	225.89
870.61	225.90
870.92	225.88
871.23	225.87
871.54	225.88
871.85	225.90
872.16	225.92
872.47	225.91
872.78	225.84
873.09	225.85
873.40	225.83
873.71	225.85
874.02	225.85
874.33	225.84
874.64	225.81
874.95	225.84
875.26	225.81
875.56	225.80
875.87	225.80
876.18	225.80
876.49	225.92
876.80	225.91
877.11	225.89
877.42	225.89
877.73	225.89
878.04	225.87
878.35	225.87
878.66	225.87
878.96	225.87
879.27	225.86
879.58	225.86
879.89	225.85
880.20	225.88
880.51	225.88
880.82	225.88
881.12	225.89
881.43	225.86
881.74	225.84
882.05	225.84
882.36	225.84
882.67	225.85
882.97	225.71
883.28	225.70
883.59	225.70
883.90	225.71
884.21	225.72
884.51	225.71
884.82	225.69
885.13	225.69
885.44	225.68
885.74	225.68
886.05	225.67
886.36	225.67
886.67	225.63
886.98	225.69
887.28	225.70
887.59	225.70
887.90	225.71
888.20	225.71
888.51	225.73
888.82	225.71
889.13	225.72
889.43	225.83
889.74	225.82
890.05	225.82
890.35	225.80
890.66	225.78
890.97	225.77
891.28	225.76
891.58	225.76
891.89	225.76
892.20	225.74
892.50	225.73
892.81	225.72
893.12	225.72
893.42	225.66
893.73	225.66
894.04	225.65
894.34	225.66
894.65	225.65
894.95	225.64
895.26	225.65
895.57	225.70
895.87	225.57
896.18	225.60
896.48	225.60
896.79	225.60
897.10	225.62
897.40	225.63
897.71	225.64
898.01	225.63
898.32	225.64
898.63	225.64
898.93	225.65
899.24	225.66
899.54	225.65
899.85	225.65
900.15	225.64
900.46	225.64
900.76	225.65
901.07	225.65
901.38	225.64
901.68	225.66
901.99	225.59
902.29	225.60
902.60	225.59
902.90	225.58
903.21	225.58
903.51	225.56
903.82	225.59
904.12	225.59
904.43	225.60
904.73	225.59
905.03	225.60
905.34	225.71
905.64	225.70
905.95	225.70
906.25	225.70
906.56	225.70
906.86	225.69
907.17	225.68
907.47	225.69
907.77	225.67
908.08	225.64
908.38	225.65
908.69	225.66
908.99	225.67
909.30	225.68
909.60	225.68
909.90	225.68
910.21	225.64
910.51	225.62
910.81	225.62
911.12	225.63
911.42	225.63
911.73	225.49
912.03	225.50
912.33	225.53
912.64	225.52
912.94	225.50
913.24	225.48
913.55	225.47
913.85	225.46
914.15	225.49
914.46	225.50
914.76	225.49
915.06	225.48
915.37	225.46
915.67	225.45
915.97	225.45
916.27	225.42
916.58	225.44
916.88	225.44
917.18	225.42
917.49	225.50
917.79	225.50
918.09	225.52
918.39	225.55
918.70	225.54
919.00	225.55
919.30	225.61
919.60	225.61
919.91	225.60
920.21	225.60
920.51	225.58
920.81	225.57
921.12	225.59
921.42	225.59
921.72	225.60
922.02	225.60
922.32	225.62
922.63	225.63
922.93	225.69
923.23	225.70
923.53	225.69
923.83	225.60
924.13	225.61
924.44	225.61
924.74	225.63
925.04	225.65
925.34	225.65
925.64	225.59
925.94	225.59
926.24	225.67
926.55	225.66
926.85	225.67
927.15	225.67
927.45	225.67
927.75	225.67
928.05	225.67
928.35	225.66
928.65	225.68
928.95	225.68
929.26	225.62
929.56	225.65
929.86	225.66
930.16	225.65
930.46	225.64
930.76	225.65
931.06	225.58
931.36	225.54
931.66	225.57
931.96	225.58
932.26	225.59
932.56	225.53
932.86	225.54
933.16	225.54
933.46	225.53
933.76	225.51
934.06	225.53
934.36	225.57
934.66	225.57
934.96	225.55
935.26	225.55
935.56	225.57
935.86	225.54
936.16	225.52
936.46	225.51
936.76	225.51
937.06	225.49
937.36	225.50
937.66	225.50
937.96	225.49
938.26	225.46
938.56	225.46
938.86	225.47
939.16	225.49
939.46	225.50
939.76	225.51
940.06	225.51
940.35	225.49
940.65	225.43
940.95	225.44
941.25	225.41
941.55	225.39
941.85	225.38
942.15	225.41
942.45	225.45
942.75	225.45
943.04	225.45
943.34	225.48
943.64	225.47
943.94	225.45
944.24	225.45
944.54	225.47
944.84	225.46
945.13	225.44
945.43	225.42
945.73	225.41
946.03	225.40
946.33	225.39
946.62	225.38
946.92	225.37
947.22	225.38
947.52	225.39
947.82	225.41
948.11	225.40
948.41	225.37
948.71	225.33
949.01	225.34
949.31	225.33
949.60	225.31
949.90	225.33
950.20	225.32
950.50	225.32
950.79	225.31
951.09	225.33
951.39	225.33
951.69	225.32
951.98	225.34
952.28	225.35
952.58	225.35
952.87	225.35
953.17	225.37
953.47	225.35
953.76	225.35
954.06	225.33
954.36	225.31
954.66	225.31
954.95	225.35
955.25	225.36
955.55	225.37
955.84	225.35
956.14	225.36
956.44	225.37
956.73	225.35
957.03	225.36
957.32	225.36
957.62	225.36
957.92	225.38
958.21	225.37
958.51	225.51
958.81	225.53
959.10	225.54
959.40	225.56
959.69	225.57
959.99	225.58
960.29	225.58
960.58	225.58
960.88	225.63
961.17	225.61
961.47	225.62
961.76	225.61
962.06	225.63
962.36	225.62
962.65	225.62
962.95	225.63
963.24	225.62
963.54	225.63
963.83	225.64
964.13	225.63
964.42	225.62
964.72	225.51
965.01	225.51
965.31	225.50
965.60	225.47
965.90	225.55
966.19	225.52
966.49	225.53
966.78	225.53
967.08	225.51
967.37	225.51
967.67	225.48
967.96	225.51
968.26	225.50
968.55	225.52
968.85	225.51
969.14	225.51
969.43	225.50
969.73	225.49
970.02	225.48
970.32	225.47
970.61	225.45
970.91	225.41
971.20	225.40
971.49	225.39
971.79	225.40
972.08	225.31
972.38	225.32
972.67	225.31
972.96	225.33
973.26	225.31
973.55	225.35
973.85	225.34
974.14	225.33
974.43	225.33
974.73	225.31
975.02	225.31
975.31	225.31
975.61	225.31
975.90	225.30
976.19	225.29
976.49	225.30
976.78	225.31
977.07	225.31
977.37	225.33
977.66	225.34
977.95	225.32
978.24	225.33
978.54	225.36
978.83	225.35
979.12	225.34
979.42	225.34
979.71	225.31
980.00	225.31
980.29	225.32
980.59	225.29
980.88	225.33
981.17	225.33
981.46	225.33
981.76	225.33
982.05	225.37
982.34	225.38
982.63	225.38
982.93	225.38
983.22	225.41
983.51	225.41
983.80	225.43
984.09	225.45
984.39	225.43
984.68	225.42
984.97	225.43
985.26	225.42
985.55	225.43
985.85	225.40
986.14	225.42
986.43	225.44
986.72	225.43
987.01	225.38
987.30	225.38
987.59	225.37
987.89	225.38
988.18	225.34
988.47	225.32
988.76	225.31
989.05	225.30
989.34	225.28
989.63	225.32
989.92	225.29
990.22	225.27
990.51	225.27
990.80	225.26
991.09	225.27
991.38	225.29
991.67	225.27
991.96	225.26
992.25	225.26
992.54	225.24
992.83	225.24
993.12	225.24
993.41	225.27
993.70	225.32
993.99	225.34
994.28	225.36
994.58	225.38
994.87	225.37
995.16	225.37
995.45	225.36
995.74	225.31
996.03	225.33
996.32	225.35
996.61	225.38
996.90	225.38
997.19	225.37
997.48	225.37
997.77	225.36
998.06	225.37
998.34	225.36
998.63	225.36
998.92	225.36
999.21	225.38
999.50	225.38
999.79	225.33
1000.08	225.33
1000.37	225.33
1000.66	225.32
1000.95	225.35
1001.24	225.36
1001.53	225.38
1001.82	225.37
1002.11	225.34
1002.40	225.35
1002.68	225.38
1002.97	225.47
1003.26	225.45
1003.55	225.44
1003.84	225.45
1004.13	225.49
1004.42	225.49
1004.71	225.49
1004.99	225.48
1005.28	225.51
1005.57	225.50
1005.86	225.49
1006.15	225.48
1006.44	225.46
1006.72	225.47
1007.01	225.45
1007.30	225.45
1007.59	225.43
1007.88	225.44
1008.17	225.44
1008.45	225.42
1008.74	225.36
1009.03	225.30
1009.32	225.30
1009.60	225.30
1009.89	225.29
1010.18	225.23
1010.47	225.23
1010.76	225.23
1011.04	225.23
1011.33	225.22
1011.62	225.23
1011.91	225.24
1012.19	225.25
1012.48	225.25
1012.77	225.25
1013.05	225.29
1013.34	225.29
1013.63	225.29
1013.92	225.29
1014.20	225.28
1014.49	225.29
1014.78	225.30
1015.06	225.26
1015.35	225.27
1015.64	225.28
1015.92	225.30
1016.21	225.31
1016.50	225.32
1016.78	225.33
1017.07	225.34
1017.36	225.32
1017.64	225.30
1017.93	225.31
1018.22	225.30
1018.50	225.30
1018.79	225.29
1019.08	225.25
1019.36	225.25
1019.65	225.24
1019.93	225.28
1020.22	225.30
1020.51	225.36
1020.79	225.35
1021.08	225.17
1021.36	225.10
1021.65	225.25
1021.94	225.22
1022.22	225.40
1022.51	225.08
1022.79	225.88
1023.08	225.45
1023.36	226.79
1023.65	225.02
>>>>>End Processed Spectral Data<<<<<
