SpectraSuite Data File
++++++++++++++++++++++++++++++++++++
Date: Sat Oct 03 09:41:03 EDT 2015
User: lab3
Dark Spectrum Present: No
Reference Spectrum Present: No
Number of Sampled Component Spectra: 1
Spectrometers: USB2E7196
Integration Time (usec): 46000 (USB2E7196)
Spectra Averaged: 12000 (USB2E7196)
Boxcar Smoothing: 10 (USB2E7196)
Correct for Electrical Dark: No (USB2E7196)
Strobe/Lamp Enabled: No (USB2E7196)
Correct for Detector Non-linearity: No (USB2E7196)
Correct for Stray Light: No (USB2E7196)
Number of Pixels in Processed Spectrum: 2048
>>>>>Begin Processed Spectral Data<<<<<
339.09	0.00
339.48	213.40
339.86	214.85
340.24	216.24
340.63	217.68
341.01	220.93
341.39	220.37
341.78	221.76
342.16	223.05
342.54	223.39
342.93	211.88
343.31	222.58
343.69	223.12
344.07	223.59
344.46	224.02
344.84	224.41
345.22	224.63
345.60	224.89
345.99	225.09
346.37	225.22
346.75	225.33
347.13	225.41
347.52	225.48
347.90	225.57
348.28	225.61
348.66	225.67
349.05	225.67
349.43	225.73
349.81	225.78
350.19	225.84
350.57	225.91
350.96	225.99
351.34	226.09
351.72	226.19
352.10	226.30
352.48	226.37
352.87	226.43
353.25	226.49
353.63	226.55
354.01	226.61
354.39	226.69
354.77	226.77
355.15	226.87
355.54	226.92
355.92	226.95
356.30	227.02
356.68	227.17
357.06	227.25
357.44	227.30
357.82	227.35
358.20	227.47
358.58	227.53
358.97	227.59
359.35	227.68
359.73	227.76
360.11	227.81
360.49	227.87
360.87	227.91
361.25	227.98
361.63	228.07
362.01	228.12
362.39	228.15
362.77	228.20
363.15	228.22
363.53	228.26
363.91	228.30
364.29	228.32
364.67	228.22
365.05	228.25
365.43	228.28
365.81	228.31
366.19	228.33
366.57	228.39
366.95	228.39
367.33	228.36
367.71	228.35
368.09	228.37
368.47	228.37
368.85	228.36
369.23	228.37
369.61	228.30
369.99	228.32
370.37	228.32
370.75	228.39
371.13	228.36
371.51	228.32
371.89	228.29
372.27	228.27
372.65	228.25
373.03	228.21
373.41	228.16
373.78	228.11
374.16	228.00
374.54	227.92
374.92	227.87
375.30	227.83
375.68	227.76
376.06	227.71
376.44	227.65
376.82	227.61
377.19	227.56
377.57	227.51
377.95	227.42
378.33	227.36
378.71	227.20
379.09	227.16
379.47	227.13
379.84	227.06
380.22	227.00
380.60	226.93
380.98	226.88
381.36	226.83
381.73	226.76
382.11	226.74
382.49	226.70
382.87	226.64
383.25	226.60
383.62	226.70
384.00	226.63
384.38	226.60
384.76	226.59
385.13	226.58
385.51	226.54
385.89	226.49
386.27	226.46
386.64	226.44
387.02	226.39
387.40	226.35
387.78	226.32
388.15	226.30
388.53	226.27
388.91	226.24
389.29	226.21
389.66	226.21
390.04	226.17
390.42	226.17
390.79	226.16
391.17	226.14
391.55	225.98
391.92	225.97
392.30	225.97
392.68	225.93
393.05	225.92
393.43	225.92
393.81	225.93
394.18	225.91
394.56	225.91
394.94	225.95
395.31	225.94
395.69	225.99
396.06	226.02
396.44	226.05
396.82	226.06
397.19	226.15
397.57	226.15
397.95	226.20
398.32	226.20
398.70	226.24
399.07	226.31
399.45	226.35
399.82	226.40
400.20	226.43
400.58	226.50
400.95	226.51
401.33	226.59
401.70	226.75
402.08	226.85
402.45	226.94
402.83	227.06
403.20	227.17
403.58	227.27
403.95	227.41
404.33	227.56
404.71	227.71
405.08	227.92
405.46	228.09
405.83	228.28
406.21	228.48
406.58	228.71
406.96	228.93
407.33	229.19
407.70	229.48
408.08	229.87
408.45	230.21
408.83	230.58
409.20	230.92
409.58	231.22
409.95	231.64
410.33	232.10
410.70	232.52
411.08	233.02
411.45	233.55
411.82	234.09
412.20	234.70
412.57	235.43
412.95	236.00
413.32	236.75
413.69	237.51
414.07	238.33
414.44	239.21
414.82	240.11
415.19	241.17
415.56	242.24
415.94	243.34
416.31	244.59
416.68	245.83
417.06	247.27
417.43	248.63
417.81	250.18
418.18	251.76
418.55	253.49
418.93	255.29
419.30	257.18
419.67	259.17
420.04	261.22
420.42	263.36
420.79	265.84
421.16	268.33
421.54	270.86
421.91	273.52
422.28	276.26
422.66	279.22
423.03	282.05
423.40	285.01
423.77	288.19
424.15	291.45
424.52	294.84
424.89	298.51
425.26	302.15
425.64	305.55
426.01	309.36
426.38	313.26
426.75	317.28
427.13	321.40
427.50	325.71
427.87	330.20
428.24	334.72
428.61	339.07
428.99	343.77
429.36	348.93
429.73	353.87
430.10	358.80
430.47	363.85
430.85	369.05
431.22	374.62
431.59	380.35
431.96	385.94
432.33	392.16
432.70	398.07
433.08	405.05
433.45	411.65
433.82	418.15
434.19	425.42
434.56	432.58
434.93	439.50
435.30	446.34
435.68	454.06
436.05	461.64
436.42	469.18
436.79	476.07
437.16	483.49
437.53	491.45
437.90	499.42
438.27	507.21
438.64	515.63
439.01	523.26
439.38	530.24
439.75	536.97
440.13	544.54
440.50	551.74
440.87	557.44
441.24	563.70
441.61	570.52
441.98	575.48
442.35	581.37
442.72	587.37
443.09	593.10
443.46	596.70
443.83	599.33
444.20	601.52
444.57	604.80
444.94	606.62
445.31	608.52
445.68	610.12
446.05	611.26
446.42	610.82
446.79	610.17
447.16	609.58
447.53	609.03
447.90	606.51
448.27	604.09
448.64	600.49
449.01	597.94
449.37	592.97
449.74	588.47
450.11	582.70
450.48	576.40
450.85	570.09
451.22	564.71
451.59	559.45
451.96	554.69
452.33	547.80
452.70	541.70
453.07	534.26
453.43	526.84
453.80	519.64
454.17	512.74
454.54	506.40
454.91	499.23
455.28	492.53
455.65	486.23
456.02	479.57
456.38	474.21
456.75	467.32
457.12	461.77
457.49	456.17
457.86	450.91
458.23	446.31
458.59	441.21
458.96	435.96
459.33	431.37
459.70	426.67
460.07	423.12
460.43	418.92
460.80	415.01
461.17	411.62
461.54	407.94
461.91	404.50
462.27	401.00
462.64	398.20
463.01	394.95
463.38	391.68
463.74	388.72
464.11	386.11
464.48	383.78
464.85	381.23
465.21	379.31
465.58	377.16
465.95	374.66
466.32	372.70
466.68	370.76
467.05	368.82
467.42	366.92
467.78	364.86
468.15	362.97
468.52	361.60
468.88	359.74
469.25	358.04
469.62	356.69
469.98	355.21
470.35	353.89
470.72	352.70
471.08	351.48
471.45	350.46
471.82	349.32
472.18	348.11
472.55	347.34
472.92	346.34
473.28	345.57
473.65	344.73
474.02	343.94
474.38	343.27
474.75	342.87
475.11	342.32
475.48	342.05
475.85	341.76
476.21	341.60
476.58	341.48
476.94	341.59
477.31	341.64
477.67	341.71
478.04	341.90
478.41	342.17
478.77	342.58
479.14	342.83
479.50	343.33
479.87	343.98
480.23	344.64
480.60	345.29
480.96	345.94
481.33	346.93
481.69	347.90
482.06	348.88
482.42	349.77
482.79	350.87
483.15	352.15
483.52	353.62
483.88	355.03
484.25	356.55
484.61	358.12
484.98	359.82
485.34	361.74
485.71	363.74
486.07	365.88
486.44	368.02
486.80	370.42
487.17	372.90
487.53	375.61
487.90	378.45
488.26	381.55
488.62	384.81
488.99	388.08
489.35	391.52
489.72	395.25
490.08	399.17
490.44	403.24
490.81	407.45
491.17	411.77
491.54	416.41
491.90	421.20
492.26	426.33
492.63	431.68
492.99	437.28
493.36	443.08
493.72	449.18
494.08	455.43
494.45	462.07
494.81	468.96
495.17	476.04
495.54	483.52
495.90	491.30
496.26	499.26
496.63	507.46
496.99	515.98
497.35	524.90
497.72	534.11
498.08	543.52
498.44	553.24
498.80	563.57
499.17	574.14
499.53	585.05
499.89	596.32
500.26	607.84
500.62	619.65
500.98	632.09
501.34	644.72
501.71	657.87
502.07	671.20
502.43	685.07
502.79	699.17
503.16	713.74
503.52	728.50
503.88	743.68
504.24	759.34
504.60	775.19
504.97	791.55
505.33	808.32
505.69	826.02
506.05	844.06
506.41	862.04
506.78	880.20
507.14	898.87
507.50	917.99
507.86	937.46
508.22	957.15
508.59	976.68
508.95	996.99
509.31	1018.05
509.67	1039.84
510.03	1061.63
510.39	1083.48
510.75	1105.51
511.12	1127.83
511.48	1150.33
511.84	1172.85
512.20	1195.76
512.56	1219.54
512.92	1243.38
513.28	1266.82
513.64	1290.49
514.00	1314.64
514.37	1339.11
514.73	1363.55
515.09	1387.86
515.45	1412.49
515.81	1437.33
516.17	1462.28
516.53	1486.80
516.89	1511.19
517.25	1535.72
517.61	1560.11
517.97	1584.97
518.33	1609.36
518.69	1633.70
519.05	1658.46
519.41	1683.53
519.77	1708.88
520.13	1733.45
520.49	1757.93
520.85	1782.71
521.21	1807.15
521.57	1831.90
521.93	1856.13
522.29	1880.91
522.65	1905.14
523.01	1929.34
523.37	1953.13
523.73	1977.64
524.09	2001.84
524.45	2025.83
524.81	2049.48
525.17	2073.00
525.53	2095.95
525.89	2119.30
526.25	2142.65
526.61	2165.01
526.97	2187.49
527.33	2209.84
527.68	2231.99
528.04	2253.33
528.40	2273.78
528.76	2294.33
529.12	2314.48
529.48	2334.38
529.84	2352.34
530.20	2370.97
530.56	2388.99
530.91	2407.16
531.27	2424.98
531.63	2441.93
531.99	2458.41
532.35	2474.19
532.71	2490.15
533.07	2506.77
533.42	2521.60
533.78	2537.37
534.14	2553.35
534.50	2568.44
534.86	2583.25
535.21	2596.11
535.57	2609.47
535.93	2622.63
536.29	2634.69
536.65	2646.47
537.00	2657.49
537.36	2669.55
537.72	2680.22
538.08	2690.35
538.44	2699.78
538.79	2708.82
539.15	2717.09
539.51	2725.03
539.87	2732.35
540.22	2737.55
540.58	2742.82
540.94	2749.24
541.29	2754.19
541.65	2757.39
542.01	2759.71
542.37	2761.45
542.72	2764.52
543.08	2765.88
543.44	2767.85
543.79	2768.75
544.15	2768.87
544.51	2769.38
544.87	2768.76
545.22	2767.41
545.58	2765.38
545.94	2763.30
546.29	2759.96
546.65	2756.58
547.01	2753.08
547.36	2750.28
547.72	2747.81
548.07	2743.51
548.43	2737.81
548.79	2730.98
549.14	2725.44
549.50	2720.33
549.86	2714.20
550.21	2706.91
550.57	2700.64
550.92	2692.04
551.28	2683.96
551.64	2676.25
551.99	2668.12
552.35	2659.38
552.70	2650.84
553.06	2642.65
553.41	2633.84
553.77	2624.84
554.13	2615.78
554.48	2605.91
554.84	2594.75
555.19	2583.96
555.55	2573.28
555.90	2562.67
556.26	2552.71
556.61	2541.61
556.97	2528.84
557.32	2516.59
557.68	2504.36
558.03	2491.77
558.39	2480.45
558.74	2469.46
559.10	2456.69
559.45	2444.12
559.81	2432.13
560.16	2419.53
560.52	2407.21
560.87	2395.29
561.23	2382.48
561.58	2369.72
561.94	2356.68
562.29	2343.12
562.64	2330.25
563.00	2317.10
563.35	2304.29
563.71	2291.34
564.06	2278.31
564.42	2266.02
564.77	2253.17
565.12	2240.16
565.48	2227.14
565.83	2214.04
566.19	2201.09
566.54	2188.14
566.89	2174.07
567.25	2160.10
567.60	2147.53
567.96	2134.02
568.31	2119.17
568.66	2105.02
569.02	2092.10
569.37	2079.11
569.72	2066.60
570.08	2052.87
570.43	2038.75
570.78	2024.57
571.14	2009.63
571.49	1995.27
571.84	1981.46
572.20	1966.47
572.55	1951.69
572.90	1936.88
573.26	1922.09
573.61	1906.82
573.96	1891.96
574.31	1877.32
574.67	1862.82
575.02	1847.23
575.37	1831.75
575.72	1817.06
576.08	1802.73
576.43	1787.24
576.78	1772.16
577.13	1757.38
577.49	1742.95
577.84	1729.12
578.19	1714.32
578.54	1699.70
578.90	1684.60
579.25	1669.43
579.60	1655.81
579.95	1642.12
580.30	1628.23
580.66	1614.07
581.01	1599.81
581.36	1585.53
581.71	1572.24
582.06	1558.88
582.42	1545.74
582.77	1532.66
583.12	1519.57
583.47	1506.34
583.82	1493.23
584.17	1479.77
584.53	1465.99
584.88	1452.57
585.23	1438.75
585.58	1425.71
585.93	1412.87
586.28	1400.80
586.63	1388.66
586.98	1376.11
587.34	1363.62
587.69	1350.82
588.04	1338.35
588.39	1326.25
588.74	1314.31
589.09	1302.18
589.44	1289.57
589.79	1277.60
590.14	1265.76
590.49	1253.83
590.84	1242.07
591.19	1230.71
591.54	1219.14
591.89	1207.70
592.25	1196.45
592.60	1184.84
592.95	1173.66
593.30	1162.70
593.65	1151.45
594.00	1140.36
594.35	1129.77
594.70	1118.76
595.05	1108.63
595.40	1098.40
595.75	1088.03
596.10	1078.19
596.45	1068.06
596.80	1058.31
597.15	1048.26
597.50	1038.39
597.85	1028.96
598.19	1019.32
598.54	1009.71
598.89	1000.59
599.24	991.79
599.59	982.77
599.94	974.69
600.29	966.39
600.64	957.82
600.99	948.88
601.34	940.27
601.69	931.35
602.04	923.11
602.39	914.70
602.74	906.34
603.08	897.94
603.43	889.50
603.78	881.25
604.13	873.13
604.48	865.05
604.83	857.12
605.18	849.10
605.53	841.25
605.87	833.24
606.22	825.51
606.57	817.73
606.92	809.89
607.27	801.96
607.62	794.33
607.96	787.11
608.31	780.34
608.66	773.37
609.01	766.67
609.36	760.08
609.70	753.29
610.05	746.47
610.40	739.92
610.75	733.36
611.10	727.12
611.44	720.72
611.79	714.44
612.14	708.08
612.49	701.79
612.83	695.80
613.18	689.95
613.53	684.00
613.88	678.07
614.22	672.53
614.57	666.96
614.92	661.25
615.27	655.63
615.61	650.06
615.96	644.55
616.31	639.05
616.65	633.59
617.00	628.34
617.35	623.20
617.70	618.10
618.04	613.08
618.39	607.98
618.74	603.12
619.08	598.30
619.43	593.61
619.78	588.92
620.12	584.20
620.47	579.64
620.82	575.19
621.16	570.79
621.51	566.28
621.85	561.79
622.20	557.47
622.55	553.19
622.89	548.99
623.24	544.81
623.59	540.64
623.93	536.64
624.28	532.74
624.62	528.92
624.97	525.15
625.32	521.33
625.66	517.47
626.01	513.59
626.35	509.77
626.70	506.00
627.04	502.43
627.39	498.77
627.73	495.30
628.08	491.90
628.43	488.48
628.77	485.15
629.12	481.94
629.46	478.76
629.81	475.49
630.15	472.20
630.50	469.02
630.84	465.89
631.19	462.83
631.53	459.86
631.88	456.86
632.22	453.89
632.57	451.20
632.91	448.55
633.26	445.99
633.60	443.43
633.95	440.93
634.29	438.35
634.64	435.84
634.98	433.15
635.32	430.60
635.67	428.23
636.01	425.81
636.36	423.42
636.70	421.17
637.05	418.91
637.39	416.70
637.73	414.52
638.08	412.46
638.42	410.36
638.77	408.13
639.11	405.84
639.45	403.64
639.80	401.38
640.14	399.22
640.49	397.06
640.83	394.87
641.17	392.78
641.52	390.73
641.86	388.71
642.20	386.89
642.55	384.92
642.89	382.98
643.23	381.12
643.58	379.42
643.92	377.61
644.26	375.86
644.61	374.15
644.95	372.42
645.29	370.61
645.64	368.82
645.98	367.12
646.32	365.55
646.66	363.96
647.01	362.40
647.35	360.87
647.69	359.32
648.04	357.91
648.38	356.41
648.72	354.95
649.06	353.49
649.41	352.03
649.75	350.63
650.09	349.26
650.43	347.87
650.78	346.45
651.12	345.06
651.46	343.73
651.80	342.42
652.14	341.14
652.49	339.92
652.83	338.65
653.17	337.45
653.51	336.26
653.85	335.14
654.20	333.98
654.54	332.74
654.88	331.59
655.22	330.47
655.56	329.34
655.90	328.26
656.25	327.23
656.59	326.16
656.93	325.18
657.27	324.19
657.61	323.16
657.95	322.18
658.29	321.18
658.64	320.24
658.98	319.29
659.32	318.37
659.66	317.49
660.00	316.65
660.34	315.79
660.68	314.91
661.02	314.01
661.36	313.13
661.70	312.31
662.05	311.50
662.39	310.69
662.73	309.96
663.07	309.25
663.41	308.48
663.75	307.72
664.09	306.96
664.43	306.16
664.77	305.44
665.11	304.69
665.45	303.99
665.79	303.30
666.13	302.59
666.47	301.86
666.81	301.12
667.15	300.35
667.49	299.69
667.83	299.08
668.17	298.44
668.51	297.85
668.85	297.28
669.19	296.75
669.53	296.12
669.87	295.48
670.21	294.85
670.55	294.28
670.89	293.79
671.23	293.24
671.57	292.70
671.91	292.22
672.25	291.76
672.58	291.30
672.92	290.75
673.26	290.28
673.60	289.82
673.94	289.38
674.28	288.97
674.62	288.51
674.96	288.01
675.30	287.57
675.64	287.10
675.97	286.61
676.31	286.10
676.65	285.64
676.99	285.25
677.33	284.78
677.67	284.34
678.01	283.84
678.34	283.42
678.68	283.02
679.02	282.56
679.36	282.11
679.70	281.65
680.04	281.24
680.37	280.83
680.71	280.44
681.05	280.05
681.39	279.63
681.73	279.19
682.06	278.77
682.40	278.37
682.74	278.02
683.08	277.71
683.42	277.34
683.75	277.00
684.09	276.58
684.43	276.23
684.77	275.86
685.10	275.55
685.44	275.20
685.78	274.84
686.12	274.52
686.45	274.17
686.79	273.80
687.13	273.48
687.46	273.12
687.80	272.77
688.14	272.38
688.48	272.06
688.81	271.72
689.15	271.43
689.49	271.08
689.82	270.72
690.16	270.31
690.50	269.97
690.83	269.63
691.17	269.29
691.51	268.96
691.84	268.64
692.18	268.29
692.52	267.93
692.85	267.59
693.19	267.30
693.52	266.97
693.86	266.65
694.20	266.32
694.53	266.02
694.87	265.69
695.21	265.37
695.54	265.05
695.88	264.72
696.21	264.36
696.55	264.06
696.88	263.74
697.22	263.44
697.56	263.13
697.89	262.78
698.23	262.48
698.56	262.15
698.90	261.84
699.23	261.51
699.57	261.20
699.90	260.89
700.24	260.55
700.58	260.27
700.91	260.01
701.25	259.83
701.58	259.59
701.92	259.35
702.25	259.08
702.59	258.79
702.92	258.51
703.26	258.23
703.59	257.94
703.93	257.75
704.26	257.48
704.60	257.20
704.93	256.92
705.26	256.63
705.60	256.40
705.93	256.10
706.27	255.88
706.60	255.65
706.94	255.44
707.27	255.14
707.61	254.87
707.94	254.57
708.27	254.18
708.61	253.86
708.94	253.56
709.28	253.31
709.61	253.04
709.94	252.80
710.28	252.57
710.61	252.35
710.95	252.01
711.28	251.85
711.61	251.61
711.95	251.41
712.28	251.17
712.61	250.91
712.95	250.76
713.28	250.59
713.61	250.32
713.95	250.04
714.28	249.83
714.61	249.60
714.95	249.38
715.28	249.16
715.61	248.96
715.95	248.76
716.28	248.55
716.61	248.38
716.95	248.15
717.28	247.95
717.61	247.73
717.94	247.53
718.28	247.23
718.61	247.02
718.94	246.79
719.27	246.59
719.61	246.42
719.94	246.19
720.27	245.91
720.60	245.72
720.94	245.53
721.27	245.35
721.60	245.18
721.93	244.99
722.27	244.85
722.60	244.68
722.93	244.49
723.26	244.31
723.59	244.09
723.93	243.92
724.26	243.75
724.59	243.56
724.92	243.39
725.25	243.27
725.59	243.11
725.92	242.97
726.25	242.81
726.58	242.64
726.91	242.48
727.24	242.34
727.57	242.18
727.91	242.01
728.24	241.88
728.57	241.71
728.90	241.57
729.23	241.38
729.56	241.27
729.89	241.12
730.22	240.95
730.55	240.81
730.89	240.66
731.22	240.50
731.55	240.36
731.88	240.21
732.21	240.04
732.54	239.89
732.87	239.76
733.20	239.63
733.53	239.49
733.86	239.36
734.19	239.21
734.52	239.09
734.85	239.05
735.18	238.88
735.51	238.79
735.84	238.66
736.17	238.57
736.50	238.38
736.83	238.41
737.16	238.30
737.49	238.19
737.82	238.06
738.15	237.96
738.48	237.85
738.81	237.73
739.14	237.60
739.47	237.48
739.80	237.35
740.13	237.24
740.46	237.11
740.79	236.98
741.12	236.87
741.45	236.73
741.78	236.55
742.11	236.47
742.44	236.33
742.77	236.23
743.10	236.10
743.43	235.99
743.75	235.75
744.08	235.84
744.41	235.72
744.74	235.61
745.07	235.48
745.40	235.40
745.73	235.36
746.06	235.27
746.39	235.19
746.71	235.09
747.04	234.98
747.37	234.89
747.70	234.82
748.03	234.74
748.36	234.67
748.68	234.58
749.01	234.45
749.34	234.36
749.67	234.28
750.00	234.21
750.33	234.22
750.65	234.14
750.98	233.87
751.31	233.79
751.64	233.71
751.97	233.70
752.29	233.60
752.62	233.45
752.95	233.37
753.28	233.26
753.60	233.18
753.93	233.13
754.26	233.06
754.59	232.93
754.91	232.84
755.24	232.75
755.57	232.72
755.90	232.64
756.22	232.55
756.55	232.45
756.88	232.35
757.20	232.19
757.53	232.07
757.86	232.00
758.19	231.93
758.51	231.85
758.84	231.72
759.17	231.63
759.49	231.57
759.82	231.56
760.15	231.51
760.47	231.44
760.80	231.34
761.13	231.29
761.45	231.24
761.78	231.18
762.11	231.12
762.43	230.99
762.76	230.93
763.08	230.89
763.41	230.84
763.74	230.79
764.06	230.73
764.39	230.69
764.71	230.63
765.04	230.56
765.37	230.50
765.69	230.45
766.02	230.40
766.34	230.34
766.67	230.24
767.00	230.20
767.32	230.23
767.65	230.26
767.97	230.19
768.30	230.15
768.62	230.11
768.95	230.04
769.27	229.99
769.60	229.96
769.92	229.89
770.25	229.82
770.57	229.76
770.90	229.71
771.22	229.65
771.55	229.61
771.87	229.58
772.20	229.53
772.52	229.60
772.85	229.71
773.17	229.68
773.50	229.63
773.82	229.57
774.15	229.46
774.47	229.34
774.80	229.29
775.12	229.25
775.45	229.21
775.77	229.19
776.09	229.16
776.42	229.13
776.74	229.13
777.07	229.10
777.39	229.08
777.72	229.04
778.04	229.03
778.36	228.99
778.69	228.96
779.01	228.94
779.33	228.80
779.66	228.62
779.98	228.58
780.31	228.56
780.63	228.59
780.95	228.58
781.28	228.55
781.60	228.52
781.92	228.49
782.25	228.47
782.57	228.44
782.89	228.40
783.22	228.37
783.54	228.32
783.86	228.30
784.19	228.27
784.51	228.28
784.83	228.24
785.16	228.22
785.48	228.20
785.80	228.17
786.12	228.16
786.45	228.13
786.77	228.12
787.09	228.09
787.42	228.02
787.74	228.00
788.06	227.98
788.38	227.96
788.71	227.93
789.03	227.91
789.35	227.90
789.67	227.87
789.99	227.86
790.32	227.82
790.64	227.81
790.96	227.91
791.28	227.85
791.61	227.82
791.93	227.81
792.25	227.78
792.57	227.85
792.89	227.81
793.21	227.80
793.54	227.77
793.86	227.74
794.18	227.73
794.50	227.68
794.82	227.66
795.14	227.66
795.47	227.66
795.79	227.65
796.11	227.60
796.43	227.59
796.75	227.57
797.07	227.56
797.39	227.54
797.71	227.42
798.04	227.41
798.36	227.40
798.68	227.38
799.00	227.37
799.32	227.29
799.64	227.30
799.96	227.28
800.28	227.29
800.60	227.28
800.92	227.27
801.24	227.25
801.56	227.25
801.89	227.22
802.21	227.21
802.53	227.18
802.85	227.19
803.17	227.23
803.49	227.20
803.81	227.17
804.13	227.15
804.45	227.12
804.77	227.12
805.09	227.10
805.41	227.08
805.73	227.04
806.05	226.99
806.37	226.97
806.69	226.94
807.01	226.92
807.33	226.91
807.65	226.85
807.97	226.90
808.28	226.87
808.60	226.86
808.92	226.82
809.24	226.89
809.56	226.86
809.88	226.80
810.20	226.79
810.52	226.81
810.84	226.78
811.16	226.76
811.48	226.74
811.80	226.77
812.12	226.76
812.43	226.78
812.75	226.78
813.07	226.76
813.39	226.75
813.71	226.73
814.03	226.71
814.35	226.71
814.67	226.64
814.98	226.62
815.30	226.61
815.62	226.58
815.94	226.49
816.26	226.49
816.58	226.46
816.89	226.47
817.21	226.43
817.53	226.43
817.85	226.43
818.17	226.42
818.48	226.36
818.80	226.37
819.12	226.34
819.44	226.31
819.76	226.29
820.07	226.28
820.39	226.27
820.71	226.27
821.03	226.27
821.34	226.25
821.66	226.27
821.98	226.27
822.30	226.26
822.61	226.33
822.93	226.31
823.25	226.30
823.57	226.28
823.88	226.28
824.20	226.27
824.52	226.29
824.83	226.27
825.15	226.26
825.47	226.24
825.79	226.24
826.10	226.23
826.42	226.23
826.74	226.23
827.05	226.22
827.37	226.21
827.69	226.20
828.00	226.20
828.32	226.19
828.64	226.17
828.95	226.23
829.27	226.19
829.58	226.19
829.90	226.21
830.22	226.21
830.53	226.18
830.85	226.17
831.17	226.13
831.48	226.12
831.80	226.13
832.11	226.11
832.43	226.09
832.75	226.09
833.06	226.16
833.38	226.12
833.69	226.12
834.01	226.12
834.32	226.11
834.64	226.09
834.96	226.08
835.27	226.08
835.59	226.03
835.90	226.01
836.22	226.00
836.53	225.96
836.85	225.94
837.16	226.07
837.48	226.07
837.79	226.11
838.11	226.10
838.42	226.10
838.74	226.11
839.05	226.10
839.37	226.09
839.68	226.00
840.00	226.00
840.31	226.01
840.63	226.00
840.94	225.98
841.26	225.97
841.57	225.96
841.88	225.97
842.20	225.95
842.51	225.92
842.83	225.92
843.14	226.03
843.46	226.03
843.77	225.95
844.08	225.95
844.40	225.90
844.71	225.89
845.03	225.87
845.34	225.86
845.65	225.85
845.97	225.85
846.28	225.86
846.60	225.86
846.91	225.84
847.22	225.83
847.54	225.86
847.85	225.87
848.16	225.85
848.48	225.82
848.79	225.87
849.10	225.89
849.42	225.89
849.73	225.78
850.04	225.77
850.36	225.72
850.67	225.74
850.98	225.74
851.30	225.75
851.61	225.75
851.92	225.75
852.23	225.78
852.55	225.78
852.86	225.79
853.17	225.79
853.49	225.82
853.80	225.84
854.11	225.84
854.42	225.86
854.74	225.84
855.05	225.85
855.36	225.78
855.67	225.78
855.99	225.78
856.30	225.93
856.61	225.92
856.92	225.92
857.23	225.92
857.55	225.91
857.86	225.90
858.17	225.92
858.48	225.89
858.79	225.86
859.11	225.88
859.42	225.87
859.73	225.85
860.04	225.84
860.35	225.80
860.66	225.76
860.98	225.75
861.29	225.77
861.60	225.75
861.91	225.79
862.22	225.76
862.53	225.74
862.84	225.59
863.16	225.61
863.47	225.60
863.78	225.58
864.09	225.59
864.40	225.60
864.71	225.59
865.02	225.61
865.33	225.59
865.64	225.57
865.95	225.57
866.27	225.64
866.58	225.63
866.89	225.65
867.20	225.65
867.51	225.63
867.82	225.62
868.13	225.66
868.44	225.63
868.75	225.65
869.06	225.66
869.37	225.68
869.68	225.65
869.99	225.67
870.30	225.68
870.61	225.69
870.92	225.67
871.23	225.65
871.54	225.67
871.85	225.69
872.16	225.71
872.47	225.70
872.78	225.63
873.09	225.64
873.40	225.63
873.71	225.64
874.02	225.64
874.33	225.63
874.64	225.60
874.95	225.62
875.26	225.59
875.56	225.59
875.87	225.58
876.18	225.57
876.49	225.69
876.80	225.68
877.11	225.66
877.42	225.67
877.73	225.67
878.04	225.65
878.35	225.65
878.66	225.65
878.96	225.65
879.27	225.64
879.58	225.63
879.89	225.63
880.20	225.66
880.51	225.65
880.82	225.66
881.12	225.67
881.43	225.64
881.74	225.63
882.05	225.62
882.36	225.63
882.67	225.64
882.97	225.50
883.28	225.49
883.59	225.48
883.90	225.49
884.21	225.51
884.51	225.50
884.82	225.48
885.13	225.48
885.44	225.48
885.74	225.48
886.05	225.47
886.36	225.48
886.67	225.43
886.98	225.49
887.28	225.50
887.59	225.50
887.90	225.50
888.20	225.50
888.51	225.52
888.82	225.50
889.13	225.50
889.43	225.62
889.74	225.61
890.05	225.61
890.35	225.60
890.66	225.57
890.97	225.56
891.28	225.55
891.58	225.55
891.89	225.54
892.20	225.53
892.50	225.52
892.81	225.51
893.12	225.51
893.42	225.45
893.73	225.45
894.04	225.44
894.34	225.45
894.65	225.45
894.95	225.43
895.26	225.44
895.57	225.49
895.87	225.36
896.18	225.38
896.48	225.39
896.79	225.39
897.10	225.41
897.40	225.41
897.71	225.43
898.01	225.41
898.32	225.43
898.63	225.43
898.93	225.43
899.24	225.43
899.54	225.43
899.85	225.42
900.15	225.41
900.46	225.41
900.76	225.42
901.07	225.42
901.38	225.42
901.68	225.43
901.99	225.36
902.29	225.37
902.60	225.36
902.90	225.34
903.21	225.34
903.51	225.33
903.82	225.35
904.12	225.35
904.43	225.36
904.73	225.35
905.03	225.36
905.34	225.49
905.64	225.48
905.95	225.48
906.25	225.48
906.56	225.48
906.86	225.48
907.17	225.47
907.47	225.47
907.77	225.46
908.08	225.43
908.38	225.44
908.69	225.44
908.99	225.46
909.30	225.47
909.60	225.47
909.90	225.48
910.21	225.44
910.51	225.42
910.81	225.42
911.12	225.42
911.42	225.42
911.73	225.28
912.03	225.29
912.33	225.32
912.64	225.31
912.94	225.29
913.24	225.27
913.55	225.26
913.85	225.25
914.15	225.29
914.46	225.30
914.76	225.29
915.06	225.28
915.37	225.26
915.67	225.25
915.97	225.25
916.27	225.22
916.58	225.24
916.88	225.23
917.18	225.22
917.49	225.31
917.79	225.30
918.09	225.33
918.39	225.36
918.70	225.35
919.00	225.36
919.30	225.42
919.60	225.42
919.91	225.40
920.21	225.41
920.51	225.38
920.81	225.37
921.12	225.40
921.42	225.39
921.72	225.40
922.02	225.41
922.32	225.42
922.63	225.42
922.93	225.49
923.23	225.50
923.53	225.49
923.83	225.41
924.13	225.42
924.44	225.42
924.74	225.43
925.04	225.46
925.34	225.45
925.64	225.40
925.94	225.40
926.24	225.48
926.55	225.47
926.85	225.48
927.15	225.48
927.45	225.47
927.75	225.47
928.05	225.47
928.35	225.46
928.65	225.48
928.95	225.49
929.26	225.43
929.56	225.45
929.86	225.46
930.16	225.45
930.46	225.44
930.76	225.44
931.06	225.38
931.36	225.34
931.66	225.36
931.96	225.37
932.26	225.38
932.56	225.32
932.86	225.33
933.16	225.33
933.46	225.32
933.76	225.30
934.06	225.32
934.36	225.36
934.66	225.36
934.96	225.34
935.26	225.34
935.56	225.36
935.86	225.33
936.16	225.31
936.46	225.30
936.76	225.30
937.06	225.28
937.36	225.29
937.66	225.29
937.96	225.28
938.26	225.25
938.56	225.24
938.86	225.25
939.16	225.27
939.46	225.28
939.76	225.29
940.06	225.28
940.35	225.26
940.65	225.20
940.95	225.21
941.25	225.18
941.55	225.17
941.85	225.15
942.15	225.19
942.45	225.22
942.75	225.22
943.04	225.22
943.34	225.25
943.64	225.24
943.94	225.22
944.24	225.22
944.54	225.24
944.84	225.23
945.13	225.22
945.43	225.19
945.73	225.19
946.03	225.18
946.33	225.17
946.62	225.16
946.92	225.15
947.22	225.16
947.52	225.17
947.82	225.18
948.11	225.17
948.41	225.14
948.71	225.10
949.01	225.11
949.31	225.10
949.60	225.09
949.90	225.11
950.20	225.11
950.50	225.10
950.79	225.09
951.09	225.11
951.39	225.11
951.69	225.10
951.98	225.13
952.28	225.14
952.58	225.13
952.87	225.14
953.17	225.16
953.47	225.14
953.76	225.14
954.06	225.11
954.36	225.10
954.66	225.10
954.95	225.14
955.25	225.14
955.55	225.15
955.84	225.13
956.14	225.14
956.44	225.15
956.73	225.13
957.03	225.14
957.32	225.14
957.62	225.13
957.92	225.16
958.21	225.15
958.51	225.29
958.81	225.30
959.10	225.32
959.40	225.34
959.69	225.35
959.99	225.37
960.29	225.37
960.58	225.37
960.88	225.42
961.17	225.40
961.47	225.41
961.76	225.40
962.06	225.43
962.36	225.41
962.65	225.42
962.95	225.43
963.24	225.41
963.54	225.41
963.83	225.42
964.13	225.42
964.42	225.40
964.72	225.29
965.01	225.29
965.31	225.29
965.60	225.25
965.90	225.33
966.19	225.30
966.49	225.31
966.78	225.31
967.08	225.30
967.37	225.30
967.67	225.27
967.96	225.30
968.26	225.29
968.55	225.31
968.85	225.30
969.14	225.30
969.43	225.30
969.73	225.29
970.02	225.28
970.32	225.27
970.61	225.25
970.91	225.22
971.20	225.20
971.49	225.19
971.79	225.21
972.08	225.12
972.38	225.14
972.67	225.12
972.96	225.15
973.26	225.12
973.55	225.16
973.85	225.15
974.14	225.14
974.43	225.14
974.73	225.12
975.02	225.11
975.31	225.11
975.61	225.10
975.90	225.09
976.19	225.08
976.49	225.09
976.78	225.11
977.07	225.10
977.37	225.11
977.66	225.12
977.95	225.11
978.24	225.12
978.54	225.15
978.83	225.14
979.12	225.12
979.42	225.12
979.71	225.10
980.00	225.10
980.29	225.10
980.59	225.08
980.88	225.11
981.17	225.11
981.46	225.11
981.76	225.11
982.05	225.15
982.34	225.16
982.63	225.16
982.93	225.16
983.22	225.19
983.51	225.19
983.80	225.21
984.09	225.23
984.39	225.21
984.68	225.19
984.97	225.20
985.26	225.19
985.55	225.20
985.85	225.18
986.14	225.20
986.43	225.22
986.72	225.21
987.01	225.17
987.30	225.17
987.59	225.16
987.89	225.17
988.18	225.13
988.47	225.12
988.76	225.11
989.05	225.10
989.34	225.08
989.63	225.11
989.92	225.09
990.22	225.07
990.51	225.07
990.80	225.05
991.09	225.07
991.38	225.08
991.67	225.06
991.96	225.05
992.25	225.05
992.54	225.03
992.83	225.03
993.12	225.03
993.41	225.05
993.70	225.10
993.99	225.12
994.28	225.14
994.58	225.16
994.87	225.15
995.16	225.15
995.45	225.14
995.74	225.09
996.03	225.11
996.32	225.13
996.61	225.16
996.90	225.16
997.19	225.15
997.48	225.15
997.77	225.14
998.06	225.15
998.34	225.13
998.63	225.14
998.92	225.14
999.21	225.16
999.50	225.16
999.79	225.12
1000.08	225.11
1000.37	225.11
1000.66	225.09
1000.95	225.13
1001.24	225.14
1001.53	225.16
1001.82	225.16
1002.11	225.13
1002.40	225.14
1002.68	225.16
1002.97	225.25
1003.26	225.24
1003.55	225.22
1003.84	225.24
1004.13	225.28
1004.42	225.28
1004.71	225.28
1004.99	225.27
1005.28	225.29
1005.57	225.28
1005.86	225.27
1006.15	225.26
1006.44	225.24
1006.72	225.25
1007.01	225.23
1007.30	225.23
1007.59	225.21
1007.88	225.21
1008.17	225.22
1008.45	225.19
1008.74	225.14
1009.03	225.08
1009.32	225.08
1009.60	225.08
1009.89	225.07
1010.18	225.02
1010.47	225.01
1010.76	225.02
1011.04	225.02
1011.33	225.01
1011.62	225.02
1011.91	225.03
1012.19	225.03
1012.48	225.04
1012.77	225.04
1013.05	225.08
1013.34	225.08
1013.63	225.07
1013.92	225.08
1014.20	225.08
1014.49	225.09
1014.78	225.10
1015.06	225.06
1015.35	225.06
1015.64	225.08
1015.92	225.10
1016.21	225.11
1016.50	225.11
1016.78	225.12
1017.07	225.13
1017.36	225.11
1017.64	225.09
1017.93	225.10
1018.22	225.09
1018.50	225.08
1018.79	225.08
1019.08	225.03
1019.36	225.04
1019.65	225.03
1019.93	225.06
1020.22	225.08
1020.51	225.14
1020.79	225.12
1021.08	224.94
1021.36	224.87
1021.65	225.08
1021.94	224.97
1022.22	225.16
1022.51	224.83
1022.79	225.63
1023.08	225.27
1023.36	226.58
1023.65	224.72
>>>>>End Processed Spectral Data<<<<<
