SpectraSuite Data File
++++++++++++++++++++++++++++++++++++
Date: Sat Oct 03 01:49:56 EDT 2015
User: lab3
Dark Spectrum Present: No
Reference Spectrum Present: No
Number of Sampled Component Spectra: 1
Spectrometers: USB2E7196
Integration Time (usec): 46000 (USB2E7196)
Spectra Averaged: 12000 (USB2E7196)
Boxcar Smoothing: 10 (USB2E7196)
Correct for Electrical Dark: No (USB2E7196)
Strobe/Lamp Enabled: No (USB2E7196)
Correct for Detector Non-linearity: No (USB2E7196)
Correct for Stray Light: No (USB2E7196)
Number of Pixels in Processed Spectrum: 2048
>>>>>Begin Processed Spectral Data<<<<<
339.09	0.00
339.48	213.94
339.86	215.39
340.24	216.77
340.63	218.20
341.01	221.44
341.39	220.92
341.78	222.17
342.16	223.43
342.54	223.92
342.93	212.36
343.31	223.09
343.69	223.62
344.07	224.09
344.46	224.52
344.84	224.90
345.22	225.13
345.60	225.38
345.99	225.58
346.37	225.72
346.75	225.83
347.13	225.91
347.52	225.97
347.90	226.07
348.28	226.10
348.66	226.16
349.05	226.16
349.43	226.21
349.81	226.27
350.19	226.33
350.57	226.40
350.96	226.48
351.34	226.58
351.72	226.67
352.10	226.78
352.48	226.85
352.87	226.91
353.25	226.97
353.63	227.03
354.01	227.09
354.39	227.17
354.77	227.25
355.15	227.35
355.54	227.41
355.92	227.43
356.30	227.51
356.68	227.66
357.06	227.74
357.44	227.79
357.82	227.84
358.20	227.96
358.58	228.01
358.97	228.08
359.35	228.17
359.73	228.25
360.11	228.30
360.49	228.36
360.87	228.41
361.25	228.48
361.63	228.57
362.01	228.62
362.39	228.65
362.77	228.70
363.15	228.72
363.53	228.76
363.91	228.80
364.29	228.82
364.67	228.72
365.05	228.75
365.43	228.78
365.81	228.82
366.19	228.83
366.57	228.89
366.95	228.89
367.33	228.86
367.71	228.85
368.09	228.88
368.47	228.87
368.85	228.86
369.23	228.87
369.61	228.81
369.99	228.83
370.37	228.82
370.75	228.90
371.13	228.87
371.51	228.82
371.89	228.80
372.27	228.78
372.65	228.76
373.03	228.72
373.41	228.68
373.78	228.62
374.16	228.52
374.54	228.44
374.92	228.39
375.30	228.35
375.68	228.28
376.06	228.23
376.44	228.17
376.82	228.13
377.19	228.08
377.57	228.03
377.95	227.94
378.33	227.88
378.71	227.71
379.09	227.67
379.47	227.64
379.84	227.58
380.22	227.51
380.60	227.44
380.98	227.39
381.36	227.34
381.73	227.27
382.11	227.25
382.49	227.21
382.87	227.15
383.25	227.10
383.62	227.21
384.00	227.14
384.38	227.10
384.76	227.08
385.13	227.08
385.51	227.04
385.89	226.98
386.27	226.95
386.64	226.93
387.02	226.88
387.40	226.84
387.78	226.81
388.15	226.79
388.53	226.77
388.91	226.74
389.29	226.70
389.66	226.70
390.04	226.66
390.42	226.66
390.79	226.65
391.17	226.63
391.55	226.47
391.92	226.46
392.30	226.46
392.68	226.43
393.05	226.40
393.43	226.40
393.81	226.41
394.18	226.39
394.56	226.39
394.94	226.42
395.31	226.42
395.69	226.46
396.06	226.49
396.44	226.51
396.82	226.53
397.19	226.61
397.57	226.63
397.95	226.67
398.32	226.67
398.70	226.71
399.07	226.78
399.45	226.82
399.82	226.86
400.20	226.90
400.58	226.96
400.95	226.97
401.33	227.06
401.70	227.21
402.08	227.31
402.45	227.40
402.83	227.52
403.20	227.63
403.58	227.72
403.95	227.85
404.33	228.00
404.71	228.15
405.08	228.36
405.46	228.52
405.83	228.70
406.21	228.89
406.58	229.12
406.96	229.33
407.33	229.58
407.70	229.86
408.08	230.24
408.45	230.57
408.83	230.93
409.20	231.26
409.58	231.54
409.95	231.95
410.33	232.39
410.70	232.80
411.08	233.29
411.45	233.80
411.82	234.32
412.20	234.91
412.57	235.62
412.95	236.17
413.32	236.90
413.69	237.64
414.07	238.43
414.44	239.28
414.82	240.16
415.19	241.19
415.56	242.23
415.94	243.29
416.31	244.50
416.68	245.71
417.06	247.11
417.43	248.43
417.81	249.93
418.18	251.47
418.55	253.15
418.93	254.89
419.30	256.71
419.67	258.65
420.04	260.63
420.42	262.69
420.79	265.09
421.16	267.50
421.54	269.96
421.91	272.52
422.28	275.18
422.66	278.04
423.03	280.78
423.40	283.65
423.77	286.72
424.15	289.86
424.52	293.15
424.89	296.69
425.26	300.22
425.64	303.51
426.01	307.20
426.38	310.97
426.75	314.85
427.13	318.84
427.50	323.01
427.87	327.36
428.24	331.74
428.61	335.95
428.99	340.50
429.36	345.49
429.73	350.26
430.10	355.05
430.47	359.94
430.85	364.96
431.22	370.37
431.59	375.92
431.96	381.33
432.33	387.35
432.70	393.08
433.08	399.84
433.45	406.23
433.82	412.54
434.19	419.58
434.56	426.52
434.93	433.22
435.30	439.85
435.68	447.34
436.05	454.68
436.42	461.99
436.79	468.66
437.16	475.86
437.53	483.56
437.90	491.26
438.27	498.80
438.64	506.96
439.01	514.34
439.38	521.09
439.75	527.60
440.13	534.93
440.50	541.90
440.87	547.42
441.24	553.47
441.61	560.07
441.98	564.87
442.35	570.56
442.72	576.38
443.09	581.91
443.46	585.39
443.83	587.92
444.20	590.01
444.57	593.16
444.94	594.91
445.31	596.74
445.68	598.27
446.05	599.37
446.42	598.90
446.79	598.25
447.16	597.67
447.53	597.11
447.90	594.65
448.27	592.28
448.64	588.77
449.01	586.28
449.37	581.45
449.74	577.07
450.11	571.46
450.48	565.34
450.85	559.21
451.22	553.98
451.59	548.86
451.96	544.24
452.33	537.56
452.70	531.63
453.07	524.41
453.43	517.21
453.80	510.23
454.17	503.55
454.54	497.40
454.91	490.46
455.28	483.98
455.65	477.87
456.02	471.43
456.38	466.24
456.75	459.56
457.12	454.19
457.49	448.77
457.86	443.67
458.23	439.22
458.59	434.28
458.96	429.22
459.33	424.77
459.70	420.24
460.07	416.81
460.43	412.76
460.80	408.99
461.17	405.73
461.54	402.18
461.91	398.87
462.27	395.49
462.64	392.79
463.01	389.65
463.38	386.49
463.74	383.63
464.11	381.12
464.48	378.87
464.85	376.41
465.21	374.56
465.58	372.49
465.95	370.09
466.32	368.20
466.68	366.34
467.05	364.47
467.42	362.65
467.78	360.67
468.15	358.85
468.52	357.53
468.88	355.74
469.25	354.10
469.62	352.81
469.98	351.39
470.35	350.13
470.72	348.98
471.08	347.82
471.45	346.84
471.82	345.75
472.18	344.59
472.55	343.85
472.92	342.90
473.28	342.15
473.65	341.36
474.02	340.59
474.38	339.95
474.75	339.57
475.11	339.05
475.48	338.80
475.85	338.53
476.21	338.38
476.58	338.28
476.94	338.40
477.31	338.45
477.67	338.53
478.04	338.72
478.41	339.00
478.77	339.41
479.14	339.67
479.50	340.16
479.87	340.81
480.23	341.45
480.60	342.09
480.96	342.74
481.33	343.71
481.69	344.67
482.06	345.62
482.42	346.50
482.79	347.58
483.15	348.84
483.52	350.27
483.88	351.65
484.25	353.13
484.61	354.65
484.98	356.32
485.34	358.19
485.71	360.15
486.07	362.24
486.44	364.32
486.80	366.64
487.17	369.07
487.53	371.71
487.90	374.48
488.26	377.50
488.62	380.67
488.99	383.86
489.35	387.20
489.72	390.83
490.08	394.66
490.44	398.62
490.81	402.73
491.17	406.94
491.54	411.48
491.90	416.16
492.26	421.17
492.63	426.40
492.99	431.87
493.36	437.54
493.72	443.50
494.08	449.61
494.45	456.11
494.81	462.84
495.17	469.76
495.54	477.07
495.90	484.68
496.26	492.46
496.63	500.48
496.99	508.82
497.35	517.54
497.72	526.56
498.08	535.77
498.44	545.30
498.80	555.41
499.17	565.75
499.53	576.42
499.89	587.47
500.26	598.74
500.62	610.30
500.98	622.50
501.34	634.87
501.71	647.76
502.07	660.82
502.43	674.42
502.79	688.25
503.16	702.55
503.52	717.04
503.88	731.96
504.24	747.34
504.60	762.91
504.97	778.97
505.33	795.44
505.69	812.81
506.05	830.53
506.41	848.19
506.78	866.04
507.14	884.39
507.50	903.19
507.86	922.35
508.22	941.74
508.59	960.96
508.95	980.98
509.31	1001.72
509.67	1023.17
510.03	1044.64
510.39	1066.15
510.75	1087.86
511.12	1109.83
511.48	1132.01
511.84	1154.24
512.20	1176.85
512.56	1200.35
512.92	1223.86
513.28	1247.03
513.64	1270.43
514.00	1294.28
514.37	1318.46
514.73	1342.62
515.09	1366.67
515.45	1391.04
515.81	1415.59
516.17	1440.30
516.53	1464.56
516.89	1488.71
517.25	1513.02
517.61	1537.24
517.97	1561.94
518.33	1586.15
518.69	1610.28
519.05	1634.87
519.41	1659.74
519.77	1684.89
520.13	1709.26
520.49	1733.57
520.85	1758.20
521.21	1782.47
521.57	1807.09
521.93	1831.23
522.29	1855.90
522.65	1880.01
523.01	1904.10
523.37	1927.81
523.73	1952.19
524.09	1976.35
524.45	2000.31
524.81	2023.87
525.17	2047.29
525.53	2070.16
525.89	2093.45
526.25	2116.76
526.61	2139.07
526.97	2161.53
527.33	2183.87
527.68	2206.00
528.04	2227.36
528.40	2247.82
528.76	2268.44
529.12	2288.64
529.48	2308.56
529.84	2326.65
530.20	2345.38
530.56	2363.50
530.91	2381.78
531.27	2399.74
531.63	2416.82
531.99	2433.40
532.35	2449.40
532.71	2465.54
533.07	2482.32
533.42	2497.32
533.78	2513.26
534.14	2529.42
534.50	2544.66
534.86	2559.67
535.21	2572.80
535.57	2586.38
535.93	2599.73
536.29	2612.03
536.65	2624.11
537.00	2635.45
537.36	2647.76
537.72	2658.66
538.08	2669.07
538.44	2678.80
538.79	2688.14
539.15	2696.66
539.51	2704.90
539.87	2712.49
540.22	2718.03
540.58	2723.63
540.94	2730.41
541.29	2735.69
541.65	2739.22
542.01	2741.94
542.37	2744.01
542.72	2747.41
543.08	2749.14
543.44	2751.47
543.79	2752.70
544.15	2753.10
544.51	2753.95
544.87	2753.62
545.22	2752.64
545.58	2750.95
545.94	2749.25
546.29	2746.25
546.65	2743.24
547.01	2740.09
547.36	2737.65
547.72	2735.43
548.07	2731.43
548.43	2726.02
548.79	2719.62
549.14	2714.44
549.50	2709.64
549.86	2703.91
550.21	2697.01
550.57	2691.06
550.92	2682.83
551.28	2675.15
551.64	2667.81
551.99	2659.99
552.35	2651.55
552.70	2643.33
553.06	2635.46
553.41	2626.97
553.77	2618.22
554.13	2609.44
554.48	2599.87
554.84	2589.01
555.19	2578.58
555.55	2568.23
555.90	2557.91
556.26	2548.15
556.61	2537.35
556.97	2524.88
557.32	2512.93
557.68	2500.94
558.03	2488.65
558.39	2477.55
558.74	2466.75
559.10	2454.20
559.45	2441.86
559.81	2430.17
560.16	2417.85
560.52	2405.75
560.87	2393.99
561.23	2381.45
561.58	2368.96
561.94	2356.15
562.29	2342.81
562.64	2330.17
563.00	2317.20
563.35	2304.67
563.71	2291.95
564.06	2279.10
564.42	2266.98
564.77	2254.24
565.12	2241.39
565.48	2228.54
565.83	2215.64
566.19	2202.87
566.54	2190.10
566.89	2176.17
567.25	2162.34
567.60	2149.88
567.96	2136.52
568.31	2121.82
568.66	2107.79
569.02	2094.98
569.37	2082.07
569.72	2069.67
570.08	2056.01
570.43	2042.04
570.78	2027.91
571.14	2013.03
571.49	1998.77
571.84	1985.06
572.20	1970.16
572.55	1955.49
572.90	1940.76
573.26	1926.02
573.61	1910.79
573.96	1896.00
574.31	1881.41
574.67	1866.94
575.02	1851.38
575.37	1835.92
575.72	1821.28
576.08	1807.03
576.43	1791.59
576.78	1776.56
577.13	1761.81
577.49	1747.40
577.84	1733.61
578.19	1718.87
578.54	1704.32
578.90	1689.29
579.25	1674.13
579.60	1660.54
579.95	1646.87
580.30	1633.00
580.66	1618.91
581.01	1604.68
581.36	1590.38
581.71	1577.14
582.06	1563.80
582.42	1550.69
582.77	1537.65
583.12	1524.56
583.47	1511.30
583.82	1498.19
584.17	1484.74
584.53	1470.96
584.88	1457.55
585.23	1443.68
585.58	1430.61
585.93	1417.77
586.28	1405.70
586.63	1393.62
586.98	1381.09
587.34	1368.59
587.69	1355.76
588.04	1343.28
588.39	1331.19
588.74	1319.29
589.09	1307.13
589.44	1294.54
589.79	1282.58
590.14	1270.74
590.49	1258.83
590.84	1247.10
591.19	1235.73
591.54	1224.16
591.89	1212.76
592.25	1201.52
592.60	1189.94
592.95	1178.77
593.30	1167.81
593.65	1156.51
594.00	1145.36
594.35	1134.74
594.70	1123.71
595.05	1113.58
595.40	1103.35
595.75	1092.97
596.10	1083.11
596.45	1072.98
596.80	1063.21
597.15	1053.16
597.50	1043.25
597.85	1033.79
598.19	1024.13
598.54	1014.51
598.89	1005.36
599.24	996.52
599.59	987.48
599.94	979.39
600.29	971.07
600.64	962.48
600.99	953.54
601.34	944.94
601.69	936.03
602.04	927.79
602.39	919.37
602.74	911.00
603.08	902.60
603.43	894.14
603.78	885.87
604.13	877.76
604.48	869.67
604.83	861.75
605.18	853.71
605.53	845.85
605.87	837.82
606.22	830.09
606.57	822.30
606.92	814.44
607.27	806.48
607.62	798.85
607.96	791.63
608.31	784.86
608.66	777.87
609.01	771.16
609.36	764.55
609.70	757.73
610.05	750.88
610.40	744.31
610.75	737.73
611.10	731.50
611.44	725.07
611.79	718.76
612.14	712.38
612.49	706.09
612.83	700.10
613.18	694.24
613.53	688.27
613.88	682.34
614.22	676.81
614.57	671.24
614.92	665.50
615.27	659.88
615.61	654.30
615.96	648.79
616.31	643.28
616.65	637.83
617.00	632.60
617.35	627.48
617.70	622.40
618.04	617.37
618.39	612.27
618.74	607.43
619.08	602.63
619.43	597.96
619.78	593.29
620.12	588.56
620.47	584.01
620.82	579.58
621.16	575.18
621.51	570.65
621.85	566.17
622.20	561.85
622.55	557.55
622.89	553.36
623.24	549.15
623.59	544.99
623.93	540.99
624.28	537.07
624.62	533.24
624.97	529.46
625.32	525.65
625.66	521.79
626.01	517.89
626.35	514.07
626.70	510.29
627.04	506.72
627.39	503.07
627.73	499.59
628.08	496.18
628.43	492.77
628.77	489.45
629.12	486.25
629.46	483.07
629.81	479.80
630.15	476.52
630.50	473.35
630.84	470.22
631.19	467.17
631.53	464.21
631.88	461.23
632.22	458.26
632.57	455.59
632.91	452.96
633.26	450.41
633.60	447.88
633.95	445.40
634.29	442.82
634.64	440.34
634.98	437.67
635.32	435.13
635.67	432.80
636.01	430.38
636.36	428.01
636.70	425.78
637.05	423.55
637.39	421.36
637.73	419.19
638.08	417.15
638.42	415.07
638.77	412.85
639.11	410.57
639.45	408.39
639.80	406.14
640.14	403.99
640.49	401.84
640.83	399.66
641.17	397.58
641.52	395.54
641.86	393.52
642.20	391.71
642.55	389.75
642.89	387.80
643.23	385.96
643.58	384.27
643.92	382.46
644.26	380.72
644.61	379.03
644.95	377.30
645.29	375.49
645.64	373.71
645.98	372.02
646.32	370.46
646.66	368.87
647.01	367.30
647.35	365.77
647.69	364.22
648.04	362.82
648.38	361.34
648.72	359.88
649.06	358.42
649.41	356.98
649.75	355.59
650.09	354.22
650.43	352.85
650.78	351.42
651.12	350.05
651.46	348.71
651.80	347.39
652.14	346.12
652.49	344.90
652.83	343.65
653.17	342.45
653.51	341.28
653.85	340.16
654.20	339.01
654.54	337.78
654.88	336.64
655.22	335.52
655.56	334.39
655.90	333.32
656.25	332.28
656.59	331.23
656.93	330.23
657.27	329.25
657.61	328.21
657.95	327.21
658.29	326.21
658.64	325.26
658.98	324.31
659.32	323.38
659.66	322.49
660.00	321.63
660.34	320.77
660.68	319.87
661.02	318.95
661.36	318.06
661.70	317.20
662.05	316.37
662.39	315.54
662.73	314.80
663.07	314.07
663.41	313.28
663.75	312.50
664.09	311.72
664.43	310.91
664.77	310.17
665.11	309.40
665.45	308.70
665.79	308.00
666.13	307.27
666.47	306.53
666.81	305.77
667.15	304.98
667.49	304.30
667.83	303.68
668.17	303.02
668.51	302.41
668.85	301.84
669.19	301.29
669.53	300.65
669.87	299.99
670.21	299.35
670.55	298.76
670.89	298.24
671.23	297.67
671.57	297.11
671.91	296.61
672.25	296.12
672.58	295.63
672.92	295.06
673.26	294.58
673.60	294.10
673.94	293.63
674.28	293.20
674.62	292.72
674.96	292.20
675.30	291.74
675.64	291.24
675.97	290.73
676.31	290.18
676.65	289.70
676.99	289.28
677.33	288.78
677.67	288.32
678.01	287.79
678.34	287.34
678.68	286.91
679.02	286.42
679.36	285.95
679.70	285.48
680.04	285.04
680.37	284.60
680.71	284.18
681.05	283.77
681.39	283.32
681.73	282.85
682.06	282.40
682.40	281.96
682.74	281.59
683.08	281.25
683.42	280.85
683.75	280.49
684.09	280.04
684.43	279.66
684.77	279.27
685.10	278.93
685.44	278.56
685.78	278.18
686.12	277.84
686.45	277.46
686.79	277.07
687.13	276.72
687.46	276.32
687.80	275.96
688.14	275.54
688.48	275.19
688.81	274.83
689.15	274.50
689.49	274.13
689.82	273.75
690.16	273.30
690.50	272.95
690.83	272.58
691.17	272.22
691.51	271.86
691.84	271.52
692.18	271.14
692.52	270.75
692.85	270.39
693.19	270.07
693.52	269.71
693.86	269.37
694.20	269.02
694.53	268.69
694.87	268.33
695.21	267.98
695.54	267.64
695.88	267.28
696.21	266.90
696.55	266.57
696.88	266.24
697.22	265.91
697.56	265.57
697.89	265.19
698.23	264.87
698.56	264.51
698.90	264.18
699.23	263.83
699.57	263.50
699.90	263.16
700.24	262.79
700.58	262.49
700.91	262.21
701.25	262.01
701.58	261.75
701.92	261.48
702.25	261.19
702.59	260.88
702.92	260.58
703.26	260.28
703.59	259.97
703.93	259.76
704.26	259.48
704.60	259.18
704.93	258.88
705.26	258.57
705.60	258.33
705.93	258.00
706.27	257.76
706.60	257.52
706.94	257.28
707.27	256.97
707.61	256.67
707.94	256.36
708.27	255.95
708.61	255.61
708.94	255.31
709.28	255.03
709.61	254.75
709.94	254.49
710.28	254.25
710.61	254.02
710.95	253.66
711.28	253.48
711.61	253.23
711.95	253.02
712.28	252.77
712.61	252.49
712.95	252.33
713.28	252.14
713.61	251.86
713.95	251.58
714.28	251.36
714.61	251.12
714.95	250.88
715.28	250.65
715.61	250.43
715.95	250.23
716.28	250.01
716.61	249.83
716.95	249.60
717.28	249.37
717.61	249.14
717.94	248.93
718.28	248.62
718.61	248.40
718.94	248.15
719.27	247.95
719.61	247.76
719.94	247.52
720.27	247.23
720.60	247.03
720.94	246.83
721.27	246.64
721.60	246.47
721.93	246.27
722.27	246.12
722.60	245.94
722.93	245.73
723.26	245.53
723.59	245.30
723.93	245.12
724.26	244.95
724.59	244.75
724.92	244.58
725.25	244.46
725.59	244.29
725.92	244.15
726.25	243.98
726.58	243.80
726.91	243.62
727.24	243.48
727.57	243.31
727.91	243.13
728.24	242.99
728.57	242.81
728.90	242.67
729.23	242.47
729.56	242.36
729.89	242.20
730.22	242.03
730.55	241.88
730.89	241.73
731.22	241.57
731.55	241.42
731.88	241.27
732.21	241.09
732.54	240.94
732.87	240.78
733.20	240.65
733.53	240.51
733.86	240.38
734.19	240.22
734.52	240.10
734.85	240.05
735.18	239.88
735.51	239.78
735.84	239.65
736.17	239.55
736.50	239.36
736.83	239.38
737.16	239.26
737.49	239.15
737.82	239.02
738.15	238.92
738.48	238.80
738.81	238.67
739.14	238.54
739.47	238.41
739.80	238.28
740.13	238.16
740.46	238.02
740.79	237.89
741.12	237.77
741.45	237.62
741.78	237.43
742.11	237.35
742.44	237.21
742.77	237.11
743.10	236.97
743.43	236.86
743.75	236.61
744.08	236.70
744.41	236.58
744.74	236.47
745.07	236.33
745.40	236.24
745.73	236.20
746.06	236.10
746.39	236.02
746.71	235.91
747.04	235.80
747.37	235.71
747.70	235.64
748.03	235.55
748.36	235.48
748.68	235.38
749.01	235.25
749.34	235.17
749.67	235.08
750.00	235.00
750.33	235.01
750.65	234.93
750.98	234.64
751.31	234.56
751.64	234.48
751.97	234.46
752.29	234.36
752.62	234.21
752.95	234.12
753.28	234.01
753.60	233.93
753.93	233.87
754.26	233.80
754.59	233.67
754.91	233.57
755.24	233.47
755.57	233.45
755.90	233.37
756.22	233.27
756.55	233.17
756.88	233.06
757.20	232.90
757.53	232.78
757.86	232.71
758.19	232.64
758.51	232.56
758.84	232.42
759.17	232.33
759.49	232.27
759.82	232.26
760.15	232.21
760.47	232.13
760.80	232.03
761.13	231.98
761.45	231.92
761.78	231.86
762.11	231.80
762.43	231.67
762.76	231.61
763.08	231.56
763.41	231.50
763.74	231.45
764.06	231.39
764.39	231.34
764.71	231.29
765.04	231.22
765.37	231.15
765.69	231.10
766.02	231.04
766.34	230.98
766.67	230.87
767.00	230.84
767.32	230.86
767.65	230.88
767.97	230.82
768.30	230.78
768.62	230.73
768.95	230.66
769.27	230.61
769.60	230.58
769.92	230.51
770.25	230.45
770.57	230.38
770.90	230.33
771.22	230.27
771.55	230.23
771.87	230.19
772.20	230.15
772.52	230.21
772.85	230.33
773.17	230.29
773.50	230.25
773.82	230.18
774.15	230.08
774.47	229.95
774.80	229.90
775.12	229.85
775.45	229.82
775.77	229.79
776.09	229.77
776.42	229.73
776.74	229.74
777.07	229.70
777.39	229.67
777.72	229.63
778.04	229.62
778.36	229.58
778.69	229.55
779.01	229.53
779.33	229.38
779.66	229.20
779.98	229.16
780.31	229.14
780.63	229.16
780.95	229.16
781.28	229.13
781.60	229.10
781.92	229.07
782.25	229.04
782.57	229.01
782.89	228.97
783.22	228.94
783.54	228.88
783.86	228.87
784.19	228.83
784.51	228.85
784.83	228.81
785.16	228.78
785.48	228.76
785.80	228.73
786.12	228.72
786.45	228.69
786.77	228.68
787.09	228.65
787.42	228.57
787.74	228.55
788.06	228.54
788.38	228.51
788.71	228.48
789.03	228.47
789.35	228.46
789.67	228.43
789.99	228.42
790.32	228.38
790.64	228.37
790.96	228.47
791.28	228.40
791.61	228.38
791.93	228.37
792.25	228.35
792.57	228.42
792.89	228.38
793.21	228.37
793.54	228.34
793.86	228.31
794.18	228.30
794.50	228.25
794.82	228.23
795.14	228.23
795.47	228.23
795.79	228.22
796.11	228.17
796.43	228.16
796.75	228.14
797.07	228.13
797.39	228.11
797.71	227.98
798.04	227.98
798.36	227.97
798.68	227.94
799.00	227.93
799.32	227.86
799.64	227.87
799.96	227.85
800.28	227.86
800.60	227.84
800.92	227.83
801.24	227.81
801.56	227.81
801.89	227.78
802.21	227.77
802.53	227.73
802.85	227.75
803.17	227.79
803.49	227.75
803.81	227.72
804.13	227.70
804.45	227.67
804.77	227.67
805.09	227.65
805.41	227.63
805.73	227.59
806.05	227.54
806.37	227.52
806.69	227.49
807.01	227.46
807.33	227.46
807.65	227.40
807.97	227.45
808.28	227.42
808.60	227.40
808.92	227.37
809.24	227.44
809.56	227.40
809.88	227.35
810.20	227.35
810.52	227.36
810.84	227.33
811.16	227.31
811.48	227.29
811.80	227.33
812.12	227.31
812.43	227.33
812.75	227.33
813.07	227.30
813.39	227.30
813.71	227.28
814.03	227.26
814.35	227.26
814.67	227.19
814.98	227.17
815.30	227.16
815.62	227.14
815.94	227.04
816.26	227.05
816.58	227.02
816.89	227.02
817.21	226.98
817.53	226.98
817.85	226.98
818.17	226.96
818.48	226.90
818.80	226.92
819.12	226.88
819.44	226.86
819.76	226.84
820.07	226.82
820.39	226.81
820.71	226.82
821.03	226.81
821.34	226.80
821.66	226.81
821.98	226.81
822.30	226.80
822.61	226.87
822.93	226.84
823.25	226.84
823.57	226.81
823.88	226.82
824.20	226.81
824.52	226.82
824.83	226.82
825.15	226.80
825.47	226.79
825.79	226.79
826.10	226.78
826.42	226.78
826.74	226.78
827.05	226.77
827.37	226.77
827.69	226.75
828.00	226.75
828.32	226.74
828.64	226.72
828.95	226.78
829.27	226.74
829.58	226.73
829.90	226.75
830.22	226.75
830.53	226.73
830.85	226.71
831.17	226.67
831.48	226.67
831.80	226.67
832.11	226.65
832.43	226.63
832.75	226.63
833.06	226.70
833.38	226.66
833.69	226.65
834.01	226.65
834.32	226.64
834.64	226.63
834.96	226.62
835.27	226.62
835.59	226.57
835.90	226.55
836.22	226.54
836.53	226.51
836.85	226.50
837.16	226.62
837.48	226.62
837.79	226.66
838.11	226.66
838.42	226.66
838.74	226.67
839.05	226.66
839.37	226.65
839.68	226.57
840.00	226.57
840.31	226.58
840.63	226.56
840.94	226.55
841.26	226.54
841.57	226.53
841.88	226.54
842.20	226.51
842.51	226.49
842.83	226.49
843.14	226.60
843.46	226.59
843.77	226.51
844.08	226.50
844.40	226.46
844.71	226.45
845.03	226.43
845.34	226.42
845.65	226.41
845.97	226.41
846.28	226.42
846.60	226.42
846.91	226.40
847.22	226.39
847.54	226.42
847.85	226.42
848.16	226.41
848.48	226.39
848.79	226.43
849.10	226.45
849.42	226.45
849.73	226.33
850.04	226.33
850.36	226.28
850.67	226.30
850.98	226.30
851.30	226.31
851.61	226.30
851.92	226.29
852.23	226.34
852.55	226.34
852.86	226.33
853.17	226.34
853.49	226.37
853.80	226.39
854.11	226.39
854.42	226.40
854.74	226.38
855.05	226.38
855.36	226.32
855.67	226.32
855.99	226.32
856.30	226.47
856.61	226.46
856.92	226.46
857.23	226.46
857.55	226.45
857.86	226.43
858.17	226.45
858.48	226.43
858.79	226.40
859.11	226.41
859.42	226.40
859.73	226.38
860.04	226.37
860.35	226.33
860.66	226.29
860.98	226.29
861.29	226.30
861.60	226.29
861.91	226.32
862.22	226.30
862.53	226.27
862.84	226.12
863.16	226.15
863.47	226.13
863.78	226.11
864.09	226.12
864.40	226.12
864.71	226.12
865.02	226.14
865.33	226.12
865.64	226.09
865.95	226.09
866.27	226.17
866.58	226.15
866.89	226.17
867.20	226.17
867.51	226.14
867.82	226.13
868.13	226.17
868.44	226.14
868.75	226.16
869.06	226.16
869.37	226.18
869.68	226.14
869.99	226.16
870.30	226.17
870.61	226.18
870.92	226.16
871.23	226.14
871.54	226.16
871.85	226.19
872.16	226.20
872.47	226.19
872.78	226.12
873.09	226.14
873.40	226.12
873.71	226.13
874.02	226.14
874.33	226.13
874.64	226.10
874.95	226.12
875.26	226.10
875.56	226.09
875.87	226.09
876.18	226.08
876.49	226.20
876.80	226.19
877.11	226.16
877.42	226.17
877.73	226.17
878.04	226.15
878.35	226.15
878.66	226.15
878.96	226.15
879.27	226.14
879.58	226.13
879.89	226.12
880.20	226.15
880.51	226.15
880.82	226.15
881.12	226.16
881.43	226.12
881.74	226.11
882.05	226.10
882.36	226.11
882.67	226.12
882.97	225.99
883.28	225.98
883.59	225.97
883.90	225.98
884.21	226.00
884.51	226.00
884.82	225.98
885.13	225.97
885.44	225.97
885.74	225.97
886.05	225.97
886.36	225.98
886.67	225.93
886.98	225.99
887.28	226.00
887.59	226.00
887.90	226.01
888.20	226.01
888.51	226.03
888.82	226.01
889.13	226.02
889.43	226.13
889.74	226.13
890.05	226.13
890.35	226.11
890.66	226.09
890.97	226.08
891.28	226.07
891.58	226.07
891.89	226.07
892.20	226.06
892.50	226.04
892.81	226.03
893.12	226.03
893.42	225.97
893.73	225.97
894.04	225.97
894.34	225.97
894.65	225.97
894.95	225.96
895.26	225.96
895.57	226.02
895.87	225.89
896.18	225.91
896.48	225.92
896.79	225.92
897.10	225.94
897.40	225.95
897.71	225.96
898.01	225.94
898.32	225.96
898.63	225.96
898.93	225.96
899.24	225.97
899.54	225.96
899.85	225.96
900.15	225.95
900.46	225.94
900.76	225.95
901.07	225.95
901.38	225.94
901.68	225.96
901.99	225.89
902.29	225.90
902.60	225.89
902.90	225.88
903.21	225.87
903.51	225.86
903.82	225.88
904.12	225.88
904.43	225.89
904.73	225.88
905.03	225.89
905.34	226.01
905.64	226.00
905.95	226.00
906.25	226.00
906.56	226.00
906.86	225.99
907.17	225.98
907.47	225.99
907.77	225.98
908.08	225.95
908.38	225.95
908.69	225.96
908.99	225.98
909.30	225.99
909.60	225.99
909.90	225.99
910.21	225.95
910.51	225.93
910.81	225.93
911.12	225.94
911.42	225.94
911.73	225.80
912.03	225.81
912.33	225.84
912.64	225.83
912.94	225.81
913.24	225.79
913.55	225.78
913.85	225.77
914.15	225.79
914.46	225.81
914.76	225.80
915.06	225.79
915.37	225.76
915.67	225.75
915.97	225.75
916.27	225.73
916.58	225.73
916.88	225.73
917.18	225.71
917.49	225.80
917.79	225.79
918.09	225.81
918.39	225.84
918.70	225.83
919.00	225.84
919.30	225.90
919.60	225.89
919.91	225.88
920.21	225.89
920.51	225.86
920.81	225.86
921.12	225.88
921.42	225.87
921.72	225.88
922.02	225.89
922.32	225.91
922.63	225.91
922.93	225.99
923.23	225.99
923.53	225.99
923.83	225.90
924.13	225.91
924.44	225.91
924.74	225.93
925.04	225.95
925.34	225.95
925.64	225.90
925.94	225.90
926.24	225.97
926.55	225.96
926.85	225.97
927.15	225.97
927.45	225.97
927.75	225.97
928.05	225.97
928.35	225.96
928.65	225.98
928.95	225.99
929.26	225.93
929.56	225.95
929.86	225.97
930.16	225.96
930.46	225.95
930.76	225.95
931.06	225.90
931.36	225.86
931.66	225.88
931.96	225.90
932.26	225.91
932.56	225.86
932.86	225.86
933.16	225.86
933.46	225.85
933.76	225.83
934.06	225.86
934.36	225.90
934.66	225.89
934.96	225.87
935.26	225.88
935.56	225.90
935.86	225.86
936.16	225.85
936.46	225.83
936.76	225.83
937.06	225.81
937.36	225.82
937.66	225.83
937.96	225.82
938.26	225.79
938.56	225.78
938.86	225.79
939.16	225.82
939.46	225.83
939.76	225.83
940.06	225.83
940.35	225.81
940.65	225.75
940.95	225.75
941.25	225.73
941.55	225.71
941.85	225.70
942.15	225.73
942.45	225.76
942.75	225.76
943.04	225.77
943.34	225.80
943.64	225.78
943.94	225.76
944.24	225.76
944.54	225.77
944.84	225.77
945.13	225.75
945.43	225.72
945.73	225.72
946.03	225.71
946.33	225.70
946.62	225.69
946.92	225.69
947.22	225.70
947.52	225.71
947.82	225.72
948.11	225.71
948.41	225.68
948.71	225.64
949.01	225.65
949.31	225.63
949.60	225.62
949.90	225.64
950.20	225.64
950.50	225.64
950.79	225.63
951.09	225.65
951.39	225.65
951.69	225.64
951.98	225.66
952.28	225.67
952.58	225.66
952.87	225.66
953.17	225.68
953.47	225.66
953.76	225.66
954.06	225.64
954.36	225.62
954.66	225.63
954.95	225.66
955.25	225.66
955.55	225.68
955.84	225.66
956.14	225.66
956.44	225.67
956.73	225.66
957.03	225.66
957.32	225.66
957.62	225.65
957.92	225.68
958.21	225.66
958.51	225.81
958.81	225.83
959.10	225.84
959.40	225.87
959.69	225.88
959.99	225.89
960.29	225.90
960.58	225.90
960.88	225.95
961.17	225.93
961.47	225.94
961.76	225.92
962.06	225.95
962.36	225.93
962.65	225.93
962.95	225.94
963.24	225.93
963.54	225.94
963.83	225.95
964.13	225.94
964.42	225.93
964.72	225.82
965.01	225.81
965.31	225.80
965.60	225.77
965.90	225.84
966.19	225.82
966.49	225.82
966.78	225.82
967.08	225.80
967.37	225.80
967.67	225.78
967.96	225.81
968.26	225.80
968.55	225.82
968.85	225.81
969.14	225.80
969.43	225.80
969.73	225.79
970.02	225.78
970.32	225.77
970.61	225.75
970.91	225.72
971.20	225.70
971.49	225.69
971.79	225.71
972.08	225.61
972.38	225.63
972.67	225.62
972.96	225.64
973.26	225.61
973.55	225.65
973.85	225.64
974.14	225.63
974.43	225.63
974.73	225.61
975.02	225.60
975.31	225.61
975.61	225.61
975.90	225.59
976.19	225.59
976.49	225.59
976.78	225.61
977.07	225.61
977.37	225.62
977.66	225.63
977.95	225.61
978.24	225.62
978.54	225.65
978.83	225.64
979.12	225.63
979.42	225.63
979.71	225.60
980.00	225.60
980.29	225.61
980.59	225.59
980.88	225.62
981.17	225.62
981.46	225.62
981.76	225.62
982.05	225.66
982.34	225.67
982.63	225.67
982.93	225.67
983.22	225.70
983.51	225.71
983.80	225.73
984.09	225.75
984.39	225.73
984.68	225.71
984.97	225.72
985.26	225.72
985.55	225.73
985.85	225.71
986.14	225.72
986.43	225.74
986.72	225.73
987.01	225.69
987.30	225.69
987.59	225.69
987.89	225.69
988.18	225.65
988.47	225.64
988.76	225.63
989.05	225.62
989.34	225.60
989.63	225.63
989.92	225.61
990.22	225.59
990.51	225.59
990.80	225.58
991.09	225.58
991.38	225.60
991.67	225.58
991.96	225.57
992.25	225.58
992.54	225.55
992.83	225.56
993.12	225.55
993.41	225.58
993.70	225.63
993.99	225.65
994.28	225.67
994.58	225.69
994.87	225.68
995.16	225.68
995.45	225.67
995.74	225.62
996.03	225.64
996.32	225.66
996.61	225.69
996.90	225.69
997.19	225.68
997.48	225.68
997.77	225.67
998.06	225.68
998.34	225.66
998.63	225.67
998.92	225.67
999.21	225.69
999.50	225.69
999.79	225.65
1000.08	225.64
1000.37	225.64
1000.66	225.62
1000.95	225.65
1001.24	225.66
1001.53	225.68
1001.82	225.68
1002.11	225.64
1002.40	225.66
1002.68	225.68
1002.97	225.77
1003.26	225.76
1003.55	225.74
1003.84	225.75
1004.13	225.80
1004.42	225.79
1004.71	225.79
1004.99	225.78
1005.28	225.81
1005.57	225.80
1005.86	225.79
1006.15	225.78
1006.44	225.76
1006.72	225.77
1007.01	225.75
1007.30	225.75
1007.59	225.74
1007.88	225.74
1008.17	225.75
1008.45	225.72
1008.74	225.68
1009.03	225.62
1009.32	225.62
1009.60	225.62
1009.89	225.61
1010.18	225.55
1010.47	225.55
1010.76	225.55
1011.04	225.55
1011.33	225.55
1011.62	225.55
1011.91	225.57
1012.19	225.57
1012.48	225.58
1012.77	225.57
1013.05	225.62
1013.34	225.62
1013.63	225.61
1013.92	225.62
1014.20	225.61
1014.49	225.61
1014.78	225.63
1015.06	225.58
1015.35	225.58
1015.64	225.60
1015.92	225.62
1016.21	225.63
1016.50	225.63
1016.78	225.64
1017.07	225.65
1017.36	225.62
1017.64	225.61
1017.93	225.62
1018.22	225.60
1018.50	225.60
1018.79	225.60
1019.08	225.55
1019.36	225.56
1019.65	225.55
1019.93	225.58
1020.22	225.60
1020.51	225.67
1020.79	225.65
1021.08	225.42
1021.36	225.37
1021.65	225.60
1021.94	225.55
1022.22	225.68
1022.51	225.34
1022.79	226.17
1023.08	225.78
1023.36	227.12
1023.65	225.29
>>>>>End Processed Spectral Data<<<<<
