SpectraSuite Data File
++++++++++++++++++++++++++++++++++++
Date: Sun Oct 04 03:16:09 EDT 2015
User: lab3
Dark Spectrum Present: No
Reference Spectrum Present: No
Number of Sampled Component Spectra: 1
Spectrometers: USB2E7196
Integration Time (usec): 46000 (USB2E7196)
Spectra Averaged: 24000 (USB2E7196)
Boxcar Smoothing: 10 (USB2E7196)
Correct for Electrical Dark: No (USB2E7196)
Strobe/Lamp Enabled: No (USB2E7196)
Correct for Detector Non-linearity: No (USB2E7196)
Correct for Stray Light: No (USB2E7196)
Number of Pixels in Processed Spectrum: 2048
>>>>>Begin Processed Spectral Data<<<<<
339.09	0.00
339.48	213.00
339.86	214.50
340.24	215.87
340.63	217.25
341.01	220.59
341.39	219.96
341.78	221.37
342.16	222.58
342.54	223.00
342.93	211.50
343.31	222.18
343.69	222.72
344.07	223.18
344.46	223.61
344.84	224.00
345.22	224.23
345.60	224.49
345.99	224.68
346.37	224.82
346.75	224.93
347.13	225.00
347.52	225.08
347.90	225.17
348.28	225.21
348.66	225.27
349.05	225.27
349.43	225.32
349.81	225.38
350.19	225.44
350.57	225.51
350.96	225.59
351.34	225.69
351.72	225.79
352.10	225.90
352.48	225.97
352.87	226.02
353.25	226.09
353.63	226.15
354.01	226.21
354.39	226.29
354.77	226.37
355.15	226.47
355.54	226.52
355.92	226.55
356.30	226.63
356.68	226.78
357.06	226.85
357.44	226.90
357.82	226.96
358.20	227.08
358.58	227.14
358.97	227.20
359.35	227.29
359.73	227.37
360.11	227.42
360.49	227.48
360.87	227.53
361.25	227.59
361.63	227.68
362.01	227.73
362.39	227.76
362.77	227.80
363.15	227.82
363.53	227.86
363.91	227.89
364.29	227.92
364.67	227.81
365.05	227.84
365.43	227.87
365.81	227.90
366.19	227.92
366.57	227.97
366.95	227.97
367.33	227.94
367.71	227.94
368.09	227.96
368.47	227.95
368.85	227.94
369.23	227.95
369.61	227.89
369.99	227.91
370.37	227.91
370.75	227.99
371.13	227.95
371.51	227.91
371.89	227.89
372.27	227.87
372.65	227.85
373.03	227.81
373.41	227.77
373.78	227.72
374.16	227.61
374.54	227.53
374.92	227.48
375.30	227.44
375.68	227.37
376.06	227.33
376.44	227.27
376.82	227.23
377.19	227.19
377.57	227.14
377.95	227.04
378.33	226.98
378.71	226.82
379.09	226.78
379.47	226.74
379.84	226.68
380.22	226.62
380.60	226.54
380.98	226.50
381.36	226.45
381.73	226.38
382.11	226.36
382.49	226.32
382.87	226.27
383.25	226.22
383.62	226.33
384.00	226.26
384.38	226.22
384.76	226.21
385.13	226.21
385.51	226.17
385.89	226.12
386.27	226.09
386.64	226.07
387.02	226.03
387.40	225.98
387.78	225.96
388.15	225.94
388.53	225.91
388.91	225.88
389.29	225.85
389.66	225.85
390.04	225.81
390.42	225.81
390.79	225.80
391.17	225.78
391.55	225.63
391.92	225.62
392.30	225.62
392.68	225.58
393.05	225.56
393.43	225.56
393.81	225.57
394.18	225.55
394.56	225.55
394.94	225.59
395.31	225.59
395.69	225.63
396.06	225.67
396.44	225.70
396.82	225.71
397.19	225.80
397.57	225.82
397.95	225.86
398.32	225.86
398.70	225.91
399.07	225.98
399.45	226.02
399.82	226.07
400.20	226.11
400.58	226.18
400.95	226.20
401.33	226.29
401.70	226.45
402.08	226.56
402.45	226.66
402.83	226.78
403.20	226.90
403.58	227.00
403.95	227.15
404.33	227.31
404.71	227.47
405.08	227.69
405.46	227.87
405.83	228.07
406.21	228.29
406.58	228.52
406.96	228.76
407.33	229.03
407.70	229.33
408.08	229.74
408.45	230.10
408.83	230.49
409.20	230.84
409.58	231.17
409.95	231.61
410.33	232.09
410.70	232.54
411.08	233.07
411.45	233.63
411.82	234.20
412.20	234.85
412.57	235.62
412.95	236.23
413.32	237.03
413.69	237.84
414.07	238.71
414.44	239.65
414.82	240.61
415.19	241.73
415.56	242.87
415.94	244.05
416.31	245.38
416.68	246.71
417.06	248.24
417.43	249.68
417.81	251.34
418.18	253.03
418.55	254.88
418.93	256.79
419.30	258.80
419.67	260.93
420.04	263.11
420.42	265.39
420.79	268.02
421.16	270.68
421.54	273.38
421.91	276.21
422.28	279.14
422.66	282.30
423.03	285.30
423.40	288.46
423.77	291.86
424.15	295.33
424.52	298.95
424.89	302.86
425.26	306.76
425.64	310.38
426.01	314.45
426.38	318.62
426.75	322.90
427.13	327.30
427.50	331.91
427.87	336.69
428.24	341.53
428.61	346.17
428.99	351.20
429.36	356.72
429.73	361.98
430.10	367.25
430.47	372.65
430.85	378.20
431.22	384.15
431.59	390.26
431.96	396.23
432.33	402.86
432.70	409.17
433.08	416.61
433.45	423.65
433.82	430.60
434.19	438.34
434.56	445.98
434.93	453.37
435.30	460.66
435.68	468.91
436.05	476.99
436.42	485.05
436.79	492.40
437.16	500.32
437.53	508.83
437.90	517.35
438.27	525.66
438.64	534.68
439.01	542.83
439.38	550.30
439.75	557.48
440.13	565.59
440.50	573.30
440.87	579.41
441.24	586.11
441.61	593.40
441.98	598.72
442.35	605.03
442.72	611.47
443.09	617.61
443.46	621.48
443.83	624.31
444.20	626.66
444.57	630.20
444.94	632.17
445.31	634.21
445.68	635.92
446.05	637.17
446.42	636.71
446.79	636.03
447.16	635.42
447.53	634.85
447.90	632.19
448.27	629.63
448.64	625.78
449.01	623.07
449.37	617.77
449.74	612.98
450.11	606.82
450.48	600.08
450.85	593.35
451.22	587.60
451.59	582.00
451.96	576.93
452.33	569.57
452.70	563.05
453.07	555.09
453.43	547.17
453.80	539.48
454.17	532.12
454.54	525.37
454.91	517.72
455.28	510.56
455.65	503.81
456.02	496.66
456.38	490.94
456.75	483.57
457.12	477.64
457.49	471.66
457.86	466.04
458.23	461.12
458.59	455.65
458.96	450.04
459.33	445.11
459.70	440.07
460.07	436.25
460.43	431.76
460.80	427.57
461.17	423.94
461.54	419.98
461.91	416.28
462.27	412.51
462.64	409.49
463.01	406.00
463.38	402.48
463.74	399.32
464.11	396.52
464.48	394.01
464.85	391.26
465.21	389.19
465.58	386.86
465.95	384.19
466.32	382.07
466.68	379.99
467.05	377.90
467.42	375.86
467.78	373.64
468.15	371.60
468.52	370.11
468.88	368.10
469.25	366.26
469.62	364.80
469.98	363.20
470.35	361.77
470.72	360.48
471.08	359.16
471.45	358.04
471.82	356.80
472.18	355.49
472.55	354.63
472.92	353.55
473.28	352.70
473.65	351.80
474.02	350.92
474.38	350.17
474.75	349.72
475.11	349.10
475.48	348.79
475.85	348.45
476.21	348.26
476.58	348.11
476.94	348.21
477.31	348.23
477.67	348.29
478.04	348.46
478.41	348.73
478.77	349.13
479.14	349.37
479.50	349.88
479.87	350.56
480.23	351.24
480.60	351.91
480.96	352.58
481.33	353.60
481.69	354.61
482.06	355.62
482.42	356.54
482.79	357.68
483.15	359.02
483.52	360.55
483.88	362.02
484.25	363.59
484.61	365.22
484.98	366.99
485.34	368.98
485.71	371.07
486.07	373.30
486.44	375.53
486.80	378.02
487.17	380.61
487.53	383.44
487.90	386.39
488.26	389.62
488.62	393.02
488.99	396.42
489.35	400.02
489.72	403.91
490.08	408.03
490.44	412.27
490.81	416.67
491.17	421.18
491.54	426.02
491.90	431.01
492.26	436.36
492.63	441.95
492.99	447.80
493.36	453.86
493.72	460.22
494.08	466.74
494.45	473.67
494.81	480.86
495.17	488.24
495.54	496.05
495.90	504.17
496.26	512.47
496.63	521.02
496.99	529.89
497.35	539.16
497.72	548.74
498.08	558.53
498.44	568.66
498.80	579.39
499.17	590.40
499.53	601.76
499.89	613.47
500.26	625.45
500.62	637.70
500.98	650.63
501.34	663.74
501.71	677.39
502.07	691.23
502.43	705.60
502.79	720.23
503.16	735.32
503.52	750.59
503.88	766.33
504.24	782.54
504.60	798.96
504.97	815.88
505.33	833.23
505.69	851.52
506.05	870.17
506.41	888.79
506.78	907.56
507.14	926.84
507.50	946.57
507.86	966.65
508.22	987.00
508.59	1007.13
508.95	1028.05
509.31	1049.71
509.67	1072.17
510.03	1094.66
510.39	1117.16
510.75	1139.78
511.12	1162.71
511.48	1185.82
511.84	1208.91
512.20	1232.41
512.56	1256.86
512.92	1281.34
513.28	1305.35
513.64	1329.60
514.00	1354.33
514.37	1379.43
514.73	1404.41
515.09	1429.27
515.45	1454.43
515.81	1479.83
516.17	1505.25
516.53	1530.28
516.89	1555.13
517.25	1580.14
517.61	1604.95
517.97	1630.21
518.33	1655.02
518.69	1679.78
519.05	1704.94
519.41	1730.38
519.77	1756.12
520.13	1780.96
520.49	1805.77
520.85	1830.89
521.21	1855.70
521.57	1880.80
521.93	1905.28
522.29	1930.38
522.65	1954.85
523.01	1979.30
523.37	2003.27
523.73	2028.08
524.09	2052.44
524.45	2076.62
524.81	2100.41
525.17	2124.07
525.53	2147.12
525.89	2170.61
526.25	2194.16
526.61	2216.68
526.97	2239.31
527.33	2261.82
527.68	2284.15
528.04	2305.57
528.40	2326.05
528.76	2346.59
529.12	2366.64
529.48	2386.53
529.84	2404.38
530.20	2422.99
530.56	2440.94
530.91	2459.04
531.27	2476.74
531.63	2493.59
531.99	2509.96
532.35	2525.55
532.71	2541.35
533.07	2557.76
533.42	2572.32
533.78	2587.77
534.14	2603.60
534.50	2618.47
534.86	2633.05
535.21	2645.49
535.57	2658.54
535.93	2671.45
536.29	2683.24
536.65	2694.76
537.00	2705.40
537.36	2717.14
537.72	2727.56
538.08	2737.33
538.44	2746.33
538.79	2754.92
539.15	2762.81
539.51	2770.37
539.87	2777.34
540.22	2782.13
540.58	2787.08
540.94	2793.15
541.29	2797.75
541.65	2800.47
542.01	2802.41
542.37	2803.62
542.72	2806.35
543.08	2807.27
543.44	2808.74
543.79	2809.19
544.15	2808.83
544.51	2808.88
544.87	2807.79
545.22	2805.82
545.58	2803.19
545.94	2800.55
546.29	2796.65
546.65	2792.72
547.01	2788.65
547.36	2785.36
547.72	2782.40
548.07	2777.55
548.43	2771.32
548.79	2763.93
549.14	2757.82
549.50	2752.14
549.86	2745.48
550.21	2737.61
550.57	2730.75
550.92	2721.50
551.28	2712.69
551.64	2704.38
551.99	2695.74
552.35	2686.44
552.70	2677.40
553.06	2668.75
553.41	2659.51
553.77	2650.08
554.13	2640.58
554.48	2630.19
554.84	2618.47
555.19	2607.05
555.55	2595.84
555.90	2584.75
556.26	2574.33
556.61	2562.69
556.97	2549.35
557.32	2536.43
557.68	2523.63
558.03	2510.50
558.39	2498.73
558.74	2487.35
559.10	2474.15
559.45	2461.01
559.81	2448.50
560.16	2435.37
560.52	2422.62
560.87	2410.27
561.23	2397.09
561.58	2383.84
561.94	2370.39
562.29	2356.35
562.64	2343.10
563.00	2329.57
563.35	2316.32
563.71	2302.91
564.06	2289.49
564.42	2276.86
564.77	2263.77
565.12	2250.50
565.48	2237.19
565.83	2223.72
566.19	2210.46
566.54	2197.13
566.89	2182.72
567.25	2168.46
567.60	2155.69
567.96	2141.92
568.31	2126.70
568.66	2112.10
569.02	2098.81
569.37	2085.51
569.72	2072.75
570.08	2058.72
570.43	2044.23
570.78	2029.71
571.14	2014.47
571.49	1999.79
571.84	1985.70
572.20	1970.44
572.55	1955.30
572.90	1940.19
573.26	1925.21
573.61	1909.68
573.96	1894.58
574.31	1879.76
574.67	1865.04
575.02	1849.13
575.37	1833.36
575.72	1818.51
576.08	1803.97
576.43	1788.35
576.78	1773.10
577.13	1758.11
577.49	1743.49
577.84	1729.51
578.19	1714.61
578.54	1699.79
578.90	1684.52
579.25	1669.14
579.60	1655.35
579.95	1641.54
580.30	1627.51
580.66	1613.15
581.01	1598.75
581.36	1584.36
581.71	1570.89
582.06	1557.39
582.42	1544.10
582.77	1530.91
583.12	1517.70
583.47	1504.39
583.82	1491.19
584.17	1477.59
584.53	1463.74
584.88	1450.22
585.23	1436.37
585.58	1423.24
585.93	1410.31
586.28	1398.14
586.63	1385.90
586.98	1373.25
587.34	1360.64
587.69	1347.77
588.04	1335.23
588.39	1323.03
588.74	1310.98
589.09	1298.78
589.44	1286.12
589.79	1274.10
590.14	1262.17
590.49	1250.12
590.84	1238.24
591.19	1226.75
591.54	1215.09
591.89	1203.52
592.25	1192.22
592.60	1180.50
592.95	1169.20
593.30	1158.22
593.65	1146.92
594.00	1135.78
594.35	1125.18
594.70	1114.12
595.05	1103.91
595.40	1093.62
595.75	1083.16
596.10	1073.21
596.45	1063.06
596.80	1053.26
597.15	1043.16
597.50	1033.23
597.85	1023.73
598.19	1014.07
598.54	1004.43
598.89	995.31
599.24	986.48
599.59	977.40
599.94	969.23
600.29	960.90
600.64	952.29
600.99	943.34
601.34	934.70
601.69	925.71
602.04	917.45
602.39	908.98
602.74	900.61
603.08	892.19
603.43	883.74
603.78	875.45
604.13	867.28
604.48	859.17
604.83	851.21
605.18	843.20
605.53	835.36
605.87	827.39
606.22	819.63
606.57	811.86
606.92	804.03
607.27	796.13
607.62	788.50
607.96	781.24
608.31	774.44
608.66	767.45
609.01	760.75
609.36	754.12
609.70	747.36
610.05	740.53
610.40	733.99
610.75	727.42
611.10	721.21
611.44	714.83
611.79	708.57
612.14	702.22
612.49	695.94
612.83	689.95
613.18	684.09
613.53	678.17
613.88	672.25
614.22	666.70
614.57	661.12
614.92	655.41
615.27	649.80
615.61	644.25
615.96	638.77
616.31	633.29
616.65	627.86
617.00	622.61
617.35	617.50
617.70	612.39
618.04	607.39
618.39	602.27
618.74	597.39
619.08	592.55
619.43	587.85
619.78	583.15
620.12	578.43
620.47	573.84
620.82	569.36
621.16	564.97
621.51	560.47
621.85	555.99
622.20	551.66
622.55	547.41
622.89	543.22
623.24	539.04
623.59	534.86
623.93	530.87
624.28	526.98
624.62	523.17
624.97	519.42
625.32	515.62
625.66	511.78
626.01	507.92
626.35	504.12
626.70	500.35
627.04	496.80
627.39	493.14
627.73	489.68
628.08	486.30
628.43	482.90
628.77	479.57
629.12	476.37
629.46	473.22
629.81	469.94
630.15	466.65
630.50	463.47
630.84	460.36
631.19	457.29
631.53	454.31
631.88	451.30
632.22	448.32
632.57	445.61
632.91	442.94
633.26	440.36
633.60	437.80
633.95	435.29
634.29	432.69
634.64	430.16
634.98	427.48
635.32	424.90
635.67	422.52
636.01	420.09
636.36	417.68
636.70	415.38
637.05	413.12
637.39	410.91
637.73	408.69
638.08	406.61
638.42	404.51
638.77	402.26
639.11	399.98
639.45	397.77
639.80	395.51
640.14	393.35
640.49	391.17
640.83	388.98
641.17	386.88
641.52	384.84
641.86	382.82
642.20	380.98
642.55	379.02
642.89	377.07
643.23	375.21
643.58	373.51
643.92	371.70
644.26	369.94
644.61	368.23
644.95	366.49
645.29	364.67
645.64	362.88
645.98	361.19
646.32	359.60
646.66	358.01
647.01	356.44
647.35	354.92
647.69	353.38
648.04	351.95
648.38	350.46
648.72	348.98
649.06	347.52
649.41	346.06
649.75	344.66
650.09	343.28
650.43	341.90
650.78	340.48
651.12	339.10
651.46	337.77
651.80	336.47
652.14	335.19
652.49	333.96
652.83	332.70
653.17	331.50
653.51	330.31
653.85	329.19
654.20	328.03
654.54	326.79
654.88	325.64
655.22	324.53
655.56	323.41
655.90	322.34
656.25	321.31
656.59	320.26
656.93	319.28
657.27	318.31
657.61	317.28
657.95	316.31
658.29	315.33
658.64	314.39
658.98	313.45
659.32	312.55
659.66	311.69
660.00	310.86
660.34	310.02
660.68	309.16
661.02	308.27
661.36	307.41
661.70	306.61
662.05	305.82
662.39	305.04
662.73	304.33
663.07	303.63
663.41	302.88
663.75	302.13
664.09	301.38
664.43	300.60
664.77	299.91
665.11	299.17
665.45	298.49
665.79	297.82
666.13	297.13
666.47	296.43
666.81	295.70
667.15	294.96
667.49	294.31
667.83	293.72
668.17	293.10
668.51	292.52
668.85	291.98
669.19	291.47
669.53	290.85
669.87	290.23
670.21	289.63
670.55	289.08
670.89	288.61
671.23	288.08
671.57	287.57
671.91	287.10
672.25	286.67
672.58	286.23
672.92	285.70
673.26	285.25
673.60	284.81
673.94	284.39
674.28	284.01
674.62	283.58
674.96	283.10
675.30	282.69
675.64	282.25
675.97	281.78
676.31	281.29
676.65	280.85
676.99	280.49
677.33	280.05
677.67	279.64
678.01	279.16
678.34	278.76
678.68	278.39
679.02	277.95
679.36	277.53
679.70	277.10
680.04	276.72
680.37	276.33
680.71	275.97
681.05	275.61
681.39	275.22
681.73	274.80
682.06	274.42
682.40	274.04
682.74	273.71
683.08	273.43
683.42	273.09
683.75	272.78
684.09	272.38
684.43	272.06
684.77	271.72
685.10	271.43
685.44	271.11
685.78	270.79
686.12	270.50
686.45	270.17
686.79	269.83
687.13	269.54
687.46	269.20
687.80	268.90
688.14	268.54
688.48	268.23
688.81	267.93
689.15	267.65
689.49	267.34
689.82	267.01
690.16	266.62
690.50	266.32
690.83	266.01
691.17	265.70
691.51	265.40
691.84	265.11
692.18	264.79
692.52	264.46
692.85	264.16
693.19	263.90
693.52	263.59
693.86	263.31
694.20	263.01
694.53	262.73
694.87	262.42
695.21	262.13
695.54	261.85
695.88	261.55
696.21	261.23
696.55	260.95
696.88	260.67
697.22	260.39
697.56	260.12
697.89	259.80
698.23	259.53
698.56	259.22
698.90	258.95
699.23	258.65
699.57	258.37
699.90	258.08
700.24	257.76
700.58	257.51
700.91	257.28
701.25	257.13
701.58	256.92
701.92	256.70
702.25	256.45
702.59	256.18
702.92	255.93
703.26	255.68
703.59	255.41
703.93	255.26
704.26	255.01
704.60	254.76
704.93	254.51
705.26	254.24
705.60	254.03
705.93	253.75
706.27	253.55
706.60	253.34
706.94	253.16
707.27	252.89
707.61	252.64
707.94	252.37
708.27	252.00
708.61	251.70
708.94	251.42
709.28	251.19
709.61	250.95
709.94	250.73
710.28	250.51
710.61	250.32
710.95	249.99
711.28	249.85
711.61	249.63
711.95	249.45
712.28	249.23
712.61	248.98
712.95	248.84
713.28	248.69
713.61	248.45
713.95	248.20
714.28	248.01
714.61	247.79
714.95	247.58
715.28	247.38
715.61	247.19
715.95	247.01
716.28	246.82
716.61	246.66
716.95	246.46
717.28	246.26
717.61	246.06
717.94	245.87
718.28	245.59
718.61	245.39
718.94	245.18
719.27	244.99
719.61	244.83
719.94	244.61
720.27	244.35
720.60	244.16
720.94	243.99
721.27	243.82
721.60	243.66
721.93	243.49
722.27	243.35
722.60	243.20
722.93	243.01
723.26	242.84
723.59	242.64
723.93	242.48
724.26	242.32
724.59	242.15
724.92	241.99
725.25	241.88
725.59	241.73
725.92	241.59
726.25	241.44
726.58	241.29
726.91	241.13
727.24	241.00
727.57	240.85
727.91	240.69
728.24	240.56
728.57	240.41
728.90	240.28
729.23	240.09
729.56	240.00
729.89	239.86
730.22	239.70
730.55	239.57
730.89	239.43
731.22	239.28
731.55	239.15
731.88	239.01
732.21	238.85
732.54	238.71
732.87	238.58
733.20	238.46
733.53	238.33
733.86	238.21
734.19	238.07
734.52	237.96
734.85	237.93
735.18	237.78
735.51	237.69
735.84	237.57
736.17	237.49
736.50	237.31
736.83	237.35
737.16	237.24
737.49	237.13
737.82	237.02
738.15	236.93
738.48	236.82
738.81	236.70
739.14	236.58
739.47	236.47
739.80	236.35
740.13	236.25
740.46	236.12
740.79	236.00
741.12	235.89
741.45	235.76
741.78	235.58
742.11	235.51
742.44	235.37
742.77	235.28
743.10	235.16
743.43	235.05
743.75	234.81
744.08	234.91
744.41	234.80
744.74	234.70
745.07	234.58
745.40	234.50
745.73	234.47
746.06	234.38
746.39	234.31
746.71	234.22
747.04	234.12
747.37	234.03
747.70	233.97
748.03	233.89
748.36	233.83
748.68	233.74
749.01	233.62
749.34	233.54
749.67	233.46
750.00	233.40
750.33	233.41
750.65	233.34
750.98	233.07
751.31	232.99
751.64	232.92
751.97	232.91
752.29	232.82
752.62	232.68
752.95	232.59
753.28	232.49
753.60	232.41
753.93	232.36
754.26	232.30
754.59	232.18
754.91	232.08
755.24	232.00
755.57	231.98
755.90	231.90
756.22	231.82
756.55	231.72
756.88	231.62
757.20	231.46
757.53	231.36
757.86	231.28
758.19	231.22
758.51	231.15
758.84	231.01
759.17	230.93
759.49	230.87
759.82	230.87
760.15	230.82
760.47	230.76
760.80	230.66
761.13	230.61
761.45	230.56
761.78	230.50
762.11	230.45
762.43	230.33
762.76	230.27
763.08	230.23
763.41	230.18
763.74	230.14
764.06	230.08
764.39	230.03
764.71	229.98
765.04	229.91
765.37	229.85
765.69	229.81
766.02	229.76
766.34	229.70
766.67	229.60
767.00	229.57
767.32	229.59
767.65	229.63
767.97	229.57
768.30	229.53
768.62	229.49
768.95	229.42
769.27	229.38
769.60	229.35
769.92	229.28
770.25	229.21
770.57	229.15
770.90	229.11
771.22	229.05
771.55	229.02
771.87	228.99
772.20	228.94
772.52	229.01
772.85	229.12
773.17	229.09
773.50	229.04
773.82	228.99
774.15	228.88
774.47	228.77
774.80	228.72
775.12	228.68
775.45	228.64
775.77	228.61
776.09	228.59
776.42	228.56
776.74	228.57
777.07	228.54
777.39	228.51
777.72	228.47
778.04	228.46
778.36	228.42
778.69	228.39
779.01	228.38
779.33	228.24
779.66	228.06
779.98	228.03
780.31	228.01
780.63	228.03
780.95	228.03
781.28	228.01
781.60	227.97
781.92	227.95
782.25	227.93
782.57	227.90
782.89	227.87
783.22	227.83
783.54	227.78
783.86	227.77
784.19	227.73
784.51	227.75
784.83	227.71
785.16	227.69
785.48	227.67
785.80	227.64
786.12	227.63
786.45	227.60
786.77	227.60
787.09	227.56
787.42	227.50
787.74	227.48
788.06	227.46
788.38	227.44
788.71	227.41
789.03	227.40
789.35	227.39
789.67	227.36
789.99	227.35
790.32	227.32
790.64	227.31
790.96	227.41
791.28	227.35
791.61	227.32
791.93	227.31
792.25	227.29
792.57	227.36
792.89	227.32
793.21	227.31
793.54	227.28
793.86	227.25
794.18	227.24
794.50	227.19
794.82	227.17
795.14	227.18
795.47	227.18
795.79	227.16
796.11	227.12
796.43	227.10
796.75	227.08
797.07	227.07
797.39	227.05
797.71	226.93
798.04	226.92
798.36	226.91
798.68	226.89
799.00	226.89
799.32	226.81
799.64	226.81
799.96	226.79
800.28	226.81
800.60	226.79
800.92	226.78
801.24	226.76
801.56	226.76
801.89	226.73
802.21	226.72
802.53	226.68
802.85	226.70
803.17	226.75
803.49	226.71
803.81	226.68
804.13	226.66
804.45	226.64
804.77	226.63
805.09	226.62
805.41	226.59
805.73	226.56
806.05	226.51
806.37	226.49
806.69	226.46
807.01	226.44
807.33	226.44
807.65	226.38
807.97	226.43
808.28	226.40
808.60	226.38
808.92	226.35
809.24	226.42
809.56	226.39
809.88	226.33
810.20	226.33
810.52	226.34
810.84	226.32
811.16	226.30
811.48	226.27
811.80	226.31
812.12	226.30
812.43	226.31
812.75	226.31
813.07	226.29
813.39	226.29
813.71	226.26
814.03	226.25
814.35	226.24
814.67	226.18
814.98	226.17
815.30	226.16
815.62	226.13
815.94	226.03
816.26	226.04
816.58	226.01
816.89	226.01
817.21	225.97
817.53	225.97
817.85	225.97
818.17	225.97
818.48	225.90
818.80	225.92
819.12	225.89
819.44	225.86
819.76	225.84
820.07	225.83
820.39	225.82
820.71	225.83
821.03	225.82
821.34	225.80
821.66	225.81
821.98	225.82
822.30	225.81
822.61	225.88
822.93	225.86
823.25	225.85
823.57	225.83
823.88	225.84
824.20	225.83
824.52	225.84
824.83	225.83
825.15	225.81
825.47	225.80
825.79	225.80
826.10	225.79
826.42	225.79
826.74	225.79
827.05	225.78
827.37	225.77
827.69	225.76
828.00	225.76
828.32	225.75
828.64	225.73
828.95	225.79
829.27	225.75
829.58	225.74
829.90	225.76
830.22	225.76
830.53	225.73
830.85	225.72
831.17	225.68
831.48	225.68
831.80	225.68
832.11	225.67
832.43	225.65
832.75	225.64
833.06	225.71
833.38	225.68
833.69	225.67
834.01	225.67
834.32	225.66
834.64	225.65
834.96	225.64
835.27	225.64
835.59	225.59
835.90	225.56
836.22	225.56
836.53	225.53
836.85	225.51
837.16	225.63
837.48	225.63
837.79	225.67
838.11	225.67
838.42	225.67
838.74	225.68
839.05	225.67
839.37	225.66
839.68	225.58
840.00	225.58
840.31	225.59
840.63	225.57
840.94	225.56
841.26	225.54
841.57	225.54
841.88	225.55
842.20	225.53
842.51	225.51
842.83	225.51
843.14	225.62
843.46	225.62
843.77	225.54
844.08	225.53
844.40	225.49
844.71	225.47
845.03	225.45
845.34	225.44
845.65	225.43
845.97	225.43
846.28	225.43
846.60	225.44
846.91	225.41
847.22	225.41
847.54	225.43
847.85	225.44
848.16	225.42
848.48	225.40
848.79	225.44
849.10	225.46
849.42	225.46
849.73	225.34
850.04	225.34
850.36	225.29
850.67	225.31
850.98	225.31
851.30	225.32
851.61	225.32
851.92	225.31
852.23	225.35
852.55	225.36
852.86	225.36
853.17	225.36
853.49	225.39
853.80	225.41
854.11	225.42
854.42	225.43
854.74	225.42
855.05	225.43
855.36	225.36
855.67	225.36
855.99	225.36
856.30	225.51
856.61	225.50
856.92	225.51
857.23	225.51
857.55	225.49
857.86	225.48
858.17	225.50
858.48	225.48
858.79	225.45
859.11	225.46
859.42	225.45
859.73	225.43
860.04	225.43
860.35	225.39
860.66	225.35
860.98	225.34
861.29	225.35
861.60	225.35
861.91	225.38
862.22	225.35
862.53	225.34
862.84	225.19
863.16	225.21
863.47	225.19
863.78	225.17
864.09	225.18
864.40	225.18
864.71	225.18
865.02	225.20
865.33	225.18
865.64	225.16
865.95	225.16
866.27	225.24
866.58	225.22
866.89	225.24
867.20	225.24
867.51	225.22
867.82	225.20
868.13	225.24
868.44	225.21
868.75	225.24
869.06	225.24
869.37	225.25
869.68	225.22
869.99	225.24
870.30	225.25
870.61	225.26
870.92	225.24
871.23	225.23
871.54	225.24
871.85	225.27
872.16	225.29
872.47	225.28
872.78	225.20
873.09	225.21
873.40	225.20
873.71	225.21
874.02	225.22
874.33	225.21
874.64	225.18
874.95	225.20
875.26	225.18
875.56	225.17
875.87	225.17
876.18	225.16
876.49	225.28
876.80	225.27
877.11	225.24
877.42	225.25
877.73	225.25
878.04	225.23
878.35	225.22
878.66	225.22
878.96	225.22
879.27	225.22
879.58	225.21
879.89	225.20
880.20	225.23
880.51	225.23
880.82	225.23
881.12	225.23
881.43	225.20
881.74	225.19
882.05	225.18
882.36	225.19
882.67	225.20
882.97	225.06
883.28	225.05
883.59	225.05
883.90	225.06
884.21	225.07
884.51	225.07
884.82	225.05
885.13	225.04
885.44	225.04
885.74	225.04
886.05	225.04
886.36	225.04
886.67	224.99
886.98	225.05
887.28	225.06
887.59	225.06
887.90	225.06
888.20	225.06
888.51	225.09
888.82	225.06
889.13	225.07
889.43	225.18
889.74	225.17
890.05	225.17
890.35	225.16
890.66	225.13
890.97	225.12
891.28	225.11
891.58	225.11
891.89	225.11
892.20	225.09
892.50	225.08
892.81	225.08
893.12	225.07
893.42	225.01
893.73	225.01
894.04	225.00
894.34	225.01
894.65	225.01
894.95	224.99
895.26	225.00
895.57	225.05
895.87	224.93
896.18	224.95
896.48	224.95
896.79	224.95
897.10	224.97
897.40	224.98
897.71	224.99
898.01	224.98
898.32	224.99
898.63	224.99
898.93	225.00
899.24	225.01
899.54	225.00
899.85	225.00
900.15	224.99
900.46	224.99
900.76	225.00
901.07	225.00
901.38	224.99
901.68	225.01
901.99	224.94
902.29	224.95
902.60	224.94
902.90	224.93
903.21	224.93
903.51	224.91
903.82	224.94
904.12	224.94
904.43	224.94
904.73	224.93
905.03	224.94
905.34	225.06
905.64	225.06
905.95	225.06
906.25	225.05
906.56	225.05
906.86	225.05
907.17	225.04
907.47	225.04
907.77	225.03
908.08	225.00
908.38	225.01
908.69	225.02
908.99	225.04
909.30	225.05
909.60	225.05
909.90	225.05
910.21	225.01
910.51	224.99
910.81	224.99
911.12	225.00
911.42	225.00
911.73	224.86
912.03	224.87
912.33	224.90
912.64	224.89
912.94	224.88
913.24	224.86
913.55	224.85
913.85	224.84
914.15	224.87
914.46	224.88
914.76	224.87
915.06	224.86
915.37	224.83
915.67	224.82
915.97	224.83
916.27	224.81
916.58	224.82
916.88	224.82
917.18	224.80
917.49	224.89
917.79	224.89
918.09	224.91
918.39	224.94
918.70	224.93
919.00	224.93
919.30	225.00
919.60	224.99
919.91	224.98
920.21	224.99
920.51	224.96
920.81	224.95
921.12	224.97
921.42	224.97
921.72	224.98
922.02	224.99
922.32	225.00
922.63	225.01
922.93	225.08
923.23	225.08
923.53	225.07
923.83	224.99
924.13	225.00
924.44	224.99
924.74	225.01
925.04	225.04
925.34	225.03
925.64	224.98
925.94	224.98
926.24	225.05
926.55	225.04
926.85	225.06
927.15	225.05
927.45	225.05
927.75	225.05
928.05	225.05
928.35	225.04
928.65	225.06
928.95	225.07
929.26	225.01
929.56	225.03
929.86	225.05
930.16	225.04
930.46	225.02
930.76	225.03
931.06	224.97
931.36	224.93
931.66	224.95
931.96	224.97
932.26	224.97
932.56	224.91
932.86	224.92
933.16	224.93
933.46	224.92
933.76	224.89
934.06	224.92
934.36	224.96
934.66	224.96
934.96	224.93
935.26	224.94
935.56	224.96
935.86	224.92
936.16	224.90
936.46	224.89
936.76	224.89
937.06	224.87
937.36	224.88
937.66	224.88
937.96	224.87
938.26	224.85
938.56	224.84
938.86	224.85
939.16	224.87
939.46	224.88
939.76	224.89
940.06	224.89
940.35	224.87
940.65	224.80
940.95	224.81
941.25	224.78
941.55	224.77
941.85	224.76
942.15	224.79
942.45	224.82
942.75	224.82
943.04	224.83
943.34	224.85
943.64	224.84
943.94	224.82
944.24	224.82
944.54	224.83
944.84	224.83
945.13	224.81
945.43	224.79
945.73	224.78
946.03	224.77
946.33	224.75
946.62	224.74
946.92	224.74
947.22	224.75
947.52	224.76
947.82	224.77
948.11	224.76
948.41	224.73
948.71	224.70
949.01	224.70
949.31	224.69
949.60	224.68
949.90	224.70
950.20	224.70
950.50	224.69
950.79	224.68
951.09	224.70
951.39	224.69
951.69	224.68
951.98	224.71
952.28	224.71
952.58	224.71
952.87	224.72
953.17	224.74
953.47	224.72
953.76	224.72
954.06	224.69
954.36	224.68
954.66	224.68
954.95	224.71
955.25	224.71
955.55	224.72
955.84	224.71
956.14	224.71
956.44	224.72
956.73	224.70
957.03	224.72
957.32	224.71
957.62	224.71
957.92	224.74
958.21	224.72
958.51	224.87
958.81	224.88
959.10	224.90
959.40	224.92
959.69	224.93
959.99	224.95
960.29	224.96
960.58	224.96
960.88	225.01
961.17	224.99
961.47	225.00
961.76	224.99
962.06	225.01
962.36	224.99
962.65	225.00
962.95	225.01
963.24	224.99
963.54	225.00
963.83	225.00
964.13	225.00
964.42	224.99
964.72	224.88
965.01	224.87
965.31	224.86
965.60	224.83
965.90	224.91
966.19	224.88
966.49	224.88
966.78	224.88
967.08	224.87
967.37	224.87
967.67	224.85
967.96	224.87
968.26	224.87
968.55	224.88
968.85	224.88
969.14	224.87
969.43	224.87
969.73	224.86
970.02	224.85
970.32	224.84
970.61	224.82
970.91	224.79
971.20	224.77
971.49	224.76
971.79	224.77
972.08	224.68
972.38	224.69
972.67	224.68
972.96	224.70
973.26	224.67
973.55	224.72
973.85	224.71
974.14	224.69
974.43	224.70
974.73	224.67
975.02	224.66
975.31	224.67
975.61	224.66
975.90	224.65
976.19	224.65
976.49	224.66
976.78	224.67
977.07	224.67
977.37	224.68
977.66	224.69
977.95	224.67
978.24	224.68
978.54	224.71
978.83	224.70
979.12	224.69
979.42	224.69
979.71	224.66
980.00	224.66
980.29	224.67
980.59	224.64
980.88	224.68
981.17	224.68
981.46	224.68
981.76	224.68
982.05	224.72
982.34	224.73
982.63	224.72
982.93	224.72
983.22	224.76
983.51	224.76
983.80	224.78
984.09	224.80
984.39	224.79
984.68	224.77
984.97	224.78
985.26	224.77
985.55	224.79
985.85	224.76
986.14	224.78
986.43	224.80
986.72	224.79
987.01	224.75
987.30	224.75
987.59	224.75
987.89	224.75
988.18	224.71
988.47	224.70
988.76	224.69
989.05	224.68
989.34	224.66
989.63	224.69
989.92	224.67
990.22	224.65
990.51	224.64
990.80	224.63
991.09	224.64
991.38	224.66
991.67	224.65
991.96	224.64
992.25	224.64
992.54	224.61
992.83	224.62
993.12	224.62
993.41	224.64
993.70	224.69
993.99	224.71
994.28	224.73
994.58	224.75
994.87	224.74
995.16	224.74
995.45	224.73
995.74	224.68
996.03	224.70
996.32	224.73
996.61	224.75
996.90	224.75
997.19	224.74
997.48	224.74
997.77	224.73
998.06	224.73
998.34	224.72
998.63	224.72
998.92	224.73
999.21	224.75
999.50	224.74
999.79	224.70
1000.08	224.69
1000.37	224.69
1000.66	224.67
1000.95	224.70
1001.24	224.71
1001.53	224.73
1001.82	224.73
1002.11	224.70
1002.40	224.71
1002.68	224.73
1002.97	224.82
1003.26	224.81
1003.55	224.79
1003.84	224.81
1004.13	224.85
1004.42	224.85
1004.71	224.85
1004.99	224.84
1005.28	224.86
1005.57	224.85
1005.86	224.84
1006.15	224.83
1006.44	224.81
1006.72	224.83
1007.01	224.81
1007.30	224.80
1007.59	224.79
1007.88	224.79
1008.17	224.80
1008.45	224.77
1008.74	224.72
1009.03	224.66
1009.32	224.66
1009.60	224.66
1009.89	224.65
1010.18	224.60
1010.47	224.59
1010.76	224.59
1011.04	224.59
1011.33	224.59
1011.62	224.60
1011.91	224.61
1012.19	224.62
1012.48	224.62
1012.77	224.62
1013.05	224.66
1013.34	224.66
1013.63	224.65
1013.92	224.66
1014.20	224.66
1014.49	224.66
1014.78	224.68
1015.06	224.64
1015.35	224.64
1015.64	224.66
1015.92	224.68
1016.21	224.69
1016.50	224.69
1016.78	224.70
1017.07	224.71
1017.36	224.69
1017.64	224.67
1017.93	224.68
1018.22	224.67
1018.50	224.67
1018.79	224.66
1019.08	224.62
1019.36	224.62
1019.65	224.61
1019.93	224.65
1020.22	224.67
1020.51	224.73
1020.79	224.71
1021.08	224.50
1021.36	224.45
1021.65	224.61
1021.94	224.61
1022.22	224.74
1022.51	224.40
1022.79	225.28
1023.08	224.85
1023.36	226.17
1023.65	224.34
>>>>>End Processed Spectral Data<<<<<
