SpectraSuite Data File
++++++++++++++++++++++++++++++++++++
Date: Fri Oct 02 17:22:10 EDT 2015
User: lab3
Dark Spectrum Present: No
Reference Spectrum Present: No
Number of Sampled Component Spectra: 1
Spectrometers: USB2E7196
Integration Time (usec): 46000 (USB2E7196)
Spectra Averaged: 600 (USB2E7196)
Boxcar Smoothing: 10 (USB2E7196)
Correct for Electrical Dark: No (USB2E7196)
Strobe/Lamp Enabled: No (USB2E7196)
Correct for Detector Non-linearity: No (USB2E7196)
Correct for Stray Light: No (USB2E7196)
Number of Pixels in Processed Spectrum: 2048
>>>>>Begin Processed Spectral Data<<<<<
339.09	0.00
339.48	214.95
339.86	216.63
340.24	217.71
340.63	219.26
341.01	222.35
341.39	221.76
341.78	223.13
342.16	224.62
342.54	224.93
342.93	213.33
343.31	224.10
343.69	224.64
344.07	225.08
344.46	225.51
344.84	225.89
345.22	226.14
345.60	226.39
345.99	226.60
346.37	226.73
346.75	226.85
347.13	226.92
347.52	227.00
347.90	227.10
348.28	227.14
348.66	227.21
349.05	227.19
349.43	227.25
349.81	227.31
350.19	227.35
350.57	227.40
350.96	227.50
351.34	227.60
351.72	227.69
352.10	227.80
352.48	227.89
352.87	227.95
353.25	228.01
353.63	228.07
354.01	228.14
354.39	228.22
354.77	228.28
355.15	228.39
355.54	228.43
355.92	228.44
356.30	228.52
356.68	228.66
357.06	228.76
357.44	228.82
357.82	228.87
358.20	228.99
358.58	229.06
358.97	229.12
359.35	229.20
359.73	229.29
360.11	229.33
360.49	229.38
360.87	229.43
361.25	229.48
361.63	229.57
362.01	229.62
362.39	229.65
362.77	229.70
363.15	229.74
363.53	229.78
363.91	229.82
364.29	229.83
364.67	229.74
365.05	229.75
365.43	229.78
365.81	229.81
366.19	229.84
366.57	229.90
366.95	229.90
367.33	229.87
367.71	229.87
368.09	229.88
368.47	229.87
368.85	229.86
369.23	229.87
369.61	229.82
369.99	229.83
370.37	229.83
370.75	229.91
371.13	229.86
371.51	229.81
371.89	229.79
372.27	229.77
372.65	229.75
373.03	229.72
373.41	229.68
373.78	229.63
374.16	229.52
374.54	229.43
374.92	229.39
375.30	229.35
375.68	229.29
376.06	229.25
376.44	229.19
376.82	229.15
377.19	229.10
377.57	229.04
377.95	228.96
378.33	228.90
378.71	228.74
379.09	228.69
379.47	228.65
379.84	228.59
380.22	228.53
380.60	228.46
380.98	228.40
381.36	228.34
381.73	228.29
382.11	228.28
382.49	228.24
382.87	228.17
383.25	228.12
383.62	228.24
384.00	228.17
384.38	228.15
384.76	228.14
385.13	228.14
385.51	228.11
385.89	228.06
386.27	228.01
386.64	227.99
387.02	227.93
387.40	227.88
387.78	227.86
388.15	227.85
388.53	227.81
388.91	227.79
389.29	227.75
389.66	227.73
390.04	227.68
390.42	227.66
390.79	227.65
391.17	227.63
391.55	227.44
391.92	227.42
392.30	227.42
392.68	227.38
393.05	227.35
393.43	227.35
393.81	227.35
394.18	227.33
394.56	227.33
394.94	227.39
395.31	227.39
395.69	227.44
396.06	227.47
396.44	227.51
396.82	227.52
397.19	227.61
397.57	227.62
397.95	227.67
398.32	227.66
398.70	227.71
399.07	227.78
399.45	227.83
399.82	227.89
400.20	227.92
400.58	227.97
400.95	227.98
401.33	228.05
401.70	228.20
402.08	228.31
402.45	228.39
402.83	228.49
403.20	228.60
403.58	228.68
403.95	228.83
404.33	228.97
404.71	229.10
405.08	229.29
405.46	229.45
405.83	229.64
406.21	229.84
406.58	230.07
406.96	230.28
407.33	230.52
407.70	230.79
408.08	231.17
408.45	231.51
408.83	231.86
409.20	232.18
409.58	232.46
409.95	232.86
410.33	233.29
410.70	233.71
411.08	234.18
411.45	234.69
411.82	235.19
412.20	235.78
412.57	236.49
412.95	237.03
413.32	237.75
413.69	238.48
414.07	239.26
414.44	240.09
414.82	240.97
415.19	241.99
415.56	243.03
415.94	244.09
416.31	245.29
416.68	246.49
417.06	247.89
417.43	249.20
417.81	250.71
418.18	252.24
418.55	253.89
418.93	255.62
419.30	257.42
419.67	259.35
420.04	261.32
420.42	263.38
420.79	265.77
421.16	268.17
421.54	270.62
421.91	273.18
422.28	275.83
422.66	278.68
423.03	281.40
423.40	284.25
423.77	287.31
424.15	290.44
424.52	293.72
424.89	297.26
425.26	300.77
425.64	304.04
426.01	307.71
426.38	311.48
426.75	315.38
427.13	319.36
427.50	323.53
427.87	327.87
428.24	332.24
428.61	336.45
428.99	341.00
429.36	346.01
429.73	350.80
430.10	355.59
430.47	360.51
430.85	365.56
431.22	370.99
431.59	376.59
431.96	382.03
432.33	388.06
432.70	393.84
433.08	400.65
433.45	407.09
433.82	413.44
434.19	420.55
434.56	427.54
434.93	434.29
435.30	440.97
435.68	448.51
436.05	455.90
436.42	463.28
436.79	470.01
437.16	477.26
437.53	485.04
437.90	492.83
438.27	500.43
438.64	508.60
439.01	516.02
439.38	522.80
439.75	529.36
440.13	536.72
440.50	543.72
440.87	549.25
441.24	555.29
441.61	561.89
441.98	566.66
442.35	572.34
442.72	578.13
443.09	583.61
443.46	587.04
443.83	589.52
444.20	591.55
444.57	594.62
444.94	596.27
445.31	597.98
445.68	599.37
446.05	600.32
446.42	599.76
446.79	598.96
447.16	598.26
447.53	597.54
447.90	594.95
448.27	592.41
448.64	588.78
449.01	586.18
449.37	581.21
449.74	576.72
450.11	570.98
450.48	564.71
450.85	558.47
451.22	553.13
451.59	547.93
451.96	543.20
452.33	536.45
452.70	530.45
453.07	523.15
453.43	515.92
453.80	508.90
454.17	502.21
454.54	496.04
454.91	489.07
455.28	482.60
455.65	476.47
456.02	470.06
456.38	464.88
456.75	458.23
457.12	452.88
457.49	447.49
457.86	442.42
458.23	437.99
458.59	433.09
458.96	428.07
459.33	423.64
459.70	419.15
460.07	415.74
460.43	411.74
460.80	408.03
461.17	404.81
461.54	401.30
461.91	397.99
462.27	394.65
462.64	391.99
463.01	388.88
463.38	385.75
463.74	382.92
464.11	380.43
464.48	378.18
464.85	375.75
465.21	373.92
465.58	371.89
465.95	369.54
466.32	367.67
466.68	365.81
467.05	363.98
467.42	362.18
467.78	360.25
468.15	358.45
468.52	357.16
468.88	355.40
469.25	353.79
469.62	352.53
469.98	351.15
470.35	349.90
470.72	348.78
471.08	347.64
471.45	346.69
471.82	345.62
472.18	344.49
472.55	343.77
472.92	342.85
473.28	342.13
473.65	341.34
474.02	340.61
474.38	340.00
474.75	339.67
475.11	339.17
475.48	338.94
475.85	338.68
476.21	338.53
476.58	338.44
476.94	338.57
477.31	338.63
477.67	338.73
478.04	338.94
478.41	339.25
478.77	339.67
479.14	339.95
479.50	340.46
479.87	341.14
480.23	341.80
480.60	342.46
480.96	343.12
481.33	344.10
481.69	345.06
482.06	346.02
482.42	346.91
482.79	348.00
483.15	349.25
483.52	350.73
483.88	352.12
484.25	353.63
484.61	355.17
484.98	356.83
485.34	358.72
485.71	360.68
486.07	362.80
486.44	364.88
486.80	367.21
487.17	369.63
487.53	372.28
487.90	375.07
488.26	378.08
488.62	381.29
488.99	384.47
489.35	387.84
489.72	391.51
490.08	395.34
490.44	399.32
490.81	403.46
491.17	407.67
491.54	412.21
491.90	416.91
492.26	421.91
492.63	427.19
492.99	432.68
493.36	438.36
493.72	444.34
494.08	450.48
494.45	457.01
494.81	463.80
495.17	470.74
495.54	478.08
495.90	485.74
496.26	493.56
496.63	501.65
496.99	510.01
497.35	518.76
497.72	527.75
498.08	536.99
498.44	546.55
498.80	556.67
499.17	567.07
499.53	577.77
499.89	588.84
500.26	600.11
500.62	611.70
500.98	623.90
501.34	636.26
501.71	649.14
502.07	662.19
502.43	675.78
502.79	689.62
503.16	703.86
503.52	718.32
503.88	733.17
504.24	748.47
504.60	764.00
504.97	779.99
505.33	796.43
505.69	813.75
506.05	831.38
506.41	848.95
506.78	866.72
507.14	884.98
507.50	903.74
507.86	922.81
508.22	942.08
508.59	961.16
508.95	981.11
509.31	1001.75
509.67	1023.04
510.03	1044.33
510.39	1065.68
510.75	1087.30
511.12	1109.09
511.48	1131.07
511.84	1153.20
512.20	1175.65
512.56	1198.93
512.92	1222.20
513.28	1245.12
513.64	1268.30
514.00	1291.89
514.37	1315.73
514.73	1339.61
515.09	1363.36
515.45	1387.49
515.81	1411.73
516.17	1436.17
516.53	1459.98
516.89	1483.69
517.25	1507.63
517.61	1531.46
517.97	1555.76
518.33	1579.50
518.69	1603.25
519.05	1627.47
519.41	1651.88
519.77	1676.50
520.13	1700.43
520.49	1724.30
520.85	1748.50
521.21	1772.15
521.57	1796.25
521.93	1819.85
522.29	1843.92
522.65	1867.48
523.01	1890.99
523.37	1914.06
523.73	1937.87
524.09	1961.45
524.45	1984.77
524.81	2007.71
525.17	2030.47
525.53	2052.61
525.89	2075.21
526.25	2097.74
526.61	2119.34
526.97	2141.02
527.33	2162.67
527.68	2184.00
528.04	2204.55
528.40	2224.15
528.76	2244.10
529.12	2263.42
529.48	2282.40
529.84	2299.79
530.20	2317.67
530.56	2335.00
530.91	2352.47
531.27	2369.55
531.63	2385.81
531.99	2401.77
532.35	2416.97
532.71	2432.27
533.07	2448.17
533.42	2462.36
533.78	2477.48
534.14	2492.73
534.50	2507.03
534.86	2521.14
535.21	2533.40
535.57	2546.12
535.93	2558.59
536.29	2569.98
536.65	2581.31
537.00	2591.99
537.36	2603.41
537.72	2613.42
538.08	2622.94
538.44	2631.82
538.79	2640.30
539.15	2648.05
539.51	2655.26
539.87	2661.89
540.22	2666.69
540.58	2671.63
540.94	2677.72
541.29	2682.21
541.65	2684.90
542.01	2687.11
542.37	2688.55
542.72	2691.30
543.08	2692.41
543.44	2694.08
543.79	2694.68
544.15	2694.38
544.51	2694.53
544.87	2693.57
545.22	2691.89
545.58	2689.62
545.94	2687.46
546.29	2683.93
546.65	2680.36
547.01	2676.82
547.36	2673.98
547.72	2671.12
548.07	2666.59
548.43	2660.53
548.79	2653.72
549.14	2648.23
549.50	2642.79
549.86	2636.57
550.21	2629.21
550.57	2622.80
550.92	2614.18
551.28	2606.17
551.64	2598.47
551.99	2590.23
552.35	2581.44
552.70	2572.98
553.06	2564.70
553.41	2555.78
553.77	2546.72
554.13	2537.59
554.48	2527.62
554.84	2516.45
555.19	2505.89
555.55	2495.35
555.90	2484.88
556.26	2474.83
556.61	2463.77
556.97	2451.14
557.32	2438.99
557.68	2426.78
558.03	2414.36
558.39	2403.13
558.74	2392.13
559.10	2379.55
559.45	2367.18
559.81	2355.45
560.16	2343.02
560.52	2330.86
560.87	2318.98
561.23	2306.24
561.58	2293.80
561.94	2280.94
562.29	2267.64
562.64	2254.95
563.00	2241.94
563.35	2229.42
563.71	2216.67
564.06	2203.78
564.42	2191.62
564.77	2178.81
565.12	2166.04
565.48	2153.20
565.83	2140.33
566.19	2127.55
566.54	2114.75
566.89	2100.84
567.25	2087.10
567.60	2074.62
567.96	2061.35
568.31	2046.84
568.66	2033.13
569.02	2020.31
569.37	2007.51
569.72	1995.15
570.08	1981.53
570.43	1967.62
570.78	1953.53
571.14	1938.82
571.49	1924.83
571.84	1911.33
572.20	1896.72
572.55	1882.28
572.90	1867.74
573.26	1853.15
573.61	1838.10
573.96	1823.51
574.31	1809.20
574.67	1794.89
575.02	1779.70
575.37	1764.54
575.72	1750.17
576.08	1736.07
576.43	1720.94
576.78	1706.21
577.13	1691.85
577.49	1677.79
577.84	1664.31
578.19	1649.86
578.54	1635.67
578.90	1620.95
579.25	1606.18
579.60	1592.91
579.95	1579.50
580.30	1565.95
580.66	1552.21
581.01	1538.40
581.36	1524.55
581.71	1511.72
582.06	1498.69
582.42	1485.92
582.77	1473.17
583.12	1460.39
583.47	1447.53
583.82	1434.72
584.17	1421.64
584.53	1408.19
584.88	1395.15
585.23	1381.67
585.58	1369.08
585.93	1356.69
586.28	1345.04
586.63	1333.36
586.98	1321.19
587.34	1309.06
587.69	1296.73
588.04	1284.73
588.39	1273.06
588.74	1261.56
589.09	1249.78
589.44	1237.67
589.79	1226.17
590.14	1214.80
590.49	1203.40
590.84	1192.09
591.19	1181.23
591.54	1170.15
591.89	1159.21
592.25	1148.46
592.60	1137.40
592.95	1126.70
593.30	1116.16
593.65	1105.30
594.00	1094.55
594.35	1084.47
594.70	1073.98
595.05	1064.33
595.40	1054.57
595.75	1044.67
596.10	1035.23
596.45	1025.55
596.80	1016.19
597.15	1006.58
597.50	997.15
597.85	988.06
598.19	978.87
598.54	969.73
598.89	961.01
599.24	952.59
599.59	943.99
599.94	936.31
600.29	928.42
600.64	920.25
600.99	911.76
601.34	903.64
601.69	895.09
602.04	887.28
602.39	879.29
602.74	871.28
603.08	863.31
603.43	855.35
603.78	847.54
604.13	839.94
604.48	832.29
604.83	824.81
605.18	817.23
605.53	809.80
605.87	802.16
606.22	794.92
606.57	787.63
606.92	780.17
607.27	772.64
607.62	765.42
607.96	758.62
608.31	752.25
608.66	745.66
609.01	739.40
609.36	733.22
609.70	726.79
610.05	720.41
610.40	714.25
610.75	708.05
611.10	702.18
611.44	696.15
611.79	690.28
612.14	684.25
612.49	678.38
612.83	672.79
613.18	667.35
613.53	661.74
613.88	656.16
614.22	651.06
614.57	645.84
614.92	640.50
615.27	635.25
615.61	630.03
615.96	624.92
616.31	619.78
616.65	614.70
617.00	609.85
617.35	605.08
617.70	600.37
618.04	595.67
618.39	590.93
618.74	586.44
619.08	581.94
619.43	577.61
619.78	573.29
620.12	568.91
620.47	564.72
620.82	560.61
621.16	556.50
621.51	552.28
621.85	548.15
622.20	544.16
622.55	540.19
622.89	536.31
623.24	532.40
623.59	528.57
623.93	524.89
624.28	521.25
624.62	517.76
624.97	514.28
625.32	510.80
625.66	507.23
626.01	503.65
626.35	500.15
626.70	496.66
627.04	493.33
627.39	489.98
627.73	486.81
628.08	483.68
628.43	480.57
628.77	477.53
629.12	474.59
629.46	471.66
629.81	468.67
630.15	465.67
630.50	462.78
630.84	459.93
631.19	457.10
631.53	454.41
631.88	451.65
632.22	448.94
632.57	446.48
632.91	444.09
633.26	441.76
633.60	439.44
633.95	437.22
634.29	434.90
634.64	432.63
634.98	430.14
635.32	427.86
635.67	425.75
636.01	423.56
636.36	421.41
636.70	419.38
637.05	417.35
637.39	415.36
637.73	413.39
638.08	411.55
638.42	409.66
638.77	407.67
639.11	405.63
639.45	403.66
639.80	401.64
640.14	399.70
640.49	397.75
640.83	395.77
641.17	393.88
641.52	392.04
641.86	390.21
642.20	388.59
642.55	386.78
642.89	385.02
643.23	383.35
643.58	381.84
643.92	380.22
644.26	378.64
644.61	377.10
644.95	375.54
645.29	373.87
645.64	372.25
645.98	370.70
646.32	369.27
646.66	367.80
647.01	366.38
647.35	365.00
647.69	363.60
648.04	362.35
648.38	360.99
648.72	359.66
649.06	358.34
649.41	357.02
649.75	355.76
650.09	354.50
650.43	353.24
650.78	351.95
651.12	350.69
651.46	349.48
651.80	348.29
652.14	347.12
652.49	346.03
652.83	344.89
653.17	343.78
653.51	342.71
653.85	341.69
654.20	340.63
654.54	339.50
654.88	338.43
655.22	337.40
655.56	336.34
655.90	335.36
656.25	334.39
656.59	333.41
656.93	332.50
657.27	331.61
657.61	330.65
657.95	329.71
658.29	328.78
658.64	327.90
658.98	327.03
659.32	326.17
659.66	325.33
660.00	324.53
660.34	323.73
660.68	322.88
661.02	322.01
661.36	321.16
661.70	320.35
662.05	319.57
662.39	318.78
662.73	318.10
663.07	317.39
663.41	316.66
663.75	315.91
664.09	315.17
664.43	314.37
664.77	313.68
665.11	312.94
665.45	312.25
665.79	311.59
666.13	310.84
666.47	310.12
666.81	309.38
667.15	308.59
667.49	307.93
667.83	307.32
668.17	306.69
668.51	306.11
668.85	305.56
669.19	305.02
669.53	304.38
669.87	303.72
670.21	303.08
670.55	302.48
670.89	301.97
671.23	301.40
671.57	300.87
671.91	300.35
672.25	299.87
672.58	299.37
672.92	298.79
673.26	298.32
673.60	297.84
673.94	297.38
674.28	296.95
674.62	296.48
674.96	295.94
675.30	295.47
675.64	294.95
675.97	294.41
676.31	293.85
676.65	293.37
676.99	292.95
677.33	292.45
677.67	291.99
678.01	291.45
678.34	291.00
678.68	290.52
679.02	290.02
679.36	289.52
679.70	289.05
680.04	288.59
680.37	288.14
680.71	287.70
681.05	287.26
681.39	286.80
681.73	286.30
682.06	285.83
682.40	285.38
682.74	284.98
683.08	284.62
683.42	284.21
683.75	283.82
684.09	283.34
684.43	282.93
684.77	282.51
685.10	282.15
685.44	281.75
685.78	281.38
686.12	281.00
686.45	280.59
686.79	280.18
687.13	279.79
687.46	279.38
687.80	278.98
688.14	278.54
688.48	278.17
688.81	277.79
689.15	277.45
689.49	277.06
689.82	276.65
690.16	276.19
690.50	275.81
690.83	275.42
691.17	275.03
691.51	274.67
691.84	274.31
692.18	273.90
692.52	273.48
692.85	273.08
693.19	272.74
693.52	272.36
693.86	271.99
694.20	271.63
694.53	271.26
694.87	270.89
695.21	270.52
695.54	270.14
695.88	269.75
696.21	269.34
696.55	268.98
696.88	268.63
697.22	268.28
697.56	267.93
697.89	267.53
698.23	267.17
698.56	266.76
698.90	266.41
699.23	266.02
699.57	265.65
699.90	265.29
700.24	264.91
700.58	264.60
700.91	264.30
701.25	264.07
701.58	263.79
701.92	263.51
702.25	263.19
702.59	262.86
702.92	262.53
703.26	262.23
703.59	261.89
703.93	261.66
704.26	261.35
704.60	261.02
704.93	260.71
705.26	260.37
705.60	260.13
705.93	259.78
706.27	259.53
706.60	259.28
706.94	259.02
707.27	258.68
707.61	258.36
707.94	258.03
708.27	257.61
708.61	257.26
708.94	256.91
709.28	256.60
709.61	256.30
709.94	256.06
710.28	255.79
710.61	255.54
710.95	255.16
711.28	254.96
711.61	254.69
711.95	254.46
712.28	254.21
712.61	253.91
712.95	253.73
713.28	253.53
713.61	253.23
713.95	252.93
714.28	252.70
714.61	252.43
714.95	252.19
715.28	251.96
715.61	251.72
715.95	251.52
716.28	251.31
716.61	251.12
716.95	250.88
717.28	250.64
717.61	250.42
717.94	250.18
718.28	249.86
718.61	249.64
718.94	249.38
719.27	249.16
719.61	248.98
719.94	248.73
720.27	248.44
720.60	248.23
720.94	248.03
721.27	247.84
721.60	247.67
721.93	247.46
722.27	247.27
722.60	247.09
722.93	246.87
723.26	246.67
723.59	246.42
723.93	246.23
724.26	246.04
724.59	245.83
724.92	245.68
725.25	245.55
725.59	245.37
725.92	245.24
726.25	245.06
726.58	244.88
726.91	244.70
727.24	244.54
727.57	244.39
727.91	244.19
728.24	244.04
728.57	243.86
728.90	243.72
729.23	243.52
729.56	243.42
729.89	243.25
730.22	243.08
730.55	242.94
730.89	242.78
731.22	242.62
731.55	242.48
731.88	242.32
732.21	242.14
732.54	241.98
732.87	241.81
733.20	241.67
733.53	241.52
733.86	241.38
734.19	241.23
734.52	241.10
734.85	241.07
735.18	240.90
735.51	240.80
735.84	240.67
736.17	240.57
736.50	240.36
736.83	240.38
737.16	240.26
737.49	240.15
737.82	240.02
738.15	239.90
738.48	239.77
738.81	239.65
739.14	239.52
739.47	239.40
739.80	239.27
740.13	239.15
740.46	239.01
740.79	238.88
741.12	238.76
741.45	238.62
741.78	238.43
742.11	238.34
742.44	238.20
742.77	238.08
743.10	237.95
743.43	237.85
743.75	237.62
744.08	237.69
744.41	237.57
744.74	237.44
745.07	237.32
745.40	237.23
745.73	237.19
746.06	237.09
746.39	237.01
746.71	236.91
747.04	236.81
747.37	236.71
747.70	236.64
748.03	236.55
748.36	236.46
748.68	236.36
749.01	236.22
749.34	236.14
749.67	236.06
750.00	235.98
750.33	235.97
750.65	235.88
750.98	235.60
751.31	235.51
751.64	235.43
751.97	235.40
752.29	235.30
752.62	235.16
752.95	235.05
753.28	234.94
753.60	234.84
753.93	234.78
754.26	234.70
754.59	234.58
754.91	234.47
755.24	234.40
755.57	234.37
755.90	234.30
756.22	234.20
756.55	234.10
756.88	234.00
757.20	233.83
757.53	233.73
757.86	233.66
758.19	233.61
758.51	233.53
758.84	233.41
759.17	233.34
759.49	233.26
759.82	233.28
760.15	233.23
760.47	233.17
760.80	233.08
761.13	233.04
761.45	232.96
761.78	232.90
762.11	232.84
762.43	232.72
762.76	232.65
763.08	232.60
763.41	232.55
763.74	232.50
764.06	232.45
764.39	232.40
764.71	232.35
765.04	232.28
765.37	232.22
765.69	232.17
766.02	232.12
766.34	232.07
766.67	231.97
767.00	231.93
767.32	231.94
767.65	231.97
767.97	231.91
768.30	231.88
768.62	231.83
768.95	231.78
769.27	231.71
769.60	231.70
769.92	231.64
770.25	231.58
770.57	231.51
770.90	231.46
771.22	231.39
771.55	231.34
771.87	231.31
772.20	231.27
772.52	231.34
772.85	231.44
773.17	231.39
773.50	231.35
773.82	231.30
774.15	231.21
774.47	231.08
774.80	231.03
775.12	230.99
775.45	230.96
775.77	230.94
776.09	230.92
776.42	230.88
776.74	230.89
777.07	230.85
777.39	230.82
777.72	230.78
778.04	230.77
778.36	230.72
778.69	230.69
779.01	230.67
779.33	230.52
779.66	230.34
779.98	230.30
780.31	230.28
780.63	230.29
780.95	230.29
781.28	230.25
781.60	230.22
781.92	230.17
782.25	230.14
782.57	230.10
782.89	230.06
783.22	230.02
783.54	229.95
783.86	229.92
784.19	229.90
784.51	229.91
784.83	229.86
785.16	229.83
785.48	229.80
785.80	229.77
786.12	229.76
786.45	229.74
786.77	229.72
787.09	229.68
787.42	229.61
787.74	229.58
788.06	229.57
788.38	229.55
788.71	229.52
789.03	229.51
789.35	229.50
789.67	229.46
789.99	229.45
790.32	229.42
790.64	229.42
790.96	229.50
791.28	229.42
791.61	229.40
791.93	229.39
792.25	229.37
792.57	229.44
792.89	229.39
793.21	229.38
793.54	229.36
793.86	229.33
794.18	229.31
794.50	229.27
794.82	229.25
795.14	229.25
795.47	229.25
795.79	229.23
796.11	229.18
796.43	229.17
796.75	229.16
797.07	229.16
797.39	229.13
797.71	229.02
798.04	229.01
798.36	229.01
798.68	229.00
799.00	229.00
799.32	228.92
799.64	228.92
799.96	228.90
800.28	228.90
800.60	228.88
800.92	228.87
801.24	228.84
801.56	228.83
801.89	228.80
802.21	228.80
802.53	228.76
802.85	228.77
803.17	228.82
803.49	228.77
803.81	228.75
804.13	228.73
804.45	228.70
804.77	228.70
805.09	228.69
805.41	228.67
805.73	228.63
806.05	228.58
806.37	228.56
806.69	228.54
807.01	228.51
807.33	228.51
807.65	228.46
807.97	228.51
808.28	228.48
808.60	228.47
808.92	228.43
809.24	228.50
809.56	228.47
809.88	228.40
810.20	228.39
810.52	228.39
810.84	228.36
811.16	228.33
811.48	228.31
811.80	228.34
812.12	228.33
812.43	228.35
812.75	228.33
813.07	228.32
813.39	228.32
813.71	228.29
814.03	228.26
814.35	228.27
814.67	228.20
814.98	228.18
815.30	228.17
815.62	228.15
815.94	228.05
816.26	228.04
816.58	228.03
816.89	228.03
817.21	228.00
817.53	227.99
817.85	227.99
818.17	227.99
818.48	227.92
818.80	227.94
819.12	227.91
819.44	227.90
819.76	227.87
820.07	227.86
820.39	227.86
820.71	227.87
821.03	227.84
821.34	227.83
821.66	227.84
821.98	227.85
822.30	227.84
822.61	227.92
822.93	227.90
823.25	227.89
823.57	227.88
823.88	227.89
824.20	227.89
824.52	227.90
824.83	227.90
825.15	227.88
825.47	227.85
825.79	227.86
826.10	227.85
826.42	227.84
826.74	227.85
827.05	227.84
827.37	227.84
827.69	227.85
828.00	227.84
828.32	227.84
828.64	227.81
828.95	227.87
829.27	227.82
829.58	227.82
829.90	227.84
830.22	227.85
830.53	227.82
830.85	227.81
831.17	227.77
831.48	227.77
831.80	227.76
832.11	227.75
832.43	227.71
832.75	227.69
833.06	227.75
833.38	227.71
833.69	227.70
834.01	227.68
834.32	227.67
834.64	227.66
834.96	227.66
835.27	227.65
835.59	227.60
835.90	227.60
836.22	227.59
836.53	227.55
836.85	227.53
837.16	227.66
837.48	227.65
837.79	227.69
838.11	227.69
838.42	227.70
838.74	227.72
839.05	227.73
839.37	227.72
839.68	227.64
840.00	227.64
840.31	227.65
840.63	227.64
840.94	227.61
841.26	227.58
841.57	227.57
841.88	227.58
842.20	227.55
842.51	227.52
842.83	227.52
843.14	227.63
843.46	227.62
843.77	227.53
844.08	227.52
844.40	227.47
844.71	227.47
845.03	227.44
845.34	227.42
845.65	227.42
845.97	227.42
846.28	227.42
846.60	227.42
846.91	227.38
847.22	227.38
847.54	227.41
847.85	227.42
848.16	227.40
848.48	227.38
848.79	227.42
849.10	227.43
849.42	227.43
849.73	227.31
850.04	227.31
850.36	227.27
850.67	227.28
850.98	227.28
851.30	227.27
851.61	227.26
851.92	227.26
852.23	227.28
852.55	227.28
852.86	227.29
853.17	227.29
853.49	227.33
853.80	227.36
854.11	227.37
854.42	227.38
854.74	227.38
855.05	227.38
855.36	227.34
855.67	227.34
855.99	227.35
856.30	227.50
856.61	227.50
856.92	227.50
857.23	227.51
857.55	227.49
857.86	227.48
858.17	227.50
858.48	227.48
858.79	227.46
859.11	227.49
859.42	227.47
859.73	227.47
860.04	227.46
860.35	227.43
860.66	227.39
860.98	227.40
861.29	227.41
861.60	227.39
861.91	227.41
862.22	227.39
862.53	227.36
862.84	227.21
863.16	227.22
863.47	227.20
863.78	227.18
864.09	227.20
864.40	227.21
864.71	227.21
865.02	227.22
865.33	227.20
865.64	227.17
865.95	227.17
866.27	227.24
866.58	227.22
866.89	227.21
867.20	227.22
867.51	227.19
867.82	227.18
868.13	227.21
868.44	227.18
868.75	227.19
869.06	227.21
869.37	227.23
869.68	227.20
869.99	227.21
870.30	227.22
870.61	227.22
870.92	227.22
871.23	227.20
871.54	227.22
871.85	227.24
872.16	227.26
872.47	227.24
872.78	227.17
873.09	227.18
873.40	227.18
873.71	227.18
874.02	227.20
874.33	227.20
874.64	227.17
874.95	227.19
875.26	227.17
875.56	227.16
875.87	227.14
876.18	227.13
876.49	227.26
876.80	227.25
877.11	227.23
877.42	227.22
877.73	227.23
878.04	227.21
878.35	227.22
878.66	227.22
878.96	227.22
879.27	227.22
879.58	227.22
879.89	227.22
880.20	227.26
880.51	227.25
880.82	227.23
881.12	227.26
881.43	227.22
881.74	227.20
882.05	227.20
882.36	227.21
882.67	227.22
882.97	227.08
883.28	227.07
883.59	227.06
883.90	227.09
884.21	227.10
884.51	227.10
884.82	227.07
885.13	227.07
885.44	227.07
885.74	227.07
886.05	227.04
886.36	227.06
886.67	227.01
886.98	227.06
887.28	227.07
887.59	227.06
887.90	227.07
888.20	227.06
888.51	227.09
888.82	227.05
889.13	227.06
889.43	227.18
889.74	227.17
890.05	227.18
890.35	227.16
890.66	227.13
890.97	227.12
891.28	227.11
891.58	227.11
891.89	227.10
892.20	227.09
892.50	227.09
892.81	227.07
893.12	227.07
893.42	227.03
893.73	227.04
894.04	227.03
894.34	227.05
894.65	227.05
894.95	227.05
895.26	227.07
895.57	227.12
895.87	226.98
896.18	227.01
896.48	227.02
896.79	227.01
897.10	227.02
897.40	227.02
897.71	227.04
898.01	227.02
898.32	227.03
898.63	227.02
898.93	227.02
899.24	227.02
899.54	227.01
899.85	227.00
900.15	226.98
900.46	226.99
900.76	227.00
901.07	226.99
901.38	227.00
901.68	227.00
901.99	226.94
902.29	226.95
902.60	226.93
902.90	226.91
903.21	226.90
903.51	226.90
903.82	226.93
904.12	226.92
904.43	226.93
904.73	226.92
905.03	226.94
905.34	227.06
905.64	227.05
905.95	227.04
906.25	227.03
906.56	227.03
906.86	227.03
907.17	227.01
907.47	227.01
907.77	226.99
908.08	226.97
908.38	226.98
908.69	226.98
908.99	227.00
909.30	227.00
909.60	227.01
909.90	227.02
910.21	226.99
910.51	226.97
910.81	226.98
911.12	226.99
911.42	227.00
911.73	226.87
912.03	226.89
912.33	226.93
912.64	226.92
912.94	226.91
913.24	226.90
913.55	226.89
913.85	226.88
914.15	226.90
914.46	226.92
914.76	226.91
915.06	226.92
915.37	226.90
915.67	226.90
915.97	226.89
916.27	226.86
916.58	226.87
916.88	226.86
917.18	226.84
917.49	226.93
917.79	226.91
918.09	226.93
918.39	226.96
918.70	226.94
919.00	226.94
919.30	227.01
919.60	226.99
919.91	226.98
920.21	226.99
920.51	226.96
920.81	226.95
921.12	226.98
921.42	226.97
921.72	226.97
922.02	226.98
922.32	227.00
922.63	227.02
922.93	227.08
923.23	227.09
923.53	227.09
923.83	227.00
924.13	227.01
924.44	227.00
924.74	227.03
925.04	227.04
925.34	227.05
925.64	227.00
925.94	227.01
926.24	227.08
926.55	227.07
926.85	227.07
927.15	227.06
927.45	227.05
927.75	227.05
928.05	227.04
928.35	227.03
928.65	227.07
928.95	227.08
929.26	227.01
929.56	227.04
929.86	227.05
930.16	227.04
930.46	227.02
930.76	227.04
931.06	226.98
931.36	226.95
931.66	226.97
931.96	226.98
932.26	226.98
932.56	226.93
932.86	226.95
933.16	226.97
933.46	226.96
933.76	226.94
934.06	226.98
934.36	227.02
934.66	227.02
934.96	226.98
935.26	226.98
935.56	227.00
935.86	226.96
936.16	226.93
936.46	226.93
936.76	226.95
937.06	226.92
937.36	226.92
937.66	226.92
937.96	226.90
938.26	226.87
938.56	226.87
938.86	226.87
939.16	226.88
939.46	226.90
939.76	226.90
940.06	226.89
940.35	226.85
940.65	226.80
940.95	226.81
941.25	226.78
941.55	226.76
941.85	226.75
942.15	226.78
942.45	226.83
942.75	226.81
943.04	226.81
943.34	226.85
943.64	226.84
943.94	226.83
944.24	226.84
944.54	226.85
944.84	226.84
945.13	226.82
945.43	226.80
945.73	226.78
946.03	226.76
946.33	226.75
946.62	226.73
946.92	226.74
947.22	226.73
947.52	226.75
947.82	226.77
948.11	226.74
948.41	226.72
948.71	226.67
949.01	226.69
949.31	226.68
949.60	226.66
949.90	226.67
950.20	226.67
950.50	226.67
950.79	226.65
951.09	226.67
951.39	226.67
951.69	226.66
951.98	226.67
952.28	226.68
952.58	226.69
952.87	226.71
953.17	226.73
953.47	226.72
953.76	226.70
954.06	226.67
954.36	226.67
954.66	226.68
954.95	226.71
955.25	226.72
955.55	226.72
955.84	226.70
956.14	226.71
956.44	226.71
956.73	226.70
957.03	226.70
957.32	226.69
957.62	226.69
957.92	226.72
958.21	226.69
958.51	226.84
958.81	226.86
959.10	226.86
959.40	226.88
959.69	226.89
959.99	226.92
960.29	226.93
960.58	226.92
960.88	226.96
961.17	226.95
961.47	226.96
961.76	226.96
962.06	226.99
962.36	226.97
962.65	226.99
962.95	226.99
963.24	226.99
963.54	226.98
963.83	226.99
964.13	226.98
964.42	226.97
964.72	226.85
965.01	226.86
965.31	226.84
965.60	226.80
965.90	226.86
966.19	226.83
966.49	226.84
966.78	226.84
967.08	226.83
967.37	226.82
967.67	226.80
967.96	226.82
968.26	226.81
968.55	226.84
968.85	226.83
969.14	226.84
969.43	226.84
969.73	226.83
970.02	226.83
970.32	226.82
970.61	226.83
970.91	226.79
971.20	226.75
971.49	226.75
971.79	226.76
972.08	226.69
972.38	226.70
972.67	226.69
972.96	226.72
973.26	226.68
973.55	226.71
973.85	226.72
974.14	226.70
974.43	226.70
974.73	226.67
975.02	226.65
975.31	226.64
975.61	226.65
975.90	226.64
976.19	226.64
976.49	226.64
976.78	226.64
977.07	226.65
977.37	226.68
977.66	226.71
977.95	226.70
978.24	226.70
978.54	226.73
978.83	226.72
979.12	226.70
979.42	226.71
979.71	226.68
980.00	226.66
980.29	226.66
980.59	226.64
980.88	226.67
981.17	226.67
981.46	226.67
981.76	226.66
982.05	226.71
982.34	226.73
982.63	226.74
982.93	226.73
983.22	226.76
983.51	226.77
983.80	226.78
984.09	226.80
984.39	226.80
984.68	226.79
984.97	226.80
985.26	226.79
985.55	226.80
985.85	226.78
986.14	226.81
986.43	226.84
986.72	226.84
987.01	226.78
987.30	226.78
987.59	226.78
987.89	226.77
988.18	226.72
988.47	226.70
988.76	226.70
989.05	226.69
989.34	226.66
989.63	226.69
989.92	226.67
990.22	226.65
990.51	226.65
990.80	226.63
991.09	226.64
991.38	226.68
991.67	226.66
991.96	226.67
992.25	226.67
992.54	226.64
992.83	226.63
993.12	226.64
993.41	226.67
993.70	226.72
993.99	226.75
994.28	226.77
994.58	226.78
994.87	226.76
995.16	226.76
995.45	226.76
995.74	226.71
996.03	226.72
996.32	226.73
996.61	226.75
996.90	226.75
997.19	226.74
997.48	226.73
997.77	226.72
998.06	226.73
998.34	226.70
998.63	226.70
998.92	226.73
999.21	226.75
999.50	226.75
999.79	226.71
1000.08	226.69
1000.37	226.71
1000.66	226.70
1000.95	226.73
1001.24	226.73
1001.53	226.75
1001.82	226.74
1002.11	226.72
1002.40	226.73
1002.68	226.76
1002.97	226.86
1003.26	226.84
1003.55	226.81
1003.84	226.82
1004.13	226.85
1004.42	226.86
1004.71	226.86
1004.99	226.85
1005.28	226.86
1005.57	226.86
1005.86	226.84
1006.15	226.83
1006.44	226.79
1006.72	226.80
1007.01	226.77
1007.30	226.78
1007.59	226.76
1007.88	226.76
1008.17	226.77
1008.45	226.74
1008.74	226.69
1009.03	226.61
1009.32	226.60
1009.60	226.60
1009.89	226.60
1010.18	226.55
1010.47	226.55
1010.76	226.54
1011.04	226.55
1011.33	226.54
1011.62	226.54
1011.91	226.55
1012.19	226.56
1012.48	226.57
1012.77	226.57
1013.05	226.62
1013.34	226.63
1013.63	226.62
1013.92	226.64
1014.20	226.63
1014.49	226.63
1014.78	226.64
1015.06	226.60
1015.35	226.61
1015.64	226.63
1015.92	226.63
1016.21	226.64
1016.50	226.64
1016.78	226.65
1017.07	226.64
1017.36	226.63
1017.64	226.61
1017.93	226.62
1018.22	226.61
1018.50	226.61
1018.79	226.61
1019.08	226.57
1019.36	226.56
1019.65	226.56
1019.93	226.59
1020.22	226.61
1020.51	226.68
1020.79	226.66
1021.08	226.45
1021.36	226.47
1021.65	226.57
1021.94	226.76
1022.22	226.75
1022.51	226.50
1022.79	227.18
1023.08	226.92
1023.36	228.23
1023.65	226.20
>>>>>End Processed Spectral Data<<<<<
