SpectraSuite Data File
++++++++++++++++++++++++++++++++++++
Date: Sun Oct 04 16:08:38 EDT 2015
User: lab3
Dark Spectrum Present: No
Reference Spectrum Present: No
Number of Sampled Component Spectra: 1
Spectrometers: USB2E7196
Integration Time (usec): 46000 (USB2E7196)
Spectra Averaged: 24000 (USB2E7196)
Boxcar Smoothing: 10 (USB2E7196)
Correct for Electrical Dark: No (USB2E7196)
Strobe/Lamp Enabled: No (USB2E7196)
Correct for Detector Non-linearity: No (USB2E7196)
Correct for Stray Light: No (USB2E7196)
Number of Pixels in Processed Spectrum: 2048
>>>>>Begin Processed Spectral Data<<<<<
339.09	0.00
339.48	213.64
339.86	215.09
340.24	216.47
340.63	217.89
341.01	221.19
341.39	220.59
341.78	221.98
342.16	223.21
342.54	223.59
342.93	212.09
343.31	222.80
343.69	223.34
344.07	223.80
344.46	224.23
344.84	224.63
345.22	224.85
345.60	225.11
345.99	225.31
346.37	225.45
346.75	225.56
347.13	225.64
347.52	225.71
347.90	225.81
348.28	225.84
348.66	225.91
349.05	225.91
349.43	225.97
349.81	226.03
350.19	226.09
350.57	226.16
350.96	226.24
351.34	226.34
351.72	226.44
352.10	226.55
352.48	226.62
352.87	226.67
353.25	226.74
353.63	226.80
354.01	226.86
354.39	226.94
354.77	227.02
355.15	227.12
355.54	227.17
355.92	227.20
356.30	227.28
356.68	227.43
357.06	227.50
357.44	227.55
357.82	227.61
358.20	227.72
358.58	227.78
358.97	227.85
359.35	227.93
359.73	228.02
360.11	228.07
360.49	228.13
360.87	228.17
361.25	228.23
361.63	228.32
362.01	228.38
362.39	228.40
362.77	228.45
363.15	228.47
363.53	228.50
363.91	228.54
364.29	228.56
364.67	228.46
365.05	228.48
365.43	228.52
365.81	228.55
366.19	228.56
366.57	228.62
366.95	228.62
367.33	228.59
367.71	228.58
368.09	228.60
368.47	228.60
368.85	228.59
369.23	228.60
369.61	228.54
369.99	228.55
370.37	228.55
370.75	228.63
371.13	228.60
371.51	228.55
371.89	228.53
372.27	228.51
372.65	228.49
373.03	228.45
373.41	228.41
373.78	228.36
374.16	228.25
374.54	228.17
374.92	228.12
375.30	228.08
375.68	228.01
376.06	227.97
376.44	227.91
376.82	227.87
377.19	227.83
377.57	227.78
377.95	227.68
378.33	227.62
378.71	227.46
379.09	227.42
379.47	227.39
379.84	227.32
380.22	227.26
380.60	227.19
380.98	227.14
381.36	227.09
381.73	227.03
382.11	227.01
382.49	226.97
382.87	226.91
383.25	226.87
383.62	226.98
384.00	226.91
384.38	226.87
384.76	226.86
385.13	226.86
385.51	226.82
385.89	226.77
386.27	226.74
386.64	226.72
387.02	226.68
387.40	226.63
387.78	226.61
388.15	226.59
388.53	226.56
388.91	226.53
389.29	226.50
389.66	226.50
390.04	226.46
390.42	226.46
390.79	226.46
391.17	226.44
391.55	226.28
391.92	226.28
392.30	226.28
392.68	226.24
393.05	226.22
393.43	226.22
393.81	226.23
394.18	226.21
394.56	226.22
394.94	226.25
395.31	226.26
395.69	226.31
396.06	226.34
396.44	226.37
396.82	226.38
397.19	226.48
397.57	226.49
397.95	226.55
398.32	226.54
398.70	226.59
399.07	226.67
399.45	226.71
399.82	226.77
400.20	226.81
400.58	226.88
400.95	226.90
401.33	227.00
401.70	227.17
402.08	227.28
402.45	227.38
402.83	227.51
403.20	227.64
403.58	227.74
403.95	227.90
404.33	228.07
404.71	228.23
405.08	228.46
405.46	228.65
405.83	228.86
406.21	229.08
406.58	229.34
406.96	229.58
407.33	229.86
407.70	230.18
408.08	230.61
408.45	230.99
408.83	231.40
409.20	231.78
409.58	232.12
409.95	232.58
410.33	233.09
410.70	233.57
411.08	234.12
411.45	234.72
411.82	235.32
412.20	236.00
412.57	236.81
412.95	237.46
413.32	238.30
413.69	239.16
414.07	240.07
414.44	241.06
414.82	242.07
415.19	243.25
415.56	244.46
415.94	245.71
416.31	247.10
416.68	248.50
417.06	250.12
417.43	251.64
417.81	253.39
418.18	255.17
418.55	257.11
418.93	259.14
419.30	261.25
419.67	263.50
420.04	265.80
420.42	268.21
420.79	270.98
421.16	273.78
421.54	276.62
421.91	279.60
422.28	282.69
422.66	286.02
423.03	289.20
423.40	292.54
423.77	296.11
424.15	299.78
424.52	303.60
424.89	307.73
425.26	311.84
425.64	315.66
426.01	319.96
426.38	324.35
426.75	328.87
427.13	333.51
427.50	338.36
427.87	343.41
428.24	348.51
428.61	353.42
428.99	358.73
429.36	364.56
429.73	370.11
430.10	375.67
430.47	381.34
430.85	387.20
431.22	393.47
431.59	399.90
431.96	406.19
432.33	413.18
432.70	419.82
433.08	427.66
433.45	435.08
433.82	442.39
434.19	450.55
434.56	458.59
434.93	466.37
435.30	474.05
435.68	482.73
436.05	491.25
436.42	499.74
436.79	507.47
437.16	515.81
437.53	524.77
437.90	533.73
438.27	542.50
438.64	551.98
439.01	560.56
439.38	568.43
439.75	575.99
440.13	584.53
440.50	592.65
440.87	599.09
441.24	606.14
441.61	613.82
441.98	619.41
442.35	626.07
442.72	632.85
443.09	639.34
443.46	643.41
443.83	646.39
444.20	648.86
444.57	652.59
444.94	654.66
445.31	656.82
445.68	658.62
446.05	659.95
446.42	659.48
446.79	658.78
447.16	658.15
447.53	657.56
447.90	654.77
448.27	652.09
448.64	648.04
449.01	645.21
449.37	639.63
449.74	634.61
450.11	628.11
450.48	621.02
450.85	613.94
451.22	607.91
451.59	602.02
451.96	596.69
452.33	588.94
452.70	582.09
453.07	573.71
453.43	565.39
453.80	557.29
454.17	549.53
454.54	542.43
454.91	534.38
455.28	526.85
455.65	519.74
456.02	512.21
456.38	506.18
456.75	498.41
457.12	492.17
457.49	485.86
457.86	479.94
458.23	474.75
458.59	468.98
458.96	463.05
459.33	457.84
459.70	452.52
460.07	448.50
460.43	443.77
460.80	439.34
461.17	435.50
461.54	431.31
461.91	427.38
462.27	423.39
462.64	420.19
463.01	416.48
463.38	412.75
463.74	409.42
464.11	406.45
464.48	403.78
464.85	400.86
465.21	398.66
465.58	396.18
465.95	393.35
466.32	391.10
466.68	388.89
467.05	386.67
467.42	384.50
467.78	382.14
468.15	379.97
468.52	378.38
468.88	376.24
469.25	374.29
469.62	372.73
469.98	371.03
470.35	369.50
470.72	368.12
471.08	366.71
471.45	365.52
471.82	364.20
472.18	362.79
472.55	361.88
472.92	360.72
473.28	359.81
473.65	358.83
474.02	357.89
474.38	357.09
474.75	356.60
475.11	355.93
475.48	355.58
475.85	355.21
476.21	354.99
476.58	354.82
476.94	354.90
477.31	354.92
477.67	354.96
478.04	355.13
478.41	355.39
478.77	355.79
479.14	356.02
479.50	356.54
479.87	357.23
480.23	357.93
480.60	358.61
480.96	359.29
481.33	360.34
481.69	361.38
482.06	362.42
482.42	363.36
482.79	364.54
483.15	365.92
483.52	367.50
483.88	369.01
484.25	370.63
484.61	372.31
484.98	374.14
485.34	376.20
485.71	378.35
486.07	380.67
486.44	382.99
486.80	385.56
487.17	388.24
487.53	391.16
487.90	394.21
488.26	397.55
488.62	401.08
488.99	404.61
489.35	408.33
489.72	412.38
490.08	416.63
490.44	421.03
490.81	425.59
491.17	430.25
491.54	435.27
491.90	440.43
492.26	445.97
492.63	451.76
492.99	457.81
493.36	464.07
493.72	470.65
494.08	477.39
494.45	484.56
494.81	491.99
495.17	499.64
495.54	507.73
495.90	516.13
496.26	524.71
496.63	533.54
496.99	542.71
497.35	552.29
497.72	562.18
498.08	572.29
498.44	582.75
498.80	593.85
499.17	605.22
499.53	616.95
499.89	629.05
500.26	641.40
500.62	654.06
500.98	667.41
501.34	680.95
501.71	695.04
502.07	709.31
502.43	724.13
502.79	739.20
503.16	754.77
503.52	770.51
503.88	786.74
504.24	803.46
504.60	820.38
504.97	837.82
505.33	855.70
505.69	874.53
506.05	893.75
506.41	912.90
506.78	932.22
507.14	952.04
507.50	972.34
507.86	993.00
508.22	1013.90
508.59	1034.57
508.95	1056.10
509.31	1078.40
509.67	1101.50
510.03	1124.62
510.39	1147.71
510.75	1170.91
511.12	1194.43
511.48	1218.09
511.84	1241.76
512.20	1265.89
512.56	1290.96
512.92	1316.05
513.28	1340.63
513.64	1365.43
514.00	1390.76
514.37	1416.42
514.73	1442.02
515.09	1467.46
515.45	1493.21
515.81	1519.15
516.17	1545.16
516.53	1570.68
516.89	1596.04
517.25	1621.57
517.61	1646.90
517.97	1672.71
518.33	1698.07
518.69	1723.32
519.05	1749.02
519.41	1774.98
519.77	1801.19
520.13	1826.51
520.49	1851.75
520.85	1877.37
521.21	1902.64
521.57	1928.21
521.93	1953.14
522.29	1978.66
522.65	2003.56
523.01	2028.45
523.37	2052.84
523.73	2078.05
524.09	2102.84
524.45	2127.40
524.81	2151.54
525.17	2175.53
525.53	2198.85
525.89	2222.65
526.25	2246.53
526.61	2269.39
526.97	2292.38
527.33	2315.25
527.68	2337.83
528.04	2359.51
528.40	2380.24
528.76	2401.01
529.12	2421.25
529.48	2441.32
529.84	2459.36
530.20	2478.13
530.56	2496.19
530.91	2514.39
531.27	2532.24
531.63	2549.18
531.99	2565.60
532.35	2581.22
532.71	2597.10
533.07	2613.69
533.42	2628.29
533.78	2643.86
534.14	2659.68
534.50	2674.54
534.86	2689.08
535.21	2701.52
535.57	2714.60
535.93	2727.47
536.29	2739.22
536.65	2750.73
537.00	2761.35
537.36	2773.09
537.72	2783.40
538.08	2793.14
538.44	2802.12
538.79	2810.57
539.15	2818.34
539.51	2825.79
539.87	2832.60
540.22	2837.20
540.58	2841.92
540.94	2847.91
541.29	2852.27
541.65	2854.73
542.01	2856.33
542.37	2857.29
542.72	2859.79
543.08	2860.39
543.44	2861.55
543.79	2861.70
544.15	2860.96
544.51	2860.69
544.87	2859.17
545.22	2856.84
545.58	2853.81
545.94	2850.83
546.29	2846.59
546.65	2842.28
547.01	2837.85
547.36	2834.26
547.72	2830.91
548.07	2825.64
548.43	2818.93
548.79	2811.12
549.14	2804.67
549.50	2798.65
549.86	2791.60
550.21	2783.32
550.57	2776.08
550.92	2766.42
551.28	2757.29
551.64	2748.68
551.99	2739.69
552.35	2730.01
552.70	2720.63
553.06	2711.62
553.41	2701.99
553.77	2692.12
554.13	2682.18
554.48	2671.36
554.84	2659.19
555.19	2647.39
555.55	2635.79
555.90	2624.27
556.26	2613.39
556.61	2601.34
556.97	2587.58
557.32	2574.25
557.68	2560.98
558.03	2547.40
558.39	2535.23
558.74	2523.38
559.10	2509.66
559.45	2496.05
559.81	2483.13
560.16	2469.62
560.52	2456.47
560.87	2443.70
561.23	2430.14
561.58	2416.56
561.94	2402.74
562.29	2388.28
562.64	2374.66
563.00	2360.71
563.35	2347.12
563.71	2333.37
564.06	2319.54
564.42	2306.56
564.77	2293.11
565.12	2279.51
565.48	2265.90
565.83	2252.16
566.19	2238.58
566.54	2224.89
566.89	2210.08
567.25	2195.53
567.60	2182.39
567.96	2168.23
568.31	2152.67
568.66	2137.79
569.02	2124.20
569.37	2110.57
569.72	2097.52
570.08	2083.17
570.43	2068.40
570.78	2053.54
571.14	2037.92
571.49	2022.98
571.84	2008.58
572.20	1992.91
572.55	1977.44
572.90	1961.98
573.26	1946.62
573.61	1930.72
573.96	1915.32
574.31	1900.20
574.67	1885.10
575.02	1868.87
575.37	1852.78
575.72	1837.59
576.08	1822.73
576.43	1806.79
576.78	1791.24
577.13	1775.95
577.49	1761.05
577.84	1746.82
578.19	1731.63
578.54	1716.58
578.90	1701.02
579.25	1685.36
579.60	1671.35
579.95	1657.27
580.30	1642.95
580.66	1628.33
581.01	1613.68
581.36	1599.01
581.71	1585.34
582.06	1571.58
582.42	1558.04
582.77	1544.58
583.12	1531.10
583.47	1517.51
583.82	1504.01
584.17	1490.20
584.53	1476.09
584.88	1462.32
585.23	1448.16
585.58	1434.79
585.93	1421.61
586.28	1409.21
586.63	1396.75
586.98	1383.85
587.34	1371.01
587.69	1357.94
588.04	1345.18
588.39	1332.79
588.74	1320.56
589.09	1308.12
589.44	1295.26
589.79	1283.09
590.14	1270.98
590.49	1258.78
590.84	1246.73
591.19	1235.05
591.54	1223.19
591.89	1211.47
592.25	1199.97
592.60	1188.07
592.95	1176.62
593.30	1165.45
593.65	1153.97
594.00	1142.64
594.35	1131.86
594.70	1120.65
595.05	1110.31
595.40	1099.88
595.75	1089.28
596.10	1079.21
596.45	1068.90
596.80	1058.94
597.15	1048.68
597.50	1038.60
597.85	1028.94
598.19	1019.13
598.54	1009.38
598.89	1000.12
599.24	991.16
599.59	981.95
599.94	973.68
600.29	965.23
600.64	956.51
600.99	947.43
601.34	938.70
601.69	929.64
602.04	921.28
602.39	912.73
602.74	904.24
603.08	895.72
603.43	887.17
603.78	878.79
604.13	870.55
604.48	862.35
604.83	854.30
605.18	846.21
605.53	838.31
605.87	830.24
606.22	822.41
606.57	814.54
606.92	806.63
607.27	798.65
607.62	790.95
607.96	783.65
608.31	776.79
608.66	769.72
609.01	762.94
609.36	756.26
609.70	749.41
610.05	742.52
610.40	735.90
610.75	729.27
611.10	722.99
611.44	716.55
611.79	710.22
612.14	703.81
612.49	697.48
612.83	691.43
613.18	685.52
613.53	679.55
613.88	673.60
614.22	668.01
614.57	662.40
614.92	656.65
615.27	650.99
615.61	645.40
615.96	639.87
616.31	634.33
616.65	628.85
617.00	623.56
617.35	618.38
617.70	613.24
618.04	608.19
618.39	603.04
618.74	598.13
619.08	593.26
619.43	588.53
619.78	583.79
620.12	579.02
620.47	574.39
620.82	569.88
621.16	565.43
621.51	560.90
621.85	556.38
622.20	552.03
622.55	547.72
622.89	543.49
623.24	539.27
623.59	535.08
623.93	531.05
624.28	527.12
624.62	523.28
624.97	519.49
625.32	515.64
625.66	511.77
626.01	507.88
626.35	504.05
626.70	500.25
627.04	496.65
627.39	492.96
627.73	489.46
628.08	486.04
628.43	482.61
628.77	479.24
629.12	476.01
629.46	472.81
629.81	469.52
630.15	466.21
630.50	463.01
630.84	459.87
631.19	456.79
631.53	453.80
631.88	450.77
632.22	447.77
632.57	445.05
632.91	442.35
633.26	439.75
633.60	437.16
633.95	434.62
634.29	432.02
634.64	429.47
634.98	426.76
635.32	424.16
635.67	421.77
636.01	419.31
636.36	416.88
636.70	414.57
637.05	412.28
637.39	410.04
637.73	407.80
638.08	405.69
638.42	403.55
638.77	401.28
639.11	398.96
639.45	396.73
639.80	394.44
640.14	392.26
640.49	390.07
640.83	387.85
641.17	385.74
641.52	383.67
641.86	381.63
642.20	379.78
642.55	377.80
642.89	375.83
643.23	373.96
643.58	372.24
643.92	370.41
644.26	368.64
644.61	366.91
644.95	365.16
645.29	363.32
645.64	361.52
645.98	359.81
646.32	358.22
646.66	356.62
647.01	355.04
647.35	353.49
647.69	351.94
648.04	350.51
648.38	349.01
648.72	347.53
649.06	346.06
649.41	344.59
649.75	343.17
650.09	341.79
650.43	340.40
650.78	338.97
651.12	337.59
651.46	336.25
651.80	334.94
652.14	333.65
652.49	332.42
652.83	331.16
653.17	329.95
653.51	328.76
653.85	327.63
654.20	326.46
654.54	325.22
654.88	324.07
655.22	322.95
655.56	321.83
655.90	320.77
656.25	319.74
656.59	318.69
656.93	317.70
657.27	316.73
657.61	315.71
657.95	314.73
658.29	313.75
658.64	312.82
658.98	311.89
659.32	310.99
659.66	310.13
660.00	309.30
660.34	308.46
660.68	307.61
661.02	306.72
661.36	305.87
661.70	305.07
662.05	304.29
662.39	303.50
662.73	302.79
663.07	302.09
663.41	301.34
663.75	300.60
664.09	299.87
664.43	299.09
664.77	298.40
665.11	297.67
665.45	297.00
665.79	296.33
666.13	295.64
666.47	294.94
666.81	294.23
667.15	293.49
667.49	292.85
667.83	292.27
668.17	291.66
668.51	291.09
668.85	290.54
669.19	290.04
669.53	289.43
669.87	288.82
670.21	288.23
670.55	287.68
670.89	287.21
671.23	286.69
671.57	286.19
671.91	285.73
672.25	285.30
672.58	284.87
672.92	284.36
673.26	283.93
673.60	283.50
673.94	283.09
674.28	282.71
674.62	282.29
674.96	281.83
675.30	281.42
675.64	280.99
675.97	280.54
676.31	280.06
676.65	279.64
676.99	279.29
677.33	278.86
677.67	278.46
678.01	278.00
678.34	277.60
678.68	277.24
679.02	276.80
679.36	276.39
679.70	275.98
680.04	275.61
680.37	275.23
680.71	274.87
681.05	274.52
681.39	274.14
681.73	273.74
682.06	273.36
682.40	272.99
682.74	272.68
683.08	272.41
683.42	272.07
683.75	271.77
684.09	271.38
684.43	271.08
684.77	270.75
685.10	270.47
685.44	270.16
685.78	269.85
686.12	269.57
686.45	269.25
686.79	268.93
687.13	268.64
687.46	268.32
687.80	268.02
688.14	267.68
688.48	267.39
688.81	267.10
689.15	266.84
689.49	266.53
689.82	266.22
690.16	265.85
690.50	265.56
690.83	265.26
691.17	264.96
691.51	264.67
691.84	264.40
692.18	264.09
692.52	263.78
692.85	263.49
693.19	263.24
693.52	262.95
693.86	262.67
694.20	262.39
694.53	262.12
694.87	261.83
695.21	261.55
695.54	261.27
695.88	260.98
696.21	260.67
696.55	260.41
696.88	260.13
697.22	259.87
697.56	259.60
697.89	259.29
698.23	259.04
698.56	258.75
698.90	258.48
699.23	258.20
699.57	257.93
699.90	257.64
700.24	257.35
700.58	257.11
700.91	256.89
701.25	256.74
701.58	256.54
701.92	256.34
702.25	256.10
702.59	255.84
702.92	255.61
703.26	255.37
703.59	255.11
703.93	254.96
704.26	254.73
704.60	254.48
704.93	254.23
705.26	253.98
705.60	253.78
705.93	253.51
706.27	253.32
706.60	253.13
706.94	252.95
707.27	252.69
707.61	252.44
707.94	252.18
708.27	251.82
708.61	251.53
708.94	251.27
709.28	251.04
709.61	250.81
709.94	250.60
710.28	250.39
710.61	250.21
710.95	249.89
711.28	249.76
711.61	249.54
711.95	249.37
712.28	249.15
712.61	248.92
712.95	248.79
713.28	248.64
713.61	248.41
713.95	248.16
714.28	247.97
714.61	247.76
714.95	247.57
715.28	247.37
715.61	247.19
715.95	247.01
716.28	246.83
716.61	246.68
716.95	246.47
717.28	246.28
717.61	246.08
717.94	245.90
718.28	245.62
718.61	245.43
718.94	245.23
719.27	245.05
719.61	244.90
719.94	244.68
720.27	244.42
720.60	244.24
720.94	244.07
721.27	243.91
721.60	243.76
721.93	243.58
722.27	243.46
722.60	243.31
722.93	243.12
723.26	242.96
723.59	242.76
723.93	242.61
724.26	242.45
724.59	242.29
724.92	242.14
725.25	242.03
725.59	241.88
725.92	241.75
726.25	241.61
726.58	241.46
726.91	241.30
727.24	241.18
727.57	241.04
727.91	240.88
728.24	240.76
728.57	240.61
728.90	240.49
729.23	240.30
729.56	240.21
729.89	240.07
730.22	239.92
730.55	239.79
730.89	239.65
731.22	239.51
731.55	239.38
731.88	239.25
732.21	239.09
732.54	238.95
732.87	238.83
733.20	238.71
733.53	238.59
733.86	238.47
734.19	238.33
734.52	238.23
734.85	238.20
735.18	238.05
735.51	237.97
735.84	237.86
736.17	237.78
736.50	237.61
736.83	237.64
737.16	237.54
737.49	237.44
737.82	237.33
738.15	237.24
738.48	237.14
738.81	237.02
739.14	236.91
739.47	236.79
739.80	236.68
740.13	236.58
740.46	236.45
740.79	236.33
741.12	236.23
741.45	236.10
741.78	235.93
742.11	235.86
742.44	235.73
742.77	235.64
743.10	235.52
743.43	235.42
743.75	235.19
744.08	235.29
744.41	235.18
744.74	235.08
745.07	234.96
745.40	234.89
745.73	234.85
746.06	234.77
746.39	234.70
746.71	234.61
747.04	234.51
747.37	234.42
747.70	234.37
748.03	234.29
748.36	234.23
748.68	234.14
749.01	234.02
749.34	233.95
749.67	233.87
750.00	233.81
750.33	233.82
750.65	233.76
750.98	233.49
751.31	233.41
751.64	233.34
751.97	233.34
752.29	233.25
752.62	233.12
752.95	233.03
753.28	232.93
753.60	232.86
753.93	232.82
754.26	232.75
754.59	232.64
754.91	232.55
755.24	232.46
755.57	232.45
755.90	232.38
756.22	232.29
756.55	232.20
756.88	232.10
757.20	231.94
757.53	231.84
757.86	231.76
758.19	231.70
758.51	231.63
758.84	231.50
759.17	231.42
759.49	231.36
759.82	231.36
760.15	231.32
760.47	231.25
760.80	231.15
761.13	231.11
761.45	231.06
761.78	231.00
762.11	230.95
762.43	230.82
762.76	230.77
763.08	230.73
763.41	230.68
763.74	230.64
764.06	230.59
764.39	230.54
764.71	230.49
765.04	230.43
765.37	230.37
765.69	230.32
766.02	230.27
766.34	230.22
766.67	230.12
767.00	230.09
767.32	230.11
767.65	230.15
767.97	230.09
768.30	230.05
768.62	230.01
768.95	229.95
769.27	229.91
769.60	229.88
769.92	229.81
770.25	229.75
770.57	229.69
770.90	229.64
771.22	229.59
771.55	229.55
771.87	229.52
772.20	229.48
772.52	229.55
772.85	229.66
773.17	229.63
773.50	229.58
773.82	229.52
774.15	229.42
774.47	229.31
774.80	229.26
775.12	229.22
775.45	229.19
775.77	229.16
776.09	229.14
776.42	229.10
776.74	229.12
777.07	229.08
777.39	229.06
777.72	229.02
778.04	229.01
778.36	228.97
778.69	228.94
779.01	228.93
779.33	228.79
779.66	228.61
779.98	228.58
780.31	228.56
780.63	228.58
780.95	228.58
781.28	228.55
781.60	228.52
781.92	228.50
782.25	228.47
782.57	228.45
782.89	228.42
783.22	228.39
783.54	228.33
783.86	228.32
784.19	228.29
784.51	228.31
784.83	228.27
785.16	228.24
785.48	228.22
785.80	228.20
786.12	228.19
786.45	228.16
786.77	228.15
787.09	228.12
787.42	228.06
787.74	228.04
788.06	228.03
788.38	228.00
788.71	227.98
789.03	227.96
789.35	227.96
789.67	227.92
789.99	227.91
790.32	227.88
790.64	227.87
790.96	227.98
791.28	227.91
791.61	227.89
791.93	227.88
792.25	227.85
792.57	227.92
792.89	227.89
793.21	227.88
793.54	227.85
793.86	227.82
794.18	227.81
794.50	227.77
794.82	227.75
795.14	227.75
795.47	227.76
795.79	227.74
796.11	227.69
796.43	227.68
796.75	227.66
797.07	227.65
797.39	227.63
797.71	227.51
798.04	227.50
798.36	227.50
798.68	227.48
799.00	227.47
799.32	227.39
799.64	227.40
799.96	227.39
800.28	227.40
800.60	227.38
800.92	227.37
801.24	227.35
801.56	227.35
801.89	227.32
802.21	227.31
802.53	227.27
802.85	227.30
803.17	227.34
803.49	227.30
803.81	227.28
804.13	227.26
804.45	227.23
804.77	227.22
805.09	227.21
805.41	227.19
805.73	227.15
806.05	227.11
806.37	227.08
806.69	227.06
807.01	227.03
807.33	227.03
807.65	226.97
807.97	227.02
808.28	227.00
808.60	226.98
808.92	226.95
809.24	227.02
809.56	226.98
809.88	226.93
810.20	226.93
810.52	226.94
810.84	226.91
811.16	226.89
811.48	226.87
811.80	226.91
812.12	226.89
812.43	226.91
812.75	226.91
813.07	226.89
813.39	226.89
813.71	226.87
814.03	226.84
814.35	226.84
814.67	226.78
814.98	226.76
815.30	226.75
815.62	226.72
815.94	226.63
816.26	226.64
816.58	226.61
816.89	226.61
817.21	226.57
817.53	226.57
817.85	226.57
818.17	226.56
818.48	226.50
818.80	226.52
819.12	226.49
819.44	226.46
819.76	226.44
820.07	226.43
820.39	226.42
820.71	226.42
821.03	226.42
821.34	226.40
821.66	226.41
821.98	226.42
822.30	226.41
822.61	226.48
822.93	226.45
823.25	226.44
823.57	226.42
823.88	226.43
824.20	226.42
824.52	226.43
824.83	226.42
825.15	226.40
825.47	226.38
825.79	226.39
826.10	226.38
826.42	226.38
826.74	226.38
827.05	226.37
827.37	226.37
827.69	226.35
828.00	226.35
828.32	226.34
828.64	226.32
828.95	226.38
829.27	226.34
829.58	226.34
829.90	226.36
830.22	226.37
830.53	226.34
830.85	226.33
831.17	226.29
831.48	226.28
831.80	226.29
832.11	226.28
832.43	226.25
832.75	226.25
833.06	226.32
833.38	226.28
833.69	226.27
834.01	226.27
834.32	226.27
834.64	226.25
834.96	226.25
835.27	226.24
835.59	226.19
835.90	226.17
836.22	226.16
836.53	226.12
836.85	226.10
837.16	226.23
837.48	226.22
837.79	226.27
838.11	226.27
838.42	226.26
838.74	226.28
839.05	226.27
839.37	226.26
839.68	226.18
840.00	226.17
840.31	226.19
840.63	226.18
840.94	226.16
841.26	226.14
841.57	226.14
841.88	226.15
842.20	226.13
842.51	226.10
842.83	226.10
843.14	226.22
843.46	226.21
843.77	226.14
844.08	226.13
844.40	226.09
844.71	226.07
845.03	226.06
845.34	226.04
845.65	226.04
845.97	226.04
846.28	226.04
846.60	226.05
846.91	226.02
847.22	226.02
847.54	226.05
847.85	226.05
848.16	226.04
848.48	226.01
848.79	226.06
849.10	226.08
849.42	226.08
849.73	225.96
850.04	225.96
850.36	225.91
850.67	225.93
850.98	225.93
851.30	225.94
851.61	225.94
851.92	225.93
852.23	225.97
852.55	225.97
852.86	225.97
853.17	225.98
853.49	226.01
853.80	226.03
854.11	226.03
854.42	226.05
854.74	226.04
855.05	226.04
855.36	225.97
855.67	225.97
855.99	225.97
856.30	226.12
856.61	226.12
856.92	226.12
857.23	226.12
857.55	226.10
857.86	226.09
858.17	226.11
858.48	226.09
858.79	226.06
859.11	226.07
859.42	226.06
859.73	226.04
860.04	226.03
860.35	225.99
860.66	225.95
860.98	225.94
861.29	225.96
861.60	225.95
861.91	225.97
862.22	225.95
862.53	225.93
862.84	225.78
863.16	225.81
863.47	225.78
863.78	225.76
864.09	225.77
864.40	225.78
864.71	225.78
865.02	225.79
865.33	225.78
865.64	225.75
865.95	225.75
866.27	225.83
866.58	225.81
866.89	225.83
867.20	225.83
867.51	225.81
867.82	225.80
868.13	225.84
868.44	225.81
868.75	225.84
869.06	225.84
869.37	225.85
869.68	225.82
869.99	225.85
870.30	225.85
870.61	225.86
870.92	225.84
871.23	225.83
871.54	225.85
871.85	225.88
872.16	225.89
872.47	225.88
872.78	225.81
873.09	225.82
873.40	225.81
873.71	225.82
874.02	225.83
874.33	225.82
874.64	225.79
874.95	225.81
875.26	225.78
875.56	225.78
875.87	225.77
876.18	225.77
876.49	225.89
876.80	225.88
877.11	225.85
877.42	225.86
877.73	225.86
878.04	225.84
878.35	225.83
878.66	225.83
878.96	225.83
879.27	225.83
879.58	225.82
879.89	225.82
880.20	225.85
880.51	225.84
880.82	225.84
881.12	225.85
881.43	225.82
881.74	225.81
882.05	225.80
882.36	225.81
882.67	225.81
882.97	225.67
883.28	225.66
883.59	225.66
883.90	225.67
884.21	225.69
884.51	225.68
884.82	225.66
885.13	225.66
885.44	225.65
885.74	225.65
886.05	225.65
886.36	225.65
886.67	225.60
886.98	225.67
887.28	225.67
887.59	225.67
887.90	225.68
888.20	225.68
888.51	225.70
888.82	225.67
889.13	225.68
889.43	225.79
889.74	225.79
890.05	225.79
890.35	225.77
890.66	225.75
890.97	225.73
891.28	225.72
891.58	225.72
891.89	225.72
892.20	225.71
892.50	225.69
892.81	225.68
893.12	225.68
893.42	225.62
893.73	225.62
894.04	225.61
894.34	225.62
894.65	225.62
894.95	225.61
895.26	225.62
895.57	225.67
895.87	225.54
896.18	225.56
896.48	225.57
896.79	225.57
897.10	225.59
897.40	225.60
897.71	225.61
898.01	225.60
898.32	225.61
898.63	225.61
898.93	225.62
899.24	225.62
899.54	225.62
899.85	225.61
900.15	225.61
900.46	225.60
900.76	225.61
901.07	225.61
901.38	225.61
901.68	225.62
901.99	225.56
902.29	225.57
902.60	225.55
902.90	225.55
903.21	225.54
903.51	225.53
903.82	225.55
904.12	225.55
904.43	225.56
904.73	225.55
905.03	225.56
905.34	225.68
905.64	225.67
905.95	225.67
906.25	225.67
906.56	225.67
906.86	225.66
907.17	225.65
907.47	225.66
907.77	225.64
908.08	225.61
908.38	225.62
908.69	225.63
908.99	225.65
909.30	225.66
909.60	225.66
909.90	225.66
910.21	225.62
910.51	225.60
910.81	225.60
911.12	225.60
911.42	225.60
911.73	225.47
912.03	225.48
912.33	225.51
912.64	225.50
912.94	225.49
913.24	225.47
913.55	225.46
913.85	225.45
914.15	225.48
914.46	225.50
914.76	225.48
915.06	225.47
915.37	225.45
915.67	225.44
915.97	225.44
916.27	225.42
916.58	225.43
916.88	225.43
917.18	225.42
917.49	225.50
917.79	225.50
918.09	225.52
918.39	225.55
918.70	225.54
919.00	225.55
919.30	225.61
919.60	225.60
919.91	225.59
920.21	225.59
920.51	225.57
920.81	225.55
921.12	225.57
921.42	225.57
921.72	225.58
922.02	225.59
922.32	225.61
922.63	225.61
922.93	225.68
923.23	225.69
923.53	225.68
923.83	225.59
924.13	225.60
924.44	225.60
924.74	225.62
925.04	225.64
925.34	225.64
925.64	225.58
925.94	225.58
926.24	225.65
926.55	225.64
926.85	225.65
927.15	225.65
927.45	225.65
927.75	225.65
928.05	225.65
928.35	225.63
928.65	225.65
928.95	225.66
929.26	225.60
929.56	225.62
929.86	225.63
930.16	225.62
930.46	225.61
930.76	225.62
931.06	225.56
931.36	225.52
931.66	225.54
931.96	225.55
932.26	225.56
932.56	225.51
932.86	225.52
933.16	225.51
933.46	225.50
933.76	225.49
934.06	225.51
934.36	225.55
934.66	225.54
934.96	225.52
935.26	225.53
935.56	225.55
935.86	225.51
936.16	225.50
936.46	225.48
936.76	225.48
937.06	225.46
937.36	225.47
937.66	225.48
937.96	225.47
938.26	225.44
938.56	225.43
938.86	225.44
939.16	225.47
939.46	225.48
939.76	225.49
940.06	225.48
940.35	225.46
940.65	225.40
940.95	225.41
941.25	225.38
941.55	225.37
941.85	225.36
942.15	225.39
942.45	225.42
942.75	225.42
943.04	225.43
943.34	225.45
943.64	225.44
943.94	225.42
944.24	225.42
944.54	225.44
944.84	225.43
945.13	225.41
945.43	225.39
945.73	225.38
946.03	225.37
946.33	225.36
946.62	225.35
946.92	225.35
947.22	225.35
947.52	225.36
947.82	225.38
948.11	225.36
948.41	225.34
948.71	225.30
949.01	225.31
949.31	225.30
949.60	225.29
949.90	225.31
950.20	225.30
950.50	225.30
950.79	225.29
951.09	225.31
951.39	225.30
951.69	225.29
951.98	225.31
952.28	225.32
952.58	225.32
952.87	225.32
953.17	225.34
953.47	225.32
953.76	225.32
954.06	225.30
954.36	225.29
954.66	225.29
954.95	225.32
955.25	225.33
955.55	225.34
955.84	225.32
956.14	225.32
956.44	225.33
956.73	225.31
957.03	225.32
957.32	225.32
957.62	225.32
957.92	225.35
958.21	225.33
958.51	225.47
958.81	225.49
959.10	225.50
959.40	225.53
959.69	225.53
959.99	225.55
960.29	225.55
960.58	225.55
960.88	225.60
961.17	225.58
961.47	225.59
961.76	225.57
962.06	225.60
962.36	225.58
962.65	225.58
962.95	225.59
963.24	225.58
963.54	225.58
963.83	225.59
964.13	225.58
964.42	225.58
964.72	225.47
965.01	225.47
965.31	225.46
965.60	225.42
965.90	225.50
966.19	225.47
966.49	225.48
966.78	225.48
967.08	225.46
967.37	225.46
967.67	225.44
967.96	225.46
968.26	225.45
968.55	225.47
968.85	225.47
969.14	225.47
969.43	225.47
969.73	225.45
970.02	225.45
970.32	225.44
970.61	225.42
970.91	225.38
971.20	225.37
971.49	225.36
971.79	225.37
972.08	225.28
972.38	225.29
972.67	225.29
972.96	225.31
973.26	225.28
973.55	225.32
973.85	225.32
974.14	225.30
974.43	225.31
974.73	225.29
975.02	225.28
975.31	225.28
975.61	225.28
975.90	225.27
976.19	225.26
976.49	225.27
976.78	225.28
977.07	225.28
977.37	225.29
977.66	225.30
977.95	225.28
978.24	225.30
978.54	225.32
978.83	225.31
979.12	225.30
979.42	225.31
979.71	225.28
980.00	225.27
980.29	225.28
980.59	225.26
980.88	225.29
981.17	225.29
981.46	225.30
981.76	225.30
982.05	225.34
982.34	225.35
982.63	225.34
982.93	225.34
983.22	225.37
983.51	225.38
983.80	225.40
984.09	225.42
984.39	225.41
984.68	225.39
984.97	225.40
985.26	225.39
985.55	225.40
985.85	225.38
986.14	225.40
986.43	225.41
986.72	225.41
987.01	225.37
987.30	225.36
987.59	225.36
987.89	225.36
988.18	225.32
988.47	225.31
988.76	225.31
989.05	225.30
989.34	225.27
989.63	225.30
989.92	225.28
990.22	225.26
990.51	225.26
990.80	225.25
991.09	225.26
991.38	225.28
991.67	225.26
991.96	225.25
992.25	225.25
992.54	225.23
992.83	225.23
993.12	225.23
993.41	225.25
993.70	225.30
993.99	225.32
994.28	225.34
994.58	225.36
994.87	225.35
995.16	225.35
995.45	225.34
995.74	225.29
996.03	225.31
996.32	225.33
996.61	225.36
996.90	225.36
997.19	225.35
997.48	225.34
997.77	225.33
998.06	225.34
998.34	225.33
998.63	225.33
998.92	225.34
999.21	225.36
999.50	225.35
999.79	225.31
1000.08	225.30
1000.37	225.30
1000.66	225.29
1000.95	225.32
1001.24	225.33
1001.53	225.35
1001.82	225.35
1002.11	225.32
1002.40	225.32
1002.68	225.35
1002.97	225.44
1003.26	225.43
1003.55	225.41
1003.84	225.42
1004.13	225.47
1004.42	225.46
1004.71	225.46
1004.99	225.45
1005.28	225.47
1005.57	225.47
1005.86	225.46
1006.15	225.44
1006.44	225.42
1006.72	225.44
1007.01	225.41
1007.30	225.41
1007.59	225.40
1007.88	225.40
1008.17	225.40
1008.45	225.38
1008.74	225.32
1009.03	225.26
1009.32	225.27
1009.60	225.27
1009.89	225.26
1010.18	225.20
1010.47	225.20
1010.76	225.20
1011.04	225.20
1011.33	225.19
1011.62	225.20
1011.91	225.21
1012.19	225.21
1012.48	225.22
1012.77	225.21
1013.05	225.26
1013.34	225.26
1013.63	225.25
1013.92	225.26
1014.20	225.25
1014.49	225.26
1014.78	225.27
1015.06	225.23
1015.35	225.23
1015.64	225.25
1015.92	225.27
1016.21	225.28
1016.50	225.28
1016.78	225.30
1017.07	225.31
1017.36	225.29
1017.64	225.27
1017.93	225.28
1018.22	225.27
1018.50	225.26
1018.79	225.26
1019.08	225.21
1019.36	225.22
1019.65	225.21
1019.93	225.25
1020.22	225.27
1020.51	225.33
1020.79	225.32
1021.08	225.07
1021.36	225.06
1021.65	225.26
1021.94	225.19
1022.22	225.33
1022.51	225.03
1022.79	225.89
1023.08	225.44
1023.36	226.76
1023.65	224.95
>>>>>End Processed Spectral Data<<<<<
