SpectraSuite Data File
++++++++++++++++++++++++++++++++++++
Date: Sat Oct 03 04:11:14 EDT 2015
User: lab3
Dark Spectrum Present: No
Reference Spectrum Present: No
Number of Sampled Component Spectra: 1
Spectrometers: USB2E7196
Integration Time (usec): 46000 (USB2E7196)
Spectra Averaged: 12000 (USB2E7196)
Boxcar Smoothing: 10 (USB2E7196)
Correct for Electrical Dark: No (USB2E7196)
Strobe/Lamp Enabled: No (USB2E7196)
Correct for Detector Non-linearity: No (USB2E7196)
Correct for Stray Light: No (USB2E7196)
Number of Pixels in Processed Spectrum: 2048
>>>>>Begin Processed Spectral Data<<<<<
339.09	0.00
339.48	213.61
339.86	215.06
340.24	216.43
340.63	217.85
341.01	221.12
341.39	220.56
341.78	221.92
342.16	223.21
342.54	223.54
342.93	212.04
343.31	222.75
343.69	223.29
344.07	223.75
344.46	224.18
344.84	224.57
345.22	224.79
345.60	225.04
345.99	225.23
346.37	225.37
346.75	225.48
347.13	225.55
347.52	225.63
347.90	225.72
348.28	225.75
348.66	225.81
349.05	225.80
349.43	225.86
349.81	225.91
350.19	225.97
350.57	226.04
350.96	226.12
351.34	226.22
351.72	226.31
352.10	226.42
352.48	226.49
352.87	226.55
353.25	226.61
353.63	226.68
354.01	226.74
354.39	226.82
354.77	226.89
355.15	227.00
355.54	227.05
355.92	227.07
356.30	227.15
356.68	227.31
357.06	227.38
357.44	227.43
357.82	227.49
358.20	227.61
358.58	227.67
358.97	227.73
359.35	227.81
359.73	227.90
360.11	227.95
360.49	228.01
360.87	228.06
361.25	228.12
361.63	228.21
362.01	228.27
362.39	228.29
362.77	228.34
363.15	228.37
363.53	228.40
363.91	228.44
364.29	228.46
364.67	228.36
365.05	228.38
365.43	228.42
365.81	228.45
366.19	228.47
366.57	228.53
366.95	228.53
367.33	228.50
367.71	228.50
368.09	228.52
368.47	228.51
368.85	228.50
369.23	228.52
369.61	228.46
369.99	228.48
370.37	228.48
370.75	228.55
371.13	228.52
371.51	228.48
371.89	228.46
372.27	228.44
372.65	228.42
373.03	228.38
373.41	228.34
373.78	228.29
374.16	228.18
374.54	228.10
374.92	228.05
375.30	228.01
375.68	227.94
376.06	227.90
376.44	227.84
376.82	227.80
377.19	227.76
377.57	227.70
377.95	227.61
378.33	227.55
378.71	227.39
379.09	227.34
379.47	227.31
379.84	227.24
380.22	227.18
380.60	227.11
380.98	227.06
381.36	227.01
381.73	226.95
382.11	226.92
382.49	226.88
382.87	226.82
383.25	226.78
383.62	226.88
384.00	226.81
384.38	226.77
384.76	226.76
385.13	226.75
385.51	226.71
385.89	226.66
386.27	226.63
386.64	226.62
387.02	226.57
387.40	226.52
387.78	226.50
388.15	226.48
388.53	226.45
388.91	226.41
389.29	226.38
389.66	226.38
390.04	226.33
390.42	226.33
390.79	226.32
391.17	226.29
391.55	226.13
391.92	226.12
392.30	226.12
392.68	226.08
393.05	226.06
393.43	226.06
393.81	226.07
394.18	226.05
394.56	226.05
394.94	226.08
395.31	226.08
395.69	226.13
396.06	226.16
396.44	226.18
396.82	226.20
397.19	226.28
397.57	226.30
397.95	226.34
398.32	226.33
398.70	226.38
399.07	226.45
399.45	226.49
399.82	226.54
400.20	226.57
400.58	226.64
400.95	226.65
401.33	226.73
401.70	226.88
402.08	226.99
402.45	227.07
402.83	227.19
403.20	227.30
403.58	227.39
403.95	227.53
404.33	227.68
404.71	227.83
405.08	228.04
405.46	228.20
405.83	228.39
406.21	228.59
406.58	228.81
406.96	229.02
407.33	229.28
407.70	229.55
408.08	229.94
408.45	230.28
408.83	230.64
409.20	230.97
409.58	231.26
409.95	231.67
410.33	232.11
410.70	232.52
411.08	233.02
411.45	233.53
411.82	234.05
412.20	234.66
412.57	235.37
412.95	235.93
413.32	236.66
413.69	237.41
414.07	238.21
414.44	239.07
414.82	239.96
415.19	241.00
415.56	242.05
415.94	243.13
416.31	244.35
416.68	245.57
417.06	246.98
417.43	248.31
417.81	249.83
418.18	251.39
418.55	253.08
418.93	254.85
419.30	256.69
419.67	258.64
420.04	260.65
420.42	262.74
420.79	265.16
421.16	267.61
421.54	270.09
421.91	272.68
422.28	275.37
422.66	278.26
423.03	281.03
423.40	283.93
423.77	287.04
424.15	290.22
424.52	293.54
424.89	297.13
425.26	300.70
425.64	304.03
426.01	307.76
426.38	311.58
426.75	315.51
427.13	319.55
427.50	323.77
427.87	328.17
428.24	332.60
428.61	336.85
428.99	341.45
429.36	346.50
429.73	351.33
430.10	356.17
430.47	361.11
430.85	366.20
431.22	371.66
431.59	377.28
431.96	382.76
432.33	388.85
432.70	394.65
433.08	401.48
433.45	407.95
433.82	414.32
434.19	421.44
434.56	428.46
434.93	435.23
435.30	441.93
435.68	449.51
436.05	456.92
436.42	464.32
436.79	471.06
437.16	478.34
437.53	486.13
437.90	493.93
438.27	501.56
438.64	509.81
439.01	517.28
439.38	524.11
439.75	530.69
440.13	538.10
440.50	545.14
440.87	550.73
441.24	556.85
441.61	563.53
441.98	568.39
442.35	574.15
442.72	580.03
443.09	585.63
443.46	589.14
443.83	591.71
444.20	593.83
444.57	597.03
444.94	598.81
445.31	600.65
445.68	602.21
446.05	603.31
446.42	602.85
446.79	602.19
447.16	601.60
447.53	601.04
447.90	598.55
448.27	596.17
448.64	592.62
449.01	590.11
449.37	585.23
449.74	580.80
450.11	575.13
450.48	568.94
450.85	562.75
451.22	557.45
451.59	552.28
451.96	547.62
452.33	540.85
452.70	534.86
453.07	527.56
453.43	520.28
453.80	513.22
454.17	506.46
454.54	500.24
454.91	493.22
455.28	486.67
455.65	480.49
456.02	473.97
456.38	468.71
456.75	461.97
457.12	456.53
457.49	451.05
457.86	445.89
458.23	441.39
458.59	436.39
458.96	431.27
459.33	426.77
459.70	422.18
460.07	418.71
460.43	414.62
460.80	410.80
461.17	407.50
461.54	403.90
461.91	400.54
462.27	397.13
462.64	394.39
463.01	391.21
463.38	388.02
463.74	385.13
464.11	382.58
464.48	380.31
464.85	377.81
465.21	375.94
465.58	373.84
465.95	371.41
466.32	369.49
466.68	367.60
467.05	365.70
467.42	363.86
467.78	361.84
468.15	360.00
468.52	358.66
468.88	356.84
469.25	355.19
469.62	353.88
469.98	352.44
470.35	351.16
470.72	350.01
471.08	348.82
471.45	347.83
471.82	346.72
472.18	345.54
472.55	344.79
472.92	343.82
473.28	343.08
473.65	342.27
474.02	341.50
474.38	340.85
474.75	340.46
475.11	339.93
475.48	339.67
475.85	339.39
476.21	339.24
476.58	339.14
476.94	339.27
477.31	339.32
477.67	339.40
478.04	339.59
478.41	339.86
478.77	340.28
479.14	340.53
479.50	341.02
479.87	341.68
480.23	342.32
480.60	342.96
480.96	343.61
481.33	344.59
481.69	345.55
482.06	346.51
482.42	347.39
482.79	348.48
483.15	349.76
483.52	351.20
483.88	352.59
484.25	354.08
484.61	355.62
484.98	357.29
485.34	359.18
485.71	361.14
486.07	363.25
486.44	365.35
486.80	367.70
487.17	370.14
487.53	372.82
487.90	375.61
488.26	378.66
488.62	381.87
488.99	385.08
489.35	388.47
489.72	392.14
490.08	396.00
490.44	399.98
490.81	404.13
491.17	408.38
491.54	412.95
491.90	417.66
492.26	422.71
492.63	428.00
492.99	433.51
493.36	439.23
493.72	445.24
494.08	451.39
494.45	457.93
494.81	464.72
495.17	471.69
495.54	479.05
495.90	486.72
496.26	494.55
496.63	502.64
496.99	511.03
497.35	519.80
497.72	528.89
498.08	538.17
498.44	547.76
498.80	557.93
499.17	568.35
499.53	579.11
499.89	590.24
500.26	601.59
500.62	613.24
500.98	625.51
501.34	637.98
501.71	650.96
502.07	664.12
502.43	677.80
502.79	691.74
503.16	706.13
503.52	720.72
503.88	735.73
504.24	751.20
504.60	766.89
504.97	783.05
505.33	799.64
505.69	817.12
506.05	834.97
506.41	852.75
506.78	870.71
507.14	889.16
507.50	908.07
507.86	927.34
508.22	946.83
508.59	966.17
508.95	986.29
509.31	1007.14
509.67	1028.72
510.03	1050.32
510.39	1071.95
510.75	1093.77
511.12	1115.86
511.48	1138.17
511.84	1160.50
512.20	1183.21
512.56	1206.80
512.92	1230.42
513.28	1253.68
513.64	1277.19
514.00	1301.15
514.37	1325.43
514.73	1349.70
515.09	1373.85
515.45	1398.30
515.81	1422.98
516.17	1447.77
516.53	1472.13
516.89	1496.38
517.25	1520.78
517.61	1545.08
517.97	1569.85
518.33	1594.13
518.69	1618.34
519.05	1642.98
519.41	1667.90
519.77	1693.15
520.13	1717.60
520.49	1741.99
520.85	1766.67
521.21	1791.01
521.57	1815.69
521.93	1839.88
522.29	1864.59
522.65	1888.76
523.01	1912.91
523.37	1936.65
523.73	1961.09
524.09	1985.27
524.45	2009.25
524.81	2032.85
525.17	2056.31
525.53	2079.21
525.89	2102.54
526.25	2125.87
526.61	2148.22
526.97	2170.73
527.33	2193.07
527.68	2215.23
528.04	2236.60
528.40	2257.08
528.76	2277.66
529.12	2297.84
529.48	2317.79
529.84	2335.87
530.20	2354.57
530.56	2372.68
530.91	2390.91
531.27	2408.81
531.63	2425.86
531.99	2442.40
532.35	2458.33
532.71	2474.42
533.07	2491.19
533.42	2506.12
533.78	2522.02
534.14	2538.11
534.50	2553.30
534.86	2568.28
535.21	2581.32
535.57	2594.85
535.93	2608.14
536.29	2620.40
536.65	2632.40
537.00	2643.63
537.36	2655.85
537.72	2666.70
538.08	2677.04
538.44	2686.71
538.79	2695.99
539.15	2704.47
539.51	2712.65
539.87	2720.22
540.22	2725.67
540.58	2731.16
540.94	2737.81
541.29	2743.00
541.65	2746.46
542.01	2749.08
542.37	2751.03
542.72	2754.33
543.08	2755.96
543.44	2758.19
543.79	2759.31
544.15	2759.63
544.51	2760.37
544.87	2759.94
545.22	2758.83
545.58	2757.03
545.94	2755.20
546.29	2752.08
546.65	2748.94
547.01	2745.62
547.36	2743.02
547.72	2740.72
548.07	2736.62
548.43	2731.15
548.79	2724.61
549.14	2719.31
549.50	2714.40
549.86	2708.56
550.21	2701.55
550.57	2695.49
550.92	2687.15
551.28	2679.35
551.64	2671.91
551.99	2663.98
552.35	2655.48
552.70	2647.16
553.06	2639.19
553.41	2630.63
553.77	2621.80
554.13	2612.92
554.48	2603.30
554.84	2592.36
555.19	2581.81
555.55	2571.35
555.90	2560.94
556.26	2551.09
556.61	2540.21
556.97	2527.67
557.32	2515.64
557.68	2503.57
558.03	2491.17
558.39	2479.97
558.74	2469.11
559.10	2456.47
559.45	2444.04
559.81	2432.24
560.16	2419.83
560.52	2407.67
560.87	2395.84
561.23	2383.21
561.58	2370.64
561.94	2357.75
562.29	2344.35
562.64	2331.65
563.00	2318.62
563.35	2305.98
563.71	2293.21
564.06	2280.31
564.42	2268.13
564.77	2255.32
565.12	2242.41
565.48	2229.52
565.83	2216.57
566.19	2203.74
566.54	2190.92
566.89	2176.96
567.25	2163.09
567.60	2150.60
567.96	2137.18
568.31	2122.44
568.66	2108.36
569.02	2095.53
569.37	2082.60
569.72	2070.13
570.08	2056.42
570.43	2042.39
570.78	2028.24
571.14	2013.34
571.49	1999.04
571.84	1985.27
572.20	1970.34
572.55	1955.61
572.90	1940.85
573.26	1926.07
573.61	1910.83
573.96	1896.02
574.31	1881.40
574.67	1866.92
575.02	1851.33
575.37	1835.85
575.72	1821.17
576.08	1806.88
576.43	1791.42
576.78	1776.37
577.13	1761.60
577.49	1747.19
577.84	1733.38
578.19	1718.63
578.54	1704.05
578.90	1688.98
579.25	1673.82
579.60	1660.20
579.95	1646.54
580.30	1632.66
580.66	1618.56
581.01	1604.31
581.36	1589.99
581.71	1576.72
582.06	1563.36
582.42	1550.23
582.77	1537.17
583.12	1524.08
583.47	1510.82
583.82	1497.71
584.17	1484.25
584.53	1470.47
584.88	1457.05
585.23	1443.19
585.58	1430.12
585.93	1417.27
586.28	1405.19
586.63	1393.08
586.98	1380.55
587.34	1368.06
587.69	1355.21
588.04	1342.71
588.39	1330.62
588.74	1318.70
589.09	1306.54
589.44	1293.93
589.79	1281.95
590.14	1270.11
590.49	1258.18
590.84	1246.44
591.19	1235.04
591.54	1223.46
591.89	1212.03
592.25	1200.78
592.60	1189.17
592.95	1177.98
593.30	1167.02
593.65	1155.72
594.00	1144.58
594.35	1133.95
594.70	1122.88
595.05	1112.76
595.40	1102.52
595.75	1092.14
596.10	1082.28
596.45	1072.15
596.80	1062.38
597.15	1052.31
597.50	1042.40
597.85	1032.94
598.19	1023.28
598.54	1013.64
598.89	1004.50
599.24	995.66
599.59	986.62
599.94	978.53
600.29	970.21
600.64	961.64
600.99	952.69
601.34	944.09
601.69	935.16
602.04	926.93
602.39	918.50
602.74	910.14
603.08	901.73
603.43	893.27
603.78	884.99
604.13	876.87
604.48	868.79
604.83	860.87
605.18	852.82
605.53	844.96
605.87	836.94
606.22	829.19
606.57	821.39
606.92	813.54
607.27	805.59
607.62	797.94
607.96	790.72
608.31	783.94
608.66	776.94
609.01	770.24
609.36	763.61
609.70	756.79
610.05	749.93
610.40	743.35
610.75	736.76
611.10	730.52
611.44	724.09
611.79	717.78
612.14	711.40
612.49	705.10
612.83	699.10
613.18	693.24
613.53	687.27
613.88	681.33
614.22	675.78
614.57	670.19
614.92	664.46
615.27	658.83
615.61	653.24
615.96	647.72
616.31	642.21
616.65	636.76
617.00	631.52
617.35	626.39
617.70	621.29
618.04	616.27
618.39	611.17
618.74	606.33
619.08	601.51
619.43	596.82
619.78	592.14
620.12	587.40
620.47	582.84
620.82	578.41
621.16	574.01
621.51	569.49
621.85	565.00
622.20	560.67
622.55	556.37
622.89	552.16
623.24	547.96
623.59	543.79
623.93	539.78
624.28	535.86
624.62	532.03
624.97	528.24
625.32	524.41
625.66	520.54
626.01	516.64
626.35	512.82
626.70	509.03
627.04	505.44
627.39	501.77
627.73	498.28
628.08	494.87
628.43	491.45
628.77	488.11
629.12	484.91
629.46	481.73
629.81	478.45
630.15	475.16
630.50	471.98
630.84	468.85
631.19	465.79
631.53	462.82
631.88	459.83
632.22	456.86
632.57	454.18
632.91	451.55
633.26	448.98
633.60	446.43
633.95	443.94
634.29	441.38
634.64	438.89
634.98	436.20
635.32	433.66
635.67	431.31
636.01	428.89
636.36	426.51
636.70	424.27
637.05	422.04
637.39	419.84
637.73	417.66
638.08	415.61
638.42	413.51
638.77	411.29
639.11	408.99
639.45	406.80
639.80	404.54
640.14	402.38
640.49	400.23
640.83	398.04
641.17	395.95
641.52	393.91
641.86	391.88
642.20	390.07
642.55	388.10
642.89	386.15
643.23	384.29
643.58	382.59
643.92	380.77
644.26	379.01
644.61	377.31
644.95	375.58
645.29	373.76
645.64	371.97
645.98	370.28
646.32	368.71
646.66	367.11
647.01	365.54
647.35	364.01
647.69	362.46
648.04	361.06
648.38	359.57
648.72	358.10
649.06	356.64
649.41	355.19
649.75	353.80
650.09	352.42
650.43	351.05
650.78	349.62
651.12	348.23
651.46	346.90
651.80	345.59
652.14	344.31
652.49	343.09
652.83	341.84
653.17	340.63
653.51	339.45
653.85	338.34
654.20	337.18
654.54	335.94
654.88	334.80
655.22	333.67
655.56	332.53
655.90	331.46
656.25	330.41
656.59	329.36
656.93	328.37
657.27	327.38
657.61	326.34
657.95	325.35
658.29	324.35
658.64	323.40
658.98	322.44
659.32	321.51
659.66	320.63
660.00	319.77
660.34	318.91
660.68	318.02
661.02	317.10
661.36	316.22
661.70	315.38
662.05	314.55
662.39	313.74
662.73	313.00
663.07	312.28
663.41	311.50
663.75	310.72
664.09	309.94
664.43	309.14
664.77	308.41
665.11	307.65
665.45	306.95
665.79	306.26
666.13	305.53
666.47	304.79
666.81	304.03
667.15	303.26
667.49	302.59
667.83	301.97
668.17	301.32
668.51	300.71
668.85	300.14
669.19	299.60
669.53	298.96
669.87	298.30
670.21	297.66
670.55	297.08
670.89	296.56
671.23	296.00
671.57	295.45
671.91	294.95
672.25	294.48
672.58	294.00
672.92	293.43
673.26	292.95
673.60	292.48
673.94	292.02
674.28	291.59
674.62	291.12
674.96	290.60
675.30	290.15
675.64	289.66
675.97	289.15
676.31	288.62
676.65	288.14
676.99	287.73
677.33	287.24
677.67	286.79
678.01	286.27
678.34	285.83
678.68	285.41
679.02	284.93
679.36	284.46
679.70	284.00
680.04	283.57
680.37	283.14
680.71	282.72
681.05	282.33
681.39	281.89
681.73	281.43
682.06	280.99
682.40	280.56
682.74	280.20
683.08	279.88
683.42	279.49
683.75	279.14
684.09	278.70
684.43	278.33
684.77	277.94
685.10	277.61
685.44	277.25
685.78	276.89
686.12	276.55
686.45	276.17
686.79	275.79
687.13	275.45
687.46	275.06
687.80	274.70
688.14	274.30
688.48	273.96
688.81	273.60
689.15	273.29
689.49	272.92
689.82	272.54
690.16	272.11
690.50	271.76
690.83	271.40
691.17	271.04
691.51	270.69
691.84	270.37
692.18	270.00
692.52	269.62
692.85	269.27
693.19	268.96
693.52	268.61
693.86	268.27
694.20	267.94
694.53	267.62
694.87	267.26
695.21	266.93
695.54	266.59
695.88	266.24
696.21	265.87
696.55	265.54
696.88	265.22
697.22	264.90
697.56	264.57
697.89	264.21
698.23	263.89
698.56	263.54
698.90	263.22
699.23	262.87
699.57	262.54
699.90	262.21
700.24	261.86
700.58	261.56
700.91	261.29
701.25	261.09
701.58	260.84
701.92	260.58
702.25	260.30
702.59	259.99
702.92	259.71
703.26	259.41
703.59	259.10
703.93	258.91
704.26	258.63
704.60	258.33
704.93	258.04
705.26	257.74
705.60	257.50
705.93	257.18
706.27	256.95
706.60	256.70
706.94	256.48
707.27	256.17
707.61	255.88
707.94	255.57
708.27	255.17
708.61	254.83
708.94	254.53
709.28	254.26
709.61	253.98
709.94	253.73
710.28	253.50
710.61	253.27
710.95	252.91
711.28	252.74
711.61	252.50
711.95	252.29
712.28	252.04
712.61	251.77
712.95	251.61
713.28	251.43
713.61	251.15
713.95	250.87
714.28	250.65
714.61	250.41
714.95	250.18
715.28	249.96
715.61	249.74
715.95	249.54
716.28	249.33
716.61	249.15
716.95	248.92
717.28	248.70
717.61	248.47
717.94	248.26
718.28	247.96
718.61	247.74
718.94	247.50
719.27	247.30
719.61	247.12
719.94	246.88
720.27	246.59
720.60	246.40
720.94	246.20
721.27	246.01
721.60	245.84
721.93	245.65
722.27	245.50
722.60	245.32
722.93	245.11
723.26	244.92
723.59	244.70
723.93	244.52
724.26	244.35
724.59	244.16
724.92	243.99
725.25	243.86
725.59	243.70
725.92	243.55
726.25	243.39
726.58	243.22
726.91	243.04
727.24	242.90
727.57	242.74
727.91	242.56
728.24	242.43
728.57	242.25
728.90	242.11
729.23	241.91
729.56	241.80
729.89	241.65
730.22	241.48
730.55	241.33
730.89	241.18
731.22	241.02
731.55	240.88
731.88	240.73
732.21	240.55
732.54	240.40
732.87	240.26
733.20	240.13
733.53	239.98
733.86	239.85
734.19	239.70
734.52	239.59
734.85	239.54
735.18	239.38
735.51	239.28
735.84	239.16
736.17	239.07
736.50	238.87
736.83	238.89
737.16	238.78
737.49	238.66
737.82	238.53
738.15	238.44
738.48	238.31
738.81	238.18
739.14	238.05
739.47	237.92
739.80	237.79
740.13	237.68
740.46	237.54
740.79	237.41
741.12	237.29
741.45	237.14
741.78	236.95
742.11	236.87
742.44	236.72
742.77	236.62
743.10	236.49
743.43	236.38
743.75	236.13
744.08	236.22
744.41	236.10
744.74	235.99
745.07	235.85
745.40	235.77
745.73	235.73
746.06	235.63
746.39	235.55
746.71	235.45
747.04	235.34
747.37	235.25
747.70	235.18
748.03	235.10
748.36	235.03
748.68	234.93
749.01	234.80
749.34	234.72
749.67	234.63
750.00	234.56
750.33	234.57
750.65	234.49
750.98	234.21
751.31	234.12
751.64	234.04
751.97	234.03
752.29	233.93
752.62	233.79
752.95	233.70
753.28	233.59
753.60	233.51
753.93	233.45
754.26	233.38
754.59	233.25
754.91	233.15
755.24	233.05
755.57	233.03
755.90	232.95
756.22	232.86
756.55	232.75
756.88	232.65
757.20	232.48
757.53	232.36
757.86	232.29
758.19	232.22
758.51	232.14
758.84	232.00
759.17	231.92
759.49	231.85
759.82	231.84
760.15	231.79
760.47	231.72
760.80	231.61
761.13	231.57
761.45	231.51
761.78	231.45
762.11	231.39
762.43	231.26
762.76	231.20
763.08	231.16
763.41	231.11
763.74	231.05
764.06	231.00
764.39	230.95
764.71	230.89
765.04	230.82
765.37	230.75
765.69	230.70
766.02	230.64
766.34	230.58
766.67	230.47
767.00	230.44
767.32	230.46
767.65	230.49
767.97	230.43
768.30	230.38
768.62	230.34
768.95	230.27
769.27	230.22
769.60	230.19
769.92	230.12
770.25	230.05
770.57	229.98
770.90	229.93
771.22	229.87
771.55	229.83
771.87	229.79
772.20	229.75
772.52	229.82
772.85	229.93
773.17	229.89
773.50	229.85
773.82	229.79
774.15	229.68
774.47	229.56
774.80	229.51
775.12	229.47
775.45	229.43
775.77	229.40
776.09	229.38
776.42	229.34
776.74	229.35
777.07	229.32
777.39	229.30
777.72	229.25
778.04	229.24
778.36	229.20
778.69	229.17
779.01	229.15
779.33	229.01
779.66	228.83
779.98	228.79
780.31	228.77
780.63	228.79
780.95	228.78
781.28	228.75
781.60	228.72
781.92	228.69
782.25	228.66
782.57	228.63
782.89	228.60
783.22	228.56
783.54	228.51
783.86	228.49
784.19	228.46
784.51	228.48
784.83	228.44
785.16	228.41
785.48	228.39
785.80	228.36
786.12	228.35
786.45	228.33
786.77	228.32
787.09	228.29
787.42	228.21
787.74	228.19
788.06	228.18
788.38	228.15
788.71	228.12
789.03	228.11
789.35	228.10
789.67	228.07
789.99	228.06
790.32	228.02
790.64	228.01
790.96	228.11
791.28	228.04
791.61	228.02
791.93	228.01
792.25	227.98
792.57	228.05
792.89	228.01
793.21	228.00
793.54	227.96
793.86	227.92
794.18	227.91
794.50	227.87
794.82	227.85
795.14	227.85
795.47	227.85
795.79	227.83
796.11	227.79
796.43	227.77
796.75	227.74
797.07	227.74
797.39	227.71
797.71	227.59
798.04	227.58
798.36	227.57
798.68	227.55
799.00	227.54
799.32	227.46
799.64	227.47
799.96	227.45
800.28	227.46
800.60	227.44
800.92	227.44
801.24	227.42
801.56	227.41
801.89	227.38
802.21	227.37
802.53	227.34
802.85	227.35
803.17	227.40
803.49	227.36
803.81	227.33
804.13	227.31
804.45	227.28
804.77	227.28
805.09	227.26
805.41	227.24
805.73	227.21
806.05	227.16
806.37	227.14
806.69	227.11
807.01	227.09
807.33	227.08
807.65	227.03
807.97	227.08
808.28	227.05
808.60	227.03
808.92	227.00
809.24	227.07
809.56	227.04
809.88	226.99
810.20	226.98
810.52	227.00
810.84	226.97
811.16	226.95
811.48	226.92
811.80	226.96
812.12	226.94
812.43	226.96
812.75	226.95
813.07	226.93
813.39	226.93
813.71	226.90
814.03	226.88
814.35	226.88
814.67	226.81
814.98	226.79
815.30	226.78
815.62	226.75
815.94	226.66
816.26	226.67
816.58	226.63
816.89	226.64
817.21	226.60
817.53	226.61
817.85	226.61
818.17	226.60
818.48	226.54
818.80	226.55
819.12	226.52
819.44	226.49
819.76	226.47
820.07	226.47
820.39	226.46
820.71	226.47
821.03	226.46
821.34	226.44
821.66	226.45
821.98	226.46
822.30	226.45
822.61	226.52
822.93	226.49
823.25	226.48
823.57	226.46
823.88	226.48
824.20	226.46
824.52	226.48
824.83	226.46
825.15	226.45
825.47	226.43
825.79	226.44
826.10	226.43
826.42	226.42
826.74	226.42
827.05	226.41
827.37	226.41
827.69	226.39
828.00	226.40
828.32	226.39
828.64	226.36
828.95	226.43
829.27	226.38
829.58	226.38
829.90	226.40
830.22	226.40
830.53	226.37
830.85	226.36
831.17	226.32
831.48	226.31
831.80	226.31
832.11	226.30
832.43	226.28
832.75	226.28
833.06	226.35
833.38	226.31
833.69	226.30
834.01	226.30
834.32	226.30
834.64	226.28
834.96	226.27
835.27	226.27
835.59	226.22
835.90	226.20
836.22	226.18
836.53	226.15
836.85	226.13
837.16	226.26
837.48	226.25
837.79	226.29
838.11	226.29
838.42	226.29
838.74	226.30
839.05	226.29
839.37	226.28
839.68	226.19
840.00	226.19
840.31	226.20
840.63	226.18
840.94	226.17
841.26	226.16
841.57	226.15
841.88	226.15
842.20	226.13
842.51	226.11
842.83	226.10
843.14	226.21
843.46	226.21
843.77	226.13
844.08	226.12
844.40	226.08
844.71	226.06
845.03	226.05
845.34	226.03
845.65	226.03
845.97	226.03
846.28	226.03
846.60	226.04
846.91	226.01
847.22	226.00
847.54	226.03
847.85	226.03
848.16	226.02
848.48	225.99
848.79	226.04
849.10	226.06
849.42	226.06
849.73	225.94
850.04	225.94
850.36	225.90
850.67	225.92
850.98	225.92
851.30	225.92
851.61	225.92
851.92	225.92
852.23	225.95
852.55	225.96
852.86	225.96
853.17	225.96
853.49	225.99
853.80	226.01
854.11	226.02
854.42	226.03
854.74	226.01
855.05	226.01
855.36	225.95
855.67	225.95
855.99	225.95
856.30	226.10
856.61	226.09
856.92	226.10
857.23	226.09
857.55	226.08
857.86	226.07
858.17	226.09
858.48	226.07
858.79	226.04
859.11	226.05
859.42	226.04
859.73	226.02
860.04	226.01
860.35	225.97
860.66	225.93
860.98	225.92
861.29	225.94
861.60	225.93
861.91	225.96
862.22	225.94
862.53	225.92
862.84	225.77
863.16	225.80
863.47	225.78
863.78	225.75
864.09	225.76
864.40	225.77
864.71	225.77
865.02	225.78
865.33	225.77
865.64	225.74
865.95	225.74
866.27	225.82
866.58	225.81
866.89	225.82
867.20	225.82
867.51	225.80
867.82	225.79
868.13	225.83
868.44	225.80
868.75	225.83
869.06	225.83
869.37	225.84
869.68	225.80
869.99	225.82
870.30	225.83
870.61	225.84
870.92	225.83
871.23	225.81
871.54	225.83
871.85	225.86
872.16	225.87
872.47	225.86
872.78	225.79
873.09	225.80
873.40	225.78
873.71	225.79
874.02	225.80
874.33	225.79
874.64	225.76
874.95	225.78
875.26	225.75
875.56	225.74
875.87	225.74
876.18	225.73
876.49	225.86
876.80	225.84
877.11	225.82
877.42	225.82
877.73	225.82
878.04	225.80
878.35	225.79
878.66	225.79
878.96	225.79
879.27	225.78
879.58	225.78
879.89	225.78
880.20	225.82
880.51	225.81
880.82	225.81
881.12	225.82
881.43	225.79
881.74	225.78
882.05	225.78
882.36	225.78
882.67	225.79
882.97	225.65
883.28	225.64
883.59	225.64
883.90	225.65
884.21	225.67
884.51	225.66
884.82	225.64
885.13	225.64
885.44	225.64
885.74	225.64
886.05	225.63
886.36	225.62
886.67	225.58
886.98	225.64
887.28	225.65
887.59	225.65
887.90	225.65
888.20	225.65
888.51	225.67
888.82	225.66
889.13	225.66
889.43	225.78
889.74	225.77
890.05	225.77
890.35	225.76
890.66	225.73
890.97	225.72
891.28	225.71
891.58	225.71
891.89	225.71
892.20	225.70
892.50	225.69
892.81	225.68
893.12	225.67
893.42	225.61
893.73	225.61
894.04	225.60
894.34	225.61
894.65	225.61
894.95	225.60
895.26	225.60
895.57	225.65
895.87	225.52
896.18	225.54
896.48	225.55
896.79	225.55
897.10	225.57
897.40	225.57
897.71	225.59
898.01	225.58
898.32	225.59
898.63	225.59
898.93	225.60
899.24	225.61
899.54	225.60
899.85	225.60
900.15	225.59
900.46	225.59
900.76	225.60
901.07	225.60
901.38	225.59
901.68	225.60
901.99	225.54
902.29	225.55
902.60	225.54
902.90	225.53
903.21	225.52
903.51	225.51
903.82	225.53
904.12	225.52
904.43	225.53
904.73	225.52
905.03	225.53
905.34	225.65
905.64	225.64
905.95	225.64
906.25	225.64
906.56	225.63
906.86	225.63
907.17	225.62
907.47	225.63
907.77	225.61
908.08	225.59
908.38	225.59
908.69	225.60
908.99	225.62
909.30	225.63
909.60	225.63
909.90	225.65
910.21	225.61
910.51	225.59
910.81	225.59
911.12	225.60
911.42	225.60
911.73	225.47
912.03	225.48
912.33	225.51
912.64	225.50
912.94	225.48
913.24	225.46
913.55	225.45
913.85	225.45
914.15	225.47
914.46	225.48
914.76	225.47
915.06	225.47
915.37	225.44
915.67	225.43
915.97	225.43
916.27	225.40
916.58	225.41
916.88	225.41
917.18	225.40
917.49	225.48
917.79	225.47
918.09	225.49
918.39	225.52
918.70	225.51
919.00	225.52
919.30	225.58
919.60	225.58
919.91	225.57
920.21	225.57
920.51	225.54
920.81	225.54
921.12	225.56
921.42	225.55
921.72	225.56
922.02	225.57
922.32	225.58
922.63	225.59
922.93	225.66
923.23	225.66
923.53	225.66
923.83	225.57
924.13	225.58
924.44	225.57
924.74	225.59
925.04	225.62
925.34	225.61
925.64	225.55
925.94	225.56
926.24	225.62
926.55	225.61
926.85	225.63
927.15	225.63
927.45	225.63
927.75	225.63
928.05	225.63
928.35	225.62
928.65	225.64
928.95	225.65
929.26	225.58
929.56	225.61
929.86	225.62
930.16	225.61
930.46	225.60
930.76	225.60
931.06	225.55
931.36	225.51
931.66	225.53
931.96	225.54
932.26	225.55
932.56	225.49
932.86	225.51
933.16	225.50
933.46	225.49
933.76	225.47
934.06	225.50
934.36	225.54
934.66	225.53
934.96	225.51
935.26	225.51
935.56	225.53
935.86	225.50
936.16	225.47
936.46	225.46
936.76	225.46
937.06	225.44
937.36	225.45
937.66	225.45
937.96	225.44
938.26	225.42
938.56	225.41
938.86	225.41
939.16	225.44
939.46	225.44
939.76	225.45
940.06	225.45
940.35	225.43
940.65	225.36
940.95	225.37
941.25	225.35
941.55	225.33
941.85	225.32
942.15	225.35
942.45	225.39
942.75	225.39
943.04	225.39
943.34	225.42
943.64	225.41
943.94	225.39
944.24	225.39
944.54	225.40
944.84	225.40
945.13	225.38
945.43	225.35
945.73	225.35
946.03	225.33
946.33	225.33
946.62	225.31
946.92	225.31
947.22	225.32
947.52	225.33
947.82	225.34
948.11	225.33
948.41	225.30
948.71	225.27
949.01	225.27
949.31	225.26
949.60	225.25
949.90	225.27
950.20	225.27
950.50	225.26
950.79	225.25
951.09	225.27
951.39	225.27
951.69	225.26
951.98	225.28
952.28	225.29
952.58	225.28
952.87	225.29
953.17	225.31
953.47	225.29
953.76	225.28
954.06	225.26
954.36	225.25
954.66	225.25
954.95	225.28
955.25	225.29
955.55	225.30
955.84	225.28
956.14	225.29
956.44	225.30
956.73	225.28
957.03	225.29
957.32	225.29
957.62	225.29
957.92	225.31
958.21	225.30
958.51	225.44
958.81	225.46
959.10	225.47
959.40	225.50
959.69	225.51
959.99	225.53
960.29	225.54
960.58	225.54
960.88	225.59
961.17	225.57
961.47	225.58
961.76	225.57
962.06	225.59
962.36	225.58
962.65	225.58
962.95	225.59
963.24	225.58
963.54	225.58
963.83	225.59
964.13	225.58
964.42	225.57
964.72	225.46
965.01	225.46
965.31	225.45
965.60	225.42
965.90	225.50
966.19	225.46
966.49	225.47
966.78	225.46
967.08	225.44
967.37	225.44
967.67	225.42
967.96	225.44
968.26	225.44
968.55	225.46
968.85	225.45
969.14	225.45
969.43	225.45
969.73	225.44
970.02	225.43
970.32	225.42
970.61	225.40
970.91	225.37
971.20	225.35
971.49	225.34
971.79	225.35
972.08	225.26
972.38	225.28
972.67	225.27
972.96	225.29
973.26	225.26
973.55	225.30
973.85	225.29
974.14	225.28
974.43	225.29
974.73	225.26
975.02	225.24
975.31	225.25
975.61	225.24
975.90	225.24
976.19	225.23
976.49	225.24
976.78	225.25
977.07	225.25
977.37	225.26
977.66	225.27
977.95	225.25
978.24	225.27
978.54	225.29
978.83	225.29
979.12	225.28
979.42	225.28
979.71	225.26
980.00	225.25
980.29	225.26
980.59	225.24
980.88	225.28
981.17	225.28
981.46	225.27
981.76	225.27
982.05	225.31
982.34	225.32
982.63	225.31
982.93	225.31
983.22	225.35
983.51	225.35
983.80	225.37
984.09	225.39
984.39	225.38
984.68	225.36
984.97	225.36
985.26	225.36
985.55	225.36
985.85	225.34
986.14	225.36
986.43	225.38
986.72	225.37
987.01	225.33
987.30	225.33
987.59	225.32
987.89	225.33
988.18	225.29
988.47	225.28
988.76	225.27
989.05	225.26
989.34	225.24
989.63	225.27
989.92	225.24
990.22	225.22
990.51	225.22
990.80	225.21
991.09	225.22
991.38	225.23
991.67	225.22
991.96	225.21
992.25	225.21
992.54	225.19
992.83	225.19
993.12	225.19
993.41	225.21
993.70	225.26
993.99	225.28
994.28	225.30
994.58	225.32
994.87	225.31
995.16	225.31
995.45	225.30
995.74	225.25
996.03	225.27
996.32	225.29
996.61	225.32
996.90	225.32
997.19	225.31
997.48	225.31
997.77	225.29
998.06	225.30
998.34	225.29
998.63	225.29
998.92	225.29
999.21	225.32
999.50	225.31
999.79	225.26
1000.08	225.26
1000.37	225.25
1000.66	225.23
1000.95	225.27
1001.24	225.28
1001.53	225.30
1001.82	225.30
1002.11	225.27
1002.40	225.28
1002.68	225.31
1002.97	225.40
1003.26	225.39
1003.55	225.37
1003.84	225.38
1004.13	225.43
1004.42	225.42
1004.71	225.42
1004.99	225.42
1005.28	225.44
1005.57	225.43
1005.86	225.43
1006.15	225.41
1006.44	225.40
1006.72	225.41
1007.01	225.39
1007.30	225.39
1007.59	225.38
1007.88	225.38
1008.17	225.39
1008.45	225.37
1008.74	225.32
1009.03	225.25
1009.32	225.26
1009.60	225.26
1009.89	225.24
1010.18	225.19
1010.47	225.19
1010.76	225.18
1011.04	225.18
1011.33	225.17
1011.62	225.18
1011.91	225.19
1012.19	225.20
1012.48	225.21
1012.77	225.21
1013.05	225.25
1013.34	225.25
1013.63	225.24
1013.92	225.25
1014.20	225.24
1014.49	225.25
1014.78	225.26
1015.06	225.22
1015.35	225.22
1015.64	225.24
1015.92	225.26
1016.21	225.27
1016.50	225.27
1016.78	225.29
1017.07	225.30
1017.36	225.28
1017.64	225.26
1017.93	225.27
1018.22	225.26
1018.50	225.25
1018.79	225.25
1019.08	225.20
1019.36	225.21
1019.65	225.20
1019.93	225.23
1020.22	225.25
1020.51	225.31
1020.79	225.30
1021.08	225.03
1021.36	225.04
1021.65	225.24
1021.94	225.15
1022.22	225.35
1022.51	225.00
1022.79	225.87
1023.08	225.35
1023.36	226.73
1023.65	224.95
>>>>>End Processed Spectral Data<<<<<
