SpectraSuite Data File
++++++++++++++++++++++++++++++++++++
Date: Sun Oct 04 14:15:35 EDT 2015
User: lab3
Dark Spectrum Present: No
Reference Spectrum Present: No
Number of Sampled Component Spectra: 1
Spectrometers: USB2E7196
Integration Time (usec): 46000 (USB2E7196)
Spectra Averaged: 24000 (USB2E7196)
Boxcar Smoothing: 10 (USB2E7196)
Correct for Electrical Dark: No (USB2E7196)
Strobe/Lamp Enabled: No (USB2E7196)
Correct for Detector Non-linearity: No (USB2E7196)
Correct for Stray Light: No (USB2E7196)
Number of Pixels in Processed Spectrum: 2048
>>>>>Begin Processed Spectral Data<<<<<
339.09	0.00
339.48	214.10
339.86	215.56
340.24	216.93
340.63	218.36
341.01	221.65
341.39	221.11
341.78	222.47
342.16	223.71
342.54	224.09
342.93	212.54
343.31	223.28
343.69	223.82
344.07	224.28
344.46	224.71
344.84	225.11
345.22	225.33
345.60	225.59
345.99	225.79
346.37	225.93
346.75	226.04
347.13	226.12
347.52	226.20
347.90	226.29
348.28	226.33
348.66	226.40
349.05	226.40
349.43	226.46
349.81	226.52
350.19	226.58
350.57	226.65
350.96	226.74
351.34	226.84
351.72	226.94
352.10	227.05
352.48	227.13
352.87	227.18
353.25	227.25
353.63	227.31
354.01	227.37
354.39	227.45
354.77	227.52
355.15	227.63
355.54	227.68
355.92	227.71
356.30	227.79
356.68	227.94
357.06	228.01
357.44	228.06
357.82	228.12
358.20	228.24
358.58	228.30
358.97	228.36
359.35	228.45
359.73	228.53
360.11	228.58
360.49	228.64
360.87	228.69
361.25	228.75
361.63	228.85
362.01	228.90
362.39	228.93
362.77	228.97
363.15	228.99
363.53	229.03
363.91	229.07
364.29	229.09
364.67	228.99
365.05	229.01
365.43	229.04
365.81	229.07
366.19	229.09
366.57	229.15
366.95	229.14
367.33	229.11
367.71	229.10
368.09	229.12
368.47	229.12
368.85	229.11
369.23	229.12
369.61	229.06
369.99	229.08
370.37	229.08
370.75	229.15
371.13	229.12
371.51	229.07
371.89	229.06
372.27	229.03
372.65	229.01
373.03	228.97
373.41	228.93
373.78	228.87
374.16	228.77
374.54	228.69
374.92	228.64
375.30	228.60
375.68	228.53
376.06	228.48
376.44	228.43
376.82	228.39
377.19	228.34
377.57	228.29
377.95	228.20
378.33	228.14
378.71	227.97
379.09	227.93
379.47	227.90
379.84	227.84
380.22	227.77
380.60	227.70
380.98	227.65
381.36	227.60
381.73	227.54
382.11	227.52
382.49	227.48
382.87	227.42
383.25	227.38
383.62	227.49
384.00	227.42
384.38	227.38
384.76	227.37
385.13	227.36
385.51	227.33
385.89	227.28
386.27	227.25
386.64	227.23
387.02	227.19
387.40	227.14
387.78	227.12
388.15	227.10
388.53	227.08
388.91	227.05
389.29	227.02
389.66	227.01
390.04	226.98
390.42	226.98
390.79	226.97
391.17	226.95
391.55	226.79
391.92	226.78
392.30	226.79
392.68	226.75
393.05	226.73
393.43	226.73
393.81	226.75
394.18	226.73
394.56	226.73
394.94	226.77
395.31	226.77
395.69	226.82
396.06	226.85
396.44	226.88
396.82	226.90
397.19	226.99
397.57	227.00
397.95	227.06
398.32	227.05
398.70	227.10
399.07	227.17
399.45	227.22
399.82	227.27
400.20	227.31
400.58	227.38
400.95	227.40
401.33	227.50
401.70	227.66
402.08	227.78
402.45	227.87
402.83	228.00
403.20	228.13
403.58	228.23
403.95	228.39
404.33	228.55
404.71	228.71
405.08	228.94
405.46	229.13
405.83	229.34
406.21	229.56
406.58	229.81
406.96	230.05
407.33	230.33
407.70	230.65
408.08	231.07
408.45	231.44
408.83	231.85
409.20	232.22
409.58	232.56
409.95	233.02
410.33	233.52
410.70	233.99
411.08	234.54
411.45	235.13
411.82	235.73
412.20	236.41
412.57	237.21
412.95	237.85
413.32	238.69
413.69	239.54
414.07	240.44
414.44	241.43
414.82	242.43
415.19	243.61
415.56	244.80
415.94	246.04
416.31	247.43
416.68	248.82
417.06	250.43
417.43	251.94
417.81	253.68
418.18	255.45
418.55	257.39
418.93	259.40
419.30	261.51
419.67	263.74
420.04	266.03
420.42	268.42
420.79	271.18
421.16	273.96
421.54	276.79
421.91	279.76
422.28	282.84
422.66	286.16
423.03	289.32
423.40	292.64
423.77	296.21
424.15	299.86
424.52	303.67
424.89	307.78
425.26	311.88
425.64	315.68
426.01	319.97
426.38	324.35
426.75	328.85
427.13	333.48
427.50	338.32
427.87	343.36
428.24	348.45
428.61	353.35
428.99	358.65
429.36	364.46
429.73	370.00
430.10	375.56
430.47	381.23
430.85	387.07
431.22	393.34
431.59	399.77
431.96	406.06
432.33	413.04
432.70	419.68
433.08	427.52
433.45	434.94
433.82	442.26
434.19	450.41
434.56	458.46
434.93	466.23
435.30	473.92
435.68	482.61
436.05	491.13
436.42	499.62
436.79	507.35
437.16	515.71
437.53	524.65
437.90	533.61
438.27	542.38
438.64	551.86
439.01	560.43
439.38	568.29
439.75	575.84
440.13	584.35
440.50	592.45
440.87	598.88
441.24	605.90
441.61	613.55
441.98	619.10
442.35	625.73
442.72	632.47
443.09	638.89
443.46	642.92
443.83	645.85
444.20	648.27
444.57	651.93
444.94	653.94
445.31	656.03
445.68	657.75
446.05	659.00
446.42	658.45
446.79	657.67
447.16	656.96
447.53	656.30
447.90	653.42
448.27	650.67
448.64	646.55
449.01	643.64
449.37	638.01
449.74	632.94
450.11	626.38
450.48	619.24
450.85	612.12
451.22	606.03
451.59	600.10
451.96	594.73
452.33	586.96
452.70	580.08
453.07	571.70
453.43	563.37
453.80	555.26
454.17	547.51
454.54	540.41
454.91	532.37
455.28	524.85
455.65	517.76
456.02	510.25
456.38	504.24
456.75	496.50
457.12	490.28
457.49	483.99
457.86	478.10
458.23	472.93
458.59	467.19
458.96	461.30
459.33	456.12
459.70	450.84
460.07	446.84
460.43	442.14
460.80	437.74
461.17	433.92
461.54	429.76
461.91	425.88
462.27	421.92
462.64	418.75
463.01	415.07
463.38	411.37
463.74	408.07
464.11	405.12
464.48	402.48
464.85	399.59
465.21	397.40
465.58	394.96
465.95	392.15
466.32	389.93
466.68	387.74
467.05	385.54
467.42	383.39
467.78	381.05
468.15	378.90
468.52	377.34
468.88	375.22
469.25	373.30
469.62	371.75
469.98	370.06
470.35	368.56
470.72	367.20
471.08	365.81
471.45	364.63
471.82	363.32
472.18	361.93
472.55	361.02
472.92	359.88
473.28	358.99
473.65	358.02
474.02	357.09
474.38	356.30
474.75	355.82
475.11	355.17
475.48	354.83
475.85	354.47
476.21	354.26
476.58	354.09
476.94	354.18
477.31	354.20
477.67	354.25
478.04	354.42
478.41	354.69
478.77	355.09
479.14	355.34
479.50	355.86
479.87	356.55
480.23	357.25
480.60	357.93
480.96	358.62
481.33	359.66
481.69	360.70
482.06	361.74
482.42	362.68
482.79	363.87
483.15	365.25
483.52	366.82
483.88	368.33
484.25	369.95
484.61	371.63
484.98	373.46
485.34	375.51
485.71	377.67
486.07	379.98
486.44	382.29
486.80	384.86
487.17	387.53
487.53	390.45
487.90	393.50
488.26	396.83
488.62	400.34
488.99	403.87
489.35	407.58
489.72	411.61
490.08	415.86
490.44	420.25
490.81	424.79
491.17	429.45
491.54	434.45
491.90	439.61
492.26	445.14
492.63	450.92
492.99	456.96
493.36	463.21
493.72	469.77
494.08	476.51
494.45	483.66
494.81	491.09
495.17	498.74
495.54	506.82
495.90	515.21
496.26	523.78
496.63	532.60
496.99	541.77
497.35	551.34
497.72	561.22
498.08	571.32
498.44	581.77
498.80	592.86
499.17	604.22
499.53	615.93
499.89	628.02
500.26	640.35
500.62	653.00
500.98	666.33
501.34	679.85
501.71	693.92
502.07	708.17
502.43	722.98
502.79	738.03
503.16	753.56
503.52	769.28
503.88	785.49
504.24	802.19
504.60	819.10
504.97	836.52
505.33	854.40
505.69	873.22
506.05	892.41
506.41	911.51
506.78	930.80
507.14	950.61
507.50	970.89
507.86	991.52
508.22	1012.37
508.59	1033.01
508.95	1054.52
509.31	1076.85
509.67	1099.92
510.03	1122.98
510.39	1146.05
510.75	1169.27
511.12	1192.78
511.48	1216.43
511.84	1240.10
512.20	1264.22
512.56	1289.28
512.92	1314.33
513.28	1338.88
513.64	1363.68
514.00	1388.99
514.37	1414.62
514.73	1440.21
515.09	1465.65
515.45	1491.43
515.81	1517.34
516.17	1543.39
516.53	1568.86
516.89	1594.13
517.25	1619.65
517.61	1644.98
517.97	1670.82
518.33	1696.15
518.69	1721.37
519.05	1747.10
519.41	1773.09
519.77	1799.21
520.13	1824.52
520.49	1849.73
520.85	1875.40
521.21	1900.55
521.57	1926.11
521.93	1951.04
522.29	1976.52
522.65	2001.42
523.01	2026.32
523.37	2050.74
523.73	2075.91
524.09	2100.75
524.45	2125.33
524.81	2149.47
525.17	2173.43
525.53	2196.70
525.89	2220.45
526.25	2244.31
526.61	2267.16
526.97	2290.13
527.33	2313.08
527.68	2335.64
528.04	2357.31
528.40	2377.98
528.76	2398.86
529.12	2419.12
529.48	2439.11
529.84	2457.19
530.20	2475.96
530.56	2493.98
530.91	2512.19
531.27	2530.06
531.63	2546.98
531.99	2563.50
532.35	2579.21
532.71	2595.10
533.07	2611.71
533.42	2626.34
533.78	2641.99
534.14	2657.81
534.50	2672.60
534.86	2687.09
535.21	2699.57
535.57	2712.66
535.93	2725.50
536.29	2737.20
536.65	2748.70
537.00	2759.44
537.36	2771.18
537.72	2781.40
538.08	2791.18
538.44	2800.19
538.79	2808.66
539.15	2816.44
539.51	2823.78
539.87	2830.47
540.22	2835.13
540.58	2839.87
540.94	2845.94
541.29	2850.22
541.65	2852.60
542.01	2854.30
542.37	2855.36
542.72	2857.84
543.08	2858.45
543.44	2859.66
543.79	2859.83
544.15	2859.11
544.51	2858.79
544.87	2857.29
545.22	2854.99
545.58	2851.96
545.94	2849.06
546.29	2844.83
546.65	2840.55
547.01	2836.25
547.36	2832.75
547.72	2829.32
548.07	2824.09
548.43	2817.29
548.79	2809.52
549.14	2803.16
549.50	2797.06
549.86	2789.99
550.21	2781.75
550.57	2774.54
550.92	2764.92
551.28	2755.90
551.64	2747.34
551.99	2738.40
552.35	2728.75
552.70	2719.43
553.06	2710.44
553.41	2700.79
553.77	2690.89
554.13	2680.91
554.48	2670.02
554.84	2657.87
555.19	2646.21
555.55	2634.64
555.90	2623.20
556.26	2612.34
556.61	2600.32
556.97	2586.57
557.32	2573.32
557.68	2560.05
558.03	2546.58
558.39	2534.42
558.74	2522.54
559.10	2508.80
559.45	2495.27
559.81	2482.46
560.16	2469.02
560.52	2455.87
560.87	2443.08
561.23	2429.53
561.58	2416.08
561.94	2402.29
562.29	2387.85
562.64	2374.25
563.00	2360.30
563.35	2346.80
563.71	2333.10
564.06	2319.27
564.42	2306.33
564.77	2292.85
565.12	2279.26
565.48	2265.62
565.83	2251.97
566.19	2238.41
566.54	2224.76
566.89	2209.94
567.25	2195.40
567.60	2182.21
567.96	2168.09
568.31	2152.61
568.66	2137.87
569.02	2124.28
569.37	2110.69
569.72	2097.71
570.08	2083.35
570.43	2068.64
570.78	2053.72
571.14	2038.09
571.49	2023.26
571.84	2008.94
572.20	1993.30
572.55	1977.99
572.90	1962.54
573.26	1947.13
573.61	1931.23
573.96	1915.84
574.31	1900.76
574.67	1885.62
575.02	1869.44
575.37	1853.36
575.72	1838.17
576.08	1823.31
576.43	1807.38
576.78	1791.88
577.13	1776.62
577.49	1761.75
577.84	1747.55
578.19	1732.35
578.54	1717.39
578.90	1701.85
579.25	1686.21
579.60	1672.24
579.95	1658.09
580.30	1643.76
580.66	1629.17
581.01	1614.55
581.36	1599.94
581.71	1586.34
582.06	1572.60
582.42	1559.09
582.77	1545.64
583.12	1532.15
583.47	1518.56
583.82	1505.06
584.17	1491.23
584.53	1477.07
584.88	1463.30
585.23	1449.09
585.58	1435.75
585.93	1422.62
586.28	1410.19
586.63	1397.76
586.98	1384.83
587.34	1371.96
587.69	1358.93
588.04	1346.19
588.39	1333.82
588.74	1321.58
589.09	1309.09
589.44	1296.23
589.79	1284.09
590.14	1272.00
590.49	1259.83
590.84	1247.79
591.19	1236.16
591.54	1224.32
591.89	1212.63
592.25	1201.14
592.60	1189.28
592.95	1177.87
593.30	1166.65
593.65	1155.17
594.00	1143.81
594.35	1133.06
594.70	1121.89
595.05	1111.60
595.40	1101.18
595.75	1090.61
596.10	1080.58
596.45	1070.27
596.80	1060.29
597.15	1050.05
597.50	1039.99
597.85	1030.31
598.19	1020.48
598.54	1010.74
598.89	1001.45
599.24	992.49
599.59	983.32
599.94	975.09
600.29	966.64
600.64	957.92
600.99	948.82
601.34	940.12
601.69	931.07
602.04	922.70
602.39	914.15
602.74	905.65
603.08	897.12
603.43	888.56
603.78	880.20
604.13	871.98
604.48	863.75
604.83	855.71
605.18	847.61
605.53	839.69
605.87	831.58
606.22	823.77
606.57	815.88
606.92	807.95
607.27	799.92
607.62	792.21
607.96	784.92
608.31	778.07
608.66	770.99
609.01	764.22
609.36	757.55
609.70	750.66
610.05	743.77
610.40	737.14
610.75	730.50
611.10	724.21
611.44	717.76
611.79	711.42
612.14	705.00
612.49	698.68
612.83	692.64
613.18	686.75
613.53	680.77
613.88	674.82
614.22	669.26
614.57	663.65
614.92	657.87
615.27	652.20
615.61	646.60
615.96	641.06
616.31	635.51
616.65	630.01
617.00	624.73
617.35	619.54
617.70	614.41
618.04	609.35
618.39	604.21
618.74	599.29
619.08	594.43
619.43	589.69
619.78	584.96
620.12	580.19
620.47	575.58
620.82	571.07
621.16	566.59
621.51	562.02
621.85	557.49
622.20	553.15
622.55	548.84
622.89	544.61
623.24	540.37
623.59	536.18
623.93	532.15
624.28	528.22
624.62	524.37
624.97	520.57
625.32	516.72
625.66	512.84
626.01	508.95
626.35	505.11
626.70	501.32
627.04	497.71
627.39	494.03
627.73	490.52
628.08	487.10
628.43	483.67
628.77	480.32
629.12	477.09
629.46	473.86
629.81	470.56
630.15	467.26
630.50	464.07
630.84	460.93
631.19	457.83
631.53	454.85
631.88	451.82
632.22	448.83
632.57	446.11
632.91	443.41
633.26	440.81
633.60	438.21
633.95	435.68
634.29	433.06
634.64	430.51
634.98	427.78
635.32	425.19
635.67	422.79
636.01	420.33
636.36	417.91
636.70	415.63
637.05	413.34
637.39	411.09
637.73	408.85
638.08	406.73
638.42	404.58
638.77	402.31
639.11	399.99
639.45	397.76
639.80	395.47
640.14	393.29
640.49	391.09
640.83	388.89
641.17	386.78
641.52	384.70
641.86	382.65
642.20	380.82
642.55	378.83
642.89	376.86
643.23	374.98
643.58	373.27
643.92	371.43
644.26	369.64
644.61	367.91
644.95	366.16
645.29	364.32
645.64	362.52
645.98	360.81
646.32	359.22
646.66	357.61
647.01	356.03
647.35	354.48
647.69	352.93
648.04	351.50
648.38	349.99
648.72	348.52
649.06	347.05
649.41	345.58
649.75	344.16
650.09	342.77
650.43	341.39
650.78	339.96
651.12	338.57
651.46	337.23
651.80	335.92
652.14	334.63
652.49	333.40
652.83	332.14
653.17	330.93
653.51	329.74
653.85	328.61
654.20	327.44
654.54	326.20
654.88	325.05
655.22	323.93
655.56	322.81
655.90	321.74
656.25	320.71
656.59	319.65
656.93	318.66
657.27	317.69
657.61	316.67
657.95	315.69
658.29	314.71
658.64	313.79
658.98	312.85
659.32	311.95
659.66	311.09
660.00	310.26
660.34	309.42
660.68	308.56
661.02	307.67
661.36	306.82
661.70	306.01
662.05	305.22
662.39	304.43
662.73	303.72
663.07	303.01
663.41	302.27
663.75	301.52
664.09	300.79
664.43	300.01
664.77	299.31
665.11	298.58
665.45	297.91
665.79	297.25
666.13	296.54
666.47	295.84
666.81	295.12
667.15	294.38
667.49	293.74
667.83	293.16
668.17	292.54
668.51	291.97
668.85	291.43
669.19	290.92
669.53	290.30
669.87	289.69
670.21	289.10
670.55	288.55
670.89	288.08
671.23	287.55
671.57	287.05
671.91	286.59
672.25	286.14
672.58	285.71
672.92	285.19
673.26	284.76
673.60	284.33
673.94	283.92
674.28	283.53
674.62	283.12
674.96	282.65
675.30	282.25
675.64	281.81
675.97	281.36
676.31	280.88
676.65	280.46
676.99	280.11
677.33	279.67
677.67	279.27
678.01	278.81
678.34	278.41
678.68	278.04
679.02	277.61
679.36	277.21
679.70	276.79
680.04	276.42
680.37	276.04
680.71	275.67
681.05	275.32
681.39	274.94
681.73	274.54
682.06	274.15
682.40	273.78
682.74	273.47
683.08	273.19
683.42	272.85
683.75	272.55
684.09	272.17
684.43	271.86
684.77	271.53
685.10	271.25
685.44	270.94
685.78	270.62
686.12	270.33
686.45	270.01
686.79	269.68
687.13	269.39
687.46	269.07
687.80	268.78
688.14	268.43
688.48	268.14
688.81	267.85
689.15	267.59
689.49	267.28
689.82	266.96
690.16	266.59
690.50	266.30
690.83	266.00
691.17	265.70
691.51	265.40
691.84	265.13
692.18	264.82
692.52	264.51
692.85	264.21
693.19	263.96
693.52	263.68
693.86	263.39
694.20	263.11
694.53	262.84
694.87	262.54
695.21	262.25
695.54	261.97
695.88	261.68
696.21	261.37
696.55	261.10
696.88	260.83
697.22	260.56
697.56	260.29
697.89	259.99
698.23	259.72
698.56	259.43
698.90	259.17
699.23	258.88
699.57	258.60
699.90	258.32
700.24	258.02
700.58	257.78
700.91	257.56
701.25	257.42
701.58	257.22
701.92	257.00
702.25	256.77
702.59	256.51
702.92	256.27
703.26	256.02
703.59	255.75
703.93	255.61
704.26	255.37
704.60	255.12
704.93	254.88
705.26	254.62
705.60	254.42
705.93	254.15
706.27	253.95
706.60	253.76
706.94	253.58
707.27	253.32
707.61	253.07
707.94	252.80
708.27	252.44
708.61	252.15
708.94	251.88
709.28	251.65
709.61	251.42
709.94	251.21
710.28	251.00
710.61	250.82
710.95	250.49
711.28	250.36
711.61	250.14
711.95	249.97
712.28	249.75
712.61	249.51
712.95	249.38
713.28	249.23
713.61	248.99
713.95	248.74
714.28	248.56
714.61	248.35
714.95	248.15
715.28	247.96
715.61	247.78
715.95	247.60
716.28	247.42
716.61	247.26
716.95	247.06
717.28	246.86
717.61	246.67
717.94	246.49
718.28	246.22
718.61	246.03
718.94	245.82
719.27	245.64
719.61	245.49
719.94	245.27
720.27	245.01
720.60	244.84
720.94	244.66
721.27	244.50
721.60	244.35
721.93	244.17
722.27	244.05
722.60	243.89
722.93	243.70
723.26	243.54
723.59	243.34
723.93	243.19
724.26	243.03
724.59	242.86
724.92	242.72
725.25	242.61
725.59	242.45
725.92	242.33
726.25	242.18
726.58	242.03
726.91	241.88
727.24	241.75
727.57	241.60
727.91	241.45
728.24	241.33
728.57	241.17
728.90	241.05
729.23	240.87
729.56	240.78
729.89	240.65
730.22	240.50
730.55	240.36
730.89	240.23
731.22	240.09
731.55	239.96
731.88	239.83
732.21	239.67
732.54	239.53
732.87	239.41
733.20	239.29
733.53	239.16
733.86	239.05
734.19	238.91
734.52	238.80
734.85	238.78
735.18	238.63
735.51	238.55
735.84	238.43
736.17	238.35
736.50	238.17
736.83	238.21
737.16	238.11
737.49	238.01
737.82	237.89
738.15	237.80
738.48	237.70
738.81	237.59
739.14	237.47
739.47	237.35
739.80	237.24
740.13	237.14
740.46	237.02
740.79	236.89
741.12	236.79
741.45	236.66
741.78	236.49
742.11	236.42
742.44	236.28
742.77	236.20
743.10	236.07
743.43	235.97
743.75	235.74
744.08	235.83
744.41	235.73
744.74	235.63
745.07	235.50
745.40	235.43
745.73	235.39
746.06	235.31
746.39	235.24
746.71	235.15
747.04	235.04
747.37	234.96
747.70	234.90
748.03	234.82
748.36	234.76
748.68	234.67
749.01	234.55
749.34	234.47
749.67	234.39
750.00	234.33
750.33	234.34
750.65	234.27
750.98	234.00
751.31	233.93
751.64	233.86
751.97	233.86
752.29	233.77
752.62	233.63
752.95	233.55
753.28	233.45
753.60	233.38
753.93	233.33
754.26	233.27
754.59	233.15
754.91	233.06
755.24	232.97
755.57	232.95
755.90	232.88
756.22	232.80
756.55	232.70
756.88	232.61
757.20	232.45
757.53	232.35
757.86	232.28
758.19	232.21
758.51	232.14
758.84	232.01
759.17	231.93
759.49	231.88
759.82	231.87
760.15	231.83
760.47	231.76
760.80	231.67
761.13	231.63
761.45	231.57
761.78	231.52
762.11	231.47
762.43	231.34
762.76	231.29
763.08	231.25
763.41	231.20
763.74	231.16
764.06	231.10
764.39	231.06
764.71	231.01
765.04	230.94
765.37	230.88
765.69	230.84
766.02	230.79
766.34	230.73
766.67	230.63
767.00	230.60
767.32	230.62
767.65	230.66
767.97	230.60
768.30	230.56
768.62	230.51
768.95	230.45
769.27	230.41
769.60	230.38
769.92	230.32
770.25	230.25
770.57	230.19
770.90	230.15
771.22	230.10
771.55	230.06
771.87	230.02
772.20	229.98
772.52	230.05
772.85	230.17
773.17	230.13
773.50	230.09
773.82	230.03
774.15	229.93
774.47	229.81
774.80	229.76
775.12	229.72
775.45	229.69
775.77	229.67
776.09	229.64
776.42	229.61
776.74	229.62
777.07	229.59
777.39	229.56
777.72	229.52
778.04	229.51
778.36	229.47
778.69	229.45
779.01	229.43
779.33	229.29
779.66	229.11
779.98	229.08
780.31	229.06
780.63	229.08
780.95	229.08
781.28	229.05
781.60	229.02
781.92	228.99
782.25	228.97
782.57	228.94
782.89	228.91
783.22	228.88
783.54	228.83
783.86	228.82
784.19	228.79
784.51	228.80
784.83	228.76
785.16	228.73
785.48	228.72
785.80	228.69
786.12	228.68
786.45	228.66
786.77	228.65
787.09	228.62
787.42	228.55
787.74	228.53
788.06	228.52
788.38	228.50
788.71	228.47
789.03	228.46
789.35	228.45
789.67	228.42
789.99	228.41
790.32	228.37
790.64	228.37
790.96	228.47
791.28	228.41
791.61	228.38
791.93	228.38
792.25	228.35
792.57	228.42
792.89	228.38
793.21	228.37
793.54	228.34
793.86	228.31
794.18	228.30
794.50	228.26
794.82	228.25
795.14	228.25
795.47	228.25
795.79	228.24
796.11	228.19
796.43	228.18
796.75	228.16
797.07	228.15
797.39	228.13
797.71	228.00
798.04	228.00
798.36	227.99
798.68	227.98
799.00	227.97
799.32	227.89
799.64	227.90
799.96	227.88
800.28	227.90
800.60	227.88
800.92	227.87
801.24	227.85
801.56	227.85
801.89	227.82
802.21	227.81
802.53	227.78
802.85	227.79
803.17	227.84
803.49	227.80
803.81	227.78
804.13	227.76
804.45	227.73
804.77	227.73
805.09	227.71
805.41	227.69
805.73	227.66
806.05	227.61
806.37	227.59
806.69	227.56
807.01	227.54
807.33	227.54
807.65	227.48
807.97	227.53
808.28	227.50
808.60	227.49
808.92	227.46
809.24	227.53
809.56	227.50
809.88	227.44
810.20	227.44
810.52	227.45
810.84	227.42
811.16	227.40
811.48	227.38
811.80	227.42
812.12	227.40
812.43	227.42
812.75	227.42
813.07	227.40
813.39	227.40
813.71	227.37
814.03	227.35
814.35	227.35
814.67	227.29
814.98	227.27
815.30	227.26
815.62	227.23
815.94	227.14
816.26	227.14
816.58	227.11
816.89	227.11
817.21	227.08
817.53	227.08
817.85	227.08
818.17	227.07
818.48	227.01
818.80	227.03
819.12	227.00
819.44	226.97
819.76	226.95
820.07	226.94
820.39	226.93
820.71	226.93
821.03	226.93
821.34	226.91
821.66	226.92
821.98	226.93
822.30	226.92
822.61	226.99
822.93	226.96
823.25	226.96
823.57	226.93
823.88	226.94
824.20	226.93
824.52	226.95
824.83	226.93
825.15	226.92
825.47	226.90
825.79	226.90
826.10	226.90
826.42	226.89
826.74	226.89
827.05	226.89
827.37	226.88
827.69	226.87
828.00	226.87
828.32	226.86
828.64	226.84
828.95	226.90
829.27	226.86
829.58	226.86
829.90	226.87
830.22	226.88
830.53	226.85
830.85	226.84
831.17	226.80
831.48	226.79
831.80	226.80
832.11	226.79
832.43	226.77
832.75	226.76
833.06	226.83
833.38	226.79
833.69	226.79
834.01	226.78
834.32	226.78
834.64	226.76
834.96	226.76
835.27	226.76
835.59	226.70
835.90	226.68
836.22	226.67
836.53	226.64
836.85	226.63
837.16	226.75
837.48	226.75
837.79	226.79
838.11	226.79
838.42	226.78
838.74	226.79
839.05	226.78
839.37	226.77
839.68	226.69
840.00	226.69
840.31	226.70
840.63	226.69
840.94	226.67
841.26	226.66
841.57	226.65
841.88	226.66
842.20	226.64
842.51	226.62
842.83	226.61
843.14	226.73
843.46	226.72
843.77	226.64
844.08	226.64
844.40	226.59
844.71	226.58
845.03	226.56
845.34	226.55
845.65	226.54
845.97	226.54
846.28	226.55
846.60	226.55
846.91	226.53
847.22	226.52
847.54	226.55
847.85	226.55
848.16	226.54
848.48	226.51
848.79	226.56
849.10	226.57
849.42	226.58
849.73	226.46
850.04	226.45
850.36	226.41
850.67	226.43
850.98	226.43
851.30	226.44
851.61	226.43
851.92	226.43
852.23	226.47
852.55	226.47
852.86	226.47
853.17	226.48
853.49	226.50
853.80	226.53
854.11	226.53
854.42	226.54
854.74	226.53
855.05	226.54
855.36	226.47
855.67	226.47
855.99	226.47
856.30	226.62
856.61	226.62
856.92	226.62
857.23	226.62
857.55	226.60
857.86	226.59
858.17	226.61
858.48	226.59
858.79	226.56
859.11	226.57
859.42	226.56
859.73	226.54
860.04	226.53
860.35	226.49
860.66	226.45
860.98	226.44
861.29	226.46
861.60	226.45
861.91	226.48
862.22	226.46
862.53	226.44
862.84	226.29
863.16	226.31
863.47	226.29
863.78	226.27
864.09	226.28
864.40	226.29
864.71	226.29
865.02	226.30
865.33	226.29
865.64	226.26
865.95	226.26
866.27	226.34
866.58	226.32
866.89	226.34
867.20	226.34
867.51	226.32
867.82	226.31
868.13	226.35
868.44	226.32
868.75	226.34
869.06	226.35
869.37	226.36
869.68	226.33
869.99	226.35
870.30	226.36
870.61	226.37
870.92	226.35
871.23	226.34
871.54	226.35
871.85	226.39
872.16	226.40
872.47	226.39
872.78	226.32
873.09	226.33
873.40	226.32
873.71	226.33
874.02	226.34
874.33	226.32
874.64	226.30
874.95	226.32
875.26	226.29
875.56	226.29
875.87	226.28
876.18	226.27
876.49	226.40
876.80	226.38
877.11	226.36
877.42	226.36
877.73	226.36
878.04	226.34
878.35	226.34
878.66	226.33
878.96	226.33
879.27	226.33
879.58	226.32
879.89	226.31
880.20	226.35
880.51	226.34
880.82	226.34
881.12	226.34
881.43	226.32
881.74	226.30
882.05	226.30
882.36	226.30
882.67	226.31
882.97	226.17
883.28	226.16
883.59	226.16
883.90	226.17
884.21	226.18
884.51	226.17
884.82	226.15
885.13	226.15
885.44	226.15
885.74	226.15
886.05	226.14
886.36	226.14
886.67	226.09
886.98	226.15
887.28	226.16
887.59	226.16
887.90	226.16
888.20	226.16
888.51	226.18
888.82	226.17
889.13	226.17
889.43	226.28
889.74	226.28
890.05	226.28
890.35	226.26
890.66	226.24
890.97	226.23
891.28	226.22
891.58	226.22
891.89	226.22
892.20	226.21
892.50	226.19
892.81	226.19
893.12	226.19
893.42	226.12
893.73	226.13
894.04	226.13
894.34	226.13
894.65	226.13
894.95	226.11
895.26	226.12
895.57	226.17
895.87	226.04
896.18	226.06
896.48	226.07
896.79	226.07
897.10	226.09
897.40	226.10
897.71	226.11
898.01	226.10
898.32	226.11
898.63	226.11
898.93	226.12
899.24	226.13
899.54	226.12
899.85	226.12
900.15	226.11
900.46	226.11
900.76	226.12
901.07	226.12
901.38	226.11
901.68	226.12
901.99	226.06
902.29	226.07
902.60	226.06
902.90	226.05
903.21	226.05
903.51	226.03
903.82	226.05
904.12	226.06
904.43	226.06
904.73	226.05
905.03	226.06
905.34	226.18
905.64	226.17
905.95	226.17
906.25	226.17
906.56	226.17
906.86	226.16
907.17	226.15
907.47	226.15
907.77	226.15
908.08	226.12
908.38	226.12
908.69	226.13
908.99	226.15
909.30	226.16
909.60	226.15
909.90	226.15
910.21	226.12
910.51	226.09
910.81	226.09
911.12	226.10
911.42	226.10
911.73	225.97
912.03	225.98
912.33	226.01
912.64	226.00
912.94	225.99
913.24	225.97
913.55	225.96
913.85	225.95
914.15	225.98
914.46	225.99
914.76	225.98
915.06	225.97
915.37	225.95
915.67	225.94
915.97	225.94
916.27	225.92
916.58	225.93
916.88	225.93
917.18	225.92
917.49	225.99
917.79	225.99
918.09	226.01
918.39	226.03
918.70	226.02
919.00	226.03
919.30	226.09
919.60	226.09
919.91	226.08
920.21	226.09
920.51	226.06
920.81	226.05
921.12	226.07
921.42	226.07
921.72	226.08
922.02	226.09
922.32	226.10
922.63	226.11
922.93	226.18
923.23	226.18
923.53	226.18
923.83	226.09
924.13	226.11
924.44	226.10
924.74	226.12
925.04	226.14
925.34	226.14
925.64	226.08
925.94	226.08
926.24	226.15
926.55	226.14
926.85	226.16
927.15	226.16
927.45	226.15
927.75	226.15
928.05	226.15
928.35	226.14
928.65	226.16
928.95	226.17
929.26	226.11
929.56	226.13
929.86	226.14
930.16	226.14
930.46	226.12
930.76	226.13
931.06	226.07
931.36	226.04
931.66	226.06
931.96	226.07
932.26	226.08
932.56	226.02
932.86	226.04
933.16	226.04
933.46	226.02
933.76	226.01
934.06	226.03
934.36	226.07
934.66	226.07
934.96	226.05
935.26	226.05
935.56	226.07
935.86	226.04
936.16	226.02
936.46	226.01
936.76	226.00
937.06	225.98
937.36	225.99
937.66	226.00
937.96	225.99
938.26	225.96
938.56	225.95
938.86	225.96
939.16	225.98
939.46	225.99
939.76	226.00
940.06	226.00
940.35	225.98
940.65	225.92
940.95	225.93
941.25	225.90
941.55	225.88
941.85	225.87
942.15	225.90
942.45	225.94
942.75	225.94
943.04	225.94
943.34	225.97
943.64	225.96
943.94	225.94
944.24	225.94
944.54	225.95
944.84	225.94
945.13	225.92
945.43	225.89
945.73	225.88
946.03	225.87
946.33	225.86
946.62	225.85
946.92	225.85
947.22	225.85
947.52	225.86
947.82	225.88
948.11	225.86
948.41	225.83
948.71	225.80
949.01	225.81
949.31	225.80
949.60	225.78
949.90	225.80
950.20	225.80
950.50	225.80
950.79	225.79
951.09	225.81
951.39	225.81
951.69	225.80
951.98	225.82
952.28	225.83
952.58	225.83
952.87	225.83
953.17	225.85
953.47	225.83
953.76	225.83
954.06	225.80
954.36	225.79
954.66	225.79
954.95	225.82
955.25	225.83
955.55	225.84
955.84	225.82
956.14	225.83
956.44	225.84
956.73	225.82
957.03	225.83
957.32	225.83
957.62	225.82
957.92	225.85
958.21	225.83
958.51	225.98
958.81	225.99
959.10	226.01
959.40	226.04
959.69	226.04
959.99	226.06
960.29	226.07
960.58	226.06
960.88	226.11
961.17	226.10
961.47	226.11
961.76	226.09
962.06	226.12
962.36	226.10
962.65	226.10
962.95	226.11
963.24	226.10
963.54	226.10
963.83	226.11
964.13	226.10
964.42	226.09
964.72	225.98
965.01	225.98
965.31	225.97
965.60	225.93
965.90	226.01
966.19	225.98
966.49	225.99
966.78	225.99
967.08	225.97
967.37	225.97
967.67	225.95
967.96	225.97
968.26	225.96
968.55	225.98
968.85	225.98
969.14	225.97
969.43	225.97
969.73	225.96
970.02	225.96
970.32	225.95
970.61	225.93
970.91	225.90
971.20	225.88
971.49	225.87
971.79	225.89
972.08	225.79
972.38	225.81
972.67	225.80
972.96	225.82
973.26	225.79
973.55	225.83
973.85	225.83
974.14	225.81
974.43	225.82
974.73	225.80
975.02	225.79
975.31	225.79
975.61	225.79
975.90	225.78
976.19	225.77
976.49	225.78
976.78	225.79
977.07	225.79
977.37	225.80
977.66	225.82
977.95	225.80
978.24	225.81
978.54	225.83
978.83	225.83
979.12	225.82
979.42	225.82
979.71	225.79
980.00	225.79
980.29	225.80
980.59	225.78
980.88	225.81
981.17	225.81
981.46	225.81
981.76	225.81
982.05	225.85
982.34	225.86
982.63	225.85
982.93	225.86
983.22	225.89
983.51	225.89
983.80	225.91
984.09	225.92
984.39	225.91
984.68	225.90
984.97	225.91
985.26	225.90
985.55	225.91
985.85	225.89
986.14	225.91
986.43	225.92
986.72	225.91
987.01	225.87
987.30	225.88
987.59	225.87
987.89	225.87
988.18	225.83
988.47	225.82
988.76	225.81
989.05	225.80
989.34	225.78
989.63	225.80
989.92	225.78
990.22	225.76
990.51	225.76
990.80	225.75
991.09	225.76
991.38	225.78
991.67	225.76
991.96	225.75
992.25	225.75
992.54	225.73
992.83	225.73
993.12	225.73
993.41	225.75
993.70	225.80
993.99	225.82
994.28	225.84
994.58	225.86
994.87	225.85
995.16	225.85
995.45	225.84
995.74	225.80
996.03	225.82
996.32	225.84
996.61	225.86
996.90	225.86
997.19	225.85
997.48	225.85
997.77	225.84
998.06	225.85
998.34	225.83
998.63	225.83
998.92	225.84
999.21	225.86
999.50	225.86
999.79	225.81
1000.08	225.80
1000.37	225.80
1000.66	225.78
1000.95	225.82
1001.24	225.83
1001.53	225.84
1001.82	225.84
1002.11	225.81
1002.40	225.82
1002.68	225.84
1002.97	225.93
1003.26	225.92
1003.55	225.90
1003.84	225.91
1004.13	225.96
1004.42	225.95
1004.71	225.95
1004.99	225.94
1005.28	225.97
1005.57	225.96
1005.86	225.95
1006.15	225.93
1006.44	225.91
1006.72	225.93
1007.01	225.91
1007.30	225.91
1007.59	225.89
1007.88	225.89
1008.17	225.90
1008.45	225.88
1008.74	225.82
1009.03	225.77
1009.32	225.77
1009.60	225.77
1009.89	225.76
1010.18	225.71
1010.47	225.70
1010.76	225.70
1011.04	225.70
1011.33	225.69
1011.62	225.70
1011.91	225.71
1012.19	225.72
1012.48	225.72
1012.77	225.72
1013.05	225.76
1013.34	225.76
1013.63	225.75
1013.92	225.76
1014.20	225.75
1014.49	225.76
1014.78	225.77
1015.06	225.73
1015.35	225.73
1015.64	225.75
1015.92	225.77
1016.21	225.78
1016.50	225.79
1016.78	225.80
1017.07	225.81
1017.36	225.79
1017.64	225.77
1017.93	225.77
1018.22	225.76
1018.50	225.76
1018.79	225.76
1019.08	225.71
1019.36	225.72
1019.65	225.71
1019.93	225.74
1020.22	225.76
1020.51	225.82
1020.79	225.80
1021.08	225.57
1021.36	225.55
1021.65	225.72
1021.94	225.69
1022.22	225.84
1022.51	225.50
1022.79	226.36
1023.08	225.91
1023.36	227.23
1023.65	225.43
>>>>>End Processed Spectral Data<<<<<
