SpectraSuite Data File
++++++++++++++++++++++++++++++++++++
Date: Sat Oct 03 06:23:07 EDT 2015
User: lab3
Dark Spectrum Present: No
Reference Spectrum Present: No
Number of Sampled Component Spectra: 1
Spectrometers: USB2E7196
Integration Time (usec): 46000 (USB2E7196)
Spectra Averaged: 12000 (USB2E7196)
Boxcar Smoothing: 10 (USB2E7196)
Correct for Electrical Dark: No (USB2E7196)
Strobe/Lamp Enabled: No (USB2E7196)
Correct for Detector Non-linearity: No (USB2E7196)
Correct for Stray Light: No (USB2E7196)
Number of Pixels in Processed Spectrum: 2048
>>>>>Begin Processed Spectral Data<<<<<
339.09	0.00
339.48	213.63
339.86	215.10
340.24	216.45
340.63	217.88
341.01	221.17
341.39	220.57
341.78	221.98
342.16	223.21
342.54	223.61
342.93	212.09
343.31	222.80
343.69	223.34
344.07	223.80
344.46	224.23
344.84	224.62
345.22	224.84
345.60	225.10
345.99	225.30
346.37	225.43
346.75	225.54
347.13	225.62
347.52	225.69
347.90	225.78
348.28	225.82
348.66	225.88
349.05	225.88
349.43	225.94
349.81	226.00
350.19	226.06
350.57	226.12
350.96	226.21
351.34	226.30
351.72	226.40
352.10	226.50
352.48	226.58
352.87	226.63
353.25	226.69
353.63	226.75
354.01	226.81
354.39	226.89
354.77	226.96
355.15	227.07
355.54	227.12
355.92	227.14
356.30	227.22
356.68	227.37
357.06	227.45
357.44	227.49
357.82	227.55
358.20	227.66
358.58	227.73
358.97	227.79
359.35	227.87
359.73	227.96
360.11	228.01
360.49	228.07
360.87	228.12
361.25	228.18
361.63	228.27
362.01	228.32
362.39	228.35
362.77	228.40
363.15	228.42
363.53	228.46
363.91	228.49
364.29	228.51
364.67	228.41
365.05	228.44
365.43	228.47
365.81	228.50
366.19	228.52
366.57	228.57
366.95	228.57
367.33	228.54
367.71	228.53
368.09	228.55
368.47	228.54
368.85	228.53
369.23	228.54
369.61	228.48
369.99	228.50
370.37	228.50
370.75	228.58
371.13	228.54
371.51	228.50
371.89	228.48
372.27	228.46
372.65	228.44
373.03	228.39
373.41	228.35
373.78	228.30
374.16	228.20
374.54	228.11
374.92	228.06
375.30	228.02
375.68	227.95
376.06	227.91
376.44	227.85
376.82	227.81
377.19	227.76
377.57	227.71
377.95	227.62
378.33	227.55
378.71	227.39
379.09	227.34
379.47	227.31
379.84	227.25
380.22	227.19
380.60	227.12
380.98	227.07
381.36	227.02
381.73	226.96
382.11	226.93
382.49	226.89
382.87	226.83
383.25	226.78
383.62	226.89
384.00	226.82
384.38	226.78
384.76	226.76
385.13	226.76
385.51	226.72
385.89	226.67
386.27	226.64
386.64	226.63
387.02	226.58
387.40	226.53
387.78	226.51
388.15	226.48
388.53	226.45
388.91	226.42
389.29	226.39
389.66	226.39
390.04	226.35
390.42	226.35
390.79	226.34
391.17	226.32
391.55	226.16
391.92	226.16
392.30	226.16
392.68	226.13
393.05	226.10
393.43	226.10
393.81	226.11
394.18	226.09
394.56	226.09
394.94	226.13
395.31	226.13
395.69	226.18
396.06	226.21
396.44	226.23
396.82	226.25
397.19	226.34
397.57	226.35
397.95	226.39
398.32	226.38
398.70	226.43
399.07	226.50
399.45	226.54
399.82	226.59
400.20	226.62
400.58	226.68
400.95	226.69
401.33	226.78
401.70	226.93
402.08	227.04
402.45	227.13
402.83	227.24
403.20	227.36
403.58	227.45
403.95	227.59
404.33	227.75
404.71	227.89
405.08	228.11
405.46	228.27
405.83	228.46
406.21	228.66
406.58	228.88
406.96	229.10
407.33	229.35
407.70	229.63
408.08	230.03
408.45	230.36
408.83	230.73
409.20	231.06
409.58	231.36
409.95	231.77
410.33	232.21
410.70	232.63
411.08	233.13
411.45	233.65
411.82	234.18
412.20	234.78
412.57	235.51
412.95	236.07
413.32	236.81
413.69	237.56
414.07	238.37
414.44	239.24
414.82	240.14
415.19	241.19
415.56	242.25
415.94	243.34
416.31	244.58
416.68	245.81
417.06	247.24
417.43	248.58
417.81	250.12
418.18	251.69
418.55	253.40
418.93	255.18
419.30	257.04
419.67	259.02
420.04	261.05
420.42	263.16
420.79	265.61
421.16	268.07
421.54	270.58
421.91	273.20
422.28	275.92
422.66	278.85
423.03	281.64
423.40	284.58
423.77	287.72
424.15	290.94
424.52	294.29
424.89	297.91
425.26	301.52
425.64	304.87
426.01	308.64
426.38	312.50
426.75	316.47
427.13	320.55
427.50	324.81
427.87	329.25
428.24	333.72
428.61	338.02
428.99	342.68
429.36	347.77
429.73	352.65
430.10	357.53
430.47	362.53
430.85	367.67
431.22	373.18
431.59	378.86
431.96	384.39
432.33	390.54
432.70	396.40
433.08	403.30
433.45	409.84
433.82	416.28
434.19	423.47
434.56	430.55
434.93	437.39
435.30	444.16
435.68	451.81
436.05	459.31
436.42	466.77
436.79	473.59
437.16	480.94
437.53	488.80
437.90	496.68
438.27	504.39
438.64	512.72
439.01	520.27
439.38	527.17
439.75	533.81
440.13	541.29
440.50	548.41
440.87	554.05
441.24	560.24
441.61	566.99
441.98	571.89
442.35	577.71
442.72	583.65
443.09	589.30
443.46	592.86
443.83	595.45
444.20	597.59
444.57	600.81
444.94	602.61
445.31	604.47
445.68	606.04
446.05	607.15
446.42	606.69
446.79	606.02
447.16	605.42
447.53	604.86
447.90	602.35
448.27	599.94
448.64	596.35
449.01	593.82
449.37	588.88
449.74	584.41
450.11	578.68
450.48	572.43
450.85	566.17
451.22	560.82
451.59	555.60
451.96	550.89
452.33	544.07
452.70	538.02
453.07	530.64
453.43	523.30
453.80	516.17
454.17	509.34
454.54	503.07
454.91	495.99
455.28	489.36
455.65	483.12
456.02	476.54
456.38	471.24
456.75	464.43
457.12	458.94
457.49	453.40
457.86	448.20
458.23	443.65
458.59	438.61
458.96	433.44
459.33	428.90
459.70	424.27
460.07	420.76
460.43	416.62
460.80	412.77
461.17	409.43
461.54	405.79
461.91	402.40
462.27	398.95
462.64	396.18
463.01	392.96
463.38	389.72
463.74	386.80
464.11	384.23
464.48	381.93
464.85	379.41
465.21	377.52
465.58	375.40
465.95	372.94
466.32	371.00
466.68	369.09
467.05	367.17
467.42	365.29
467.78	363.25
468.15	361.38
468.52	360.03
468.88	358.19
469.25	356.52
469.62	355.19
469.98	353.73
470.35	352.44
470.72	351.27
471.08	350.07
471.45	349.07
471.82	347.95
472.18	346.75
472.55	345.98
472.92	345.00
473.28	344.24
473.65	343.43
474.02	342.65
474.38	341.99
474.75	341.60
475.11	341.05
475.48	340.80
475.85	340.52
476.21	340.36
476.58	340.25
476.94	340.37
477.31	340.42
477.67	340.49
478.04	340.68
478.41	340.96
478.77	341.37
479.14	341.62
479.50	342.12
479.87	342.77
480.23	343.42
480.60	344.07
480.96	344.72
481.33	345.70
481.69	346.67
482.06	347.63
482.42	348.52
482.79	349.62
483.15	350.90
483.52	352.35
483.88	353.75
484.25	355.25
484.61	356.81
484.98	358.49
485.34	360.40
485.71	362.39
486.07	364.51
486.44	366.63
486.80	369.00
487.17	371.45
487.53	374.15
487.90	376.96
488.26	380.03
488.62	383.27
488.99	386.50
489.35	389.91
489.72	393.61
490.08	397.50
490.44	401.52
490.81	405.70
491.17	410.00
491.54	414.60
491.90	419.35
492.26	424.43
492.63	429.75
492.99	435.30
493.36	441.05
493.72	447.10
494.08	453.30
494.45	459.89
494.81	466.73
495.17	473.75
495.54	481.18
495.90	488.90
496.26	496.79
496.63	504.94
496.99	513.38
497.35	522.23
497.72	531.38
498.08	540.72
498.44	550.39
498.80	560.63
499.17	571.13
499.53	581.96
499.89	593.16
500.26	604.60
500.62	616.33
500.98	628.69
501.34	641.24
501.71	654.31
502.07	667.56
502.43	681.34
502.79	695.35
503.16	709.83
503.52	724.52
503.88	739.62
504.24	755.18
504.60	770.95
504.97	787.20
505.33	803.90
505.69	821.49
506.05	839.42
506.41	857.28
506.78	875.34
507.14	893.90
507.50	912.92
507.86	932.27
508.22	951.86
508.59	971.28
508.95	991.50
509.31	1012.46
509.67	1034.13
510.03	1055.82
510.39	1077.55
510.75	1099.47
511.12	1121.67
511.48	1144.06
511.84	1166.49
512.20	1189.32
512.56	1213.01
512.92	1236.72
513.28	1260.06
513.64	1283.67
514.00	1307.73
514.37	1332.09
514.73	1356.46
515.09	1380.69
515.45	1405.26
515.81	1430.02
516.17	1454.91
516.53	1479.35
516.89	1503.66
517.25	1528.14
517.61	1552.48
517.97	1577.33
518.33	1601.68
518.69	1625.96
519.05	1650.69
519.41	1675.70
519.77	1701.00
520.13	1725.53
520.49	1749.97
520.85	1774.73
521.21	1799.10
521.57	1823.82
521.93	1848.04
522.29	1872.78
522.65	1897.00
523.01	1921.19
523.37	1944.98
523.73	1969.46
524.09	1993.67
524.45	2017.69
524.81	2041.32
525.17	2064.83
525.53	2087.75
525.89	2111.11
526.25	2134.45
526.61	2156.81
526.97	2179.33
527.33	2201.70
527.68	2223.84
528.04	2245.20
528.40	2265.67
528.76	2286.28
529.12	2306.48
529.48	2326.41
529.84	2344.48
530.20	2363.15
530.56	2381.24
530.91	2399.46
531.27	2417.36
531.63	2434.36
531.99	2450.88
532.35	2466.77
532.71	2482.82
533.07	2499.53
533.42	2514.42
533.78	2530.30
534.14	2546.34
534.50	2561.48
534.86	2576.36
535.21	2589.37
535.57	2602.84
535.93	2616.06
536.29	2628.22
536.65	2640.14
537.00	2651.32
537.36	2663.48
537.72	2674.24
538.08	2684.49
538.44	2694.07
538.79	2703.25
539.15	2711.65
539.51	2719.73
539.87	2727.15
540.22	2732.49
540.58	2737.90
540.94	2744.48
541.29	2749.55
541.65	2752.89
542.01	2755.40
542.37	2757.28
542.72	2760.48
543.08	2761.97
543.44	2764.11
543.79	2765.14
544.15	2765.35
544.51	2765.96
544.87	2765.44
545.22	2764.22
545.58	2762.32
545.94	2760.38
546.29	2757.15
546.65	2753.89
547.01	2750.51
547.36	2747.87
547.72	2745.45
548.07	2741.24
548.43	2735.63
548.79	2728.97
549.14	2723.57
549.50	2718.53
549.86	2712.55
550.21	2705.40
550.57	2699.26
550.92	2690.80
551.28	2682.93
551.64	2675.39
551.99	2667.39
552.35	2658.76
552.70	2650.34
553.06	2642.27
553.41	2633.59
553.77	2624.66
554.13	2615.68
554.48	2605.93
554.84	2594.89
555.19	2584.28
555.55	2573.74
555.90	2563.23
556.26	2553.32
556.61	2542.35
556.97	2529.73
557.32	2517.64
557.68	2505.48
558.03	2493.00
558.39	2481.76
558.74	2470.80
559.10	2458.06
559.45	2445.57
559.81	2433.73
560.16	2421.26
560.52	2409.00
560.87	2397.11
561.23	2384.42
561.58	2371.79
561.94	2358.84
562.29	2345.35
562.64	2332.58
563.00	2319.49
563.35	2306.81
563.71	2293.95
564.06	2280.97
564.42	2268.73
564.77	2255.86
565.12	2242.90
565.48	2229.95
565.83	2216.93
566.19	2204.03
566.54	2191.16
566.89	2177.13
567.25	2163.21
567.60	2150.67
567.96	2137.20
568.31	2122.42
568.66	2108.33
569.02	2095.46
569.37	2082.49
569.72	2070.01
570.08	2056.29
570.43	2042.25
570.78	2028.05
571.14	2013.10
571.49	1998.79
571.84	1985.02
572.20	1970.06
572.55	1955.34
572.90	1940.56
573.26	1925.76
573.61	1910.48
573.96	1895.64
574.31	1881.02
574.67	1866.48
575.02	1850.88
575.37	1835.39
575.72	1820.67
576.08	1806.34
576.43	1790.84
576.78	1775.76
577.13	1760.96
577.49	1746.52
577.84	1732.68
578.19	1717.90
578.54	1703.32
578.90	1688.25
579.25	1673.07
579.60	1659.44
579.95	1645.73
580.30	1631.82
580.66	1617.69
581.01	1603.42
581.36	1589.10
581.71	1575.83
582.06	1562.48
582.42	1549.33
582.77	1536.26
583.12	1523.17
583.47	1509.92
583.82	1496.80
584.17	1483.33
584.53	1469.52
584.88	1456.10
585.23	1442.22
585.58	1429.15
585.93	1416.29
586.28	1404.20
586.63	1392.09
586.98	1379.53
587.34	1367.03
587.69	1354.20
588.04	1341.71
588.39	1329.62
588.74	1317.70
589.09	1305.52
589.44	1292.90
589.79	1280.94
590.14	1269.08
590.49	1257.15
590.84	1245.41
591.19	1234.03
591.54	1222.46
591.89	1211.04
592.25	1199.78
592.60	1188.18
592.95	1176.99
593.30	1166.03
593.65	1154.73
594.00	1143.58
594.35	1132.97
594.70	1121.93
595.05	1111.81
595.40	1101.59
595.75	1091.22
596.10	1081.37
596.45	1071.23
596.80	1061.46
597.15	1051.40
597.50	1041.50
597.85	1032.04
598.19	1022.36
598.54	1012.74
598.89	1003.58
599.24	994.75
599.59	985.72
599.94	977.62
600.29	969.31
600.64	960.71
600.99	951.75
601.34	943.15
601.69	934.22
602.04	925.97
602.39	917.54
602.74	909.16
603.08	900.75
603.43	892.29
603.78	884.02
604.13	875.90
604.48	867.80
604.83	859.88
605.18	851.83
605.53	843.97
605.87	835.92
606.22	828.19
606.57	820.40
606.92	812.54
607.27	804.59
607.62	796.95
607.96	789.73
608.31	782.96
608.66	775.97
609.01	769.26
609.36	762.64
609.70	755.82
610.05	748.96
610.40	742.39
610.75	735.80
611.10	729.55
611.44	723.12
611.79	716.81
612.14	710.44
612.49	704.15
612.83	698.16
613.18	692.30
613.53	686.33
613.88	680.39
614.22	674.86
614.57	669.27
614.92	663.54
615.27	657.92
615.61	652.33
615.96	646.80
616.31	641.29
616.65	635.84
617.00	630.59
617.35	625.46
617.70	620.37
618.04	615.33
618.39	610.23
618.74	605.38
619.08	600.56
619.43	595.86
619.78	591.17
620.12	586.43
620.47	581.88
620.82	577.44
621.16	573.02
621.51	568.49
621.85	563.99
622.20	559.66
622.55	555.36
622.89	551.15
623.24	546.95
623.59	542.78
623.93	538.77
624.28	534.84
624.62	531.00
624.97	527.21
625.32	523.38
625.66	519.52
626.01	515.61
626.35	511.79
626.70	508.01
627.04	504.42
627.39	500.76
627.73	497.27
628.08	493.85
628.43	490.43
628.77	487.10
629.12	483.88
629.46	480.69
629.81	477.42
630.15	474.13
630.50	470.94
630.84	467.82
631.19	464.76
631.53	461.80
631.88	458.81
632.22	455.84
632.57	453.16
632.91	450.52
633.26	447.95
633.60	445.40
633.95	442.90
634.29	440.32
634.64	437.82
634.98	435.12
635.32	432.57
635.67	430.22
636.01	427.80
636.36	425.42
636.70	423.18
637.05	420.93
637.39	418.73
637.73	416.55
638.08	414.49
638.42	412.39
638.77	410.16
639.11	407.87
639.45	405.66
639.80	403.40
640.14	401.25
640.49	399.10
640.83	396.91
641.17	394.82
641.52	392.77
641.86	390.74
642.20	388.94
642.55	386.97
642.89	385.01
643.23	383.16
643.58	381.46
643.92	379.64
644.26	377.88
644.61	376.18
644.95	374.44
645.29	372.62
645.64	370.84
645.98	369.14
646.32	367.56
646.66	365.97
647.01	364.39
647.35	362.86
647.69	361.31
648.04	359.90
648.38	358.41
648.72	356.95
649.06	355.49
649.41	354.03
649.75	352.63
650.09	351.25
650.43	349.87
650.78	348.44
651.12	347.06
651.46	345.72
651.80	344.41
652.14	343.13
652.49	341.90
652.83	340.64
653.17	339.43
653.51	338.26
653.85	337.14
654.20	335.98
654.54	334.75
654.88	333.60
655.22	332.48
655.56	331.34
655.90	330.26
656.25	329.22
656.59	328.17
656.93	327.17
657.27	326.19
657.61	325.16
657.95	324.16
658.29	323.17
658.64	322.23
658.98	321.28
659.32	320.35
659.66	319.47
660.00	318.62
660.34	317.76
660.68	316.87
661.02	315.95
661.36	315.06
661.70	314.22
662.05	313.40
662.39	312.58
662.73	311.85
663.07	311.12
663.41	310.34
663.75	309.57
664.09	308.80
664.43	308.00
664.77	307.27
665.11	306.51
665.45	305.81
665.79	305.12
666.13	304.40
666.47	303.66
666.81	302.91
667.15	302.13
667.49	301.46
667.83	300.85
668.17	300.21
668.51	299.61
668.85	299.04
669.19	298.51
669.53	297.87
669.87	297.23
670.21	296.60
670.55	296.02
670.89	295.51
671.23	294.95
671.57	294.41
671.91	293.91
672.25	293.43
672.58	292.95
672.92	292.39
673.26	291.92
673.60	291.46
673.94	291.00
674.28	290.59
674.62	290.13
674.96	289.61
675.30	289.16
675.64	288.67
675.97	288.18
676.31	287.65
676.65	287.19
676.99	286.78
677.33	286.30
677.67	285.86
678.01	285.35
678.34	284.91
678.68	284.51
679.02	284.04
679.36	283.59
679.70	283.13
680.04	282.71
680.37	282.28
680.71	281.88
681.05	281.49
681.39	281.06
681.73	280.60
682.06	280.17
682.40	279.76
682.74	279.40
683.08	279.08
683.42	278.70
683.75	278.35
684.09	277.92
684.43	277.56
684.77	277.19
685.10	276.86
685.44	276.51
685.78	276.14
686.12	275.81
686.45	275.45
686.79	275.07
687.13	274.74
687.46	274.37
687.80	274.01
688.14	273.62
688.48	273.28
688.81	272.94
689.15	272.64
689.49	272.28
689.82	271.91
690.16	271.48
690.50	271.14
690.83	270.78
691.17	270.43
691.51	270.08
691.84	269.76
692.18	269.39
692.52	269.02
692.85	268.68
693.19	268.37
693.52	268.03
693.86	267.70
694.20	267.37
694.53	267.06
694.87	266.71
695.21	266.38
695.54	266.05
695.88	265.71
696.21	265.34
696.55	265.03
696.88	264.72
697.22	264.40
697.56	264.09
697.89	263.73
698.23	263.42
698.56	263.08
698.90	262.77
699.23	262.43
699.57	262.11
699.90	261.79
700.24	261.45
700.58	261.16
700.91	260.89
701.25	260.70
701.58	260.45
701.92	260.20
702.25	259.92
702.59	259.62
702.92	259.34
703.26	259.05
703.59	258.74
703.93	258.55
704.26	258.27
704.60	257.98
704.93	257.69
705.26	257.40
705.60	257.16
705.93	256.86
706.27	256.63
706.60	256.39
706.94	256.16
707.27	255.86
707.61	255.57
707.94	255.28
708.27	254.88
708.61	254.55
708.94	254.25
709.28	253.99
709.61	253.72
709.94	253.48
710.28	253.25
710.61	253.03
710.95	252.68
711.28	252.51
711.61	252.27
711.95	252.06
712.28	251.81
712.61	251.55
712.95	251.39
713.28	251.21
713.61	250.94
713.95	250.66
714.28	250.45
714.61	250.21
714.95	249.98
715.28	249.76
715.61	249.55
715.95	249.34
716.28	249.13
716.61	248.95
716.95	248.72
717.28	248.50
717.61	248.28
717.94	248.07
718.28	247.77
718.61	247.56
718.94	247.32
719.27	247.12
719.61	246.94
719.94	246.70
720.27	246.42
720.60	246.23
720.94	246.04
721.27	245.85
721.60	245.69
721.93	245.49
722.27	245.35
722.60	245.17
722.93	244.97
723.26	244.79
723.59	244.57
723.93	244.40
724.26	244.22
724.59	244.04
724.92	243.88
725.25	243.75
725.59	243.59
725.92	243.44
726.25	243.28
726.58	243.12
726.91	242.95
727.24	242.80
727.57	242.64
727.91	242.46
728.24	242.33
728.57	242.16
728.90	242.02
729.23	241.82
729.56	241.72
729.89	241.56
730.22	241.40
730.55	241.25
730.89	241.09
731.22	240.94
731.55	240.79
731.88	240.64
732.21	240.47
732.54	240.32
732.87	240.17
733.20	240.04
733.53	239.90
733.86	239.77
734.19	239.62
734.52	239.51
734.85	239.47
735.18	239.30
735.51	239.20
735.84	239.07
736.17	238.98
736.50	238.79
736.83	238.81
737.16	238.69
737.49	238.58
737.82	238.46
738.15	238.36
738.48	238.24
738.81	238.11
739.14	237.98
739.47	237.86
739.80	237.73
740.13	237.61
740.46	237.48
740.79	237.34
741.12	237.23
741.45	237.09
741.78	236.90
742.11	236.82
742.44	236.68
742.77	236.58
743.10	236.45
743.43	236.33
743.75	236.09
744.08	236.18
744.41	236.07
744.74	235.96
745.07	235.82
745.40	235.74
745.73	235.70
746.06	235.61
746.39	235.53
746.71	235.43
747.04	235.32
747.37	235.22
747.70	235.15
748.03	235.07
748.36	235.00
748.68	234.90
749.01	234.78
749.34	234.69
749.67	234.60
750.00	234.53
750.33	234.54
750.65	234.46
750.98	234.19
751.31	234.11
751.64	234.03
751.97	234.01
752.29	233.92
752.62	233.77
752.95	233.68
753.28	233.57
753.60	233.49
753.93	233.44
754.26	233.37
754.59	233.24
754.91	233.14
755.24	233.04
755.57	233.02
755.90	232.94
756.22	232.85
756.55	232.74
756.88	232.64
757.20	232.47
757.53	232.36
757.86	232.28
758.19	232.21
758.51	232.13
758.84	232.00
759.17	231.91
759.49	231.84
759.82	231.84
760.15	231.79
760.47	231.72
760.80	231.61
761.13	231.56
761.45	231.50
761.78	231.44
762.11	231.38
762.43	231.25
762.76	231.19
763.08	231.15
763.41	231.10
763.74	231.05
764.06	230.99
764.39	230.94
764.71	230.88
765.04	230.81
765.37	230.75
765.69	230.70
766.02	230.65
766.34	230.58
766.67	230.48
767.00	230.45
767.32	230.47
767.65	230.50
767.97	230.43
768.30	230.39
768.62	230.35
768.95	230.28
769.27	230.23
769.60	230.20
769.92	230.13
770.25	230.06
770.57	229.99
770.90	229.94
771.22	229.89
771.55	229.84
771.87	229.80
772.20	229.76
772.52	229.82
772.85	229.94
773.17	229.90
773.50	229.85
773.82	229.79
774.15	229.68
774.47	229.56
774.80	229.51
775.12	229.47
775.45	229.43
775.77	229.40
776.09	229.38
776.42	229.35
776.74	229.35
777.07	229.32
777.39	229.30
777.72	229.26
778.04	229.24
778.36	229.21
778.69	229.18
779.01	229.16
779.33	229.01
779.66	228.83
779.98	228.80
780.31	228.78
780.63	228.80
780.95	228.80
781.28	228.77
781.60	228.74
781.92	228.71
782.25	228.69
782.57	228.66
782.89	228.62
783.22	228.58
783.54	228.52
783.86	228.51
784.19	228.48
784.51	228.49
784.83	228.45
785.16	228.42
785.48	228.40
785.80	228.38
786.12	228.36
786.45	228.34
786.77	228.33
787.09	228.30
787.42	228.23
787.74	228.20
788.06	228.19
788.38	228.16
788.71	228.13
789.03	228.12
789.35	228.11
789.67	228.08
789.99	228.07
790.32	228.03
790.64	228.03
790.96	228.12
791.28	228.06
791.61	228.03
791.93	228.02
792.25	228.00
792.57	228.07
792.89	228.03
793.21	228.02
793.54	227.99
793.86	227.96
794.18	227.95
794.50	227.91
794.82	227.89
795.14	227.89
795.47	227.89
795.79	227.88
796.11	227.83
796.43	227.81
796.75	227.79
797.07	227.78
797.39	227.76
797.71	227.63
798.04	227.62
798.36	227.62
798.68	227.60
799.00	227.59
799.32	227.51
799.64	227.52
799.96	227.49
800.28	227.50
800.60	227.48
800.92	227.47
801.24	227.45
801.56	227.44
801.89	227.41
802.21	227.40
802.53	227.36
802.85	227.38
803.17	227.43
803.49	227.39
803.81	227.36
804.13	227.34
804.45	227.31
804.77	227.31
805.09	227.29
805.41	227.27
805.73	227.23
806.05	227.19
806.37	227.16
806.69	227.14
807.01	227.11
807.33	227.12
807.65	227.06
807.97	227.11
808.28	227.08
808.60	227.07
808.92	227.03
809.24	227.10
809.56	227.07
809.88	227.01
810.20	227.01
810.52	227.02
810.84	226.99
811.16	226.97
811.48	226.95
811.80	226.98
812.12	226.97
812.43	226.98
812.75	226.98
813.07	226.96
813.39	226.96
813.71	226.94
814.03	226.91
814.35	226.91
814.67	226.85
814.98	226.83
815.30	226.82
815.62	226.79
815.94	226.70
816.26	226.70
816.58	226.67
816.89	226.67
817.21	226.63
817.53	226.63
817.85	226.63
818.17	226.62
818.48	226.56
818.80	226.57
819.12	226.54
819.44	226.51
819.76	226.49
820.07	226.48
820.39	226.47
820.71	226.47
821.03	226.46
821.34	226.45
821.66	226.46
821.98	226.47
822.30	226.47
822.61	226.54
822.93	226.50
823.25	226.50
823.57	226.48
823.88	226.49
824.20	226.48
824.52	226.49
824.83	226.48
825.15	226.47
825.47	226.45
825.79	226.46
826.10	226.45
826.42	226.44
826.74	226.44
827.05	226.43
827.37	226.43
827.69	226.42
828.00	226.42
828.32	226.41
828.64	226.38
828.95	226.44
829.27	226.40
829.58	226.40
829.90	226.41
830.22	226.42
830.53	226.39
830.85	226.37
831.17	226.34
831.48	226.33
831.80	226.34
832.11	226.33
832.43	226.30
832.75	226.30
833.06	226.37
833.38	226.33
833.69	226.32
834.01	226.32
834.32	226.31
834.64	226.30
834.96	226.29
835.27	226.28
835.59	226.24
835.90	226.21
836.22	226.21
836.53	226.18
836.85	226.16
837.16	226.28
837.48	226.27
837.79	226.31
838.11	226.31
838.42	226.30
838.74	226.32
839.05	226.31
839.37	226.30
839.68	226.22
840.00	226.21
840.31	226.23
840.63	226.21
840.94	226.20
841.26	226.18
841.57	226.17
841.88	226.18
842.20	226.16
842.51	226.14
842.83	226.14
843.14	226.25
843.46	226.24
843.77	226.16
844.08	226.16
844.40	226.11
844.71	226.10
845.03	226.09
845.34	226.07
845.65	226.06
845.97	226.06
846.28	226.07
846.60	226.07
846.91	226.05
847.22	226.04
847.54	226.07
847.85	226.07
848.16	226.06
848.48	226.03
848.79	226.08
849.10	226.10
849.42	226.10
849.73	225.98
850.04	225.98
850.36	225.93
850.67	225.95
850.98	225.95
851.30	225.96
851.61	225.95
851.92	225.95
852.23	225.99
852.55	225.99
852.86	225.99
853.17	225.99
853.49	226.02
853.80	226.04
854.11	226.05
854.42	226.06
854.74	226.05
855.05	226.05
855.36	225.99
855.67	225.99
855.99	225.98
856.30	226.14
856.61	226.13
856.92	226.13
857.23	226.13
857.55	226.12
857.86	226.11
858.17	226.13
858.48	226.11
858.79	226.08
859.11	226.09
859.42	226.08
859.73	226.06
860.04	226.05
860.35	226.01
860.66	225.97
860.98	225.96
861.29	225.98
861.60	225.97
861.91	226.00
862.22	225.98
862.53	225.96
862.84	225.81
863.16	225.83
863.47	225.80
863.78	225.79
864.09	225.80
864.40	225.80
864.71	225.80
865.02	225.82
865.33	225.80
865.64	225.77
865.95	225.77
866.27	225.85
866.58	225.83
866.89	225.85
867.20	225.85
867.51	225.83
867.82	225.82
868.13	225.86
868.44	225.83
868.75	225.86
869.06	225.86
869.37	225.88
869.68	225.85
869.99	225.87
870.30	225.88
870.61	225.89
870.92	225.87
871.23	225.85
871.54	225.87
871.85	225.90
872.16	225.92
872.47	225.91
872.78	225.84
873.09	225.85
873.40	225.83
873.71	225.85
874.02	225.86
874.33	225.84
874.64	225.81
874.95	225.83
875.26	225.80
875.56	225.80
875.87	225.79
876.18	225.78
876.49	225.90
876.80	225.89
877.11	225.87
877.42	225.87
877.73	225.87
878.04	225.85
878.35	225.84
878.66	225.84
878.96	225.84
879.27	225.83
879.58	225.82
879.89	225.81
880.20	225.85
880.51	225.84
880.82	225.84
881.12	225.85
881.43	225.82
881.74	225.81
882.05	225.80
882.36	225.81
882.67	225.82
882.97	225.68
883.28	225.67
883.59	225.66
883.90	225.67
884.21	225.69
884.51	225.68
884.82	225.66
885.13	225.66
885.44	225.65
885.74	225.66
886.05	225.65
886.36	225.65
886.67	225.60
886.98	225.67
887.28	225.67
887.59	225.67
887.90	225.68
888.20	225.68
888.51	225.70
888.82	225.68
889.13	225.69
889.43	225.80
889.74	225.80
890.05	225.79
890.35	225.78
890.66	225.76
890.97	225.75
891.28	225.74
891.58	225.74
891.89	225.74
892.20	225.72
892.50	225.71
892.81	225.71
893.12	225.70
893.42	225.63
893.73	225.64
894.04	225.64
894.34	225.64
894.65	225.64
894.95	225.62
895.26	225.63
895.57	225.68
895.87	225.55
896.18	225.58
896.48	225.58
896.79	225.58
897.10	225.60
897.40	225.60
897.71	225.61
898.01	225.60
898.32	225.62
898.63	225.62
898.93	225.63
899.24	225.63
899.54	225.62
899.85	225.62
900.15	225.61
900.46	225.61
900.76	225.61
901.07	225.62
901.38	225.61
901.68	225.62
901.99	225.56
902.29	225.57
902.60	225.55
902.90	225.54
903.21	225.54
903.51	225.53
903.82	225.56
904.12	225.56
904.43	225.57
904.73	225.55
905.03	225.56
905.34	225.68
905.64	225.68
905.95	225.68
906.25	225.67
906.56	225.67
906.86	225.67
907.17	225.66
907.47	225.66
907.77	225.65
908.08	225.63
908.38	225.63
908.69	225.64
908.99	225.66
909.30	225.67
909.60	225.67
909.90	225.67
910.21	225.64
910.51	225.62
910.81	225.62
911.12	225.63
911.42	225.63
911.73	225.49
912.03	225.51
912.33	225.53
912.64	225.52
912.94	225.51
913.24	225.49
913.55	225.48
913.85	225.47
914.15	225.50
914.46	225.51
914.76	225.50
915.06	225.49
915.37	225.47
915.67	225.45
915.97	225.46
916.27	225.43
916.58	225.44
916.88	225.44
917.18	225.43
917.49	225.51
917.79	225.50
918.09	225.52
918.39	225.55
918.70	225.54
919.00	225.55
919.30	225.61
919.60	225.61
919.91	225.59
920.21	225.60
920.51	225.58
920.81	225.57
921.12	225.59
921.42	225.58
921.72	225.59
922.02	225.60
922.32	225.61
922.63	225.62
922.93	225.69
923.23	225.70
923.53	225.69
923.83	225.60
924.13	225.61
924.44	225.61
924.74	225.63
925.04	225.66
925.34	225.65
925.64	225.60
925.94	225.60
926.24	225.67
926.55	225.66
926.85	225.68
927.15	225.68
927.45	225.68
927.75	225.68
928.05	225.68
928.35	225.67
928.65	225.69
928.95	225.69
929.26	225.63
929.56	225.65
929.86	225.67
930.16	225.65
930.46	225.64
930.76	225.65
931.06	225.59
931.36	225.55
931.66	225.57
931.96	225.58
932.26	225.59
932.56	225.54
932.86	225.54
933.16	225.55
933.46	225.53
933.76	225.51
934.06	225.54
934.36	225.57
934.66	225.57
934.96	225.55
935.26	225.55
935.56	225.57
935.86	225.54
936.16	225.52
936.46	225.51
936.76	225.50
937.06	225.48
937.36	225.50
937.66	225.50
937.96	225.49
938.26	225.47
938.56	225.46
938.86	225.46
939.16	225.49
939.46	225.49
939.76	225.51
940.06	225.50
940.35	225.48
940.65	225.42
940.95	225.43
941.25	225.40
941.55	225.39
941.85	225.38
942.15	225.41
942.45	225.44
942.75	225.44
943.04	225.44
943.34	225.47
943.64	225.46
943.94	225.44
944.24	225.44
944.54	225.45
944.84	225.45
945.13	225.43
945.43	225.40
945.73	225.40
946.03	225.39
946.33	225.37
946.62	225.36
946.92	225.36
947.22	225.37
947.52	225.37
947.82	225.39
948.11	225.38
948.41	225.35
948.71	225.31
949.01	225.32
949.31	225.32
949.60	225.30
949.90	225.32
950.20	225.32
950.50	225.31
950.79	225.30
951.09	225.32
951.39	225.32
951.69	225.31
951.98	225.33
952.28	225.34
952.58	225.34
952.87	225.34
953.17	225.36
953.47	225.34
953.76	225.34
954.06	225.32
954.36	225.30
954.66	225.30
954.95	225.34
955.25	225.35
955.55	225.36
955.84	225.34
956.14	225.34
956.44	225.36
956.73	225.34
957.03	225.35
957.32	225.34
957.62	225.34
957.92	225.36
958.21	225.34
958.51	225.49
958.81	225.51
959.10	225.52
959.40	225.54
959.69	225.55
959.99	225.57
960.29	225.57
960.58	225.57
960.88	225.62
961.17	225.60
961.47	225.61
961.76	225.59
962.06	225.62
962.36	225.60
962.65	225.60
962.95	225.61
963.24	225.60
963.54	225.60
963.83	225.61
964.13	225.61
964.42	225.59
964.72	225.48
965.01	225.48
965.31	225.48
965.60	225.44
965.90	225.52
966.19	225.49
966.49	225.50
966.78	225.49
967.08	225.48
967.37	225.47
967.67	225.45
967.96	225.47
968.26	225.46
968.55	225.48
968.85	225.48
969.14	225.48
969.43	225.48
969.73	225.47
970.02	225.46
970.32	225.45
970.61	225.43
970.91	225.40
971.20	225.38
971.49	225.37
971.79	225.39
972.08	225.30
972.38	225.31
972.67	225.31
972.96	225.33
973.26	225.30
973.55	225.34
973.85	225.34
974.14	225.33
974.43	225.34
974.73	225.31
975.02	225.30
975.31	225.30
975.61	225.30
975.90	225.29
976.19	225.28
976.49	225.29
976.78	225.30
977.07	225.30
977.37	225.31
977.66	225.32
977.95	225.31
978.24	225.32
978.54	225.34
978.83	225.33
979.12	225.32
979.42	225.33
979.71	225.30
980.00	225.30
980.29	225.30
980.59	225.28
980.88	225.32
981.17	225.32
981.46	225.32
981.76	225.32
982.05	225.36
982.34	225.37
982.63	225.36
982.93	225.36
983.22	225.39
983.51	225.40
983.80	225.41
984.09	225.43
984.39	225.42
984.68	225.40
984.97	225.41
985.26	225.40
985.55	225.42
985.85	225.39
986.14	225.41
986.43	225.42
986.72	225.41
987.01	225.37
987.30	225.37
987.59	225.36
987.89	225.37
988.18	225.33
988.47	225.32
988.76	225.31
989.05	225.30
989.34	225.28
989.63	225.31
989.92	225.29
990.22	225.27
990.51	225.27
990.80	225.26
991.09	225.27
991.38	225.29
991.67	225.27
991.96	225.26
992.25	225.27
992.54	225.24
992.83	225.25
993.12	225.25
993.41	225.27
993.70	225.32
993.99	225.34
994.28	225.36
994.58	225.38
994.87	225.37
995.16	225.37
995.45	225.36
995.74	225.31
996.03	225.33
996.32	225.35
996.61	225.38
996.90	225.37
997.19	225.36
997.48	225.36
997.77	225.35
998.06	225.36
998.34	225.35
998.63	225.35
998.92	225.36
999.21	225.38
999.50	225.38
999.79	225.33
1000.08	225.32
1000.37	225.32
1000.66	225.30
1000.95	225.34
1001.24	225.35
1001.53	225.36
1001.82	225.36
1002.11	225.33
1002.40	225.34
1002.68	225.37
1002.97	225.46
1003.26	225.45
1003.55	225.43
1003.84	225.44
1004.13	225.48
1004.42	225.47
1004.71	225.47
1004.99	225.46
1005.28	225.49
1005.57	225.48
1005.86	225.47
1006.15	225.45
1006.44	225.43
1006.72	225.45
1007.01	225.43
1007.30	225.43
1007.59	225.42
1007.88	225.42
1008.17	225.42
1008.45	225.39
1008.74	225.34
1009.03	225.28
1009.32	225.28
1009.60	225.29
1009.89	225.27
1010.18	225.22
1010.47	225.21
1010.76	225.22
1011.04	225.21
1011.33	225.21
1011.62	225.22
1011.91	225.23
1012.19	225.24
1012.48	225.24
1012.77	225.24
1013.05	225.28
1013.34	225.28
1013.63	225.28
1013.92	225.29
1014.20	225.28
1014.49	225.28
1014.78	225.30
1015.06	225.26
1015.35	225.27
1015.64	225.28
1015.92	225.31
1016.21	225.32
1016.50	225.32
1016.78	225.34
1017.07	225.35
1017.36	225.32
1017.64	225.30
1017.93	225.31
1018.22	225.30
1018.50	225.29
1018.79	225.29
1019.08	225.25
1019.36	225.25
1019.65	225.24
1019.93	225.28
1020.22	225.30
1020.51	225.37
1020.79	225.35
1021.08	225.08
1021.36	225.08
1021.65	225.31
1021.94	225.18
1022.22	225.38
1022.51	225.07
1022.79	225.92
1023.08	225.50
1023.36	226.84
1023.65	224.96
>>>>>End Processed Spectral Data<<<<<
