SpectraSuite Data File
++++++++++++++++++++++++++++++++++++
Date: Sat Oct 03 03:24:08 EDT 2015
User: lab3
Dark Spectrum Present: No
Reference Spectrum Present: No
Number of Sampled Component Spectra: 1
Spectrometers: USB2E7196
Integration Time (usec): 46000 (USB2E7196)
Spectra Averaged: 12000 (USB2E7196)
Boxcar Smoothing: 10 (USB2E7196)
Correct for Electrical Dark: No (USB2E7196)
Strobe/Lamp Enabled: No (USB2E7196)
Correct for Detector Non-linearity: No (USB2E7196)
Correct for Stray Light: No (USB2E7196)
Number of Pixels in Processed Spectrum: 2048
>>>>>Begin Processed Spectral Data<<<<<
339.09	0.00
339.48	213.71
339.86	215.21
340.24	216.55
340.63	217.98
341.01	221.27
341.39	220.71
341.78	222.08
342.16	223.26
342.54	223.66
342.93	212.18
343.31	222.89
343.69	223.43
344.07	223.89
344.46	224.33
344.84	224.72
345.22	224.94
345.60	225.19
345.99	225.38
346.37	225.52
346.75	225.63
347.13	225.71
347.52	225.78
347.90	225.87
348.28	225.91
348.66	225.97
349.05	225.97
349.43	226.02
349.81	226.08
350.19	226.14
350.57	226.20
350.96	226.28
351.34	226.38
351.72	226.48
352.10	226.58
352.48	226.65
352.87	226.70
353.25	226.77
353.63	226.83
354.01	226.90
354.39	226.97
354.77	227.05
355.15	227.16
355.54	227.20
355.92	227.23
356.30	227.30
356.68	227.45
357.06	227.53
357.44	227.57
357.82	227.63
358.20	227.75
358.58	227.81
358.97	227.87
359.35	227.96
359.73	228.04
360.11	228.09
360.49	228.15
360.87	228.20
361.25	228.26
361.63	228.35
362.01	228.40
362.39	228.43
362.77	228.48
363.15	228.50
363.53	228.53
363.91	228.57
364.29	228.59
364.67	228.49
365.05	228.51
365.43	228.55
365.81	228.58
366.19	228.59
366.57	228.65
366.95	228.65
367.33	228.62
367.71	228.61
368.09	228.63
368.47	228.62
368.85	228.61
369.23	228.62
369.61	228.56
369.99	228.58
370.37	228.58
370.75	228.65
371.13	228.62
371.51	228.58
371.89	228.56
372.27	228.53
372.65	228.51
373.03	228.48
373.41	228.43
373.78	228.38
374.16	228.27
374.54	228.19
374.92	228.14
375.30	228.10
375.68	228.03
376.06	227.99
376.44	227.93
376.82	227.89
377.19	227.84
377.57	227.79
377.95	227.70
378.33	227.64
378.71	227.48
379.09	227.44
379.47	227.41
379.84	227.34
380.22	227.28
380.60	227.21
380.98	227.16
381.36	227.11
381.73	227.04
382.11	227.02
382.49	226.98
382.87	226.92
383.25	226.87
383.62	226.98
384.00	226.91
384.38	226.87
384.76	226.85
385.13	226.85
385.51	226.81
385.89	226.76
386.27	226.73
386.64	226.71
387.02	226.66
387.40	226.61
387.78	226.59
388.15	226.56
388.53	226.53
388.91	226.51
389.29	226.47
389.66	226.47
390.04	226.43
390.42	226.43
390.79	226.42
391.17	226.40
391.55	226.25
391.92	226.24
392.30	226.24
392.68	226.20
393.05	226.17
393.43	226.17
393.81	226.18
394.18	226.16
394.56	226.16
394.94	226.20
395.31	226.20
395.69	226.25
396.06	226.28
396.44	226.30
396.82	226.31
397.19	226.40
397.57	226.41
397.95	226.46
398.32	226.46
398.70	226.51
399.07	226.57
399.45	226.60
399.82	226.65
400.20	226.69
400.58	226.75
400.95	226.76
401.33	226.85
401.70	227.00
402.08	227.10
402.45	227.19
402.83	227.30
403.20	227.42
403.58	227.50
403.95	227.64
404.33	227.79
404.71	227.94
405.08	228.15
405.46	228.31
405.83	228.50
406.21	228.69
406.58	228.91
406.96	229.12
407.33	229.37
407.70	229.65
408.08	230.04
408.45	230.37
408.83	230.73
409.20	231.05
409.58	231.34
409.95	231.75
410.33	232.19
410.70	232.60
411.08	233.09
411.45	233.61
411.82	234.12
412.20	234.72
412.57	235.43
412.95	235.99
413.32	236.72
413.69	237.46
414.07	238.25
414.44	239.11
414.82	239.99
415.19	241.03
415.56	242.08
415.94	243.15
416.31	244.37
416.68	245.58
417.06	247.00
417.43	248.32
417.81	249.84
418.18	251.39
418.55	253.08
418.93	254.84
419.30	256.67
419.67	258.62
420.04	260.62
420.42	262.70
420.79	265.11
421.16	267.54
421.54	270.02
421.91	272.61
422.28	275.29
422.66	278.17
423.03	280.93
423.40	283.82
423.77	286.92
424.15	290.09
424.52	293.40
424.89	296.98
425.26	300.54
425.64	303.85
426.01	307.57
426.38	311.37
426.75	315.30
427.13	319.32
427.50	323.53
427.87	327.91
428.24	332.32
428.61	336.56
428.99	341.16
429.36	346.19
429.73	351.01
430.10	355.82
430.47	360.75
430.85	365.82
431.22	371.28
431.59	376.88
431.96	382.34
432.33	388.41
432.70	394.20
433.08	401.01
433.45	407.47
433.82	413.83
434.19	420.93
434.56	427.93
434.93	434.69
435.30	441.38
435.68	448.93
436.05	456.34
436.42	463.71
436.79	470.44
437.16	477.70
437.53	485.48
437.90	493.27
438.27	500.88
438.64	509.10
439.01	516.56
439.38	523.37
439.75	529.94
440.13	537.33
440.50	544.36
440.87	549.93
441.24	556.04
441.61	562.70
441.98	567.55
442.35	573.29
442.72	579.14
443.09	584.72
443.46	588.23
443.83	590.79
444.20	592.89
444.57	596.08
444.94	597.84
445.31	599.68
445.68	601.20
446.05	602.30
446.42	601.83
446.79	601.16
447.16	600.55
447.53	599.99
447.90	597.49
448.27	595.10
448.64	591.54
449.01	589.02
449.37	584.13
449.74	579.71
450.11	574.04
450.48	567.86
450.85	561.67
451.22	556.39
451.59	551.22
451.96	546.55
452.33	539.81
452.70	533.82
453.07	526.53
453.43	519.26
453.80	512.21
454.17	505.47
454.54	499.27
454.91	492.27
455.28	485.73
455.65	479.57
456.02	473.06
456.38	467.83
456.75	461.10
457.12	455.69
457.49	450.22
457.86	445.08
458.23	440.60
458.59	435.62
458.96	430.51
459.33	426.03
459.70	421.46
460.07	418.00
460.43	413.92
460.80	410.12
461.17	406.83
461.54	403.25
461.91	399.91
462.27	396.50
462.64	393.77
463.01	390.61
463.38	387.43
463.74	384.55
464.11	382.02
464.48	379.75
464.85	377.26
465.21	375.40
465.58	373.31
465.95	370.89
466.32	368.98
466.68	367.11
467.05	365.22
467.42	363.37
467.78	361.37
468.15	359.53
468.52	358.20
468.88	356.39
469.25	354.75
469.62	353.45
469.98	352.02
470.35	350.75
470.72	349.60
471.08	348.42
471.45	347.44
471.82	346.34
472.18	345.16
472.55	344.41
472.92	343.45
473.28	342.71
473.65	341.90
474.02	341.14
474.38	340.49
474.75	340.10
475.11	339.57
475.48	339.32
475.85	339.04
476.21	338.89
476.58	338.79
476.94	338.91
477.31	338.95
477.67	339.03
478.04	339.23
478.41	339.50
478.77	339.91
479.14	340.17
479.50	340.66
479.87	341.31
480.23	341.95
480.60	342.59
480.96	343.23
481.33	344.20
481.69	345.17
482.06	346.13
482.42	347.01
482.79	348.10
483.15	349.37
483.52	350.81
483.88	352.20
484.25	353.69
484.61	355.23
484.98	356.90
485.34	358.78
485.71	360.75
486.07	362.85
486.44	364.95
486.80	367.30
487.17	369.73
487.53	372.40
487.90	375.19
488.26	378.23
488.62	381.43
488.99	384.63
489.35	388.00
489.72	391.66
490.08	395.51
490.44	399.48
490.81	403.63
491.17	407.87
491.54	412.43
491.90	417.14
492.26	422.17
492.63	427.44
492.99	432.94
493.36	438.64
493.72	444.63
494.08	450.77
494.45	457.30
494.81	464.07
495.17	471.03
495.54	478.37
495.90	486.02
496.26	493.85
496.63	501.91
496.99	510.29
497.35	519.05
497.72	528.12
498.08	537.38
498.44	546.96
498.80	557.11
499.17	567.52
499.53	578.25
499.89	589.36
500.26	600.70
500.62	612.32
500.98	624.58
501.34	637.02
501.71	649.98
502.07	663.11
502.43	676.77
502.79	690.68
503.16	705.05
503.52	719.61
503.88	734.59
504.24	750.03
504.60	765.67
504.97	781.81
505.33	798.37
505.69	815.83
506.05	833.62
506.41	851.36
506.78	869.29
507.14	887.72
507.50	906.60
507.86	925.82
508.22	945.29
508.59	964.59
508.95	984.68
509.31	1005.50
509.67	1027.03
510.03	1048.59
510.39	1070.19
510.75	1091.97
511.12	1114.04
511.48	1136.31
511.84	1158.63
512.20	1181.32
512.56	1204.88
512.92	1228.47
513.28	1251.69
513.64	1275.18
514.00	1299.11
514.37	1323.37
514.73	1347.61
515.09	1371.73
515.45	1396.16
515.81	1420.79
516.17	1445.56
516.53	1469.89
516.89	1494.11
517.25	1518.48
517.61	1542.75
517.97	1567.50
518.33	1591.77
518.69	1615.95
519.05	1640.57
519.41	1665.47
519.77	1690.70
520.13	1715.13
520.49	1739.51
520.85	1764.19
521.21	1788.50
521.57	1813.15
521.93	1837.30
522.29	1862.00
522.65	1886.17
523.01	1910.29
523.37	1934.03
523.73	1958.46
524.09	1982.62
524.45	2006.61
524.81	2030.22
525.17	2053.67
525.53	2076.55
525.89	2099.89
526.25	2123.21
526.61	2145.55
526.97	2168.05
527.33	2190.40
527.68	2212.54
528.04	2233.89
528.40	2254.35
528.76	2274.93
529.12	2295.13
529.48	2315.09
529.84	2333.17
530.20	2351.88
530.56	2370.01
530.91	2388.26
531.27	2406.20
531.63	2423.26
531.99	2439.81
532.35	2455.74
532.71	2471.84
533.07	2488.62
533.42	2503.52
533.78	2519.44
534.14	2535.54
534.50	2550.77
534.86	2565.74
535.21	2578.83
535.57	2592.38
535.93	2605.71
536.29	2617.97
536.65	2630.03
537.00	2641.29
537.36	2653.55
537.72	2664.41
538.08	2674.76
538.44	2684.44
538.79	2693.73
539.15	2702.23
539.51	2710.44
539.87	2718.02
540.22	2723.50
540.58	2729.01
540.94	2735.76
541.29	2740.96
541.65	2744.47
542.01	2747.09
542.37	2749.08
542.72	2752.41
543.08	2754.05
543.44	2756.32
543.79	2757.49
544.15	2757.80
544.51	2758.58
544.87	2758.18
545.22	2757.11
545.58	2755.36
545.94	2753.57
546.29	2750.50
546.65	2747.38
547.01	2744.12
547.36	2741.56
547.72	2739.28
548.07	2735.22
548.43	2729.78
548.79	2723.28
549.14	2718.01
549.50	2713.13
549.86	2707.33
550.21	2700.34
550.57	2694.32
550.92	2686.01
551.28	2678.24
551.64	2670.83
551.99	2662.94
552.35	2654.46
552.70	2646.15
553.06	2638.19
553.41	2629.65
553.77	2620.83
554.13	2611.99
554.48	2602.37
554.84	2591.47
555.19	2580.96
555.55	2570.53
555.90	2560.14
556.26	2550.34
556.61	2539.47
556.97	2526.96
557.32	2514.95
557.68	2502.91
558.03	2490.54
558.39	2479.39
558.74	2468.56
559.10	2455.94
559.45	2443.55
559.81	2431.78
560.16	2419.42
560.52	2407.28
560.87	2395.49
561.23	2382.90
561.58	2370.34
561.94	2357.47
562.29	2344.09
562.64	2331.42
563.00	2318.41
563.35	2305.82
563.71	2293.06
564.06	2280.18
564.42	2268.02
564.77	2255.24
565.12	2242.35
565.48	2229.47
565.83	2216.52
566.19	2203.69
566.54	2190.91
566.89	2176.95
567.25	2163.11
567.60	2150.63
567.96	2137.22
568.31	2122.47
568.66	2108.40
569.02	2095.57
569.37	2082.65
569.72	2070.21
570.08	2056.51
570.43	2042.50
570.78	2028.34
571.14	2013.43
571.49	1999.14
571.84	1985.38
572.20	1970.46
572.55	1955.72
572.90	1940.97
573.26	1926.21
573.61	1910.97
573.96	1896.15
574.31	1881.54
574.67	1867.04
575.02	1851.46
575.37	1835.98
575.72	1821.32
576.08	1807.04
576.43	1791.60
576.78	1776.55
577.13	1761.78
577.49	1747.36
577.84	1733.56
578.19	1718.80
578.54	1704.22
578.90	1689.17
579.25	1674.01
579.60	1660.40
579.95	1646.74
580.30	1632.87
580.66	1618.76
581.01	1604.52
581.36	1590.22
581.71	1576.96
582.06	1563.62
582.42	1550.49
582.77	1537.43
583.12	1524.35
583.47	1511.09
583.82	1497.96
584.17	1484.51
584.53	1470.73
584.88	1457.32
585.23	1443.47
585.58	1430.41
585.93	1417.56
586.28	1405.48
586.63	1393.38
586.98	1380.86
587.34	1368.36
587.69	1355.53
588.04	1343.04
588.39	1330.95
588.74	1319.04
589.09	1306.88
589.44	1294.27
589.79	1282.31
590.14	1270.46
590.49	1258.52
590.84	1246.79
591.19	1235.41
591.54	1223.83
591.89	1212.40
592.25	1201.14
592.60	1189.53
592.95	1178.36
593.30	1167.40
593.65	1156.10
594.00	1144.96
594.35	1134.33
594.70	1123.27
595.05	1113.13
595.40	1102.91
595.75	1092.52
596.10	1082.65
596.45	1072.52
596.80	1062.74
597.15	1052.68
597.50	1042.77
597.85	1033.32
598.19	1023.66
598.54	1014.04
598.89	1004.88
599.24	996.04
599.59	987.00
599.94	978.90
600.29	970.58
600.64	961.99
600.99	953.04
601.34	944.43
601.69	935.51
602.04	927.27
602.39	918.86
602.74	910.48
603.08	902.08
603.43	893.61
603.78	885.33
604.13	877.21
604.48	869.13
604.83	861.20
605.18	853.15
605.53	845.29
605.87	837.25
606.22	829.52
606.57	821.73
606.92	813.88
607.27	805.93
607.62	798.29
607.96	791.06
608.31	784.28
608.66	777.29
609.01	770.58
609.36	763.96
609.70	757.14
610.05	750.28
610.40	743.71
610.75	737.13
611.10	730.89
611.44	724.46
611.79	718.15
612.14	711.77
612.49	705.47
612.83	699.48
613.18	693.63
613.53	687.66
613.88	681.71
614.22	676.18
614.57	670.60
614.92	664.87
615.27	659.25
615.61	653.67
615.96	648.16
616.31	642.65
616.65	637.20
617.00	631.95
617.35	626.83
617.70	621.73
618.04	616.70
618.39	611.60
618.74	606.76
619.08	601.95
619.43	597.26
619.78	592.58
620.12	587.85
620.47	583.28
620.82	578.85
621.16	574.45
621.51	569.93
621.85	565.43
622.20	561.10
622.55	556.80
622.89	552.59
623.24	548.38
623.59	544.21
623.93	540.21
624.28	536.28
624.62	532.45
624.97	528.67
625.32	524.86
625.66	520.99
626.01	517.09
626.35	513.26
626.70	509.48
627.04	505.88
627.39	502.23
627.73	498.74
628.08	495.32
628.43	491.91
628.77	488.57
629.12	485.37
629.46	482.19
629.81	478.92
630.15	475.63
630.50	472.45
630.84	469.31
631.19	466.25
631.53	463.30
631.88	460.31
632.22	457.33
632.57	454.64
632.91	452.01
633.26	449.45
633.60	446.90
633.95	444.41
634.29	441.85
634.64	439.36
634.98	436.68
635.32	434.14
635.67	431.79
636.01	429.38
636.36	427.01
636.70	424.77
637.05	422.53
637.39	420.34
637.73	418.16
638.08	416.12
638.42	414.02
638.77	411.79
639.11	409.51
639.45	407.33
639.80	405.07
640.14	402.91
640.49	400.77
640.83	398.58
641.17	396.49
641.52	394.45
641.86	392.43
642.20	390.63
642.55	388.66
642.89	386.71
643.23	384.85
643.58	383.16
643.92	381.34
644.26	379.59
644.61	377.90
644.95	376.16
645.29	374.35
645.64	372.57
645.98	370.88
646.32	369.31
646.66	367.72
647.01	366.16
647.35	364.63
647.69	363.08
648.04	361.68
648.38	360.20
648.72	358.74
649.06	357.27
649.41	355.81
649.75	354.42
650.09	353.05
650.43	351.66
650.78	350.23
651.12	348.85
651.46	347.51
651.80	346.20
652.14	344.92
652.49	343.70
652.83	342.45
653.17	341.24
653.51	340.06
653.85	338.94
654.20	337.78
654.54	336.55
654.88	335.41
655.22	334.28
655.56	333.14
655.90	332.07
656.25	331.03
656.59	329.98
656.93	328.99
657.27	328.00
657.61	326.97
657.95	325.98
658.29	324.97
658.64	324.02
658.98	323.06
659.32	322.14
659.66	321.25
660.00	320.39
660.34	319.53
660.68	318.63
661.02	317.71
661.36	316.82
661.70	315.98
662.05	315.16
662.39	314.34
662.73	313.60
663.07	312.87
663.41	312.09
663.75	311.31
664.09	310.53
664.43	309.73
664.77	309.00
665.11	308.23
665.45	307.53
665.79	306.83
666.13	306.11
666.47	305.36
666.81	304.60
667.15	303.83
667.49	303.15
667.83	302.53
668.17	301.88
668.51	301.27
668.85	300.70
669.19	300.16
669.53	299.51
669.87	298.86
670.21	298.22
670.55	297.62
670.89	297.11
671.23	296.55
671.57	296.00
671.91	295.50
672.25	295.02
672.58	294.54
672.92	293.97
673.26	293.49
673.60	293.02
673.94	292.56
674.28	292.13
674.62	291.66
674.96	291.14
675.30	290.68
675.64	290.19
675.97	289.68
676.31	289.15
676.65	288.66
676.99	288.25
677.33	287.76
677.67	287.31
678.01	286.78
678.34	286.34
678.68	285.92
679.02	285.43
679.36	284.96
679.70	284.49
680.04	284.07
680.37	283.63
680.71	283.22
681.05	282.82
681.39	282.38
681.73	281.92
682.06	281.47
682.40	281.04
682.74	280.66
683.08	280.34
683.42	279.95
683.75	279.59
684.09	279.15
684.43	278.78
684.77	278.39
685.10	278.06
685.44	277.69
685.78	277.32
686.12	276.98
686.45	276.61
686.79	276.23
687.13	275.88
687.46	275.49
687.80	275.13
688.14	274.72
688.48	274.37
688.81	274.02
689.15	273.70
689.49	273.34
689.82	272.97
690.16	272.53
690.50	272.18
690.83	271.82
691.17	271.46
691.51	271.11
691.84	270.77
692.18	270.39
692.52	270.02
692.85	269.66
693.19	269.34
693.52	269.00
693.86	268.66
694.20	268.32
694.53	268.00
694.87	267.64
695.21	267.30
695.54	266.96
695.88	266.61
696.21	266.23
696.55	265.90
696.88	265.57
697.22	265.24
697.56	264.91
697.89	264.54
698.23	264.22
698.56	263.87
698.90	263.55
699.23	263.20
699.57	262.88
699.90	262.54
700.24	262.18
700.58	261.88
700.91	261.61
701.25	261.41
701.58	261.15
701.92	260.89
702.25	260.60
702.59	260.29
702.92	260.00
703.26	259.71
703.59	259.40
703.93	259.20
704.26	258.92
704.60	258.62
704.93	258.33
705.26	258.03
705.60	257.78
705.93	257.46
706.27	257.22
706.60	256.99
706.94	256.76
707.27	256.45
707.61	256.16
707.94	255.84
708.27	255.44
708.61	255.11
708.94	254.80
709.28	254.53
709.61	254.25
709.94	254.01
710.28	253.76
710.61	253.53
710.95	253.17
711.28	253.00
711.61	252.75
711.95	252.54
712.28	252.28
712.61	252.02
712.95	251.85
713.28	251.67
713.61	251.40
713.95	251.11
714.28	250.89
714.61	250.65
714.95	250.42
715.28	250.20
715.61	249.98
715.95	249.77
716.28	249.56
716.61	249.38
716.95	249.15
717.28	248.93
717.61	248.71
717.94	248.50
718.28	248.20
718.61	247.98
718.94	247.74
719.27	247.54
719.61	247.36
719.94	247.12
720.27	246.83
720.60	246.63
720.94	246.44
721.27	246.24
721.60	246.07
721.93	245.88
722.27	245.73
722.60	245.55
722.93	245.34
723.26	245.15
723.59	244.93
723.93	244.76
724.26	244.58
724.59	244.39
724.92	244.22
725.25	244.09
725.59	243.92
725.92	243.78
726.25	243.61
726.58	243.44
726.91	243.26
727.24	243.12
727.57	242.96
727.91	242.78
728.24	242.64
728.57	242.47
728.90	242.33
729.23	242.12
729.56	242.02
729.89	241.86
730.22	241.70
730.55	241.55
730.89	241.39
731.22	241.23
731.55	241.09
731.88	240.93
732.21	240.76
732.54	240.61
732.87	240.46
733.20	240.33
733.53	240.19
733.86	240.06
734.19	239.90
734.52	239.78
734.85	239.74
735.18	239.57
735.51	239.47
735.84	239.34
736.17	239.25
736.50	239.05
736.83	239.07
737.16	238.95
737.49	238.84
737.82	238.71
738.15	238.61
738.48	238.49
738.81	238.36
739.14	238.23
739.47	238.10
739.80	237.97
740.13	237.86
740.46	237.72
740.79	237.58
741.12	237.47
741.45	237.32
741.78	237.13
742.11	237.05
742.44	236.90
742.77	236.80
743.10	236.67
743.43	236.55
743.75	236.30
744.08	236.39
744.41	236.27
744.74	236.16
745.07	236.02
745.40	235.94
745.73	235.89
746.06	235.80
746.39	235.72
746.71	235.61
747.04	235.50
747.37	235.41
747.70	235.34
748.03	235.25
748.36	235.19
748.68	235.09
749.01	234.96
749.34	234.87
749.67	234.78
750.00	234.71
750.33	234.72
750.65	234.64
750.98	234.36
751.31	234.27
751.64	234.19
751.97	234.18
752.29	234.08
752.62	233.93
752.95	233.84
753.28	233.73
753.60	233.65
753.93	233.59
754.26	233.52
754.59	233.39
754.91	233.29
755.24	233.20
755.57	233.17
755.90	233.09
756.22	233.00
756.55	232.89
756.88	232.79
757.20	232.62
757.53	232.51
757.86	232.43
758.19	232.36
758.51	232.28
758.84	232.14
759.17	232.06
759.49	231.99
759.82	231.98
760.15	231.93
760.47	231.86
760.80	231.76
761.13	231.71
761.45	231.65
761.78	231.59
762.11	231.53
762.43	231.40
762.76	231.33
763.08	231.29
763.41	231.24
763.74	231.19
764.06	231.13
764.39	231.08
764.71	231.03
765.04	230.96
765.37	230.89
765.69	230.84
766.02	230.79
766.34	230.72
766.67	230.62
767.00	230.59
767.32	230.61
767.65	230.64
767.97	230.57
768.30	230.53
768.62	230.48
768.95	230.42
769.27	230.37
769.60	230.34
769.92	230.26
770.25	230.19
770.57	230.12
770.90	230.08
771.22	230.02
771.55	229.97
771.87	229.94
772.20	229.89
772.52	229.96
772.85	230.07
773.17	230.04
773.50	229.99
773.82	229.92
774.15	229.82
774.47	229.70
774.80	229.65
775.12	229.60
775.45	229.56
775.77	229.53
776.09	229.51
776.42	229.47
776.74	229.48
777.07	229.45
777.39	229.43
777.72	229.38
778.04	229.37
778.36	229.32
778.69	229.29
779.01	229.27
779.33	229.13
779.66	228.96
779.98	228.92
780.31	228.90
780.63	228.92
780.95	228.91
781.28	228.89
781.60	228.85
781.92	228.83
782.25	228.80
782.57	228.77
782.89	228.73
783.22	228.69
783.54	228.64
783.86	228.63
784.19	228.60
784.51	228.61
784.83	228.57
785.16	228.54
785.48	228.52
785.80	228.50
786.12	228.48
786.45	228.46
786.77	228.45
787.09	228.41
787.42	228.35
787.74	228.32
788.06	228.31
788.38	228.28
788.71	228.25
789.03	228.23
789.35	228.23
789.67	228.20
789.99	228.19
790.32	228.15
790.64	228.14
790.96	228.24
791.28	228.18
791.61	228.15
791.93	228.14
792.25	228.12
792.57	228.18
792.89	228.15
793.21	228.13
793.54	228.10
793.86	228.07
794.18	228.05
794.50	228.01
794.82	227.99
795.14	227.99
795.47	227.99
795.79	227.98
796.11	227.93
796.43	227.91
796.75	227.89
797.07	227.88
797.39	227.86
797.71	227.73
798.04	227.72
798.36	227.72
798.68	227.70
799.00	227.69
799.32	227.61
799.64	227.62
799.96	227.60
800.28	227.61
800.60	227.59
800.92	227.59
801.24	227.57
801.56	227.56
801.89	227.54
802.21	227.52
802.53	227.49
802.85	227.50
803.17	227.55
803.49	227.51
803.81	227.48
804.13	227.46
804.45	227.43
804.77	227.43
805.09	227.41
805.41	227.38
805.73	227.35
806.05	227.30
806.37	227.27
806.69	227.25
807.01	227.22
807.33	227.22
807.65	227.16
807.97	227.21
808.28	227.18
808.60	227.16
808.92	227.13
809.24	227.20
809.56	227.16
809.88	227.10
810.20	227.10
810.52	227.11
810.84	227.09
811.16	227.07
811.48	227.04
811.80	227.08
812.12	227.06
812.43	227.08
812.75	227.08
813.07	227.06
813.39	227.05
813.71	227.03
814.03	227.00
814.35	227.00
814.67	226.94
814.98	226.92
815.30	226.91
815.62	226.88
815.94	226.79
816.26	226.79
816.58	226.76
816.89	226.76
817.21	226.72
817.53	226.72
817.85	226.72
818.17	226.71
818.48	226.65
818.80	226.67
819.12	226.64
819.44	226.61
819.76	226.59
820.07	226.57
820.39	226.57
820.71	226.57
821.03	226.57
821.34	226.55
821.66	226.56
821.98	226.57
822.30	226.56
822.61	226.63
822.93	226.60
823.25	226.60
823.57	226.57
823.88	226.59
824.20	226.58
824.52	226.59
824.83	226.58
825.15	226.56
825.47	226.54
825.79	226.55
826.10	226.54
826.42	226.53
826.74	226.53
827.05	226.52
827.37	226.52
827.69	226.50
828.00	226.51
828.32	226.50
828.64	226.47
828.95	226.53
829.27	226.49
829.58	226.48
829.90	226.50
830.22	226.50
830.53	226.48
830.85	226.46
831.17	226.42
831.48	226.42
831.80	226.42
832.11	226.41
832.43	226.38
832.75	226.38
833.06	226.45
833.38	226.42
833.69	226.41
834.01	226.41
834.32	226.40
834.64	226.38
834.96	226.38
835.27	226.38
835.59	226.33
835.90	226.31
836.22	226.30
836.53	226.27
836.85	226.25
837.16	226.38
837.48	226.37
837.79	226.42
838.11	226.42
838.42	226.41
838.74	226.43
839.05	226.42
839.37	226.41
839.68	226.33
840.00	226.32
840.31	226.34
840.63	226.32
840.94	226.31
841.26	226.29
841.57	226.28
841.88	226.29
842.20	226.27
842.51	226.24
842.83	226.24
843.14	226.36
843.46	226.35
843.77	226.27
844.08	226.26
844.40	226.22
844.71	226.20
845.03	226.18
845.34	226.16
845.65	226.16
845.97	226.15
846.28	226.16
846.60	226.16
846.91	226.14
847.22	226.13
847.54	226.16
847.85	226.17
848.16	226.15
848.48	226.12
848.79	226.17
849.10	226.18
849.42	226.19
849.73	226.06
850.04	226.06
850.36	226.01
850.67	226.03
850.98	226.04
851.30	226.05
851.61	226.05
851.92	226.04
852.23	226.08
852.55	226.08
852.86	226.09
853.17	226.10
853.49	226.12
853.80	226.14
854.11	226.15
854.42	226.16
854.74	226.15
855.05	226.15
855.36	226.08
855.67	226.08
855.99	226.08
856.30	226.23
856.61	226.23
856.92	226.23
857.23	226.23
857.55	226.21
857.86	226.20
858.17	226.22
858.48	226.20
858.79	226.17
859.11	226.18
859.42	226.17
859.73	226.15
860.04	226.14
860.35	226.10
860.66	226.06
860.98	226.06
861.29	226.07
861.60	226.06
861.91	226.09
862.22	226.07
862.53	226.04
862.84	225.89
863.16	225.92
863.47	225.90
863.78	225.88
864.09	225.89
864.40	225.89
864.71	225.89
865.02	225.91
865.33	225.89
865.64	225.87
865.95	225.87
866.27	225.94
866.58	225.93
866.89	225.95
867.20	225.95
867.51	225.92
867.82	225.91
868.13	225.95
868.44	225.92
868.75	225.94
869.06	225.95
869.37	225.96
869.68	225.93
869.99	225.95
870.30	225.96
870.61	225.97
870.92	225.95
871.23	225.94
871.54	225.95
871.85	225.98
872.16	226.00
872.47	225.99
872.78	225.92
873.09	225.93
873.40	225.91
873.71	225.92
874.02	225.93
874.33	225.92
874.64	225.89
874.95	225.91
875.26	225.88
875.56	225.88
875.87	225.88
876.18	225.87
876.49	225.99
876.80	225.98
877.11	225.95
877.42	225.96
877.73	225.96
878.04	225.94
878.35	225.93
878.66	225.93
878.96	225.93
879.27	225.92
879.58	225.92
879.89	225.91
880.20	225.94
880.51	225.94
880.82	225.94
881.12	225.95
881.43	225.92
881.74	225.90
882.05	225.90
882.36	225.90
882.67	225.91
882.97	225.77
883.28	225.76
883.59	225.76
883.90	225.77
884.21	225.79
884.51	225.79
884.82	225.76
885.13	225.76
885.44	225.75
885.74	225.76
886.05	225.75
886.36	225.75
886.67	225.70
886.98	225.77
887.28	225.77
887.59	225.77
887.90	225.78
888.20	225.77
888.51	225.80
888.82	225.77
889.13	225.78
889.43	225.89
889.74	225.88
890.05	225.88
890.35	225.86
890.66	225.84
890.97	225.83
891.28	225.82
891.58	225.82
891.89	225.82
892.20	225.80
892.50	225.79
892.81	225.78
893.12	225.78
893.42	225.71
893.73	225.72
894.04	225.71
894.34	225.72
894.65	225.72
894.95	225.71
895.26	225.71
895.57	225.77
895.87	225.64
896.18	225.66
896.48	225.67
896.79	225.67
897.10	225.69
897.40	225.69
897.71	225.71
898.01	225.70
898.32	225.71
898.63	225.71
898.93	225.72
899.24	225.72
899.54	225.72
899.85	225.72
900.15	225.71
900.46	225.70
900.76	225.71
901.07	225.72
901.38	225.71
901.68	225.72
901.99	225.66
902.29	225.67
902.60	225.65
902.90	225.64
903.21	225.64
903.51	225.63
903.82	225.65
904.12	225.65
904.43	225.66
904.73	225.65
905.03	225.66
905.34	225.77
905.64	225.77
905.95	225.77
906.25	225.77
906.56	225.77
906.86	225.76
907.17	225.75
907.47	225.76
907.77	225.75
908.08	225.72
908.38	225.72
908.69	225.73
908.99	225.75
909.30	225.76
909.60	225.76
909.90	225.76
910.21	225.73
910.51	225.71
910.81	225.71
911.12	225.72
911.42	225.71
911.73	225.58
912.03	225.59
912.33	225.62
912.64	225.61
912.94	225.59
913.24	225.58
913.55	225.57
913.85	225.56
914.15	225.59
914.46	225.60
914.76	225.59
915.06	225.58
915.37	225.55
915.67	225.54
915.97	225.55
916.27	225.52
916.58	225.52
916.88	225.52
917.18	225.51
917.49	225.59
917.79	225.59
918.09	225.61
918.39	225.64
918.70	225.63
919.00	225.64
919.30	225.70
919.60	225.70
919.91	225.68
920.21	225.69
920.51	225.66
920.81	225.65
921.12	225.67
921.42	225.66
921.72	225.68
922.02	225.68
922.32	225.70
922.63	225.70
922.93	225.77
923.23	225.78
923.53	225.77
923.83	225.68
924.13	225.69
924.44	225.69
924.74	225.70
925.04	225.73
925.34	225.72
925.64	225.67
925.94	225.67
926.24	225.74
926.55	225.73
926.85	225.75
927.15	225.75
927.45	225.74
927.75	225.74
928.05	225.74
928.35	225.73
928.65	225.75
928.95	225.76
929.26	225.70
929.56	225.73
929.86	225.74
930.16	225.73
930.46	225.71
930.76	225.72
931.06	225.66
931.36	225.62
931.66	225.65
931.96	225.66
932.26	225.67
932.56	225.62
932.86	225.62
933.16	225.62
933.46	225.61
933.76	225.60
934.06	225.62
934.36	225.66
934.66	225.65
934.96	225.63
935.26	225.64
935.56	225.66
935.86	225.62
936.16	225.61
936.46	225.60
936.76	225.60
937.06	225.58
937.36	225.59
937.66	225.59
937.96	225.58
938.26	225.55
938.56	225.54
938.86	225.55
939.16	225.57
939.46	225.58
939.76	225.59
940.06	225.59
940.35	225.57
940.65	225.50
940.95	225.51
941.25	225.48
941.55	225.46
941.85	225.45
942.15	225.48
942.45	225.51
942.75	225.51
943.04	225.52
943.34	225.55
943.64	225.54
943.94	225.52
944.24	225.52
944.54	225.53
944.84	225.52
945.13	225.51
945.43	225.48
945.73	225.48
946.03	225.46
946.33	225.45
946.62	225.44
946.92	225.44
947.22	225.44
947.52	225.46
947.82	225.48
948.11	225.47
948.41	225.44
948.71	225.40
949.01	225.41
949.31	225.40
949.60	225.38
949.90	225.41
950.20	225.40
950.50	225.40
950.79	225.39
951.09	225.41
951.39	225.41
951.69	225.40
951.98	225.42
952.28	225.43
952.58	225.42
952.87	225.43
953.17	225.45
953.47	225.43
953.76	225.43
954.06	225.40
954.36	225.39
954.66	225.39
954.95	225.42
955.25	225.43
955.55	225.44
955.84	225.42
956.14	225.43
956.44	225.44
956.73	225.43
957.03	225.43
957.32	225.43
957.62	225.43
957.92	225.45
958.21	225.44
958.51	225.58
958.81	225.60
959.10	225.62
959.40	225.64
959.69	225.65
959.99	225.67
960.29	225.67
960.58	225.67
960.88	225.72
961.17	225.70
961.47	225.71
961.76	225.70
962.06	225.72
962.36	225.71
962.65	225.71
962.95	225.72
963.24	225.71
963.54	225.71
963.83	225.72
964.13	225.71
964.42	225.70
964.72	225.59
965.01	225.59
965.31	225.58
965.60	225.55
965.90	225.63
966.19	225.60
966.49	225.61
966.78	225.60
967.08	225.59
967.37	225.59
967.67	225.57
967.96	225.59
968.26	225.58
968.55	225.60
968.85	225.59
969.14	225.59
969.43	225.59
969.73	225.57
970.02	225.56
970.32	225.55
970.61	225.54
970.91	225.50
971.20	225.48
971.49	225.47
971.79	225.48
972.08	225.39
972.38	225.40
972.67	225.39
972.96	225.41
973.26	225.39
973.55	225.42
973.85	225.42
974.14	225.40
974.43	225.41
974.73	225.39
975.02	225.38
975.31	225.38
975.61	225.38
975.90	225.37
976.19	225.36
976.49	225.37
976.78	225.38
977.07	225.38
977.37	225.40
977.66	225.41
977.95	225.39
978.24	225.41
978.54	225.43
978.83	225.42
979.12	225.41
979.42	225.41
979.71	225.38
980.00	225.38
980.29	225.39
980.59	225.37
980.88	225.40
981.17	225.40
981.46	225.40
981.76	225.40
982.05	225.44
982.34	225.45
982.63	225.45
982.93	225.45
983.22	225.48
983.51	225.48
983.80	225.50
984.09	225.52
984.39	225.51
984.68	225.49
984.97	225.50
985.26	225.49
985.55	225.50
985.85	225.48
986.14	225.50
986.43	225.51
986.72	225.51
987.01	225.46
987.30	225.47
987.59	225.46
987.89	225.46
988.18	225.42
988.47	225.42
988.76	225.41
989.05	225.40
989.34	225.38
989.63	225.41
989.92	225.38
990.22	225.37
990.51	225.36
990.80	225.36
991.09	225.36
991.38	225.38
991.67	225.37
991.96	225.35
992.25	225.35
992.54	225.33
992.83	225.34
993.12	225.34
993.41	225.36
993.70	225.41
993.99	225.43
994.28	225.45
994.58	225.47
994.87	225.46
995.16	225.46
995.45	225.45
995.74	225.40
996.03	225.42
996.32	225.44
996.61	225.47
996.90	225.47
997.19	225.46
997.48	225.46
997.77	225.45
998.06	225.46
998.34	225.44
998.63	225.44
998.92	225.45
999.21	225.47
999.50	225.46
999.79	225.41
1000.08	225.41
1000.37	225.41
1000.66	225.39
1000.95	225.42
1001.24	225.43
1001.53	225.45
1001.82	225.45
1002.11	225.42
1002.40	225.43
1002.68	225.45
1002.97	225.54
1003.26	225.53
1003.55	225.51
1003.84	225.52
1004.13	225.56
1004.42	225.55
1004.71	225.55
1004.99	225.54
1005.28	225.57
1005.57	225.57
1005.86	225.55
1006.15	225.55
1006.44	225.52
1006.72	225.54
1007.01	225.51
1007.30	225.51
1007.59	225.50
1007.88	225.50
1008.17	225.51
1008.45	225.48
1008.74	225.43
1009.03	225.37
1009.32	225.37
1009.60	225.37
1009.89	225.36
1010.18	225.31
1010.47	225.30
1010.76	225.30
1011.04	225.30
1011.33	225.29
1011.62	225.30
1011.91	225.31
1012.19	225.31
1012.48	225.32
1012.77	225.31
1013.05	225.36
1013.34	225.36
1013.63	225.35
1013.92	225.36
1014.20	225.35
1014.49	225.36
1014.78	225.37
1015.06	225.33
1015.35	225.33
1015.64	225.35
1015.92	225.38
1016.21	225.39
1016.50	225.39
1016.78	225.40
1017.07	225.41
1017.36	225.39
1017.64	225.37
1017.93	225.38
1018.22	225.37
1018.50	225.36
1018.79	225.36
1019.08	225.31
1019.36	225.32
1019.65	225.31
1019.93	225.34
1020.22	225.36
1020.51	225.42
1020.79	225.41
1021.08	225.16
1021.36	225.09
1021.65	225.37
1021.94	225.25
1022.22	225.47
1022.51	225.12
1022.79	225.90
1023.08	225.53
1023.36	226.85
1023.65	225.05
>>>>>End Processed Spectral Data<<<<<
