SpectraSuite Data File
++++++++++++++++++++++++++++++++++++
Date: Fri Oct 02 16:31:44 EDT 2015
User: lab3
Dark Spectrum Present: No
Reference Spectrum Present: No
Number of Sampled Component Spectra: 1
Spectrometers: USB2E7196
Integration Time (usec): 46000 (USB2E7196)
Spectra Averaged: 1200 (USB2E7196)
Boxcar Smoothing: 10 (USB2E7196)
Correct for Electrical Dark: No (USB2E7196)
Strobe/Lamp Enabled: No (USB2E7196)
Correct for Detector Non-linearity: No (USB2E7196)
Correct for Stray Light: No (USB2E7196)
Number of Pixels in Processed Spectrum: 2048
>>>>>Begin Processed Spectral Data<<<<<
339.09	0.00
339.48	214.81
339.86	216.11
340.24	217.68
340.63	218.85
341.01	222.22
341.39	221.74
341.78	223.02
342.16	224.27
342.54	224.78
342.93	213.13
343.31	223.91
343.69	224.45
344.07	224.92
344.46	225.35
344.84	225.74
345.22	225.96
345.60	226.21
345.99	226.40
346.37	226.54
346.75	226.63
347.13	226.72
347.52	226.79
347.90	226.88
348.28	226.91
348.66	226.97
349.05	226.96
349.43	227.02
349.81	227.08
350.19	227.13
350.57	227.19
350.96	227.26
351.34	227.35
351.72	227.43
352.10	227.54
352.48	227.60
352.87	227.66
353.25	227.73
353.63	227.78
354.01	227.85
354.39	227.91
354.77	228.00
355.15	228.11
355.54	228.15
355.92	228.17
356.30	228.25
356.68	228.39
357.06	228.46
357.44	228.50
357.82	228.56
358.20	228.67
358.58	228.73
358.97	228.80
359.35	228.88
359.73	228.96
360.11	229.00
360.49	229.06
360.87	229.10
361.25	229.17
361.63	229.26
362.01	229.32
362.39	229.33
362.77	229.38
363.15	229.40
363.53	229.43
363.91	229.47
364.29	229.49
364.67	229.39
365.05	229.41
365.43	229.45
365.81	229.48
366.19	229.50
366.57	229.56
366.95	229.56
367.33	229.52
367.71	229.51
368.09	229.54
368.47	229.53
368.85	229.52
369.23	229.51
369.61	229.45
369.99	229.48
370.37	229.49
370.75	229.55
371.13	229.51
371.51	229.47
371.89	229.46
372.27	229.43
372.65	229.42
373.03	229.38
373.41	229.32
373.78	229.27
374.16	229.15
374.54	229.06
374.92	229.01
375.30	228.96
375.68	228.89
376.06	228.84
376.44	228.79
376.82	228.75
377.19	228.70
377.57	228.64
377.95	228.55
378.33	228.49
378.71	228.32
379.09	228.27
379.47	228.25
379.84	228.17
380.22	228.11
380.60	228.03
380.98	228.00
381.36	227.95
381.73	227.89
382.11	227.87
382.49	227.83
382.87	227.77
383.25	227.74
383.62	227.84
384.00	227.77
384.38	227.73
384.76	227.71
385.13	227.71
385.51	227.67
385.89	227.62
386.27	227.58
386.64	227.57
387.02	227.54
387.40	227.49
387.78	227.47
388.15	227.45
388.53	227.42
388.91	227.39
389.29	227.35
389.66	227.34
390.04	227.31
390.42	227.31
390.79	227.30
391.17	227.28
391.55	227.12
391.92	227.11
392.30	227.12
392.68	227.07
393.05	227.06
393.43	227.07
393.81	227.07
394.18	227.06
394.56	227.06
394.94	227.10
395.31	227.09
395.69	227.13
396.06	227.17
396.44	227.18
396.82	227.19
397.19	227.28
397.57	227.30
397.95	227.34
398.32	227.34
398.70	227.39
399.07	227.47
399.45	227.51
399.82	227.55
400.20	227.58
400.58	227.64
400.95	227.64
401.33	227.73
401.70	227.89
402.08	228.00
402.45	228.10
402.83	228.20
403.20	228.31
403.58	228.40
403.95	228.53
404.33	228.69
404.71	228.85
405.08	229.06
405.46	229.22
405.83	229.41
406.21	229.60
406.58	229.82
406.96	230.03
407.33	230.28
407.70	230.58
408.08	230.97
408.45	231.31
408.83	231.67
409.20	232.01
409.58	232.30
409.95	232.71
410.33	233.15
410.70	233.57
411.08	234.07
411.45	234.60
411.82	235.13
412.20	235.73
412.57	236.44
412.95	237.01
413.32	237.74
413.69	238.49
414.07	239.29
414.44	240.16
414.82	241.04
415.19	242.09
415.56	243.13
415.94	244.21
416.31	245.44
416.68	246.67
417.06	248.10
417.43	249.43
417.81	250.96
418.18	252.51
418.55	254.22
418.93	256.00
419.30	257.85
419.67	259.81
420.04	261.82
420.42	263.93
420.79	266.36
421.16	268.81
421.54	271.32
421.91	273.92
422.28	276.61
422.66	279.54
423.03	282.33
423.40	285.25
423.77	288.38
424.15	291.57
424.52	294.90
424.89	298.50
425.26	302.09
425.64	305.42
426.01	309.17
426.38	312.99
426.75	316.94
427.13	321.00
427.50	325.27
427.87	329.68
428.24	334.13
428.61	338.42
428.99	343.04
429.36	348.12
429.73	352.97
430.10	357.85
430.47	362.81
430.85	367.91
431.22	373.43
431.59	379.08
431.96	384.60
432.33	390.75
432.70	396.58
433.08	403.48
433.45	410.00
433.82	416.44
434.19	423.62
434.56	430.71
434.93	437.55
435.30	444.33
435.68	451.97
436.05	459.46
436.42	466.93
436.79	473.78
437.16	481.13
437.53	489.02
437.90	496.90
438.27	504.62
438.64	512.96
439.01	520.50
439.38	527.41
439.75	534.07
440.13	541.58
440.50	548.73
440.87	554.38
441.24	560.58
441.61	567.33
441.98	572.24
442.35	578.07
442.72	584.00
443.09	589.64
443.46	593.18
443.83	595.77
444.20	597.91
444.57	601.14
444.94	602.93
445.31	604.78
445.68	606.33
446.05	607.43
446.42	606.94
446.79	606.26
447.16	605.62
447.53	605.03
447.90	602.48
448.27	600.02
448.64	596.41
449.01	593.83
449.37	588.85
449.74	584.37
450.11	578.60
450.48	572.34
450.85	566.06
451.22	560.70
451.59	555.48
451.96	550.73
452.33	543.85
452.70	537.77
453.07	530.38
453.43	523.03
453.80	515.90
454.17	509.09
454.54	502.82
454.91	495.76
455.28	489.15
455.65	482.92
456.02	476.35
456.38	471.05
456.75	464.26
457.12	458.80
457.49	453.27
457.86	448.08
458.23	443.54
458.59	438.52
458.96	433.37
459.33	428.86
459.70	424.25
460.07	420.79
460.43	416.69
460.80	412.88
461.17	409.55
461.54	405.94
461.91	402.58
462.27	399.15
462.64	396.40
463.01	393.22
463.38	390.01
463.74	387.13
464.11	384.59
464.48	382.32
464.85	379.83
465.21	377.98
465.58	375.90
465.95	373.49
466.32	371.58
466.68	369.71
467.05	367.80
467.42	365.96
467.78	363.95
468.15	362.12
468.52	360.78
468.88	358.96
469.25	357.31
469.62	356.00
469.98	354.58
470.35	353.31
470.72	352.15
471.08	350.97
471.45	349.99
471.82	348.89
472.18	347.73
472.55	346.99
472.92	346.04
473.28	345.28
473.65	344.48
474.02	343.74
474.38	343.11
474.75	342.76
475.11	342.24
475.48	342.01
475.85	341.75
476.21	341.62
476.58	341.56
476.94	341.70
477.31	341.77
477.67	341.85
478.04	342.07
478.41	342.38
478.77	342.81
479.14	343.09
479.50	343.61
479.87	344.29
480.23	344.96
480.60	345.63
480.96	346.31
481.33	347.30
481.69	348.27
482.06	349.26
482.42	350.16
482.79	351.27
483.15	352.58
483.52	354.04
483.88	355.46
484.25	356.96
484.61	358.54
484.98	360.24
485.34	362.17
485.71	364.16
486.07	366.31
486.44	368.44
486.80	370.84
487.17	373.33
487.53	376.05
487.90	378.88
488.26	381.97
488.62	385.21
488.99	388.46
489.35	391.87
489.72	395.58
490.08	399.48
490.44	403.54
490.81	407.74
491.17	412.06
491.54	416.69
491.90	421.44
492.26	426.55
492.63	431.88
492.99	437.45
493.36	443.21
493.72	449.27
494.08	455.50
494.45	462.08
494.81	468.91
495.17	475.89
495.54	483.27
495.90	490.96
496.26	498.87
496.63	507.01
496.99	515.48
497.35	524.31
497.72	533.43
498.08	542.73
498.44	552.36
498.80	562.56
499.17	573.03
499.53	583.84
499.89	595.00
500.26	606.39
500.62	618.02
500.98	630.30
501.34	642.74
501.71	655.72
502.07	668.83
502.43	682.45
502.79	696.37
503.16	710.71
503.52	725.25
503.88	740.20
504.24	755.61
504.60	771.18
504.97	787.23
505.33	803.61
505.69	820.95
506.05	838.57
506.41	856.15
506.78	873.89
507.14	892.12
507.50	910.77
507.86	929.79
508.22	949.05
508.59	968.15
508.95	988.09
509.31	1008.64
509.67	1029.93
510.03	1051.21
510.39	1072.46
510.75	1093.93
511.12	1115.63
511.48	1137.46
511.84	1159.31
512.20	1181.59
512.56	1204.68
512.92	1227.81
513.28	1250.51
513.64	1273.37
514.00	1296.66
514.37	1320.24
514.73	1343.85
515.09	1367.29
515.45	1390.99
515.81	1414.88
516.17	1438.75
516.53	1462.18
516.89	1485.56
517.25	1509.09
517.61	1532.54
517.97	1556.35
518.33	1579.52
518.69	1602.66
519.05	1626.31
519.41	1650.15
519.77	1674.24
520.13	1697.52
520.49	1720.75
520.85	1744.19
521.21	1767.40
521.57	1790.92
521.93	1813.89
522.29	1837.32
522.65	1860.11
523.01	1882.88
523.37	1905.31
523.73	1928.50
524.09	1951.22
524.45	1973.79
524.81	1995.80
525.17	2017.51
525.53	2038.85
525.89	2060.76
526.25	2082.66
526.61	2103.40
526.97	2124.16
527.33	2144.76
527.68	2165.15
528.04	2184.88
528.40	2203.65
528.76	2222.41
529.12	2240.65
529.48	2258.82
529.84	2274.96
530.20	2291.86
530.56	2308.22
530.91	2324.55
531.27	2340.55
531.63	2355.76
531.99	2370.41
532.35	2384.62
532.71	2399.03
533.07	2413.75
533.42	2426.57
533.78	2440.29
534.14	2454.41
534.50	2467.71
534.86	2480.75
535.21	2491.95
535.57	2503.57
535.93	2514.99
536.29	2525.23
536.65	2535.47
537.00	2544.70
537.36	2555.11
537.72	2564.20
538.08	2572.61
538.44	2580.47
538.79	2587.91
539.15	2594.53
539.51	2600.79
539.87	2606.28
540.22	2609.94
540.58	2613.69
540.94	2618.80
541.29	2622.34
541.65	2624.17
542.01	2625.34
542.37	2625.90
542.72	2627.58
543.08	2627.66
543.44	2628.43
543.79	2628.31
544.15	2627.30
544.51	2626.63
544.87	2624.87
545.22	2622.32
545.58	2619.09
545.94	2615.85
546.29	2611.37
546.65	2607.08
547.01	2602.75
547.36	2599.06
547.72	2595.41
548.07	2590.35
548.43	2583.93
548.79	2576.54
549.14	2570.30
549.50	2564.33
549.86	2557.20
550.21	2549.36
550.57	2542.14
550.92	2532.73
551.28	2524.06
551.64	2515.61
551.99	2506.82
552.35	2497.50
552.70	2488.41
553.06	2479.99
553.41	2470.89
553.77	2461.54
554.13	2451.93
554.48	2441.62
554.84	2430.16
555.19	2419.22
555.55	2408.20
555.90	2397.16
556.26	2386.68
556.61	2375.22
556.97	2362.43
557.32	2350.20
557.68	2337.69
558.03	2325.07
558.39	2313.70
558.74	2302.36
559.10	2289.67
559.45	2277.07
559.81	2264.94
560.16	2252.53
560.52	2240.10
560.87	2228.01
561.23	2215.18
561.58	2202.50
561.94	2189.50
562.29	2176.14
562.64	2163.28
563.00	2150.17
563.35	2137.56
563.71	2124.80
564.06	2111.89
564.42	2099.45
564.77	2086.70
565.12	2073.95
565.48	2061.25
565.83	2048.35
566.19	2035.76
566.54	2022.86
566.89	2009.18
567.25	1995.70
567.60	1983.28
567.96	1970.15
568.31	1955.66
568.66	1941.92
569.02	1929.45
569.37	1916.74
569.72	1904.58
570.08	1891.34
570.43	1877.78
570.78	1863.88
571.14	1849.50
571.49	1835.75
571.84	1822.55
572.20	1808.25
572.55	1794.09
572.90	1779.89
573.26	1765.73
573.61	1751.01
573.96	1736.83
574.31	1722.72
574.67	1708.74
575.02	1693.77
575.37	1678.84
575.72	1664.92
576.08	1651.33
576.43	1636.56
576.78	1622.35
577.13	1608.33
577.49	1594.77
577.84	1581.70
578.19	1567.95
578.54	1554.26
578.90	1540.15
579.25	1525.94
579.60	1513.14
579.95	1500.34
580.30	1487.27
580.66	1473.97
581.01	1460.66
581.36	1447.40
581.71	1435.08
582.06	1422.58
582.42	1410.35
582.77	1398.23
583.12	1386.10
583.47	1373.70
583.82	1361.63
584.17	1349.16
584.53	1336.34
584.88	1323.82
585.23	1311.02
585.58	1298.93
585.93	1287.07
586.28	1275.78
586.63	1264.49
586.98	1252.84
587.34	1241.24
587.69	1229.56
588.04	1218.22
588.39	1207.23
588.74	1196.37
589.09	1185.33
589.44	1173.91
589.79	1162.98
590.14	1152.20
590.49	1141.30
590.84	1130.57
591.19	1120.04
591.54	1109.45
591.89	1099.12
592.25	1088.90
592.60	1078.41
592.95	1068.23
593.30	1058.25
593.65	1048.11
594.00	1038.01
594.35	1028.45
594.70	1018.49
595.05	1009.22
595.40	999.97
595.75	990.53
596.10	981.50
596.45	972.32
596.80	963.48
597.15	954.51
597.50	945.62
597.85	937.14
598.19	928.53
598.54	919.96
598.89	911.75
599.24	903.77
599.59	895.69
599.94	888.39
600.29	880.91
600.64	873.18
600.99	865.14
601.34	857.47
601.69	849.48
602.04	842.09
602.39	834.64
602.74	827.21
603.08	819.77
603.43	812.27
603.78	804.94
604.13	797.73
604.48	790.49
604.83	783.42
605.18	776.22
605.53	769.28
605.87	762.22
606.22	755.43
606.57	748.58
606.92	741.62
607.27	734.67
607.62	728.01
607.96	721.67
608.31	715.73
608.66	709.63
609.01	703.77
609.36	698.05
609.70	692.07
610.05	686.06
610.40	680.33
610.75	674.60
611.10	669.15
611.44	663.59
611.79	658.12
612.14	652.61
612.49	647.18
612.83	641.95
613.18	636.83
613.53	631.64
613.88	626.52
614.22	621.76
614.57	616.92
614.92	611.93
615.27	607.05
615.61	602.23
615.96	597.45
616.31	592.67
616.65	587.99
617.00	583.47
617.35	579.02
617.70	574.61
618.04	570.33
618.39	565.98
618.74	561.82
619.08	557.70
619.43	553.65
619.78	549.63
620.12	545.61
620.47	541.73
620.82	537.95
621.16	534.20
621.51	530.37
621.85	526.58
622.20	522.95
622.55	519.34
622.89	515.75
623.24	512.24
623.59	508.75
623.93	505.32
624.28	502.01
624.62	498.82
624.97	495.66
625.32	492.41
625.66	489.13
626.01	485.83
626.35	482.61
626.70	479.40
627.04	476.43
627.39	473.37
627.73	470.41
628.08	467.54
628.43	464.66
628.77	461.85
629.12	459.14
629.46	456.46
629.81	453.72
630.15	451.01
630.50	448.34
630.84	445.72
631.19	443.18
631.53	440.72
631.88	438.21
632.22	435.72
632.57	433.52
632.91	431.34
633.26	429.21
633.60	427.10
633.95	425.08
634.29	422.93
634.64	420.85
634.98	418.64
635.32	416.56
635.67	414.63
636.01	412.62
636.36	410.65
636.70	408.81
637.05	406.97
637.39	405.15
637.73	403.37
638.08	401.68
638.42	399.99
638.77	398.17
639.11	396.29
639.45	394.50
639.80	392.64
640.14	390.88
640.49	389.11
640.83	387.32
641.17	385.58
641.52	383.92
641.86	382.25
642.20	380.76
642.55	379.12
642.89	377.54
643.23	376.03
643.58	374.65
643.92	373.14
644.26	371.68
644.61	370.28
644.95	368.83
645.29	367.32
645.64	365.80
645.98	364.41
646.32	363.11
646.66	361.77
647.01	360.44
647.35	359.17
647.69	357.88
648.04	356.69
648.38	355.45
648.72	354.21
649.06	352.98
649.41	351.76
649.75	350.59
650.09	349.42
650.43	348.26
650.78	347.05
651.12	345.89
651.46	344.77
651.80	343.67
652.14	342.59
652.49	341.55
652.83	340.51
653.17	339.48
653.51	338.49
653.85	337.58
654.20	336.60
654.54	335.54
654.88	334.55
655.22	333.61
655.56	332.63
655.90	331.71
656.25	330.83
656.59	329.92
656.93	329.07
657.27	328.24
657.61	327.33
657.95	326.47
658.29	325.59
658.64	324.78
658.98	323.95
659.32	323.13
659.66	322.38
660.00	321.62
660.34	320.85
660.68	320.05
661.02	319.21
661.36	318.43
661.70	317.69
662.05	316.95
662.39	316.21
662.73	315.57
663.07	314.94
663.41	314.25
663.75	313.55
664.09	312.85
664.43	312.10
664.77	311.44
665.11	310.73
665.45	310.10
665.79	309.46
666.13	308.80
666.47	308.11
666.81	307.39
667.15	306.65
667.49	306.03
667.83	305.44
668.17	304.85
668.51	304.27
668.85	303.72
669.19	303.20
669.53	302.58
669.87	301.93
670.21	301.30
670.55	300.71
670.89	300.22
671.23	299.67
671.57	299.14
671.91	298.66
672.25	298.20
672.58	297.74
672.92	297.19
673.26	296.72
673.60	296.24
673.94	295.79
674.28	295.37
674.62	294.91
674.96	294.39
675.30	293.93
675.64	293.45
675.97	292.94
676.31	292.41
676.65	291.95
676.99	291.54
677.33	291.06
677.67	290.60
678.01	290.06
678.34	289.60
678.68	289.17
679.02	288.66
679.36	288.19
679.70	287.70
680.04	287.26
680.37	286.81
680.71	286.37
681.05	285.96
681.39	285.50
681.73	285.01
682.06	284.57
682.40	284.11
682.74	283.71
683.08	283.37
683.42	282.96
683.75	282.56
684.09	282.09
684.43	281.68
684.77	281.26
685.10	280.89
685.44	280.50
685.78	280.11
686.12	279.74
686.45	279.33
686.79	278.90
687.13	278.53
687.46	278.11
687.80	277.72
688.14	277.27
688.48	276.89
688.81	276.49
689.15	276.12
689.49	275.71
689.82	275.29
690.16	274.83
690.50	274.44
690.83	274.06
691.17	273.65
691.51	273.27
691.84	272.91
692.18	272.52
692.52	272.11
692.85	271.72
693.19	271.38
693.52	271.00
693.86	270.61
694.20	270.23
694.53	269.87
694.87	269.49
695.21	269.10
695.54	268.72
695.88	268.35
696.21	267.95
696.55	267.61
696.88	267.26
697.22	266.91
697.56	266.55
697.89	266.14
698.23	265.80
698.56	265.42
698.90	265.07
699.23	264.69
699.57	264.32
699.90	263.96
700.24	263.57
700.58	263.24
700.91	262.95
701.25	262.73
701.58	262.44
701.92	262.16
702.25	261.87
702.59	261.56
702.92	261.25
703.26	260.93
703.59	260.60
703.93	260.38
704.26	260.08
704.60	259.76
704.93	259.46
705.26	259.14
705.60	258.89
705.93	258.55
706.27	258.29
706.60	258.04
706.94	257.79
707.27	257.46
707.61	257.16
707.94	256.83
708.27	256.42
708.61	256.08
708.94	255.76
709.28	255.46
709.61	255.16
709.94	254.89
710.28	254.64
710.61	254.39
710.95	254.01
711.28	253.82
711.61	253.56
711.95	253.34
712.28	253.07
712.61	252.78
712.95	252.61
713.28	252.43
713.61	252.15
713.95	251.87
714.28	251.64
714.61	251.38
714.95	251.13
715.28	250.89
715.61	250.67
715.95	250.45
716.28	250.22
716.61	250.03
716.95	249.79
717.28	249.56
717.61	249.34
717.94	249.13
718.28	248.82
718.61	248.59
718.94	248.35
719.27	248.14
719.61	247.95
719.94	247.70
720.27	247.40
720.60	247.19
720.94	246.99
721.27	246.81
721.60	246.62
721.93	246.42
722.27	246.27
722.60	246.08
722.93	245.87
723.26	245.69
723.59	245.46
723.93	245.28
724.26	245.12
724.59	244.93
724.92	244.75
725.25	244.63
725.59	244.45
725.92	244.30
726.25	244.14
726.58	243.97
726.91	243.79
727.24	243.65
727.57	243.49
727.91	243.31
728.24	243.16
728.57	243.00
728.90	242.87
729.23	242.65
729.56	242.54
729.89	242.38
730.22	242.22
730.55	242.08
730.89	241.93
731.22	241.76
731.55	241.62
731.88	241.47
732.21	241.28
732.54	241.13
732.87	240.98
733.20	240.85
733.53	240.71
733.86	240.58
734.19	240.42
734.52	240.30
734.85	240.26
735.18	240.10
735.51	240.00
735.84	239.88
736.17	239.80
736.50	239.61
736.83	239.64
737.16	239.52
737.49	239.41
737.82	239.28
738.15	239.18
738.48	239.05
738.81	238.93
739.14	238.81
739.47	238.68
739.80	238.56
740.13	238.44
740.46	238.30
740.79	238.17
741.12	238.06
741.45	237.92
741.78	237.73
742.11	237.66
742.44	237.51
742.77	237.41
743.10	237.27
743.43	237.16
743.75	236.93
744.08	237.01
744.41	236.89
744.74	236.78
745.07	236.64
745.40	236.57
745.73	236.51
746.06	236.42
746.39	236.35
746.71	236.25
747.04	236.14
747.37	236.05
747.70	235.99
748.03	235.91
748.36	235.84
748.68	235.74
749.01	235.60
749.34	235.52
749.67	235.44
750.00	235.37
750.33	235.38
750.65	235.30
750.98	235.02
751.31	234.94
751.64	234.86
751.97	234.84
752.29	234.75
752.62	234.61
752.95	234.51
753.28	234.41
753.60	234.33
753.93	234.28
754.26	234.21
754.59	234.08
754.91	233.98
755.24	233.89
755.57	233.87
755.90	233.79
756.22	233.70
756.55	233.60
756.88	233.49
757.20	233.34
757.53	233.22
757.86	233.15
758.19	233.09
758.51	233.02
758.84	232.90
759.17	232.80
759.49	232.74
759.82	232.73
760.15	232.67
760.47	232.61
760.80	232.50
761.13	232.46
761.45	232.40
761.78	232.34
762.11	232.29
762.43	232.16
762.76	232.10
763.08	232.06
763.41	232.01
763.74	231.95
764.06	231.89
764.39	231.84
764.71	231.78
765.04	231.71
765.37	231.64
765.69	231.58
766.02	231.53
766.34	231.45
766.67	231.35
767.00	231.31
767.32	231.32
767.65	231.35
767.97	231.29
768.30	231.24
768.62	231.19
768.95	231.13
769.27	231.07
769.60	231.05
769.92	230.98
770.25	230.91
770.57	230.85
770.90	230.80
771.22	230.76
771.55	230.72
771.87	230.69
772.20	230.64
772.52	230.71
772.85	230.83
773.17	230.80
773.50	230.76
773.82	230.71
774.15	230.61
774.47	230.49
774.80	230.45
775.12	230.43
775.45	230.38
775.77	230.36
776.09	230.34
776.42	230.29
776.74	230.30
777.07	230.28
777.39	230.25
777.72	230.22
778.04	230.20
778.36	230.16
778.69	230.13
779.01	230.11
779.33	229.98
779.66	229.80
779.98	229.77
780.31	229.75
780.63	229.77
780.95	229.77
781.28	229.74
781.60	229.70
781.92	229.67
782.25	229.64
782.57	229.61
782.89	229.59
783.22	229.56
783.54	229.50
783.86	229.48
784.19	229.45
784.51	229.47
784.83	229.43
785.16	229.40
785.48	229.38
785.80	229.36
786.12	229.35
786.45	229.34
786.77	229.32
787.09	229.28
787.42	229.22
787.74	229.21
788.06	229.19
788.38	229.16
788.71	229.14
789.03	229.13
789.35	229.12
789.67	229.08
789.99	229.06
790.32	229.01
790.64	229.00
790.96	229.10
791.28	229.04
791.61	229.01
791.93	229.01
792.25	228.99
792.57	229.07
792.89	229.03
793.21	229.01
793.54	228.98
793.86	228.96
794.18	228.94
794.50	228.89
794.82	228.87
795.14	228.87
795.47	228.87
795.79	228.85
796.11	228.80
796.43	228.79
796.75	228.77
797.07	228.78
797.39	228.76
797.71	228.64
798.04	228.62
798.36	228.61
798.68	228.58
799.00	228.57
799.32	228.49
799.64	228.50
799.96	228.49
800.28	228.50
800.60	228.47
800.92	228.46
801.24	228.45
801.56	228.45
801.89	228.43
802.21	228.42
802.53	228.39
802.85	228.41
803.17	228.45
803.49	228.42
803.81	228.38
804.13	228.36
804.45	228.34
804.77	228.35
805.09	228.33
805.41	228.31
805.73	228.27
806.05	228.22
806.37	228.19
806.69	228.16
807.01	228.14
807.33	228.14
807.65	228.08
807.97	228.13
808.28	228.09
808.60	228.08
808.92	228.05
809.24	228.12
809.56	228.08
809.88	228.03
810.20	228.02
810.52	228.05
810.84	228.02
811.16	228.00
811.48	227.97
811.80	228.00
812.12	227.99
812.43	228.01
812.75	228.00
813.07	227.98
813.39	227.98
813.71	227.96
814.03	227.94
814.35	227.93
814.67	227.86
814.98	227.85
815.30	227.83
815.62	227.79
815.94	227.70
816.26	227.70
816.58	227.67
816.89	227.68
817.21	227.64
817.53	227.65
817.85	227.64
818.17	227.64
818.48	227.58
818.80	227.60
819.12	227.55
819.44	227.53
819.76	227.52
820.07	227.51
820.39	227.50
820.71	227.50
821.03	227.50
821.34	227.49
821.66	227.50
821.98	227.50
822.30	227.50
822.61	227.57
822.93	227.54
823.25	227.53
823.57	227.51
823.88	227.52
824.20	227.51
824.52	227.52
824.83	227.50
825.15	227.48
825.47	227.47
825.79	227.48
826.10	227.48
826.42	227.47
826.74	227.47
827.05	227.46
827.37	227.46
827.69	227.44
828.00	227.44
828.32	227.43
828.64	227.41
828.95	227.47
829.27	227.43
829.58	227.43
829.90	227.45
830.22	227.45
830.53	227.42
830.85	227.40
831.17	227.37
831.48	227.37
831.80	227.36
832.11	227.35
832.43	227.33
832.75	227.31
833.06	227.38
833.38	227.35
833.69	227.34
834.01	227.35
834.32	227.35
834.64	227.33
834.96	227.32
835.27	227.32
835.59	227.27
835.90	227.24
836.22	227.24
836.53	227.22
836.85	227.19
837.16	227.31
837.48	227.31
837.79	227.34
838.11	227.34
838.42	227.34
838.74	227.36
839.05	227.34
839.37	227.34
839.68	227.25
840.00	227.24
840.31	227.25
840.63	227.23
840.94	227.22
841.26	227.21
841.57	227.20
841.88	227.21
842.20	227.19
842.51	227.17
842.83	227.17
843.14	227.28
843.46	227.27
843.77	227.19
844.08	227.19
844.40	227.16
844.71	227.14
845.03	227.12
845.34	227.11
845.65	227.10
845.97	227.10
846.28	227.11
846.60	227.11
846.91	227.09
847.22	227.09
847.54	227.11
847.85	227.11
848.16	227.10
848.48	227.06
848.79	227.11
849.10	227.12
849.42	227.12
849.73	227.00
850.04	227.00
850.36	226.97
850.67	226.98
850.98	226.98
851.30	226.99
851.61	226.97
851.92	226.97
852.23	227.01
852.55	227.01
852.86	227.02
853.17	227.02
853.49	227.05
853.80	227.06
854.11	227.06
854.42	227.07
854.74	227.05
855.05	227.06
855.36	226.99
855.67	226.98
855.99	226.98
856.30	227.12
856.61	227.11
856.92	227.11
857.23	227.10
857.55	227.09
857.86	227.08
858.17	227.09
858.48	227.06
858.79	227.03
859.11	227.04
859.42	227.02
859.73	227.01
860.04	226.99
860.35	226.97
860.66	226.92
860.98	226.91
861.29	226.92
861.60	226.92
861.91	226.95
862.22	226.93
862.53	226.92
862.84	226.77
863.16	226.80
863.47	226.77
863.78	226.76
864.09	226.77
864.40	226.78
864.71	226.78
865.02	226.81
865.33	226.79
865.64	226.76
865.95	226.76
866.27	226.83
866.58	226.82
866.89	226.83
867.20	226.82
867.51	226.79
867.82	226.79
868.13	226.82
868.44	226.79
868.75	226.80
869.06	226.80
869.37	226.81
869.68	226.78
869.99	226.81
870.30	226.82
870.61	226.83
870.92	226.80
871.23	226.79
871.54	226.80
871.85	226.84
872.16	226.84
872.47	226.83
872.78	226.77
873.09	226.78
873.40	226.77
873.71	226.80
874.02	226.81
874.33	226.80
874.64	226.77
874.95	226.81
875.26	226.78
875.56	226.78
875.87	226.77
876.18	226.76
876.49	226.88
876.80	226.87
877.11	226.85
877.42	226.86
877.73	226.87
878.04	226.85
878.35	226.85
878.66	226.86
878.96	226.87
879.27	226.85
879.58	226.86
879.89	226.85
880.20	226.89
880.51	226.88
880.82	226.89
881.12	226.90
881.43	226.87
881.74	226.86
882.05	226.87
882.36	226.87
882.67	226.89
882.97	226.76
883.28	226.74
883.59	226.75
883.90	226.75
884.21	226.77
884.51	226.76
884.82	226.73
885.13	226.74
885.44	226.73
885.74	226.74
886.05	226.72
886.36	226.73
886.67	226.67
886.98	226.73
887.28	226.73
887.59	226.73
887.90	226.74
888.20	226.73
888.51	226.75
888.82	226.73
889.13	226.73
889.43	226.84
889.74	226.84
890.05	226.84
890.35	226.83
890.66	226.80
890.97	226.79
891.28	226.78
891.58	226.78
891.89	226.78
892.20	226.76
892.50	226.75
892.81	226.74
893.12	226.74
893.42	226.68
893.73	226.68
894.04	226.68
894.34	226.70
894.65	226.71
894.95	226.69
895.26	226.69
895.57	226.75
895.87	226.61
896.18	226.63
896.48	226.63
896.79	226.63
897.10	226.65
897.40	226.67
897.71	226.67
898.01	226.66
898.32	226.68
898.63	226.68
898.93	226.68
899.24	226.69
899.54	226.67
899.85	226.67
900.15	226.66
900.46	226.65
900.76	226.65
901.07	226.64
901.38	226.63
901.68	226.64
901.99	226.57
902.29	226.58
902.60	226.57
902.90	226.56
903.21	226.56
903.51	226.54
903.82	226.56
904.12	226.56
904.43	226.56
904.73	226.55
905.03	226.56
905.34	226.68
905.64	226.66
905.95	226.67
906.25	226.66
906.56	226.67
906.86	226.68
907.17	226.66
907.47	226.67
907.77	226.66
908.08	226.63
908.38	226.64
908.69	226.65
908.99	226.67
909.30	226.68
909.60	226.67
909.90	226.69
910.21	226.65
910.51	226.65
910.81	226.64
911.12	226.64
911.42	226.65
911.73	226.51
912.03	226.53
912.33	226.57
912.64	226.56
912.94	226.54
913.24	226.52
913.55	226.51
913.85	226.50
914.15	226.53
914.46	226.55
914.76	226.54
915.06	226.54
915.37	226.51
915.67	226.51
915.97	226.50
916.27	226.46
916.58	226.47
916.88	226.46
917.18	226.46
917.49	226.54
917.79	226.52
918.09	226.56
918.39	226.59
918.70	226.58
919.00	226.59
919.30	226.65
919.60	226.64
919.91	226.64
920.21	226.65
920.51	226.62
920.81	226.61
921.12	226.63
921.42	226.62
921.72	226.63
922.02	226.63
922.32	226.64
922.63	226.66
922.93	226.72
923.23	226.73
923.53	226.72
923.83	226.63
924.13	226.65
924.44	226.64
924.74	226.65
925.04	226.68
925.34	226.68
925.64	226.64
925.94	226.64
926.24	226.71
926.55	226.70
926.85	226.71
927.15	226.71
927.45	226.70
927.75	226.70
928.05	226.70
928.35	226.69
928.65	226.71
928.95	226.72
929.26	226.65
929.56	226.67
929.86	226.69
930.16	226.69
930.46	226.68
930.76	226.67
931.06	226.61
931.36	226.57
931.66	226.59
931.96	226.60
932.26	226.61
932.56	226.55
932.86	226.55
933.16	226.55
933.46	226.54
933.76	226.53
934.06	226.55
934.36	226.59
934.66	226.59
934.96	226.57
935.26	226.59
935.56	226.60
935.86	226.56
936.16	226.54
936.46	226.54
936.76	226.53
937.06	226.51
937.36	226.52
937.66	226.53
937.96	226.51
938.26	226.48
938.56	226.47
938.86	226.48
939.16	226.52
939.46	226.52
939.76	226.53
940.06	226.53
940.35	226.51
940.65	226.44
940.95	226.46
941.25	226.43
941.55	226.41
941.85	226.40
942.15	226.45
942.45	226.48
942.75	226.48
943.04	226.48
943.34	226.52
943.64	226.51
943.94	226.50
944.24	226.50
944.54	226.52
944.84	226.52
945.13	226.51
945.43	226.47
945.73	226.47
946.03	226.46
946.33	226.45
946.62	226.44
946.92	226.44
947.22	226.45
947.52	226.47
947.82	226.48
948.11	226.47
948.41	226.43
948.71	226.38
949.01	226.38
949.31	226.38
949.60	226.36
949.90	226.37
950.20	226.36
950.50	226.35
950.79	226.34
951.09	226.35
951.39	226.36
951.69	226.34
951.98	226.36
952.28	226.36
952.58	226.36
952.87	226.36
953.17	226.38
953.47	226.35
953.76	226.34
954.06	226.31
954.36	226.29
954.66	226.30
954.95	226.34
955.25	226.34
955.55	226.36
955.84	226.33
956.14	226.35
956.44	226.36
956.73	226.35
957.03	226.35
957.32	226.34
957.62	226.34
957.92	226.37
958.21	226.35
958.51	226.50
958.81	226.52
959.10	226.54
959.40	226.57
959.69	226.59
959.99	226.61
960.29	226.63
960.58	226.63
960.88	226.67
961.17	226.66
961.47	226.68
961.76	226.67
962.06	226.69
962.36	226.66
962.65	226.67
962.95	226.68
963.24	226.67
963.54	226.68
963.83	226.69
964.13	226.68
964.42	226.67
964.72	226.55
965.01	226.55
965.31	226.53
965.60	226.50
965.90	226.59
966.19	226.57
966.49	226.56
966.78	226.56
967.08	226.54
967.37	226.54
967.67	226.52
967.96	226.53
968.26	226.53
968.55	226.55
968.85	226.54
969.14	226.54
969.43	226.54
969.73	226.52
970.02	226.51
970.32	226.50
970.61	226.49
970.91	226.46
971.20	226.45
971.49	226.45
971.79	226.46
972.08	226.36
972.38	226.38
972.67	226.37
972.96	226.39
973.26	226.38
973.55	226.41
973.85	226.39
974.14	226.39
974.43	226.40
974.73	226.38
975.02	226.38
975.31	226.39
975.61	226.39
975.90	226.39
976.19	226.38
976.49	226.39
976.78	226.39
977.07	226.39
977.37	226.40
977.66	226.42
977.95	226.40
978.24	226.41
978.54	226.43
978.83	226.42
979.12	226.43
979.42	226.43
979.71	226.41
980.00	226.41
980.29	226.41
980.59	226.39
980.88	226.43
981.17	226.42
981.46	226.41
981.76	226.41
982.05	226.45
982.34	226.46
982.63	226.46
982.93	226.47
983.22	226.51
983.51	226.51
983.80	226.53
984.09	226.55
984.39	226.54
984.68	226.53
984.97	226.54
985.26	226.53
985.55	226.54
985.85	226.51
986.14	226.54
986.43	226.55
986.72	226.55
987.01	226.51
987.30	226.51
987.59	226.51
987.89	226.52
988.18	226.48
988.47	226.47
988.76	226.47
989.05	226.46
989.34	226.42
989.63	226.46
989.92	226.44
990.22	226.41
990.51	226.41
990.80	226.39
991.09	226.40
991.38	226.41
991.67	226.39
991.96	226.39
992.25	226.39
992.54	226.36
992.83	226.36
993.12	226.36
993.41	226.38
993.70	226.43
993.99	226.45
994.28	226.47
994.58	226.49
994.87	226.47
995.16	226.46
995.45	226.46
995.74	226.41
996.03	226.43
996.32	226.45
996.61	226.47
996.90	226.47
997.19	226.46
997.48	226.47
997.77	226.45
998.06	226.46
998.34	226.44
998.63	226.45
998.92	226.45
999.21	226.47
999.50	226.46
999.79	226.41
1000.08	226.40
1000.37	226.40
1000.66	226.38
1000.95	226.41
1001.24	226.42
1001.53	226.43
1001.82	226.43
1002.11	226.40
1002.40	226.41
1002.68	226.44
1002.97	226.52
1003.26	226.50
1003.55	226.48
1003.84	226.50
1004.13	226.53
1004.42	226.52
1004.71	226.52
1004.99	226.51
1005.28	226.54
1005.57	226.53
1005.86	226.52
1006.15	226.51
1006.44	226.48
1006.72	226.50
1007.01	226.47
1007.30	226.47
1007.59	226.45
1007.88	226.45
1008.17	226.46
1008.45	226.41
1008.74	226.36
1009.03	226.30
1009.32	226.30
1009.60	226.30
1009.89	226.29
1010.18	226.25
1010.47	226.25
1010.76	226.25
1011.04	226.24
1011.33	226.23
1011.62	226.24
1011.91	226.26
1012.19	226.26
1012.48	226.27
1012.77	226.27
1013.05	226.31
1013.34	226.31
1013.63	226.30
1013.92	226.31
1014.20	226.30
1014.49	226.32
1014.78	226.33
1015.06	226.29
1015.35	226.29
1015.64	226.31
1015.92	226.33
1016.21	226.35
1016.50	226.36
1016.78	226.38
1017.07	226.39
1017.36	226.37
1017.64	226.35
1017.93	226.35
1018.22	226.34
1018.50	226.34
1018.79	226.34
1019.08	226.30
1019.36	226.30
1019.65	226.29
1019.93	226.33
1020.22	226.35
1020.51	226.41
1020.79	226.39
1021.08	226.24
1021.36	226.18
1021.65	226.33
1021.94	226.23
1022.22	226.37
1022.51	226.00
1022.79	227.01
1023.08	226.57
1023.36	227.77
1023.65	226.02
>>>>>End Processed Spectral Data<<<<<
