SpectraSuite Data File
++++++++++++++++++++++++++++++++++++
Date: Sat Oct 03 00:34:34 EDT 2015
User: lab3
Dark Spectrum Present: No
Reference Spectrum Present: No
Number of Sampled Component Spectra: 1
Spectrometers: USB2E7196
Integration Time (usec): 46000 (USB2E7196)
Spectra Averaged: 12000 (USB2E7196)
Boxcar Smoothing: 10 (USB2E7196)
Correct for Electrical Dark: No (USB2E7196)
Strobe/Lamp Enabled: No (USB2E7196)
Correct for Detector Non-linearity: No (USB2E7196)
Correct for Stray Light: No (USB2E7196)
Number of Pixels in Processed Spectrum: 2048
>>>>>Begin Processed Spectral Data<<<<<
339.09	0.00
339.48	214.66
339.86	216.16
340.24	217.55
340.63	218.93
341.01	222.18
341.39	221.66
341.78	223.01
342.16	224.23
342.54	224.63
342.93	213.09
343.31	223.86
343.69	224.40
344.07	224.86
344.46	225.29
344.84	225.69
345.22	225.91
345.60	226.17
345.99	226.36
346.37	226.50
346.75	226.61
347.13	226.69
347.52	226.76
347.90	226.85
348.28	226.88
348.66	226.95
349.05	226.94
349.43	227.00
349.81	227.06
350.19	227.11
350.57	227.18
350.96	227.26
351.34	227.36
351.72	227.45
352.10	227.56
352.48	227.62
352.87	227.67
353.25	227.74
353.63	227.80
354.01	227.86
354.39	227.94
354.77	228.02
355.15	228.12
355.54	228.17
355.92	228.20
356.30	228.27
356.68	228.42
357.06	228.49
357.44	228.54
357.82	228.59
358.20	228.71
358.58	228.77
358.97	228.83
359.35	228.92
359.73	229.00
360.11	229.05
360.49	229.11
360.87	229.16
361.25	229.22
361.63	229.31
362.01	229.36
362.39	229.39
362.77	229.43
363.15	229.46
363.53	229.49
363.91	229.53
364.29	229.55
364.67	229.45
365.05	229.47
365.43	229.50
365.81	229.53
366.19	229.55
366.57	229.60
366.95	229.60
367.33	229.57
367.71	229.56
368.09	229.58
368.47	229.57
368.85	229.56
369.23	229.57
369.61	229.51
369.99	229.53
370.37	229.53
370.75	229.60
371.13	229.57
371.51	229.52
371.89	229.50
372.27	229.48
372.65	229.46
373.03	229.42
373.41	229.37
373.78	229.32
374.16	229.22
374.54	229.13
374.92	229.08
375.30	229.04
375.68	228.97
376.06	228.93
376.44	228.87
376.82	228.83
377.19	228.78
377.57	228.73
377.95	228.63
378.33	228.58
378.71	228.41
379.09	228.37
379.47	228.34
379.84	228.27
380.22	228.21
380.60	228.14
380.98	228.10
381.36	228.05
381.73	227.99
382.11	227.96
382.49	227.92
382.87	227.86
383.25	227.82
383.62	227.92
384.00	227.85
384.38	227.81
384.76	227.80
385.13	227.80
385.51	227.76
385.89	227.70
386.27	227.67
386.64	227.65
387.02	227.61
387.40	227.56
387.78	227.54
388.15	227.52
388.53	227.48
388.91	227.45
389.29	227.42
389.66	227.42
390.04	227.38
390.42	227.38
390.79	227.37
391.17	227.35
391.55	227.20
391.92	227.19
392.30	227.19
392.68	227.15
393.05	227.13
393.43	227.13
393.81	227.14
394.18	227.12
394.56	227.12
394.94	227.15
395.31	227.14
395.69	227.19
396.06	227.22
396.44	227.24
396.82	227.25
397.19	227.34
397.57	227.35
397.95	227.40
398.32	227.39
398.70	227.44
399.07	227.50
399.45	227.54
399.82	227.58
400.20	227.62
400.58	227.68
400.95	227.69
401.33	227.78
401.70	227.93
402.08	228.03
402.45	228.12
402.83	228.23
403.20	228.35
403.58	228.43
403.95	228.57
404.33	228.72
404.71	228.86
405.08	229.07
405.46	229.23
405.83	229.41
406.21	229.61
406.58	229.82
406.96	230.03
407.33	230.28
407.70	230.56
408.08	230.94
408.45	231.27
408.83	231.63
409.20	231.95
409.58	232.24
409.95	232.64
410.33	233.07
410.70	233.48
411.08	233.96
411.45	234.48
411.82	234.99
412.20	235.59
412.57	236.29
412.95	236.84
413.32	237.56
413.69	238.30
414.07	239.09
414.44	239.94
414.82	240.81
415.19	241.83
415.56	242.87
415.94	243.93
416.31	245.14
416.68	246.34
417.06	247.73
417.43	249.04
417.81	250.54
418.18	252.08
418.55	253.75
418.93	255.48
419.30	257.29
419.67	259.22
420.04	261.19
420.42	263.25
420.79	265.64
421.16	268.05
421.54	270.49
421.91	273.04
422.28	275.69
422.66	278.55
423.03	281.27
423.40	284.12
423.77	287.18
424.15	290.32
424.52	293.59
424.89	297.13
425.26	300.64
425.64	303.90
426.01	307.57
426.38	311.33
426.75	315.21
427.13	319.18
427.50	323.33
427.87	327.65
428.24	332.02
428.61	336.21
428.99	340.74
429.36	345.71
429.73	350.47
430.10	355.22
430.47	360.09
430.85	365.10
431.22	370.48
431.59	376.02
431.96	381.41
432.33	387.40
432.70	393.12
433.08	399.85
433.45	406.23
433.82	412.51
434.19	419.53
434.56	426.45
434.93	433.13
435.30	439.74
435.68	447.20
436.05	454.51
436.42	461.79
436.79	468.43
437.16	475.60
437.53	483.28
437.90	490.97
438.27	498.49
438.64	506.60
439.01	513.96
439.38	520.69
439.75	527.16
440.13	534.45
440.50	541.38
440.87	546.87
441.24	552.89
441.61	559.46
441.98	564.22
442.35	569.88
442.72	575.65
443.09	581.13
443.46	584.58
443.83	587.08
444.20	589.15
444.57	592.27
444.94	594.00
445.31	595.80
445.68	597.30
446.05	598.35
446.42	597.86
446.79	597.18
447.16	596.56
447.53	595.98
447.90	593.51
448.27	591.13
448.64	587.60
449.01	585.11
449.37	580.28
449.74	575.90
450.11	570.30
450.48	564.18
450.85	558.07
451.22	552.83
451.59	547.73
451.96	543.12
452.33	536.45
452.70	530.54
453.07	523.33
453.43	516.15
453.80	509.19
454.17	502.54
454.54	496.42
454.91	489.52
455.28	483.06
455.65	476.98
456.02	470.57
456.38	465.40
456.75	458.75
457.12	453.41
457.49	448.01
457.86	442.94
458.23	438.52
458.59	433.61
458.96	428.58
459.33	424.16
459.70	419.66
460.07	416.25
460.43	412.23
460.80	408.49
461.17	405.25
461.54	401.72
461.91	398.43
462.27	395.08
462.64	392.40
463.01	389.28
463.38	386.14
463.74	383.31
464.11	380.81
464.48	378.58
464.85	376.13
465.21	374.31
465.58	372.25
465.95	369.87
466.32	367.98
466.68	366.14
467.05	364.28
467.42	362.45
467.78	360.49
468.15	358.68
468.52	357.37
468.88	355.59
469.25	353.97
469.62	352.69
469.98	351.29
470.35	350.03
470.72	348.90
471.08	347.74
471.45	346.77
471.82	345.69
472.18	344.54
472.55	343.80
472.92	342.86
473.28	342.13
473.65	341.34
474.02	340.59
474.38	339.96
474.75	339.59
475.11	339.07
475.48	338.83
475.85	338.57
476.21	338.43
476.58	338.33
476.94	338.45
477.31	338.50
477.67	338.59
478.04	338.78
478.41	339.06
478.77	339.47
479.14	339.72
479.50	340.22
479.87	340.87
480.23	341.52
480.60	342.16
480.96	342.80
481.33	343.76
481.69	344.71
482.06	345.67
482.42	346.54
482.79	347.62
483.15	348.88
483.52	350.31
483.88	351.67
484.25	353.15
484.61	354.68
484.98	356.34
485.34	358.21
485.71	360.16
486.07	362.24
486.44	364.32
486.80	366.63
487.17	369.05
487.53	371.69
487.90	374.45
488.26	377.46
488.62	380.63
488.99	383.81
489.35	387.15
489.72	390.77
490.08	394.59
490.44	398.54
490.81	402.64
491.17	406.85
491.54	411.37
491.90	416.04
492.26	421.02
492.63	426.25
492.99	431.70
493.36	437.34
493.72	443.28
494.08	449.37
494.45	455.85
494.81	462.56
495.17	469.46
495.54	476.75
495.90	484.33
496.26	492.08
496.63	500.09
496.99	508.40
497.35	517.11
497.72	526.09
498.08	535.28
498.44	544.79
498.80	554.86
499.17	565.18
499.53	575.82
499.89	586.83
500.26	598.08
500.62	609.62
500.98	621.77
501.34	634.12
501.71	646.98
502.07	660.02
502.43	673.59
502.79	687.38
503.16	701.64
503.52	716.10
503.88	730.98
504.24	746.30
504.60	761.84
504.97	777.86
505.33	794.31
505.69	811.64
506.05	829.31
506.41	846.92
506.78	864.72
507.14	883.03
507.50	901.80
507.86	920.90
508.22	940.22
508.59	959.41
508.95	979.39
509.31	1000.11
509.67	1021.51
510.03	1042.92
510.39	1064.40
510.75	1086.07
511.12	1108.02
511.48	1130.13
511.84	1152.32
512.20	1174.92
512.56	1198.36
512.92	1221.81
513.28	1244.91
513.64	1268.30
514.00	1292.12
514.37	1316.23
514.73	1340.37
515.09	1364.39
515.45	1388.75
515.81	1413.28
516.17	1437.96
516.53	1462.16
516.89	1486.25
517.25	1510.53
517.61	1534.73
517.97	1559.40
518.33	1583.60
518.69	1607.70
519.05	1632.31
519.41	1657.18
519.77	1682.27
520.13	1706.65
520.49	1730.96
520.85	1755.61
521.21	1779.82
521.57	1804.43
521.93	1828.58
522.29	1853.21
522.65	1877.32
523.01	1901.41
523.37	1925.12
523.73	1949.51
524.09	1973.67
524.45	1997.63
524.81	2021.18
525.17	2044.61
525.53	2067.46
525.89	2090.76
526.25	2114.08
526.61	2136.37
526.97	2158.85
527.33	2181.25
527.68	2203.35
528.04	2224.70
528.40	2245.12
528.76	2265.84
529.12	2286.05
529.48	2305.94
529.84	2324.06
530.20	2342.83
530.56	2360.98
530.91	2379.30
531.27	2397.31
531.63	2414.42
531.99	2431.08
532.35	2447.13
532.71	2463.29
533.07	2480.12
533.42	2495.14
533.78	2511.16
534.14	2527.36
534.50	2542.59
534.86	2557.59
535.21	2570.75
535.57	2584.39
535.93	2597.82
536.29	2610.08
536.65	2622.22
537.00	2633.66
537.36	2646.01
537.72	2656.89
538.08	2667.35
538.44	2677.15
538.79	2686.49
539.15	2695.05
539.51	2703.28
539.87	2710.85
540.22	2716.45
540.58	2722.08
540.94	2728.96
541.29	2734.20
541.65	2737.74
542.01	2740.53
542.37	2742.71
542.72	2746.18
543.08	2747.96
543.44	2750.33
543.79	2751.62
544.15	2752.07
544.51	2752.96
544.87	2752.70
545.22	2751.77
545.58	2750.16
545.94	2748.53
546.29	2745.62
546.65	2742.69
547.01	2739.67
547.36	2737.37
547.72	2735.16
548.07	2731.22
548.43	2725.82
548.79	2719.50
549.14	2714.46
549.50	2709.71
549.86	2703.99
550.21	2697.13
550.57	2691.23
550.92	2683.06
551.28	2675.50
551.64	2668.24
551.99	2660.46
552.35	2652.04
552.70	2643.88
553.06	2636.02
553.41	2627.54
553.77	2618.81
554.13	2610.04
554.48	2600.43
554.84	2589.60
555.19	2579.27
555.55	2568.99
555.90	2558.69
556.26	2548.95
556.61	2538.14
556.97	2525.70
557.32	2513.80
557.68	2501.80
558.03	2489.57
558.39	2478.52
558.74	2467.71
559.10	2455.17
559.45	2442.89
559.81	2431.29
560.16	2419.02
560.52	2406.95
560.87	2395.22
561.23	2382.69
561.58	2370.28
561.94	2357.51
562.29	2344.19
562.64	2331.57
563.00	2318.62
563.35	2306.16
563.71	2293.50
564.06	2280.65
564.42	2268.56
564.77	2255.83
565.12	2243.01
565.48	2230.17
565.83	2217.29
566.19	2204.53
566.54	2191.75
566.89	2177.80
567.25	2164.00
567.60	2151.54
567.96	2138.17
568.31	2123.47
568.66	2109.51
569.02	2096.70
569.37	2083.79
569.72	2071.42
570.08	2057.78
570.43	2043.85
570.78	2029.69
571.14	2014.80
571.49	2000.60
571.84	1986.94
572.20	1972.05
572.55	1957.44
572.90	1942.70
573.26	1927.96
573.61	1912.70
573.96	1897.91
574.31	1883.35
574.67	1868.83
575.02	1853.26
575.37	1837.81
575.72	1823.20
576.08	1808.92
576.43	1793.47
576.78	1778.45
577.13	1763.70
577.49	1749.25
577.84	1735.44
578.19	1720.68
578.54	1706.14
578.90	1691.10
579.25	1675.93
579.60	1662.34
579.95	1648.63
580.30	1634.77
580.66	1620.66
581.01	1606.44
581.36	1592.17
581.71	1578.96
582.06	1565.62
582.42	1552.52
582.77	1539.45
583.12	1526.35
583.47	1513.09
583.82	1499.97
584.17	1486.51
584.53	1472.71
584.88	1459.31
585.23	1445.40
585.58	1432.35
585.93	1419.50
586.28	1407.44
586.63	1395.35
586.98	1382.79
587.34	1370.28
587.69	1357.46
588.04	1344.99
588.39	1332.92
588.74	1321.00
589.09	1308.81
589.44	1296.22
589.79	1284.28
590.14	1272.44
590.49	1260.52
590.84	1248.76
591.19	1237.40
591.54	1225.83
591.89	1214.44
592.25	1203.19
592.60	1191.62
592.95	1180.44
593.30	1169.48
593.65	1158.16
594.00	1147.00
594.35	1136.40
594.70	1125.39
595.05	1115.27
595.40	1105.03
595.75	1094.63
596.10	1084.78
596.45	1074.63
596.80	1064.84
597.15	1054.80
597.50	1044.90
597.85	1035.42
598.19	1025.75
598.54	1016.14
598.89	1006.97
599.24	998.13
599.59	989.10
599.94	981.03
600.29	972.70
600.64	964.09
600.99	955.11
601.34	946.51
601.69	937.56
602.04	929.31
602.39	920.90
602.74	912.52
603.08	904.12
603.43	895.67
603.78	887.41
604.13	879.31
604.48	871.19
604.83	863.26
605.18	855.23
605.53	847.37
605.87	839.31
606.22	831.60
606.57	823.79
606.92	815.92
607.27	807.94
607.62	800.31
607.96	793.11
608.31	786.34
608.66	779.36
609.01	772.66
609.36	766.05
609.70	759.20
610.05	752.34
610.40	745.76
610.75	739.17
611.10	732.92
611.44	726.50
611.79	720.19
612.14	713.80
612.49	707.52
612.83	701.54
613.18	695.67
613.53	689.69
613.88	683.77
614.22	678.26
614.57	672.69
614.92	666.95
615.27	661.32
615.61	655.75
615.96	650.24
616.31	644.72
616.65	639.27
617.00	634.05
617.35	628.93
617.70	623.87
618.04	618.83
618.39	613.74
618.74	608.90
619.08	604.11
619.43	599.42
619.78	594.75
620.12	590.02
620.47	585.48
620.82	581.06
621.16	576.64
621.51	572.10
621.85	567.62
622.20	563.31
622.55	559.01
622.89	554.80
623.24	550.59
623.59	546.43
623.93	542.43
624.28	538.50
624.62	534.68
624.97	530.88
625.32	527.08
625.66	523.22
626.01	519.32
626.35	515.50
626.70	511.74
627.04	508.15
627.39	504.51
627.73	501.02
628.08	497.62
628.43	494.21
628.77	490.90
629.12	487.71
629.46	484.52
629.81	481.25
630.15	477.98
630.50	474.82
630.84	471.70
631.19	468.66
631.53	465.72
631.88	462.74
632.22	459.78
632.57	457.11
632.91	454.49
633.26	451.94
633.60	449.40
633.95	446.92
634.29	444.36
634.64	441.88
634.98	439.19
635.32	436.66
635.67	434.33
636.01	431.91
636.36	429.55
636.70	427.34
637.05	425.12
637.39	422.93
637.73	420.78
638.08	418.73
638.42	416.63
638.77	414.42
639.11	412.14
639.45	409.96
639.80	407.71
640.14	405.58
640.49	403.43
640.83	401.26
641.17	399.18
641.52	397.15
641.86	395.14
642.20	393.34
642.55	391.37
642.89	389.44
643.23	387.59
643.58	385.91
643.92	384.09
644.26	382.34
644.61	380.65
644.95	378.91
645.29	377.11
645.64	375.33
645.98	373.64
646.32	372.08
646.66	370.49
647.01	368.93
647.35	367.40
647.69	365.86
648.04	364.47
648.38	362.98
648.72	361.52
649.06	360.07
649.41	358.62
649.75	357.24
650.09	355.87
650.43	354.50
650.78	353.07
651.12	351.69
651.46	350.36
651.80	349.06
652.14	347.78
652.49	346.57
652.83	345.32
653.17	344.12
653.51	342.95
653.85	341.84
654.20	340.68
654.54	339.45
654.88	338.31
655.22	337.18
655.56	336.05
655.90	334.99
656.25	333.96
656.59	332.90
656.93	331.91
657.27	330.93
657.61	329.89
657.95	328.90
658.29	327.90
658.64	326.95
658.98	325.99
659.32	325.06
659.66	324.18
660.00	323.32
660.34	322.45
660.68	321.55
661.02	320.62
661.36	319.74
661.70	318.89
662.05	318.05
662.39	317.23
662.73	316.49
663.07	315.74
663.41	314.96
663.75	314.17
664.09	313.39
664.43	312.57
664.77	311.83
665.11	311.06
665.45	310.35
665.79	309.65
666.13	308.91
666.47	308.15
666.81	307.39
667.15	306.60
667.49	305.91
667.83	305.28
668.17	304.63
668.51	304.02
668.85	303.43
669.19	302.88
669.53	302.23
669.87	301.57
670.21	300.92
670.55	300.32
670.89	299.80
671.23	299.23
671.57	298.67
671.91	298.16
672.25	297.67
672.58	297.18
672.92	296.60
673.26	296.12
673.60	295.64
673.94	295.17
674.28	294.74
674.62	294.26
674.96	293.73
675.30	293.27
675.64	292.76
675.97	292.24
676.31	291.69
676.65	291.20
676.99	290.78
677.33	290.28
677.67	289.82
678.01	289.28
678.34	288.82
678.68	288.39
679.02	287.90
679.36	287.42
679.70	286.94
680.04	286.51
680.37	286.06
680.71	285.62
681.05	285.21
681.39	284.75
681.73	284.27
682.06	283.81
682.40	283.38
682.74	283.00
683.08	282.66
683.42	282.25
683.75	281.88
684.09	281.43
684.43	281.05
684.77	280.66
685.10	280.32
685.44	279.94
685.78	279.56
686.12	279.21
686.45	278.83
686.79	278.44
687.13	278.07
687.46	277.68
687.80	277.31
688.14	276.89
688.48	276.54
688.81	276.17
689.15	275.84
689.49	275.46
689.82	275.07
690.16	274.63
690.50	274.27
690.83	273.89
691.17	273.51
691.51	273.14
691.84	272.80
692.18	272.40
692.52	272.01
692.85	271.64
693.19	271.31
693.52	270.95
693.86	270.59
694.20	270.24
694.53	269.90
694.87	269.53
695.21	269.17
695.54	268.82
695.88	268.47
696.21	268.08
696.55	267.75
696.88	267.41
697.22	267.07
697.56	266.74
697.89	266.36
698.23	266.03
698.56	265.66
698.90	265.33
699.23	264.98
699.57	264.64
699.90	264.30
700.24	263.94
700.58	263.63
700.91	263.35
701.25	263.14
701.58	262.88
701.92	262.61
702.25	262.31
702.59	261.99
702.92	261.69
703.26	261.38
703.59	261.06
703.93	260.85
704.26	260.56
704.60	260.25
704.93	259.95
705.26	259.64
705.60	259.39
705.93	259.06
706.27	258.81
706.60	258.56
706.94	258.32
707.27	258.00
707.61	257.70
707.94	257.38
708.27	256.97
708.61	256.63
708.94	256.32
709.28	256.04
709.61	255.75
709.94	255.50
710.28	255.25
710.61	255.03
710.95	254.66
711.28	254.48
711.61	254.22
711.95	254.00
712.28	253.74
712.61	253.47
712.95	253.30
713.28	253.11
713.61	252.83
713.95	252.54
714.28	252.32
714.61	252.07
714.95	251.83
715.28	251.59
715.61	251.37
715.95	251.16
716.28	250.93
716.61	250.75
716.95	250.51
717.28	250.28
717.61	250.05
717.94	249.83
718.28	249.53
718.61	249.30
718.94	249.07
719.27	248.86
719.61	248.67
719.94	248.43
720.27	248.14
720.60	247.94
720.94	247.74
721.27	247.54
721.60	247.37
721.93	247.17
722.27	247.01
722.60	246.83
722.93	246.62
723.26	246.43
723.59	246.19
723.93	246.02
724.26	245.84
724.59	245.64
724.92	245.47
725.25	245.34
725.59	245.17
725.92	245.02
726.25	244.85
726.58	244.67
726.91	244.49
727.24	244.35
727.57	244.18
727.91	244.00
728.24	243.86
728.57	243.69
728.90	243.54
729.23	243.34
729.56	243.23
729.89	243.07
730.22	242.90
730.55	242.75
730.89	242.59
731.22	242.43
731.55	242.28
731.88	242.12
732.21	241.94
732.54	241.79
732.87	241.64
733.20	241.50
733.53	241.36
733.86	241.23
734.19	241.06
734.52	240.94
734.85	240.89
735.18	240.72
735.51	240.62
735.84	240.49
736.17	240.39
736.50	240.20
736.83	240.22
737.16	240.10
737.49	239.98
737.82	239.85
738.15	239.75
738.48	239.63
738.81	239.50
739.14	239.37
739.47	239.24
739.80	239.10
740.13	238.99
740.46	238.85
740.79	238.71
741.12	238.59
741.45	238.44
741.78	238.25
742.11	238.17
742.44	238.02
742.77	237.91
743.10	237.78
743.43	237.65
743.75	237.41
744.08	237.50
744.41	237.37
744.74	237.26
745.07	237.12
745.40	237.03
745.73	236.98
746.06	236.88
746.39	236.80
746.71	236.69
747.04	236.58
747.37	236.49
747.70	236.42
748.03	236.33
748.36	236.26
748.68	236.16
749.01	236.03
749.34	235.94
749.67	235.85
750.00	235.78
750.33	235.79
750.65	235.70
750.98	235.42
751.31	235.34
751.64	235.26
751.97	235.24
752.29	235.14
752.62	235.00
752.95	234.90
753.28	234.80
753.60	234.71
753.93	234.65
754.26	234.58
754.59	234.45
754.91	234.35
755.24	234.26
755.57	234.23
755.90	234.14
756.22	234.05
756.55	233.94
756.88	233.84
757.20	233.67
757.53	233.56
757.86	233.48
758.19	233.41
758.51	233.33
758.84	233.19
759.17	233.10
759.49	233.03
759.82	233.02
760.15	232.96
760.47	232.89
760.80	232.79
761.13	232.74
761.45	232.67
761.78	232.61
762.11	232.55
762.43	232.42
762.76	232.36
763.08	232.32
763.41	232.26
763.74	232.21
764.06	232.15
764.39	232.10
764.71	232.04
765.04	231.97
765.37	231.90
765.69	231.85
766.02	231.79
766.34	231.73
766.67	231.62
767.00	231.59
767.32	231.61
767.65	231.64
767.97	231.57
768.30	231.52
768.62	231.48
768.95	231.41
769.27	231.36
769.60	231.33
769.92	231.25
770.25	231.18
770.57	231.12
770.90	231.07
771.22	231.01
771.55	230.97
771.87	230.93
772.20	230.89
772.52	230.95
772.85	231.06
773.17	231.02
773.50	230.97
773.82	230.91
774.15	230.80
774.47	230.68
774.80	230.63
775.12	230.59
775.45	230.55
775.77	230.53
776.09	230.50
776.42	230.46
776.74	230.47
777.07	230.44
777.39	230.41
777.72	230.37
778.04	230.35
778.36	230.31
778.69	230.28
779.01	230.26
779.33	230.12
779.66	229.95
779.98	229.91
780.31	229.89
780.63	229.91
780.95	229.91
781.28	229.88
781.60	229.84
781.92	229.82
782.25	229.79
782.57	229.76
782.89	229.72
783.22	229.69
783.54	229.63
783.86	229.62
784.19	229.59
784.51	229.60
784.83	229.56
785.16	229.53
785.48	229.51
785.80	229.48
786.12	229.46
786.45	229.44
786.77	229.43
787.09	229.40
787.42	229.32
787.74	229.30
788.06	229.29
788.38	229.26
788.71	229.23
789.03	229.21
789.35	229.21
789.67	229.18
789.99	229.16
790.32	229.13
790.64	229.12
790.96	229.22
791.28	229.16
791.61	229.13
791.93	229.12
792.25	229.09
792.57	229.16
792.89	229.12
793.21	229.11
793.54	229.08
793.86	229.05
794.18	229.04
794.50	229.00
794.82	228.97
795.14	228.97
795.47	228.98
795.79	228.96
796.11	228.91
796.43	228.89
796.75	228.87
797.07	228.86
797.39	228.84
797.71	228.72
798.04	228.71
798.36	228.70
798.68	228.68
799.00	228.68
799.32	228.60
799.64	228.61
799.96	228.59
800.28	228.60
800.60	228.58
800.92	228.57
801.24	228.55
801.56	228.55
801.89	228.52
802.21	228.51
802.53	228.48
802.85	228.49
803.17	228.54
803.49	228.50
803.81	228.47
804.13	228.45
804.45	228.42
804.77	228.41
805.09	228.40
805.41	228.38
805.73	228.34
806.05	228.29
806.37	228.27
806.69	228.24
807.01	228.22
807.33	228.21
807.65	228.15
807.97	228.20
808.28	228.17
808.60	228.15
808.92	228.12
809.24	228.18
809.56	228.15
809.88	228.09
810.20	228.09
810.52	228.11
810.84	228.08
811.16	228.05
811.48	228.03
811.80	228.06
812.12	228.05
812.43	228.06
812.75	228.06
813.07	228.04
813.39	228.04
813.71	228.01
814.03	227.99
814.35	227.99
814.67	227.93
814.98	227.91
815.30	227.89
815.62	227.87
815.94	227.78
816.26	227.78
816.58	227.75
816.89	227.75
817.21	227.71
817.53	227.71
817.85	227.71
818.17	227.70
818.48	227.64
818.80	227.66
819.12	227.62
819.44	227.60
819.76	227.57
820.07	227.56
820.39	227.55
820.71	227.55
821.03	227.55
821.34	227.53
821.66	227.54
821.98	227.55
822.30	227.54
822.61	227.61
822.93	227.58
823.25	227.57
823.57	227.54
823.88	227.56
824.20	227.55
824.52	227.56
824.83	227.55
825.15	227.53
825.47	227.52
825.79	227.52
826.10	227.51
826.42	227.51
826.74	227.51
827.05	227.50
827.37	227.50
827.69	227.48
828.00	227.49
828.32	227.47
828.64	227.45
828.95	227.51
829.27	227.47
829.58	227.47
829.90	227.49
830.22	227.49
830.53	227.46
830.85	227.44
831.17	227.41
831.48	227.40
831.80	227.40
832.11	227.39
832.43	227.37
832.75	227.36
833.06	227.43
833.38	227.40
833.69	227.39
834.01	227.38
834.32	227.37
834.64	227.36
834.96	227.36
835.27	227.35
835.59	227.30
835.90	227.28
836.22	227.27
836.53	227.24
836.85	227.22
837.16	227.35
837.48	227.34
837.79	227.38
838.11	227.38
838.42	227.37
838.74	227.38
839.05	227.37
839.37	227.36
839.68	227.28
840.00	227.28
840.31	227.29
840.63	227.27
840.94	227.26
841.26	227.24
841.57	227.23
841.88	227.24
842.20	227.22
842.51	227.19
842.83	227.19
843.14	227.31
843.46	227.30
843.77	227.23
844.08	227.22
844.40	227.17
844.71	227.16
845.03	227.15
845.34	227.13
845.65	227.13
845.97	227.13
846.28	227.13
846.60	227.14
846.91	227.12
847.22	227.11
847.54	227.14
847.85	227.14
848.16	227.13
848.48	227.10
848.79	227.15
849.10	227.17
849.42	227.17
849.73	227.04
850.04	227.04
850.36	226.99
850.67	227.01
850.98	227.02
851.30	227.02
851.61	227.02
851.92	227.01
852.23	227.05
852.55	227.05
852.86	227.05
853.17	227.06
853.49	227.09
853.80	227.11
854.11	227.11
854.42	227.12
854.74	227.11
855.05	227.11
855.36	227.04
855.67	227.04
855.99	227.04
856.30	227.19
856.61	227.19
856.92	227.18
857.23	227.18
857.55	227.17
857.86	227.16
858.17	227.18
858.48	227.16
858.79	227.13
859.11	227.14
859.42	227.13
859.73	227.11
860.04	227.10
860.35	227.06
860.66	227.02
860.98	227.01
861.29	227.03
861.60	227.02
861.91	227.05
862.22	227.03
862.53	227.01
862.84	226.85
863.16	226.88
863.47	226.86
863.78	226.84
864.09	226.84
864.40	226.85
864.71	226.85
865.02	226.86
865.33	226.85
865.64	226.82
865.95	226.82
866.27	226.89
866.58	226.88
866.89	226.90
867.20	226.90
867.51	226.88
867.82	226.87
868.13	226.91
868.44	226.88
868.75	226.90
869.06	226.91
869.37	226.92
869.68	226.89
869.99	226.91
870.30	226.92
870.61	226.93
870.92	226.91
871.23	226.89
871.54	226.91
871.85	226.94
872.16	226.96
872.47	226.95
872.78	226.88
873.09	226.89
873.40	226.87
873.71	226.88
874.02	226.89
874.33	226.88
874.64	226.85
874.95	226.87
875.26	226.85
875.56	226.85
875.87	226.84
876.18	226.83
876.49	226.95
876.80	226.94
877.11	226.92
877.42	226.93
877.73	226.93
878.04	226.91
878.35	226.90
878.66	226.90
878.96	226.90
879.27	226.89
879.58	226.89
879.89	226.88
880.20	226.91
880.51	226.90
880.82	226.91
881.12	226.91
881.43	226.88
881.74	226.87
882.05	226.86
882.36	226.86
882.67	226.87
882.97	226.74
883.28	226.73
883.59	226.73
883.90	226.73
884.21	226.75
884.51	226.74
884.82	226.72
885.13	226.72
885.44	226.72
885.74	226.72
886.05	226.71
886.36	226.71
886.67	226.67
886.98	226.73
887.28	226.74
887.59	226.73
887.90	226.74
888.20	226.74
888.51	226.76
888.82	226.74
889.13	226.75
889.43	226.86
889.74	226.85
890.05	226.84
890.35	226.83
890.66	226.81
890.97	226.79
891.28	226.78
891.58	226.78
891.89	226.79
892.20	226.77
892.50	226.76
892.81	226.75
893.12	226.75
893.42	226.69
893.73	226.69
894.04	226.69
894.34	226.70
894.65	226.69
894.95	226.68
895.26	226.69
895.57	226.73
895.87	226.61
896.18	226.64
896.48	226.64
896.79	226.65
897.10	226.66
897.40	226.68
897.71	226.69
898.01	226.67
898.32	226.68
898.63	226.68
898.93	226.69
899.24	226.70
899.54	226.69
899.85	226.68
900.15	226.67
900.46	226.67
900.76	226.68
901.07	226.68
901.38	226.67
901.68	226.68
901.99	226.62
902.29	226.63
902.60	226.62
902.90	226.61
903.21	226.60
903.51	226.59
903.82	226.61
904.12	226.61
904.43	226.62
904.73	226.61
905.03	226.62
905.34	226.74
905.64	226.73
905.95	226.73
906.25	226.73
906.56	226.73
906.86	226.73
907.17	226.72
907.47	226.73
907.77	226.72
908.08	226.69
908.38	226.70
908.69	226.70
908.99	226.72
909.30	226.73
909.60	226.73
909.90	226.73
910.21	226.70
910.51	226.68
910.81	226.68
911.12	226.68
911.42	226.69
911.73	226.55
912.03	226.57
912.33	226.59
912.64	226.58
912.94	226.57
913.24	226.55
913.55	226.53
913.85	226.52
914.15	226.55
914.46	226.57
914.76	226.55
915.06	226.55
915.37	226.52
915.67	226.51
915.97	226.51
916.27	226.49
916.58	226.49
916.88	226.49
917.18	226.48
917.49	226.56
917.79	226.56
918.09	226.57
918.39	226.60
918.70	226.59
919.00	226.60
919.30	226.66
919.60	226.66
919.91	226.65
920.21	226.66
920.51	226.63
920.81	226.62
921.12	226.64
921.42	226.64
921.72	226.64
922.02	226.65
922.32	226.67
922.63	226.67
922.93	226.74
923.23	226.75
923.53	226.74
923.83	226.65
924.13	226.66
924.44	226.66
924.74	226.67
925.04	226.70
925.34	226.70
925.64	226.64
925.94	226.64
926.24	226.71
926.55	226.70
926.85	226.72
927.15	226.71
927.45	226.71
927.75	226.70
928.05	226.70
928.35	226.69
928.65	226.71
928.95	226.72
929.26	226.66
929.56	226.68
929.86	226.70
930.16	226.69
930.46	226.68
930.76	226.68
931.06	226.62
931.36	226.59
931.66	226.61
931.96	226.62
932.26	226.63
932.56	226.58
932.86	226.59
933.16	226.59
933.46	226.58
933.76	226.56
934.06	226.59
934.36	226.63
934.66	226.62
934.96	226.60
935.26	226.61
935.56	226.63
935.86	226.59
936.16	226.57
936.46	226.56
936.76	226.56
937.06	226.54
937.36	226.55
937.66	226.55
937.96	226.54
938.26	226.52
938.56	226.51
938.86	226.51
939.16	226.53
939.46	226.54
939.76	226.56
940.06	226.56
940.35	226.53
940.65	226.47
940.95	226.48
941.25	226.45
941.55	226.43
941.85	226.42
942.15	226.45
942.45	226.49
942.75	226.49
943.04	226.49
943.34	226.52
943.64	226.50
943.94	226.49
944.24	226.49
944.54	226.50
944.84	226.49
945.13	226.48
945.43	226.45
945.73	226.45
946.03	226.43
946.33	226.42
946.62	226.41
946.92	226.41
947.22	226.42
947.52	226.43
947.82	226.45
948.11	226.43
948.41	226.40
948.71	226.37
949.01	226.37
949.31	226.36
949.60	226.35
949.90	226.37
950.20	226.36
950.50	226.36
950.79	226.35
951.09	226.37
951.39	226.36
951.69	226.35
951.98	226.37
952.28	226.38
952.58	226.38
952.87	226.38
953.17	226.39
953.47	226.38
953.76	226.37
954.06	226.35
954.36	226.33
954.66	226.33
954.95	226.37
955.25	226.37
955.55	226.39
955.84	226.37
956.14	226.37
956.44	226.38
956.73	226.37
957.03	226.37
957.32	226.37
957.62	226.37
957.92	226.40
958.21	226.38
958.51	226.52
958.81	226.54
959.10	226.55
959.40	226.58
959.69	226.59
959.99	226.61
960.29	226.62
960.58	226.62
960.88	226.66
961.17	226.65
961.47	226.66
961.76	226.65
962.06	226.67
962.36	226.65
962.65	226.66
962.95	226.67
963.24	226.66
963.54	226.66
963.83	226.67
964.13	226.66
964.42	226.65
964.72	226.55
965.01	226.54
965.31	226.53
965.60	226.50
965.90	226.57
966.19	226.54
966.49	226.55
966.78	226.55
967.08	226.54
967.37	226.53
967.67	226.51
967.96	226.53
968.26	226.53
968.55	226.54
968.85	226.54
969.14	226.53
969.43	226.53
969.73	226.52
970.02	226.51
970.32	226.50
970.61	226.48
970.91	226.45
971.20	226.43
971.49	226.42
971.79	226.44
972.08	226.35
972.38	226.36
972.67	226.35
972.96	226.37
973.26	226.35
973.55	226.39
973.85	226.38
974.14	226.37
974.43	226.38
974.73	226.35
975.02	226.34
975.31	226.34
975.61	226.35
975.90	226.34
976.19	226.33
976.49	226.34
976.78	226.35
977.07	226.35
977.37	226.36
977.66	226.38
977.95	226.36
978.24	226.37
978.54	226.39
978.83	226.39
979.12	226.38
979.42	226.38
979.71	226.35
980.00	226.35
980.29	226.36
980.59	226.34
980.88	226.37
981.17	226.37
981.46	226.37
981.76	226.37
982.05	226.41
982.34	226.42
982.63	226.42
982.93	226.43
983.22	226.46
983.51	226.46
983.80	226.47
984.09	226.49
984.39	226.48
984.68	226.46
984.97	226.47
985.26	226.46
985.55	226.47
985.85	226.44
986.14	226.46
986.43	226.47
986.72	226.46
987.01	226.42
987.30	226.42
987.59	226.41
987.89	226.41
988.18	226.37
988.47	226.36
988.76	226.35
989.05	226.34
989.34	226.32
989.63	226.35
989.92	226.33
990.22	226.31
990.51	226.31
990.80	226.30
991.09	226.31
991.38	226.32
991.67	226.31
991.96	226.30
992.25	226.30
992.54	226.28
992.83	226.28
993.12	226.28
993.41	226.30
993.70	226.35
993.99	226.37
994.28	226.39
994.58	226.41
994.87	226.40
995.16	226.40
995.45	226.39
995.74	226.34
996.03	226.36
996.32	226.38
996.61	226.40
996.90	226.40
997.19	226.39
997.48	226.39
997.77	226.38
998.06	226.39
998.34	226.38
998.63	226.38
998.92	226.38
999.21	226.40
999.50	226.40
999.79	226.35
1000.08	226.35
1000.37	226.35
1000.66	226.33
1000.95	226.36
1001.24	226.37
1001.53	226.39
1001.82	226.39
1002.11	226.36
1002.40	226.37
1002.68	226.40
1002.97	226.48
1003.26	226.47
1003.55	226.45
1003.84	226.46
1004.13	226.50
1004.42	226.49
1004.71	226.50
1004.99	226.49
1005.28	226.52
1005.57	226.51
1005.86	226.50
1006.15	226.49
1006.44	226.47
1006.72	226.49
1007.01	226.47
1007.30	226.47
1007.59	226.45
1007.88	226.45
1008.17	226.46
1008.45	226.44
1008.74	226.38
1009.03	226.33
1009.32	226.33
1009.60	226.33
1009.89	226.32
1010.18	226.27
1010.47	226.27
1010.76	226.27
1011.04	226.27
1011.33	226.26
1011.62	226.27
1011.91	226.28
1012.19	226.29
1012.48	226.29
1012.77	226.29
1013.05	226.33
1013.34	226.33
1013.63	226.33
1013.92	226.34
1014.20	226.33
1014.49	226.34
1014.78	226.35
1015.06	226.31
1015.35	226.32
1015.64	226.34
1015.92	226.35
1016.21	226.36
1016.50	226.37
1016.78	226.38
1017.07	226.39
1017.36	226.37
1017.64	226.35
1017.93	226.36
1018.22	226.34
1018.50	226.34
1018.79	226.34
1019.08	226.29
1019.36	226.29
1019.65	226.29
1019.93	226.32
1020.22	226.33
1020.51	226.40
1020.79	226.38
1021.08	226.12
1021.36	226.14
1021.65	226.28
1021.94	226.22
1022.22	226.38
1022.51	226.09
1022.79	226.87
1023.08	226.47
1023.36	227.84
1023.65	226.04
>>>>>End Processed Spectral Data<<<<<
