SpectraSuite Data File
++++++++++++++++++++++++++++++++++++
Date: Fri Oct 02 16:01:35 EDT 2015
User: lab3
Dark Spectrum Present: No
Reference Spectrum Present: No
Number of Sampled Component Spectra: 1
Spectrometers: USB2E7196
Integration Time (usec): 46000 (USB2E7196)
Spectra Averaged: 1200 (USB2E7196)
Boxcar Smoothing: 10 (USB2E7196)
Correct for Electrical Dark: No (USB2E7196)
Strobe/Lamp Enabled: No (USB2E7196)
Correct for Detector Non-linearity: No (USB2E7196)
Correct for Stray Light: No (USB2E7196)
Number of Pixels in Processed Spectrum: 2048
>>>>>Begin Processed Spectral Data<<<<<
339.09	0.00
339.48	214.63
339.86	216.14
340.24	217.51
340.63	218.91
341.01	222.08
341.39	221.51
341.78	222.99
342.16	224.37
342.54	224.60
342.93	213.08
343.31	223.85
343.69	224.39
344.07	224.85
344.46	225.28
344.84	225.68
345.22	225.91
345.60	226.18
345.99	226.37
346.37	226.50
346.75	226.60
347.13	226.68
347.52	226.75
347.90	226.84
348.28	226.88
348.66	226.93
349.05	226.92
349.43	226.97
349.81	227.02
350.19	227.08
350.57	227.14
350.96	227.22
351.34	227.32
351.72	227.42
352.10	227.52
352.48	227.59
352.87	227.63
353.25	227.69
353.63	227.74
354.01	227.80
354.39	227.88
354.77	227.95
355.15	228.06
355.54	228.10
355.92	228.12
356.30	228.19
356.68	228.34
357.06	228.41
357.44	228.45
357.82	228.51
358.20	228.63
358.58	228.68
358.97	228.75
359.35	228.81
359.73	228.90
360.11	228.95
360.49	228.99
360.87	229.03
361.25	229.10
361.63	229.19
362.01	229.23
362.39	229.26
362.77	229.30
363.15	229.32
363.53	229.36
363.91	229.38
364.29	229.39
364.67	229.29
365.05	229.31
365.43	229.33
365.81	229.35
366.19	229.36
366.57	229.42
366.95	229.42
367.33	229.39
367.71	229.39
368.09	229.40
368.47	229.41
368.85	229.39
369.23	229.40
369.61	229.34
369.99	229.36
370.37	229.35
370.75	229.44
371.13	229.39
371.51	229.35
371.89	229.34
372.27	229.31
372.65	229.30
373.03	229.25
373.41	229.22
373.78	229.17
374.16	229.06
374.54	228.97
374.92	228.92
375.30	228.87
375.68	228.80
376.06	228.75
376.44	228.70
376.82	228.66
377.19	228.61
377.57	228.56
377.95	228.48
378.33	228.42
378.71	228.26
379.09	228.22
379.47	228.19
379.84	228.13
380.22	228.07
380.60	228.00
380.98	227.96
381.36	227.91
381.73	227.86
382.11	227.85
382.49	227.82
382.87	227.77
383.25	227.74
383.62	227.85
384.00	227.78
384.38	227.75
384.76	227.73
385.13	227.72
385.51	227.67
385.89	227.61
386.27	227.58
386.64	227.56
387.02	227.52
387.40	227.47
387.78	227.45
388.15	227.42
388.53	227.39
388.91	227.36
389.29	227.32
389.66	227.31
390.04	227.26
390.42	227.24
390.79	227.22
391.17	227.20
391.55	227.04
391.92	227.02
392.30	227.02
392.68	226.98
393.05	226.97
393.43	226.97
393.81	226.97
394.18	226.96
394.56	226.96
394.94	226.99
395.31	226.99
395.69	227.03
396.06	227.06
396.44	227.09
396.82	227.10
397.19	227.19
397.57	227.19
397.95	227.24
398.32	227.25
398.70	227.29
399.07	227.34
399.45	227.38
399.82	227.43
400.20	227.46
400.58	227.53
400.95	227.54
401.33	227.64
401.70	227.80
402.08	227.90
402.45	227.98
402.83	228.10
403.20	228.21
403.58	228.30
403.95	228.43
404.33	228.58
404.71	228.73
405.08	228.93
405.46	229.09
405.83	229.28
406.21	229.47
406.58	229.68
406.96	229.91
407.33	230.16
407.70	230.44
408.08	230.82
408.45	231.15
408.83	231.51
409.20	231.83
409.58	232.12
409.95	232.52
410.33	232.96
410.70	233.37
411.08	233.87
411.45	234.38
411.82	234.91
412.20	235.51
412.57	236.22
412.95	236.77
413.32	237.51
413.69	238.26
414.07	239.05
414.44	239.93
414.82	240.81
415.19	241.84
415.56	242.89
415.94	243.98
416.31	245.19
416.68	246.40
417.06	247.83
417.43	249.16
417.81	250.70
418.18	252.26
418.55	253.96
418.93	255.73
419.30	257.58
419.67	259.54
420.04	261.55
420.42	263.65
420.79	266.09
421.16	268.54
421.54	271.04
421.91	273.64
422.28	276.34
422.66	279.26
423.03	282.06
423.40	284.98
423.77	288.11
424.15	291.34
424.52	294.70
424.89	298.31
425.26	301.91
425.64	305.24
426.01	309.00
426.38	312.85
426.75	316.83
427.13	320.92
427.50	325.19
427.87	329.64
428.24	334.13
428.61	338.44
428.99	343.10
429.36	348.22
429.73	353.13
430.10	358.05
430.47	363.06
430.85	368.23
431.22	373.79
431.59	379.50
431.96	385.06
432.33	391.26
432.70	397.16
433.08	404.13
433.45	410.73
433.82	417.24
434.19	424.51
434.56	431.67
434.93	438.58
435.30	445.42
435.68	453.16
436.05	460.74
436.42	468.29
436.79	475.18
437.16	482.60
437.53	490.55
437.90	498.53
438.27	506.34
438.64	514.76
439.01	522.37
439.38	529.32
439.75	536.04
440.13	543.59
440.50	550.78
440.87	556.49
441.24	562.73
441.61	569.53
441.98	574.43
442.35	580.26
442.72	586.21
443.09	591.83
443.46	595.35
443.83	597.88
444.20	599.98
444.57	603.15
444.94	604.90
445.31	606.70
445.68	608.16
446.05	609.16
446.42	608.53
446.79	607.74
447.16	607.02
447.53	606.30
447.90	603.63
448.27	601.03
448.64	597.27
449.01	594.55
449.37	589.42
449.74	584.80
450.11	578.90
450.48	572.47
450.85	566.10
451.22	560.60
451.59	555.25
451.96	550.38
452.33	543.43
452.70	537.23
453.07	529.72
453.43	522.28
453.80	515.06
454.17	508.18
454.54	501.83
454.91	494.70
455.28	488.03
455.65	481.77
456.02	475.17
456.38	469.83
456.75	462.99
457.12	457.50
457.49	451.96
457.86	446.75
458.23	442.21
458.59	437.16
458.96	432.00
459.33	427.47
459.70	422.88
460.07	419.41
460.43	415.31
460.80	411.49
461.17	408.16
461.54	404.56
461.91	401.19
462.27	397.78
462.64	395.06
463.01	391.88
463.38	388.68
463.74	385.81
464.11	383.29
464.48	381.03
464.85	378.55
465.21	376.70
465.58	374.62
465.95	372.21
466.32	370.32
466.68	368.46
467.05	366.59
467.42	364.76
467.78	362.76
468.15	360.93
468.52	359.61
468.88	357.81
469.25	356.17
469.62	354.88
469.98	353.47
470.35	352.20
470.72	351.07
471.08	349.90
471.45	348.93
471.82	347.84
472.18	346.70
472.55	345.96
472.92	345.01
473.28	344.28
473.65	343.49
474.02	342.74
474.38	342.12
474.75	341.77
475.11	341.25
475.48	341.02
475.85	340.77
476.21	340.65
476.58	340.57
476.94	340.72
477.31	340.80
477.67	340.90
478.04	341.11
478.41	341.41
478.77	341.84
479.14	342.11
479.50	342.63
479.87	343.31
480.23	343.99
480.60	344.66
480.96	345.34
481.33	346.32
481.69	347.32
482.06	348.31
482.42	349.21
482.79	350.34
483.15	351.66
483.52	353.14
483.88	354.54
484.25	356.06
484.61	357.65
484.98	359.36
485.34	361.27
485.71	363.29
486.07	365.43
486.44	367.58
486.80	369.99
487.17	372.47
487.53	375.19
487.90	378.03
488.26	381.15
488.62	384.43
488.99	387.70
489.35	391.12
489.72	394.84
490.08	398.76
490.44	402.82
490.81	407.01
491.17	411.32
491.54	415.94
491.90	420.73
492.26	425.86
492.63	431.21
492.99	436.81
493.36	442.59
493.72	448.67
494.08	454.92
494.45	461.55
494.81	468.42
495.17	475.48
495.54	482.92
495.90	490.65
496.26	498.56
496.63	506.75
496.99	515.26
497.35	524.14
497.72	533.30
498.08	542.70
498.44	552.40
498.80	562.67
499.17	573.24
499.53	584.10
499.89	595.33
500.26	606.76
500.62	618.49
500.98	630.84
501.34	643.35
501.71	656.40
502.07	669.59
502.43	683.31
502.79	697.31
503.16	711.73
503.52	726.34
503.88	741.40
504.24	756.92
504.60	772.63
504.97	788.81
505.33	805.37
505.69	822.78
506.05	840.50
506.41	858.22
506.78	876.08
507.14	894.45
507.50	913.24
507.86	932.35
508.22	951.70
508.59	970.91
508.95	990.98
509.31	1011.70
509.67	1033.14
510.03	1054.50
510.39	1075.91
510.75	1097.57
511.12	1119.47
511.48	1141.45
511.84	1163.53
512.20	1185.91
512.56	1209.14
512.92	1232.40
513.28	1255.25
513.64	1278.27
514.00	1301.65
514.37	1325.39
514.73	1349.15
515.09	1372.74
515.45	1396.70
515.81	1420.76
516.17	1444.90
516.53	1468.51
516.89	1491.98
517.25	1515.68
517.61	1539.32
517.97	1563.26
518.33	1586.53
518.69	1609.80
519.05	1633.60
519.41	1657.50
519.77	1681.61
520.13	1705.01
520.49	1728.28
520.85	1751.91
521.21	1775.20
521.57	1798.92
521.93	1821.99
522.29	1845.52
522.65	1868.53
523.01	1891.45
523.37	1913.95
523.73	1937.18
524.09	1960.01
524.45	1982.72
524.81	2004.82
525.17	2026.66
525.53	2048.10
525.89	2070.08
526.25	2092.08
526.61	2112.99
526.97	2134.01
527.33	2154.87
527.68	2175.42
528.04	2195.27
528.40	2214.07
528.76	2233.05
529.12	2251.29
529.48	2269.46
529.84	2285.75
530.20	2302.73
530.56	2319.08
530.91	2335.54
531.27	2351.60
531.63	2366.85
531.99	2381.63
532.35	2395.87
532.71	2410.19
533.07	2424.87
533.42	2437.66
533.78	2451.47
534.14	2465.53
534.50	2478.62
534.86	2491.57
535.21	2502.65
535.57	2514.23
535.93	2525.59
536.29	2535.81
536.65	2546.07
537.00	2555.45
537.36	2565.87
537.72	2574.81
538.08	2583.21
538.44	2591.10
538.79	2598.52
539.15	2605.21
539.51	2611.47
539.87	2616.97
540.22	2620.85
540.58	2624.75
540.94	2630.09
541.29	2633.59
541.65	2635.39
542.01	2636.70
542.37	2637.25
542.72	2639.00
543.08	2639.21
543.44	2640.02
543.79	2639.83
544.15	2638.78
544.51	2638.05
544.87	2636.13
545.22	2633.46
545.58	2630.25
545.94	2626.92
546.29	2622.42
546.65	2618.01
547.01	2613.49
547.36	2609.71
547.72	2605.71
548.07	2600.44
548.43	2593.73
548.79	2586.20
549.14	2579.76
549.50	2573.55
549.86	2566.43
550.21	2558.44
550.57	2551.05
550.92	2541.59
551.28	2532.77
551.64	2524.20
551.99	2515.25
552.35	2505.84
552.70	2496.75
553.06	2488.16
553.41	2479.02
553.77	2469.59
554.13	2459.80
554.48	2449.48
554.84	2437.99
555.19	2427.15
555.55	2416.15
555.90	2405.10
556.26	2394.52
556.61	2383.07
556.97	2370.21
557.32	2357.99
557.68	2345.37
558.03	2332.76
558.39	2321.25
558.74	2309.91
559.10	2297.12
559.45	2284.49
559.81	2272.43
560.16	2259.90
560.52	2247.32
560.87	2234.96
561.23	2221.98
561.58	2209.36
561.94	2196.26
562.29	2182.76
562.64	2169.89
563.00	2156.65
563.35	2144.03
563.71	2131.22
564.06	2118.31
564.42	2105.85
564.77	2092.91
565.12	2080.13
565.48	2067.32
565.83	2054.48
566.19	2041.84
566.54	2028.92
566.89	2015.22
567.25	2001.62
567.60	1989.11
567.96	1976.04
568.31	1961.66
568.66	1948.03
569.02	1935.37
569.37	1922.67
569.72	1910.50
570.08	1897.08
570.43	1883.42
570.78	1869.35
571.14	1854.92
571.49	1841.09
571.84	1827.89
572.20	1813.57
572.55	1799.49
572.90	1785.20
573.26	1770.87
573.61	1756.03
573.96	1741.78
574.31	1727.61
574.67	1713.54
575.02	1698.59
575.37	1683.47
575.72	1669.44
576.08	1655.68
576.43	1640.97
576.78	1626.69
577.13	1612.63
577.49	1599.11
577.84	1586.08
578.19	1572.24
578.54	1558.51
578.90	1544.38
579.25	1530.13
579.60	1517.26
579.95	1504.28
580.30	1491.15
580.66	1477.82
581.01	1464.44
581.36	1451.14
581.71	1438.79
582.06	1426.24
582.42	1413.95
582.77	1401.85
583.12	1389.66
583.47	1377.21
583.82	1364.98
584.17	1352.43
584.53	1339.56
584.88	1326.90
585.23	1313.99
585.58	1301.93
585.93	1290.02
586.28	1278.68
586.63	1267.34
586.98	1255.60
587.34	1243.95
587.69	1232.15
588.04	1220.71
588.39	1209.69
588.74	1198.77
589.09	1187.63
589.44	1176.13
589.79	1165.16
590.14	1154.36
590.49	1143.43
590.84	1132.66
591.19	1122.16
591.54	1111.55
591.89	1101.12
592.25	1090.92
592.60	1080.39
592.95	1070.09
593.30	1060.02
593.65	1049.80
594.00	1039.63
594.35	1030.08
594.70	1020.11
595.05	1010.95
595.40	1001.73
595.75	992.32
596.10	983.31
596.45	974.11
596.80	965.23
597.15	956.22
597.50	947.29
597.85	938.75
598.19	930.10
598.54	921.50
598.89	913.22
599.24	905.23
599.59	897.12
599.94	889.86
600.29	882.43
600.64	874.72
600.99	866.68
601.34	859.02
601.69	850.99
602.04	843.55
602.39	836.02
602.74	828.50
603.08	821.00
603.43	813.50
603.78	806.11
604.13	798.91
604.48	791.63
604.83	784.57
605.18	777.36
605.53	770.41
605.87	763.32
606.22	756.54
606.57	749.67
606.92	742.66
607.27	735.62
607.62	728.96
607.96	722.63
608.31	716.65
608.66	710.51
609.01	704.65
609.36	698.92
609.70	692.92
610.05	686.93
610.40	681.17
610.75	675.41
611.10	669.97
611.44	664.40
611.79	658.95
612.14	653.40
612.49	647.96
612.83	642.72
613.18	637.59
613.53	632.39
613.88	627.26
614.22	622.53
614.57	617.68
614.92	612.62
615.27	607.71
615.61	602.85
615.96	598.05
616.31	593.23
616.65	588.54
617.00	584.01
617.35	579.54
617.70	575.17
618.04	570.86
618.39	566.49
618.74	562.31
619.08	558.17
619.43	554.13
619.78	550.14
620.12	546.11
620.47	542.24
620.82	538.41
621.16	534.63
621.51	530.78
621.85	526.99
622.20	523.39
622.55	519.77
622.89	516.19
623.24	512.67
623.59	509.15
623.93	505.73
624.28	502.40
624.62	499.22
624.97	496.02
625.32	492.80
625.66	489.54
626.01	486.26
626.35	483.03
626.70	479.84
627.04	476.81
627.39	473.71
627.73	470.76
628.08	467.92
628.43	465.03
628.77	462.23
629.12	459.52
629.46	456.82
629.81	454.09
630.15	451.37
630.50	448.70
630.84	446.12
631.19	443.59
631.53	441.14
631.88	438.62
632.22	436.16
632.57	433.95
632.91	431.76
633.26	429.64
633.60	427.55
633.95	425.54
634.29	423.43
634.64	421.39
634.98	419.15
635.32	417.07
635.67	415.15
636.01	413.14
636.36	411.19
636.70	409.34
637.05	407.50
637.39	405.71
637.73	403.95
638.08	402.25
638.42	400.52
638.77	398.72
639.11	396.86
639.45	395.07
639.80	393.23
640.14	391.47
640.49	389.69
640.83	387.88
641.17	386.13
641.52	384.43
641.86	382.75
642.20	381.27
642.55	379.64
642.89	378.06
643.23	376.52
643.58	375.15
643.92	373.64
644.26	372.18
644.61	370.75
644.95	369.30
645.29	367.78
645.64	366.27
645.98	364.84
646.32	363.52
646.66	362.17
647.01	360.81
647.35	359.54
647.69	358.27
648.04	357.12
648.38	355.86
648.72	354.65
649.06	353.44
649.41	352.23
649.75	351.06
650.09	349.90
650.43	348.75
650.78	347.51
651.12	346.35
651.46	345.24
651.80	344.14
652.14	343.06
652.49	342.05
652.83	341.02
653.17	340.00
653.51	339.04
653.85	338.12
654.20	337.14
654.54	336.09
654.88	335.10
655.22	334.13
655.56	333.17
655.90	332.26
656.25	331.38
656.59	330.47
656.93	329.61
657.27	328.75
657.61	327.85
657.95	327.02
658.29	326.15
658.64	325.32
658.98	324.50
659.32	323.68
659.66	322.91
660.00	322.14
660.34	321.40
660.68	320.59
661.02	319.77
661.36	318.99
661.70	318.22
662.05	317.48
662.39	316.75
662.73	316.10
663.07	315.44
663.41	314.74
663.75	314.03
664.09	313.34
664.43	312.61
664.77	311.94
665.11	311.23
665.45	310.61
665.79	309.97
666.13	309.29
666.47	308.59
666.81	307.87
667.15	307.14
667.49	306.50
667.83	305.91
668.17	305.28
668.51	304.70
668.85	304.17
669.19	303.65
669.53	303.02
669.87	302.38
670.21	301.74
670.55	301.16
670.89	300.65
671.23	300.09
671.57	299.56
671.91	299.07
672.25	298.59
672.58	298.10
672.92	297.53
673.26	297.06
673.60	296.59
673.94	296.15
674.28	295.73
674.62	295.27
674.96	294.77
675.30	294.32
675.64	293.84
675.97	293.33
676.31	292.79
676.65	292.31
676.99	291.89
677.33	291.40
677.67	290.93
678.01	290.40
678.34	289.94
678.68	289.51
679.02	289.02
679.36	288.54
679.70	288.08
680.04	287.63
680.37	287.18
680.71	286.75
681.05	286.32
681.39	285.85
681.73	285.36
682.06	284.89
682.40	284.45
682.74	284.04
683.08	283.69
683.42	283.27
683.75	282.88
684.09	282.43
684.43	282.02
684.77	281.60
685.10	281.23
685.44	280.84
685.78	280.45
686.12	280.06
686.45	279.66
686.79	279.23
687.13	278.84
687.46	278.41
687.80	278.02
688.14	277.56
688.48	277.17
688.81	276.76
689.15	276.40
689.49	276.00
689.82	275.58
690.16	275.12
690.50	274.73
690.83	274.35
691.17	273.95
691.51	273.57
691.84	273.22
692.18	272.82
692.52	272.40
692.85	272.00
693.19	271.65
693.52	271.27
693.86	270.89
694.20	270.51
694.53	270.16
694.87	269.77
695.21	269.39
695.54	269.02
695.88	268.64
696.21	268.24
696.55	267.88
696.88	267.51
697.22	267.15
697.56	266.80
697.89	266.38
698.23	266.03
698.56	265.63
698.90	265.26
699.23	264.86
699.57	264.50
699.90	264.13
700.24	263.75
700.58	263.42
700.91	263.12
701.25	262.90
701.58	262.61
701.92	262.32
702.25	262.01
702.59	261.67
702.92	261.36
703.26	261.03
703.59	260.69
703.93	260.47
704.26	260.15
704.60	259.82
704.93	259.51
705.26	259.19
705.60	258.94
705.93	258.60
706.27	258.35
706.60	258.09
706.94	257.84
707.27	257.51
707.61	257.19
707.94	256.85
708.27	256.42
708.61	256.07
708.94	255.74
709.28	255.45
709.61	255.15
709.94	254.89
710.28	254.62
710.61	254.39
710.95	254.02
711.28	253.82
711.61	253.56
711.95	253.33
712.28	253.06
712.61	252.77
712.95	252.60
713.28	252.41
713.61	252.13
713.95	251.84
714.28	251.61
714.61	251.35
714.95	251.12
715.28	250.90
715.61	250.66
715.95	250.45
716.28	250.23
716.61	250.04
716.95	249.80
717.28	249.56
717.61	249.32
717.94	249.10
718.28	248.79
718.61	248.56
718.94	248.32
719.27	248.10
719.61	247.92
719.94	247.67
720.27	247.38
720.60	247.16
720.94	246.97
721.27	246.77
721.60	246.60
721.93	246.39
722.27	246.23
722.60	246.05
722.93	245.84
723.26	245.65
723.59	245.42
723.93	245.25
724.26	245.08
724.59	244.89
724.92	244.73
725.25	244.60
725.59	244.44
725.92	244.29
726.25	244.12
726.58	243.95
726.91	243.77
727.24	243.62
727.57	243.47
727.91	243.29
728.24	243.15
728.57	242.97
728.90	242.83
729.23	242.64
729.56	242.53
729.89	242.38
730.22	242.22
730.55	242.08
730.89	241.91
731.22	241.74
731.55	241.60
731.88	241.44
732.21	241.27
732.54	241.12
732.87	240.98
733.20	240.85
733.53	240.71
733.86	240.57
734.19	240.41
734.52	240.29
734.85	240.24
735.18	240.08
735.51	239.98
735.84	239.85
736.17	239.76
736.50	239.57
736.83	239.58
737.16	239.45
737.49	239.33
737.82	239.21
738.15	239.12
738.48	239.00
738.81	238.88
739.14	238.75
739.47	238.62
739.80	238.49
740.13	238.38
740.46	238.24
740.79	238.11
741.12	237.99
741.45	237.85
741.78	237.67
742.11	237.58
742.44	237.44
742.77	237.34
743.10	237.21
743.43	237.10
743.75	236.87
744.08	236.95
744.41	236.84
744.74	236.74
745.07	236.60
745.40	236.51
745.73	236.47
746.06	236.38
746.39	236.30
746.71	236.19
747.04	236.09
747.37	236.00
747.70	235.93
748.03	235.85
748.36	235.78
748.68	235.68
749.01	235.55
749.34	235.48
749.67	235.39
750.00	235.31
750.33	235.32
750.65	235.24
750.98	234.98
751.31	234.91
751.64	234.83
751.97	234.82
752.29	234.73
752.62	234.58
752.95	234.49
753.28	234.38
753.60	234.30
753.93	234.25
754.26	234.17
754.59	234.05
754.91	233.96
755.24	233.86
755.57	233.84
755.90	233.75
756.22	233.65
756.55	233.55
756.88	233.46
757.20	233.29
757.53	233.18
757.86	233.09
758.19	233.03
758.51	232.95
758.84	232.80
759.17	232.72
759.49	232.66
759.82	232.65
760.15	232.60
760.47	232.54
760.80	232.43
761.13	232.39
761.45	232.33
761.78	232.28
762.11	232.23
762.43	232.09
762.76	232.03
763.08	231.99
763.41	231.94
763.74	231.88
764.06	231.83
764.39	231.78
764.71	231.72
765.04	231.66
765.37	231.58
765.69	231.54
766.02	231.50
766.34	231.44
766.67	231.33
767.00	231.29
767.32	231.31
767.65	231.34
767.97	231.28
768.30	231.24
768.62	231.18
768.95	231.11
769.27	231.07
769.60	231.04
769.92	230.99
770.25	230.92
770.57	230.86
770.90	230.81
771.22	230.76
771.55	230.71
771.87	230.67
772.20	230.63
772.52	230.70
772.85	230.80
773.17	230.76
773.50	230.72
773.82	230.66
774.15	230.55
774.47	230.43
774.80	230.38
775.12	230.34
775.45	230.31
775.77	230.29
776.09	230.25
776.42	230.23
776.74	230.23
777.07	230.19
777.39	230.17
777.72	230.13
778.04	230.12
778.36	230.07
778.69	230.06
779.01	230.04
779.33	229.89
779.66	229.71
779.98	229.68
780.31	229.67
780.63	229.69
780.95	229.69
781.28	229.67
781.60	229.63
781.92	229.61
782.25	229.58
782.57	229.55
782.89	229.52
783.22	229.48
783.54	229.42
783.86	229.42
784.19	229.39
784.51	229.42
784.83	229.38
785.16	229.36
785.48	229.33
785.80	229.30
786.12	229.29
786.45	229.27
786.77	229.25
787.09	229.21
787.42	229.15
787.74	229.13
788.06	229.11
788.38	229.09
788.71	229.06
789.03	229.04
789.35	229.03
789.67	229.00
789.99	228.99
790.32	228.96
790.64	228.95
790.96	229.05
791.28	228.97
791.61	228.95
791.93	228.93
792.25	228.90
792.57	228.97
792.89	228.94
793.21	228.92
793.54	228.89
793.86	228.87
794.18	228.87
794.50	228.83
794.82	228.80
795.14	228.81
795.47	228.81
795.79	228.81
796.11	228.75
796.43	228.74
796.75	228.71
797.07	228.70
797.39	228.68
797.71	228.56
798.04	228.55
798.36	228.55
798.68	228.54
799.00	228.53
799.32	228.45
799.64	228.45
799.96	228.45
800.28	228.46
800.60	228.44
800.92	228.43
801.24	228.41
801.56	228.42
801.89	228.39
802.21	228.38
802.53	228.34
802.85	228.37
803.17	228.41
803.49	228.37
803.81	228.34
804.13	228.32
804.45	228.29
804.77	228.30
805.09	228.28
805.41	228.26
805.73	228.21
806.05	228.17
806.37	228.15
806.69	228.12
807.01	228.09
807.33	228.09
807.65	228.03
807.97	228.07
808.28	228.04
808.60	228.02
808.92	227.99
809.24	228.05
809.56	228.02
809.88	227.97
810.20	227.97
810.52	228.00
810.84	227.97
811.16	227.95
811.48	227.91
811.80	227.93
812.12	227.91
812.43	227.93
812.75	227.93
813.07	227.91
813.39	227.90
813.71	227.88
814.03	227.86
814.35	227.86
814.67	227.79
814.98	227.77
815.30	227.76
815.62	227.73
815.94	227.64
816.26	227.65
816.58	227.62
816.89	227.61
817.21	227.56
817.53	227.57
817.85	227.57
818.17	227.56
818.48	227.51
818.80	227.54
819.12	227.51
819.44	227.47
819.76	227.45
820.07	227.44
820.39	227.43
820.71	227.44
821.03	227.43
821.34	227.42
821.66	227.43
821.98	227.44
822.30	227.44
822.61	227.50
822.93	227.46
823.25	227.45
823.57	227.42
823.88	227.42
824.20	227.42
824.52	227.43
824.83	227.42
825.15	227.41
825.47	227.38
825.79	227.38
826.10	227.38
826.42	227.39
826.74	227.39
827.05	227.37
827.37	227.36
827.69	227.34
828.00	227.34
828.32	227.33
828.64	227.30
828.95	227.36
829.27	227.33
829.58	227.32
829.90	227.34
830.22	227.36
830.53	227.34
830.85	227.32
831.17	227.27
831.48	227.27
831.80	227.27
832.11	227.26
832.43	227.24
832.75	227.24
833.06	227.32
833.38	227.28
833.69	227.28
834.01	227.29
834.32	227.29
834.64	227.27
834.96	227.27
835.27	227.27
835.59	227.21
835.90	227.18
836.22	227.18
836.53	227.15
836.85	227.12
837.16	227.23
837.48	227.24
837.79	227.28
838.11	227.29
838.42	227.28
838.74	227.29
839.05	227.29
839.37	227.28
839.68	227.19
840.00	227.18
840.31	227.19
840.63	227.16
840.94	227.16
841.26	227.15
841.57	227.14
841.88	227.14
842.20	227.14
842.51	227.11
842.83	227.11
843.14	227.23
843.46	227.23
843.77	227.15
844.08	227.14
844.40	227.10
844.71	227.07
845.03	227.05
845.34	227.03
845.65	227.01
845.97	227.01
846.28	227.01
846.60	227.02
846.91	227.00
847.22	227.00
847.54	227.01
847.85	227.03
848.16	227.02
848.48	227.00
848.79	227.04
849.10	227.05
849.42	227.04
849.73	226.92
850.04	226.92
850.36	226.87
850.67	226.89
850.98	226.89
851.30	226.91
851.61	226.91
851.92	226.91
852.23	226.95
852.55	226.96
852.86	226.96
853.17	226.96
853.49	226.98
853.80	227.00
854.11	227.01
854.42	227.00
854.74	226.99
855.05	226.99
855.36	226.91
855.67	226.92
855.99	226.92
856.30	227.06
856.61	227.06
856.92	227.06
857.23	227.07
857.55	227.05
857.86	227.04
858.17	227.05
858.48	227.02
858.79	226.99
859.11	227.01
859.42	226.99
859.73	226.98
860.04	226.97
860.35	226.93
860.66	226.89
860.98	226.88
861.29	226.89
861.60	226.89
861.91	226.92
862.22	226.89
862.53	226.87
862.84	226.73
863.16	226.76
863.47	226.74
863.78	226.73
864.09	226.74
864.40	226.75
864.71	226.76
865.02	226.79
865.33	226.77
865.64	226.73
865.95	226.74
866.27	226.81
866.58	226.80
866.89	226.82
867.20	226.82
867.51	226.81
867.82	226.80
868.13	226.83
868.44	226.81
868.75	226.83
869.06	226.83
869.37	226.83
869.68	226.80
869.99	226.83
870.30	226.82
870.61	226.82
870.92	226.81
871.23	226.80
871.54	226.82
871.85	226.85
872.16	226.86
872.47	226.85
872.78	226.78
873.09	226.79
873.40	226.77
873.71	226.78
874.02	226.80
874.33	226.78
874.64	226.75
874.95	226.77
875.26	226.73
875.56	226.73
875.87	226.73
876.18	226.73
876.49	226.85
876.80	226.84
877.11	226.81
877.42	226.81
877.73	226.80
878.04	226.77
878.35	226.77
878.66	226.77
878.96	226.77
879.27	226.75
879.58	226.75
879.89	226.74
880.20	226.77
880.51	226.76
880.82	226.77
881.12	226.79
881.43	226.76
881.74	226.75
882.05	226.74
882.36	226.75
882.67	226.75
882.97	226.61
883.28	226.61
883.59	226.60
883.90	226.62
884.21	226.63
884.51	226.62
884.82	226.60
885.13	226.60
885.44	226.59
885.74	226.60
886.05	226.58
886.36	226.59
886.67	226.54
886.98	226.60
887.28	226.60
887.59	226.60
887.90	226.61
888.20	226.62
888.51	226.65
888.82	226.63
889.13	226.64
889.43	226.75
889.74	226.73
890.05	226.73
890.35	226.72
890.66	226.71
890.97	226.70
891.28	226.69
891.58	226.68
891.89	226.69
892.20	226.67
892.50	226.68
892.81	226.67
893.12	226.66
893.42	226.60
893.73	226.60
894.04	226.60
894.34	226.60
894.65	226.59
894.95	226.57
895.26	226.58
895.57	226.63
895.87	226.51
896.18	226.54
896.48	226.54
896.79	226.54
897.10	226.55
897.40	226.55
897.71	226.56
898.01	226.57
898.32	226.58
898.63	226.57
898.93	226.58
899.24	226.58
899.54	226.56
899.85	226.57
900.15	226.56
900.46	226.55
900.76	226.55
901.07	226.55
901.38	226.55
901.68	226.56
901.99	226.50
902.29	226.51
902.60	226.49
902.90	226.48
903.21	226.48
903.51	226.47
903.82	226.49
904.12	226.51
904.43	226.50
904.73	226.49
905.03	226.51
905.34	226.62
905.64	226.62
905.95	226.62
906.25	226.61
906.56	226.61
906.86	226.61
907.17	226.61
907.47	226.60
907.77	226.59
908.08	226.55
908.38	226.56
908.69	226.56
908.99	226.58
909.30	226.58
909.60	226.57
909.90	226.57
910.21	226.55
910.51	226.52
910.81	226.53
911.12	226.54
911.42	226.54
911.73	226.41
912.03	226.42
912.33	226.45
912.64	226.44
912.94	226.44
913.24	226.41
913.55	226.40
913.85	226.40
914.15	226.42
914.46	226.45
914.76	226.43
915.06	226.43
915.37	226.40
915.67	226.40
915.97	226.40
916.27	226.38
916.58	226.38
916.88	226.38
917.18	226.36
917.49	226.44
917.79	226.43
918.09	226.44
918.39	226.48
918.70	226.47
919.00	226.48
919.30	226.54
919.60	226.55
919.91	226.54
920.21	226.55
920.51	226.53
920.81	226.52
921.12	226.54
921.42	226.54
921.72	226.55
922.02	226.56
922.32	226.58
922.63	226.59
922.93	226.65
923.23	226.66
923.53	226.65
923.83	226.57
924.13	226.59
924.44	226.59
924.74	226.60
925.04	226.62
925.34	226.61
925.64	226.54
925.94	226.54
926.24	226.60
926.55	226.59
926.85	226.61
927.15	226.61
927.45	226.61
927.75	226.61
928.05	226.61
928.35	226.59
928.65	226.61
928.95	226.62
929.26	226.56
929.56	226.58
929.86	226.60
930.16	226.58
930.46	226.57
930.76	226.56
931.06	226.51
931.36	226.48
931.66	226.50
931.96	226.52
932.26	226.52
932.56	226.48
932.86	226.49
933.16	226.50
933.46	226.49
933.76	226.47
934.06	226.49
934.36	226.55
934.66	226.55
934.96	226.53
935.26	226.54
935.56	226.56
935.86	226.52
936.16	226.50
936.46	226.49
936.76	226.48
937.06	226.46
937.36	226.47
937.66	226.48
937.96	226.47
938.26	226.44
938.56	226.43
938.86	226.43
939.16	226.46
939.46	226.46
939.76	226.47
940.06	226.46
940.35	226.44
940.65	226.36
940.95	226.37
941.25	226.34
941.55	226.32
941.85	226.33
942.15	226.36
942.45	226.39
942.75	226.40
943.04	226.41
943.34	226.44
943.64	226.43
943.94	226.40
944.24	226.40
944.54	226.41
944.84	226.41
945.13	226.39
945.43	226.36
945.73	226.35
946.03	226.33
946.33	226.32
946.62	226.31
946.92	226.32
947.22	226.32
947.52	226.34
947.82	226.35
948.11	226.33
948.41	226.30
948.71	226.26
949.01	226.27
949.31	226.26
949.60	226.24
949.90	226.26
950.20	226.25
950.50	226.25
950.79	226.26
951.09	226.27
951.39	226.26
951.69	226.26
951.98	226.28
952.28	226.28
952.58	226.28
952.87	226.29
953.17	226.32
953.47	226.29
953.76	226.29
954.06	226.26
954.36	226.24
954.66	226.25
954.95	226.28
955.25	226.29
955.55	226.30
955.84	226.28
956.14	226.29
956.44	226.30
956.73	226.27
957.03	226.28
957.32	226.28
957.62	226.28
957.92	226.31
958.21	226.31
958.51	226.46
958.81	226.49
959.10	226.49
959.40	226.52
959.69	226.54
959.99	226.55
960.29	226.56
960.58	226.55
960.88	226.59
961.17	226.58
961.47	226.59
961.76	226.58
962.06	226.61
962.36	226.59
962.65	226.59
962.95	226.60
963.24	226.58
963.54	226.60
963.83	226.61
964.13	226.59
964.42	226.57
964.72	226.45
965.01	226.44
965.31	226.44
965.60	226.40
965.90	226.48
966.19	226.45
966.49	226.45
966.78	226.45
967.08	226.43
967.37	226.44
967.67	226.42
967.96	226.44
968.26	226.44
968.55	226.45
968.85	226.45
969.14	226.45
969.43	226.45
969.73	226.43
970.02	226.42
970.32	226.42
970.61	226.41
970.91	226.37
971.20	226.36
971.49	226.34
971.79	226.36
972.08	226.27
972.38	226.28
972.67	226.27
972.96	226.30
973.26	226.28
973.55	226.31
973.85	226.30
974.14	226.30
974.43	226.29
974.73	226.27
975.02	226.26
975.31	226.26
975.61	226.27
975.90	226.25
976.19	226.24
976.49	226.26
976.78	226.26
977.07	226.27
977.37	226.27
977.66	226.28
977.95	226.26
978.24	226.27
978.54	226.29
978.83	226.28
979.12	226.27
979.42	226.29
979.71	226.25
980.00	226.24
980.29	226.24
980.59	226.23
980.88	226.27
981.17	226.27
981.46	226.26
981.76	226.25
982.05	226.29
982.34	226.30
982.63	226.29
982.93	226.29
983.22	226.32
983.51	226.32
983.80	226.34
984.09	226.35
984.39	226.35
984.68	226.32
984.97	226.33
985.26	226.33
985.55	226.33
985.85	226.31
986.14	226.33
986.43	226.34
986.72	226.34
987.01	226.30
987.30	226.30
987.59	226.30
987.89	226.31
988.18	226.27
988.47	226.25
988.76	226.23
989.05	226.23
989.34	226.20
989.63	226.24
989.92	226.22
990.22	226.19
990.51	226.19
990.80	226.19
991.09	226.20
991.38	226.21
991.67	226.20
991.96	226.19
992.25	226.20
992.54	226.18
992.83	226.19
993.12	226.19
993.41	226.21
993.70	226.27
993.99	226.29
994.28	226.31
994.58	226.34
994.87	226.34
995.16	226.34
995.45	226.33
995.74	226.29
996.03	226.31
996.32	226.34
996.61	226.36
996.90	226.35
997.19	226.35
997.48	226.35
997.77	226.34
998.06	226.35
998.34	226.34
998.63	226.34
998.92	226.34
999.21	226.35
999.50	226.35
999.79	226.30
1000.08	226.29
1000.37	226.29
1000.66	226.28
1000.95	226.31
1001.24	226.32
1001.53	226.34
1001.82	226.33
1002.11	226.31
1002.40	226.32
1002.68	226.35
1002.97	226.44
1003.26	226.42
1003.55	226.40
1003.84	226.42
1004.13	226.47
1004.42	226.45
1004.71	226.45
1004.99	226.43
1005.28	226.47
1005.57	226.47
1005.86	226.47
1006.15	226.46
1006.44	226.44
1006.72	226.45
1007.01	226.42
1007.30	226.43
1007.59	226.40
1007.88	226.41
1008.17	226.42
1008.45	226.39
1008.74	226.34
1009.03	226.28
1009.32	226.28
1009.60	226.28
1009.89	226.26
1010.18	226.20
1010.47	226.20
1010.76	226.20
1011.04	226.20
1011.33	226.19
1011.62	226.19
1011.91	226.19
1012.19	226.20
1012.48	226.20
1012.77	226.20
1013.05	226.24
1013.34	226.23
1013.63	226.24
1013.92	226.24
1014.20	226.24
1014.49	226.25
1014.78	226.26
1015.06	226.23
1015.35	226.23
1015.64	226.24
1015.92	226.27
1016.21	226.28
1016.50	226.29
1016.78	226.30
1017.07	226.31
1017.36	226.29
1017.64	226.27
1017.93	226.28
1018.22	226.27
1018.50	226.27
1018.79	226.26
1019.08	226.22
1019.36	226.22
1019.65	226.20
1019.93	226.24
1020.22	226.24
1020.51	226.30
1020.79	226.28
1021.08	226.14
1021.36	226.14
1021.65	226.15
1021.94	226.18
1022.22	226.20
1022.51	225.84
1022.79	226.90
1023.08	226.37
1023.36	227.65
1023.65	226.03
>>>>>End Processed Spectral Data<<<<<
