SpectraSuite Data File
++++++++++++++++++++++++++++++++++++
Date: Sat Oct 03 23:30:04 EDT 2015
User: lab3
Dark Spectrum Present: No
Reference Spectrum Present: No
Number of Sampled Component Spectra: 1
Spectrometers: USB2E7196
Integration Time (usec): 46000 (USB2E7196)
Spectra Averaged: 24000 (USB2E7196)
Boxcar Smoothing: 10 (USB2E7196)
Correct for Electrical Dark: No (USB2E7196)
Strobe/Lamp Enabled: No (USB2E7196)
Correct for Detector Non-linearity: No (USB2E7196)
Correct for Stray Light: No (USB2E7196)
Number of Pixels in Processed Spectrum: 2048
>>>>>Begin Processed Spectral Data<<<<<
339.09	0.00
339.48	213.44
339.86	214.90
340.24	216.24
340.63	217.68
341.01	220.97
341.39	220.39
341.78	221.77
342.16	223.01
342.54	223.39
342.93	211.89
343.31	222.59
343.69	223.13
344.07	223.59
344.46	224.02
344.84	224.42
345.22	224.64
345.60	224.90
345.99	225.09
346.37	225.23
346.75	225.34
347.13	225.42
347.52	225.49
347.90	225.58
348.28	225.62
348.66	225.69
349.05	225.68
349.43	225.74
349.81	225.80
350.19	225.86
350.57	225.93
350.96	226.01
351.34	226.10
351.72	226.20
352.10	226.31
352.48	226.38
352.87	226.43
353.25	226.50
353.63	226.56
354.01	226.62
354.39	226.70
354.77	226.77
355.15	226.88
355.54	226.93
355.92	226.95
356.30	227.03
356.68	227.18
357.06	227.26
357.44	227.30
357.82	227.36
358.20	227.48
358.58	227.54
358.97	227.61
359.35	227.69
359.73	227.77
360.11	227.83
360.49	227.89
360.87	227.93
361.25	228.00
361.63	228.09
362.01	228.14
362.39	228.17
362.77	228.21
363.15	228.24
363.53	228.27
363.91	228.31
364.29	228.33
364.67	228.23
365.05	228.26
365.43	228.29
365.81	228.32
366.19	228.33
366.57	228.39
366.95	228.39
367.33	228.36
367.71	228.35
368.09	228.37
368.47	228.37
368.85	228.36
369.23	228.37
369.61	228.30
369.99	228.33
370.37	228.33
370.75	228.40
371.13	228.37
371.51	228.33
371.89	228.30
372.27	228.28
372.65	228.26
373.03	228.22
373.41	228.18
373.78	228.13
374.16	228.03
374.54	227.94
374.92	227.90
375.30	227.85
375.68	227.79
376.06	227.75
376.44	227.69
376.82	227.65
377.19	227.60
377.57	227.55
377.95	227.46
378.33	227.40
378.71	227.24
379.09	227.19
379.47	227.16
379.84	227.10
380.22	227.03
380.60	226.96
380.98	226.91
381.36	226.86
381.73	226.80
382.11	226.78
382.49	226.74
382.87	226.68
383.25	226.63
383.62	226.73
384.00	226.66
384.38	226.63
384.76	226.61
385.13	226.61
385.51	226.57
385.89	226.52
386.27	226.49
386.64	226.47
387.02	226.43
387.40	226.38
387.78	226.36
388.15	226.34
388.53	226.31
388.91	226.28
389.29	226.25
389.66	226.24
390.04	226.21
390.42	226.20
390.79	226.19
391.17	226.18
391.55	226.02
391.92	226.02
392.30	226.02
392.68	225.98
393.05	225.96
393.43	225.96
393.81	225.97
394.18	225.95
394.56	225.96
394.94	225.99
395.31	225.99
395.69	226.04
396.06	226.07
396.44	226.10
396.82	226.11
397.19	226.21
397.57	226.22
397.95	226.27
398.32	226.27
398.70	226.32
399.07	226.38
399.45	226.42
399.82	226.47
400.20	226.51
400.58	226.58
400.95	226.60
401.33	226.69
401.70	226.85
402.08	226.95
402.45	227.05
402.83	227.17
403.20	227.29
403.58	227.39
403.95	227.53
404.33	227.69
404.71	227.85
405.08	228.07
405.46	228.24
405.83	228.44
406.21	228.65
406.58	228.88
406.96	229.12
407.33	229.38
407.70	229.69
408.08	230.09
408.45	230.44
408.83	230.83
409.20	231.18
409.58	231.50
409.95	231.93
410.33	232.41
410.70	232.85
411.08	233.37
411.45	233.93
411.82	234.49
412.20	235.13
412.57	235.90
412.95	236.50
413.32	237.28
413.69	238.08
414.07	238.93
414.44	239.86
414.82	240.80
415.19	241.91
415.56	243.03
415.94	244.20
416.31	245.50
416.68	246.81
417.06	248.32
417.43	249.74
417.81	251.38
418.18	253.04
418.55	254.86
418.93	256.75
419.30	258.73
419.67	260.82
420.04	262.98
420.42	265.22
420.79	267.81
421.16	270.43
421.54	273.09
421.91	275.88
422.28	278.76
422.66	281.87
423.03	284.84
423.40	287.95
423.77	291.29
424.15	294.71
424.52	298.27
424.89	302.13
425.26	305.97
425.64	309.53
426.01	313.54
426.38	317.64
426.75	321.86
427.13	326.18
427.50	330.72
427.87	335.43
428.24	340.19
428.61	344.76
428.99	349.71
429.36	355.14
429.73	360.33
430.10	365.52
430.47	370.83
430.85	376.29
431.22	382.15
431.59	388.17
431.96	394.05
432.33	400.58
432.70	406.79
433.08	414.12
433.45	421.06
433.82	427.90
434.19	435.53
434.56	443.05
434.93	450.33
435.30	457.52
435.68	465.65
436.05	473.61
436.42	481.55
436.79	488.78
437.16	496.59
437.53	504.97
437.90	513.35
438.27	521.55
438.64	530.41
439.01	538.44
439.38	545.79
439.75	552.86
440.13	560.84
440.50	568.42
440.87	574.44
441.24	581.02
441.61	588.20
441.98	593.43
442.35	599.64
442.72	605.97
443.09	611.99
443.46	615.80
443.83	618.57
444.20	620.88
444.57	624.35
444.94	626.28
445.31	628.28
445.68	629.96
446.05	631.18
446.42	630.72
446.79	630.05
447.16	629.44
447.53	628.88
447.90	626.25
448.27	623.72
448.64	619.93
449.01	617.26
449.37	612.04
449.74	607.33
450.11	601.26
450.48	594.62
450.85	587.99
451.22	582.34
451.59	576.82
451.96	571.82
452.33	564.58
452.70	558.16
453.07	550.33
453.43	542.54
453.80	534.97
454.17	527.72
454.54	521.07
454.91	513.53
455.28	506.49
455.65	499.84
456.02	492.82
456.38	487.18
456.75	479.93
457.12	474.11
457.49	468.21
457.86	462.69
458.23	457.85
458.59	452.47
458.96	446.94
459.33	442.10
459.70	437.15
460.07	433.39
460.43	428.99
460.80	424.86
461.17	421.30
461.54	417.40
461.91	413.76
462.27	410.06
462.64	407.09
463.01	403.65
463.38	400.20
463.74	397.10
464.11	394.35
464.48	391.87
464.85	389.17
465.21	387.13
465.58	384.84
465.95	382.22
466.32	380.14
466.68	378.10
467.05	376.04
467.42	374.04
467.78	371.86
468.15	369.85
468.52	368.39
468.88	366.41
469.25	364.60
469.62	363.18
469.98	361.61
470.35	360.21
470.72	358.94
471.08	357.65
471.45	356.55
471.82	355.33
472.18	354.04
472.55	353.20
472.92	352.15
473.28	351.32
473.65	350.43
474.02	349.58
474.38	348.85
474.75	348.41
475.11	347.81
475.48	347.51
475.85	347.19
476.21	347.00
476.58	346.86
476.94	346.96
477.31	346.99
477.67	347.05
478.04	347.23
478.41	347.50
478.77	347.91
479.14	348.15
479.50	348.66
479.87	349.33
480.23	350.01
480.60	350.67
480.96	351.34
481.33	352.35
481.69	353.35
482.06	354.35
482.42	355.25
482.79	356.40
483.15	357.73
483.52	359.24
483.88	360.69
484.25	362.25
484.61	363.87
484.98	365.62
485.34	367.60
485.71	369.66
486.07	371.88
486.44	374.09
486.80	376.56
487.17	379.13
487.53	381.93
487.90	384.86
488.26	388.05
488.62	391.42
488.99	394.80
489.35	398.35
489.72	402.21
490.08	406.28
490.44	410.47
490.81	414.83
491.17	419.29
491.54	424.08
491.90	429.02
492.26	434.32
492.63	439.86
492.99	445.64
493.36	451.63
493.72	457.93
494.08	464.38
494.45	471.23
494.81	478.35
495.17	485.65
495.54	493.38
495.90	501.41
496.26	509.63
496.63	518.09
496.99	526.88
497.35	536.07
497.72	545.57
498.08	555.26
498.44	565.29
498.80	575.93
499.17	586.83
499.53	598.07
499.89	609.67
500.26	621.52
500.62	633.67
500.98	646.48
501.34	659.47
501.71	672.99
502.07	686.71
502.43	700.96
502.79	715.46
503.16	730.43
503.52	745.56
503.88	761.16
504.24	777.23
504.60	793.50
504.97	810.28
505.33	827.48
505.69	845.63
506.05	864.11
506.41	882.55
506.78	901.17
507.14	920.29
507.50	939.86
507.86	959.79
508.22	979.95
508.59	999.90
508.95	1020.66
509.31	1042.18
509.67	1064.45
510.03	1086.73
510.39	1109.05
510.75	1131.50
511.12	1154.27
511.48	1177.19
511.84	1200.10
512.20	1223.44
512.56	1247.72
512.92	1272.01
513.28	1295.84
513.64	1319.95
514.00	1344.51
514.37	1369.43
514.73	1394.27
515.09	1418.97
515.45	1444.00
515.81	1469.22
516.17	1494.49
516.53	1519.34
516.89	1544.04
517.25	1568.90
517.61	1593.56
517.97	1618.69
518.33	1643.36
518.69	1667.97
519.05	1693.02
519.41	1718.36
519.77	1743.94
520.13	1768.67
520.49	1793.35
520.85	1818.38
521.21	1843.02
521.57	1867.99
521.93	1892.36
522.29	1917.32
522.65	1941.68
523.01	1965.99
523.37	1989.89
523.73	2014.59
524.09	2038.87
524.45	2062.92
524.81	2086.61
525.17	2110.20
525.53	2133.16
525.89	2156.58
526.25	2180.03
526.61	2202.46
526.97	2225.00
527.33	2247.44
527.68	2269.65
528.04	2290.98
528.40	2311.37
528.76	2331.89
529.12	2351.91
529.48	2371.71
529.84	2389.54
530.20	2408.13
530.56	2426.06
530.91	2444.13
531.27	2461.84
531.63	2478.66
531.99	2495.05
532.35	2510.65
532.71	2526.42
533.07	2542.83
533.42	2557.41
533.78	2572.91
534.14	2588.71
534.50	2603.56
534.86	2618.09
535.21	2630.54
535.57	2643.63
535.93	2656.56
536.29	2668.33
536.65	2679.84
537.00	2690.52
537.36	2702.28
537.72	2712.69
538.08	2722.51
538.44	2731.56
538.79	2740.18
539.15	2748.12
539.51	2755.67
539.87	2762.64
540.22	2767.48
540.58	2772.47
540.94	2778.60
541.29	2783.20
541.65	2785.98
542.01	2787.97
542.37	2789.33
542.72	2792.16
543.08	2793.14
543.44	2794.71
543.79	2795.26
544.15	2794.99
544.51	2795.16
544.87	2794.16
545.22	2792.30
545.58	2789.77
545.94	2787.24
546.29	2783.45
546.65	2779.63
547.01	2775.74
547.36	2772.61
547.72	2769.74
548.07	2765.00
548.43	2758.85
548.79	2751.61
549.14	2745.67
549.50	2740.12
549.86	2733.52
550.21	2725.76
550.57	2719.05
550.92	2709.91
551.28	2701.29
551.64	2693.14
551.99	2684.57
552.35	2675.34
552.70	2666.42
553.06	2657.85
553.41	2648.67
553.77	2639.34
554.13	2629.95
554.48	2619.64
554.84	2608.03
555.19	2596.77
555.55	2585.71
555.90	2574.73
556.26	2564.41
556.61	2552.87
556.97	2539.65
557.32	2526.88
557.68	2514.21
558.03	2501.20
558.39	2489.56
558.74	2478.24
559.10	2465.13
559.45	2452.18
559.81	2439.85
560.16	2426.85
560.52	2414.24
560.87	2402.02
561.23	2388.93
561.58	2375.80
561.94	2362.46
562.29	2348.53
562.64	2335.41
563.00	2321.97
563.35	2308.85
563.71	2295.57
564.06	2282.24
564.42	2269.73
564.77	2256.74
565.12	2243.55
565.48	2230.32
565.83	2216.96
566.19	2203.80
566.54	2190.53
566.89	2176.20
567.25	2162.02
567.60	2149.32
567.96	2135.62
568.31	2120.49
568.66	2106.04
569.02	2092.86
569.37	2079.65
569.72	2066.99
570.08	2053.04
570.43	2038.68
570.78	2024.25
571.14	2009.08
571.49	1994.54
571.84	1980.56
572.20	1965.38
572.55	1950.40
572.90	1935.40
573.26	1920.51
573.61	1905.06
573.96	1890.06
574.31	1875.31
574.67	1860.68
575.02	1844.88
575.37	1829.24
575.72	1814.50
576.08	1800.03
576.43	1784.48
576.78	1769.32
577.13	1754.41
577.49	1739.85
577.84	1725.93
578.19	1711.08
578.54	1696.34
578.90	1681.13
579.25	1665.82
579.60	1652.14
579.95	1638.35
580.30	1624.36
580.66	1610.07
581.01	1595.76
581.36	1581.46
581.71	1568.11
582.06	1554.66
582.42	1541.46
582.77	1528.31
583.12	1515.16
583.47	1501.93
583.82	1488.79
584.17	1475.26
584.53	1461.46
584.88	1448.03
585.23	1434.21
585.58	1421.14
585.93	1408.28
586.28	1396.17
586.63	1384.00
586.98	1371.38
587.34	1358.84
587.69	1346.05
588.04	1333.57
588.39	1321.44
588.74	1309.44
589.09	1297.26
589.44	1284.65
589.79	1272.68
590.14	1260.79
590.49	1248.78
590.84	1236.93
591.19	1225.50
591.54	1213.87
591.89	1202.38
592.25	1191.11
592.60	1179.45
592.95	1168.22
593.30	1157.28
593.65	1146.03
594.00	1134.93
594.35	1124.36
594.70	1113.36
595.05	1103.20
595.40	1092.94
595.75	1082.50
596.10	1072.61
596.45	1062.51
596.80	1052.74
597.15	1042.70
597.50	1032.82
597.85	1023.36
598.19	1013.73
598.54	1004.13
598.89	995.04
599.24	986.24
599.59	977.21
599.94	969.08
600.29	960.77
600.64	952.17
600.99	943.22
601.34	934.59
601.69	925.66
602.04	917.41
602.39	908.97
602.74	900.62
603.08	892.22
603.43	883.79
603.78	875.52
604.13	867.38
604.48	859.27
604.83	851.32
605.18	843.34
605.53	835.52
605.87	827.55
606.22	819.81
606.57	812.05
606.92	804.22
607.27	796.32
607.62	788.71
607.96	781.49
608.31	774.73
608.66	767.77
609.01	761.09
609.36	754.49
609.70	747.73
610.05	740.92
610.40	734.40
610.75	727.83
611.10	721.62
611.44	715.26
611.79	709.02
612.14	702.69
612.49	696.42
612.83	690.45
613.18	684.60
613.53	678.70
613.88	672.79
614.22	667.27
614.57	661.71
614.92	656.02
615.27	650.42
615.61	644.89
615.96	639.42
616.31	633.94
616.65	628.51
617.00	623.28
617.35	618.17
617.70	613.09
618.04	608.09
618.39	602.98
618.74	598.11
619.08	593.29
619.43	588.61
619.78	583.91
620.12	579.20
620.47	574.62
620.82	570.16
621.16	565.76
621.51	561.25
621.85	556.77
622.20	552.45
622.55	548.20
622.89	544.01
623.24	539.83
623.59	535.67
623.93	531.68
624.28	527.82
624.62	524.02
624.97	520.26
625.32	516.46
625.66	512.63
626.01	508.77
626.35	504.97
626.70	501.22
627.04	497.66
627.39	494.01
627.73	490.54
628.08	487.17
628.43	483.78
628.77	480.46
629.12	477.27
629.46	474.13
629.81	470.86
630.15	467.58
630.50	464.40
630.84	461.30
631.19	458.23
631.53	455.25
631.88	452.25
632.22	449.28
632.57	446.58
632.91	443.91
633.26	441.34
633.60	438.79
633.95	436.28
634.29	433.70
634.64	431.18
634.98	428.49
635.32	425.93
635.67	423.55
636.01	421.12
636.36	418.72
636.70	416.43
637.05	414.17
637.39	411.96
637.73	409.75
638.08	407.66
638.42	405.56
638.77	403.32
639.11	401.04
639.45	398.84
639.80	396.57
640.14	394.42
640.49	392.25
640.83	390.06
641.17	387.96
641.52	385.92
641.86	383.90
642.20	382.08
642.55	380.11
642.89	378.17
643.23	376.32
643.58	374.63
643.92	372.81
644.26	371.06
644.61	369.35
644.95	367.62
645.29	365.81
645.64	364.01
645.98	362.32
646.32	360.75
646.66	359.15
647.01	357.60
647.35	356.08
647.69	354.54
648.04	353.12
648.38	351.63
648.72	350.16
649.06	348.70
649.41	347.24
649.75	345.84
650.09	344.47
650.43	343.09
650.78	341.68
651.12	340.31
651.46	338.98
651.80	337.68
652.14	336.40
652.49	335.18
652.83	333.92
653.17	332.72
653.51	331.54
653.85	330.42
654.20	329.26
654.54	328.02
654.88	326.87
655.22	325.76
655.56	324.63
655.90	323.57
656.25	322.54
656.59	321.49
656.93	320.51
657.27	319.54
657.61	318.51
657.95	317.54
658.29	316.55
658.64	315.62
658.98	314.68
659.32	313.77
659.66	312.91
660.00	312.08
660.34	311.24
660.68	310.38
661.02	309.48
661.36	308.63
661.70	307.82
662.05	307.04
662.39	306.25
662.73	305.53
663.07	304.83
663.41	304.08
663.75	303.33
664.09	302.59
664.43	301.80
664.77	301.11
665.11	300.36
665.45	299.69
665.79	299.02
666.13	298.32
666.47	297.61
666.81	296.88
667.15	296.13
667.49	295.48
667.83	294.89
668.17	294.27
668.51	293.68
668.85	293.14
669.19	292.62
669.53	292.00
669.87	291.38
670.21	290.78
670.55	290.22
670.89	289.75
671.23	289.22
671.57	288.70
671.91	288.23
672.25	287.78
672.58	287.34
672.92	286.81
673.26	286.36
673.60	285.92
673.94	285.49
674.28	285.11
674.62	284.68
674.96	284.20
675.30	283.79
675.64	283.34
675.97	282.86
676.31	282.37
676.65	281.94
676.99	281.58
677.33	281.13
677.67	280.71
678.01	280.23
678.34	279.83
678.68	279.45
679.02	279.01
679.36	278.58
679.70	278.15
680.04	277.77
680.37	277.38
680.71	277.01
681.05	276.65
681.39	276.24
681.73	275.83
682.06	275.44
682.40	275.05
682.74	274.72
683.08	274.44
683.42	274.09
683.75	273.77
684.09	273.38
684.43	273.05
684.77	272.71
685.10	272.42
685.44	272.10
685.78	271.77
686.12	271.48
686.45	271.15
686.79	270.81
687.13	270.50
687.46	270.16
687.80	269.85
688.14	269.49
688.48	269.19
688.81	268.88
689.15	268.60
689.49	268.28
689.82	267.95
690.16	267.57
690.50	267.26
690.83	266.95
691.17	266.63
691.51	266.32
691.84	266.03
692.18	265.70
692.52	265.37
692.85	265.06
693.19	264.79
693.52	264.49
693.86	264.19
694.20	263.89
694.53	263.61
694.87	263.30
695.21	263.00
695.54	262.71
695.88	262.41
696.21	262.08
696.55	261.80
696.88	261.51
697.22	261.23
697.56	260.95
697.89	260.63
698.23	260.35
698.56	260.05
698.90	259.77
699.23	259.47
699.57	259.18
699.90	258.88
700.24	258.57
700.58	258.32
700.91	258.09
701.25	257.93
701.58	257.71
701.92	257.49
702.25	257.24
702.59	256.97
702.92	256.72
703.26	256.45
703.59	256.18
703.93	256.02
704.26	255.77
704.60	255.51
704.93	255.25
705.26	254.98
705.60	254.77
705.93	254.48
706.27	254.28
706.60	254.07
706.94	253.88
707.27	253.61
707.61	253.35
707.94	253.07
708.27	252.71
708.61	252.40
708.94	252.13
709.28	251.88
709.61	251.64
709.94	251.42
710.28	251.20
710.61	251.00
710.95	250.67
711.28	250.53
711.61	250.31
711.95	250.13
712.28	249.90
712.61	249.65
712.95	249.51
713.28	249.35
713.61	249.11
713.95	248.84
714.28	248.65
714.61	248.43
714.95	248.22
715.28	248.01
715.61	247.82
715.95	247.64
716.28	247.45
716.61	247.29
716.95	247.08
717.28	246.88
717.61	246.67
717.94	246.49
718.28	246.20
718.61	246.00
718.94	245.78
719.27	245.60
719.61	245.44
719.94	245.22
720.27	244.95
720.60	244.77
720.94	244.59
721.27	244.42
721.60	244.27
721.93	244.09
722.27	243.96
722.60	243.80
722.93	243.61
723.26	243.44
723.59	243.23
723.93	243.07
724.26	242.90
724.59	242.73
724.92	242.57
725.25	242.46
725.59	242.30
725.92	242.17
726.25	242.02
726.58	241.86
726.91	241.70
727.24	241.57
727.57	241.42
727.91	241.26
728.24	241.13
728.57	240.97
728.90	240.85
729.23	240.66
729.56	240.56
729.89	240.42
730.22	240.27
730.55	240.13
730.89	239.99
731.22	239.84
731.55	239.71
731.88	239.58
732.21	239.41
732.54	239.27
732.87	239.14
733.20	239.01
733.53	238.89
733.86	238.77
734.19	238.62
734.52	238.52
734.85	238.49
735.18	238.33
735.51	238.25
735.84	238.13
736.17	238.05
736.50	237.86
736.83	237.90
737.16	237.78
737.49	237.68
737.82	237.56
738.15	237.47
738.48	237.35
738.81	237.24
739.14	237.12
739.47	237.00
739.80	236.88
740.13	236.78
740.46	236.65
740.79	236.52
741.12	236.41
741.45	236.28
741.78	236.10
742.11	236.03
742.44	235.89
742.77	235.80
743.10	235.67
743.43	235.57
743.75	235.33
744.08	235.43
744.41	235.32
744.74	235.22
745.07	235.09
745.40	235.02
745.73	234.98
746.06	234.89
746.39	234.82
746.71	234.72
747.04	234.62
747.37	234.53
747.70	234.47
748.03	234.39
748.36	234.33
748.68	234.24
749.01	234.11
749.34	234.03
749.67	233.95
750.00	233.88
750.33	233.89
750.65	233.82
750.98	233.55
751.31	233.47
751.64	233.40
751.97	233.39
752.29	233.29
752.62	233.15
752.95	233.07
753.28	232.97
753.60	232.89
753.93	232.84
754.26	232.78
754.59	232.66
754.91	232.57
755.24	232.48
755.57	232.46
755.90	232.39
756.22	232.30
756.55	232.20
756.88	232.10
757.20	231.95
757.53	231.84
757.86	231.77
758.19	231.70
758.51	231.63
758.84	231.49
759.17	231.41
759.49	231.35
759.82	231.35
760.15	231.30
760.47	231.24
760.80	231.13
761.13	231.09
761.45	231.03
761.78	230.98
762.11	230.92
762.43	230.80
762.76	230.74
763.08	230.69
763.41	230.65
763.74	230.60
764.06	230.54
764.39	230.50
764.71	230.45
765.04	230.38
765.37	230.32
765.69	230.27
766.02	230.22
766.34	230.16
766.67	230.06
767.00	230.03
767.32	230.04
767.65	230.08
767.97	230.02
768.30	229.97
768.62	229.93
768.95	229.86
769.27	229.82
769.60	229.79
769.92	229.72
770.25	229.66
770.57	229.59
770.90	229.55
771.22	229.50
771.55	229.45
771.87	229.42
772.20	229.37
772.52	229.44
772.85	229.56
773.17	229.52
773.50	229.48
773.82	229.42
774.15	229.32
774.47	229.21
774.80	229.16
775.12	229.12
775.45	229.09
775.77	229.06
776.09	229.03
776.42	229.00
776.74	229.01
777.07	228.98
777.39	228.95
777.72	228.91
778.04	228.90
778.36	228.86
778.69	228.84
779.01	228.82
779.33	228.68
779.66	228.50
779.98	228.46
780.31	228.44
780.63	228.47
780.95	228.46
781.28	228.44
781.60	228.40
781.92	228.38
782.25	228.35
782.57	228.33
782.89	228.29
783.22	228.26
783.54	228.20
783.86	228.19
784.19	228.16
784.51	228.17
784.83	228.13
785.16	228.11
785.48	228.08
785.80	228.06
786.12	228.05
786.45	228.03
786.77	228.01
787.09	227.99
787.42	227.92
787.74	227.90
788.06	227.88
788.38	227.86
788.71	227.83
789.03	227.82
789.35	227.81
789.67	227.78
789.99	227.77
790.32	227.74
790.64	227.73
790.96	227.83
791.28	227.77
791.61	227.74
791.93	227.74
792.25	227.71
792.57	227.78
792.89	227.74
793.21	227.73
793.54	227.70
793.86	227.67
794.18	227.66
794.50	227.62
794.82	227.60
795.14	227.60
795.47	227.60
795.79	227.59
796.11	227.54
796.43	227.52
796.75	227.51
797.07	227.50
797.39	227.47
797.71	227.35
798.04	227.35
798.36	227.34
798.68	227.32
799.00	227.32
799.32	227.24
799.64	227.25
799.96	227.23
800.28	227.24
800.60	227.22
800.92	227.22
801.24	227.20
801.56	227.20
801.89	227.17
802.21	227.16
802.53	227.12
802.85	227.14
803.17	227.18
803.49	227.14
803.81	227.12
804.13	227.10
804.45	227.07
804.77	227.06
805.09	227.05
805.41	227.03
805.73	226.99
806.05	226.94
806.37	226.92
806.69	226.89
807.01	226.87
807.33	226.87
807.65	226.81
807.97	226.86
808.28	226.83
808.60	226.81
808.92	226.78
809.24	226.86
809.56	226.82
809.88	226.77
810.20	226.77
810.52	226.78
810.84	226.76
811.16	226.73
811.48	226.72
811.80	226.75
812.12	226.74
812.43	226.75
812.75	226.75
813.07	226.73
813.39	226.73
813.71	226.70
814.03	226.68
814.35	226.68
814.67	226.61
814.98	226.59
815.30	226.58
815.62	226.56
815.94	226.46
816.26	226.47
816.58	226.43
816.89	226.43
817.21	226.39
817.53	226.40
817.85	226.40
818.17	226.38
818.48	226.32
818.80	226.34
819.12	226.31
819.44	226.28
819.76	226.26
820.07	226.25
820.39	226.24
820.71	226.24
821.03	226.23
821.34	226.22
821.66	226.23
821.98	226.24
822.30	226.23
822.61	226.30
822.93	226.27
823.25	226.26
823.57	226.24
823.88	226.25
824.20	226.25
824.52	226.26
824.83	226.25
825.15	226.23
825.47	226.22
825.79	226.22
826.10	226.21
826.42	226.21
826.74	226.21
827.05	226.21
827.37	226.20
827.69	226.19
828.00	226.19
828.32	226.18
828.64	226.16
828.95	226.22
829.27	226.17
829.58	226.17
829.90	226.19
830.22	226.20
830.53	226.17
830.85	226.16
831.17	226.12
831.48	226.11
831.80	226.12
832.11	226.10
832.43	226.08
832.75	226.08
833.06	226.15
833.38	226.11
833.69	226.10
834.01	226.10
834.32	226.10
834.64	226.08
834.96	226.08
835.27	226.07
835.59	226.02
835.90	226.00
836.22	225.99
836.53	225.96
836.85	225.94
837.16	226.06
837.48	226.06
837.79	226.10
838.11	226.10
838.42	226.10
838.74	226.11
839.05	226.10
839.37	226.09
839.68	226.01
840.00	226.00
840.31	226.02
840.63	226.00
840.94	225.99
841.26	225.97
841.57	225.97
841.88	225.98
842.20	225.96
842.51	225.94
842.83	225.93
843.14	226.05
843.46	226.05
843.77	225.97
844.08	225.96
844.40	225.92
844.71	225.90
845.03	225.89
845.34	225.88
845.65	225.87
845.97	225.87
846.28	225.87
846.60	225.88
846.91	225.85
847.22	225.85
847.54	225.87
847.85	225.88
848.16	225.87
848.48	225.84
848.79	225.89
849.10	225.90
849.42	225.90
849.73	225.78
850.04	225.78
850.36	225.73
850.67	225.75
850.98	225.75
851.30	225.76
851.61	225.76
851.92	225.75
852.23	225.79
852.55	225.80
852.86	225.80
853.17	225.81
853.49	225.83
853.80	225.86
854.11	225.86
854.42	225.87
854.74	225.86
855.05	225.86
855.36	225.79
855.67	225.79
855.99	225.79
856.30	225.94
856.61	225.94
856.92	225.94
857.23	225.94
857.55	225.93
857.86	225.91
858.17	225.93
858.48	225.91
858.79	225.88
859.11	225.89
859.42	225.88
859.73	225.86
860.04	225.85
860.35	225.81
860.66	225.77
860.98	225.76
861.29	225.78
861.60	225.77
861.91	225.80
862.22	225.77
862.53	225.76
862.84	225.60
863.16	225.63
863.47	225.60
863.78	225.58
864.09	225.59
864.40	225.60
864.71	225.60
865.02	225.62
865.33	225.60
865.64	225.57
865.95	225.57
866.27	225.65
866.58	225.63
866.89	225.65
867.20	225.65
867.51	225.62
867.82	225.61
868.13	225.65
868.44	225.62
868.75	225.64
869.06	225.65
869.37	225.66
869.68	225.63
869.99	225.65
870.30	225.66
870.61	225.67
870.92	225.65
871.23	225.64
871.54	225.65
871.85	225.68
872.16	225.70
872.47	225.69
872.78	225.62
873.09	225.63
873.40	225.62
873.71	225.63
874.02	225.64
874.33	225.63
874.64	225.60
874.95	225.62
875.26	225.60
875.56	225.59
875.87	225.58
876.18	225.58
876.49	225.70
876.80	225.69
877.11	225.66
877.42	225.67
877.73	225.67
878.04	225.65
878.35	225.64
878.66	225.64
878.96	225.64
879.27	225.64
879.58	225.63
879.89	225.62
880.20	225.66
880.51	225.65
880.82	225.65
881.12	225.65
881.43	225.63
881.74	225.61
882.05	225.61
882.36	225.61
882.67	225.62
882.97	225.48
883.28	225.47
883.59	225.47
883.90	225.47
884.21	225.49
884.51	225.48
884.82	225.46
885.13	225.46
885.44	225.46
885.74	225.46
886.05	225.45
886.36	225.45
886.67	225.40
886.98	225.47
887.28	225.48
887.59	225.47
887.90	225.48
888.20	225.47
888.51	225.50
888.82	225.47
889.13	225.48
889.43	225.59
889.74	225.59
890.05	225.59
890.35	225.57
890.66	225.55
890.97	225.54
891.28	225.53
891.58	225.53
891.89	225.53
892.20	225.51
892.50	225.50
892.81	225.49
893.12	225.49
893.42	225.42
893.73	225.43
894.04	225.42
894.34	225.43
894.65	225.43
894.95	225.41
895.26	225.42
895.57	225.47
895.87	225.34
896.18	225.37
896.48	225.37
896.79	225.37
897.10	225.39
897.40	225.39
897.71	225.41
898.01	225.40
898.32	225.41
898.63	225.41
898.93	225.42
899.24	225.42
899.54	225.42
899.85	225.41
900.15	225.41
900.46	225.41
900.76	225.42
901.07	225.42
901.38	225.41
901.68	225.43
901.99	225.36
902.29	225.38
902.60	225.36
902.90	225.35
903.21	225.35
903.51	225.34
903.82	225.37
904.12	225.36
904.43	225.37
904.73	225.37
905.03	225.37
905.34	225.49
905.64	225.49
905.95	225.49
906.25	225.49
906.56	225.48
906.86	225.48
907.17	225.47
907.47	225.47
907.77	225.46
908.08	225.43
908.38	225.44
908.69	225.45
908.99	225.47
909.30	225.48
909.60	225.47
909.90	225.48
910.21	225.44
910.51	225.42
910.81	225.42
911.12	225.42
911.42	225.43
911.73	225.29
912.03	225.30
912.33	225.33
912.64	225.32
912.94	225.30
913.24	225.28
913.55	225.27
913.85	225.26
914.15	225.29
914.46	225.31
914.76	225.29
915.06	225.28
915.37	225.26
915.67	225.25
915.97	225.25
916.27	225.23
916.58	225.23
916.88	225.23
917.18	225.22
917.49	225.31
917.79	225.30
918.09	225.32
918.39	225.35
918.70	225.34
919.00	225.35
919.30	225.41
919.60	225.41
919.91	225.40
920.21	225.40
920.51	225.38
920.81	225.37
921.12	225.39
921.42	225.38
921.72	225.39
922.02	225.40
922.32	225.41
922.63	225.42
922.93	225.49
923.23	225.49
923.53	225.48
923.83	225.40
924.13	225.41
924.44	225.40
924.74	225.42
925.04	225.44
925.34	225.44
925.64	225.38
925.94	225.38
926.24	225.46
926.55	225.44
926.85	225.46
927.15	225.46
927.45	225.46
927.75	225.45
928.05	225.46
928.35	225.45
928.65	225.47
928.95	225.48
929.26	225.42
929.56	225.44
929.86	225.46
930.16	225.45
930.46	225.44
930.76	225.44
931.06	225.38
931.36	225.35
931.66	225.37
931.96	225.38
932.26	225.39
932.56	225.33
932.86	225.34
933.16	225.34
933.46	225.33
933.76	225.31
934.06	225.33
934.36	225.37
934.66	225.37
934.96	225.35
935.26	225.35
935.56	225.37
935.86	225.34
936.16	225.32
936.46	225.31
936.76	225.30
937.06	225.28
937.36	225.29
937.66	225.30
937.96	225.29
938.26	225.26
938.56	225.26
938.86	225.26
939.16	225.29
939.46	225.30
939.76	225.31
940.06	225.31
940.35	225.29
940.65	225.22
940.95	225.23
941.25	225.20
941.55	225.18
941.85	225.17
942.15	225.20
942.45	225.23
942.75	225.23
943.04	225.24
943.34	225.27
943.64	225.25
943.94	225.24
944.24	225.24
944.54	225.24
944.84	225.24
945.13	225.22
945.43	225.20
945.73	225.19
946.03	225.18
946.33	225.17
946.62	225.15
946.92	225.15
947.22	225.16
947.52	225.17
947.82	225.19
948.11	225.17
948.41	225.15
948.71	225.11
949.01	225.12
949.31	225.11
949.60	225.10
949.90	225.12
950.20	225.11
950.50	225.10
950.79	225.10
951.09	225.12
951.39	225.12
951.69	225.11
951.98	225.13
952.28	225.13
952.58	225.13
952.87	225.13
953.17	225.15
953.47	225.14
953.76	225.13
954.06	225.11
954.36	225.10
954.66	225.10
954.95	225.13
955.25	225.13
955.55	225.15
955.84	225.13
956.14	225.13
956.44	225.14
956.73	225.13
957.03	225.14
957.32	225.13
957.62	225.13
957.92	225.16
958.21	225.14
958.51	225.29
958.81	225.31
959.10	225.32
959.40	225.34
959.69	225.35
959.99	225.37
960.29	225.38
960.58	225.37
960.88	225.42
961.17	225.40
961.47	225.41
961.76	225.40
962.06	225.42
962.36	225.40
962.65	225.41
962.95	225.42
963.24	225.40
963.54	225.41
963.83	225.42
964.13	225.41
964.42	225.40
964.72	225.29
965.01	225.29
965.31	225.28
965.60	225.24
965.90	225.32
966.19	225.29
966.49	225.30
966.78	225.30
967.08	225.28
967.37	225.28
967.67	225.26
967.96	225.28
968.26	225.27
968.55	225.29
968.85	225.29
969.14	225.28
969.43	225.29
969.73	225.27
970.02	225.27
970.32	225.25
970.61	225.24
970.91	225.20
971.20	225.18
971.49	225.17
971.79	225.18
972.08	225.09
972.38	225.10
972.67	225.09
972.96	225.11
973.26	225.09
973.55	225.13
973.85	225.12
974.14	225.11
974.43	225.12
974.73	225.10
975.02	225.08
975.31	225.08
975.61	225.08
975.90	225.07
976.19	225.06
976.49	225.07
976.78	225.08
977.07	225.09
977.37	225.10
977.66	225.11
977.95	225.09
978.24	225.10
978.54	225.12
978.83	225.12
979.12	225.11
979.42	225.11
979.71	225.09
980.00	225.08
980.29	225.09
980.59	225.06
980.88	225.10
981.17	225.10
981.46	225.10
981.76	225.10
982.05	225.14
982.34	225.15
982.63	225.15
982.93	225.15
983.22	225.18
983.51	225.18
983.80	225.20
984.09	225.22
984.39	225.21
984.68	225.19
984.97	225.20
985.26	225.19
985.55	225.20
985.85	225.17
986.14	225.20
986.43	225.21
986.72	225.20
987.01	225.16
987.30	225.16
987.59	225.15
987.89	225.16
988.18	225.12
988.47	225.11
988.76	225.10
989.05	225.08
989.34	225.06
989.63	225.10
989.92	225.07
990.22	225.06
990.51	225.06
990.80	225.04
991.09	225.06
991.38	225.07
991.67	225.06
991.96	225.05
992.25	225.05
992.54	225.03
992.83	225.03
993.12	225.03
993.41	225.05
993.70	225.11
993.99	225.13
994.28	225.15
994.58	225.17
994.87	225.16
995.16	225.16
995.45	225.15
995.74	225.10
996.03	225.12
996.32	225.14
996.61	225.17
996.90	225.17
997.19	225.16
997.48	225.16
997.77	225.15
998.06	225.15
998.34	225.14
998.63	225.14
998.92	225.15
999.21	225.17
999.50	225.16
999.79	225.12
1000.08	225.11
1000.37	225.11
1000.66	225.09
1000.95	225.13
1001.24	225.14
1001.53	225.15
1001.82	225.15
1002.11	225.12
1002.40	225.13
1002.68	225.15
1002.97	225.24
1003.26	225.23
1003.55	225.21
1003.84	225.22
1004.13	225.27
1004.42	225.26
1004.71	225.26
1004.99	225.25
1005.28	225.28
1005.57	225.27
1005.86	225.26
1006.15	225.25
1006.44	225.23
1006.72	225.24
1007.01	225.22
1007.30	225.22
1007.59	225.20
1007.88	225.20
1008.17	225.21
1008.45	225.19
1008.74	225.13
1009.03	225.07
1009.32	225.08
1009.60	225.08
1009.89	225.07
1010.18	225.02
1010.47	225.01
1010.76	225.01
1011.04	225.01
1011.33	225.00
1011.62	225.01
1011.91	225.02
1012.19	225.03
1012.48	225.03
1012.77	225.03
1013.05	225.08
1013.34	225.07
1013.63	225.07
1013.92	225.07
1014.20	225.07
1014.49	225.07
1014.78	225.09
1015.06	225.05
1015.35	225.05
1015.64	225.06
1015.92	225.09
1016.21	225.10
1016.50	225.10
1016.78	225.12
1017.07	225.13
1017.36	225.10
1017.64	225.09
1017.93	225.10
1018.22	225.08
1018.50	225.08
1018.79	225.08
1019.08	225.03
1019.36	225.04
1019.65	225.03
1019.93	225.06
1020.22	225.08
1020.51	225.14
1020.79	225.13
1021.08	224.91
1021.36	224.86
1021.65	225.04
1021.94	224.97
1022.22	225.12
1022.51	224.85
1022.79	225.67
1023.08	225.20
1023.36	226.56
1023.65	224.77
>>>>>End Processed Spectral Data<<<<<
