SpectraSuite Data File
++++++++++++++++++++++++++++++++++++
Date: Sun Oct 04 05:46:52 EDT 2015
User: lab3
Dark Spectrum Present: No
Reference Spectrum Present: No
Number of Sampled Component Spectra: 1
Spectrometers: USB2E7196
Integration Time (usec): 46000 (USB2E7196)
Spectra Averaged: 24000 (USB2E7196)
Boxcar Smoothing: 10 (USB2E7196)
Correct for Electrical Dark: No (USB2E7196)
Strobe/Lamp Enabled: No (USB2E7196)
Correct for Detector Non-linearity: No (USB2E7196)
Correct for Stray Light: No (USB2E7196)
Number of Pixels in Processed Spectrum: 2048
>>>>>Begin Processed Spectral Data<<<<<
339.09	0.00
339.48	213.00
339.86	214.46
340.24	215.82
340.63	217.24
341.01	220.53
341.39	219.97
341.78	221.33
342.16	222.55
342.54	222.91
342.93	211.47
343.31	222.15
343.69	222.68
344.07	223.14
344.46	223.57
344.84	223.97
345.22	224.19
345.60	224.44
345.99	224.64
346.37	224.78
346.75	224.89
347.13	224.97
347.52	225.04
347.90	225.13
348.28	225.17
348.66	225.23
349.05	225.22
349.43	225.28
349.81	225.34
350.19	225.40
350.57	225.47
350.96	225.56
351.34	225.65
351.72	225.75
352.10	225.86
352.48	225.94
352.87	225.99
353.25	226.06
353.63	226.12
354.01	226.18
354.39	226.26
354.77	226.33
355.15	226.44
355.54	226.50
355.92	226.52
356.30	226.60
356.68	226.76
357.06	226.84
357.44	226.88
357.82	226.94
358.20	227.06
358.58	227.12
358.97	227.19
359.35	227.27
359.73	227.35
360.11	227.40
360.49	227.47
360.87	227.52
361.25	227.58
361.63	227.67
362.01	227.73
362.39	227.76
362.77	227.81
363.15	227.83
363.53	227.86
363.91	227.90
364.29	227.92
364.67	227.82
365.05	227.85
365.43	227.88
365.81	227.91
366.19	227.93
366.57	228.00
366.95	228.00
367.33	227.97
367.71	227.96
368.09	227.98
368.47	227.98
368.85	227.97
369.23	227.98
369.61	227.92
369.99	227.94
370.37	227.94
370.75	228.01
371.13	227.98
371.51	227.94
371.89	227.92
372.27	227.90
372.65	227.88
373.03	227.84
373.41	227.79
373.78	227.74
374.16	227.64
374.54	227.55
374.92	227.50
375.30	227.47
375.68	227.40
376.06	227.35
376.44	227.30
376.82	227.26
377.19	227.21
377.57	227.16
377.95	227.07
378.33	227.00
378.71	226.84
379.09	226.80
379.47	226.77
379.84	226.70
380.22	226.64
380.60	226.57
380.98	226.52
381.36	226.47
381.73	226.41
382.11	226.39
382.49	226.35
382.87	226.29
383.25	226.24
383.62	226.35
384.00	226.28
384.38	226.25
384.76	226.23
385.13	226.23
385.51	226.19
385.89	226.14
386.27	226.11
386.64	226.09
387.02	226.04
387.40	226.00
387.78	225.97
388.15	225.95
388.53	225.92
388.91	225.89
389.29	225.86
389.66	225.86
390.04	225.82
390.42	225.82
390.79	225.81
391.17	225.79
391.55	225.63
391.92	225.62
392.30	225.62
392.68	225.58
393.05	225.56
393.43	225.56
393.81	225.57
394.18	225.55
394.56	225.56
394.94	225.59
395.31	225.59
395.69	225.64
396.06	225.67
396.44	225.70
396.82	225.71
397.19	225.80
397.57	225.81
397.95	225.86
398.32	225.86
398.70	225.91
399.07	225.98
399.45	226.03
399.82	226.08
400.20	226.12
400.58	226.19
400.95	226.20
401.33	226.30
401.70	226.46
402.08	226.57
402.45	226.67
402.83	226.79
403.20	226.92
403.58	227.02
403.95	227.17
404.33	227.33
404.71	227.49
405.08	227.71
405.46	227.89
405.83	228.10
406.21	228.31
406.58	228.55
406.96	228.78
407.33	229.06
407.70	229.36
408.08	229.78
408.45	230.14
408.83	230.54
409.20	230.90
409.58	231.22
409.95	231.67
410.33	232.15
410.70	232.60
411.08	233.14
411.45	233.71
411.82	234.28
412.20	234.94
412.57	235.72
412.95	236.34
413.32	237.14
413.69	237.96
414.07	238.84
414.44	239.79
414.82	240.76
415.19	241.89
415.56	243.04
415.94	244.24
416.31	245.57
416.68	246.91
417.06	248.46
417.43	249.92
417.81	251.59
418.18	253.30
418.55	255.17
418.93	257.11
419.30	259.13
419.67	261.28
420.04	263.49
420.42	265.79
420.79	268.45
421.16	271.13
421.54	273.86
421.91	276.72
422.28	279.67
422.66	282.86
423.03	285.90
423.40	289.10
423.77	292.53
424.15	296.04
424.52	299.69
424.89	303.65
425.26	307.59
425.64	311.25
426.01	315.36
426.38	319.57
426.75	323.90
427.13	328.34
427.50	333.00
427.87	337.83
428.24	342.72
428.61	347.42
428.99	352.50
429.36	358.08
429.73	363.41
430.10	368.74
430.47	374.19
430.85	379.80
431.22	385.81
431.59	391.99
431.96	398.02
432.33	404.72
432.70	411.10
433.08	418.61
433.45	425.74
433.82	432.76
434.19	440.58
434.56	448.31
434.93	455.77
435.30	463.15
435.68	471.48
436.05	479.65
436.42	487.79
436.79	495.22
437.16	503.23
437.53	511.82
437.90	520.43
438.27	528.84
438.64	537.94
439.01	546.18
439.38	553.73
439.75	560.98
440.13	569.17
440.50	576.96
440.87	583.15
441.24	589.91
441.61	597.28
441.98	602.66
442.35	609.03
442.72	615.54
443.09	621.74
443.46	625.66
443.83	628.51
444.20	630.88
444.57	634.45
444.94	636.44
445.31	638.49
445.68	640.21
446.05	641.48
446.42	641.01
446.79	640.32
447.16	639.70
447.53	639.14
447.90	636.44
448.27	633.85
448.64	629.97
449.01	627.23
449.37	621.87
449.74	617.03
450.11	610.80
450.48	603.98
450.85	597.18
451.22	591.37
451.59	585.70
451.96	580.58
452.33	573.14
452.70	566.55
453.07	558.52
453.43	550.52
453.80	542.75
454.17	535.31
454.54	528.48
454.91	520.75
455.28	513.52
455.65	506.69
456.02	499.47
456.38	493.68
456.75	486.23
457.12	480.24
457.49	474.19
457.86	468.51
458.23	463.54
458.59	458.01
458.96	452.34
459.33	447.36
459.70	442.27
460.07	438.41
460.43	433.88
460.80	429.64
461.17	425.97
461.54	421.96
461.91	418.22
462.27	414.41
462.64	411.35
463.01	407.82
463.38	404.26
463.74	401.08
464.11	398.25
464.48	395.70
464.85	392.92
465.21	390.82
465.58	388.47
465.95	385.76
466.32	383.62
466.68	381.52
467.05	379.40
467.42	377.34
467.78	375.09
468.15	373.02
468.52	371.52
468.88	369.48
469.25	367.62
469.62	366.14
469.98	364.51
470.35	363.07
470.72	361.75
471.08	360.42
471.45	359.29
471.82	358.03
472.18	356.70
472.55	355.84
472.92	354.75
473.28	353.88
473.65	352.96
474.02	352.08
474.38	351.33
474.75	350.87
475.11	350.24
475.48	349.92
475.85	349.58
476.21	349.38
476.58	349.23
476.94	349.33
477.31	349.35
477.67	349.41
478.04	349.59
478.41	349.85
478.77	350.26
479.14	350.50
479.50	351.01
479.87	351.69
480.23	352.37
480.60	353.04
480.96	353.71
481.33	354.74
481.69	355.75
482.06	356.77
482.42	357.69
482.79	358.84
483.15	360.19
483.52	361.73
483.88	363.20
484.25	364.78
484.61	366.43
484.98	368.21
485.34	370.21
485.71	372.31
486.07	374.56
486.44	376.81
486.80	379.32
487.17	381.92
487.53	384.78
487.90	387.74
488.26	391.00
488.62	394.42
488.99	397.85
489.35	401.47
489.72	405.39
490.08	409.53
490.44	413.80
490.81	418.23
491.17	422.77
491.54	427.65
491.90	432.67
492.26	438.06
492.63	443.70
492.99	449.58
493.36	455.68
493.72	462.09
494.08	468.66
494.45	475.63
494.81	482.87
495.17	490.31
495.54	498.18
495.90	506.35
496.26	514.71
496.63	523.31
496.99	532.24
497.35	541.58
497.72	551.23
498.08	561.09
498.44	571.27
498.80	582.08
499.17	593.16
499.53	604.60
499.89	616.38
500.26	628.44
500.62	640.77
500.98	653.78
501.34	666.97
501.71	680.70
502.07	694.62
502.43	709.08
502.79	723.80
503.16	738.99
503.52	754.36
503.88	770.19
504.24	786.51
504.60	803.02
504.97	820.05
505.33	837.50
505.69	855.89
506.05	874.65
506.41	893.38
506.78	912.27
507.14	931.66
507.50	951.50
507.86	971.70
508.22	992.15
508.59	1012.38
508.95	1033.44
509.31	1055.23
509.67	1077.82
510.03	1100.43
510.39	1123.05
510.75	1145.79
511.12	1168.83
511.48	1192.05
511.84	1215.25
512.20	1238.88
512.56	1263.46
512.92	1288.06
513.28	1312.18
513.64	1336.54
514.00	1361.38
514.37	1386.60
514.73	1411.70
515.09	1436.68
515.45	1461.95
515.81	1487.47
516.17	1512.99
516.53	1538.11
516.89	1563.06
517.25	1588.17
517.61	1613.09
517.97	1638.45
518.33	1663.35
518.69	1688.21
519.05	1713.47
519.41	1739.01
519.77	1764.83
520.13	1789.76
520.49	1814.64
520.85	1839.87
521.21	1864.77
521.57	1889.96
521.93	1914.52
522.29	1939.69
522.65	1964.24
523.01	1988.77
523.37	2012.83
523.73	2037.71
524.09	2062.15
524.45	2086.39
524.81	2110.25
525.17	2133.96
525.53	2157.05
525.89	2180.62
526.25	2204.21
526.61	2226.80
526.97	2249.50
527.33	2272.07
527.68	2294.45
528.04	2315.92
528.40	2336.46
528.76	2357.03
529.12	2377.12
529.48	2397.03
529.84	2414.92
530.20	2433.56
530.56	2451.53
530.91	2469.63
531.27	2487.36
531.63	2504.23
531.99	2520.61
532.35	2536.20
532.71	2552.00
533.07	2568.45
533.42	2583.01
533.78	2598.47
534.14	2614.31
534.50	2629.17
534.86	2643.75
535.21	2656.18
535.57	2669.22
535.93	2682.10
536.29	2693.87
536.65	2705.37
537.00	2715.98
537.36	2727.71
537.72	2738.08
538.08	2747.84
538.44	2756.83
538.79	2765.38
539.15	2773.23
539.51	2780.76
539.87	2787.69
540.22	2792.45
540.58	2797.35
540.94	2803.40
541.29	2807.96
541.65	2810.61
542.01	2812.49
542.37	2813.65
542.72	2816.34
543.08	2817.20
543.44	2818.61
543.79	2819.00
544.15	2818.56
544.51	2818.55
544.87	2817.39
545.22	2815.36
545.58	2812.64
545.94	2809.94
546.29	2805.98
546.65	2801.98
547.01	2797.82
547.36	2794.47
547.72	2791.43
548.07	2786.49
548.43	2780.16
548.79	2772.69
549.14	2766.50
549.50	2760.73
549.86	2753.97
550.21	2746.01
550.57	2739.07
550.92	2729.74
551.28	2720.86
551.64	2712.48
551.99	2703.76
552.35	2694.38
552.70	2685.26
553.06	2676.53
553.41	2667.22
553.77	2657.70
554.13	2648.11
554.48	2637.64
554.84	2625.82
555.19	2614.33
555.55	2603.03
555.90	2591.85
556.26	2581.32
556.61	2569.61
556.97	2556.19
557.32	2543.19
557.68	2530.32
558.03	2517.07
558.39	2505.24
558.74	2493.77
559.10	2480.47
559.45	2467.24
559.81	2454.65
560.16	2441.45
560.52	2428.62
560.87	2416.17
561.23	2402.92
561.58	2389.61
561.94	2376.07
562.29	2361.95
562.64	2348.63
563.00	2335.03
563.35	2321.71
563.71	2308.23
564.06	2294.74
564.42	2282.03
564.77	2268.87
565.12	2255.54
565.48	2242.17
565.83	2228.65
566.19	2215.32
566.54	2201.91
566.89	2187.42
567.25	2173.10
567.60	2160.25
567.96	2146.41
568.31	2131.13
568.66	2116.47
569.02	2103.11
569.37	2089.75
569.72	2076.93
570.08	2062.83
570.43	2048.28
570.78	2033.70
571.14	2018.39
571.49	2003.65
571.84	1989.51
572.20	1974.17
572.55	1958.96
572.90	1943.79
573.26	1928.73
573.61	1913.14
573.96	1897.98
574.31	1883.11
574.67	1868.33
575.02	1852.35
575.37	1836.52
575.72	1821.61
576.08	1807.00
576.43	1791.32
576.78	1776.03
577.13	1760.99
577.49	1746.31
577.84	1732.30
578.19	1717.34
578.54	1702.47
578.90	1687.15
579.25	1671.71
579.60	1657.89
579.95	1644.01
580.30	1629.92
580.66	1615.51
581.01	1601.07
581.36	1586.62
581.71	1573.13
582.06	1559.57
582.42	1546.24
582.77	1533.00
583.12	1519.75
583.47	1506.40
583.82	1493.14
584.17	1479.50
584.53	1465.59
584.88	1452.03
585.23	1438.12
585.58	1424.95
585.93	1411.98
586.28	1399.76
586.63	1387.48
586.98	1374.77
587.34	1362.12
587.69	1349.22
588.04	1336.64
588.39	1324.40
588.74	1312.32
589.09	1300.07
589.44	1287.37
589.79	1275.32
590.14	1263.36
590.49	1251.28
590.84	1239.37
591.19	1227.85
591.54	1216.14
591.89	1204.55
592.25	1193.21
592.60	1181.45
592.95	1170.13
593.30	1159.10
593.65	1147.77
594.00	1136.60
594.35	1125.98
594.70	1114.89
595.05	1104.66
595.40	1094.33
595.75	1083.84
596.10	1073.87
596.45	1063.70
596.80	1053.87
597.15	1043.75
597.50	1033.79
597.85	1024.27
598.19	1014.58
598.54	1004.91
598.89	995.78
599.24	986.92
599.59	977.83
599.94	969.64
600.29	961.29
600.64	952.66
600.99	943.70
601.34	935.04
601.69	926.05
602.04	917.77
602.39	909.29
602.74	900.91
603.08	892.47
603.43	884.01
603.78	875.70
604.13	867.51
604.48	859.39
604.83	851.41
605.18	843.39
605.53	835.55
605.87	827.56
606.22	819.79
606.57	812.00
606.92	804.14
607.27	796.24
607.62	788.59
607.96	781.33
608.31	774.52
608.66	767.52
609.01	760.80
609.36	754.16
609.70	747.39
610.05	740.55
610.40	734.00
610.75	727.42
611.10	721.21
611.44	714.82
611.79	708.55
612.14	702.20
612.49	695.90
612.83	689.91
613.18	684.03
613.53	678.11
613.88	672.18
614.22	666.63
614.57	661.05
614.92	655.34
615.27	649.72
615.61	644.16
615.96	638.68
616.31	633.19
616.65	627.75
617.00	622.49
617.35	617.38
617.70	612.27
618.04	607.26
618.39	602.14
618.74	597.26
619.08	592.41
619.43	587.71
619.78	583.01
620.12	578.28
620.47	573.69
620.82	569.21
621.16	564.81
621.51	560.31
621.85	555.83
622.20	551.50
622.55	547.24
622.89	543.05
623.24	538.86
623.59	534.69
623.93	530.69
624.28	526.80
624.62	522.99
624.97	519.23
625.32	515.42
625.66	511.57
626.01	507.71
626.35	503.91
626.70	500.13
627.04	496.57
627.39	492.91
627.73	489.44
628.08	486.05
628.43	482.65
628.77	479.31
629.12	476.10
629.46	472.94
629.81	469.67
630.15	466.38
630.50	463.20
630.84	460.09
631.19	457.02
631.53	454.04
631.88	451.02
632.22	448.03
632.57	445.32
632.91	442.64
633.26	440.05
633.60	437.49
633.95	434.98
634.29	432.39
634.64	429.86
634.98	427.17
635.32	424.59
635.67	422.21
636.01	419.78
636.36	417.36
636.70	415.07
637.05	412.80
637.39	410.58
637.73	408.36
638.08	406.26
638.42	404.16
638.77	401.91
639.11	399.62
639.45	397.41
639.80	395.14
640.14	392.98
640.49	390.81
640.83	388.61
641.17	386.51
641.52	384.46
641.86	382.43
642.20	380.60
642.55	378.63
642.89	376.67
643.23	374.81
643.58	373.11
643.92	371.29
644.26	369.53
644.61	367.81
644.95	366.07
645.29	364.25
645.64	362.45
645.98	360.75
646.32	359.17
646.66	357.57
647.01	356.00
647.35	354.47
647.69	352.93
648.04	351.51
648.38	350.01
648.72	348.53
649.06	347.07
649.41	345.60
649.75	344.19
650.09	342.82
650.43	341.43
650.78	340.01
651.12	338.63
651.46	337.30
651.80	336.00
652.14	334.72
652.49	333.49
652.83	332.23
653.17	331.02
653.51	329.84
653.85	328.71
654.20	327.55
654.54	326.31
654.88	325.16
655.22	324.04
655.56	322.92
655.90	321.85
656.25	320.82
656.59	319.78
656.93	318.80
657.27	317.82
657.61	316.80
657.95	315.83
658.29	314.84
658.64	313.91
658.98	312.97
659.32	312.06
659.66	311.20
660.00	310.38
660.34	309.54
660.68	308.68
661.02	307.80
661.36	306.95
661.70	306.14
662.05	305.36
662.39	304.58
662.73	303.87
663.07	303.17
663.41	302.42
663.75	301.67
664.09	300.93
664.43	300.15
664.77	299.46
665.11	298.72
665.45	298.04
665.79	297.38
666.13	296.69
666.47	295.98
666.81	295.26
667.15	294.51
667.49	293.87
667.83	293.28
668.17	292.66
668.51	292.08
668.85	291.54
669.19	291.03
669.53	290.41
669.87	289.79
670.21	289.19
670.55	288.65
670.89	288.17
671.23	287.65
671.57	287.14
671.91	286.68
672.25	286.24
672.58	285.81
672.92	285.28
673.26	284.84
673.60	284.40
673.94	283.98
674.28	283.60
674.62	283.17
674.96	282.70
675.30	282.29
675.64	281.85
675.97	281.38
676.31	280.90
676.65	280.46
676.99	280.11
677.33	279.67
677.67	279.26
678.01	278.78
678.34	278.38
678.68	278.01
679.02	277.57
679.36	277.15
679.70	276.72
680.04	276.35
680.37	275.96
680.71	275.60
681.05	275.24
681.39	274.85
681.73	274.44
682.06	274.05
682.40	273.67
682.74	273.35
683.08	273.07
683.42	272.73
683.75	272.42
684.09	272.03
684.43	271.71
684.77	271.38
685.10	271.09
685.44	270.77
685.78	270.45
686.12	270.16
686.45	269.84
686.79	269.51
687.13	269.21
687.46	268.88
687.80	268.57
688.14	268.21
688.48	267.91
688.81	267.61
689.15	267.34
689.49	267.03
689.82	266.70
690.16	266.32
690.50	266.02
690.83	265.72
691.17	265.41
691.51	265.11
691.84	264.82
692.18	264.51
692.52	264.18
692.85	263.88
693.19	263.62
693.52	263.32
693.86	263.03
694.20	262.74
694.53	262.47
694.87	262.17
695.21	261.88
695.54	261.60
695.88	261.30
696.21	260.98
696.55	260.71
696.88	260.42
697.22	260.15
697.56	259.88
697.89	259.56
698.23	259.29
698.56	258.99
698.90	258.71
699.23	258.42
699.57	258.14
699.90	257.85
700.24	257.54
700.58	257.29
700.91	257.06
701.25	256.91
701.58	256.70
701.92	256.48
702.25	256.24
702.59	255.98
702.92	255.73
703.26	255.48
703.59	255.21
703.93	255.06
704.26	254.81
704.60	254.56
704.93	254.31
705.26	254.05
705.60	253.84
705.93	253.57
706.27	253.37
706.60	253.17
706.94	252.98
707.27	252.72
707.61	252.46
707.94	252.20
708.27	251.83
708.61	251.53
708.94	251.26
709.28	251.03
709.61	250.79
709.94	250.57
710.28	250.36
710.61	250.16
710.95	249.84
711.28	249.70
711.61	249.48
711.95	249.30
712.28	249.07
712.61	248.84
712.95	248.70
713.28	248.54
713.61	248.30
713.95	248.04
714.28	247.85
714.61	247.64
714.95	247.44
715.28	247.23
715.61	247.05
715.95	246.87
716.28	246.68
716.61	246.52
716.95	246.31
717.28	246.11
717.61	245.91
717.94	245.73
718.28	245.45
718.61	245.25
718.94	245.04
719.27	244.86
719.61	244.70
719.94	244.48
720.27	244.22
720.60	244.04
720.94	243.86
721.27	243.69
721.60	243.54
721.93	243.37
722.27	243.24
722.60	243.08
722.93	242.90
723.26	242.73
723.59	242.53
723.93	242.37
724.26	242.21
724.59	242.04
724.92	241.89
725.25	241.78
725.59	241.63
725.92	241.50
726.25	241.36
726.58	241.20
726.91	241.04
727.24	240.91
727.57	240.77
727.91	240.60
728.24	240.48
728.57	240.32
728.90	240.20
729.23	240.01
729.56	239.92
729.89	239.77
730.22	239.62
730.55	239.48
730.89	239.35
731.22	239.20
731.55	239.07
731.88	238.93
732.21	238.77
732.54	238.63
732.87	238.50
733.20	238.37
733.53	238.25
733.86	238.14
734.19	237.99
734.52	237.89
734.85	237.86
735.18	237.71
735.51	237.63
735.84	237.51
736.17	237.43
736.50	237.25
736.83	237.28
737.16	237.18
737.49	237.08
737.82	236.96
738.15	236.87
738.48	236.76
738.81	236.64
739.14	236.53
739.47	236.41
739.80	236.29
740.13	236.19
740.46	236.06
740.79	235.94
741.12	235.83
741.45	235.70
741.78	235.52
742.11	235.45
742.44	235.31
742.77	235.22
743.10	235.10
743.43	234.99
743.75	234.75
744.08	234.85
744.41	234.75
744.74	234.65
745.07	234.52
745.40	234.45
745.73	234.41
746.06	234.33
746.39	234.25
746.71	234.16
747.04	234.06
747.37	233.97
747.70	233.91
748.03	233.83
748.36	233.77
748.68	233.68
749.01	233.56
749.34	233.48
749.67	233.40
750.00	233.33
750.33	233.35
750.65	233.28
750.98	233.01
751.31	232.93
751.64	232.86
751.97	232.85
752.29	232.76
752.62	232.62
752.95	232.54
753.28	232.44
753.60	232.36
753.93	232.32
754.26	232.25
754.59	232.13
754.91	232.04
755.24	231.95
755.57	231.94
755.90	231.86
756.22	231.78
756.55	231.68
756.88	231.58
757.20	231.43
757.53	231.32
757.86	231.25
758.19	231.18
758.51	231.11
758.84	230.98
759.17	230.89
759.49	230.84
759.82	230.83
760.15	230.79
760.47	230.72
760.80	230.62
761.13	230.58
761.45	230.52
761.78	230.47
762.11	230.41
762.43	230.29
762.76	230.23
763.08	230.19
763.41	230.15
763.74	230.10
764.06	230.05
764.39	230.00
764.71	229.95
765.04	229.88
765.37	229.82
765.69	229.78
766.02	229.73
766.34	229.66
766.67	229.57
767.00	229.54
767.32	229.56
767.65	229.59
767.97	229.53
768.30	229.50
768.62	229.45
768.95	229.39
769.27	229.34
769.60	229.31
769.92	229.25
770.25	229.18
770.57	229.12
770.90	229.07
771.22	229.02
771.55	228.98
771.87	228.94
772.20	228.91
772.52	228.98
772.85	229.09
773.17	229.06
773.50	229.01
773.82	228.95
774.15	228.85
774.47	228.74
774.80	228.69
775.12	228.65
775.45	228.61
775.77	228.59
776.09	228.57
776.42	228.54
776.74	228.55
777.07	228.52
777.39	228.50
777.72	228.46
778.04	228.45
778.36	228.41
778.69	228.38
779.01	228.36
779.33	228.22
779.66	228.05
779.98	228.01
780.31	227.99
780.63	228.02
780.95	228.02
781.28	227.99
781.60	227.96
781.92	227.93
782.25	227.91
782.57	227.88
782.89	227.84
783.22	227.81
783.54	227.75
783.86	227.74
784.19	227.71
784.51	227.72
784.83	227.68
785.16	227.66
785.48	227.63
785.80	227.61
786.12	227.60
786.45	227.57
786.77	227.56
787.09	227.53
787.42	227.46
787.74	227.44
788.06	227.43
788.38	227.41
788.71	227.38
789.03	227.37
789.35	227.36
789.67	227.33
789.99	227.32
790.32	227.29
790.64	227.28
790.96	227.39
791.28	227.32
791.61	227.30
791.93	227.29
792.25	227.26
792.57	227.34
792.89	227.30
793.21	227.29
793.54	227.26
793.86	227.23
794.18	227.22
794.50	227.17
794.82	227.15
795.14	227.16
795.47	227.16
795.79	227.14
796.11	227.10
796.43	227.08
796.75	227.06
797.07	227.05
797.39	227.03
797.71	226.90
798.04	226.89
798.36	226.88
798.68	226.87
799.00	226.86
799.32	226.78
799.64	226.79
799.96	226.77
800.28	226.78
800.60	226.76
800.92	226.76
801.24	226.74
801.56	226.73
801.89	226.71
802.21	226.70
802.53	226.66
802.85	226.68
803.17	226.72
803.49	226.69
803.81	226.66
804.13	226.64
804.45	226.61
804.77	226.61
805.09	226.60
805.41	226.57
805.73	226.53
806.05	226.49
806.37	226.46
806.69	226.44
807.01	226.41
807.33	226.41
807.65	226.36
807.97	226.40
808.28	226.37
808.60	226.36
808.92	226.33
809.24	226.40
809.56	226.37
809.88	226.31
810.20	226.31
810.52	226.32
810.84	226.30
811.16	226.27
811.48	226.25
811.80	226.29
812.12	226.27
812.43	226.29
812.75	226.29
813.07	226.27
813.39	226.27
813.71	226.25
814.03	226.23
814.35	226.23
814.67	226.16
814.98	226.14
815.30	226.13
815.62	226.11
815.94	226.01
816.26	226.02
816.58	225.99
816.89	225.99
817.21	225.95
817.53	225.95
817.85	225.96
818.17	225.94
818.48	225.88
818.80	225.90
819.12	225.87
819.44	225.85
819.76	225.82
820.07	225.81
820.39	225.80
820.71	225.81
821.03	225.80
821.34	225.79
821.66	225.80
821.98	225.81
822.30	225.80
822.61	225.87
822.93	225.84
823.25	225.84
823.57	225.82
823.88	225.83
824.20	225.82
824.52	225.83
824.83	225.83
825.15	225.81
825.47	225.79
825.79	225.80
826.10	225.79
826.42	225.78
826.74	225.78
827.05	225.78
827.37	225.77
827.69	225.76
828.00	225.76
828.32	225.75
828.64	225.73
828.95	225.79
829.27	225.75
829.58	225.75
829.90	225.76
830.22	225.77
830.53	225.74
830.85	225.72
831.17	225.68
831.48	225.68
831.80	225.68
832.11	225.67
832.43	225.64
832.75	225.64
833.06	225.71
833.38	225.67
833.69	225.66
834.01	225.66
834.32	225.66
834.64	225.64
834.96	225.63
835.27	225.63
835.59	225.58
835.90	225.55
836.22	225.54
836.53	225.51
836.85	225.50
837.16	225.62
837.48	225.62
837.79	225.66
838.11	225.66
838.42	225.66
838.74	225.67
839.05	225.66
839.37	225.65
839.68	225.57
840.00	225.56
840.31	225.58
840.63	225.56
840.94	225.55
841.26	225.53
841.57	225.52
841.88	225.53
842.20	225.51
842.51	225.49
842.83	225.49
843.14	225.60
843.46	225.60
843.77	225.52
844.08	225.51
844.40	225.47
844.71	225.45
845.03	225.44
845.34	225.42
845.65	225.42
845.97	225.42
846.28	225.43
846.60	225.43
846.91	225.41
847.22	225.40
847.54	225.43
847.85	225.43
848.16	225.42
848.48	225.40
848.79	225.44
849.10	225.46
849.42	225.47
849.73	225.34
850.04	225.34
850.36	225.29
850.67	225.31
850.98	225.31
851.30	225.32
851.61	225.32
851.92	225.32
852.23	225.36
852.55	225.36
852.86	225.36
853.17	225.37
853.49	225.39
853.80	225.42
854.11	225.42
854.42	225.43
854.74	225.42
855.05	225.42
855.36	225.36
855.67	225.36
855.99	225.36
856.30	225.51
856.61	225.50
856.92	225.50
857.23	225.50
857.55	225.49
857.86	225.48
858.17	225.50
858.48	225.47
858.79	225.44
859.11	225.45
859.42	225.44
859.73	225.42
860.04	225.41
860.35	225.37
860.66	225.33
860.98	225.32
861.29	225.34
861.60	225.33
861.91	225.36
862.22	225.33
862.53	225.31
862.84	225.16
863.16	225.19
863.47	225.16
863.78	225.14
864.09	225.15
864.40	225.16
864.71	225.15
865.02	225.17
865.33	225.16
865.64	225.13
865.95	225.13
866.27	225.21
866.58	225.20
866.89	225.22
867.20	225.21
867.51	225.19
867.82	225.18
868.13	225.22
868.44	225.19
868.75	225.21
869.06	225.22
869.37	225.23
869.68	225.20
869.99	225.22
870.30	225.23
870.61	225.24
870.92	225.22
871.23	225.20
871.54	225.22
871.85	225.25
872.16	225.26
872.47	225.25
872.78	225.18
873.09	225.19
873.40	225.17
873.71	225.18
874.02	225.19
874.33	225.18
874.64	225.15
874.95	225.17
875.26	225.14
875.56	225.14
875.87	225.13
876.18	225.13
876.49	225.25
876.80	225.24
877.11	225.21
877.42	225.22
877.73	225.22
878.04	225.20
878.35	225.19
878.66	225.19
878.96	225.19
879.27	225.19
879.58	225.18
879.89	225.17
880.20	225.21
880.51	225.20
880.82	225.20
881.12	225.21
881.43	225.18
881.74	225.17
882.05	225.17
882.36	225.17
882.67	225.18
882.97	225.04
883.28	225.03
883.59	225.03
883.90	225.04
884.21	225.06
884.51	225.05
884.82	225.03
885.13	225.03
885.44	225.03
885.74	225.03
886.05	225.02
886.36	225.02
886.67	224.98
886.98	225.04
887.28	225.05
887.59	225.05
887.90	225.05
888.20	225.05
888.51	225.07
888.82	225.05
889.13	225.06
889.43	225.17
889.74	225.17
890.05	225.17
890.35	225.15
890.66	225.13
890.97	225.12
891.28	225.11
891.58	225.11
891.89	225.11
892.20	225.09
892.50	225.08
892.81	225.07
893.12	225.07
893.42	225.00
893.73	225.00
894.04	225.00
894.34	225.01
894.65	225.01
894.95	225.00
895.26	225.00
895.57	225.05
895.87	224.93
896.18	224.95
896.48	224.95
896.79	224.95
897.10	224.97
897.40	224.98
897.71	224.99
898.01	224.98
898.32	224.99
898.63	224.99
898.93	225.00
899.24	225.00
899.54	225.00
899.85	224.99
900.15	224.98
900.46	224.98
900.76	224.98
901.07	224.98
901.38	224.97
901.68	224.99
901.99	224.92
902.29	224.93
902.60	224.92
902.90	224.90
903.21	224.90
903.51	224.89
903.82	224.92
904.12	224.91
904.43	224.92
904.73	224.91
905.03	224.92
905.34	225.04
905.64	225.03
905.95	225.03
906.25	225.03
906.56	225.03
906.86	225.03
907.17	225.01
907.47	225.02
907.77	225.01
908.08	224.98
908.38	224.99
908.69	225.00
908.99	225.02
909.30	225.03
909.60	225.02
909.90	225.02
910.21	224.99
910.51	224.97
910.81	224.97
911.12	224.97
911.42	224.97
911.73	224.84
912.03	224.85
912.33	224.88
912.64	224.87
912.94	224.86
913.24	224.84
913.55	224.83
913.85	224.82
914.15	224.85
914.46	224.86
914.76	224.85
915.06	224.84
915.37	224.82
915.67	224.81
915.97	224.81
916.27	224.79
916.58	224.80
916.88	224.80
917.18	224.79
917.49	224.87
917.79	224.87
918.09	224.88
918.39	224.91
918.70	224.90
919.00	224.91
919.30	224.97
919.60	224.97
919.91	224.96
920.21	224.96
920.51	224.93
920.81	224.92
921.12	224.95
921.42	224.94
921.72	224.95
922.02	224.96
922.32	224.98
922.63	224.99
922.93	225.05
923.23	225.06
923.53	225.05
923.83	224.96
924.13	224.98
924.44	224.98
924.74	224.99
925.04	225.02
925.34	225.01
925.64	224.96
925.94	224.96
926.24	225.03
926.55	225.02
926.85	225.04
927.15	225.04
927.45	225.03
927.75	225.03
928.05	225.03
928.35	225.02
928.65	225.04
928.95	225.05
929.26	224.99
929.56	225.01
929.86	225.03
930.16	225.02
930.46	225.01
930.76	225.01
931.06	224.95
931.36	224.92
931.66	224.94
931.96	224.96
932.26	224.96
932.56	224.91
932.86	224.92
933.16	224.92
933.46	224.90
933.76	224.88
934.06	224.91
934.36	224.95
934.66	224.95
934.96	224.93
935.26	224.93
935.56	224.95
935.86	224.92
936.16	224.90
936.46	224.89
936.76	224.88
937.06	224.86
937.36	224.87
937.66	224.88
937.96	224.87
938.26	224.84
938.56	224.83
938.86	224.84
939.16	224.86
939.46	224.87
939.76	224.88
940.06	224.88
940.35	224.86
940.65	224.79
940.95	224.81
941.25	224.77
941.55	224.76
941.85	224.75
942.15	224.78
942.45	224.81
942.75	224.81
943.04	224.82
943.34	224.84
943.64	224.83
943.94	224.81
944.24	224.81
944.54	224.82
944.84	224.82
945.13	224.80
945.43	224.78
945.73	224.77
946.03	224.76
946.33	224.75
946.62	224.74
946.92	224.74
947.22	224.74
947.52	224.75
947.82	224.77
948.11	224.75
948.41	224.72
948.71	224.69
949.01	224.70
949.31	224.69
949.60	224.67
949.90	224.69
950.20	224.69
950.50	224.69
950.79	224.67
951.09	224.69
951.39	224.69
951.69	224.68
951.98	224.70
952.28	224.71
952.58	224.71
952.87	224.71
953.17	224.73
953.47	224.71
953.76	224.71
954.06	224.68
954.36	224.67
954.66	224.67
954.95	224.70
955.25	224.71
955.55	224.72
955.84	224.70
956.14	224.71
956.44	224.72
956.73	224.70
957.03	224.71
957.32	224.71
957.62	224.70
957.92	224.73
958.21	224.72
958.51	224.86
958.81	224.88
959.10	224.89
959.40	224.92
959.69	224.93
959.99	224.95
960.29	224.95
960.58	224.95
960.88	224.99
961.17	224.98
961.47	224.99
961.76	224.97
962.06	225.00
962.36	224.98
962.65	224.99
962.95	225.00
963.24	224.99
963.54	224.99
963.83	225.00
964.13	224.99
964.42	224.98
964.72	224.87
965.01	224.87
965.31	224.86
965.60	224.83
965.90	224.90
966.19	224.87
966.49	224.88
966.78	224.88
967.08	224.86
967.37	224.86
967.67	224.84
967.96	224.86
968.26	224.86
968.55	224.87
968.85	224.87
969.14	224.87
969.43	224.87
969.73	224.85
970.02	224.85
970.32	224.84
970.61	224.82
970.91	224.78
971.20	224.76
971.49	224.75
971.79	224.77
972.08	224.68
972.38	224.69
972.67	224.68
972.96	224.70
973.26	224.67
973.55	224.71
973.85	224.71
974.14	224.69
974.43	224.70
974.73	224.67
975.02	224.66
975.31	224.65
975.61	224.65
975.90	224.64
976.19	224.64
976.49	224.65
976.78	224.66
977.07	224.66
977.37	224.67
977.66	224.68
977.95	224.66
978.24	224.68
978.54	224.70
978.83	224.69
979.12	224.68
979.42	224.68
979.71	224.65
980.00	224.65
980.29	224.66
980.59	224.64
980.88	224.67
981.17	224.67
981.46	224.67
981.76	224.67
982.05	224.71
982.34	224.72
982.63	224.72
982.93	224.72
983.22	224.75
983.51	224.75
983.80	224.77
984.09	224.79
984.39	224.78
984.68	224.76
984.97	224.77
985.26	224.76
985.55	224.77
985.85	224.75
986.14	224.76
986.43	224.78
986.72	224.77
987.01	224.73
987.30	224.73
987.59	224.73
987.89	224.73
988.18	224.69
988.47	224.68
988.76	224.67
989.05	224.66
989.34	224.64
989.63	224.67
989.92	224.65
990.22	224.63
990.51	224.63
990.80	224.62
991.09	224.63
991.38	224.65
991.67	224.64
991.96	224.63
992.25	224.63
992.54	224.60
992.83	224.61
993.12	224.60
993.41	224.63
993.70	224.68
993.99	224.70
994.28	224.72
994.58	224.74
994.87	224.73
995.16	224.73
995.45	224.72
995.74	224.67
996.03	224.69
996.32	224.71
996.61	224.74
996.90	224.74
997.19	224.73
997.48	224.73
997.77	224.72
998.06	224.73
998.34	224.72
998.63	224.72
998.92	224.73
999.21	224.75
999.50	224.75
999.79	224.70
1000.08	224.70
1000.37	224.70
1000.66	224.68
1000.95	224.71
1001.24	224.72
1001.53	224.74
1001.82	224.74
1002.11	224.71
1002.40	224.72
1002.68	224.74
1002.97	224.83
1003.26	224.81
1003.55	224.79
1003.84	224.80
1004.13	224.84
1004.42	224.84
1004.71	224.84
1004.99	224.83
1005.28	224.85
1005.57	224.84
1005.86	224.83
1006.15	224.82
1006.44	224.79
1006.72	224.81
1007.01	224.79
1007.30	224.78
1007.59	224.77
1007.88	224.77
1008.17	224.78
1008.45	224.75
1008.74	224.70
1009.03	224.64
1009.32	224.64
1009.60	224.64
1009.89	224.63
1010.18	224.57
1010.47	224.57
1010.76	224.57
1011.04	224.57
1011.33	224.56
1011.62	224.57
1011.91	224.59
1012.19	224.59
1012.48	224.60
1012.77	224.59
1013.05	224.64
1013.34	224.64
1013.63	224.63
1013.92	224.64
1014.20	224.63
1014.49	224.64
1014.78	224.65
1015.06	224.61
1015.35	224.61
1015.64	224.63
1015.92	224.65
1016.21	224.66
1016.50	224.66
1016.78	224.67
1017.07	224.68
1017.36	224.66
1017.64	224.64
1017.93	224.65
1018.22	224.64
1018.50	224.64
1018.79	224.64
1019.08	224.59
1019.36	224.60
1019.65	224.58
1019.93	224.62
1020.22	224.64
1020.51	224.70
1020.79	224.69
1021.08	224.45
1021.36	224.41
1021.65	224.64
1021.94	224.57
1022.22	224.69
1022.51	224.36
1022.79	225.21
1023.08	224.83
1023.36	226.12
1023.65	224.34
>>>>>End Processed Spectral Data<<<<<
