SpectraSuite Data File
++++++++++++++++++++++++++++++++++++
Date: Sat Oct 03 03:52:24 EDT 2015
User: lab3
Dark Spectrum Present: No
Reference Spectrum Present: No
Number of Sampled Component Spectra: 1
Spectrometers: USB2E7196
Integration Time (usec): 46000 (USB2E7196)
Spectra Averaged: 12000 (USB2E7196)
Boxcar Smoothing: 10 (USB2E7196)
Correct for Electrical Dark: No (USB2E7196)
Strobe/Lamp Enabled: No (USB2E7196)
Correct for Detector Non-linearity: No (USB2E7196)
Correct for Stray Light: No (USB2E7196)
Number of Pixels in Processed Spectrum: 2048
>>>>>Begin Processed Spectral Data<<<<<
339.09	0.00
339.48	213.64
339.86	215.12
340.24	216.50
340.63	217.88
341.01	221.25
341.39	220.65
341.78	221.99
342.16	223.21
342.54	223.62
342.93	212.11
343.31	222.82
343.69	223.36
344.07	223.82
344.46	224.25
344.84	224.65
345.22	224.87
345.60	225.13
345.99	225.32
346.37	225.46
346.75	225.57
347.13	225.65
347.52	225.72
347.90	225.81
348.28	225.85
348.66	225.91
349.05	225.90
349.43	225.96
349.81	226.02
350.19	226.07
350.57	226.14
350.96	226.22
351.34	226.32
351.72	226.41
352.10	226.52
352.48	226.59
352.87	226.64
353.25	226.70
353.63	226.76
354.01	226.82
354.39	226.90
354.77	226.97
355.15	227.08
355.54	227.12
355.92	227.15
356.30	227.22
356.68	227.37
357.06	227.45
357.44	227.49
357.82	227.55
358.20	227.67
358.58	227.73
358.97	227.79
359.35	227.88
359.73	227.96
360.11	228.01
360.49	228.07
360.87	228.12
361.25	228.19
361.63	228.28
362.01	228.33
362.39	228.36
362.77	228.41
363.15	228.43
363.53	228.47
363.91	228.51
364.29	228.53
364.67	228.44
365.05	228.46
365.43	228.50
365.81	228.53
366.19	228.55
366.57	228.60
366.95	228.61
367.33	228.57
367.71	228.56
368.09	228.59
368.47	228.58
368.85	228.57
369.23	228.58
369.61	228.52
369.99	228.54
370.37	228.54
370.75	228.61
371.13	228.58
371.51	228.54
371.89	228.52
372.27	228.49
372.65	228.47
373.03	228.43
373.41	228.38
373.78	228.33
374.16	228.23
374.54	228.15
374.92	228.10
375.30	228.06
375.68	228.00
376.06	227.95
376.44	227.89
376.82	227.85
377.19	227.80
377.57	227.75
377.95	227.66
378.33	227.60
378.71	227.44
379.09	227.39
379.47	227.36
379.84	227.30
380.22	227.23
380.60	227.16
380.98	227.11
381.36	227.07
381.73	227.00
382.11	226.98
382.49	226.94
382.87	226.88
383.25	226.83
383.62	226.94
384.00	226.87
384.38	226.83
384.76	226.82
385.13	226.82
385.51	226.78
385.89	226.73
386.27	226.70
386.64	226.68
387.02	226.64
387.40	226.59
387.78	226.57
388.15	226.55
388.53	226.52
388.91	226.49
389.29	226.45
389.66	226.46
390.04	226.41
390.42	226.41
390.79	226.40
391.17	226.38
391.55	226.23
391.92	226.21
392.30	226.22
392.68	226.18
393.05	226.15
393.43	226.15
393.81	226.16
394.18	226.14
394.56	226.14
394.94	226.17
395.31	226.17
395.69	226.22
396.06	226.25
396.44	226.27
396.82	226.28
397.19	226.37
397.57	226.38
397.95	226.43
398.32	226.42
398.70	226.47
399.07	226.54
399.45	226.57
399.82	226.62
400.20	226.65
400.58	226.72
400.95	226.73
401.33	226.82
401.70	226.97
402.08	227.08
402.45	227.16
402.83	227.28
403.20	227.39
403.58	227.49
403.95	227.63
404.33	227.78
404.71	227.92
405.08	228.13
405.46	228.30
405.83	228.48
406.21	228.68
406.58	228.90
406.96	229.11
407.33	229.36
407.70	229.65
408.08	230.03
408.45	230.36
408.83	230.73
409.20	231.05
409.58	231.35
409.95	231.75
410.33	232.20
410.70	232.61
411.08	233.10
411.45	233.62
411.82	234.14
412.20	234.74
412.57	235.45
412.95	236.00
413.32	236.74
413.69	237.49
414.07	238.28
414.44	239.15
414.82	240.03
415.19	241.06
415.56	242.11
415.94	243.19
416.31	244.41
416.68	245.63
417.06	247.04
417.43	248.36
417.81	249.89
418.18	251.44
418.55	253.13
418.93	254.89
419.30	256.72
419.67	258.67
420.04	260.68
420.42	262.76
420.79	265.19
421.16	267.62
421.54	270.10
421.91	272.69
422.28	275.37
422.66	278.27
423.03	281.03
423.40	283.93
423.77	287.03
424.15	290.21
424.52	293.53
424.89	297.12
425.26	300.68
425.64	304.00
426.01	307.73
426.38	311.54
426.75	315.47
427.13	319.49
427.50	323.71
427.87	328.10
428.24	332.53
428.61	336.77
428.99	341.37
429.36	346.41
429.73	351.24
430.10	356.08
430.47	361.02
430.85	366.09
431.22	371.55
431.59	377.16
431.96	382.64
432.33	388.72
432.70	394.51
433.08	401.34
433.45	407.80
433.82	414.17
434.19	421.28
434.56	428.30
434.93	435.07
435.30	441.77
435.68	449.34
436.05	456.75
436.42	464.14
436.79	470.88
437.16	478.15
437.53	485.93
437.90	493.72
438.27	501.35
438.64	509.59
439.01	517.04
439.38	523.87
439.75	530.44
440.13	537.84
440.50	544.89
440.87	550.47
441.24	556.58
441.61	563.26
441.98	568.11
442.35	573.86
442.72	579.73
443.09	585.31
443.46	588.82
443.83	591.38
444.20	593.50
444.57	596.68
444.94	598.46
445.31	600.30
445.68	601.84
446.05	602.94
446.42	602.47
446.79	601.82
447.16	601.22
447.53	600.65
447.90	598.17
448.27	595.77
448.64	592.21
449.01	589.70
449.37	584.82
449.74	580.39
450.11	574.72
450.48	568.53
450.85	562.34
451.22	557.05
451.59	551.88
451.96	547.21
452.33	540.45
452.70	534.47
453.07	527.17
453.43	519.89
453.80	512.83
454.17	506.07
454.54	499.87
454.91	492.85
455.28	486.30
455.65	480.12
456.02	473.62
456.38	468.37
456.75	461.63
457.12	456.19
457.49	450.72
457.86	445.57
458.23	441.08
458.59	436.09
458.96	430.97
459.33	426.48
459.70	421.90
460.07	418.43
460.43	414.35
460.80	410.54
461.17	407.24
461.54	403.65
461.91	400.31
462.27	396.90
462.64	394.16
463.01	390.99
463.38	387.80
463.74	384.92
464.11	382.38
464.48	380.11
464.85	377.62
465.21	375.75
465.58	373.66
465.95	371.23
466.32	369.32
466.68	367.43
467.05	365.54
467.42	363.70
467.78	361.70
468.15	359.85
468.52	358.52
468.88	356.70
469.25	355.05
469.62	353.74
469.98	352.31
470.35	351.04
470.72	349.88
471.08	348.70
471.45	347.71
471.82	346.61
472.18	345.43
472.55	344.68
472.92	343.72
473.28	342.97
473.65	342.16
474.02	341.39
474.38	340.75
474.75	340.37
475.11	339.83
475.48	339.58
475.85	339.30
476.21	339.15
476.58	339.05
476.94	339.16
477.31	339.21
477.67	339.29
478.04	339.47
478.41	339.75
478.77	340.16
479.14	340.41
479.50	340.91
479.87	341.56
480.23	342.21
480.60	342.85
480.96	343.49
481.33	344.47
481.69	345.43
482.06	346.39
482.42	347.27
482.79	348.36
483.15	349.62
483.52	351.07
483.88	352.46
484.25	353.94
484.61	355.49
484.98	357.17
485.34	359.05
485.71	361.02
486.07	363.12
486.44	365.22
486.80	367.58
487.17	370.01
487.53	372.68
487.90	375.47
488.26	378.51
488.62	381.72
488.99	384.93
489.35	388.30
489.72	391.96
490.08	395.82
490.44	399.80
490.81	403.94
491.17	408.19
491.54	412.76
491.90	417.47
492.26	422.51
492.63	427.79
492.99	433.30
493.36	439.00
493.72	445.01
494.08	451.16
494.45	457.69
494.81	464.48
495.17	471.44
495.54	478.80
495.90	486.46
496.26	494.30
496.63	502.38
496.99	510.77
497.35	519.55
497.72	528.63
498.08	537.90
498.44	547.50
498.80	557.67
499.17	568.09
499.53	578.84
499.89	589.96
500.26	601.32
500.62	612.96
500.98	625.24
501.34	637.68
501.71	650.66
502.07	663.82
502.43	677.51
502.79	691.43
503.16	705.82
503.52	720.40
503.88	735.39
504.24	750.85
504.60	766.52
504.97	782.68
505.33	799.25
505.69	816.74
506.05	834.56
506.41	852.32
506.78	870.27
507.14	888.71
507.50	907.62
507.86	926.86
508.22	946.35
508.59	965.68
508.95	985.79
509.31	1006.63
509.67	1028.18
510.03	1049.76
510.39	1071.37
510.75	1093.17
511.12	1115.27
511.48	1137.56
511.84	1159.90
512.20	1182.61
512.56	1206.20
512.92	1229.81
513.28	1253.06
513.64	1276.56
514.00	1300.52
514.37	1324.80
514.73	1349.07
515.09	1373.21
515.45	1397.66
515.81	1422.32
516.17	1447.11
516.53	1471.47
516.89	1495.71
517.25	1520.10
517.61	1544.38
517.97	1569.15
518.33	1593.44
518.69	1617.63
519.05	1642.26
519.41	1667.18
519.77	1692.41
520.13	1716.86
520.49	1741.24
520.85	1765.92
521.21	1790.25
521.57	1814.90
521.93	1839.07
522.29	1863.78
522.65	1887.93
523.01	1912.08
523.37	1935.83
523.73	1960.26
524.09	1984.43
524.45	2008.41
524.81	2032.03
525.17	2055.51
525.53	2078.40
525.89	2101.74
526.25	2125.05
526.61	2147.40
526.97	2169.91
527.33	2192.24
527.68	2214.38
528.04	2235.73
528.40	2256.21
528.76	2276.80
529.12	2297.01
529.48	2316.96
529.84	2335.05
530.20	2353.77
530.56	2371.88
530.91	2390.12
531.27	2408.06
531.63	2425.10
531.99	2441.65
532.35	2457.58
532.71	2473.68
533.07	2490.44
533.42	2505.38
533.78	2521.29
534.14	2537.39
534.50	2552.60
534.86	2567.59
535.21	2580.67
535.57	2594.22
535.93	2607.52
536.29	2619.78
536.65	2631.78
537.00	2643.04
537.36	2655.27
537.72	2666.12
538.08	2676.46
538.44	2686.12
538.79	2695.37
539.15	2703.85
539.51	2712.07
539.87	2719.62
540.22	2725.07
540.58	2730.56
540.94	2737.24
541.29	2742.44
541.65	2745.93
542.01	2748.55
542.37	2750.53
542.72	2753.82
543.08	2755.45
543.44	2757.70
543.79	2758.84
544.15	2759.17
544.51	2759.91
544.87	2759.50
545.22	2758.41
545.58	2756.63
545.94	2754.84
546.29	2751.74
546.65	2748.63
547.01	2745.32
547.36	2742.73
547.72	2740.45
548.07	2736.38
548.43	2730.92
548.79	2724.39
549.14	2719.10
549.50	2714.21
549.86	2708.37
550.21	2701.39
550.57	2695.35
550.92	2687.03
551.28	2679.23
551.64	2671.81
551.99	2663.89
552.35	2655.37
552.70	2647.05
553.06	2639.09
553.41	2630.52
553.77	2621.70
554.13	2612.83
554.48	2603.21
554.84	2592.27
555.19	2581.74
555.55	2571.29
555.90	2560.89
556.26	2551.05
556.61	2540.17
556.97	2527.64
557.32	2515.61
557.68	2503.55
558.03	2491.17
558.39	2479.99
558.74	2469.16
559.10	2456.53
559.45	2444.12
559.81	2432.36
560.16	2419.98
560.52	2407.82
560.87	2396.00
561.23	2383.40
561.58	2370.83
561.94	2357.95
562.29	2344.57
562.64	2331.88
563.00	2318.86
563.35	2306.24
563.71	2293.48
564.06	2280.59
564.42	2268.41
564.77	2255.63
565.12	2242.72
565.48	2229.84
565.83	2216.88
566.19	2204.06
566.54	2191.24
566.89	2177.28
567.25	2163.42
567.60	2150.93
567.96	2137.52
568.31	2122.79
568.66	2108.72
569.02	2095.90
569.37	2082.97
569.72	2070.53
570.08	2056.83
570.43	2042.82
570.78	2028.66
571.14	2013.75
571.49	1999.46
571.84	1985.70
572.20	1970.77
572.55	1956.04
572.90	1941.29
573.26	1926.52
573.61	1911.27
573.96	1896.45
574.31	1881.83
574.67	1867.34
575.02	1851.76
575.37	1836.28
575.72	1821.61
576.08	1807.32
576.43	1791.86
576.78	1776.80
577.13	1762.02
577.49	1747.60
577.84	1733.80
578.19	1719.04
578.54	1704.46
578.90	1689.41
579.25	1674.25
579.60	1660.62
579.95	1646.96
580.30	1633.08
580.66	1618.97
581.01	1604.72
581.36	1590.40
581.71	1577.14
582.06	1563.79
582.42	1550.64
582.77	1537.58
583.12	1524.49
583.47	1511.22
583.82	1498.09
584.17	1484.65
584.53	1470.87
584.88	1457.46
585.23	1443.59
585.58	1430.52
585.93	1417.66
586.28	1405.58
586.63	1393.46
586.98	1380.94
587.34	1368.44
587.69	1355.61
588.04	1343.12
588.39	1331.02
588.74	1319.12
589.09	1306.98
589.44	1294.37
589.79	1282.41
590.14	1270.57
590.49	1258.64
590.84	1246.90
591.19	1235.52
591.54	1223.94
591.89	1212.51
592.25	1201.26
592.60	1189.64
592.95	1178.46
593.30	1167.50
593.65	1156.19
594.00	1145.05
594.35	1134.43
594.70	1123.37
595.05	1113.22
595.40	1102.98
595.75	1092.60
596.10	1082.71
596.45	1072.57
596.80	1062.81
597.15	1052.73
597.50	1042.81
597.85	1033.35
598.19	1023.68
598.54	1014.05
598.89	1004.90
599.24	996.07
599.59	987.02
599.94	978.93
600.29	970.61
600.64	962.03
600.99	953.08
601.34	944.47
601.69	935.55
602.04	927.30
602.39	918.89
602.74	910.52
603.08	902.10
603.43	893.64
603.78	885.37
604.13	877.25
604.48	869.17
604.83	861.24
605.18	853.19
605.53	845.33
605.87	837.30
606.22	829.56
606.57	821.76
606.92	813.90
607.27	805.96
607.62	798.30
607.96	791.07
608.31	784.30
608.66	777.30
609.01	770.58
609.36	763.95
609.70	757.14
610.05	750.28
610.40	743.71
610.75	737.12
611.10	730.88
611.44	724.44
611.79	718.13
612.14	711.75
612.49	705.45
612.83	699.46
613.18	693.58
613.53	687.61
613.88	681.66
614.22	676.12
614.57	670.53
614.92	664.81
615.27	659.19
615.61	653.60
615.96	648.09
616.31	642.58
616.65	637.13
617.00	631.87
617.35	626.75
617.70	621.65
618.04	616.62
618.39	611.51
618.74	606.66
619.08	601.84
619.43	597.15
619.78	592.46
620.12	587.73
620.47	583.17
620.82	578.74
621.16	574.34
621.51	569.81
621.85	565.32
622.20	560.98
622.55	556.68
622.89	552.47
623.24	548.26
623.59	544.09
623.93	540.08
624.28	536.16
624.62	532.33
624.97	528.55
625.32	524.73
625.66	520.85
626.01	516.95
626.35	513.13
626.70	509.35
627.04	505.75
627.39	502.09
627.73	498.60
628.08	495.18
628.43	491.76
628.77	488.43
629.12	485.22
629.46	482.04
629.81	478.76
630.15	475.47
630.50	472.28
630.84	469.15
631.19	466.09
631.53	463.13
631.88	460.14
632.22	457.16
632.57	454.48
632.91	451.84
633.26	449.28
633.60	446.72
633.95	444.23
634.29	441.67
634.64	439.17
634.98	436.49
635.32	433.95
635.67	431.60
636.01	429.19
636.36	426.81
636.70	424.56
637.05	422.33
637.39	420.13
637.73	417.96
638.08	415.90
638.42	413.81
638.77	411.58
639.11	409.29
639.45	407.10
639.80	404.84
640.14	402.70
640.49	400.54
640.83	398.36
641.17	396.26
641.52	394.22
641.86	392.20
642.20	390.38
642.55	388.41
642.89	386.46
643.23	384.60
643.58	382.91
643.92	381.09
644.26	379.34
644.61	377.64
644.95	375.90
645.29	374.08
645.64	372.29
645.98	370.60
646.32	369.03
646.66	367.44
647.01	365.87
647.35	364.33
647.69	362.78
648.04	361.38
648.38	359.89
648.72	358.43
649.06	356.97
649.41	355.51
649.75	354.12
650.09	352.74
650.43	351.35
650.78	349.92
651.12	348.54
651.46	347.20
651.80	345.89
652.14	344.61
652.49	343.39
652.83	342.13
653.17	340.93
653.51	339.74
653.85	338.63
654.20	337.47
654.54	336.23
654.88	335.09
655.22	333.96
655.56	332.81
655.90	331.73
656.25	330.70
656.59	329.64
656.93	328.64
657.27	327.65
657.61	326.62
657.95	325.63
658.29	324.63
658.64	323.69
658.98	322.73
659.32	321.80
659.66	320.92
660.00	320.06
660.34	319.20
660.68	318.30
661.02	317.38
661.36	316.50
661.70	315.66
662.05	314.83
662.39	314.01
662.73	313.28
663.07	312.55
663.41	311.77
663.75	310.99
664.09	310.22
664.43	309.41
664.77	308.68
665.11	307.92
665.45	307.21
665.79	306.52
666.13	305.79
666.47	305.05
666.81	304.29
667.15	303.51
667.49	302.84
667.83	302.22
668.17	301.57
668.51	300.97
668.85	300.39
669.19	299.85
669.53	299.22
669.87	298.56
670.21	297.93
670.55	297.34
670.89	296.82
671.23	296.26
671.57	295.71
671.91	295.20
672.25	294.73
672.58	294.24
672.92	293.68
673.26	293.20
673.60	292.73
673.94	292.27
674.28	291.84
674.62	291.37
674.96	290.85
675.30	290.39
675.64	289.90
675.97	289.39
676.31	288.86
676.65	288.37
676.99	287.96
677.33	287.47
677.67	287.02
678.01	286.50
678.34	286.05
678.68	285.64
679.02	285.16
679.36	284.69
679.70	284.22
680.04	283.80
680.37	283.36
680.71	282.94
681.05	282.54
681.39	282.10
681.73	281.64
682.06	281.20
682.40	280.77
682.74	280.40
683.08	280.08
683.42	279.69
683.75	279.33
684.09	278.90
684.43	278.53
684.77	278.14
685.10	277.81
685.44	277.44
685.78	277.08
686.12	276.74
686.45	276.36
686.79	275.98
687.13	275.63
687.46	275.25
687.80	274.89
688.14	274.48
688.48	274.14
688.81	273.78
689.15	273.46
689.49	273.10
689.82	272.72
690.16	272.29
690.50	271.94
690.83	271.58
691.17	271.22
691.51	270.87
691.84	270.54
692.18	270.17
692.52	269.79
692.85	269.43
693.19	269.12
693.52	268.77
693.86	268.43
694.20	268.09
694.53	267.77
694.87	267.41
695.21	267.07
695.54	266.73
695.88	266.39
696.21	266.03
696.55	265.70
696.88	265.37
697.22	265.05
697.56	264.72
697.89	264.36
698.23	264.04
698.56	263.69
698.90	263.37
699.23	263.02
699.57	262.70
699.90	262.37
700.24	262.01
700.58	261.72
700.91	261.45
701.25	261.25
701.58	261.00
701.92	260.75
702.25	260.46
702.59	260.16
702.92	259.87
703.26	259.57
703.59	259.26
703.93	259.06
704.26	258.78
704.60	258.48
704.93	258.19
705.26	257.89
705.60	257.64
705.93	257.33
706.27	257.09
706.60	256.85
706.94	256.62
707.27	256.31
707.61	256.02
707.94	255.71
708.27	255.30
708.61	254.97
708.94	254.67
709.28	254.40
709.61	254.12
709.94	253.87
710.28	253.63
710.61	253.40
710.95	253.05
711.28	252.88
711.61	252.63
711.95	252.42
712.28	252.17
712.61	251.90
712.95	251.73
713.28	251.56
713.61	251.29
713.95	251.00
714.28	250.78
714.61	250.54
714.95	250.31
715.28	250.09
715.61	249.87
715.95	249.67
716.28	249.45
716.61	249.28
716.95	249.04
717.28	248.83
717.61	248.60
717.94	248.39
718.28	248.09
718.61	247.87
718.94	247.64
719.27	247.44
719.61	247.26
719.94	247.02
720.27	246.73
720.60	246.53
720.94	246.34
721.27	246.15
721.60	245.98
721.93	245.78
722.27	245.63
722.60	245.46
722.93	245.25
723.26	245.06
723.59	244.83
723.93	244.66
724.26	244.49
724.59	244.30
724.92	244.13
725.25	244.00
725.59	243.84
725.92	243.69
726.25	243.53
726.58	243.36
726.91	243.18
727.24	243.04
727.57	242.88
727.91	242.70
728.24	242.56
728.57	242.39
728.90	242.24
729.23	242.04
729.56	241.93
729.89	241.78
730.22	241.61
730.55	241.46
730.89	241.31
731.22	241.15
731.55	241.00
731.88	240.85
732.21	240.67
732.54	240.51
732.87	240.36
733.20	240.23
733.53	240.09
733.86	239.96
734.19	239.80
734.52	239.68
734.85	239.64
735.18	239.47
735.51	239.38
735.84	239.25
736.17	239.16
736.50	238.96
736.83	238.98
737.16	238.86
737.49	238.75
737.82	238.61
738.15	238.51
738.48	238.40
738.81	238.27
739.14	238.14
739.47	238.01
739.80	237.89
740.13	237.77
740.46	237.63
740.79	237.50
741.12	237.38
741.45	237.24
741.78	237.05
742.11	236.97
742.44	236.83
742.77	236.73
743.10	236.59
743.43	236.48
743.75	236.24
744.08	236.33
744.41	236.21
744.74	236.10
745.07	235.96
745.40	235.88
745.73	235.83
746.06	235.74
746.39	235.66
746.71	235.55
747.04	235.45
747.37	235.35
747.70	235.28
748.03	235.19
748.36	235.12
748.68	235.03
749.01	234.90
749.34	234.81
749.67	234.72
750.00	234.65
750.33	234.66
750.65	234.58
750.98	234.30
751.31	234.22
751.64	234.14
751.97	234.12
752.29	234.03
752.62	233.88
752.95	233.79
753.28	233.68
753.60	233.60
753.93	233.54
754.26	233.47
754.59	233.35
754.91	233.25
755.24	233.16
755.57	233.13
755.90	233.05
756.22	232.96
756.55	232.86
756.88	232.75
757.20	232.59
757.53	232.47
757.86	232.39
758.19	232.32
758.51	232.25
758.84	232.11
759.17	232.02
759.49	231.96
759.82	231.94
760.15	231.89
760.47	231.82
760.80	231.71
761.13	231.66
761.45	231.60
761.78	231.54
762.11	231.48
762.43	231.35
762.76	231.29
763.08	231.24
763.41	231.19
763.74	231.13
764.06	231.07
764.39	231.02
764.71	230.96
765.04	230.89
765.37	230.83
765.69	230.78
766.02	230.72
766.34	230.66
766.67	230.56
767.00	230.53
767.32	230.55
767.65	230.57
767.97	230.51
768.30	230.47
768.62	230.41
768.95	230.35
769.27	230.30
769.60	230.27
769.92	230.20
770.25	230.13
770.57	230.06
770.90	230.02
771.22	229.96
771.55	229.92
771.87	229.88
772.20	229.83
772.52	229.90
772.85	230.01
773.17	229.98
773.50	229.93
773.82	229.87
774.15	229.77
774.47	229.65
774.80	229.59
775.12	229.55
775.45	229.52
775.77	229.49
776.09	229.46
776.42	229.43
776.74	229.44
777.07	229.40
777.39	229.37
777.72	229.33
778.04	229.32
778.36	229.28
778.69	229.24
779.01	229.22
779.33	229.08
779.66	228.90
779.98	228.87
780.31	228.84
780.63	228.87
780.95	228.86
781.28	228.83
781.60	228.80
781.92	228.77
782.25	228.74
782.57	228.71
782.89	228.67
783.22	228.63
783.54	228.58
783.86	228.57
784.19	228.54
784.51	228.56
784.83	228.51
785.16	228.49
785.48	228.47
785.80	228.44
786.12	228.43
786.45	228.40
786.77	228.39
787.09	228.36
787.42	228.29
787.74	228.26
788.06	228.25
788.38	228.23
788.71	228.20
789.03	228.18
789.35	228.18
789.67	228.15
789.99	228.14
790.32	228.10
790.64	228.09
790.96	228.19
791.28	228.13
791.61	228.10
791.93	228.09
792.25	228.06
792.57	228.13
792.89	228.09
793.21	228.08
793.54	228.05
793.86	228.02
794.18	228.01
794.50	227.96
794.82	227.95
795.14	227.94
795.47	227.94
795.79	227.93
796.11	227.88
796.43	227.86
796.75	227.84
797.07	227.84
797.39	227.81
797.71	227.69
798.04	227.68
798.36	227.67
798.68	227.66
799.00	227.65
799.32	227.57
799.64	227.58
799.96	227.56
800.28	227.57
800.60	227.55
800.92	227.55
801.24	227.53
801.56	227.52
801.89	227.50
802.21	227.49
802.53	227.45
802.85	227.47
803.17	227.51
803.49	227.47
803.81	227.45
804.13	227.43
804.45	227.40
804.77	227.40
805.09	227.38
805.41	227.36
805.73	227.32
806.05	227.28
806.37	227.25
806.69	227.23
807.01	227.20
807.33	227.19
807.65	227.14
807.97	227.18
808.28	227.15
808.60	227.14
808.92	227.11
809.24	227.18
809.56	227.15
809.88	227.09
810.20	227.08
810.52	227.10
810.84	227.07
811.16	227.05
811.48	227.02
811.80	227.06
812.12	227.05
812.43	227.06
812.75	227.06
813.07	227.04
813.39	227.03
813.71	227.01
814.03	226.99
814.35	226.99
814.67	226.92
814.98	226.90
815.30	226.89
815.62	226.86
815.94	226.76
816.26	226.77
816.58	226.74
816.89	226.73
817.21	226.70
817.53	226.70
817.85	226.69
818.17	226.68
818.48	226.62
818.80	226.64
819.12	226.61
819.44	226.58
819.76	226.55
820.07	226.54
820.39	226.53
820.71	226.54
821.03	226.53
821.34	226.51
821.66	226.52
821.98	226.53
822.30	226.52
822.61	226.59
822.93	226.56
823.25	226.55
823.57	226.53
823.88	226.54
824.20	226.53
824.52	226.54
824.83	226.53
825.15	226.52
825.47	226.50
825.79	226.50
826.10	226.49
826.42	226.48
826.74	226.49
827.05	226.47
827.37	226.47
827.69	226.46
828.00	226.46
828.32	226.45
828.64	226.42
828.95	226.49
829.27	226.44
829.58	226.44
829.90	226.46
830.22	226.46
830.53	226.44
830.85	226.42
831.17	226.38
831.48	226.38
831.80	226.37
832.11	226.36
832.43	226.34
832.75	226.34
833.06	226.41
833.38	226.37
833.69	226.36
834.01	226.36
834.32	226.36
834.64	226.34
834.96	226.33
835.27	226.33
835.59	226.28
835.90	226.25
836.22	226.25
836.53	226.21
836.85	226.19
837.16	226.32
837.48	226.32
837.79	226.36
838.11	226.36
838.42	226.36
838.74	226.37
839.05	226.36
839.37	226.35
839.68	226.27
840.00	226.26
840.31	226.28
840.63	226.26
840.94	226.25
841.26	226.24
841.57	226.23
841.88	226.24
842.20	226.22
842.51	226.20
842.83	226.19
843.14	226.31
843.46	226.30
843.77	226.22
844.08	226.22
844.40	226.17
844.71	226.16
845.03	226.14
845.34	226.13
845.65	226.12
845.97	226.13
846.28	226.13
846.60	226.14
846.91	226.11
847.22	226.11
847.54	226.13
847.85	226.14
848.16	226.13
848.48	226.10
848.79	226.15
849.10	226.16
849.42	226.17
849.73	226.05
850.04	226.04
850.36	226.00
850.67	226.01
850.98	226.02
851.30	226.03
851.61	226.02
851.92	226.01
852.23	226.05
852.55	226.06
852.86	226.05
853.17	226.06
853.49	226.09
853.80	226.12
854.11	226.12
854.42	226.13
854.74	226.12
855.05	226.13
855.36	226.06
855.67	226.06
855.99	226.06
856.30	226.21
856.61	226.20
856.92	226.21
857.23	226.21
857.55	226.19
857.86	226.18
858.17	226.20
858.48	226.18
858.79	226.15
859.11	226.15
859.42	226.14
859.73	226.12
860.04	226.11
860.35	226.07
860.66	226.03
860.98	226.02
861.29	226.04
861.60	226.03
861.91	226.05
862.22	226.03
862.53	226.01
862.84	225.86
863.16	225.88
863.47	225.86
863.78	225.84
864.09	225.85
864.40	225.85
864.71	225.85
865.02	225.86
865.33	225.84
865.64	225.82
865.95	225.81
866.27	225.89
866.58	225.88
866.89	225.89
867.20	225.89
867.51	225.87
867.82	225.86
868.13	225.89
868.44	225.86
868.75	225.88
869.06	225.89
869.37	225.90
869.68	225.87
869.99	225.90
870.30	225.90
870.61	225.91
870.92	225.89
871.23	225.88
871.54	225.89
871.85	225.93
872.16	225.94
872.47	225.93
872.78	225.86
873.09	225.87
873.40	225.85
873.71	225.86
874.02	225.87
874.33	225.86
874.64	225.83
874.95	225.85
875.26	225.82
875.56	225.82
875.87	225.81
876.18	225.80
876.49	225.92
876.80	225.91
877.11	225.89
877.42	225.90
877.73	225.90
878.04	225.88
878.35	225.88
878.66	225.88
878.96	225.87
879.27	225.87
879.58	225.86
879.89	225.86
880.20	225.89
880.51	225.88
880.82	225.89
881.12	225.89
881.43	225.86
881.74	225.85
882.05	225.84
882.36	225.85
882.67	225.86
882.97	225.72
883.28	225.72
883.59	225.71
883.90	225.72
884.21	225.74
884.51	225.73
884.82	225.71
885.13	225.70
885.44	225.70
885.74	225.70
886.05	225.70
886.36	225.70
886.67	225.65
886.98	225.72
887.28	225.73
887.59	225.73
887.90	225.74
888.20	225.73
888.51	225.75
888.82	225.73
889.13	225.74
889.43	225.86
889.74	225.85
890.05	225.85
890.35	225.83
890.66	225.81
890.97	225.80
891.28	225.79
891.58	225.79
891.89	225.79
892.20	225.78
892.50	225.77
892.81	225.76
893.12	225.76
893.42	225.69
893.73	225.69
894.04	225.69
894.34	225.70
894.65	225.70
894.95	225.68
895.26	225.69
895.57	225.74
895.87	225.61
896.18	225.64
896.48	225.64
896.79	225.64
897.10	225.66
897.40	225.66
897.71	225.68
898.01	225.66
898.32	225.68
898.63	225.67
898.93	225.68
899.24	225.69
899.54	225.68
899.85	225.68
900.15	225.67
900.46	225.67
900.76	225.68
901.07	225.68
901.38	225.67
901.68	225.68
901.99	225.62
902.29	225.63
902.60	225.61
902.90	225.60
903.21	225.60
903.51	225.59
903.82	225.62
904.12	225.61
904.43	225.62
904.73	225.62
905.03	225.62
905.34	225.74
905.64	225.73
905.95	225.73
906.25	225.73
906.56	225.73
906.86	225.73
907.17	225.71
907.47	225.71
907.77	225.70
908.08	225.68
908.38	225.69
908.69	225.69
908.99	225.72
909.30	225.72
909.60	225.72
909.90	225.73
910.21	225.69
910.51	225.67
910.81	225.67
911.12	225.67
911.42	225.68
911.73	225.54
912.03	225.55
912.33	225.58
912.64	225.57
912.94	225.56
913.24	225.54
913.55	225.53
913.85	225.52
914.15	225.54
914.46	225.56
914.76	225.55
915.06	225.54
915.37	225.51
915.67	225.51
915.97	225.51
916.27	225.48
916.58	225.49
916.88	225.49
917.18	225.48
917.49	225.56
917.79	225.56
918.09	225.58
918.39	225.61
918.70	225.60
919.00	225.61
919.30	225.66
919.60	225.66
919.91	225.65
920.21	225.65
920.51	225.63
920.81	225.62
921.12	225.64
921.42	225.64
921.72	225.64
922.02	225.65
922.32	225.66
922.63	225.67
922.93	225.74
923.23	225.74
923.53	225.73
923.83	225.65
924.13	225.66
924.44	225.66
924.74	225.67
925.04	225.70
925.34	225.70
925.64	225.64
925.94	225.65
926.24	225.72
926.55	225.71
926.85	225.73
927.15	225.73
927.45	225.72
927.75	225.72
928.05	225.72
928.35	225.71
928.65	225.73
928.95	225.74
929.26	225.68
929.56	225.71
929.86	225.72
930.16	225.71
930.46	225.70
930.76	225.71
931.06	225.65
931.36	225.61
931.66	225.63
931.96	225.65
932.26	225.66
932.56	225.60
932.86	225.61
933.16	225.60
933.46	225.59
933.76	225.57
934.06	225.59
934.36	225.63
934.66	225.63
934.96	225.61
935.26	225.61
935.56	225.63
935.86	225.59
936.16	225.57
936.46	225.57
936.76	225.56
937.06	225.54
937.36	225.55
937.66	225.55
937.96	225.55
938.26	225.52
938.56	225.51
938.86	225.52
939.16	225.55
939.46	225.56
939.76	225.57
940.06	225.57
940.35	225.54
940.65	225.48
940.95	225.49
941.25	225.47
941.55	225.45
941.85	225.44
942.15	225.47
942.45	225.50
942.75	225.50
943.04	225.51
943.34	225.53
943.64	225.52
943.94	225.50
944.24	225.50
944.54	225.51
944.84	225.51
945.13	225.49
945.43	225.46
945.73	225.45
946.03	225.44
946.33	225.43
946.62	225.42
946.92	225.42
947.22	225.42
947.52	225.44
947.82	225.45
948.11	225.44
948.41	225.41
948.71	225.38
949.01	225.38
949.31	225.37
949.60	225.36
949.90	225.38
950.20	225.38
950.50	225.37
950.79	225.36
951.09	225.38
951.39	225.38
951.69	225.37
951.98	225.39
952.28	225.39
952.58	225.39
952.87	225.40
953.17	225.42
953.47	225.40
953.76	225.40
954.06	225.37
954.36	225.36
954.66	225.36
954.95	225.39
955.25	225.40
955.55	225.41
955.84	225.39
956.14	225.39
956.44	225.40
956.73	225.39
957.03	225.39
957.32	225.39
957.62	225.39
957.92	225.41
958.21	225.39
958.51	225.54
958.81	225.55
959.10	225.57
959.40	225.59
959.69	225.60
959.99	225.62
960.29	225.62
960.58	225.62
960.88	225.66
961.17	225.65
961.47	225.65
961.76	225.64
962.06	225.67
962.36	225.65
962.65	225.66
962.95	225.67
963.24	225.66
963.54	225.66
963.83	225.67
964.13	225.66
964.42	225.65
964.72	225.54
965.01	225.54
965.31	225.54
965.60	225.50
965.90	225.58
966.19	225.55
966.49	225.56
966.78	225.56
967.08	225.54
967.37	225.55
967.67	225.52
967.96	225.54
968.26	225.53
968.55	225.55
968.85	225.54
969.14	225.54
969.43	225.54
969.73	225.53
970.02	225.52
970.32	225.51
970.61	225.50
970.91	225.46
971.20	225.44
971.49	225.43
971.79	225.44
972.08	225.35
972.38	225.36
972.67	225.35
972.96	225.37
973.26	225.35
973.55	225.38
973.85	225.38
974.14	225.37
974.43	225.37
974.73	225.35
975.02	225.35
975.31	225.35
975.61	225.34
975.90	225.33
976.19	225.32
976.49	225.33
976.78	225.34
977.07	225.34
977.37	225.35
977.66	225.37
977.95	225.35
978.24	225.37
978.54	225.39
978.83	225.39
979.12	225.38
979.42	225.38
979.71	225.35
980.00	225.35
980.29	225.35
980.59	225.33
980.88	225.36
981.17	225.36
981.46	225.36
981.76	225.36
982.05	225.40
982.34	225.41
982.63	225.40
982.93	225.40
983.22	225.44
983.51	225.44
983.80	225.46
984.09	225.48
984.39	225.47
984.68	225.45
984.97	225.45
985.26	225.45
985.55	225.46
985.85	225.43
986.14	225.46
986.43	225.47
986.72	225.47
987.01	225.43
987.30	225.43
987.59	225.42
987.89	225.43
988.18	225.39
988.47	225.38
988.76	225.37
989.05	225.36
989.34	225.34
989.63	225.37
989.92	225.35
990.22	225.34
990.51	225.33
990.80	225.32
991.09	225.33
991.38	225.35
991.67	225.33
991.96	225.32
992.25	225.32
992.54	225.29
992.83	225.30
993.12	225.30
993.41	225.32
993.70	225.37
993.99	225.39
994.28	225.40
994.58	225.42
994.87	225.41
995.16	225.41
995.45	225.40
995.74	225.35
996.03	225.37
996.32	225.39
996.61	225.42
996.90	225.42
997.19	225.41
997.48	225.41
997.77	225.40
998.06	225.41
998.34	225.40
998.63	225.40
998.92	225.40
999.21	225.42
999.50	225.42
999.79	225.38
1000.08	225.37
1000.37	225.37
1000.66	225.35
1000.95	225.38
1001.24	225.39
1001.53	225.41
1001.82	225.41
1002.11	225.38
1002.40	225.38
1002.68	225.41
1002.97	225.50
1003.26	225.48
1003.55	225.45
1003.84	225.47
1004.13	225.51
1004.42	225.50
1004.71	225.50
1004.99	225.50
1005.28	225.52
1005.57	225.52
1005.86	225.50
1006.15	225.50
1006.44	225.48
1006.72	225.50
1007.01	225.47
1007.30	225.47
1007.59	225.45
1007.88	225.45
1008.17	225.46
1008.45	225.43
1008.74	225.38
1009.03	225.32
1009.32	225.32
1009.60	225.33
1009.89	225.32
1010.18	225.27
1010.47	225.26
1010.76	225.26
1011.04	225.26
1011.33	225.25
1011.62	225.26
1011.91	225.27
1012.19	225.28
1012.48	225.28
1012.77	225.28
1013.05	225.32
1013.34	225.32
1013.63	225.32
1013.92	225.33
1014.20	225.32
1014.49	225.33
1014.78	225.35
1015.06	225.30
1015.35	225.31
1015.64	225.32
1015.92	225.34
1016.21	225.35
1016.50	225.35
1016.78	225.37
1017.07	225.38
1017.36	225.35
1017.64	225.34
1017.93	225.35
1018.22	225.34
1018.50	225.33
1018.79	225.33
1019.08	225.28
1019.36	225.29
1019.65	225.28
1019.93	225.31
1020.22	225.33
1020.51	225.39
1020.79	225.37
1021.08	225.14
1021.36	225.10
1021.65	225.34
1021.94	225.21
1022.22	225.40
1022.51	225.09
1022.79	225.93
1023.08	225.50
1023.36	226.79
1023.65	225.00
>>>>>End Processed Spectral Data<<<<<
