SpectraSuite Data File
++++++++++++++++++++++++++++++++++++
Date: Sun Oct 04 13:56:45 EDT 2015
User: lab3
Dark Spectrum Present: No
Reference Spectrum Present: No
Number of Sampled Component Spectra: 1
Spectrometers: USB2E7196
Integration Time (usec): 46000 (USB2E7196)
Spectra Averaged: 24000 (USB2E7196)
Boxcar Smoothing: 10 (USB2E7196)
Correct for Electrical Dark: No (USB2E7196)
Strobe/Lamp Enabled: No (USB2E7196)
Correct for Detector Non-linearity: No (USB2E7196)
Correct for Stray Light: No (USB2E7196)
Number of Pixels in Processed Spectrum: 2048
>>>>>Begin Processed Spectral Data<<<<<
339.09	0.00
339.48	213.18
339.86	214.66
340.24	216.06
340.63	217.47
341.01	220.76
341.39	220.17
341.78	221.58
342.16	222.79
342.54	223.21
342.93	211.69
343.31	222.39
343.69	222.93
344.07	223.39
344.46	223.82
344.84	224.22
345.22	224.44
345.60	224.70
345.99	224.90
346.37	225.03
346.75	225.14
347.13	225.22
347.52	225.29
347.90	225.39
348.28	225.43
348.66	225.50
349.05	225.49
349.43	225.55
349.81	225.61
350.19	225.67
350.57	225.74
350.96	225.83
351.34	225.93
351.72	226.03
352.10	226.14
352.48	226.21
352.87	226.26
353.25	226.33
353.63	226.39
354.01	226.46
354.39	226.54
354.77	226.61
355.15	226.72
355.54	226.77
355.92	226.80
356.30	226.88
356.68	227.02
357.06	227.10
357.44	227.15
357.82	227.21
358.20	227.33
358.58	227.39
358.97	227.45
359.35	227.54
359.73	227.62
360.11	227.67
360.49	227.74
360.87	227.78
361.25	227.85
361.63	227.94
362.01	227.99
362.39	228.02
362.77	228.07
363.15	228.09
363.53	228.13
363.91	228.16
364.29	228.18
364.67	228.08
365.05	228.11
365.43	228.14
365.81	228.17
366.19	228.19
366.57	228.25
366.95	228.25
367.33	228.21
367.71	228.21
368.09	228.23
368.47	228.22
368.85	228.21
369.23	228.22
369.61	228.16
369.99	228.18
370.37	228.18
370.75	228.25
371.13	228.22
371.51	228.18
371.89	228.16
372.27	228.14
372.65	228.12
373.03	228.08
373.41	228.03
373.78	227.98
374.16	227.88
374.54	227.79
374.92	227.74
375.30	227.70
375.68	227.63
376.06	227.59
376.44	227.53
376.82	227.49
377.19	227.44
377.57	227.39
377.95	227.30
378.33	227.24
378.71	227.08
379.09	227.04
379.47	227.00
379.84	226.94
380.22	226.87
380.60	226.80
380.98	226.76
381.36	226.71
381.73	226.64
382.11	226.62
382.49	226.58
382.87	226.52
383.25	226.48
383.62	226.59
384.00	226.52
384.38	226.48
384.76	226.47
385.13	226.47
385.51	226.43
385.89	226.38
386.27	226.35
386.64	226.33
387.02	226.29
387.40	226.24
387.78	226.22
388.15	226.20
388.53	226.17
388.91	226.14
389.29	226.11
389.66	226.11
390.04	226.07
390.42	226.07
390.79	226.06
391.17	226.04
391.55	225.89
391.92	225.88
392.30	225.88
392.68	225.84
393.05	225.82
393.43	225.83
393.81	225.83
394.18	225.82
394.56	225.82
394.94	225.85
395.31	225.86
395.69	225.91
396.06	225.94
396.44	225.97
396.82	225.98
397.19	226.08
397.57	226.09
397.95	226.14
398.32	226.14
398.70	226.19
399.07	226.26
399.45	226.30
399.82	226.36
400.20	226.40
400.58	226.47
400.95	226.49
401.33	226.58
401.70	226.75
402.08	226.86
402.45	226.96
402.83	227.09
403.20	227.21
403.58	227.32
403.95	227.47
404.33	227.64
404.71	227.80
405.08	228.03
405.46	228.21
405.83	228.42
406.21	228.64
406.58	228.89
406.96	229.14
407.33	229.42
407.70	229.73
408.08	230.16
408.45	230.53
408.83	230.94
409.20	231.31
409.58	231.65
409.95	232.11
410.33	232.61
410.70	233.08
411.08	233.63
411.45	234.22
411.82	234.82
412.20	235.49
412.57	236.30
412.95	236.94
413.32	237.77
413.69	238.62
414.07	239.53
414.44	240.50
414.82	241.51
415.19	242.68
415.56	243.87
415.94	245.11
416.31	246.49
416.68	247.88
417.06	249.49
417.43	250.99
417.81	252.73
418.18	254.50
418.55	256.43
418.93	258.44
419.30	260.54
419.67	262.77
420.04	265.05
420.42	267.44
420.79	270.19
421.16	272.97
421.54	275.79
421.91	278.75
422.28	281.82
422.66	285.12
423.03	288.28
423.40	291.59
423.77	295.15
424.15	298.79
424.52	302.58
424.89	306.68
425.26	310.76
425.64	314.56
426.01	318.83
426.38	323.19
426.75	327.68
427.13	332.30
427.50	337.13
427.87	342.15
428.24	347.22
428.61	352.11
428.99	357.38
429.36	363.17
429.73	368.70
430.10	374.24
430.47	379.89
430.85	385.71
431.22	391.96
431.59	398.37
431.96	404.64
432.33	411.60
432.70	418.21
433.08	426.02
433.45	433.41
433.82	440.70
434.19	448.82
434.56	456.84
434.93	464.60
435.30	472.24
435.68	480.90
436.05	489.39
436.42	497.85
436.79	505.56
437.16	513.88
437.53	522.80
437.90	531.73
438.27	540.47
438.64	549.92
439.01	558.47
439.38	566.30
439.75	573.83
440.13	582.33
440.50	590.42
440.87	596.84
441.24	603.86
441.61	611.51
441.98	617.06
442.35	623.68
442.72	630.42
443.09	636.86
443.46	640.90
443.83	643.83
444.20	646.27
444.57	649.96
444.94	651.99
445.31	654.11
445.68	655.86
446.05	657.15
446.42	656.64
446.79	655.89
447.16	655.23
447.53	654.61
447.90	651.77
448.27	649.06
448.64	644.99
449.01	642.11
449.37	636.52
449.74	631.48
450.11	624.98
450.48	617.88
450.85	610.80
451.22	604.75
451.59	598.86
451.96	593.52
452.33	585.78
452.70	578.93
453.07	570.58
453.43	562.28
453.80	554.21
454.17	546.47
454.54	539.39
454.91	531.37
455.28	523.87
455.65	516.80
456.02	509.29
456.38	503.30
456.75	495.57
457.12	489.37
457.49	483.09
457.86	477.21
458.23	472.05
458.59	466.31
458.96	460.43
459.33	455.25
459.70	449.97
460.07	445.97
460.43	441.27
460.80	436.88
461.17	433.07
461.54	428.91
461.91	425.03
462.27	421.07
462.64	417.90
463.01	414.22
463.38	410.52
463.74	407.22
464.11	404.27
464.48	401.63
464.85	398.73
465.21	396.56
465.58	394.11
465.95	391.30
466.32	389.08
466.68	386.89
467.05	384.69
467.42	382.54
467.78	380.21
468.15	378.06
468.52	376.49
468.88	374.37
469.25	372.44
469.62	370.90
469.98	369.21
470.35	367.70
470.72	366.34
471.08	364.95
471.45	363.77
471.82	362.46
472.18	361.08
472.55	360.17
472.92	359.03
473.28	358.13
473.65	357.16
474.02	356.24
474.38	355.45
474.75	354.96
475.11	354.30
475.48	353.96
475.85	353.60
476.21	353.39
476.58	353.22
476.94	353.31
477.31	353.33
477.67	353.37
478.04	353.54
478.41	353.80
478.77	354.21
479.14	354.44
479.50	354.96
479.87	355.65
480.23	356.34
480.60	357.03
480.96	357.71
481.33	358.76
481.69	359.79
482.06	360.83
482.42	361.76
482.79	362.94
483.15	364.33
483.52	365.90
483.88	367.40
484.25	369.01
484.61	370.69
484.98	372.51
485.34	374.56
485.71	376.71
486.07	379.01
486.44	381.32
486.80	383.88
487.17	386.55
487.53	389.47
487.90	392.51
488.26	395.83
488.62	399.34
488.99	402.85
489.35	406.56
489.72	410.58
490.08	414.82
490.44	419.20
490.81	423.74
491.17	428.39
491.54	433.38
491.90	438.53
492.26	444.05
492.63	449.83
492.99	455.85
493.36	462.10
493.72	468.66
494.08	475.38
494.45	482.52
494.81	489.94
495.17	497.56
495.54	505.62
495.90	514.00
496.26	522.56
496.63	531.36
496.99	540.50
497.35	550.06
497.72	559.92
498.08	570.00
498.44	580.43
498.80	591.49
499.17	602.84
499.53	614.54
499.89	626.60
500.26	638.92
500.62	651.54
500.98	664.85
501.34	678.34
501.71	692.39
502.07	706.62
502.43	721.40
502.79	736.43
503.16	751.96
503.52	767.66
503.88	783.84
504.24	800.53
504.60	817.41
504.97	834.81
505.33	852.66
505.69	871.44
506.05	890.62
506.41	909.73
506.78	929.00
507.14	948.77
507.50	969.02
507.86	989.62
508.22	1010.48
508.59	1031.11
508.95	1052.59
509.31	1074.86
509.67	1097.91
510.03	1120.98
510.39	1144.03
510.75	1167.20
511.12	1190.68
511.48	1214.33
511.84	1237.95
512.20	1262.02
512.56	1287.06
512.92	1312.10
513.28	1336.65
513.64	1361.40
514.00	1386.67
514.37	1412.30
514.73	1437.86
515.09	1463.26
515.45	1489.00
515.81	1514.91
516.17	1540.90
516.53	1566.41
516.89	1591.70
517.25	1617.20
517.61	1642.52
517.97	1668.32
518.33	1693.63
518.69	1718.86
519.05	1744.54
519.41	1770.47
519.77	1796.65
520.13	1821.92
520.49	1847.13
520.85	1872.74
521.21	1897.96
521.57	1923.50
521.93	1948.40
522.29	1973.90
522.65	1998.79
523.01	2023.68
523.37	2048.06
523.73	2073.25
524.09	2098.04
524.45	2122.61
524.81	2146.75
525.17	2170.71
525.53	2194.00
525.89	2217.77
526.25	2241.63
526.61	2264.48
526.97	2287.48
527.33	2310.33
527.68	2332.94
528.04	2354.62
528.40	2375.35
528.76	2396.15
529.12	2416.40
529.48	2436.47
529.84	2454.52
530.20	2473.29
530.56	2491.33
530.91	2509.51
531.27	2527.35
531.63	2544.29
531.99	2560.76
532.35	2576.43
532.71	2592.33
533.07	2608.93
533.42	2623.54
533.78	2639.12
534.14	2654.97
534.50	2669.81
534.86	2684.38
535.21	2696.85
535.57	2709.94
535.93	2722.79
536.29	2734.55
536.65	2746.08
537.00	2756.74
537.36	2768.49
537.72	2778.80
538.08	2788.56
538.44	2797.56
538.79	2806.06
539.15	2813.84
539.51	2821.28
539.87	2828.09
540.22	2832.75
540.58	2837.51
540.94	2843.54
541.29	2847.95
541.65	2850.41
542.01	2852.12
542.37	2853.16
542.72	2855.65
543.08	2856.30
543.44	2857.53
543.79	2857.70
544.15	2857.03
544.51	2856.77
544.87	2855.31
545.22	2853.02
545.58	2850.05
545.94	2847.14
546.29	2842.95
546.65	2838.69
547.01	2834.29
547.36	2830.74
547.72	2827.38
548.07	2822.17
548.43	2815.48
548.79	2807.70
549.14	2801.28
549.50	2795.23
549.86	2788.20
550.21	2779.99
550.57	2772.80
550.92	2763.22
551.28	2754.12
551.64	2745.52
551.99	2736.61
552.35	2726.99
552.70	2717.68
553.06	2708.71
553.41	2699.14
553.77	2689.30
554.13	2679.38
554.48	2668.60
554.84	2656.49
555.19	2644.76
555.55	2633.19
555.90	2621.74
556.26	2610.92
556.61	2598.93
556.97	2585.21
557.32	2571.94
557.68	2558.73
558.03	2545.22
558.39	2533.07
558.74	2521.28
559.10	2507.60
559.45	2494.03
559.81	2481.18
560.16	2467.71
560.52	2454.55
560.87	2441.77
561.23	2428.22
561.58	2414.72
561.94	2400.93
562.29	2386.52
562.64	2372.94
563.00	2359.05
563.35	2345.52
563.71	2331.79
564.06	2318.00
564.42	2305.06
564.77	2291.61
565.12	2278.03
565.48	2264.42
565.83	2250.73
566.19	2237.18
566.54	2223.55
566.89	2208.77
567.25	2194.23
567.60	2181.08
567.96	2167.00
568.31	2151.53
568.66	2136.71
569.02	2123.13
569.37	2109.54
569.72	2096.53
570.08	2082.19
570.43	2067.43
570.78	2052.56
571.14	2036.96
571.49	2022.06
571.84	2007.70
572.20	1992.09
572.55	1976.69
572.90	1961.26
573.26	1945.90
573.61	1930.02
573.96	1914.65
574.31	1899.57
574.67	1884.50
575.02	1868.33
575.37	1852.25
575.72	1837.07
576.08	1822.22
576.43	1806.31
576.78	1790.81
577.13	1775.55
577.49	1760.69
577.84	1746.51
578.19	1731.33
578.54	1716.34
578.90	1700.82
579.25	1685.19
579.60	1671.20
579.95	1657.11
580.30	1642.79
580.66	1628.21
581.01	1613.57
581.36	1598.91
581.71	1585.26
582.06	1571.52
582.42	1558.00
582.77	1544.56
583.12	1531.10
583.47	1517.53
583.82	1504.06
584.17	1490.24
584.53	1476.12
584.88	1462.36
585.23	1448.21
585.58	1434.87
585.93	1421.72
586.28	1409.30
586.63	1396.86
586.98	1383.96
587.34	1371.13
587.69	1358.08
588.04	1345.34
588.39	1332.96
588.74	1320.74
589.09	1308.29
589.44	1295.44
589.79	1283.27
590.14	1271.19
590.49	1259.01
590.84	1246.97
591.19	1235.31
591.54	1223.45
591.89	1211.74
592.25	1200.25
592.60	1188.37
592.95	1176.92
593.30	1165.73
593.65	1154.26
594.00	1142.92
594.35	1132.15
594.70	1120.95
595.05	1110.63
595.40	1100.20
595.75	1089.63
596.10	1079.58
596.45	1069.28
596.80	1059.32
597.15	1049.08
597.50	1039.01
597.85	1029.35
598.19	1019.55
598.54	1009.80
598.89	1000.53
599.24	991.57
599.59	982.38
599.94	974.13
600.29	965.69
600.64	956.99
600.99	947.93
601.34	939.22
601.69	930.15
602.04	921.80
602.39	913.25
602.74	904.78
603.08	896.24
603.43	887.69
603.78	879.31
604.13	871.08
604.48	862.86
604.83	854.83
605.18	846.72
605.53	838.80
605.87	830.73
606.22	822.90
606.57	815.02
606.92	807.11
607.27	799.11
607.62	791.40
607.96	784.09
608.31	777.22
608.66	770.15
609.01	763.38
609.36	756.69
609.70	749.83
610.05	742.93
610.40	736.31
610.75	729.67
611.10	723.39
611.44	716.93
611.79	710.60
612.14	704.18
612.49	697.84
612.83	691.80
613.18	685.89
613.53	679.91
613.88	673.95
614.22	668.36
614.57	662.75
614.92	656.99
615.27	651.31
615.61	645.71
615.96	640.18
616.31	634.63
616.65	629.14
617.00	623.85
617.35	618.67
617.70	613.53
618.04	608.48
618.39	603.33
618.74	598.42
619.08	593.54
619.43	588.80
619.78	584.07
620.12	579.29
620.47	574.67
620.82	570.16
621.16	565.70
621.51	561.16
621.85	556.62
622.20	552.27
622.55	547.96
622.89	543.73
623.24	539.50
623.59	535.31
623.93	531.28
624.28	527.34
624.62	523.50
624.97	519.70
625.32	515.85
625.66	511.97
626.01	508.08
626.35	504.25
626.70	500.46
627.04	496.86
627.39	493.18
627.73	489.67
628.08	486.25
628.43	482.82
628.77	479.45
629.12	476.22
629.46	473.01
629.81	469.72
630.15	466.41
630.50	463.21
630.84	460.08
631.19	456.98
631.53	453.99
631.88	450.97
632.22	447.96
632.57	445.24
632.91	442.54
633.26	439.94
633.60	437.35
633.95	434.81
634.29	432.19
634.64	429.64
634.98	426.92
635.32	424.32
635.67	421.93
636.01	419.47
636.36	417.05
636.70	414.75
637.05	412.46
637.39	410.22
637.73	407.98
638.08	405.87
638.42	403.73
638.77	401.47
639.11	399.15
639.45	396.92
639.80	394.63
640.14	392.45
640.49	390.25
640.83	388.04
641.17	385.93
641.52	383.86
641.86	381.82
642.20	379.98
642.55	377.99
642.89	376.02
643.23	374.15
643.58	372.43
643.92	370.59
644.26	368.81
644.61	367.07
644.95	365.32
645.29	363.49
645.64	361.68
645.98	359.97
646.32	358.38
646.66	356.77
647.01	355.19
647.35	353.65
647.69	352.10
648.04	350.67
648.38	349.16
648.72	347.68
649.06	346.21
649.41	344.74
649.75	343.33
650.09	341.94
650.43	340.56
650.78	339.12
651.12	337.74
651.46	336.40
651.80	335.09
652.14	333.80
652.49	332.57
652.83	331.30
653.17	330.09
653.51	328.90
653.85	327.77
654.20	326.60
654.54	325.36
654.88	324.20
655.22	323.08
655.56	321.96
655.90	320.89
656.25	319.86
656.59	318.81
656.93	317.82
657.27	316.85
657.61	315.83
657.95	314.85
658.29	313.87
658.64	312.94
658.98	312.00
659.32	311.10
659.66	310.24
660.00	309.42
660.34	308.58
660.68	307.72
661.02	306.83
661.36	305.98
661.70	305.17
662.05	304.38
662.39	303.60
662.73	302.88
663.07	302.18
663.41	301.43
663.75	300.68
664.09	299.95
664.43	299.17
664.77	298.47
665.11	297.74
665.45	297.06
665.79	296.40
666.13	295.70
666.47	295.00
666.81	294.28
667.15	293.53
667.49	292.89
667.83	292.31
668.17	291.69
668.51	291.12
668.85	290.57
669.19	290.07
669.53	289.45
669.87	288.84
670.21	288.24
670.55	287.70
670.89	287.22
671.23	286.70
671.57	286.20
671.91	285.74
672.25	285.30
672.58	284.86
672.92	284.35
673.26	283.91
673.60	283.48
673.94	283.07
674.28	282.69
674.62	282.27
674.96	281.80
675.30	281.40
675.64	280.96
675.97	280.51
676.31	280.03
676.65	279.61
676.99	279.26
677.33	278.82
677.67	278.42
678.01	277.95
678.34	277.56
678.68	277.19
679.02	276.75
679.36	276.35
679.70	275.92
680.04	275.56
680.37	275.18
680.71	274.81
681.05	274.46
681.39	274.08
681.73	273.67
682.06	273.29
682.40	272.92
682.74	272.60
683.08	272.33
683.42	271.99
683.75	271.69
684.09	271.30
684.43	270.99
684.77	270.66
685.10	270.38
685.44	270.07
685.78	269.75
686.12	269.47
686.45	269.15
686.79	268.82
687.13	268.53
687.46	268.21
687.80	267.91
688.14	267.57
688.48	267.28
688.81	266.98
689.15	266.72
689.49	266.41
689.82	266.10
690.16	265.73
690.50	265.44
690.83	265.14
691.17	264.83
691.51	264.54
691.84	264.27
692.18	263.95
692.52	263.64
692.85	263.35
693.19	263.10
693.52	262.82
693.86	262.53
694.20	262.25
694.53	261.98
694.87	261.69
695.21	261.40
695.54	261.12
695.88	260.83
696.21	260.52
696.55	260.25
696.88	259.98
697.22	259.72
697.56	259.44
697.89	259.14
698.23	258.87
698.56	258.58
698.90	258.32
699.23	258.03
699.57	257.75
699.90	257.47
700.24	257.17
700.58	256.92
700.91	256.71
701.25	256.56
701.58	256.36
701.92	256.15
702.25	255.92
702.59	255.66
702.92	255.42
703.26	255.17
703.59	254.91
703.93	254.76
704.26	254.53
704.60	254.28
704.93	254.03
705.26	253.78
705.60	253.58
705.93	253.31
706.27	253.11
706.60	252.92
706.94	252.74
707.27	252.48
707.61	252.23
707.94	251.97
708.27	251.61
708.61	251.31
708.94	251.05
709.28	250.81
709.61	250.57
709.94	250.36
710.28	250.16
710.61	249.97
710.95	249.65
711.28	249.51
711.61	249.29
711.95	249.12
712.28	248.90
712.61	248.66
712.95	248.53
713.28	248.38
713.61	248.13
713.95	247.88
714.28	247.70
714.61	247.49
714.95	247.29
715.28	247.09
715.61	246.91
715.95	246.73
716.28	246.55
716.61	246.40
716.95	246.19
717.28	246.00
717.61	245.80
717.94	245.62
718.28	245.35
718.61	245.16
718.94	244.95
719.27	244.77
719.61	244.62
719.94	244.40
720.27	244.14
720.60	243.97
720.94	243.80
721.27	243.63
721.60	243.48
721.93	243.31
722.27	243.18
722.60	243.03
722.93	242.84
723.26	242.68
723.59	242.47
723.93	242.32
724.26	242.16
724.59	241.99
724.92	241.85
725.25	241.74
725.59	241.59
725.92	241.46
726.25	241.31
726.58	241.16
726.91	241.00
727.24	240.88
727.57	240.73
727.91	240.57
728.24	240.45
728.57	240.30
728.90	240.18
729.23	239.99
729.56	239.90
729.89	239.76
730.22	239.61
730.55	239.48
730.89	239.35
731.22	239.20
731.55	239.07
731.88	238.94
732.21	238.78
732.54	238.64
732.87	238.51
733.20	238.39
733.53	238.27
733.86	238.15
734.19	238.01
734.52	237.91
734.85	237.88
735.18	237.73
735.51	237.65
735.84	237.53
736.17	237.46
736.50	237.28
736.83	237.32
737.16	237.21
737.49	237.12
737.82	237.00
738.15	236.92
738.48	236.81
738.81	236.69
739.14	236.58
739.47	236.47
739.80	236.35
740.13	236.25
740.46	236.13
740.79	236.01
741.12	235.90
741.45	235.78
741.78	235.60
742.11	235.54
742.44	235.40
742.77	235.31
743.10	235.19
743.43	235.09
743.75	234.86
744.08	234.96
744.41	234.85
744.74	234.75
745.07	234.63
745.40	234.56
745.73	234.52
746.06	234.44
746.39	234.37
746.71	234.28
747.04	234.18
747.37	234.09
747.70	234.03
748.03	233.96
748.36	233.89
748.68	233.80
749.01	233.68
749.34	233.60
749.67	233.52
750.00	233.46
750.33	233.47
750.65	233.40
750.98	233.13
751.31	233.06
751.64	232.99
751.97	232.98
752.29	232.89
752.62	232.76
752.95	232.68
753.28	232.58
753.60	232.50
753.93	232.46
754.26	232.39
754.59	232.27
754.91	232.19
755.24	232.10
755.57	232.09
755.90	232.02
756.22	231.93
756.55	231.84
756.88	231.74
757.20	231.58
757.53	231.47
757.86	231.40
758.19	231.34
758.51	231.27
758.84	231.14
759.17	231.06
759.49	231.00
759.82	231.00
760.15	230.95
760.47	230.89
760.80	230.79
761.13	230.75
761.45	230.69
761.78	230.64
762.11	230.59
762.43	230.46
762.76	230.41
763.08	230.37
763.41	230.32
763.74	230.28
764.06	230.22
764.39	230.18
764.71	230.12
765.04	230.06
765.37	230.00
765.69	229.95
766.02	229.90
766.34	229.84
766.67	229.74
767.00	229.72
767.32	229.74
767.65	229.77
767.97	229.71
768.30	229.67
768.62	229.63
768.95	229.56
769.27	229.52
769.60	229.49
769.92	229.42
770.25	229.36
770.57	229.30
770.90	229.25
771.22	229.20
771.55	229.16
771.87	229.13
772.20	229.08
772.52	229.15
772.85	229.27
773.17	229.24
773.50	229.19
773.82	229.13
774.15	229.03
774.47	228.91
774.80	228.86
775.12	228.83
775.45	228.79
775.77	228.77
776.09	228.75
776.42	228.71
776.74	228.72
777.07	228.69
777.39	228.67
777.72	228.63
778.04	228.62
778.36	228.58
778.69	228.56
779.01	228.54
779.33	228.40
779.66	228.23
779.98	228.19
780.31	228.17
780.63	228.19
780.95	228.19
781.28	228.17
781.60	228.13
781.92	228.11
782.25	228.08
782.57	228.06
782.89	228.02
783.22	227.99
783.54	227.94
783.86	227.92
784.19	227.89
784.51	227.91
784.83	227.87
785.16	227.85
785.48	227.82
785.80	227.80
786.12	227.79
786.45	227.77
786.77	227.75
787.09	227.73
787.42	227.66
787.74	227.64
788.06	227.63
788.38	227.61
788.71	227.58
789.03	227.57
789.35	227.56
789.67	227.53
789.99	227.52
790.32	227.49
790.64	227.48
790.96	227.59
791.28	227.52
791.61	227.50
791.93	227.49
792.25	227.46
792.57	227.53
792.89	227.49
793.21	227.48
793.54	227.46
793.86	227.43
794.18	227.41
794.50	227.37
794.82	227.36
795.14	227.35
795.47	227.36
795.79	227.35
796.11	227.30
796.43	227.28
796.75	227.26
797.07	227.26
797.39	227.24
797.71	227.11
798.04	227.11
798.36	227.10
798.68	227.08
799.00	227.08
799.32	227.00
799.64	227.01
799.96	226.99
800.28	227.00
800.60	226.98
800.92	226.97
801.24	226.95
801.56	226.95
801.89	226.93
802.21	226.91
802.53	226.88
802.85	226.89
803.17	226.94
803.49	226.90
803.81	226.88
804.13	226.85
804.45	226.83
804.77	226.82
805.09	226.81
805.41	226.79
805.73	226.75
806.05	226.71
806.37	226.68
806.69	226.66
807.01	226.63
807.33	226.63
807.65	226.58
807.97	226.63
808.28	226.60
808.60	226.58
808.92	226.55
809.24	226.62
809.56	226.59
809.88	226.54
810.20	226.54
810.52	226.55
810.84	226.53
811.16	226.50
811.48	226.48
811.80	226.52
812.12	226.50
812.43	226.52
812.75	226.52
813.07	226.49
813.39	226.49
813.71	226.47
814.03	226.45
814.35	226.45
814.67	226.39
814.98	226.37
815.30	226.35
815.62	226.33
815.94	226.23
816.26	226.24
816.58	226.21
816.89	226.21
817.21	226.17
817.53	226.18
817.85	226.18
818.17	226.17
818.48	226.11
818.80	226.13
819.12	226.10
819.44	226.07
819.76	226.05
820.07	226.04
820.39	226.03
820.71	226.03
821.03	226.03
821.34	226.01
821.66	226.02
821.98	226.03
822.30	226.02
822.61	226.10
822.93	226.07
823.25	226.06
823.57	226.04
823.88	226.05
824.20	226.04
824.52	226.06
824.83	226.05
825.15	226.03
825.47	226.02
825.79	226.02
826.10	226.01
826.42	226.00
826.74	226.01
827.05	226.00
827.37	225.99
827.69	225.98
828.00	225.98
828.32	225.97
828.64	225.94
828.95	226.01
829.27	225.97
829.58	225.96
829.90	225.97
830.22	225.98
830.53	225.95
830.85	225.93
831.17	225.90
831.48	225.89
831.80	225.89
832.11	225.88
832.43	225.86
832.75	225.85
833.06	225.93
833.38	225.89
833.69	225.89
834.01	225.89
834.32	225.88
834.64	225.86
834.96	225.86
835.27	225.86
835.59	225.80
835.90	225.78
836.22	225.77
836.53	225.74
836.85	225.73
837.16	225.85
837.48	225.85
837.79	225.89
838.11	225.88
838.42	225.88
838.74	225.89
839.05	225.88
839.37	225.88
839.68	225.79
840.00	225.79
840.31	225.80
840.63	225.78
840.94	225.77
841.26	225.76
841.57	225.75
841.88	225.76
842.20	225.74
842.51	225.71
842.83	225.71
843.14	225.83
843.46	225.82
843.77	225.74
844.08	225.73
844.40	225.69
844.71	225.68
845.03	225.66
845.34	225.65
845.65	225.64
845.97	225.64
846.28	225.65
846.60	225.65
846.91	225.63
847.22	225.62
847.54	225.65
847.85	225.66
848.16	225.64
848.48	225.62
848.79	225.67
849.10	225.68
849.42	225.69
849.73	225.56
850.04	225.57
850.36	225.52
850.67	225.54
850.98	225.54
851.30	225.55
851.61	225.54
851.92	225.54
852.23	225.58
852.55	225.58
852.86	225.58
853.17	225.59
853.49	225.62
853.80	225.64
854.11	225.65
854.42	225.66
854.74	225.65
855.05	225.65
855.36	225.59
855.67	225.59
855.99	225.58
856.30	225.73
856.61	225.73
856.92	225.73
857.23	225.73
857.55	225.72
857.86	225.71
858.17	225.73
858.48	225.71
858.79	225.68
859.11	225.69
859.42	225.67
859.73	225.65
860.04	225.64
860.35	225.60
860.66	225.56
860.98	225.55
861.29	225.57
861.60	225.56
861.91	225.59
862.22	225.57
862.53	225.55
862.84	225.39
863.16	225.42
863.47	225.40
863.78	225.38
864.09	225.39
864.40	225.40
864.71	225.39
865.02	225.41
865.33	225.39
865.64	225.37
865.95	225.37
866.27	225.45
866.58	225.43
866.89	225.45
867.20	225.45
867.51	225.43
867.82	225.42
868.13	225.46
868.44	225.42
868.75	225.45
869.06	225.45
869.37	225.47
869.68	225.44
869.99	225.46
870.30	225.46
870.61	225.48
870.92	225.45
871.23	225.44
871.54	225.45
871.85	225.48
872.16	225.50
872.47	225.49
872.78	225.42
873.09	225.43
873.40	225.41
873.71	225.42
874.02	225.43
874.33	225.42
874.64	225.39
874.95	225.41
875.26	225.38
875.56	225.38
875.87	225.37
876.18	225.37
876.49	225.49
876.80	225.48
877.11	225.45
877.42	225.46
877.73	225.46
878.04	225.44
878.35	225.43
878.66	225.43
878.96	225.43
879.27	225.43
879.58	225.42
879.89	225.42
880.20	225.45
880.51	225.44
880.82	225.45
881.12	225.45
881.43	225.42
881.74	225.41
882.05	225.40
882.36	225.41
882.67	225.42
882.97	225.28
883.28	225.27
883.59	225.27
883.90	225.28
884.21	225.29
884.51	225.29
884.82	225.27
885.13	225.26
885.44	225.26
885.74	225.26
886.05	225.25
886.36	225.25
886.67	225.20
886.98	225.26
887.28	225.27
887.59	225.27
887.90	225.28
888.20	225.28
888.51	225.30
888.82	225.28
889.13	225.29
889.43	225.40
889.74	225.39
890.05	225.39
890.35	225.37
890.66	225.35
890.97	225.34
891.28	225.33
891.58	225.33
891.89	225.33
892.20	225.31
892.50	225.30
892.81	225.29
893.12	225.29
893.42	225.23
893.73	225.23
894.04	225.22
894.34	225.23
894.65	225.23
894.95	225.21
895.26	225.22
895.57	225.27
895.87	225.14
896.18	225.16
896.48	225.17
896.79	225.17
897.10	225.19
897.40	225.20
897.71	225.21
898.01	225.20
898.32	225.21
898.63	225.21
898.93	225.22
899.24	225.22
899.54	225.22
899.85	225.22
900.15	225.21
900.46	225.21
900.76	225.21
901.07	225.21
901.38	225.21
901.68	225.22
901.99	225.15
902.29	225.16
902.60	225.15
902.90	225.14
903.21	225.14
903.51	225.12
903.82	225.15
904.12	225.14
904.43	225.15
904.73	225.14
905.03	225.15
905.34	225.27
905.64	225.27
905.95	225.27
906.25	225.27
906.56	225.26
906.86	225.26
907.17	225.25
907.47	225.26
907.77	225.25
908.08	225.22
908.38	225.23
908.69	225.23
908.99	225.26
909.30	225.27
909.60	225.26
909.90	225.26
910.21	225.22
910.51	225.20
910.81	225.20
911.12	225.21
911.42	225.21
911.73	225.08
912.03	225.09
912.33	225.12
912.64	225.11
912.94	225.10
913.24	225.08
913.55	225.07
913.85	225.06
914.15	225.09
914.46	225.10
914.76	225.09
915.06	225.08
915.37	225.06
915.67	225.04
915.97	225.05
916.27	225.03
916.58	225.04
916.88	225.03
917.18	225.02
917.49	225.11
917.79	225.10
918.09	225.12
918.39	225.15
918.70	225.14
919.00	225.15
919.30	225.21
919.60	225.20
919.91	225.20
920.21	225.20
920.51	225.17
920.81	225.17
921.12	225.19
921.42	225.18
921.72	225.19
922.02	225.20
922.32	225.22
922.63	225.22
922.93	225.29
923.23	225.30
923.53	225.29
923.83	225.20
924.13	225.21
924.44	225.21
924.74	225.22
925.04	225.25
925.34	225.25
925.64	225.19
925.94	225.20
926.24	225.27
926.55	225.26
926.85	225.27
927.15	225.27
927.45	225.27
927.75	225.27
928.05	225.27
928.35	225.26
928.65	225.28
928.95	225.29
929.26	225.23
929.56	225.25
929.86	225.26
930.16	225.25
930.46	225.24
930.76	225.24
931.06	225.18
931.36	225.15
931.66	225.16
931.96	225.18
932.26	225.18
932.56	225.13
932.86	225.14
933.16	225.13
933.46	225.12
933.76	225.10
934.06	225.13
934.36	225.17
934.66	225.17
934.96	225.15
935.26	225.15
935.56	225.17
935.86	225.13
936.16	225.11
936.46	225.10
936.76	225.10
937.06	225.08
937.36	225.09
937.66	225.10
937.96	225.09
938.26	225.06
938.56	225.05
938.86	225.06
939.16	225.08
939.46	225.09
939.76	225.10
940.06	225.10
940.35	225.08
940.65	225.01
940.95	225.02
941.25	224.99
941.55	224.98
941.85	224.96
942.15	224.99
942.45	225.03
942.75	225.03
943.04	225.03
943.34	225.06
943.64	225.05
943.94	225.03
944.24	225.03
944.54	225.04
944.84	225.03
945.13	225.01
945.43	224.99
945.73	224.98
946.03	224.97
946.33	224.96
946.62	224.95
946.92	224.95
947.22	224.95
947.52	224.97
947.82	224.98
948.11	224.97
948.41	224.94
948.71	224.90
949.01	224.91
949.31	224.90
949.60	224.89
949.90	224.91
950.20	224.91
950.50	224.91
950.79	224.90
951.09	224.92
951.39	224.92
951.69	224.90
951.98	224.92
952.28	224.93
952.58	224.93
952.87	224.93
953.17	224.95
953.47	224.93
953.76	224.93
954.06	224.91
954.36	224.89
954.66	224.89
954.95	224.93
955.25	224.94
955.55	224.95
955.84	224.93
956.14	224.94
956.44	224.95
956.73	224.93
957.03	224.94
957.32	224.93
957.62	224.93
957.92	224.96
958.21	224.94
958.51	225.09
958.81	225.11
959.10	225.12
959.40	225.14
959.69	225.15
959.99	225.17
960.29	225.17
960.58	225.17
960.88	225.22
961.17	225.20
961.47	225.21
961.76	225.19
962.06	225.22
962.36	225.20
962.65	225.21
962.95	225.22
963.24	225.20
963.54	225.21
963.83	225.22
964.13	225.21
964.42	225.19
964.72	225.08
965.01	225.08
965.31	225.07
965.60	225.04
965.90	225.12
966.19	225.09
966.49	225.09
966.78	225.09
967.08	225.08
967.37	225.08
967.67	225.06
967.96	225.08
968.26	225.07
968.55	225.09
968.85	225.08
969.14	225.08
969.43	225.08
969.73	225.06
970.02	225.06
970.32	225.05
970.61	225.03
970.91	225.00
971.20	224.98
971.49	224.97
971.79	224.98
972.08	224.89
972.38	224.91
972.67	224.90
972.96	224.92
973.26	224.89
973.55	224.93
973.85	224.92
974.14	224.91
974.43	224.92
974.73	224.90
975.02	224.88
975.31	224.88
975.61	224.88
975.90	224.87
976.19	224.86
976.49	224.87
976.78	224.88
977.07	224.88
977.37	224.90
977.66	224.91
977.95	224.89
978.24	224.90
978.54	224.92
978.83	224.92
979.12	224.91
979.42	224.91
979.71	224.88
980.00	224.88
980.29	224.89
980.59	224.86
980.88	224.90
981.17	224.89
981.46	224.90
981.76	224.90
982.05	224.94
982.34	224.95
982.63	224.94
982.93	224.94
983.22	224.97
983.51	224.98
983.80	224.99
984.09	225.01
984.39	225.00
984.68	224.98
984.97	224.99
985.26	224.98
985.55	224.99
985.85	224.97
986.14	224.99
986.43	225.00
986.72	225.00
987.01	224.96
987.30	224.96
987.59	224.95
987.89	224.96
988.18	224.91
988.47	224.90
988.76	224.89
989.05	224.88
989.34	224.86
989.63	224.89
989.92	224.87
990.22	224.85
990.51	224.84
990.80	224.83
991.09	224.84
991.38	224.86
991.67	224.85
991.96	224.83
992.25	224.83
992.54	224.81
992.83	224.81
993.12	224.81
993.41	224.83
993.70	224.89
993.99	224.90
994.28	224.93
994.58	224.95
994.87	224.94
995.16	224.94
995.45	224.93
995.74	224.88
996.03	224.90
996.32	224.92
996.61	224.95
996.90	224.95
997.19	224.95
997.48	224.94
997.77	224.93
998.06	224.94
998.34	224.93
998.63	224.93
998.92	224.93
999.21	224.95
999.50	224.95
999.79	224.90
1000.08	224.90
1000.37	224.90
1000.66	224.88
1000.95	224.91
1001.24	224.92
1001.53	224.94
1001.82	224.94
1002.11	224.91
1002.40	224.92
1002.68	224.94
1002.97	225.03
1003.26	225.01
1003.55	225.00
1003.84	225.01
1004.13	225.05
1004.42	225.04
1004.71	225.04
1004.99	225.03
1005.28	225.06
1005.57	225.05
1005.86	225.03
1006.15	225.02
1006.44	225.00
1006.72	225.02
1007.01	224.99
1007.30	224.99
1007.59	224.98
1007.88	224.98
1008.17	224.99
1008.45	224.96
1008.74	224.91
1009.03	224.85
1009.32	224.85
1009.60	224.85
1009.89	224.84
1010.18	224.79
1010.47	224.79
1010.76	224.79
1011.04	224.78
1011.33	224.78
1011.62	224.79
1011.91	224.80
1012.19	224.81
1012.48	224.82
1012.77	224.81
1013.05	224.86
1013.34	224.86
1013.63	224.85
1013.92	224.86
1014.20	224.85
1014.49	224.86
1014.78	224.87
1015.06	224.83
1015.35	224.83
1015.64	224.85
1015.92	224.87
1016.21	224.88
1016.50	224.89
1016.78	224.90
1017.07	224.91
1017.36	224.89
1017.64	224.87
1017.93	224.88
1018.22	224.86
1018.50	224.86
1018.79	224.85
1019.08	224.81
1019.36	224.81
1019.65	224.80
1019.93	224.84
1020.22	224.86
1020.51	224.92
1020.79	224.90
1021.08	224.64
1021.36	224.63
1021.65	224.84
1021.94	224.78
1022.22	224.91
1022.51	224.58
1022.79	225.48
1023.08	225.03
1023.36	226.37
1023.65	224.57
>>>>>End Processed Spectral Data<<<<<
