SpectraSuite Data File
++++++++++++++++++++++++++++++++++++
Date: Fri Oct 02 16:11:00 EDT 2015
User: lab3
Dark Spectrum Present: No
Reference Spectrum Present: No
Number of Sampled Component Spectra: 1
Spectrometers: USB2E7196
Integration Time (usec): 46000 (USB2E7196)
Spectra Averaged: 1200 (USB2E7196)
Boxcar Smoothing: 10 (USB2E7196)
Correct for Electrical Dark: No (USB2E7196)
Strobe/Lamp Enabled: No (USB2E7196)
Correct for Detector Non-linearity: No (USB2E7196)
Correct for Stray Light: No (USB2E7196)
Number of Pixels in Processed Spectrum: 2048
>>>>>Begin Processed Spectral Data<<<<<
339.09	0.00
339.48	214.90
339.86	216.42
340.24	217.72
340.63	219.03
341.01	222.44
341.39	221.90
341.78	223.30
342.16	224.46
342.54	224.83
342.93	213.29
343.31	224.06
343.69	224.61
344.07	225.08
344.46	225.51
344.84	225.91
345.22	226.13
345.60	226.39
345.99	226.58
346.37	226.72
346.75	226.83
347.13	226.92
347.52	227.00
347.90	227.10
348.28	227.14
348.66	227.19
349.05	227.19
349.43	227.25
349.81	227.31
350.19	227.37
350.57	227.44
350.96	227.52
351.34	227.62
351.72	227.71
352.10	227.81
352.48	227.89
352.87	227.95
353.25	228.02
353.63	228.08
354.01	228.14
354.39	228.22
354.77	228.31
355.15	228.42
355.54	228.46
355.92	228.49
356.30	228.57
356.68	228.72
357.06	228.79
357.44	228.83
357.82	228.90
358.20	229.01
358.58	229.07
358.97	229.13
359.35	229.21
359.73	229.28
360.11	229.32
360.49	229.37
360.87	229.42
361.25	229.47
361.63	229.56
362.01	229.61
362.39	229.64
362.77	229.67
363.15	229.70
363.53	229.73
363.91	229.76
364.29	229.78
364.67	229.68
365.05	229.71
365.43	229.74
365.81	229.77
366.19	229.79
366.57	229.85
366.95	229.84
367.33	229.81
367.71	229.81
368.09	229.83
368.47	229.83
368.85	229.81
369.23	229.83
369.61	229.76
369.99	229.77
370.37	229.77
370.75	229.84
371.13	229.80
371.51	229.75
371.89	229.73
372.27	229.69
372.65	229.67
373.03	229.63
373.41	229.59
373.78	229.53
374.16	229.43
374.54	229.36
374.92	229.31
375.30	229.27
375.68	229.20
376.06	229.16
376.44	229.10
376.82	229.06
377.19	229.00
377.57	228.95
377.95	228.87
378.33	228.80
378.71	228.64
379.09	228.59
379.47	228.55
379.84	228.49
380.22	228.43
380.60	228.35
380.98	228.31
381.36	228.25
381.73	228.19
382.11	228.16
382.49	228.12
382.87	228.05
383.25	228.02
383.62	228.13
384.00	228.05
384.38	228.02
384.76	228.00
385.13	228.01
385.51	227.97
385.89	227.92
386.27	227.89
386.64	227.86
387.02	227.83
387.40	227.78
387.78	227.76
388.15	227.73
388.53	227.70
388.91	227.66
389.29	227.62
389.66	227.62
390.04	227.58
390.42	227.57
390.79	227.57
391.17	227.54
391.55	227.38
391.92	227.38
392.30	227.38
392.68	227.35
393.05	227.33
393.43	227.33
393.81	227.34
394.18	227.33
394.56	227.34
394.94	227.36
395.31	227.37
395.69	227.41
396.06	227.44
396.44	227.47
396.82	227.49
397.19	227.59
397.57	227.60
397.95	227.63
398.32	227.62
398.70	227.67
399.07	227.73
399.45	227.77
399.82	227.82
400.20	227.85
400.58	227.90
400.95	227.92
401.33	228.00
401.70	228.15
402.08	228.27
402.45	228.35
402.83	228.48
403.20	228.58
403.58	228.67
403.95	228.81
404.33	228.96
404.71	229.11
405.08	229.32
405.46	229.48
405.83	229.68
406.21	229.87
406.58	230.08
406.96	230.31
407.33	230.56
407.70	230.83
408.08	231.21
408.45	231.54
408.83	231.90
409.20	232.22
409.58	232.52
409.95	232.90
410.33	233.35
410.70	233.75
411.08	234.24
411.45	234.76
411.82	235.29
412.20	235.89
412.57	236.60
412.95	237.14
413.32	237.87
413.69	238.63
414.07	239.43
414.44	240.29
414.82	241.18
415.19	242.20
415.56	243.26
415.94	244.34
416.31	245.56
416.68	246.78
417.06	248.21
417.43	249.53
417.81	251.07
418.18	252.62
418.55	254.33
418.93	256.09
419.30	257.94
419.67	259.91
420.04	261.92
420.42	264.03
420.79	266.48
421.16	268.95
421.54	271.44
421.91	274.06
422.28	276.78
422.66	279.70
423.03	282.50
423.40	285.41
423.77	288.55
424.15	291.78
424.52	295.12
424.89	298.76
425.26	302.36
425.64	305.71
426.01	309.48
426.38	313.34
426.75	317.32
427.13	321.41
427.50	325.69
427.87	330.13
428.24	334.61
428.61	338.94
428.99	343.61
429.36	348.74
429.73	353.64
430.10	358.54
430.47	363.55
430.85	368.73
431.22	374.28
431.59	380.01
431.96	385.59
432.33	391.81
432.70	397.73
433.08	404.72
433.45	411.32
433.82	417.84
434.19	425.11
434.56	432.30
434.93	439.23
435.30	446.10
435.68	453.85
436.05	461.47
436.42	469.03
436.79	475.92
437.16	483.36
437.53	491.33
437.90	499.30
438.27	507.13
438.64	515.56
439.01	523.21
439.38	530.21
439.75	536.91
440.13	544.46
440.50	551.67
440.87	557.39
441.24	563.64
441.61	570.42
441.98	575.33
442.35	581.17
442.72	587.11
443.09	592.73
443.46	596.25
443.83	598.79
444.20	600.86
444.57	604.06
444.94	605.76
445.31	607.54
445.68	609.00
446.05	609.99
446.42	609.37
446.79	608.57
447.16	607.80
447.53	607.08
447.90	604.40
448.27	601.78
448.64	598.00
449.01	595.27
449.37	590.16
449.74	585.53
450.11	579.62
450.48	573.17
450.85	566.74
451.22	561.23
451.59	555.86
451.96	551.01
452.33	544.03
452.70	537.85
453.07	530.34
453.43	522.88
453.80	515.64
454.17	508.73
454.54	502.37
454.91	495.22
455.28	488.54
455.65	482.25
456.02	475.63
456.38	470.27
456.75	463.44
457.12	457.94
457.49	452.40
457.86	447.18
458.23	442.65
458.59	437.63
458.96	432.48
459.33	427.94
459.70	423.32
460.07	419.84
460.43	415.72
460.80	411.92
461.17	408.60
461.54	405.01
461.91	401.67
462.27	398.26
462.64	395.52
463.01	392.35
463.38	389.17
463.74	386.29
464.11	383.76
464.48	381.49
464.85	379.00
465.21	377.13
465.58	375.05
465.95	372.64
466.32	370.73
466.68	368.87
467.05	366.97
467.42	365.13
467.78	363.15
468.15	361.32
468.52	359.99
468.88	358.19
469.25	356.54
469.62	355.25
469.98	353.82
470.35	352.55
470.72	351.41
471.08	350.24
471.45	349.25
471.82	348.17
472.18	347.00
472.55	346.25
472.92	345.31
473.28	344.58
473.65	343.78
474.02	343.05
474.38	342.41
474.75	342.07
475.11	341.57
475.48	341.34
475.85	341.09
476.21	340.98
476.58	340.90
476.94	341.05
477.31	341.13
477.67	341.24
478.04	341.48
478.41	341.77
478.77	342.21
479.14	342.49
479.50	343.01
479.87	343.70
480.23	344.40
480.60	345.07
480.96	345.76
481.33	346.76
481.69	347.73
482.06	348.73
482.42	349.63
482.79	350.76
483.15	352.05
483.52	353.54
483.88	354.95
484.25	356.47
484.61	358.05
484.98	359.77
485.34	361.69
485.71	363.70
486.07	365.87
486.44	368.01
486.80	370.41
487.17	372.90
487.53	375.62
487.90	378.46
488.26	381.55
488.62	384.79
488.99	388.06
489.35	391.49
489.72	395.22
490.08	399.17
490.44	403.22
490.81	407.45
491.17	411.76
491.54	416.39
491.90	421.17
492.26	426.30
492.63	431.68
492.99	437.29
493.36	443.06
493.72	449.14
494.08	455.41
494.45	462.08
494.81	468.97
495.17	476.03
495.54	483.47
495.90	491.25
496.26	499.21
496.63	507.40
496.99	515.95
497.35	524.83
497.72	534.02
498.08	543.43
498.44	553.15
498.80	563.42
499.17	573.96
499.53	584.85
499.89	596.11
500.26	607.54
500.62	619.25
500.98	631.61
501.34	644.13
501.71	657.17
502.07	670.37
502.43	684.09
502.79	698.12
503.16	712.55
503.52	727.18
503.88	742.25
504.24	757.75
504.60	773.44
504.97	789.63
505.33	806.15
505.69	823.60
506.05	841.35
506.41	859.07
506.78	876.96
507.14	895.35
507.50	914.13
507.86	933.28
508.22	952.67
508.59	971.92
508.95	991.99
509.31	1012.75
509.67	1034.16
510.03	1055.57
510.39	1076.97
510.75	1098.66
511.12	1120.58
511.48	1142.57
511.84	1164.64
512.20	1187.08
512.56	1210.30
512.92	1233.56
513.28	1256.39
513.64	1279.41
514.00	1302.84
514.37	1326.57
514.73	1350.36
515.09	1374.02
515.45	1397.98
515.81	1422.09
516.17	1446.22
516.53	1469.84
516.89	1493.33
517.25	1517.07
517.61	1540.71
517.97	1564.70
518.33	1587.99
518.69	1611.24
519.05	1635.08
519.41	1659.02
519.77	1683.15
520.13	1706.61
520.49	1729.99
520.85	1753.58
521.21	1776.89
521.57	1800.63
521.93	1823.76
522.29	1847.30
522.65	1870.29
523.01	1893.21
523.37	1915.74
523.73	1939.00
524.09	1961.89
524.45	1984.61
524.81	2006.75
525.17	2028.58
525.53	2050.02
525.89	2072.06
526.25	2094.06
526.61	2114.98
526.97	2136.03
527.33	2156.87
527.68	2177.44
528.04	2197.26
528.40	2216.10
528.76	2235.10
529.12	2253.36
529.48	2271.56
529.84	2287.84
530.20	2304.80
530.56	2321.13
530.91	2337.59
531.27	2353.67
531.63	2368.91
531.99	2383.75
532.35	2398.02
532.71	2412.41
533.07	2427.16
533.42	2439.96
533.78	2453.84
534.14	2467.88
534.50	2481.01
534.86	2494.01
535.21	2505.10
535.57	2516.70
535.93	2528.18
536.29	2538.34
536.65	2548.63
537.00	2558.00
537.36	2568.47
537.72	2577.49
538.08	2585.92
538.44	2593.80
538.79	2601.23
539.15	2607.98
539.51	2614.24
539.87	2619.72
540.22	2623.60
540.58	2627.50
540.94	2632.83
541.29	2636.33
541.65	2638.11
542.01	2639.38
542.37	2639.95
542.72	2641.69
543.08	2641.93
543.44	2642.65
543.79	2642.51
544.15	2641.45
544.51	2640.67
544.87	2638.73
545.22	2636.04
545.58	2632.77
545.94	2629.44
546.29	2624.93
546.65	2620.49
547.01	2615.95
547.36	2612.24
547.72	2608.18
548.07	2602.95
548.43	2596.26
548.79	2588.69
549.14	2582.35
549.50	2576.17
549.86	2569.06
550.21	2561.09
550.57	2553.71
550.92	2544.27
551.28	2535.53
551.64	2526.96
551.99	2518.10
552.35	2508.69
552.70	2499.62
553.06	2491.09
553.41	2481.97
553.77	2472.55
554.13	2462.81
554.48	2452.48
554.84	2440.92
555.19	2430.15
555.55	2419.10
555.90	2408.04
556.26	2397.48
556.61	2386.00
556.97	2373.16
557.32	2360.90
557.68	2348.27
558.03	2335.64
558.39	2324.16
558.74	2312.76
559.10	2299.98
559.45	2287.32
559.81	2275.27
560.16	2262.77
560.52	2250.17
560.87	2237.83
561.23	2224.80
561.58	2212.13
561.94	2199.01
562.29	2185.53
562.64	2172.61
563.00	2159.38
563.35	2146.75
563.71	2133.92
564.06	2120.89
564.42	2108.38
564.77	2095.41
565.12	2082.64
565.48	2069.83
565.83	2056.95
566.19	2044.26
566.54	2031.37
566.89	2017.66
567.25	2004.09
567.60	1991.52
567.96	1978.38
568.31	1963.95
568.66	1950.32
569.02	1937.71
569.37	1924.95
569.72	1912.76
570.08	1899.37
570.43	1885.65
570.78	1871.59
571.14	1857.15
571.49	1843.42
571.84	1830.20
572.20	1815.86
572.55	1801.71
572.90	1787.38
573.26	1773.03
573.61	1758.23
573.96	1743.85
574.31	1729.62
574.67	1715.51
575.02	1700.55
575.37	1685.50
575.72	1671.45
576.08	1657.70
576.43	1642.91
576.78	1628.61
577.13	1614.53
577.49	1600.96
577.84	1587.91
578.19	1574.04
578.54	1560.31
578.90	1546.14
579.25	1531.90
579.60	1519.04
579.95	1506.06
580.30	1492.91
580.66	1479.57
581.01	1466.17
581.36	1452.89
581.71	1440.54
582.06	1427.94
582.42	1415.64
582.77	1403.51
583.12	1391.32
583.47	1378.90
583.82	1366.66
584.17	1354.16
584.53	1341.25
584.88	1328.63
585.23	1315.69
585.58	1303.60
585.93	1291.67
586.28	1280.31
586.63	1268.95
586.98	1257.18
587.34	1245.52
587.69	1233.74
588.04	1222.29
588.39	1211.26
588.74	1200.31
589.09	1189.14
589.44	1177.68
589.79	1166.70
590.14	1155.88
590.49	1144.93
590.84	1134.17
591.19	1123.62
591.54	1112.96
591.89	1102.53
592.25	1092.27
592.60	1081.74
592.95	1071.46
593.30	1061.39
593.65	1051.17
594.00	1040.96
594.35	1031.38
594.70	1021.43
595.05	1012.24
595.40	1003.00
595.75	993.56
596.10	984.55
596.45	975.34
596.80	966.45
597.15	957.40
597.50	948.46
597.85	939.89
598.19	931.18
598.54	922.61
598.89	914.33
599.24	906.30
599.59	898.20
599.94	890.93
600.29	883.44
600.64	875.70
600.99	867.63
601.34	859.98
601.69	851.96
602.04	844.50
602.39	836.96
602.74	829.43
603.08	821.92
603.43	814.40
603.78	807.03
604.13	799.83
604.48	792.58
604.83	785.49
605.18	778.28
605.53	771.31
605.87	764.20
606.22	757.40
606.57	750.53
606.92	743.53
607.27	736.50
607.62	729.86
607.96	723.49
608.31	717.51
608.66	711.37
609.01	705.48
609.36	699.74
609.70	693.73
610.05	687.75
610.40	681.97
610.75	676.23
611.10	670.80
611.44	665.19
611.79	659.72
612.14	654.17
612.49	648.73
612.83	643.49
613.18	638.35
613.53	633.16
613.88	628.03
614.22	623.28
614.57	618.41
614.92	613.33
615.27	608.42
615.61	603.57
615.96	598.75
616.31	593.96
616.65	589.25
617.00	584.73
617.35	580.28
617.70	575.90
618.04	571.61
618.39	567.23
618.74	563.05
619.08	558.91
619.43	554.86
619.78	550.85
620.12	546.81
620.47	542.93
620.82	539.15
621.16	535.37
621.51	531.53
621.85	527.73
622.20	524.15
622.55	520.53
622.89	516.98
623.24	513.47
623.59	509.93
623.93	506.51
624.28	503.18
624.62	499.94
624.97	496.74
625.32	493.47
625.66	490.20
626.01	486.90
626.35	483.66
626.70	480.46
627.04	477.46
627.39	474.39
627.73	471.43
628.08	468.56
628.43	465.67
628.77	462.85
629.12	460.14
629.46	457.44
629.81	454.70
630.15	451.96
630.50	449.29
630.84	446.71
631.19	444.17
631.53	441.74
631.88	439.25
632.22	436.78
632.57	434.58
632.91	432.38
633.26	430.26
633.60	428.15
633.95	426.16
634.29	424.01
634.64	421.94
634.98	419.71
635.32	417.63
635.67	415.69
636.01	413.69
636.36	411.70
636.70	409.86
637.05	408.02
637.39	406.22
637.73	404.46
638.08	402.77
638.42	401.04
638.77	399.22
639.11	397.34
639.45	395.55
639.80	393.71
640.14	391.94
640.49	390.16
640.83	388.35
641.17	386.59
641.52	384.92
641.86	383.25
642.20	381.78
642.55	380.14
642.89	378.54
643.23	377.00
643.58	375.62
643.92	374.11
644.26	372.64
644.61	371.22
644.95	369.75
645.29	368.23
645.64	366.72
645.98	365.31
646.32	364.00
646.66	362.65
647.01	361.31
647.35	360.04
647.69	358.77
648.04	357.63
648.38	356.38
648.72	355.15
649.06	353.93
649.41	352.71
649.75	351.55
650.09	350.39
650.43	349.23
650.78	348.03
651.12	346.86
651.46	345.74
651.80	344.63
652.14	343.55
652.49	342.52
652.83	341.48
653.17	340.45
653.51	339.46
653.85	338.53
654.20	337.54
654.54	336.50
654.88	335.51
655.22	334.54
655.56	333.56
655.90	332.63
656.25	331.75
656.59	330.86
656.93	329.98
657.27	329.14
657.61	328.25
657.95	327.40
658.29	326.53
658.64	325.71
658.98	324.87
659.32	324.07
659.66	323.30
660.00	322.55
660.34	321.80
660.68	321.00
661.02	320.19
661.36	319.40
661.70	318.64
662.05	317.90
662.39	317.16
662.73	316.51
663.07	315.86
663.41	315.16
663.75	314.46
664.09	313.77
664.43	313.02
664.77	312.35
665.11	311.64
665.45	311.01
665.79	310.38
666.13	309.71
666.47	309.01
666.81	308.31
667.15	307.56
667.49	306.91
667.83	306.33
668.17	305.70
668.51	305.13
668.85	304.57
669.19	304.05
669.53	303.44
669.87	302.79
670.21	302.17
670.55	301.57
670.89	301.04
671.23	300.48
671.57	299.94
671.91	299.46
672.25	298.98
672.58	298.50
672.92	297.93
673.26	297.46
673.60	296.99
673.94	296.53
674.28	296.11
674.62	295.64
674.96	295.12
675.30	294.66
675.64	294.16
675.97	293.66
676.31	293.13
676.65	292.64
676.99	292.22
677.33	291.72
677.67	291.28
678.01	290.76
678.34	290.30
678.68	289.88
679.02	289.37
679.36	288.89
679.70	288.40
680.04	287.94
680.37	287.48
680.71	287.06
681.05	286.62
681.39	286.16
681.73	285.67
682.06	285.20
682.40	284.75
682.74	284.36
683.08	284.00
683.42	283.56
683.75	283.18
684.09	282.71
684.43	282.30
684.77	281.86
685.10	281.49
685.44	281.08
685.78	280.67
686.12	280.29
686.45	279.88
686.79	279.46
687.13	279.08
687.46	278.66
687.80	278.26
688.14	277.81
688.48	277.41
688.81	277.01
689.15	276.66
689.49	276.26
689.82	275.85
690.16	275.38
690.50	275.01
690.83	274.60
691.17	274.20
691.51	273.82
691.84	273.47
692.18	273.07
692.52	272.67
692.85	272.28
693.19	271.94
693.52	271.57
693.86	271.19
694.20	270.82
694.53	270.46
694.87	270.06
695.21	269.69
695.54	269.32
695.88	268.94
696.21	268.54
696.55	268.19
696.88	267.82
697.22	267.46
697.56	267.10
697.89	266.71
698.23	266.36
698.56	265.99
698.90	265.62
699.23	265.23
699.57	264.87
699.90	264.50
700.24	264.12
700.58	263.78
700.91	263.47
701.25	263.25
701.58	262.97
701.92	262.68
702.25	262.38
702.59	262.05
702.92	261.73
703.26	261.40
703.59	261.06
703.93	260.85
704.26	260.55
704.60	260.23
704.93	259.90
705.26	259.57
705.60	259.32
705.93	258.99
706.27	258.73
706.60	258.48
706.94	258.25
707.27	257.92
707.61	257.62
707.94	257.30
708.27	256.88
708.61	256.53
708.94	256.22
709.28	255.93
709.61	255.62
709.94	255.35
710.28	255.09
710.61	254.86
710.95	254.49
711.28	254.31
711.61	254.04
711.95	253.82
712.28	253.55
712.61	253.26
712.95	253.08
713.28	252.89
713.61	252.60
713.95	252.29
714.28	252.05
714.61	251.79
714.95	251.56
715.28	251.33
715.61	251.10
715.95	250.88
716.28	250.66
716.61	250.48
716.95	250.23
717.28	250.01
717.61	249.76
717.94	249.54
718.28	249.22
718.61	248.98
718.94	248.74
719.27	248.53
719.61	248.34
719.94	248.09
720.27	247.80
720.60	247.59
720.94	247.40
721.27	247.21
721.60	247.02
721.93	246.81
722.27	246.65
722.60	246.47
722.93	246.25
723.26	246.07
723.59	245.85
723.93	245.68
724.26	245.49
724.59	245.31
724.92	245.15
725.25	245.01
725.59	244.83
725.92	244.69
726.25	244.52
726.58	244.35
726.91	244.18
727.24	244.03
727.57	243.87
727.91	243.68
728.24	243.53
728.57	243.36
728.90	243.22
729.23	243.01
729.56	242.90
729.89	242.74
730.22	242.56
730.55	242.41
730.89	242.25
731.22	242.10
731.55	241.95
731.88	241.80
732.21	241.63
732.54	241.49
732.87	241.34
733.20	241.21
733.53	241.05
733.86	240.91
734.19	240.75
734.52	240.63
734.85	240.59
735.18	240.43
735.51	240.35
735.84	240.23
736.17	240.13
736.50	239.94
736.83	239.96
737.16	239.84
737.49	239.73
737.82	239.60
738.15	239.49
738.48	239.37
738.81	239.24
739.14	239.11
739.47	238.99
739.80	238.86
740.13	238.75
740.46	238.62
740.79	238.50
741.12	238.39
741.45	238.24
741.78	238.04
742.11	237.95
742.44	237.82
742.77	237.70
743.10	237.58
743.43	237.46
743.75	237.21
744.08	237.31
744.41	237.19
744.74	237.08
745.07	236.95
745.40	236.87
745.73	236.83
746.06	236.73
746.39	236.65
746.71	236.55
747.04	236.43
747.37	236.33
747.70	236.26
748.03	236.19
748.36	236.13
748.68	236.04
749.01	235.91
749.34	235.83
749.67	235.74
750.00	235.67
750.33	235.69
750.65	235.61
750.98	235.33
751.31	235.25
751.64	235.18
751.97	235.16
752.29	235.06
752.62	234.92
752.95	234.82
753.28	234.71
753.60	234.62
753.93	234.57
754.26	234.50
754.59	234.37
754.91	234.26
755.24	234.16
755.57	234.14
755.90	234.06
756.22	233.96
756.55	233.86
756.88	233.76
757.20	233.60
757.53	233.48
757.86	233.41
758.19	233.34
758.51	233.27
758.84	233.12
759.17	233.03
759.49	232.96
759.82	232.95
760.15	232.90
760.47	232.84
760.80	232.74
761.13	232.69
761.45	232.64
761.78	232.58
762.11	232.52
762.43	232.39
762.76	232.33
763.08	232.29
763.41	232.24
763.74	232.19
764.06	232.13
764.39	232.08
764.71	232.02
765.04	231.95
765.37	231.89
765.69	231.86
766.02	231.82
766.34	231.76
766.67	231.66
767.00	231.63
767.32	231.65
767.65	231.67
767.97	231.61
768.30	231.57
768.62	231.52
768.95	231.46
769.27	231.42
769.60	231.38
769.92	231.31
770.25	231.25
770.57	231.19
770.90	231.15
771.22	231.10
771.55	231.05
771.87	231.01
772.20	230.97
772.52	231.03
772.85	231.13
773.17	231.11
773.50	231.07
773.82	231.00
774.15	230.90
774.47	230.79
774.80	230.73
775.12	230.69
775.45	230.65
775.77	230.63
776.09	230.60
776.42	230.58
776.74	230.58
777.07	230.55
777.39	230.52
777.72	230.48
778.04	230.46
778.36	230.42
778.69	230.39
779.01	230.38
779.33	230.24
779.66	230.07
779.98	230.02
780.31	229.99
780.63	230.01
780.95	230.02
781.28	229.99
781.60	229.96
781.92	229.94
782.25	229.91
782.57	229.88
782.89	229.84
783.22	229.81
783.54	229.75
783.86	229.73
784.19	229.70
784.51	229.72
784.83	229.68
785.16	229.64
785.48	229.62
785.80	229.58
786.12	229.58
786.45	229.55
786.77	229.54
787.09	229.51
787.42	229.44
787.74	229.42
788.06	229.39
788.38	229.38
788.71	229.35
789.03	229.34
789.35	229.34
789.67	229.31
789.99	229.30
790.32	229.27
790.64	229.27
790.96	229.36
791.28	229.30
791.61	229.28
791.93	229.27
792.25	229.25
792.57	229.32
792.89	229.27
793.21	229.26
793.54	229.23
793.86	229.21
794.18	229.20
794.50	229.16
794.82	229.14
795.14	229.14
795.47	229.13
795.79	229.12
796.11	229.08
796.43	229.05
796.75	229.02
797.07	229.01
797.39	228.98
797.71	228.85
798.04	228.84
798.36	228.83
798.68	228.81
799.00	228.80
799.32	228.72
799.64	228.73
799.96	228.70
800.28	228.71
800.60	228.69
800.92	228.67
801.24	228.65
801.56	228.64
801.89	228.61
802.21	228.58
802.53	228.54
802.85	228.56
803.17	228.61
803.49	228.56
803.81	228.53
804.13	228.52
804.45	228.50
804.77	228.50
805.09	228.48
805.41	228.46
805.73	228.42
806.05	228.37
806.37	228.35
806.69	228.32
807.01	228.30
807.33	228.29
807.65	228.24
807.97	228.29
808.28	228.26
808.60	228.25
808.92	228.23
809.24	228.29
809.56	228.25
809.88	228.19
810.20	228.20
810.52	228.22
810.84	228.19
811.16	228.17
811.48	228.15
811.80	228.18
812.12	228.17
812.43	228.20
812.75	228.20
813.07	228.18
813.39	228.18
813.71	228.15
814.03	228.14
814.35	228.13
814.67	228.07
814.98	228.06
815.30	228.05
815.62	228.02
815.94	227.94
816.26	227.94
816.58	227.91
816.89	227.91
817.21	227.87
817.53	227.87
817.85	227.87
818.17	227.85
818.48	227.78
818.80	227.80
819.12	227.76
819.44	227.74
819.76	227.73
820.07	227.72
820.39	227.72
820.71	227.72
821.03	227.73
821.34	227.71
821.66	227.72
821.98	227.73
822.30	227.71
822.61	227.78
822.93	227.76
823.25	227.76
823.57	227.75
823.88	227.76
824.20	227.75
824.52	227.77
824.83	227.77
825.15	227.77
825.47	227.75
825.79	227.75
826.10	227.74
826.42	227.73
826.74	227.73
827.05	227.73
827.37	227.72
827.69	227.70
828.00	227.70
828.32	227.69
828.64	227.67
828.95	227.74
829.27	227.70
829.58	227.70
829.90	227.72
830.22	227.72
830.53	227.71
830.85	227.70
831.17	227.65
831.48	227.64
831.80	227.64
832.11	227.61
832.43	227.59
832.75	227.58
833.06	227.66
833.38	227.62
833.69	227.60
834.01	227.60
834.32	227.60
834.64	227.58
834.96	227.57
835.27	227.57
835.59	227.51
835.90	227.48
836.22	227.46
836.53	227.43
836.85	227.41
837.16	227.52
837.48	227.52
837.79	227.56
838.11	227.56
838.42	227.56
838.74	227.58
839.05	227.58
839.37	227.57
839.68	227.49
840.00	227.49
840.31	227.50
840.63	227.48
840.94	227.48
841.26	227.47
841.57	227.46
841.88	227.47
842.20	227.45
842.51	227.43
842.83	227.43
843.14	227.55
843.46	227.54
843.77	227.46
844.08	227.45
844.40	227.40
844.71	227.39
845.03	227.37
845.34	227.37
845.65	227.35
845.97	227.35
846.28	227.35
846.60	227.35
846.91	227.33
847.22	227.32
847.54	227.34
847.85	227.34
848.16	227.33
848.48	227.30
848.79	227.35
849.10	227.36
849.42	227.37
849.73	227.25
850.04	227.25
850.36	227.19
850.67	227.22
850.98	227.22
851.30	227.23
851.61	227.22
851.92	227.22
852.23	227.26
852.55	227.26
852.86	227.26
853.17	227.27
853.49	227.28
853.80	227.30
854.11	227.31
854.42	227.32
854.74	227.30
855.05	227.30
855.36	227.24
855.67	227.24
855.99	227.23
856.30	227.38
856.61	227.37
856.92	227.38
857.23	227.37
857.55	227.36
857.86	227.35
858.17	227.38
858.48	227.35
858.79	227.32
859.11	227.33
859.42	227.32
859.73	227.30
860.04	227.31
860.35	227.28
860.66	227.25
860.98	227.24
861.29	227.26
861.60	227.25
861.91	227.28
862.22	227.27
862.53	227.25
862.84	227.11
863.16	227.12
863.47	227.10
863.78	227.08
864.09	227.09
864.40	227.09
864.71	227.08
865.02	227.10
865.33	227.08
865.64	227.06
865.95	227.06
866.27	227.13
866.58	227.10
866.89	227.12
867.20	227.12
867.51	227.10
867.82	227.10
868.13	227.14
868.44	227.11
868.75	227.12
869.06	227.12
869.37	227.13
869.68	227.11
869.99	227.14
870.30	227.14
870.61	227.15
870.92	227.14
871.23	227.13
871.54	227.15
871.85	227.18
872.16	227.20
872.47	227.19
872.78	227.12
873.09	227.13
873.40	227.11
873.71	227.12
874.02	227.13
874.33	227.11
874.64	227.09
874.95	227.10
875.26	227.08
875.56	227.06
875.87	227.06
876.18	227.04
876.49	227.15
876.80	227.14
877.11	227.12
877.42	227.12
877.73	227.11
878.04	227.09
878.35	227.08
878.66	227.08
878.96	227.08
879.27	227.08
879.58	227.07
879.89	227.06
880.20	227.10
880.51	227.09
880.82	227.10
881.12	227.11
881.43	227.09
881.74	227.08
882.05	227.08
882.36	227.09
882.67	227.10
882.97	226.96
883.28	226.95
883.59	226.96
883.90	226.97
884.21	226.98
884.51	226.98
884.82	226.97
885.13	226.97
885.44	226.97
885.74	226.97
886.05	226.97
886.36	226.98
886.67	226.93
886.98	226.99
887.28	227.00
887.59	226.99
887.90	227.00
888.20	227.00
888.51	227.01
888.82	226.99
889.13	227.00
889.43	227.11
889.74	227.10
890.05	227.10
890.35	227.08
890.66	227.06
890.97	227.05
891.28	227.03
891.58	227.03
891.89	227.04
892.20	227.03
892.50	227.01
892.81	227.00
893.12	227.00
893.42	226.95
893.73	226.95
894.04	226.95
894.34	226.96
894.65	226.96
894.95	226.96
895.26	226.97
895.57	227.02
895.87	226.89
896.18	226.91
896.48	226.92
896.79	226.93
897.10	226.95
897.40	226.95
897.71	226.97
898.01	226.96
898.32	226.97
898.63	226.96
898.93	226.97
899.24	226.99
899.54	226.98
899.85	226.99
900.15	226.99
900.46	226.98
900.76	226.99
901.07	226.99
901.38	226.98
901.68	227.00
901.99	226.94
902.29	226.95
902.60	226.93
902.90	226.92
903.21	226.91
903.51	226.91
903.82	226.94
904.12	226.93
904.43	226.95
904.73	226.93
905.03	226.94
905.34	227.06
905.64	227.04
905.95	227.04
906.25	227.04
906.56	227.02
906.86	227.01
907.17	227.00
907.47	227.00
907.77	226.99
908.08	226.96
908.38	226.97
908.69	226.98
908.99	227.00
909.30	227.01
909.60	227.02
909.90	227.02
910.21	226.98
910.51	226.96
910.81	226.96
911.12	226.98
911.42	226.97
911.73	226.84
912.03	226.85
912.33	226.87
912.64	226.85
912.94	226.84
913.24	226.83
913.55	226.82
913.85	226.82
914.15	226.84
914.46	226.86
914.76	226.84
915.06	226.84
915.37	226.81
915.67	226.79
915.97	226.79
916.27	226.77
916.58	226.78
916.88	226.78
917.18	226.78
917.49	226.85
917.79	226.84
918.09	226.86
918.39	226.90
918.70	226.88
919.00	226.88
919.30	226.94
919.60	226.94
919.91	226.93
920.21	226.92
920.51	226.89
920.81	226.87
921.12	226.90
921.42	226.90
921.72	226.91
922.02	226.93
922.32	226.94
922.63	226.95
922.93	227.01
923.23	227.01
923.53	227.00
923.83	226.92
924.13	226.94
924.44	226.94
924.74	226.95
925.04	226.98
925.34	226.99
925.64	226.93
925.94	226.93
926.24	227.00
926.55	227.00
926.85	227.01
927.15	227.01
927.45	227.01
927.75	227.00
928.05	227.00
928.35	226.98
928.65	227.00
928.95	227.01
929.26	226.95
929.56	226.98
929.86	226.99
930.16	226.98
930.46	226.97
930.76	226.97
931.06	226.91
931.36	226.87
931.66	226.88
931.96	226.89
932.26	226.90
932.56	226.84
932.86	226.83
933.16	226.84
933.46	226.83
933.76	226.81
934.06	226.83
934.36	226.87
934.66	226.87
934.96	226.84
935.26	226.83
935.56	226.84
935.86	226.80
936.16	226.78
936.46	226.77
936.76	226.76
937.06	226.74
937.36	226.75
937.66	226.76
937.96	226.75
938.26	226.73
938.56	226.72
938.86	226.74
939.16	226.78
939.46	226.80
939.76	226.81
940.06	226.79
940.35	226.79
940.65	226.72
940.95	226.73
941.25	226.71
941.55	226.70
941.85	226.70
942.15	226.72
942.45	226.77
942.75	226.76
943.04	226.77
943.34	226.80
943.64	226.79
943.94	226.77
944.24	226.78
944.54	226.79
944.84	226.78
945.13	226.76
945.43	226.73
945.73	226.72
946.03	226.71
946.33	226.71
946.62	226.68
946.92	226.69
947.22	226.70
947.52	226.71
947.82	226.73
948.11	226.72
948.41	226.68
948.71	226.63
949.01	226.64
949.31	226.63
949.60	226.62
949.90	226.64
950.20	226.65
950.50	226.63
950.79	226.62
951.09	226.63
951.39	226.63
951.69	226.62
951.98	226.63
952.28	226.64
952.58	226.64
952.87	226.64
953.17	226.65
953.47	226.62
953.76	226.61
954.06	226.59
954.36	226.58
954.66	226.59
954.95	226.63
955.25	226.65
955.55	226.65
955.84	226.62
956.14	226.62
956.44	226.62
956.73	226.61
957.03	226.63
957.32	226.64
957.62	226.63
957.92	226.67
958.21	226.65
958.51	226.79
958.81	226.81
959.10	226.82
959.40	226.85
959.69	226.86
959.99	226.88
960.29	226.88
960.58	226.87
960.88	226.91
961.17	226.90
961.47	226.89
961.76	226.88
962.06	226.92
962.36	226.90
962.65	226.91
962.95	226.91
963.24	226.90
963.54	226.89
963.83	226.91
964.13	226.89
964.42	226.87
964.72	226.76
965.01	226.75
965.31	226.74
965.60	226.71
965.90	226.79
966.19	226.76
966.49	226.77
966.78	226.76
967.08	226.76
967.37	226.75
967.67	226.73
967.96	226.75
968.26	226.73
968.55	226.75
968.85	226.73
969.14	226.74
969.43	226.74
969.73	226.72
970.02	226.71
970.32	226.70
970.61	226.69
970.91	226.65
971.20	226.63
971.49	226.63
971.79	226.64
972.08	226.55
972.38	226.57
972.67	226.56
972.96	226.58
973.26	226.54
973.55	226.56
973.85	226.56
974.14	226.56
974.43	226.57
974.73	226.55
975.02	226.55
975.31	226.55
975.61	226.54
975.90	226.54
976.19	226.54
976.49	226.54
976.78	226.55
977.07	226.56
977.37	226.58
977.66	226.59
977.95	226.57
978.24	226.58
978.54	226.61
978.83	226.61
979.12	226.59
979.42	226.60
979.71	226.59
980.00	226.58
980.29	226.58
980.59	226.57
980.88	226.61
981.17	226.61
981.46	226.61
981.76	226.62
982.05	226.64
982.34	226.65
982.63	226.66
982.93	226.66
983.22	226.69
983.51	226.70
983.80	226.72
984.09	226.73
984.39	226.72
984.68	226.71
984.97	226.71
985.26	226.73
985.55	226.74
985.85	226.71
986.14	226.73
986.43	226.75
986.72	226.74
987.01	226.70
987.30	226.70
987.59	226.69
987.89	226.69
988.18	226.66
988.47	226.65
988.76	226.64
989.05	226.63
989.34	226.61
989.63	226.63
989.92	226.61
990.22	226.58
990.51	226.58
990.80	226.57
991.09	226.58
991.38	226.59
991.67	226.57
991.96	226.57
992.25	226.57
992.54	226.54
992.83	226.54
993.12	226.54
993.41	226.57
993.70	226.63
993.99	226.64
994.28	226.66
994.58	226.69
994.87	226.68
995.16	226.67
995.45	226.66
995.74	226.61
996.03	226.63
996.32	226.67
996.61	226.70
996.90	226.69
997.19	226.68
997.48	226.67
997.77	226.66
998.06	226.67
998.34	226.67
998.63	226.67
998.92	226.67
999.21	226.69
999.50	226.69
999.79	226.65
1000.08	226.65
1000.37	226.64
1000.66	226.63
1000.95	226.66
1001.24	226.67
1001.53	226.69
1001.82	226.69
1002.11	226.67
1002.40	226.68
1002.68	226.71
1002.97	226.80
1003.26	226.79
1003.55	226.77
1003.84	226.79
1004.13	226.83
1004.42	226.82
1004.71	226.83
1004.99	226.81
1005.28	226.83
1005.57	226.82
1005.86	226.80
1006.15	226.79
1006.44	226.76
1006.72	226.78
1007.01	226.74
1007.30	226.74
1007.59	226.72
1007.88	226.71
1008.17	226.72
1008.45	226.69
1008.74	226.63
1009.03	226.56
1009.32	226.56
1009.60	226.57
1009.89	226.56
1010.18	226.50
1010.47	226.49
1010.76	226.50
1011.04	226.50
1011.33	226.49
1011.62	226.49
1011.91	226.51
1012.19	226.52
1012.48	226.53
1012.77	226.51
1013.05	226.56
1013.34	226.57
1013.63	226.56
1013.92	226.58
1014.20	226.56
1014.49	226.57
1014.78	226.59
1015.06	226.54
1015.35	226.54
1015.64	226.55
1015.92	226.57
1016.21	226.58
1016.50	226.58
1016.78	226.59
1017.07	226.61
1017.36	226.57
1017.64	226.56
1017.93	226.57
1018.22	226.56
1018.50	226.56
1018.79	226.56
1019.08	226.52
1019.36	226.53
1019.65	226.52
1019.93	226.55
1020.22	226.58
1020.51	226.64
1020.79	226.62
1021.08	226.43
1021.36	226.45
1021.65	226.54
1021.94	226.54
1022.22	226.65
1022.51	226.35
1022.79	227.19
1023.08	226.85
1023.36	227.99
1023.65	226.30
>>>>>End Processed Spectral Data<<<<<
