SpectraSuite Data File
++++++++++++++++++++++++++++++++++++
Date: Sat Oct 03 07:29:04 EDT 2015
User: lab3
Dark Spectrum Present: No
Reference Spectrum Present: No
Number of Sampled Component Spectra: 1
Spectrometers: USB2E7196
Integration Time (usec): 46000 (USB2E7196)
Spectra Averaged: 12000 (USB2E7196)
Boxcar Smoothing: 10 (USB2E7196)
Correct for Electrical Dark: No (USB2E7196)
Strobe/Lamp Enabled: No (USB2E7196)
Correct for Detector Non-linearity: No (USB2E7196)
Correct for Stray Light: No (USB2E7196)
Number of Pixels in Processed Spectrum: 2048
>>>>>Begin Processed Spectral Data<<<<<
339.09	0.00
339.48	213.81
339.86	215.26
340.24	216.65
340.63	218.12
341.01	221.34
341.39	220.78
341.78	222.13
342.16	223.38
342.54	223.76
342.93	212.25
343.31	222.98
343.69	223.51
344.07	223.98
344.46	224.41
344.84	224.80
345.22	225.02
345.60	225.28
345.99	225.47
346.37	225.61
346.75	225.71
347.13	225.79
347.52	225.86
347.90	225.95
348.28	225.99
348.66	226.05
349.05	226.04
349.43	226.10
349.81	226.15
350.19	226.21
350.57	226.27
350.96	226.35
351.34	226.44
351.72	226.54
352.10	226.64
352.48	226.71
352.87	226.75
353.25	226.82
353.63	226.88
354.01	226.94
354.39	227.02
354.77	227.09
355.15	227.19
355.54	227.24
355.92	227.27
356.30	227.34
356.68	227.49
357.06	227.57
357.44	227.61
357.82	227.67
358.20	227.79
358.58	227.85
358.97	227.91
359.35	228.00
359.73	228.08
360.11	228.13
360.49	228.19
360.87	228.24
361.25	228.30
361.63	228.39
362.01	228.45
362.39	228.48
362.77	228.53
363.15	228.55
363.53	228.59
363.91	228.62
364.29	228.65
364.67	228.55
365.05	228.58
365.43	228.61
365.81	228.64
366.19	228.66
366.57	228.72
366.95	228.72
367.33	228.69
367.71	228.68
368.09	228.71
368.47	228.70
368.85	228.69
369.23	228.70
369.61	228.64
369.99	228.66
370.37	228.66
370.75	228.74
371.13	228.70
371.51	228.66
371.89	228.64
372.27	228.62
372.65	228.59
373.03	228.55
373.41	228.50
373.78	228.45
374.16	228.35
374.54	228.26
374.92	228.22
375.30	228.18
375.68	228.11
376.06	228.07
376.44	228.01
376.82	227.97
377.19	227.93
377.57	227.88
377.95	227.78
378.33	227.72
378.71	227.56
379.09	227.52
379.47	227.48
379.84	227.42
380.22	227.36
380.60	227.29
380.98	227.24
381.36	227.19
381.73	227.13
382.11	227.11
382.49	227.06
382.87	227.00
383.25	226.96
383.62	227.06
384.00	226.99
384.38	226.95
384.76	226.94
385.13	226.94
385.51	226.90
385.89	226.85
386.27	226.81
386.64	226.80
387.02	226.75
387.40	226.71
387.78	226.69
388.15	226.66
388.53	226.63
388.91	226.60
389.29	226.57
389.66	226.57
390.04	226.53
390.42	226.53
390.79	226.52
391.17	226.50
391.55	226.35
391.92	226.34
392.30	226.34
392.68	226.30
393.05	226.27
393.43	226.28
393.81	226.28
394.18	226.27
394.56	226.27
394.94	226.30
395.31	226.30
395.69	226.35
396.06	226.38
396.44	226.40
396.82	226.42
397.19	226.51
397.57	226.52
397.95	226.56
398.32	226.56
398.70	226.61
399.07	226.67
399.45	226.71
399.82	226.76
400.20	226.80
400.58	226.86
400.95	226.87
401.33	226.96
401.70	227.12
402.08	227.22
402.45	227.31
402.83	227.43
403.20	227.55
403.58	227.64
403.95	227.78
404.33	227.93
404.71	228.08
405.08	228.29
405.46	228.46
405.83	228.65
406.21	228.85
406.58	229.07
406.96	229.29
407.33	229.54
407.70	229.83
408.08	230.22
408.45	230.55
408.83	230.92
409.20	231.25
409.58	231.55
409.95	231.96
410.33	232.41
410.70	232.83
411.08	233.32
411.45	233.85
411.82	234.38
412.20	234.99
412.57	235.72
412.95	236.28
413.32	237.03
413.69	237.79
414.07	238.59
414.44	239.47
414.82	240.36
415.19	241.41
415.56	242.47
415.94	243.57
416.31	244.81
416.68	246.05
417.06	247.49
417.43	248.83
417.81	250.38
418.18	251.96
418.55	253.68
418.93	255.47
419.30	257.34
419.67	259.33
420.04	261.36
420.42	263.48
420.79	265.94
421.16	268.42
421.54	270.94
421.91	273.58
422.28	276.31
422.66	279.25
423.03	282.06
423.40	285.01
423.77	288.17
424.15	291.40
424.52	294.77
424.89	298.42
425.26	302.04
425.64	305.41
426.01	309.19
426.38	313.07
426.75	317.06
427.13	321.15
427.50	325.44
427.87	329.90
428.24	334.40
428.61	338.73
428.99	343.41
429.36	348.53
429.73	353.44
430.10	358.35
430.47	363.37
430.85	368.53
431.22	374.07
431.59	379.77
431.96	385.34
432.33	391.52
432.70	397.40
433.08	404.34
433.45	410.91
433.82	417.38
434.19	424.60
434.56	431.73
434.93	438.61
435.30	445.41
435.68	453.10
436.05	460.63
436.42	468.13
436.79	474.98
437.16	482.37
437.53	490.28
437.90	498.20
438.27	505.95
438.64	514.31
439.01	521.90
439.38	528.84
439.75	535.51
440.13	543.03
440.50	550.19
440.87	555.86
441.24	562.07
441.61	568.84
441.98	573.76
442.35	579.60
442.72	585.56
443.09	591.24
443.46	594.81
443.83	597.40
444.20	599.54
444.57	602.77
444.94	604.57
445.31	606.44
445.68	608.00
446.05	609.12
446.42	608.64
446.79	607.97
447.16	607.36
447.53	606.79
447.90	604.26
448.27	601.83
448.64	598.21
449.01	595.66
449.37	590.70
449.74	586.21
450.11	580.46
450.48	574.17
450.85	567.88
451.22	562.51
451.59	557.27
451.96	552.53
452.33	545.67
452.70	539.59
453.07	532.18
453.43	524.79
453.80	517.63
454.17	510.77
454.54	504.47
454.91	497.35
455.28	490.69
455.65	484.42
456.02	477.81
456.38	472.49
456.75	465.64
457.12	460.12
457.49	454.55
457.86	449.32
458.23	444.75
458.59	439.68
458.96	434.48
459.33	429.92
459.70	425.26
460.07	421.74
460.43	417.59
460.80	413.72
461.17	410.36
461.54	406.71
461.91	403.30
462.27	399.84
462.64	397.05
463.01	393.83
463.38	390.58
463.74	387.65
464.11	385.06
464.48	382.75
464.85	380.22
465.21	378.33
465.58	376.19
465.95	373.73
466.32	371.78
466.68	369.86
467.05	367.94
467.42	366.06
467.78	364.02
468.15	362.14
468.52	360.78
468.88	358.93
469.25	357.25
469.62	355.92
469.98	354.45
470.35	353.15
470.72	351.97
471.08	350.77
471.45	349.75
471.82	348.63
472.18	347.43
472.55	346.66
472.92	345.67
473.28	344.91
473.65	344.08
474.02	343.29
474.38	342.63
474.75	342.23
475.11	341.68
475.48	341.42
475.85	341.14
476.21	340.98
476.58	340.87
476.94	340.98
477.31	341.03
477.67	341.11
478.04	341.30
478.41	341.57
478.77	341.98
479.14	342.24
479.50	342.73
479.87	343.39
480.23	344.04
480.60	344.69
480.96	345.35
481.33	346.33
481.69	347.30
482.06	348.27
482.42	349.16
482.79	350.26
483.15	351.54
483.52	353.00
483.88	354.40
484.25	355.90
484.61	357.47
484.98	359.17
485.34	361.07
485.71	363.05
486.07	365.19
486.44	367.32
486.80	369.70
487.17	372.16
487.53	374.87
487.90	377.69
488.26	380.77
488.62	384.02
488.99	387.27
489.35	390.69
489.72	394.40
490.08	398.31
490.44	402.34
490.81	406.54
491.17	410.84
491.54	415.46
491.90	420.23
492.26	425.33
492.63	430.67
492.99	436.24
493.36	442.02
493.72	448.09
494.08	454.31
494.45	460.93
494.81	467.78
495.17	474.83
495.54	482.28
495.90	490.02
496.26	497.95
496.63	506.12
496.99	514.59
497.35	523.48
497.72	532.65
498.08	542.03
498.44	551.72
498.80	561.99
499.17	572.52
499.53	583.39
499.89	594.62
500.26	606.09
500.62	617.85
500.98	630.24
501.34	642.83
501.71	655.92
502.07	669.20
502.43	683.04
502.79	697.09
503.16	711.60
503.52	726.31
503.88	741.44
504.24	757.03
504.60	772.85
504.97	789.15
505.33	805.87
505.69	823.51
506.05	841.49
506.41	859.40
506.78	877.51
507.14	896.11
507.50	915.17
507.86	934.58
508.22	954.21
508.59	973.67
508.95	993.93
509.31	1014.94
509.67	1036.65
510.03	1058.37
510.39	1080.16
510.75	1102.13
511.12	1124.38
511.48	1146.80
511.84	1169.28
512.20	1192.14
512.56	1215.85
512.92	1239.61
513.28	1263.00
513.64	1286.62
514.00	1310.72
514.37	1335.12
514.73	1359.51
515.09	1383.78
515.45	1408.36
515.81	1433.13
516.17	1458.05
516.53	1482.51
516.89	1506.86
517.25	1531.36
517.61	1555.74
517.97	1580.58
518.33	1604.96
518.69	1629.26
519.05	1654.02
519.41	1679.03
519.77	1704.35
520.13	1728.91
520.49	1753.38
520.85	1778.14
521.21	1802.55
521.57	1827.28
521.93	1851.52
522.29	1876.28
522.65	1900.51
523.01	1924.72
523.37	1948.53
523.73	1973.02
524.09	1997.23
524.45	2021.24
524.81	2044.88
525.17	2068.39
525.53	2091.33
525.89	2114.69
526.25	2138.03
526.61	2160.39
526.97	2182.91
527.33	2205.28
527.68	2227.43
528.04	2248.77
528.40	2269.21
528.76	2289.81
529.12	2310.00
529.48	2329.90
529.84	2347.93
530.20	2366.57
530.56	2384.64
530.91	2402.83
531.27	2420.71
531.63	2437.71
531.99	2454.19
532.35	2470.03
532.71	2486.05
533.07	2502.73
533.42	2517.60
533.78	2533.43
534.14	2549.44
534.50	2564.56
534.86	2579.41
535.21	2592.35
535.57	2605.80
535.93	2619.03
536.29	2631.14
536.65	2643.02
537.00	2654.15
537.36	2666.27
537.72	2676.99
538.08	2687.20
538.44	2696.72
538.79	2705.84
539.15	2714.20
539.51	2722.23
539.87	2729.63
540.22	2734.94
540.58	2740.29
540.94	2746.81
541.29	2751.83
541.65	2755.13
542.01	2757.53
542.37	2759.37
542.72	2762.53
543.08	2764.00
543.44	2766.05
543.79	2767.04
544.15	2767.21
544.51	2767.79
544.87	2767.23
545.22	2765.99
545.58	2764.04
545.94	2762.08
546.29	2758.81
546.65	2755.50
547.01	2752.10
547.36	2749.41
547.72	2746.97
548.07	2742.72
548.43	2737.07
548.79	2730.38
549.14	2724.95
549.50	2719.93
549.86	2713.89
550.21	2706.68
550.57	2700.47
550.92	2691.98
551.28	2684.04
551.64	2676.47
551.99	2668.40
552.35	2659.73
552.70	2651.26
553.06	2643.16
553.41	2634.42
553.77	2625.46
554.13	2616.47
554.48	2606.67
554.84	2595.59
555.19	2584.93
555.55	2574.35
555.90	2563.82
556.26	2553.89
556.61	2542.88
556.97	2530.21
557.32	2518.08
557.68	2505.89
558.03	2493.38
558.39	2482.11
558.74	2471.14
559.10	2458.37
559.45	2445.86
559.81	2433.96
560.16	2421.44
560.52	2409.16
560.87	2397.30
561.23	2384.59
561.58	2371.91
561.94	2358.90
562.29	2345.38
562.64	2332.55
563.00	2319.43
563.35	2306.70
563.71	2293.80
564.06	2280.79
564.42	2268.52
564.77	2255.65
565.12	2242.67
565.48	2229.70
565.83	2216.65
566.19	2203.72
566.54	2190.82
566.89	2176.77
567.25	2162.84
567.60	2150.30
567.96	2136.80
568.31	2121.98
568.66	2107.86
569.02	2094.96
569.37	2081.98
569.72	2069.49
570.08	2055.76
570.43	2041.68
570.78	2027.49
571.14	2012.54
571.49	1998.22
571.84	1984.43
572.20	1969.46
572.55	1954.73
572.90	1939.94
573.26	1925.13
573.61	1909.87
573.96	1895.03
574.31	1880.39
574.67	1865.87
575.02	1850.25
575.37	1834.76
575.72	1820.05
576.08	1805.72
576.43	1790.24
576.78	1775.16
577.13	1760.37
577.49	1745.93
577.84	1732.10
578.19	1717.32
578.54	1702.72
578.90	1687.63
579.25	1672.46
579.60	1658.82
579.95	1645.12
580.30	1631.21
580.66	1617.07
581.01	1602.79
581.36	1588.48
581.71	1575.20
582.06	1561.84
582.42	1548.71
582.77	1535.62
583.12	1522.54
583.47	1509.28
583.82	1496.15
584.17	1482.70
584.53	1468.91
584.88	1455.50
585.23	1441.63
585.58	1428.56
585.93	1415.71
586.28	1403.64
586.63	1391.50
586.98	1378.95
587.34	1366.44
587.69	1353.62
588.04	1341.13
588.39	1329.04
588.74	1317.11
589.09	1304.95
589.44	1292.34
589.79	1280.37
590.14	1268.52
590.49	1256.57
590.84	1244.82
591.19	1233.43
591.54	1221.85
591.89	1210.41
592.25	1199.16
592.60	1187.54
592.95	1176.35
593.30	1165.39
593.65	1154.09
594.00	1142.97
594.35	1132.36
594.70	1121.33
595.05	1111.21
595.40	1100.98
595.75	1090.58
596.10	1080.73
596.45	1070.60
596.80	1060.82
597.15	1050.77
597.50	1040.87
597.85	1031.42
598.19	1021.76
598.54	1012.14
598.89	1002.99
599.24	994.18
599.59	985.14
599.94	977.05
600.29	968.74
600.64	960.15
600.99	951.19
601.34	942.58
601.69	933.66
602.04	925.41
602.39	916.99
602.74	908.63
603.08	900.22
603.43	891.76
603.78	883.51
604.13	875.39
604.48	867.30
604.83	859.37
605.18	851.34
605.53	843.48
605.87	835.44
606.22	827.71
606.57	819.91
606.92	812.06
607.27	804.12
607.62	796.47
607.96	789.25
608.31	782.48
608.66	775.50
609.01	768.78
609.36	762.17
609.70	755.36
610.05	748.50
610.40	741.93
610.75	735.35
611.10	729.10
611.44	722.69
611.79	716.38
612.14	710.01
612.49	703.72
612.83	697.72
613.18	691.86
613.53	685.90
613.88	679.97
614.22	674.42
614.57	668.84
614.92	663.13
615.27	657.50
615.61	651.92
615.96	646.40
616.31	640.90
616.65	635.44
617.00	630.19
617.35	625.06
617.70	619.97
618.04	614.93
618.39	609.82
618.74	604.97
619.08	600.15
619.43	595.45
619.78	590.76
620.12	586.03
620.47	581.47
620.82	577.03
621.16	572.61
621.51	568.09
621.85	563.60
622.20	559.26
622.55	554.97
622.89	550.76
623.24	546.56
623.59	542.39
623.93	538.37
624.28	534.45
624.62	530.62
624.97	526.83
625.32	523.01
625.66	519.14
626.01	515.25
626.35	511.43
626.70	507.65
627.04	504.07
627.39	500.41
627.73	496.92
628.08	493.50
628.43	490.09
628.77	486.75
629.12	483.54
629.46	480.35
629.81	477.07
630.15	473.78
630.50	470.59
630.84	467.46
631.19	464.40
631.53	461.44
631.88	458.44
632.22	455.47
632.57	452.78
632.91	450.13
633.26	447.56
633.60	445.00
633.95	442.50
634.29	439.91
634.64	437.40
634.98	434.71
635.32	432.16
635.67	429.80
636.01	427.38
636.36	424.99
636.70	422.74
637.05	420.50
637.39	418.29
637.73	416.11
638.08	414.04
638.42	411.94
638.77	409.71
639.11	407.42
639.45	405.22
639.80	402.95
640.14	400.79
640.49	398.63
640.83	396.44
641.17	394.35
641.52	392.30
641.86	390.28
642.20	388.47
642.55	386.49
642.89	384.54
643.23	382.68
643.58	380.98
643.92	379.16
644.26	377.40
644.61	375.70
644.95	373.96
645.29	372.14
645.64	370.35
645.98	368.64
646.32	367.07
646.66	365.48
647.01	363.91
647.35	362.38
647.69	360.83
648.04	359.42
648.38	357.92
648.72	356.45
649.06	354.99
649.41	353.53
649.75	352.13
650.09	350.75
650.43	349.37
650.78	347.94
651.12	346.55
651.46	345.21
651.80	343.90
652.14	342.61
652.49	341.39
652.83	340.13
653.17	338.92
653.51	337.74
653.85	336.63
654.20	335.46
654.54	334.22
654.88	333.08
655.22	331.95
655.56	330.81
655.90	329.74
656.25	328.70
656.59	327.64
656.93	326.65
657.27	325.67
657.61	324.63
657.95	323.64
658.29	322.64
658.64	321.70
658.98	320.74
659.32	319.82
659.66	318.94
660.00	318.09
660.34	317.23
660.68	316.34
661.02	315.42
661.36	314.55
661.70	313.71
662.05	312.89
662.39	312.09
662.73	311.35
663.07	310.63
663.41	309.87
663.75	309.09
664.09	308.32
664.43	307.52
664.77	306.81
665.11	306.05
665.45	305.36
665.79	304.66
666.13	303.94
666.47	303.21
666.81	302.47
667.15	301.69
667.49	301.02
667.83	300.41
668.17	299.77
668.51	299.16
668.85	298.60
669.19	298.07
669.53	297.43
669.87	296.79
670.21	296.16
670.55	295.58
670.89	295.07
671.23	294.52
671.57	293.98
671.91	293.49
672.25	293.02
672.58	292.55
672.92	292.00
673.26	291.53
673.60	291.07
673.94	290.62
674.28	290.20
674.62	289.75
674.96	289.24
675.30	288.79
675.64	288.32
675.97	287.82
676.31	287.30
676.65	286.84
676.99	286.43
677.33	285.96
677.67	285.52
678.01	285.01
678.34	284.57
678.68	284.16
679.02	283.69
679.36	283.24
679.70	282.78
680.04	282.37
680.37	281.95
680.71	281.54
681.05	281.16
681.39	280.73
681.73	280.28
682.06	279.86
682.40	279.45
682.74	279.09
683.08	278.77
683.42	278.40
683.75	278.05
684.09	277.63
684.43	277.27
684.77	276.91
685.10	276.59
685.44	276.24
685.78	275.88
686.12	275.56
686.45	275.20
686.79	274.83
687.13	274.49
687.46	274.12
687.80	273.77
688.14	273.38
688.48	273.05
688.81	272.71
689.15	272.40
689.49	272.05
689.82	271.69
690.16	271.27
690.50	270.93
690.83	270.58
691.17	270.23
691.51	269.89
691.84	269.57
692.18	269.21
692.52	268.85
692.85	268.50
693.19	268.20
693.52	267.87
693.86	267.55
694.20	267.22
694.53	266.91
694.87	266.57
695.21	266.24
695.54	265.91
695.88	265.58
696.21	265.22
696.55	264.91
696.88	264.59
697.22	264.28
697.56	263.97
697.89	263.61
698.23	263.30
698.56	262.96
698.90	262.65
699.23	262.32
699.57	262.00
699.90	261.68
700.24	261.34
700.58	261.05
700.91	260.79
701.25	260.60
701.58	260.37
701.92	260.12
702.25	259.84
702.59	259.55
702.92	259.27
703.26	258.98
703.59	258.68
703.93	258.49
704.26	258.22
704.60	257.93
704.93	257.65
705.26	257.37
705.60	257.13
705.93	256.82
706.27	256.60
706.60	256.37
706.94	256.14
707.27	255.85
707.61	255.56
707.94	255.26
708.27	254.87
708.61	254.53
708.94	254.24
709.28	253.97
709.61	253.70
709.94	253.47
710.28	253.23
710.61	253.02
710.95	252.67
711.28	252.50
711.61	252.26
711.95	252.06
712.28	251.81
712.61	251.55
712.95	251.39
713.28	251.22
713.61	250.95
713.95	250.68
714.28	250.47
714.61	250.23
714.95	250.00
715.28	249.78
715.61	249.58
715.95	249.38
716.28	249.17
716.61	248.99
716.95	248.76
717.28	248.55
717.61	248.32
717.94	248.11
718.28	247.82
718.61	247.60
718.94	247.38
719.27	247.18
719.61	247.00
719.94	246.76
720.27	246.48
720.60	246.29
720.94	246.10
721.27	245.91
721.60	245.75
721.93	245.55
722.27	245.41
722.60	245.23
722.93	245.03
723.26	244.85
723.59	244.63
723.93	244.46
724.26	244.29
724.59	244.11
724.92	243.94
725.25	243.82
725.59	243.66
725.92	243.51
726.25	243.36
726.58	243.19
726.91	243.02
727.24	242.88
727.57	242.72
727.91	242.54
728.24	242.41
728.57	242.24
728.90	242.09
729.23	241.90
729.56	241.79
729.89	241.64
730.22	241.47
730.55	241.33
730.89	241.18
731.22	241.02
731.55	240.87
731.88	240.72
732.21	240.55
732.54	240.40
732.87	240.26
733.20	240.13
733.53	239.99
733.86	239.86
734.19	239.71
734.52	239.60
734.85	239.56
735.18	239.39
735.51	239.30
735.84	239.17
736.17	239.08
736.50	238.89
736.83	238.92
737.16	238.80
737.49	238.68
737.82	238.55
738.15	238.45
738.48	238.33
738.81	238.21
739.14	238.08
739.47	237.95
739.80	237.83
740.13	237.72
740.46	237.58
740.79	237.44
741.12	237.33
741.45	237.19
741.78	237.00
742.11	236.93
742.44	236.78
742.77	236.68
743.10	236.55
743.43	236.43
743.75	236.19
744.08	236.28
744.41	236.16
744.74	236.06
745.07	235.93
745.40	235.85
745.73	235.81
746.06	235.71
746.39	235.64
746.71	235.53
747.04	235.42
747.37	235.33
747.70	235.26
748.03	235.18
748.36	235.12
748.68	235.02
749.01	234.89
749.34	234.81
749.67	234.72
750.00	234.65
750.33	234.66
750.65	234.58
750.98	234.31
751.31	234.23
751.64	234.16
751.97	234.14
752.29	234.04
752.62	233.90
752.95	233.81
753.28	233.70
753.60	233.62
753.93	233.57
754.26	233.50
754.59	233.37
754.91	233.28
755.24	233.18
755.57	233.16
755.90	233.08
756.22	232.99
756.55	232.89
756.88	232.78
757.20	232.62
757.53	232.51
757.86	232.43
758.19	232.36
758.51	232.28
758.84	232.14
759.17	232.06
759.49	231.99
759.82	231.99
760.15	231.93
760.47	231.87
760.80	231.76
761.13	231.72
761.45	231.66
761.78	231.60
762.11	231.54
762.43	231.41
762.76	231.35
763.08	231.30
763.41	231.26
763.74	231.20
764.06	231.15
764.39	231.10
764.71	231.05
765.04	230.98
765.37	230.92
765.69	230.86
766.02	230.81
766.34	230.75
766.67	230.65
767.00	230.61
767.32	230.63
767.65	230.66
767.97	230.59
768.30	230.55
768.62	230.50
768.95	230.43
769.27	230.38
769.60	230.36
769.92	230.29
770.25	230.22
770.57	230.16
770.90	230.10
771.22	230.05
771.55	230.00
771.87	229.96
772.20	229.92
772.52	229.99
772.85	230.10
773.17	230.06
773.50	230.01
773.82	229.95
774.15	229.85
774.47	229.73
774.80	229.68
775.12	229.64
775.45	229.60
775.77	229.57
776.09	229.54
776.42	229.51
776.74	229.51
777.07	229.48
777.39	229.45
777.72	229.41
778.04	229.40
778.36	229.36
778.69	229.33
779.01	229.31
779.33	229.16
779.66	228.99
779.98	228.95
780.31	228.93
780.63	228.95
780.95	228.95
781.28	228.92
781.60	228.88
781.92	228.86
782.25	228.83
782.57	228.80
782.89	228.77
783.22	228.73
783.54	228.67
783.86	228.66
784.19	228.63
784.51	228.65
784.83	228.61
785.16	228.58
785.48	228.55
785.80	228.53
786.12	228.52
786.45	228.49
786.77	228.48
787.09	228.44
787.42	228.37
787.74	228.35
788.06	228.34
788.38	228.31
788.71	228.29
789.03	228.27
789.35	228.27
789.67	228.23
789.99	228.22
790.32	228.19
790.64	228.18
790.96	228.29
791.28	228.22
791.61	228.19
791.93	228.18
792.25	228.15
792.57	228.22
792.89	228.18
793.21	228.17
793.54	228.14
793.86	228.12
794.18	228.10
794.50	228.06
794.82	228.04
795.14	228.04
795.47	228.04
795.79	228.03
796.11	227.98
796.43	227.96
796.75	227.94
797.07	227.93
797.39	227.90
797.71	227.78
798.04	227.77
798.36	227.77
798.68	227.75
799.00	227.75
799.32	227.67
799.64	227.68
799.96	227.66
800.28	227.67
800.60	227.65
800.92	227.65
801.24	227.63
801.56	227.62
801.89	227.60
802.21	227.59
802.53	227.55
802.85	227.56
803.17	227.61
803.49	227.57
803.81	227.55
804.13	227.52
804.45	227.49
804.77	227.49
805.09	227.47
805.41	227.45
805.73	227.41
806.05	227.37
806.37	227.34
806.69	227.31
807.01	227.29
807.33	227.29
807.65	227.23
807.97	227.28
808.28	227.25
808.60	227.24
808.92	227.21
809.24	227.28
809.56	227.25
809.88	227.19
810.20	227.19
810.52	227.20
810.84	227.17
811.16	227.15
811.48	227.12
811.80	227.16
812.12	227.14
812.43	227.16
812.75	227.15
813.07	227.14
813.39	227.13
813.71	227.11
814.03	227.08
814.35	227.08
814.67	227.02
814.98	227.00
815.30	226.98
815.62	226.96
815.94	226.86
816.26	226.86
816.58	226.83
816.89	226.84
817.21	226.80
817.53	226.80
817.85	226.80
818.17	226.79
818.48	226.72
818.80	226.74
819.12	226.71
819.44	226.69
819.76	226.66
820.07	226.65
820.39	226.64
820.71	226.65
821.03	226.64
821.34	226.63
821.66	226.64
821.98	226.64
822.30	226.63
822.61	226.70
822.93	226.67
823.25	226.67
823.57	226.64
823.88	226.65
824.20	226.64
824.52	226.65
824.83	226.64
825.15	226.62
825.47	226.61
825.79	226.62
826.10	226.60
826.42	226.60
826.74	226.60
827.05	226.58
827.37	226.58
827.69	226.57
828.00	226.57
828.32	226.56
828.64	226.53
828.95	226.60
829.27	226.55
829.58	226.55
829.90	226.57
830.22	226.57
830.53	226.55
830.85	226.54
831.17	226.50
831.48	226.49
831.80	226.49
832.11	226.48
832.43	226.45
832.75	226.45
833.06	226.52
833.38	226.48
833.69	226.47
834.01	226.47
834.32	226.46
834.64	226.45
834.96	226.44
835.27	226.44
835.59	226.39
835.90	226.36
836.22	226.35
836.53	226.33
836.85	226.30
837.16	226.43
837.48	226.43
837.79	226.47
838.11	226.47
838.42	226.47
838.74	226.48
839.05	226.47
839.37	226.46
839.68	226.38
840.00	226.37
840.31	226.39
840.63	226.37
840.94	226.36
841.26	226.34
841.57	226.33
841.88	226.35
842.20	226.33
842.51	226.31
842.83	226.31
843.14	226.42
843.46	226.41
843.77	226.33
844.08	226.32
844.40	226.27
844.71	226.26
845.03	226.25
845.34	226.24
845.65	226.23
845.97	226.23
846.28	226.24
846.60	226.24
846.91	226.22
847.22	226.21
847.54	226.24
847.85	226.25
848.16	226.24
848.48	226.21
848.79	226.26
849.10	226.27
849.42	226.27
849.73	226.15
850.04	226.15
850.36	226.10
850.67	226.12
850.98	226.13
851.30	226.13
851.61	226.13
851.92	226.12
852.23	226.16
852.55	226.16
852.86	226.16
853.17	226.17
853.49	226.19
853.80	226.22
854.11	226.22
854.42	226.23
854.74	226.22
855.05	226.22
855.36	226.16
855.67	226.16
855.99	226.15
856.30	226.31
856.61	226.30
856.92	226.31
857.23	226.31
857.55	226.29
857.86	226.28
858.17	226.31
858.48	226.28
858.79	226.25
859.11	226.26
859.42	226.25
859.73	226.23
860.04	226.22
860.35	226.18
860.66	226.14
860.98	226.13
861.29	226.15
861.60	226.14
861.91	226.17
862.22	226.15
862.53	226.13
862.84	225.98
863.16	226.00
863.47	225.98
863.78	225.96
864.09	225.97
864.40	225.97
864.71	225.97
865.02	225.99
865.33	225.97
865.64	225.94
865.95	225.94
866.27	226.02
866.58	226.01
866.89	226.02
867.20	226.02
867.51	226.00
867.82	225.99
868.13	226.03
868.44	226.00
868.75	226.02
869.06	226.03
869.37	226.04
869.68	226.01
869.99	226.03
870.30	226.03
870.61	226.04
870.92	226.02
871.23	226.01
871.54	226.02
871.85	226.06
872.16	226.07
872.47	226.06
872.78	225.98
873.09	226.00
873.40	225.99
873.71	225.99
874.02	226.01
874.33	225.99
874.64	225.96
874.95	225.98
875.26	225.95
875.56	225.95
875.87	225.94
876.18	225.94
876.49	226.06
876.80	226.05
877.11	226.02
877.42	226.02
877.73	226.03
878.04	226.00
878.35	225.99
878.66	226.00
878.96	225.99
879.27	225.99
879.58	225.98
879.89	225.97
880.20	226.00
880.51	226.00
880.82	226.00
881.12	226.00
881.43	225.98
881.74	225.97
882.05	225.96
882.36	225.96
882.67	225.97
882.97	225.83
883.28	225.82
883.59	225.82
883.90	225.83
884.21	225.85
884.51	225.84
884.82	225.82
885.13	225.82
885.44	225.81
885.74	225.81
886.05	225.81
886.36	225.81
886.67	225.76
886.98	225.83
887.28	225.83
887.59	225.83
887.90	225.84
888.20	225.83
888.51	225.86
888.82	225.84
889.13	225.85
889.43	225.96
889.74	225.95
890.05	225.95
890.35	225.93
890.66	225.91
890.97	225.90
891.28	225.89
891.58	225.89
891.89	225.89
892.20	225.87
892.50	225.86
892.81	225.85
893.12	225.85
893.42	225.78
893.73	225.79
894.04	225.79
894.34	225.80
894.65	225.80
894.95	225.78
895.26	225.79
895.57	225.84
895.87	225.72
896.18	225.74
896.48	225.74
896.79	225.74
897.10	225.76
897.40	225.77
897.71	225.78
898.01	225.77
898.32	225.78
898.63	225.78
898.93	225.79
899.24	225.79
899.54	225.79
899.85	225.79
900.15	225.77
900.46	225.77
900.76	225.78
901.07	225.78
901.38	225.77
901.68	225.78
901.99	225.72
902.29	225.73
902.60	225.71
902.90	225.70
903.21	225.70
903.51	225.69
903.82	225.71
904.12	225.71
904.43	225.71
904.73	225.70
905.03	225.71
905.34	225.83
905.64	225.82
905.95	225.83
906.25	225.82
906.56	225.82
906.86	225.82
907.17	225.81
907.47	225.81
907.77	225.80
908.08	225.78
908.38	225.79
908.69	225.79
908.99	225.82
909.30	225.83
909.60	225.82
909.90	225.84
910.21	225.80
910.51	225.78
910.81	225.78
911.12	225.79
911.42	225.79
911.73	225.66
912.03	225.67
912.33	225.69
912.64	225.68
912.94	225.67
913.24	225.65
913.55	225.64
913.85	225.63
914.15	225.65
914.46	225.67
914.76	225.65
915.06	225.64
915.37	225.61
915.67	225.60
915.97	225.61
916.27	225.58
916.58	225.59
916.88	225.58
917.18	225.57
917.49	225.65
917.79	225.65
918.09	225.67
918.39	225.70
918.70	225.69
919.00	225.70
919.30	225.76
919.60	225.76
919.91	225.75
920.21	225.76
920.51	225.73
920.81	225.72
921.12	225.75
921.42	225.74
921.72	225.76
922.02	225.76
922.32	225.78
922.63	225.78
922.93	225.85
923.23	225.86
923.53	225.85
923.83	225.76
924.13	225.77
924.44	225.77
924.74	225.78
925.04	225.81
925.34	225.81
925.64	225.75
925.94	225.75
926.24	225.82
926.55	225.81
926.85	225.83
927.15	225.83
927.45	225.82
927.75	225.82
928.05	225.82
928.35	225.81
928.65	225.82
928.95	225.83
929.26	225.77
929.56	225.79
929.86	225.81
930.16	225.80
930.46	225.79
930.76	225.79
931.06	225.73
931.36	225.70
931.66	225.72
931.96	225.73
932.26	225.74
932.56	225.68
932.86	225.70
933.16	225.69
933.46	225.68
933.76	225.66
934.06	225.69
934.36	225.73
934.66	225.72
934.96	225.70
935.26	225.71
935.56	225.72
935.86	225.69
936.16	225.67
936.46	225.66
936.76	225.66
937.06	225.64
937.36	225.65
937.66	225.65
937.96	225.64
938.26	225.61
938.56	225.61
938.86	225.61
939.16	225.64
939.46	225.64
939.76	225.65
940.06	225.65
940.35	225.63
940.65	225.57
940.95	225.58
941.25	225.56
941.55	225.54
941.85	225.53
942.15	225.56
942.45	225.59
942.75	225.59
943.04	225.60
943.34	225.62
943.64	225.61
943.94	225.59
944.24	225.59
944.54	225.60
944.84	225.60
945.13	225.58
945.43	225.56
945.73	225.55
946.03	225.54
946.33	225.53
946.62	225.52
946.92	225.52
947.22	225.52
947.52	225.53
947.82	225.54
948.11	225.53
948.41	225.50
948.71	225.46
949.01	225.47
949.31	225.46
949.60	225.45
949.90	225.46
950.20	225.47
950.50	225.46
950.79	225.45
951.09	225.47
951.39	225.47
951.69	225.46
951.98	225.48
952.28	225.49
952.58	225.48
952.87	225.48
953.17	225.50
953.47	225.49
953.76	225.49
954.06	225.47
954.36	225.45
954.66	225.45
954.95	225.49
955.25	225.50
955.55	225.51
955.84	225.49
956.14	225.50
956.44	225.50
956.73	225.49
957.03	225.50
957.32	225.49
957.62	225.49
957.92	225.51
958.21	225.50
958.51	225.64
958.81	225.66
959.10	225.67
959.40	225.70
959.69	225.71
959.99	225.73
960.29	225.73
960.58	225.73
960.88	225.77
961.17	225.76
961.47	225.77
961.76	225.75
962.06	225.78
962.36	225.76
962.65	225.77
962.95	225.78
963.24	225.77
963.54	225.77
963.83	225.78
964.13	225.77
964.42	225.76
964.72	225.65
965.01	225.65
965.31	225.64
965.60	225.61
965.90	225.69
966.19	225.65
966.49	225.66
966.78	225.66
967.08	225.65
967.37	225.65
967.67	225.63
967.96	225.65
968.26	225.64
968.55	225.66
968.85	225.65
969.14	225.65
969.43	225.65
969.73	225.63
970.02	225.63
970.32	225.62
970.61	225.60
970.91	225.56
971.20	225.54
971.49	225.54
971.79	225.55
972.08	225.46
972.38	225.47
972.67	225.46
972.96	225.48
973.26	225.46
973.55	225.50
973.85	225.49
974.14	225.48
974.43	225.49
974.73	225.46
975.02	225.46
975.31	225.46
975.61	225.46
975.90	225.45
976.19	225.44
976.49	225.45
976.78	225.46
977.07	225.46
977.37	225.46
977.66	225.48
977.95	225.46
978.24	225.47
978.54	225.50
978.83	225.49
979.12	225.48
979.42	225.48
979.71	225.46
980.00	225.45
980.29	225.46
980.59	225.43
980.88	225.47
981.17	225.47
981.46	225.47
981.76	225.47
982.05	225.51
982.34	225.52
982.63	225.52
982.93	225.51
983.22	225.55
983.51	225.55
983.80	225.57
984.09	225.58
984.39	225.57
984.68	225.55
984.97	225.56
985.26	225.55
985.55	225.57
985.85	225.54
986.14	225.56
986.43	225.58
986.72	225.57
987.01	225.53
987.30	225.53
987.59	225.53
987.89	225.53
988.18	225.49
988.47	225.48
988.76	225.47
989.05	225.46
989.34	225.44
989.63	225.47
989.92	225.45
990.22	225.43
990.51	225.43
990.80	225.43
991.09	225.44
991.38	225.45
991.67	225.44
991.96	225.43
992.25	225.43
992.54	225.40
992.83	225.41
993.12	225.41
993.41	225.43
993.70	225.48
993.99	225.50
994.28	225.52
994.58	225.54
994.87	225.53
995.16	225.53
995.45	225.52
995.74	225.47
996.03	225.49
996.32	225.51
996.61	225.53
996.90	225.53
997.19	225.52
997.48	225.52
997.77	225.51
998.06	225.51
998.34	225.50
998.63	225.50
998.92	225.51
999.21	225.53
999.50	225.52
999.79	225.48
1000.08	225.47
1000.37	225.47
1000.66	225.45
1000.95	225.48
1001.24	225.49
1001.53	225.51
1001.82	225.51
1002.11	225.49
1002.40	225.49
1002.68	225.52
1002.97	225.61
1003.26	225.60
1003.55	225.58
1003.84	225.59
1004.13	225.63
1004.42	225.62
1004.71	225.63
1004.99	225.62
1005.28	225.64
1005.57	225.63
1005.86	225.62
1006.15	225.61
1006.44	225.59
1006.72	225.61
1007.01	225.58
1007.30	225.58
1007.59	225.56
1007.88	225.56
1008.17	225.57
1008.45	225.54
1008.74	225.49
1009.03	225.43
1009.32	225.44
1009.60	225.44
1009.89	225.42
1010.18	225.37
1010.47	225.37
1010.76	225.37
1011.04	225.36
1011.33	225.35
1011.62	225.36
1011.91	225.37
1012.19	225.37
1012.48	225.38
1012.77	225.37
1013.05	225.42
1013.34	225.42
1013.63	225.41
1013.92	225.42
1014.20	225.41
1014.49	225.41
1014.78	225.43
1015.06	225.38
1015.35	225.39
1015.64	225.40
1015.92	225.43
1016.21	225.44
1016.50	225.44
1016.78	225.45
1017.07	225.46
1017.36	225.44
1017.64	225.43
1017.93	225.43
1018.22	225.42
1018.50	225.42
1018.79	225.42
1019.08	225.37
1019.36	225.38
1019.65	225.37
1019.93	225.40
1020.22	225.42
1020.51	225.49
1020.79	225.47
1021.08	225.22
1021.36	225.20
1021.65	225.45
1021.94	225.34
1022.22	225.48
1022.51	225.13
1022.79	225.99
1023.08	225.56
1023.36	226.94
1023.65	225.13
>>>>>End Processed Spectral Data<<<<<
