SpectraSuite Data File
++++++++++++++++++++++++++++++++++++
Date: Fri Oct 02 17:09:26 EDT 2015
User: lab3
Dark Spectrum Present: No
Reference Spectrum Present: No
Number of Sampled Component Spectra: 1
Spectrometers: USB2E7196
Integration Time (usec): 46000 (USB2E7196)
Spectra Averaged: 1200 (USB2E7196)
Boxcar Smoothing: 10 (USB2E7196)
Correct for Electrical Dark: No (USB2E7196)
Strobe/Lamp Enabled: No (USB2E7196)
Correct for Detector Non-linearity: No (USB2E7196)
Correct for Stray Light: No (USB2E7196)
Number of Pixels in Processed Spectrum: 2048
>>>>>Begin Processed Spectral Data<<<<<
339.09	0.00
339.48	214.66
339.86	216.32
340.24	217.60
340.63	219.03
341.01	222.18
341.39	221.74
341.78	223.03
342.16	224.35
342.54	224.83
342.93	213.16
343.31	223.93
343.69	224.48
344.07	224.94
344.46	225.37
344.84	225.75
345.22	225.98
345.60	226.23
345.99	226.44
346.37	226.57
346.75	226.67
347.13	226.75
347.52	226.81
347.90	226.91
348.28	226.95
348.66	227.01
349.05	227.00
349.43	227.06
349.81	227.11
350.19	227.18
350.57	227.25
350.96	227.33
351.34	227.42
351.72	227.51
352.10	227.61
352.48	227.69
352.87	227.75
353.25	227.82
353.63	227.88
354.01	227.93
354.39	228.01
354.77	228.08
355.15	228.18
355.54	228.23
355.92	228.25
356.30	228.33
356.68	228.48
357.06	228.56
357.44	228.60
357.82	228.66
358.20	228.78
358.58	228.84
358.97	228.91
359.35	228.99
359.73	229.08
360.11	229.13
360.49	229.19
360.87	229.24
361.25	229.30
361.63	229.39
362.01	229.44
362.39	229.47
362.77	229.52
363.15	229.54
363.53	229.57
363.91	229.61
364.29	229.62
364.67	229.53
365.05	229.54
365.43	229.57
365.81	229.60
366.19	229.61
366.57	229.67
366.95	229.67
367.33	229.65
367.71	229.65
368.09	229.67
368.47	229.66
368.85	229.65
369.23	229.66
369.61	229.61
369.99	229.64
370.37	229.64
370.75	229.72
371.13	229.69
371.51	229.67
371.89	229.65
372.27	229.63
372.65	229.61
373.03	229.57
373.41	229.53
373.78	229.47
374.16	229.38
374.54	229.29
374.92	229.24
375.30	229.19
375.68	229.12
376.06	229.07
376.44	229.01
376.82	228.98
377.19	228.92
377.57	228.87
377.95	228.78
378.33	228.71
378.71	228.55
379.09	228.50
379.47	228.45
379.84	228.39
380.22	228.31
380.60	228.23
380.98	228.19
381.36	228.14
381.73	228.08
382.11	228.06
382.49	228.03
382.87	227.97
383.25	227.92
383.62	228.02
384.00	227.95
384.38	227.91
384.76	227.88
385.13	227.88
385.51	227.83
385.89	227.78
386.27	227.75
386.64	227.73
387.02	227.68
387.40	227.64
387.78	227.62
388.15	227.60
388.53	227.57
388.91	227.54
389.29	227.50
389.66	227.49
390.04	227.45
390.42	227.44
390.79	227.43
391.17	227.42
391.55	227.26
391.92	227.25
392.30	227.26
392.68	227.23
393.05	227.21
393.43	227.20
393.81	227.22
394.18	227.20
394.56	227.19
394.94	227.22
395.31	227.22
395.69	227.26
396.06	227.29
396.44	227.32
396.82	227.34
397.19	227.42
397.57	227.43
397.95	227.47
398.32	227.46
398.70	227.50
399.07	227.56
399.45	227.60
399.82	227.65
400.20	227.69
400.58	227.74
400.95	227.74
401.33	227.83
401.70	227.98
402.08	228.08
402.45	228.18
402.83	228.29
403.20	228.40
403.58	228.49
403.95	228.63
404.33	228.78
404.71	228.91
405.08	229.12
405.46	229.29
405.83	229.47
406.21	229.67
406.58	229.90
406.96	230.11
407.33	230.36
407.70	230.64
408.08	231.01
408.45	231.35
408.83	231.72
409.20	232.05
409.58	232.34
409.95	232.74
410.33	233.18
410.70	233.59
411.08	234.08
411.45	234.60
411.82	235.11
412.20	235.71
412.57	236.43
412.95	236.98
413.32	237.72
413.69	238.46
414.07	239.26
414.44	240.12
414.82	241.01
415.19	242.05
415.56	243.09
415.94	244.19
416.31	245.40
416.68	246.61
417.06	248.04
417.43	249.37
417.81	250.90
418.18	252.46
418.55	254.17
418.93	255.95
419.30	257.80
419.67	259.78
420.04	261.79
420.42	263.89
420.79	266.32
421.16	268.78
421.54	271.28
421.91	273.88
422.28	276.58
422.66	279.48
423.03	282.26
423.40	285.18
423.77	288.31
424.15	291.52
424.52	294.87
424.89	298.49
425.26	302.08
425.64	305.43
426.01	309.17
426.38	313.02
426.75	316.98
427.13	321.04
427.50	325.29
427.87	329.70
428.24	334.18
428.61	338.47
428.99	343.12
429.36	348.23
429.73	353.10
430.10	357.99
430.47	363.01
430.85	368.16
431.22	373.70
431.59	379.39
431.96	384.94
432.33	391.09
432.70	396.96
433.08	403.89
433.45	410.46
433.82	416.94
434.19	424.16
434.56	431.28
434.93	438.17
435.30	445.00
435.68	452.72
436.05	460.28
436.42	467.80
436.79	474.67
437.16	482.08
437.53	490.02
437.90	497.94
438.27	505.69
438.64	514.06
439.01	521.64
439.38	528.57
439.75	535.26
440.13	542.80
440.50	549.97
440.87	555.63
441.24	561.84
441.61	568.61
441.98	573.52
442.35	579.35
442.72	585.27
443.09	590.90
443.46	594.42
443.83	596.96
444.20	599.03
444.57	602.21
444.94	603.92
445.31	605.70
445.68	607.17
446.05	608.21
446.42	607.65
446.79	606.89
447.16	606.19
447.53	605.50
447.90	602.85
448.27	600.28
448.64	596.59
449.01	593.94
449.37	588.88
449.74	584.29
450.11	578.44
450.48	572.07
450.85	565.71
451.22	560.26
451.59	554.94
451.96	550.12
452.33	543.22
452.70	537.10
453.07	529.65
453.43	522.28
453.80	515.10
454.17	508.22
454.54	501.89
454.91	494.77
455.28	488.14
455.65	481.90
456.02	475.32
456.38	470.00
456.75	463.19
457.12	457.70
457.49	452.19
457.86	447.00
458.23	442.48
458.59	437.46
458.96	432.31
459.33	427.80
459.70	423.22
460.07	419.73
460.43	415.65
460.80	411.83
461.17	408.50
461.54	404.89
461.91	401.56
462.27	398.16
462.64	395.44
463.01	392.26
463.38	389.06
463.74	386.17
464.11	383.64
464.48	381.35
464.85	378.88
465.21	377.03
465.58	374.92
465.95	372.50
466.32	370.58
466.68	368.71
467.05	366.83
467.42	364.99
467.78	362.98
468.15	361.15
468.52	359.83
468.88	358.04
469.25	356.40
469.62	355.10
469.98	353.68
470.35	352.41
470.72	351.28
471.08	350.13
471.45	349.17
471.82	348.09
472.18	346.94
472.55	346.19
472.92	345.25
473.28	344.52
473.65	343.75
474.02	343.00
474.38	342.38
474.75	342.02
475.11	341.51
475.48	341.29
475.85	341.04
476.21	340.91
476.58	340.82
476.94	340.97
477.31	341.05
477.67	341.14
478.04	341.36
478.41	341.65
478.77	342.08
479.14	342.35
479.50	342.88
479.87	343.54
480.23	344.23
480.60	344.89
480.96	345.56
481.33	346.55
481.69	347.54
482.06	348.52
482.42	349.42
482.79	350.54
483.15	351.82
483.52	353.30
483.88	354.71
484.25	356.23
484.61	357.79
484.98	359.48
485.34	361.39
485.71	363.39
486.07	365.55
486.44	367.68
486.80	370.06
487.17	372.52
487.53	375.22
487.90	378.06
488.26	381.14
488.62	384.39
488.99	387.64
489.35	391.07
489.72	394.78
490.08	398.68
490.44	402.71
490.81	406.91
491.17	411.19
491.54	415.80
491.90	420.58
492.26	425.68
492.63	431.02
492.99	436.59
493.36	442.35
493.72	448.39
494.08	454.59
494.45	461.18
494.81	468.03
495.17	475.06
495.54	482.45
495.90	490.17
496.26	498.06
496.63	506.20
496.99	514.65
497.35	523.49
497.72	532.60
498.08	541.94
498.44	551.55
498.80	561.77
499.17	572.24
499.53	583.02
499.89	594.17
500.26	605.55
500.62	617.22
500.98	629.50
501.34	641.94
501.71	654.92
502.07	668.07
502.43	681.77
502.79	695.69
503.16	710.06
503.52	724.59
503.88	739.55
504.24	754.97
504.60	770.60
504.97	786.69
505.33	803.20
505.69	820.57
506.05	838.30
506.41	855.91
506.78	873.72
507.14	892.03
507.50	910.78
507.86	929.85
508.22	949.12
508.59	968.27
508.95	988.20
509.31	1008.82
509.67	1030.12
510.03	1051.37
510.39	1072.70
510.75	1094.21
511.12	1115.96
511.48	1137.87
511.84	1159.81
512.20	1182.11
512.56	1205.29
512.92	1228.43
513.28	1251.24
513.64	1274.24
514.00	1297.68
514.37	1321.39
514.73	1345.07
515.09	1368.65
515.45	1392.54
515.81	1416.55
516.17	1440.70
516.53	1464.31
516.89	1487.77
517.25	1511.39
517.61	1534.94
517.97	1558.90
518.33	1582.34
518.69	1605.73
519.05	1629.59
519.41	1653.68
519.77	1677.95
520.13	1701.41
520.49	1724.86
520.85	1748.56
521.21	1771.78
521.57	1795.43
521.93	1818.50
522.29	1842.05
522.65	1865.07
523.01	1888.03
523.37	1910.61
523.73	1933.81
524.09	1956.83
524.45	1979.57
524.81	2001.92
525.17	2024.09
525.53	2045.62
525.89	2067.57
526.25	2089.50
526.61	2110.40
526.97	2131.45
527.33	2152.44
527.68	2173.11
528.04	2192.99
528.40	2211.92
528.76	2231.18
529.12	2249.85
529.48	2268.17
529.84	2284.83
530.20	2302.04
530.56	2318.68
530.91	2335.41
531.27	2351.79
531.63	2367.27
531.99	2382.38
532.35	2396.89
532.71	2411.40
533.07	2426.56
533.42	2440.04
533.78	2454.35
534.14	2468.86
534.50	2482.39
534.86	2495.73
535.21	2507.23
535.57	2519.14
535.93	2530.89
536.29	2541.52
536.65	2551.97
537.00	2561.87
537.36	2572.55
537.72	2581.79
538.08	2590.50
538.44	2598.61
538.79	2606.36
539.15	2613.34
539.51	2619.86
539.87	2625.73
540.22	2629.81
540.58	2633.96
540.94	2639.24
541.29	2643.04
541.65	2645.08
542.01	2646.49
542.37	2647.18
542.72	2649.20
543.08	2649.69
543.44	2650.68
543.79	2650.63
544.15	2649.76
544.51	2649.25
544.87	2647.67
545.22	2645.42
545.58	2642.63
545.94	2639.82
546.29	2635.71
546.65	2631.62
547.01	2627.55
547.36	2624.11
547.72	2620.71
548.07	2615.64
548.43	2609.17
548.79	2601.87
549.14	2595.87
549.50	2590.08
549.86	2583.41
550.21	2575.65
550.57	2568.72
550.92	2559.66
551.28	2551.17
551.64	2542.99
551.99	2534.36
552.35	2525.15
552.70	2516.25
553.06	2507.62
553.41	2498.37
553.77	2488.97
554.13	2479.47
554.48	2469.15
554.84	2457.73
555.19	2446.81
555.55	2436.00
555.90	2425.21
556.26	2414.92
556.61	2403.54
556.97	2390.60
557.32	2378.19
557.68	2365.82
558.03	2353.24
558.39	2341.77
558.74	2330.58
559.10	2317.83
559.45	2305.30
559.81	2293.40
560.16	2280.81
560.52	2268.44
560.87	2256.43
561.23	2243.65
561.58	2231.08
561.94	2218.17
562.29	2204.73
562.64	2192.03
563.00	2178.95
563.35	2166.35
563.71	2153.48
564.06	2140.60
564.42	2128.43
564.77	2115.70
565.12	2102.86
565.48	2089.94
565.83	2077.08
566.19	2064.28
566.54	2051.51
566.89	2037.66
567.25	2023.97
567.60	2011.55
567.96	1998.36
568.31	1983.90
568.66	1970.13
569.02	1957.42
569.37	1944.72
569.72	1932.50
570.08	1919.07
570.43	1905.38
570.78	1891.48
571.14	1877.00
571.49	1863.12
571.84	1849.82
572.20	1835.35
572.55	1821.11
572.90	1806.81
573.26	1792.53
573.61	1777.85
573.96	1763.51
574.31	1749.46
574.67	1735.44
575.02	1720.53
575.37	1705.66
575.72	1691.67
576.08	1677.94
576.43	1663.11
576.78	1648.71
577.13	1634.59
577.49	1620.80
577.84	1607.56
578.19	1593.46
578.54	1579.58
578.90	1565.24
579.25	1550.75
579.60	1537.86
579.95	1524.83
580.30	1511.65
580.66	1498.27
581.01	1484.78
581.36	1471.31
581.71	1458.77
582.06	1446.13
582.42	1433.71
582.77	1421.36
583.12	1408.90
583.47	1396.38
583.82	1383.99
584.17	1371.29
584.53	1358.32
584.88	1345.70
585.23	1332.67
585.58	1320.44
585.93	1308.43
586.28	1297.11
586.63	1285.83
586.98	1274.03
587.34	1262.33
587.69	1250.41
588.04	1238.76
588.39	1227.50
588.74	1216.36
589.09	1205.03
589.44	1193.31
589.79	1182.23
590.14	1171.21
590.49	1160.19
590.84	1149.30
591.19	1138.79
591.54	1128.08
591.89	1117.51
592.25	1107.10
592.60	1096.44
592.95	1086.15
593.30	1076.02
593.65	1065.59
594.00	1055.29
594.35	1045.56
594.70	1035.40
595.05	1026.06
595.40	1016.57
595.75	1006.99
596.10	997.94
596.45	988.62
596.80	979.62
597.15	970.37
597.50	961.30
597.85	952.60
598.19	943.73
598.54	934.92
598.89	926.56
599.24	918.47
599.59	910.23
599.94	902.83
600.29	895.24
600.64	887.40
600.99	879.26
601.34	871.44
601.69	863.30
602.04	855.81
602.39	848.17
602.74	840.62
603.08	833.00
603.43	825.34
603.78	817.89
604.13	810.58
604.48	803.25
604.83	796.10
605.18	788.87
605.53	781.79
605.87	774.50
606.22	767.52
606.57	760.50
606.92	753.38
607.27	746.20
607.62	739.30
607.96	732.79
608.31	726.69
608.66	720.41
609.01	714.37
609.36	708.45
609.70	702.35
610.05	696.21
610.40	690.34
610.75	684.44
611.10	678.82
611.44	673.07
611.79	667.44
612.14	661.72
612.49	656.10
612.83	650.75
613.18	645.57
613.53	640.25
613.88	634.96
614.22	630.07
614.57	625.12
614.92	620.01
615.27	615.03
615.61	610.08
615.96	605.20
616.31	600.33
616.65	595.49
617.00	590.83
617.35	586.29
617.70	581.78
618.04	577.34
618.39	572.83
618.74	568.56
619.08	564.30
619.43	560.17
619.78	556.07
620.12	551.92
620.47	547.92
620.82	544.02
621.16	540.15
621.51	536.14
621.85	532.19
622.20	528.42
622.55	524.66
622.89	520.97
623.24	517.27
623.59	513.64
623.93	510.15
624.28	506.74
624.62	503.45
624.97	500.17
625.32	496.87
625.66	493.50
626.01	490.10
626.35	486.78
626.70	483.49
627.04	480.37
627.39	477.17
627.73	474.15
628.08	471.19
628.43	468.22
628.77	465.36
629.12	462.58
629.46	459.81
629.81	456.98
630.15	454.13
630.50	451.39
630.84	448.69
631.19	446.03
631.53	443.49
631.88	440.89
632.22	438.30
632.57	435.99
632.91	433.75
633.26	431.56
633.60	429.39
633.95	427.26
634.29	425.03
634.64	422.90
634.98	420.58
635.32	418.42
635.67	416.44
636.01	414.37
636.36	412.34
636.70	410.45
637.05	408.56
637.39	406.69
637.73	404.85
638.08	403.11
638.42	401.34
638.77	399.44
639.11	397.50
639.45	395.64
639.80	393.71
640.14	391.87
640.49	390.02
640.83	388.16
641.17	386.39
641.52	384.65
641.86	382.94
642.20	381.41
642.55	379.72
642.89	378.04
643.23	376.45
643.58	375.02
643.92	373.47
644.26	371.97
644.61	370.53
644.95	369.03
645.29	367.47
645.64	365.92
645.98	364.45
646.32	363.11
646.66	361.75
647.01	360.40
647.35	359.09
647.69	357.77
648.04	356.57
648.38	355.27
648.72	354.02
649.06	352.78
649.41	351.52
649.75	350.31
650.09	349.13
650.43	347.96
650.78	346.74
651.12	345.54
651.46	344.38
651.80	343.26
652.14	342.16
652.49	341.10
652.83	340.03
653.17	338.99
653.51	337.97
653.85	337.00
654.20	335.99
654.54	334.90
654.88	333.89
655.22	332.90
655.56	331.91
655.90	330.98
656.25	330.05
656.59	329.13
656.93	328.26
657.27	327.41
657.61	326.48
657.95	325.60
658.29	324.70
658.64	323.86
658.98	323.00
659.32	322.17
659.66	321.39
660.00	320.63
660.34	319.85
660.68	319.04
661.02	318.21
661.36	317.40
661.70	316.65
662.05	315.91
662.39	315.19
662.73	314.53
663.07	313.86
663.41	313.15
663.75	312.43
664.09	311.72
664.43	310.96
664.77	310.30
665.11	309.60
665.45	308.96
665.79	308.32
666.13	307.64
666.47	306.95
666.81	306.24
667.15	305.50
667.49	304.87
667.83	304.30
668.17	303.70
668.51	303.13
668.85	302.60
669.19	302.08
669.53	301.46
669.87	300.84
670.21	300.23
670.55	299.66
670.89	299.18
671.23	298.64
671.57	298.13
671.91	297.64
672.25	297.18
672.58	296.72
672.92	296.15
673.26	295.69
673.60	295.23
673.94	294.77
674.28	294.36
674.62	293.89
674.96	293.39
675.30	292.94
675.64	292.45
675.97	291.94
676.31	291.40
676.65	290.91
676.99	290.51
677.33	290.02
677.67	289.56
678.01	289.03
678.34	288.57
678.68	288.14
679.02	287.64
679.36	287.17
679.70	286.70
680.04	286.27
680.37	285.83
680.71	285.41
681.05	285.00
681.39	284.54
681.73	284.08
682.06	283.62
682.40	283.17
682.74	282.80
683.08	282.47
683.42	282.07
683.75	281.69
684.09	281.24
684.43	280.86
684.77	280.47
685.10	280.11
685.44	279.73
685.78	279.35
686.12	279.00
686.45	278.60
686.79	278.21
687.13	277.84
687.46	277.42
687.80	277.04
688.14	276.61
688.48	276.25
688.81	275.87
689.15	275.54
689.49	275.16
689.82	274.77
690.16	274.32
690.50	273.94
690.83	273.57
691.17	273.18
691.51	272.81
691.84	272.47
692.18	272.07
692.52	271.67
692.85	271.29
693.19	270.95
693.52	270.59
693.86	270.23
694.20	269.88
694.53	269.55
694.87	269.17
695.21	268.82
695.54	268.45
695.88	268.10
696.21	267.71
696.55	267.36
696.88	267.00
697.22	266.65
697.56	266.29
697.89	265.91
698.23	265.57
698.56	265.20
698.90	264.83
699.23	264.46
699.57	264.12
699.90	263.77
700.24	263.39
700.58	263.08
700.91	262.79
701.25	262.57
701.58	262.29
701.92	262.01
702.25	261.71
702.59	261.38
702.92	261.05
703.26	260.73
703.59	260.39
703.93	260.17
704.26	259.87
704.60	259.54
704.93	259.24
705.26	258.93
705.60	258.67
705.93	258.36
706.27	258.11
706.60	257.87
706.94	257.61
707.27	257.30
707.61	256.99
707.94	256.66
708.27	256.24
708.61	255.89
708.94	255.58
709.28	255.30
709.61	255.02
709.94	254.77
710.28	254.52
710.61	254.30
710.95	253.95
711.28	253.78
711.61	253.54
711.95	253.32
712.28	253.06
712.61	252.79
712.95	252.62
713.28	252.41
713.61	252.13
713.95	251.85
714.28	251.63
714.61	251.38
714.95	251.13
715.28	250.92
715.61	250.71
715.95	250.49
716.28	250.27
716.61	250.08
716.95	249.85
717.28	249.63
717.61	249.39
717.94	249.18
718.28	248.86
718.61	248.63
718.94	248.40
719.27	248.18
719.61	248.00
719.94	247.76
720.27	247.49
720.60	247.29
720.94	247.09
721.27	246.89
721.60	246.72
721.93	246.52
722.27	246.35
722.60	246.18
722.93	245.96
723.26	245.78
723.59	245.55
723.93	245.38
724.26	245.20
724.59	245.01
724.92	244.85
725.25	244.73
725.59	244.56
725.92	244.41
726.25	244.25
726.58	244.07
726.91	243.89
727.24	243.76
727.57	243.59
727.91	243.42
728.24	243.29
728.57	243.11
728.90	242.97
729.23	242.78
729.56	242.67
729.89	242.52
730.22	242.35
730.55	242.21
730.89	242.04
731.22	241.88
731.55	241.73
731.88	241.58
732.21	241.41
732.54	241.26
732.87	241.11
733.20	240.97
733.53	240.84
733.86	240.71
734.19	240.55
734.52	240.44
734.85	240.39
735.18	240.22
735.51	240.13
735.84	240.00
736.17	239.91
736.50	239.71
736.83	239.73
737.16	239.62
737.49	239.50
737.82	239.39
738.15	239.28
738.48	239.16
738.81	239.03
739.14	238.90
739.47	238.78
739.80	238.65
740.13	238.54
740.46	238.41
740.79	238.27
741.12	238.16
741.45	238.02
741.78	237.83
742.11	237.76
742.44	237.61
742.77	237.52
743.10	237.39
743.43	237.28
743.75	237.04
744.08	237.13
744.41	237.02
744.74	236.91
745.07	236.79
745.40	236.71
745.73	236.67
746.06	236.57
746.39	236.48
746.71	236.38
747.04	236.28
747.37	236.19
747.70	236.12
748.03	236.04
748.36	235.98
748.68	235.88
749.01	235.75
749.34	235.68
749.67	235.58
750.00	235.50
750.33	235.51
750.65	235.43
750.98	235.16
751.31	235.08
751.64	235.01
751.97	234.99
752.29	234.90
752.62	234.76
752.95	234.67
753.28	234.58
753.60	234.50
753.93	234.44
754.26	234.37
754.59	234.25
754.91	234.16
755.24	234.06
755.57	234.05
755.90	233.97
756.22	233.88
756.55	233.77
756.88	233.67
757.20	233.52
757.53	233.41
757.86	233.33
758.19	233.28
758.51	233.20
758.84	233.06
759.17	232.97
759.49	232.92
759.82	232.92
760.15	232.86
760.47	232.79
760.80	232.70
761.13	232.64
761.45	232.60
761.78	232.54
762.11	232.47
762.43	232.34
762.76	232.28
763.08	232.23
763.41	232.18
763.74	232.13
764.06	232.08
764.39	232.03
764.71	231.97
765.04	231.90
765.37	231.83
765.69	231.78
766.02	231.72
766.34	231.65
766.67	231.55
767.00	231.52
767.32	231.53
767.65	231.56
767.97	231.50
768.30	231.45
768.62	231.40
768.95	231.34
769.27	231.30
769.60	231.27
769.92	231.20
770.25	231.13
770.57	231.05
770.90	231.00
771.22	230.95
771.55	230.89
771.87	230.86
772.20	230.82
772.52	230.89
772.85	231.00
773.17	230.97
773.50	230.90
773.82	230.84
774.15	230.75
774.47	230.62
774.80	230.57
775.12	230.53
775.45	230.49
775.77	230.47
776.09	230.44
776.42	230.41
776.74	230.43
777.07	230.40
777.39	230.39
777.72	230.34
778.04	230.32
778.36	230.29
778.69	230.25
779.01	230.23
779.33	230.09
779.66	229.91
779.98	229.88
780.31	229.86
780.63	229.89
780.95	229.88
781.28	229.84
781.60	229.81
781.92	229.78
782.25	229.75
782.57	229.72
782.89	229.69
783.22	229.64
783.54	229.59
783.86	229.57
784.19	229.54
784.51	229.56
784.83	229.53
785.16	229.50
785.48	229.48
785.80	229.45
786.12	229.44
786.45	229.41
786.77	229.39
787.09	229.36
787.42	229.30
787.74	229.28
788.06	229.27
788.38	229.24
788.71	229.21
789.03	229.18
789.35	229.18
789.67	229.15
789.99	229.14
790.32	229.10
790.64	229.10
790.96	229.19
791.28	229.13
791.61	229.11
791.93	229.10
792.25	229.07
792.57	229.15
792.89	229.11
793.21	229.10
793.54	229.06
793.86	229.03
794.18	229.02
794.50	228.97
794.82	228.95
795.14	228.95
795.47	228.96
795.79	228.96
796.11	228.91
796.43	228.89
796.75	228.87
797.07	228.87
797.39	228.84
797.71	228.73
798.04	228.72
798.36	228.71
798.68	228.70
799.00	228.69
799.32	228.62
799.64	228.63
799.96	228.62
800.28	228.63
800.60	228.61
800.92	228.60
801.24	228.59
801.56	228.59
801.89	228.57
802.21	228.55
802.53	228.51
802.85	228.52
803.17	228.56
803.49	228.52
803.81	228.49
804.13	228.46
804.45	228.43
804.77	228.43
805.09	228.41
805.41	228.38
805.73	228.34
806.05	228.30
806.37	228.28
806.69	228.25
807.01	228.23
807.33	228.23
807.65	228.17
807.97	228.21
808.28	228.18
808.60	228.17
808.92	228.15
809.24	228.22
809.56	228.20
809.88	228.15
810.20	228.14
810.52	228.15
810.84	228.13
811.16	228.12
811.48	228.09
811.80	228.12
812.12	228.12
812.43	228.13
812.75	228.12
813.07	228.11
813.39	228.10
813.71	228.07
814.03	228.05
814.35	228.05
814.67	228.00
814.98	227.98
815.30	227.96
815.62	227.93
815.94	227.84
816.26	227.84
816.58	227.81
816.89	227.82
817.21	227.79
817.53	227.79
817.85	227.79
818.17	227.78
818.48	227.71
818.80	227.71
819.12	227.68
819.44	227.65
819.76	227.63
820.07	227.63
820.39	227.62
820.71	227.62
821.03	227.61
821.34	227.59
821.66	227.59
821.98	227.61
822.30	227.59
822.61	227.66
822.93	227.63
823.25	227.62
823.57	227.58
823.88	227.58
824.20	227.56
824.52	227.58
824.83	227.57
825.15	227.57
825.47	227.56
825.79	227.57
826.10	227.56
826.42	227.56
826.74	227.56
827.05	227.55
827.37	227.56
827.69	227.54
828.00	227.54
828.32	227.53
828.64	227.50
828.95	227.57
829.27	227.52
829.58	227.52
829.90	227.53
830.22	227.54
830.53	227.52
830.85	227.52
831.17	227.47
831.48	227.46
831.80	227.45
832.11	227.44
832.43	227.42
832.75	227.41
833.06	227.48
833.38	227.44
833.69	227.42
834.01	227.42
834.32	227.41
834.64	227.40
834.96	227.39
835.27	227.38
835.59	227.33
835.90	227.32
836.22	227.31
836.53	227.29
836.85	227.26
837.16	227.39
837.48	227.38
837.79	227.42
838.11	227.42
838.42	227.41
838.74	227.42
839.05	227.39
839.37	227.38
839.68	227.29
840.00	227.29
840.31	227.31
840.63	227.29
840.94	227.27
841.26	227.26
841.57	227.26
841.88	227.27
842.20	227.26
842.51	227.22
842.83	227.22
843.14	227.34
843.46	227.33
843.77	227.26
844.08	227.25
844.40	227.20
844.71	227.19
845.03	227.19
845.34	227.18
845.65	227.18
845.97	227.19
846.28	227.21
846.60	227.22
846.91	227.19
847.22	227.19
847.54	227.22
847.85	227.22
848.16	227.21
848.48	227.18
848.79	227.24
849.10	227.25
849.42	227.25
849.73	227.14
850.04	227.14
850.36	227.09
850.67	227.11
850.98	227.12
851.30	227.12
851.61	227.10
851.92	227.10
852.23	227.14
852.55	227.13
852.86	227.12
853.17	227.12
853.49	227.16
853.80	227.17
854.11	227.18
854.42	227.19
854.74	227.18
855.05	227.18
855.36	227.11
855.67	227.11
855.99	227.12
856.30	227.25
856.61	227.24
856.92	227.24
857.23	227.26
857.55	227.24
857.86	227.21
858.17	227.24
858.48	227.22
858.79	227.19
859.11	227.20
859.42	227.20
859.73	227.18
860.04	227.18
860.35	227.13
860.66	227.09
860.98	227.08
861.29	227.09
861.60	227.07
861.91	227.11
862.22	227.09
862.53	227.06
862.84	226.91
863.16	226.95
863.47	226.93
863.78	226.91
864.09	226.92
864.40	226.94
864.71	226.94
865.02	226.95
865.33	226.94
865.64	226.92
865.95	226.92
866.27	226.99
866.58	226.98
866.89	226.99
867.20	226.99
867.51	226.98
867.82	226.98
868.13	227.01
868.44	226.98
868.75	227.00
869.06	227.00
869.37	227.01
869.68	226.97
869.99	226.99
870.30	227.00
870.61	227.00
870.92	226.98
871.23	226.97
871.54	226.99
871.85	227.01
872.16	227.02
872.47	227.01
872.78	226.94
873.09	226.95
873.40	226.95
873.71	226.96
874.02	226.97
874.33	226.96
874.64	226.92
874.95	226.94
875.26	226.91
875.56	226.91
875.87	226.90
876.18	226.90
876.49	227.02
876.80	227.00
877.11	226.98
877.42	226.98
877.73	226.98
878.04	226.96
878.35	226.96
878.66	226.97
878.96	226.97
879.27	226.95
879.58	226.94
879.89	226.93
880.20	226.95
880.51	226.95
880.82	226.94
881.12	226.95
881.43	226.92
881.74	226.93
882.05	226.92
882.36	226.93
882.67	226.94
882.97	226.79
883.28	226.79
883.59	226.79
883.90	226.79
884.21	226.81
884.51	226.80
884.82	226.78
885.13	226.77
885.44	226.76
885.74	226.77
886.05	226.76
886.36	226.76
886.67	226.73
886.98	226.79
887.28	226.80
887.59	226.80
887.90	226.81
888.20	226.80
888.51	226.83
888.82	226.80
889.13	226.81
889.43	226.92
889.74	226.91
890.05	226.92
890.35	226.91
890.66	226.89
890.97	226.86
891.28	226.86
891.58	226.85
891.89	226.85
892.20	226.84
892.50	226.83
892.81	226.81
893.12	226.81
893.42	226.75
893.73	226.75
894.04	226.75
894.34	226.76
894.65	226.75
894.95	226.73
895.26	226.73
895.57	226.78
895.87	226.66
896.18	226.67
896.48	226.67
896.79	226.68
897.10	226.69
897.40	226.71
897.71	226.72
898.01	226.72
898.32	226.73
898.63	226.72
898.93	226.74
899.24	226.74
899.54	226.73
899.85	226.73
900.15	226.73
900.46	226.72
900.76	226.73
901.07	226.73
901.38	226.73
901.68	226.75
901.99	226.68
902.29	226.69
902.60	226.68
902.90	226.66
903.21	226.65
903.51	226.64
903.82	226.66
904.12	226.66
904.43	226.67
904.73	226.67
905.03	226.69
905.34	226.80
905.64	226.79
905.95	226.80
906.25	226.79
906.56	226.78
906.86	226.78
907.17	226.77
907.47	226.77
907.77	226.76
908.08	226.73
908.38	226.75
908.69	226.76
908.99	226.79
909.30	226.79
909.60	226.80
909.90	226.81
910.21	226.77
910.51	226.76
910.81	226.75
911.12	226.76
911.42	226.76
911.73	226.63
912.03	226.64
912.33	226.66
912.64	226.66
912.94	226.65
913.24	226.63
913.55	226.62
913.85	226.61
914.15	226.63
914.46	226.65
914.76	226.63
915.06	226.62
915.37	226.59
915.67	226.60
915.97	226.60
916.27	226.57
916.58	226.59
916.88	226.59
917.18	226.59
917.49	226.67
917.79	226.66
918.09	226.68
918.39	226.71
918.70	226.70
919.00	226.70
919.30	226.76
919.60	226.77
919.91	226.76
920.21	226.77
920.51	226.75
920.81	226.73
921.12	226.75
921.42	226.76
921.72	226.76
922.02	226.76
922.32	226.77
922.63	226.78
922.93	226.84
923.23	226.84
923.53	226.84
923.83	226.75
924.13	226.76
924.44	226.76
924.74	226.78
925.04	226.81
925.34	226.80
925.64	226.76
925.94	226.76
926.24	226.83
926.55	226.82
926.85	226.84
927.15	226.85
927.45	226.85
927.75	226.85
928.05	226.85
928.35	226.84
928.65	226.86
928.95	226.86
929.26	226.80
929.56	226.81
929.86	226.83
930.16	226.82
930.46	226.81
930.76	226.80
931.06	226.75
931.36	226.71
931.66	226.73
931.96	226.73
932.26	226.74
932.56	226.68
932.86	226.68
933.16	226.68
933.46	226.68
933.76	226.66
934.06	226.68
934.36	226.73
934.66	226.73
934.96	226.71
935.26	226.71
935.56	226.73
935.86	226.70
936.16	226.67
936.46	226.67
936.76	226.66
937.06	226.64
937.36	226.64
937.66	226.66
937.96	226.65
938.26	226.63
938.56	226.62
938.86	226.64
939.16	226.67
939.46	226.68
939.76	226.68
940.06	226.68
940.35	226.66
940.65	226.59
940.95	226.60
941.25	226.57
941.55	226.56
941.85	226.55
942.15	226.57
942.45	226.61
942.75	226.61
943.04	226.61
943.34	226.64
943.64	226.63
943.94	226.62
944.24	226.61
944.54	226.63
944.84	226.63
945.13	226.61
945.43	226.59
945.73	226.58
946.03	226.57
946.33	226.56
946.62	226.55
946.92	226.55
947.22	226.56
947.52	226.57
947.82	226.59
948.11	226.58
948.41	226.55
948.71	226.52
949.01	226.53
949.31	226.52
949.60	226.50
949.90	226.52
950.20	226.51
950.50	226.51
950.79	226.48
951.09	226.50
951.39	226.49
951.69	226.47
951.98	226.49
952.28	226.48
952.58	226.48
952.87	226.48
953.17	226.49
953.47	226.47
953.76	226.47
954.06	226.44
954.36	226.42
954.66	226.42
954.95	226.45
955.25	226.46
955.55	226.47
955.84	226.45
956.14	226.45
956.44	226.47
956.73	226.45
957.03	226.45
957.32	226.44
957.62	226.44
957.92	226.46
958.21	226.45
958.51	226.59
958.81	226.61
959.10	226.62
959.40	226.65
959.69	226.66
959.99	226.68
960.29	226.67
960.58	226.68
960.88	226.72
961.17	226.70
961.47	226.71
961.76	226.69
962.06	226.71
962.36	226.70
962.65	226.70
962.95	226.70
963.24	226.70
963.54	226.72
963.83	226.72
964.13	226.72
964.42	226.71
964.72	226.61
965.01	226.60
965.31	226.59
965.60	226.55
965.90	226.62
966.19	226.59
966.49	226.60
966.78	226.60
967.08	226.59
967.37	226.58
967.67	226.57
967.96	226.59
968.26	226.59
968.55	226.61
968.85	226.61
969.14	226.61
969.43	226.61
969.73	226.60
970.02	226.60
970.32	226.59
970.61	226.57
970.91	226.55
971.20	226.54
971.49	226.54
971.79	226.56
972.08	226.47
972.38	226.48
972.67	226.47
972.96	226.49
973.26	226.46
973.55	226.51
973.85	226.50
974.14	226.49
974.43	226.49
974.73	226.47
975.02	226.46
975.31	226.45
975.61	226.45
975.90	226.43
976.19	226.43
976.49	226.43
976.78	226.44
977.07	226.44
977.37	226.44
977.66	226.45
977.95	226.45
978.24	226.46
978.54	226.48
978.83	226.49
979.12	226.48
979.42	226.48
979.71	226.45
980.00	226.45
980.29	226.45
980.59	226.44
980.88	226.46
981.17	226.46
981.46	226.47
981.76	226.46
982.05	226.50
982.34	226.50
982.63	226.50
982.93	226.50
983.22	226.53
983.51	226.54
983.80	226.55
984.09	226.57
984.39	226.55
984.68	226.54
984.97	226.55
985.26	226.54
985.55	226.55
985.85	226.53
986.14	226.56
986.43	226.58
986.72	226.58
987.01	226.54
987.30	226.54
987.59	226.54
987.89	226.55
988.18	226.51
988.47	226.51
988.76	226.50
989.05	226.48
989.34	226.45
989.63	226.48
989.92	226.46
990.22	226.43
990.51	226.44
990.80	226.42
991.09	226.43
991.38	226.45
991.67	226.44
991.96	226.43
992.25	226.43
992.54	226.40
992.83	226.39
993.12	226.39
993.41	226.42
993.70	226.46
993.99	226.48
994.28	226.50
994.58	226.53
994.87	226.51
995.16	226.52
995.45	226.51
995.74	226.47
996.03	226.48
996.32	226.50
996.61	226.52
996.90	226.53
997.19	226.51
997.48	226.51
997.77	226.49
998.06	226.50
998.34	226.49
998.63	226.49
998.92	226.50
999.21	226.52
999.50	226.51
999.79	226.47
1000.08	226.47
1000.37	226.47
1000.66	226.43
1000.95	226.46
1001.24	226.46
1001.53	226.48
1001.82	226.49
1002.11	226.46
1002.40	226.47
1002.68	226.49
1002.97	226.57
1003.26	226.57
1003.55	226.56
1003.84	226.57
1004.13	226.62
1004.42	226.60
1004.71	226.60
1004.99	226.60
1005.28	226.62
1005.57	226.62
1005.86	226.61
1006.15	226.60
1006.44	226.57
1006.72	226.59
1007.01	226.57
1007.30	226.58
1007.59	226.57
1007.88	226.57
1008.17	226.58
1008.45	226.55
1008.74	226.50
1009.03	226.44
1009.32	226.44
1009.60	226.44
1009.89	226.43
1010.18	226.37
1010.47	226.37
1010.76	226.37
1011.04	226.37
1011.33	226.37
1011.62	226.37
1011.91	226.38
1012.19	226.38
1012.48	226.39
1012.77	226.38
1013.05	226.43
1013.34	226.43
1013.63	226.42
1013.92	226.42
1014.20	226.41
1014.49	226.42
1014.78	226.44
1015.06	226.41
1015.35	226.40
1015.64	226.41
1015.92	226.44
1016.21	226.46
1016.50	226.45
1016.78	226.47
1017.07	226.48
1017.36	226.45
1017.64	226.44
1017.93	226.44
1018.22	226.43
1018.50	226.44
1018.79	226.44
1019.08	226.40
1019.36	226.40
1019.65	226.39
1019.93	226.43
1020.22	226.45
1020.51	226.51
1020.79	226.49
1021.08	226.19
1021.36	226.32
1021.65	226.51
1021.94	226.44
1022.22	226.48
1022.51	226.20
1022.79	227.01
1023.08	226.57
1023.36	227.84
1023.65	226.12
>>>>>End Processed Spectral Data<<<<<
