SpectraSuite Data File
++++++++++++++++++++++++++++++++++++
Date: Fri Oct 02 21:35:35 EDT 2015
User: lab3
Dark Spectrum Present: No
Reference Spectrum Present: No
Number of Sampled Component Spectra: 1
Spectrometers: USB2E7196
Integration Time (usec): 46000 (USB2E7196)
Spectra Averaged: 12000 (USB2E7196)
Boxcar Smoothing: 10 (USB2E7196)
Correct for Electrical Dark: No (USB2E7196)
Strobe/Lamp Enabled: No (USB2E7196)
Correct for Detector Non-linearity: No (USB2E7196)
Correct for Stray Light: No (USB2E7196)
Number of Pixels in Processed Spectrum: 2048
>>>>>Begin Processed Spectral Data<<<<<
339.09	0.00
339.48	215.68
339.86	217.13
340.24	218.51
340.63	219.94
341.01	223.19
341.39	222.65
341.78	224.01
342.16	225.27
342.54	225.66
342.93	214.04
343.31	224.86
343.69	225.39
344.07	225.86
344.46	226.29
344.84	226.68
345.22	226.91
345.60	227.17
345.99	227.36
346.37	227.49
346.75	227.60
347.13	227.68
347.52	227.75
347.90	227.84
348.28	227.88
348.66	227.93
349.05	227.93
349.43	227.99
349.81	228.04
350.19	228.10
350.57	228.16
350.96	228.25
351.34	228.34
351.72	228.44
352.10	228.55
352.48	228.61
352.87	228.66
353.25	228.73
353.63	228.79
354.01	228.86
354.39	228.94
354.77	229.01
355.15	229.11
355.54	229.16
355.92	229.19
356.30	229.26
356.68	229.41
357.06	229.48
357.44	229.53
357.82	229.59
358.20	229.71
358.58	229.77
358.97	229.83
359.35	229.91
359.73	229.99
360.11	230.04
360.49	230.10
360.87	230.15
361.25	230.21
361.63	230.29
362.01	230.35
362.39	230.37
362.77	230.42
363.15	230.44
363.53	230.47
363.91	230.51
364.29	230.53
364.67	230.44
365.05	230.46
365.43	230.49
365.81	230.52
366.19	230.54
366.57	230.59
366.95	230.59
367.33	230.56
367.71	230.55
368.09	230.57
368.47	230.57
368.85	230.56
369.23	230.57
369.61	230.51
369.99	230.53
370.37	230.53
370.75	230.60
371.13	230.57
371.51	230.53
371.89	230.51
372.27	230.49
372.65	230.46
373.03	230.42
373.41	230.38
373.78	230.33
374.16	230.23
374.54	230.15
374.92	230.10
375.30	230.06
375.68	229.99
376.06	229.95
376.44	229.89
376.82	229.85
377.19	229.80
377.57	229.75
377.95	229.65
378.33	229.59
378.71	229.43
379.09	229.39
379.47	229.36
379.84	229.29
380.22	229.23
380.60	229.16
380.98	229.11
381.36	229.05
381.73	228.99
382.11	228.97
382.49	228.92
382.87	228.86
383.25	228.82
383.62	228.92
384.00	228.85
384.38	228.82
384.76	228.80
385.13	228.80
385.51	228.76
385.89	228.70
386.27	228.67
386.64	228.66
387.02	228.61
387.40	228.56
387.78	228.54
388.15	228.52
388.53	228.49
388.91	228.46
389.29	228.43
389.66	228.42
390.04	228.38
390.42	228.38
390.79	228.37
391.17	228.35
391.55	228.20
391.92	228.19
392.30	228.19
392.68	228.15
393.05	228.13
393.43	228.13
393.81	228.14
394.18	228.12
394.56	228.12
394.94	228.15
395.31	228.15
395.69	228.19
396.06	228.22
396.44	228.24
396.82	228.26
397.19	228.34
397.57	228.35
397.95	228.40
398.32	228.39
398.70	228.44
399.07	228.50
399.45	228.53
399.82	228.58
400.20	228.61
400.58	228.67
400.95	228.68
401.33	228.76
401.70	228.91
402.08	229.01
402.45	229.10
402.83	229.21
403.20	229.32
403.58	229.41
403.95	229.55
404.33	229.69
404.71	229.83
405.08	230.04
405.46	230.20
405.83	230.38
406.21	230.57
406.58	230.78
406.96	230.99
407.33	231.24
407.70	231.51
408.08	231.89
408.45	232.21
408.83	232.56
409.20	232.88
409.58	233.17
409.95	233.56
410.33	233.99
410.70	234.39
411.08	234.87
411.45	235.38
411.82	235.88
412.20	236.47
412.57	237.16
412.95	237.70
413.32	238.41
413.69	239.14
414.07	239.91
414.44	240.75
414.82	241.61
415.19	242.62
415.56	243.64
415.94	244.68
416.31	245.87
416.68	247.06
417.06	248.44
417.43	249.74
417.81	251.22
418.18	252.74
418.55	254.39
418.93	256.11
419.30	257.90
419.67	259.81
420.04	261.76
420.42	263.79
420.79	266.16
421.16	268.54
421.54	270.96
421.91	273.49
422.28	276.11
422.66	278.93
423.03	281.64
423.40	284.46
423.77	287.50
424.15	290.60
424.52	293.84
424.89	297.34
425.26	300.81
425.64	304.05
426.01	307.69
426.38	311.41
426.75	315.25
427.13	319.19
427.50	323.31
427.87	327.61
428.24	331.94
428.61	336.10
428.99	340.60
429.36	345.53
429.73	350.25
430.10	354.98
430.47	359.82
430.85	364.80
431.22	370.15
431.59	375.65
431.96	381.02
432.33	386.99
432.70	392.67
433.08	399.38
433.45	405.73
433.82	411.98
434.19	418.96
434.56	425.85
434.93	432.49
435.30	439.07
435.68	446.51
436.05	453.79
436.42	461.03
436.79	467.64
437.16	474.79
437.53	482.42
437.90	490.06
438.27	497.55
438.64	505.61
439.01	512.92
439.38	519.59
439.75	526.01
440.13	533.23
440.50	540.10
440.87	545.54
441.24	551.49
441.61	557.98
441.98	562.68
442.35	568.26
442.72	573.95
443.09	579.34
443.46	582.71
443.83	585.14
444.20	587.14
444.57	590.18
444.94	591.82
445.31	593.53
445.68	594.93
446.05	595.89
446.42	595.31
446.79	594.55
447.16	593.85
447.53	593.19
447.90	590.66
448.27	588.20
448.64	584.62
449.01	582.06
449.37	577.20
449.74	572.78
450.11	567.14
450.48	561.01
450.85	554.89
451.22	549.62
451.59	544.50
451.96	539.86
452.33	533.20
452.70	527.29
453.07	520.11
453.43	512.97
453.80	506.05
454.17	499.43
454.54	493.35
454.91	486.50
455.28	480.09
455.65	474.05
456.02	467.70
456.38	462.58
456.75	455.99
457.12	450.70
457.49	445.36
457.86	440.35
458.23	435.96
458.59	431.10
458.96	426.14
459.33	421.77
459.70	417.34
460.07	413.98
460.43	410.01
460.80	406.33
461.17	403.12
461.54	399.63
461.91	396.40
462.27	393.11
462.64	390.46
463.01	387.38
463.38	384.29
463.74	381.50
464.11	379.05
464.48	376.85
464.85	374.44
465.21	372.64
465.58	370.61
465.95	368.28
466.32	366.44
466.68	364.62
467.05	362.79
467.42	361.00
467.78	359.07
468.15	357.30
468.52	356.01
468.88	354.27
469.25	352.68
469.62	351.43
469.98	350.05
470.35	348.83
470.72	347.73
471.08	346.59
471.45	345.65
471.82	344.59
472.18	343.46
472.55	342.74
472.92	341.82
473.28	341.11
473.65	340.34
474.02	339.61
474.38	339.00
474.75	338.64
475.11	338.15
475.48	337.92
475.85	337.67
476.21	337.54
476.58	337.45
476.94	337.59
477.31	337.65
477.67	337.74
478.04	337.94
478.41	338.22
478.77	338.64
479.14	338.90
479.50	339.39
479.87	340.04
480.23	340.69
480.60	341.33
480.96	341.97
481.33	342.92
481.69	343.88
482.06	344.82
482.42	345.69
482.79	346.76
483.15	348.01
483.52	349.43
483.88	350.79
484.25	352.25
484.61	353.76
484.98	355.41
485.34	357.27
485.71	359.20
486.07	361.27
486.44	363.33
486.80	365.63
487.17	368.03
487.53	370.65
487.90	373.39
488.26	376.38
488.62	379.53
488.99	382.68
489.35	386.00
489.72	389.60
490.08	393.40
490.44	397.32
490.81	401.39
491.17	405.56
491.54	410.05
491.90	414.70
492.26	419.66
492.63	424.85
492.99	430.27
493.36	435.88
493.72	441.79
494.08	447.85
494.45	454.28
494.81	460.96
495.17	467.83
495.54	475.08
495.90	482.61
496.26	490.33
496.63	498.29
496.99	506.58
497.35	515.24
497.72	524.17
498.08	533.32
498.44	542.80
498.80	552.84
499.17	563.12
499.53	573.69
499.89	584.66
500.26	595.83
500.62	607.32
500.98	619.42
501.34	631.70
501.71	644.48
502.07	657.48
502.43	671.00
502.79	684.72
503.16	698.91
503.52	713.31
503.88	728.13
504.24	743.39
504.60	758.86
504.97	774.82
505.33	791.22
505.69	808.50
506.05	826.08
506.41	843.57
506.78	861.30
507.14	879.57
507.50	898.26
507.86	917.31
508.22	936.55
508.59	955.65
508.95	975.64
509.31	996.36
509.67	1017.68
510.03	1039.00
510.39	1060.43
510.75	1082.08
511.12	1104.00
511.48	1126.05
511.84	1148.22
512.20	1170.85
512.56	1194.24
512.92	1217.63
513.28	1240.69
513.64	1264.08
514.00	1287.89
514.37	1311.94
514.73	1336.06
515.09	1360.09
515.45	1384.49
515.81	1408.99
516.17	1433.70
516.53	1457.80
516.89	1481.84
517.25	1506.13
517.61	1530.38
517.97	1555.09
518.33	1579.26
518.69	1603.39
519.05	1628.08
519.41	1653.07
519.77	1678.07
520.13	1702.48
520.49	1726.83
520.85	1751.57
521.21	1775.68
521.57	1800.36
521.93	1824.55
522.29	1849.18
522.65	1873.37
523.01	1897.53
523.37	1921.32
523.73	1945.78
524.09	1970.07
524.45	1994.12
524.81	2017.73
525.17	2041.22
525.53	2064.10
525.89	2087.45
526.25	2110.83
526.61	2133.20
526.97	2155.71
527.33	2178.29
527.68	2200.43
528.04	2221.87
528.40	2242.29
528.76	2263.29
529.12	2283.62
529.48	2303.53
529.84	2321.79
530.20	2340.68
530.56	2358.94
530.91	2377.44
531.27	2395.52
531.63	2412.80
531.99	2429.68
532.35	2445.95
532.71	2462.19
533.07	2479.13
533.42	2494.36
533.78	2510.56
534.14	2526.91
534.50	2542.11
534.86	2557.24
535.21	2570.53
535.57	2584.27
535.93	2597.86
536.29	2610.17
536.65	2622.47
537.00	2634.19
537.36	2646.74
537.72	2657.65
538.08	2668.29
538.44	2678.23
538.79	2687.74
539.15	2696.39
539.51	2704.65
539.87	2712.14
540.22	2717.97
540.58	2723.85
540.94	2730.97
541.29	2736.26
541.65	2739.78
542.01	2742.93
542.37	2745.24
542.72	2748.91
543.08	2750.94
543.44	2753.42
543.79	2754.87
544.15	2755.43
544.51	2756.38
544.87	2756.25
545.22	2755.43
545.58	2753.88
545.94	2752.41
546.29	2749.62
546.65	2746.87
547.01	2744.12
547.36	2742.13
547.72	2739.88
548.07	2736.04
548.43	2730.60
548.79	2724.51
549.14	2719.73
549.50	2714.92
549.86	2709.29
550.21	2702.54
550.57	2696.68
550.92	2688.66
551.28	2681.35
551.64	2674.17
551.99	2666.46
552.35	2658.14
552.70	2650.14
553.06	2642.45
553.41	2634.04
553.77	2625.39
554.13	2616.59
554.48	2606.90
554.84	2596.11
555.19	2586.09
555.55	2575.87
555.90	2565.70
556.26	2555.98
556.61	2545.17
556.97	2532.84
557.32	2521.09
557.68	2509.10
558.03	2497.01
558.39	2485.99
558.74	2475.16
559.10	2462.71
559.45	2450.60
559.81	2439.10
560.16	2426.87
560.52	2414.79
560.87	2403.06
561.23	2390.53
561.58	2378.29
561.94	2365.55
562.29	2352.27
562.64	2339.62
563.00	2326.68
563.35	2314.34
563.71	2301.72
564.06	2288.91
564.42	2276.80
564.77	2263.99
565.12	2251.24
565.48	2238.39
565.83	2225.61
566.19	2212.82
566.54	2200.03
566.89	2186.04
567.25	2172.32
567.60	2159.78
567.96	2146.41
568.31	2131.78
568.66	2118.01
569.02	2105.16
569.37	2092.31
569.72	2079.98
570.08	2066.35
570.43	2052.48
570.78	2038.16
571.14	2023.29
571.49	2009.20
571.84	1995.60
572.20	1980.69
572.55	1966.16
572.90	1951.32
573.26	1936.48
573.61	1921.19
573.96	1906.30
574.31	1891.77
574.67	1877.05
575.02	1861.54
575.37	1846.07
575.72	1831.44
576.08	1817.01
576.43	1801.50
576.78	1786.44
577.13	1771.67
577.49	1757.24
577.84	1743.33
578.19	1728.53
578.54	1713.95
578.90	1698.88
579.25	1683.69
579.60	1670.13
579.95	1656.26
580.30	1642.39
580.66	1628.24
581.01	1613.96
581.36	1599.80
581.71	1586.61
582.06	1573.24
582.42	1560.08
582.77	1546.93
583.12	1533.69
583.47	1520.38
583.82	1507.17
584.17	1493.65
584.53	1479.73
584.88	1466.15
585.23	1452.14
585.58	1439.08
585.93	1426.24
586.28	1414.06
586.63	1401.95
586.98	1389.23
587.34	1376.62
587.69	1363.75
588.04	1351.22
588.39	1339.14
588.74	1327.06
589.09	1314.78
589.44	1302.16
589.79	1290.21
590.14	1278.35
590.49	1266.44
590.84	1254.63
591.19	1243.28
591.54	1231.73
591.89	1220.34
592.25	1209.07
592.60	1197.52
592.95	1186.29
593.30	1175.21
593.65	1163.85
594.00	1152.58
594.35	1141.99
594.70	1131.00
595.05	1120.91
595.40	1110.69
595.75	1100.26
596.10	1090.42
596.45	1080.19
596.80	1070.30
597.15	1060.22
597.50	1050.27
597.85	1040.67
598.19	1030.97
598.54	1021.31
598.89	1012.06
599.24	1003.15
599.59	994.15
599.94	986.06
600.29	977.70
600.64	969.04
600.99	960.01
601.34	951.40
601.69	942.46
602.04	934.17
602.39	925.71
602.74	917.23
603.08	908.81
603.43	900.32
603.78	892.04
604.13	883.95
604.48	875.79
604.83	867.82
605.18	859.76
605.53	851.85
605.87	843.73
606.22	836.02
606.57	828.19
606.92	820.21
607.27	812.16
607.62	804.54
607.96	797.31
608.31	790.53
608.66	783.53
609.01	776.80
609.36	770.18
609.70	763.25
610.05	756.39
610.40	749.77
610.75	743.15
611.10	736.86
611.44	730.42
611.79	724.10
612.14	717.69
612.49	711.42
612.83	705.43
613.18	699.56
613.53	693.54
613.88	687.63
614.22	682.17
614.57	676.57
614.92	670.77
615.27	665.15
615.61	659.54
615.96	654.00
616.31	648.46
616.65	643.01
617.00	637.82
617.35	632.69
617.70	627.64
618.04	622.57
618.39	617.48
618.74	612.65
619.08	607.84
619.43	603.16
619.78	598.50
620.12	593.77
620.47	589.25
620.82	584.81
621.16	580.33
621.51	575.73
621.85	571.26
622.20	566.97
622.55	562.68
622.89	558.47
623.24	554.24
623.59	550.09
623.93	546.09
624.28	542.14
624.62	538.32
624.97	534.51
625.32	530.73
625.66	526.86
626.01	522.95
626.35	519.14
626.70	515.36
627.04	511.73
627.39	508.10
627.73	504.62
628.08	501.22
628.43	497.84
628.77	494.55
629.12	491.35
629.46	488.13
629.81	484.85
630.15	481.60
630.50	478.45
630.84	475.34
631.19	472.28
631.53	469.37
631.88	466.40
632.22	463.45
632.57	460.79
632.91	458.16
633.26	455.63
633.60	453.08
633.95	450.63
634.29	448.07
634.64	445.59
634.98	442.89
635.32	440.38
635.67	438.05
636.01	435.63
636.36	433.28
636.70	431.11
637.05	428.89
637.39	426.69
637.73	424.53
638.08	422.48
638.42	420.38
638.77	418.15
639.11	415.88
639.45	413.71
639.80	411.48
640.14	409.36
640.49	407.20
640.83	405.05
641.17	402.97
641.52	400.95
641.86	398.94
642.20	397.15
642.55	395.19
642.89	393.27
643.23	391.42
643.58	389.75
643.92	387.91
644.26	386.17
644.61	384.49
644.95	382.74
645.29	380.94
645.64	379.16
645.98	377.48
646.32	375.92
646.66	374.33
647.01	372.76
647.35	371.25
647.69	369.73
648.04	368.35
648.38	366.87
648.72	365.42
649.06	363.97
649.41	362.54
649.75	361.16
650.09	359.78
650.43	358.42
650.78	357.00
651.12	355.63
651.46	354.29
651.80	352.99
652.14	351.73
652.49	350.51
652.83	349.28
653.17	348.08
653.51	346.91
653.85	345.80
654.20	344.64
654.54	343.41
654.88	342.27
655.22	341.14
655.56	340.01
655.90	338.94
656.25	337.91
656.59	336.85
656.93	335.85
657.27	334.88
657.61	333.84
657.95	332.83
658.29	331.85
658.64	330.92
658.98	329.97
659.32	329.04
659.66	328.16
660.00	327.29
660.34	326.43
660.68	325.52
661.02	324.57
661.36	323.67
661.70	322.81
662.05	321.96
662.39	321.12
662.73	320.37
663.07	319.60
663.41	318.81
663.75	318.00
664.09	317.21
664.43	316.38
664.77	315.64
665.11	314.85
665.45	314.13
665.79	313.40
666.13	312.63
666.47	311.86
666.81	311.08
667.15	310.27
667.49	309.57
667.83	308.94
668.17	308.28
668.51	307.67
668.85	307.07
669.19	306.50
669.53	305.83
669.87	305.15
670.21	304.50
670.55	303.88
670.89	303.34
671.23	302.76
671.57	302.19
671.91	301.66
672.25	301.15
672.58	300.63
672.92	300.04
673.26	299.56
673.60	299.06
673.94	298.57
674.28	298.13
674.62	297.63
674.96	297.09
675.30	296.60
675.64	296.08
675.97	295.55
676.31	295.01
676.65	294.51
676.99	294.07
677.33	293.55
677.67	293.08
678.01	292.53
678.34	292.06
678.68	291.61
679.02	291.10
679.36	290.60
679.70	290.12
680.04	289.67
680.37	289.20
680.71	288.75
681.05	288.32
681.39	287.84
681.73	287.35
682.06	286.86
682.40	286.42
682.74	286.02
683.08	285.67
683.42	285.24
683.75	284.85
684.09	284.38
684.43	283.98
684.77	283.57
685.10	283.20
685.44	282.81
685.78	282.41
686.12	282.04
686.45	281.64
686.79	281.24
687.13	280.85
687.46	280.44
687.80	280.05
688.14	279.62
688.48	279.25
688.81	278.86
689.15	278.52
689.49	278.13
689.82	277.71
690.16	277.25
690.50	276.87
690.83	276.48
691.17	276.09
691.51	275.71
691.84	275.34
692.18	274.93
692.52	274.52
692.85	274.13
693.19	273.78
693.52	273.41
693.86	273.02
694.20	272.65
694.53	272.30
694.87	271.91
695.21	271.53
695.54	271.17
695.88	270.80
696.21	270.40
696.55	270.04
696.88	269.69
697.22	269.33
697.56	268.97
697.89	268.58
698.23	268.23
698.56	267.85
698.90	267.50
699.23	267.13
699.57	266.78
699.90	266.42
700.24	266.04
700.58	265.72
700.91	265.42
701.25	265.20
701.58	264.92
701.92	264.64
702.25	264.33
702.59	263.99
702.92	263.67
703.26	263.34
703.59	263.01
703.93	262.78
704.26	262.48
704.60	262.16
704.93	261.84
705.26	261.53
705.60	261.26
705.93	260.92
706.27	260.66
706.60	260.41
706.94	260.15
707.27	259.82
707.61	259.51
707.94	259.18
708.27	258.76
708.61	258.41
708.94	258.09
709.28	257.79
709.61	257.50
709.94	257.24
710.28	256.98
710.61	256.74
710.95	256.36
711.28	256.17
711.61	255.91
711.95	255.67
712.28	255.40
712.61	255.12
712.95	254.94
713.28	254.74
713.61	254.44
713.95	254.15
714.28	253.91
714.61	253.65
714.95	253.41
715.28	253.18
715.61	252.94
715.95	252.73
716.28	252.50
716.61	252.30
716.95	252.06
717.28	251.82
717.61	251.58
717.94	251.36
718.28	251.04
718.61	250.81
718.94	250.57
719.27	250.35
719.61	250.16
719.94	249.90
720.27	249.62
720.60	249.41
720.94	249.21
721.27	249.00
721.60	248.82
721.93	248.61
722.27	248.44
722.60	248.25
722.93	248.03
723.26	247.84
723.59	247.60
723.93	247.42
724.26	247.23
724.59	247.04
724.92	246.86
725.25	246.73
725.59	246.55
725.92	246.40
726.25	246.23
726.58	246.05
726.91	245.86
727.24	245.71
727.57	245.54
727.91	245.35
728.24	245.21
728.57	245.03
728.90	244.88
729.23	244.67
729.56	244.56
729.89	244.39
730.22	244.22
730.55	244.07
730.89	243.91
731.22	243.75
731.55	243.59
731.88	243.44
732.21	243.26
732.54	243.10
732.87	242.95
733.20	242.81
733.53	242.66
733.86	242.52
734.19	242.35
734.52	242.23
734.85	242.17
735.18	241.99
735.51	241.89
735.84	241.75
736.17	241.66
736.50	241.46
736.83	241.48
737.16	241.35
737.49	241.23
737.82	241.09
738.15	240.98
738.48	240.85
738.81	240.72
739.14	240.58
739.47	240.45
739.80	240.31
740.13	240.19
740.46	240.05
740.79	239.91
741.12	239.79
741.45	239.64
741.78	239.45
742.11	239.36
742.44	239.21
742.77	239.10
743.10	238.97
743.43	238.84
743.75	238.60
744.08	238.67
744.41	238.55
744.74	238.43
745.07	238.29
745.40	238.21
745.73	238.15
746.06	238.06
746.39	237.97
746.71	237.86
747.04	237.75
747.37	237.65
747.70	237.57
748.03	237.48
748.36	237.41
748.68	237.31
749.01	237.18
749.34	237.09
749.67	237.00
750.00	236.92
750.33	236.92
750.65	236.84
750.98	236.56
751.31	236.47
751.64	236.39
751.97	236.37
752.29	236.27
752.62	236.12
752.95	236.03
753.28	235.92
753.60	235.83
753.93	235.77
754.26	235.69
754.59	235.56
754.91	235.45
755.24	235.36
755.57	235.33
755.90	235.25
756.22	235.15
756.55	235.05
756.88	234.94
757.20	234.77
757.53	234.65
757.86	234.57
758.19	234.49
758.51	234.42
758.84	234.28
759.17	234.19
759.49	234.12
759.82	234.11
760.15	234.05
760.47	233.98
760.80	233.87
761.13	233.83
761.45	233.77
761.78	233.71
762.11	233.65
762.43	233.52
762.76	233.45
763.08	233.40
763.41	233.35
763.74	233.29
764.06	233.23
764.39	233.19
764.71	233.13
765.04	233.06
765.37	232.99
765.69	232.94
766.02	232.88
766.34	232.81
766.67	232.71
767.00	232.68
767.32	232.70
767.65	232.72
767.97	232.65
768.30	232.61
768.62	232.56
768.95	232.49
769.27	232.44
769.60	232.41
769.92	232.34
770.25	232.27
770.57	232.20
770.90	232.15
771.22	232.09
771.55	232.05
771.87	232.01
772.20	231.97
772.52	232.03
772.85	232.14
773.17	232.10
773.50	232.04
773.82	231.98
774.15	231.87
774.47	231.76
774.80	231.70
775.12	231.66
775.45	231.61
775.77	231.59
776.09	231.56
776.42	231.52
776.74	231.52
777.07	231.49
777.39	231.46
777.72	231.42
778.04	231.40
778.36	231.36
778.69	231.33
779.01	231.30
779.33	231.16
779.66	230.99
779.98	230.95
780.31	230.93
780.63	230.95
780.95	230.94
781.28	230.92
781.60	230.88
781.92	230.85
782.25	230.82
782.57	230.80
782.89	230.76
783.22	230.72
783.54	230.67
783.86	230.65
784.19	230.62
784.51	230.63
784.83	230.59
785.16	230.56
785.48	230.54
785.80	230.51
786.12	230.50
786.45	230.47
786.77	230.46
787.09	230.42
787.42	230.35
787.74	230.33
788.06	230.31
788.38	230.29
788.71	230.26
789.03	230.24
789.35	230.24
789.67	230.20
789.99	230.19
790.32	230.16
790.64	230.15
790.96	230.24
791.28	230.18
791.61	230.15
791.93	230.14
792.25	230.11
792.57	230.18
792.89	230.14
793.21	230.13
793.54	230.09
793.86	230.06
794.18	230.05
794.50	230.01
794.82	229.99
795.14	229.98
795.47	229.98
795.79	229.97
796.11	229.92
796.43	229.90
796.75	229.88
797.07	229.87
797.39	229.84
797.71	229.72
798.04	229.71
798.36	229.70
798.68	229.68
799.00	229.67
799.32	229.60
799.64	229.61
799.96	229.59
800.28	229.60
800.60	229.58
800.92	229.57
801.24	229.55
801.56	229.54
801.89	229.51
802.21	229.50
802.53	229.47
802.85	229.48
803.17	229.53
803.49	229.48
803.81	229.46
804.13	229.44
804.45	229.41
804.77	229.41
805.09	229.39
805.41	229.37
805.73	229.33
806.05	229.28
806.37	229.26
806.69	229.23
807.01	229.21
807.33	229.20
807.65	229.15
807.97	229.20
808.28	229.17
808.60	229.16
808.92	229.12
809.24	229.19
809.56	229.16
809.88	229.10
810.20	229.10
810.52	229.11
810.84	229.08
811.16	229.06
811.48	229.03
811.80	229.07
812.12	229.06
812.43	229.07
812.75	229.07
813.07	229.05
813.39	229.05
813.71	229.02
814.03	229.00
814.35	229.00
814.67	228.94
814.98	228.92
815.30	228.91
815.62	228.89
815.94	228.80
816.26	228.81
816.58	228.77
816.89	228.77
817.21	228.73
817.53	228.73
817.85	228.73
818.17	228.72
818.48	228.66
818.80	228.68
819.12	228.65
819.44	228.62
819.76	228.60
820.07	228.59
820.39	228.58
820.71	228.58
821.03	228.57
821.34	228.56
821.66	228.57
821.98	228.58
822.30	228.57
822.61	228.63
822.93	228.60
823.25	228.60
823.57	228.58
823.88	228.59
824.20	228.58
824.52	228.59
824.83	228.58
825.15	228.57
825.47	228.55
825.79	228.56
826.10	228.54
826.42	228.54
826.74	228.54
827.05	228.53
827.37	228.52
827.69	228.51
828.00	228.51
828.32	228.50
828.64	228.47
828.95	228.53
829.27	228.49
829.58	228.49
829.90	228.50
830.22	228.51
830.53	228.48
830.85	228.47
831.17	228.43
831.48	228.42
831.80	228.42
832.11	228.41
832.43	228.39
832.75	228.38
833.06	228.45
833.38	228.41
833.69	228.40
834.01	228.40
834.32	228.39
834.64	228.38
834.96	228.37
835.27	228.37
835.59	228.32
835.90	228.30
836.22	228.29
836.53	228.26
836.85	228.24
837.16	228.37
837.48	228.36
837.79	228.40
838.11	228.40
838.42	228.40
838.74	228.41
839.05	228.40
839.37	228.39
839.68	228.30
840.00	228.30
840.31	228.32
840.63	228.30
840.94	228.29
841.26	228.27
841.57	228.26
841.88	228.27
842.20	228.25
842.51	228.23
842.83	228.22
843.14	228.33
843.46	228.32
843.77	228.24
844.08	228.23
844.40	228.19
844.71	228.17
845.03	228.16
845.34	228.14
845.65	228.13
845.97	228.14
846.28	228.14
846.60	228.15
846.91	228.12
847.22	228.11
847.54	228.14
847.85	228.15
848.16	228.13
848.48	228.10
848.79	228.15
849.10	228.16
849.42	228.16
849.73	228.05
850.04	228.04
850.36	227.99
850.67	228.01
850.98	228.01
851.30	228.02
851.61	228.02
851.92	228.01
852.23	228.05
852.55	228.06
852.86	228.05
853.17	228.06
853.49	228.09
853.80	228.11
854.11	228.11
854.42	228.12
854.74	228.11
855.05	228.12
855.36	228.05
855.67	228.05
855.99	228.05
856.30	228.20
856.61	228.19
856.92	228.20
857.23	228.20
857.55	228.18
857.86	228.17
858.17	228.18
858.48	228.16
858.79	228.13
859.11	228.14
859.42	228.13
859.73	228.10
860.04	228.09
860.35	228.05
860.66	228.02
860.98	228.01
861.29	228.03
861.60	228.01
861.91	228.04
862.22	228.02
862.53	228.00
862.84	227.85
863.16	227.87
863.47	227.85
863.78	227.84
864.09	227.85
864.40	227.85
864.71	227.85
865.02	227.87
865.33	227.85
865.64	227.83
865.95	227.83
866.27	227.90
866.58	227.90
866.89	227.91
867.20	227.91
867.51	227.89
867.82	227.88
868.13	227.92
868.44	227.89
868.75	227.91
869.06	227.92
869.37	227.93
869.68	227.90
869.99	227.92
870.30	227.93
870.61	227.94
870.92	227.92
871.23	227.91
871.54	227.93
871.85	227.96
872.16	227.97
872.47	227.96
872.78	227.89
873.09	227.90
873.40	227.89
873.71	227.90
874.02	227.91
874.33	227.90
874.64	227.87
874.95	227.89
875.26	227.86
875.56	227.85
875.87	227.85
876.18	227.84
876.49	227.96
876.80	227.94
877.11	227.92
877.42	227.92
877.73	227.93
878.04	227.91
878.35	227.90
878.66	227.90
878.96	227.90
879.27	227.89
879.58	227.88
879.89	227.88
880.20	227.91
880.51	227.90
880.82	227.91
881.12	227.91
881.43	227.88
881.74	227.87
882.05	227.86
882.36	227.86
882.67	227.88
882.97	227.74
883.28	227.73
883.59	227.73
883.90	227.74
884.21	227.75
884.51	227.75
884.82	227.73
885.13	227.72
885.44	227.72
885.74	227.72
886.05	227.72
886.36	227.72
886.67	227.67
886.98	227.73
887.28	227.74
887.59	227.74
887.90	227.75
888.20	227.75
888.51	227.77
888.82	227.75
889.13	227.76
889.43	227.87
889.74	227.86
890.05	227.86
890.35	227.85
890.66	227.83
890.97	227.82
891.28	227.81
891.58	227.81
891.89	227.81
892.20	227.80
892.50	227.79
892.81	227.78
893.12	227.78
893.42	227.72
893.73	227.72
894.04	227.72
894.34	227.72
894.65	227.72
894.95	227.70
895.26	227.71
895.57	227.76
895.87	227.64
896.18	227.66
896.48	227.67
896.79	227.67
897.10	227.68
897.40	227.69
897.71	227.70
898.01	227.69
898.32	227.70
898.63	227.69
898.93	227.70
899.24	227.71
899.54	227.70
899.85	227.70
900.15	227.70
900.46	227.69
900.76	227.70
901.07	227.70
901.38	227.69
901.68	227.71
901.99	227.64
902.29	227.65
902.60	227.64
902.90	227.63
903.21	227.63
903.51	227.61
903.82	227.64
904.12	227.64
904.43	227.64
904.73	227.63
905.03	227.64
905.34	227.76
905.64	227.75
905.95	227.75
906.25	227.74
906.56	227.74
906.86	227.74
907.17	227.72
907.47	227.73
907.77	227.72
908.08	227.69
908.38	227.70
908.69	227.71
908.99	227.72
909.30	227.73
909.60	227.73
909.90	227.74
910.21	227.71
910.51	227.69
910.81	227.69
911.12	227.70
911.42	227.70
911.73	227.57
912.03	227.58
912.33	227.61
912.64	227.59
912.94	227.58
913.24	227.56
913.55	227.56
913.85	227.55
914.15	227.57
914.46	227.59
914.76	227.57
915.06	227.56
915.37	227.54
915.67	227.53
915.97	227.53
916.27	227.50
916.58	227.51
916.88	227.51
917.18	227.50
917.49	227.58
917.79	227.58
918.09	227.59
918.39	227.62
918.70	227.61
919.00	227.62
919.30	227.68
919.60	227.68
919.91	227.67
920.21	227.68
920.51	227.66
920.81	227.65
921.12	227.67
921.42	227.67
921.72	227.68
922.02	227.68
922.32	227.70
922.63	227.70
922.93	227.77
923.23	227.77
923.53	227.76
923.83	227.68
924.13	227.69
924.44	227.68
924.74	227.70
925.04	227.73
925.34	227.72
925.64	227.67
925.94	227.67
926.24	227.74
926.55	227.73
926.85	227.74
927.15	227.74
927.45	227.74
927.75	227.74
928.05	227.74
928.35	227.73
928.65	227.75
928.95	227.76
929.26	227.70
929.56	227.72
929.86	227.73
930.16	227.72
930.46	227.71
930.76	227.71
931.06	227.66
931.36	227.62
931.66	227.64
931.96	227.65
932.26	227.66
932.56	227.60
932.86	227.61
933.16	227.61
933.46	227.59
933.76	227.58
934.06	227.60
934.36	227.64
934.66	227.63
934.96	227.61
935.26	227.61
935.56	227.63
935.86	227.60
936.16	227.58
936.46	227.57
936.76	227.56
937.06	227.54
937.36	227.55
937.66	227.56
937.96	227.55
938.26	227.53
938.56	227.52
938.86	227.52
939.16	227.55
939.46	227.56
939.76	227.57
940.06	227.56
940.35	227.54
940.65	227.48
940.95	227.49
941.25	227.46
941.55	227.45
941.85	227.44
942.15	227.47
942.45	227.51
942.75	227.50
943.04	227.51
943.34	227.54
943.64	227.52
943.94	227.50
944.24	227.50
944.54	227.51
944.84	227.50
945.13	227.49
945.43	227.46
945.73	227.46
946.03	227.44
946.33	227.44
946.62	227.43
946.92	227.43
947.22	227.43
947.52	227.45
947.82	227.46
948.11	227.45
948.41	227.42
948.71	227.38
949.01	227.39
949.31	227.38
949.60	227.36
949.90	227.39
950.20	227.39
950.50	227.38
950.79	227.37
951.09	227.39
951.39	227.38
951.69	227.37
951.98	227.39
952.28	227.40
952.58	227.40
952.87	227.40
953.17	227.42
953.47	227.40
953.76	227.40
954.06	227.37
954.36	227.36
954.66	227.36
954.95	227.39
955.25	227.40
955.55	227.41
955.84	227.39
956.14	227.40
956.44	227.41
956.73	227.40
957.03	227.41
957.32	227.40
957.62	227.40
957.92	227.43
958.21	227.41
958.51	227.54
958.81	227.56
959.10	227.57
959.40	227.59
959.69	227.60
959.99	227.62
960.29	227.63
960.58	227.62
960.88	227.67
961.17	227.65
961.47	227.66
961.76	227.65
962.06	227.67
962.36	227.66
962.65	227.66
962.95	227.67
963.24	227.66
963.54	227.66
963.83	227.67
964.13	227.66
964.42	227.65
964.72	227.55
965.01	227.55
965.31	227.54
965.60	227.51
965.90	227.59
966.19	227.55
966.49	227.56
966.78	227.56
967.08	227.54
967.37	227.54
967.67	227.52
967.96	227.54
968.26	227.53
968.55	227.55
968.85	227.55
969.14	227.55
969.43	227.55
969.73	227.54
970.02	227.53
970.32	227.52
970.61	227.50
970.91	227.47
971.20	227.45
971.49	227.44
971.79	227.46
972.08	227.37
972.38	227.39
972.67	227.38
972.96	227.40
973.26	227.37
973.55	227.41
973.85	227.40
974.14	227.39
974.43	227.40
974.73	227.37
975.02	227.36
975.31	227.36
975.61	227.36
975.90	227.35
976.19	227.34
976.49	227.35
976.78	227.36
977.07	227.36
977.37	227.37
977.66	227.38
977.95	227.36
978.24	227.37
978.54	227.40
978.83	227.39
979.12	227.38
979.42	227.38
979.71	227.36
980.00	227.36
980.29	227.36
980.59	227.34
980.88	227.37
981.17	227.37
981.46	227.37
981.76	227.37
982.05	227.41
982.34	227.42
982.63	227.42
982.93	227.42
983.22	227.45
983.51	227.46
983.80	227.47
984.09	227.48
984.39	227.47
984.68	227.45
984.97	227.46
985.26	227.45
985.55	227.46
985.85	227.44
986.14	227.46
986.43	227.47
986.72	227.46
987.01	227.42
987.30	227.42
987.59	227.42
987.89	227.42
988.18	227.38
988.47	227.37
988.76	227.36
989.05	227.35
989.34	227.33
989.63	227.36
989.92	227.34
990.22	227.32
990.51	227.32
990.80	227.31
991.09	227.32
991.38	227.33
991.67	227.32
991.96	227.32
992.25	227.32
992.54	227.30
992.83	227.30
993.12	227.30
993.41	227.32
993.70	227.37
993.99	227.39
994.28	227.41
994.58	227.43
994.87	227.42
995.16	227.42
995.45	227.41
995.74	227.36
996.03	227.38
996.32	227.40
996.61	227.42
996.90	227.42
997.19	227.41
997.48	227.41
997.77	227.40
998.06	227.41
998.34	227.39
998.63	227.39
998.92	227.40
999.21	227.42
999.50	227.42
999.79	227.38
1000.08	227.37
1000.37	227.37
1000.66	227.35
1000.95	227.38
1001.24	227.39
1001.53	227.40
1001.82	227.41
1002.11	227.38
1002.40	227.39
1002.68	227.41
1002.97	227.50
1003.26	227.49
1003.55	227.47
1003.84	227.48
1004.13	227.52
1004.42	227.52
1004.71	227.52
1004.99	227.51
1005.28	227.53
1005.57	227.52
1005.86	227.51
1006.15	227.50
1006.44	227.48
1006.72	227.50
1007.01	227.48
1007.30	227.47
1007.59	227.46
1007.88	227.46
1008.17	227.46
1008.45	227.44
1008.74	227.39
1009.03	227.33
1009.32	227.33
1009.60	227.33
1009.89	227.32
1010.18	227.27
1010.47	227.26
1010.76	227.26
1011.04	227.26
1011.33	227.25
1011.62	227.26
1011.91	227.27
1012.19	227.28
1012.48	227.29
1012.77	227.28
1013.05	227.33
1013.34	227.33
1013.63	227.32
1013.92	227.33
1014.20	227.33
1014.49	227.33
1014.78	227.35
1015.06	227.31
1015.35	227.31
1015.64	227.33
1015.92	227.35
1016.21	227.36
1016.50	227.36
1016.78	227.37
1017.07	227.38
1017.36	227.36
1017.64	227.34
1017.93	227.36
1018.22	227.35
1018.50	227.34
1018.79	227.34
1019.08	227.29
1019.36	227.30
1019.65	227.29
1019.93	227.33
1020.22	227.34
1020.51	227.41
1020.79	227.39
1021.08	227.18
1021.36	227.14
1021.65	227.34
1021.94	227.29
1022.22	227.45
1022.51	227.08
1022.79	227.92
1023.08	227.50
1023.36	228.84
1023.65	227.04
>>>>>End Processed Spectral Data<<<<<
