SpectraSuite Data File
++++++++++++++++++++++++++++++++++++
Date: Fri Oct 02 16:05:21 EDT 2015
User: lab3
Dark Spectrum Present: No
Reference Spectrum Present: No
Number of Sampled Component Spectra: 1
Spectrometers: USB2E7196
Integration Time (usec): 46000 (USB2E7196)
Spectra Averaged: 1200 (USB2E7196)
Boxcar Smoothing: 10 (USB2E7196)
Correct for Electrical Dark: No (USB2E7196)
Strobe/Lamp Enabled: No (USB2E7196)
Correct for Detector Non-linearity: No (USB2E7196)
Correct for Stray Light: No (USB2E7196)
Number of Pixels in Processed Spectrum: 2048
>>>>>Begin Processed Spectral Data<<<<<
339.09	0.00
339.48	214.75
339.86	216.33
340.24	217.64
340.63	219.02
341.01	222.40
341.39	221.86
341.78	223.02
342.16	224.53
342.54	224.60
342.93	213.19
343.31	223.95
343.69	224.48
344.07	224.95
344.46	225.38
344.84	225.75
345.22	225.97
345.60	226.22
345.99	226.42
346.37	226.54
346.75	226.65
347.13	226.73
347.52	226.79
347.90	226.88
348.28	226.91
348.66	226.97
349.05	226.96
349.43	227.02
349.81	227.06
350.19	227.11
350.57	227.18
350.96	227.28
351.34	227.38
351.72	227.48
352.10	227.58
352.48	227.66
352.87	227.72
353.25	227.78
353.63	227.85
354.01	227.92
354.39	228.00
354.77	228.08
355.15	228.18
355.54	228.22
355.92	228.25
356.30	228.33
356.68	228.47
357.06	228.54
357.44	228.58
357.82	228.64
358.20	228.76
358.58	228.81
358.97	228.87
359.35	228.95
359.73	229.03
360.11	229.08
360.49	229.14
360.87	229.19
361.25	229.25
361.63	229.33
362.01	229.38
362.39	229.40
362.77	229.45
363.15	229.48
363.53	229.52
363.91	229.56
364.29	229.57
364.67	229.49
365.05	229.51
365.43	229.54
365.81	229.57
366.19	229.59
366.57	229.65
366.95	229.65
367.33	229.62
367.71	229.62
368.09	229.64
368.47	229.63
368.85	229.63
369.23	229.64
369.61	229.58
369.99	229.61
370.37	229.61
370.75	229.68
371.13	229.65
371.51	229.60
371.89	229.59
372.27	229.58
372.65	229.56
373.03	229.53
373.41	229.49
373.78	229.44
374.16	229.33
374.54	229.25
374.92	229.20
375.30	229.16
375.68	229.09
376.06	229.04
376.44	228.98
376.82	228.93
377.19	228.88
377.57	228.82
377.95	228.73
378.33	228.67
378.71	228.51
379.09	228.45
379.47	228.41
379.84	228.34
380.22	228.28
380.60	228.20
380.98	228.16
381.36	228.10
381.73	228.04
382.11	228.02
382.49	227.98
382.87	227.92
383.25	227.87
383.62	227.98
384.00	227.91
384.38	227.87
384.76	227.85
385.13	227.84
385.51	227.80
385.89	227.74
386.27	227.71
386.64	227.69
387.02	227.66
387.40	227.62
387.78	227.60
388.15	227.58
388.53	227.55
388.91	227.51
389.29	227.48
389.66	227.47
390.04	227.43
390.42	227.42
390.79	227.40
391.17	227.39
391.55	227.23
391.92	227.21
392.30	227.22
392.68	227.18
393.05	227.17
393.43	227.17
393.81	227.17
394.18	227.15
394.56	227.15
394.94	227.18
395.31	227.18
395.69	227.21
396.06	227.23
396.44	227.25
396.82	227.26
397.19	227.34
397.57	227.36
397.95	227.41
398.32	227.41
398.70	227.46
399.07	227.51
399.45	227.55
399.82	227.60
400.20	227.64
400.58	227.70
400.95	227.72
401.33	227.80
401.70	227.95
402.08	228.05
402.45	228.13
402.83	228.25
403.20	228.36
403.58	228.45
403.95	228.59
404.33	228.74
404.71	228.88
405.08	229.10
405.46	229.26
405.83	229.43
406.21	229.62
406.58	229.84
406.96	230.04
407.33	230.29
407.70	230.57
408.08	230.95
408.45	231.27
408.83	231.64
409.20	231.97
409.58	232.26
409.95	232.67
410.33	233.11
410.70	233.52
411.08	234.00
411.45	234.51
411.82	235.03
412.20	235.63
412.57	236.35
412.95	236.90
413.32	237.63
413.69	238.39
414.07	239.18
414.44	240.05
414.82	240.94
415.19	241.98
415.56	243.04
415.94	244.12
416.31	245.36
416.68	246.58
417.06	248.00
417.43	249.35
417.81	250.88
418.18	252.43
418.55	254.13
418.93	255.91
419.30	257.77
419.67	259.74
420.04	261.76
420.42	263.86
420.79	266.30
421.16	268.76
421.54	271.27
421.91	273.89
422.28	276.60
422.66	279.51
423.03	282.30
423.40	285.22
423.77	288.37
424.15	291.58
424.52	294.94
424.89	298.56
425.26	302.15
425.64	305.52
426.01	309.30
426.38	313.16
426.75	317.14
427.13	321.21
427.50	325.49
427.87	329.94
428.24	334.42
428.61	338.75
428.99	343.41
429.36	348.53
429.73	353.42
430.10	358.32
430.47	363.34
430.85	368.53
431.22	374.10
431.59	379.81
431.96	385.39
432.33	391.59
432.70	397.51
433.08	404.49
433.45	411.10
433.82	417.60
434.19	424.89
434.56	432.06
434.93	438.98
435.30	445.83
435.68	453.56
436.05	461.17
436.42	468.73
436.79	475.66
437.16	483.10
437.53	491.06
437.90	499.06
438.27	506.89
438.64	515.31
439.01	522.93
439.38	529.92
439.75	536.63
440.13	544.19
440.50	551.38
440.87	557.09
441.24	563.31
441.61	570.10
441.98	574.99
442.35	580.84
442.72	586.79
443.09	592.45
443.46	595.99
443.83	598.51
444.20	600.58
444.57	603.76
444.94	605.48
445.31	607.27
445.68	608.73
446.05	609.71
446.42	609.10
446.79	608.29
447.16	607.55
447.53	606.82
447.90	604.14
448.27	601.52
448.64	597.74
449.01	595.00
449.37	589.89
449.74	585.28
450.11	579.36
450.48	572.93
450.85	566.49
451.22	560.97
451.59	555.61
451.96	550.76
452.33	543.80
452.70	537.60
453.07	530.06
453.43	522.60
453.80	515.37
454.17	508.47
454.54	502.11
454.91	494.95
455.28	488.29
455.65	482.01
456.02	475.39
456.38	470.06
456.75	463.22
457.12	457.70
457.49	452.13
457.86	446.92
458.23	442.36
458.59	437.33
458.96	432.19
459.33	427.66
459.70	423.04
460.07	419.54
460.43	415.43
460.80	411.64
461.17	408.32
461.54	404.71
461.91	401.34
462.27	397.94
462.64	395.22
463.01	392.04
463.38	388.84
463.74	385.95
464.11	383.43
464.48	381.17
464.85	378.71
465.21	376.85
465.58	374.77
465.95	372.36
466.32	370.46
466.68	368.58
467.05	366.69
467.42	364.86
467.78	362.86
468.15	361.03
468.52	359.71
468.88	357.91
469.25	356.26
469.62	354.98
469.98	353.56
470.35	352.28
470.72	351.13
471.08	349.97
471.45	348.99
471.82	347.90
472.18	346.76
472.55	346.02
472.92	345.08
473.28	344.33
473.65	343.55
474.02	342.82
474.38	342.19
474.75	341.85
475.11	341.35
475.48	341.12
475.85	340.89
476.21	340.76
476.58	340.68
476.94	340.83
477.31	340.91
477.67	341.00
478.04	341.23
478.41	341.55
478.77	341.98
479.14	342.27
479.50	342.80
479.87	343.48
480.23	344.18
480.60	344.86
480.96	345.55
481.33	346.55
481.69	347.54
482.06	348.52
482.42	349.42
482.79	350.55
483.15	351.86
483.52	353.33
483.88	354.75
484.25	356.26
484.61	357.85
484.98	359.58
485.34	361.51
485.71	363.50
486.07	365.64
486.44	367.79
486.80	370.19
487.17	372.68
487.53	375.39
487.90	378.22
488.26	381.31
488.62	384.56
488.99	387.80
489.35	391.23
489.72	394.95
490.08	398.88
490.44	402.92
490.81	407.14
491.17	411.47
491.54	416.09
491.90	420.90
492.26	426.03
492.63	431.41
492.99	436.98
493.36	442.78
493.72	448.87
494.08	455.13
494.45	461.77
494.81	468.66
495.17	475.72
495.54	483.16
495.90	490.90
496.26	498.86
496.63	507.08
496.99	515.59
497.35	524.49
497.72	533.67
498.08	543.08
498.44	552.79
498.80	563.07
499.17	573.64
499.53	584.53
499.89	595.75
500.26	607.18
500.62	618.90
500.98	631.26
501.34	643.78
501.71	656.81
502.07	670.01
502.43	683.76
502.79	697.79
503.16	712.24
503.52	726.93
503.88	741.98
504.24	757.48
504.60	773.18
504.97	789.37
505.33	805.93
505.69	823.39
506.05	841.13
506.41	858.84
506.78	876.67
507.14	895.05
507.50	913.83
507.86	932.97
508.22	952.36
508.59	971.59
508.95	991.70
509.31	1012.44
509.67	1033.87
510.03	1055.21
510.39	1076.61
510.75	1098.28
511.12	1120.17
511.48	1142.17
511.84	1164.25
512.20	1186.67
512.56	1209.89
512.92	1233.18
513.28	1256.05
513.64	1279.09
514.00	1302.45
514.37	1326.21
514.73	1349.99
515.09	1373.64
515.45	1397.61
515.81	1421.74
516.17	1445.87
516.53	1469.51
516.89	1493.06
517.25	1516.76
517.61	1540.43
517.97	1564.39
518.33	1587.66
518.69	1610.89
519.05	1634.74
519.41	1658.70
519.77	1682.87
520.13	1706.32
520.49	1729.61
520.85	1753.19
521.21	1776.47
521.57	1800.24
521.93	1823.36
522.29	1846.86
522.65	1869.86
523.01	1892.76
523.37	1915.24
523.73	1938.50
524.09	1961.33
524.45	1984.04
524.81	2006.19
525.17	2028.04
525.53	2049.52
525.89	2071.50
526.25	2093.50
526.61	2114.40
526.97	2135.36
527.33	2156.18
527.68	2176.72
528.04	2196.59
528.40	2215.43
528.76	2234.40
529.12	2252.68
529.48	2270.88
529.84	2287.24
530.20	2304.22
530.56	2320.56
530.91	2337.02
531.27	2353.06
531.63	2368.30
531.99	2383.10
532.35	2397.35
532.71	2411.73
533.07	2426.45
533.42	2439.27
533.78	2453.11
534.14	2467.21
534.50	2480.40
534.86	2493.35
535.21	2504.49
535.57	2516.07
535.93	2527.50
536.29	2537.72
536.65	2547.97
537.00	2557.35
537.36	2567.79
537.72	2576.80
538.08	2585.25
538.44	2593.12
538.79	2600.58
539.15	2607.35
539.51	2613.58
539.87	2619.08
540.22	2622.91
540.58	2626.76
540.94	2632.07
541.29	2635.60
541.65	2637.34
542.01	2638.59
542.37	2639.20
542.72	2640.91
543.08	2641.14
543.44	2641.88
543.79	2641.71
544.15	2640.70
544.51	2639.92
544.87	2637.99
545.22	2635.30
545.58	2632.02
545.94	2628.68
546.29	2624.17
546.65	2619.76
547.01	2615.28
547.36	2611.51
547.72	2607.53
548.07	2602.28
548.43	2595.63
548.79	2588.09
549.14	2581.75
549.50	2575.57
549.86	2568.37
550.21	2560.38
550.57	2553.01
550.92	2543.57
551.28	2534.80
551.64	2526.22
551.99	2517.28
552.35	2507.84
552.70	2498.72
553.06	2490.19
553.41	2481.11
553.77	2471.66
554.13	2461.81
554.48	2451.46
554.84	2439.98
555.19	2429.14
555.55	2418.15
555.90	2407.09
556.26	2396.50
556.61	2384.99
556.97	2372.13
557.32	2359.92
557.68	2347.32
558.03	2334.68
558.39	2323.14
558.74	2311.74
559.10	2298.90
559.45	2286.28
559.81	2274.22
560.16	2261.71
560.52	2249.16
560.87	2236.82
561.23	2223.79
561.58	2211.19
561.94	2198.07
562.29	2184.53
562.64	2171.66
563.00	2158.43
563.35	2145.81
563.71	2132.95
564.06	2119.95
564.42	2107.49
564.77	2094.53
565.12	2081.73
565.48	2068.90
565.83	2056.08
566.19	2043.42
566.54	2030.56
566.89	2016.85
567.25	2003.26
567.60	1990.74
567.96	1977.56
568.31	1963.15
568.66	1949.56
569.02	1936.93
569.37	1924.21
569.72	1912.02
570.08	1898.59
570.43	1884.88
570.78	1870.78
571.14	1856.32
571.49	1842.55
571.84	1829.33
572.20	1815.01
572.55	1800.84
572.90	1786.53
573.26	1772.19
573.61	1757.39
573.96	1743.06
574.31	1728.87
574.67	1714.73
575.02	1699.76
575.37	1684.71
575.72	1670.66
576.08	1656.87
576.43	1642.09
576.78	1627.78
577.13	1613.72
577.49	1600.17
577.84	1587.12
578.19	1573.31
578.54	1559.61
578.90	1545.48
579.25	1531.25
579.60	1518.40
579.95	1505.47
580.30	1492.34
580.66	1479.02
581.01	1465.59
581.36	1452.30
581.71	1439.98
582.06	1427.45
582.42	1415.13
582.77	1403.01
583.12	1390.79
583.47	1378.36
583.82	1366.14
584.17	1353.62
584.53	1340.72
584.88	1328.04
585.23	1315.07
585.58	1302.95
585.93	1291.01
586.28	1279.63
586.63	1268.23
586.98	1256.46
587.34	1244.81
587.69	1233.02
588.04	1221.54
588.39	1210.57
588.74	1199.62
589.09	1188.44
589.44	1176.92
589.79	1165.96
590.14	1155.13
590.49	1144.19
590.84	1133.43
591.19	1122.88
591.54	1112.22
591.89	1101.78
592.25	1091.59
592.60	1081.08
592.95	1070.83
593.30	1060.80
593.65	1050.57
594.00	1040.40
594.35	1030.85
594.70	1020.86
595.05	1011.67
595.40	1002.40
595.75	992.96
596.10	983.97
596.45	974.77
596.80	965.90
597.15	956.87
597.50	947.91
597.85	939.37
598.19	930.68
598.54	922.09
598.89	913.83
599.24	905.82
599.59	897.70
599.94	890.42
600.29	882.95
600.64	875.20
600.99	867.16
601.34	859.49
601.69	851.44
602.04	844.00
602.39	836.48
602.74	829.02
603.08	821.52
603.43	813.98
603.78	806.59
604.13	799.39
604.48	792.10
604.83	785.04
605.18	777.83
605.53	770.87
605.87	763.77
606.22	756.98
606.57	750.12
606.92	743.11
607.27	736.11
607.62	729.46
607.96	723.11
608.31	717.13
608.66	710.98
609.01	705.10
609.36	699.38
609.70	693.37
610.05	687.35
610.40	681.58
610.75	675.84
611.10	670.39
611.44	664.81
611.79	659.34
612.14	653.79
612.49	648.35
612.83	643.11
613.18	638.00
613.53	632.80
613.88	627.65
614.22	622.90
614.57	618.02
614.92	612.98
615.27	608.07
615.61	603.22
615.96	598.43
616.31	593.64
616.65	588.93
617.00	584.40
617.35	579.95
617.70	575.56
618.04	571.26
618.39	566.90
618.74	562.72
619.08	558.58
619.43	554.54
619.78	550.53
620.12	546.50
620.47	542.62
620.82	538.82
621.16	535.04
621.51	531.19
621.85	527.39
622.20	523.75
622.55	520.13
622.89	516.56
623.24	513.02
623.59	509.50
623.93	506.07
624.28	502.75
624.62	499.53
624.97	496.33
625.32	493.09
625.66	489.81
626.01	486.53
626.35	483.32
626.70	480.12
627.04	477.14
627.39	474.05
627.73	471.08
628.08	468.21
628.43	465.32
628.77	462.53
629.12	459.84
629.46	457.15
629.81	454.43
630.15	451.72
630.50	449.06
630.84	446.47
631.19	443.94
631.53	441.50
631.88	439.01
632.22	436.53
632.57	434.31
632.91	432.12
633.26	429.99
633.60	427.88
633.95	425.86
634.29	423.73
634.64	421.68
634.98	419.44
635.32	417.38
635.67	415.46
636.01	413.44
636.36	411.47
636.70	409.63
637.05	407.77
637.39	405.97
637.73	404.19
638.08	402.51
638.42	400.80
638.77	398.97
639.11	397.09
639.45	395.30
639.80	393.44
640.14	391.67
640.49	389.91
640.83	388.11
641.17	386.37
641.52	384.65
641.86	382.97
642.20	381.51
642.55	379.86
642.89	378.25
643.23	376.73
643.58	375.36
643.92	373.86
644.26	372.40
644.61	370.98
644.95	369.53
645.29	368.00
645.64	366.49
645.98	365.07
646.32	363.76
646.66	362.42
647.01	361.09
647.35	359.82
647.69	358.52
648.04	357.37
648.38	356.13
648.72	354.92
649.06	353.69
649.41	352.47
649.75	351.31
650.09	350.16
650.43	348.99
650.78	347.76
651.12	346.60
651.46	345.48
651.80	344.37
652.14	343.28
652.49	342.26
652.83	341.22
653.17	340.20
653.51	339.21
653.85	338.29
654.20	337.32
654.54	336.28
654.88	335.33
655.22	334.37
655.56	333.40
655.90	332.47
656.25	331.60
656.59	330.70
656.93	329.84
657.27	328.99
657.61	328.11
657.95	327.26
658.29	326.39
658.64	325.58
658.98	324.75
659.32	323.92
659.66	323.16
660.00	322.40
660.34	321.66
660.68	320.88
661.02	320.05
661.36	319.26
661.70	318.50
662.05	317.75
662.39	317.02
662.73	316.37
663.07	315.72
663.41	315.02
663.75	314.30
664.09	313.61
664.43	312.87
664.77	312.19
665.11	311.48
665.45	310.84
665.79	310.20
666.13	309.53
666.47	308.83
666.81	308.12
667.15	307.39
667.49	306.75
667.83	306.16
668.17	305.55
668.51	304.96
668.85	304.41
669.19	303.90
669.53	303.27
669.87	302.62
670.21	301.99
670.55	301.40
670.89	300.90
671.23	300.34
671.57	299.81
671.91	299.32
672.25	298.84
672.58	298.37
672.92	297.81
673.26	297.32
673.60	296.86
673.94	296.42
674.28	295.98
674.62	295.51
674.96	294.99
675.30	294.52
675.64	294.03
675.97	293.52
676.31	292.99
676.65	292.51
676.99	292.09
677.33	291.60
677.67	291.14
678.01	290.61
678.34	290.14
678.68	289.70
679.02	289.19
679.36	288.72
679.70	288.23
680.04	287.78
680.37	287.34
680.71	286.91
681.05	286.46
681.39	286.00
681.73	285.52
682.06	285.05
682.40	284.61
682.74	284.20
683.08	283.83
683.42	283.40
683.75	283.01
684.09	282.55
684.43	282.14
684.77	281.72
685.10	281.33
685.44	280.93
685.78	280.53
686.12	280.15
686.45	279.73
686.79	279.31
687.13	278.92
687.46	278.49
687.80	278.09
688.14	277.65
688.48	277.26
688.81	276.85
689.15	276.49
689.49	276.08
689.82	275.67
690.16	275.21
690.50	274.82
690.83	274.42
691.17	274.02
691.51	273.63
691.84	273.27
692.18	272.88
692.52	272.47
692.85	272.07
693.19	271.73
693.52	271.35
693.86	270.98
694.20	270.60
694.53	270.25
694.87	269.86
695.21	269.47
695.54	269.10
695.88	268.71
696.21	268.31
696.55	267.96
696.88	267.60
697.22	267.24
697.56	266.88
697.89	266.49
698.23	266.13
698.56	265.75
698.90	265.40
699.23	265.00
699.57	264.64
699.90	264.29
700.24	263.90
700.58	263.57
700.91	263.27
701.25	263.05
701.58	262.78
701.92	262.49
702.25	262.19
702.59	261.86
702.92	261.55
703.26	261.22
703.59	260.88
703.93	260.65
704.26	260.36
704.60	260.04
704.93	259.73
705.26	259.41
705.60	259.14
705.93	258.81
706.27	258.56
706.60	258.30
706.94	258.05
707.27	257.72
707.61	257.41
707.94	257.08
708.27	256.66
708.61	256.30
708.94	255.99
709.28	255.71
709.61	255.41
709.94	255.14
710.28	254.89
710.61	254.65
710.95	254.27
711.28	254.08
711.61	253.81
711.95	253.58
712.28	253.31
712.61	253.03
712.95	252.85
713.28	252.64
713.61	252.36
713.95	252.08
714.28	251.85
714.61	251.59
714.95	251.35
715.28	251.11
715.61	250.88
715.95	250.66
716.28	250.43
716.61	250.24
716.95	250.00
717.28	249.78
717.61	249.55
717.94	249.33
718.28	249.02
718.61	248.80
718.94	248.56
719.27	248.35
719.61	248.15
719.94	247.90
720.27	247.62
720.60	247.41
720.94	247.21
721.27	247.02
721.60	246.84
721.93	246.64
722.27	246.47
722.60	246.28
722.93	246.06
723.26	245.87
723.59	245.63
723.93	245.47
724.26	245.28
724.59	245.08
724.92	244.91
725.25	244.78
725.59	244.60
725.92	244.45
726.25	244.28
726.58	244.12
726.91	243.94
727.24	243.80
727.57	243.63
727.91	243.45
728.24	243.31
728.57	243.14
728.90	243.01
729.23	242.81
729.56	242.71
729.89	242.56
730.22	242.39
730.55	242.24
730.89	242.08
731.22	241.93
731.55	241.78
731.88	241.62
732.21	241.43
732.54	241.28
732.87	241.13
733.20	240.99
733.53	240.84
733.86	240.71
734.19	240.56
734.52	240.44
734.85	240.39
735.18	240.22
735.51	240.12
735.84	239.99
736.17	239.90
736.50	239.71
736.83	239.74
737.16	239.63
737.49	239.51
737.82	239.38
738.15	239.27
738.48	239.16
738.81	239.03
739.14	238.91
739.47	238.79
739.80	238.67
740.13	238.56
740.46	238.42
740.79	238.29
741.12	238.16
741.45	238.00
741.78	237.81
742.11	237.73
742.44	237.58
742.77	237.48
743.10	237.35
743.43	237.22
743.75	236.97
744.08	237.05
744.41	236.95
744.74	236.85
745.07	236.71
745.40	236.64
745.73	236.60
746.06	236.50
746.39	236.44
746.71	236.32
747.04	236.22
747.37	236.13
747.70	236.08
748.03	236.00
748.36	235.94
748.68	235.87
749.01	235.73
749.34	235.64
749.67	235.55
750.00	235.49
750.33	235.50
750.65	235.43
750.98	235.15
751.31	235.06
751.64	234.98
751.97	234.98
752.29	234.88
752.62	234.74
752.95	234.65
753.28	234.55
753.60	234.46
753.93	234.40
754.26	234.33
754.59	234.21
754.91	234.11
755.24	234.02
755.57	234.00
755.90	233.93
756.22	233.84
756.55	233.74
756.88	233.64
757.20	233.49
757.53	233.38
757.86	233.30
758.19	233.23
758.51	233.16
758.84	233.02
759.17	232.92
759.49	232.86
759.82	232.86
760.15	232.80
760.47	232.74
760.80	232.64
761.13	232.60
761.45	232.53
761.78	232.47
762.11	232.41
762.43	232.28
762.76	232.23
763.08	232.18
763.41	232.12
763.74	232.07
764.06	232.02
764.39	231.97
764.71	231.91
765.04	231.84
765.37	231.77
765.69	231.72
766.02	231.67
766.34	231.62
766.67	231.52
767.00	231.48
767.32	231.51
767.65	231.53
767.97	231.46
768.30	231.43
768.62	231.39
768.95	231.33
769.27	231.28
769.60	231.24
769.92	231.19
770.25	231.12
770.57	231.05
770.90	231.00
771.22	230.94
771.55	230.89
771.87	230.86
772.20	230.83
772.52	230.90
772.85	231.01
773.17	230.96
773.50	230.91
773.82	230.84
774.15	230.74
774.47	230.61
774.80	230.56
775.12	230.50
775.45	230.46
775.77	230.43
776.09	230.40
776.42	230.37
776.74	230.37
777.07	230.34
777.39	230.32
777.72	230.28
778.04	230.27
778.36	230.24
778.69	230.20
779.01	230.18
779.33	230.03
779.66	229.85
779.98	229.82
780.31	229.81
780.63	229.84
780.95	229.84
781.28	229.82
781.60	229.78
781.92	229.76
782.25	229.73
782.57	229.70
782.89	229.66
783.22	229.63
783.54	229.57
783.86	229.55
784.19	229.52
784.51	229.52
784.83	229.48
785.16	229.45
785.48	229.43
785.80	229.41
786.12	229.39
786.45	229.37
786.77	229.36
787.09	229.32
787.42	229.23
787.74	229.22
788.06	229.20
788.38	229.17
788.71	229.16
789.03	229.14
789.35	229.13
789.67	229.10
789.99	229.09
790.32	229.06
790.64	229.05
790.96	229.15
791.28	229.08
791.61	229.06
791.93	229.05
792.25	229.03
792.57	229.10
792.89	229.08
793.21	229.07
793.54	229.03
793.86	229.01
794.18	229.01
794.50	228.96
794.82	228.94
795.14	228.95
795.47	228.95
795.79	228.94
796.11	228.90
796.43	228.87
796.75	228.86
797.07	228.85
797.39	228.83
797.71	228.70
798.04	228.71
798.36	228.71
798.68	228.68
799.00	228.67
799.32	228.59
799.64	228.59
799.96	228.57
800.28	228.58
800.60	228.57
800.92	228.56
801.24	228.54
801.56	228.54
801.89	228.51
802.21	228.50
802.53	228.46
802.85	228.49
803.17	228.54
803.49	228.48
803.81	228.47
804.13	228.44
804.45	228.42
804.77	228.42
805.09	228.40
805.41	228.37
805.73	228.34
806.05	228.28
806.37	228.26
806.69	228.23
807.01	228.20
807.33	228.19
807.65	228.13
807.97	228.17
808.28	228.14
808.60	228.13
808.92	228.09
809.24	228.16
809.56	228.12
809.88	228.06
810.20	228.06
810.52	228.07
810.84	228.05
811.16	228.03
811.48	228.00
811.80	228.03
812.12	228.01
812.43	228.02
812.75	228.03
813.07	228.00
813.39	227.99
813.71	227.98
814.03	227.96
814.35	227.96
814.67	227.90
814.98	227.87
815.30	227.85
815.62	227.82
815.94	227.73
816.26	227.73
816.58	227.70
816.89	227.71
817.21	227.67
817.53	227.66
817.85	227.65
818.17	227.65
818.48	227.59
818.80	227.61
819.12	227.58
819.44	227.55
819.76	227.53
820.07	227.53
820.39	227.51
820.71	227.51
821.03	227.50
821.34	227.49
821.66	227.51
821.98	227.53
822.30	227.52
822.61	227.59
822.93	227.56
823.25	227.54
823.57	227.53
823.88	227.54
824.20	227.53
824.52	227.55
824.83	227.53
825.15	227.52
825.47	227.50
825.79	227.50
826.10	227.49
826.42	227.48
826.74	227.49
827.05	227.48
827.37	227.48
827.69	227.47
828.00	227.45
828.32	227.45
828.64	227.41
828.95	227.47
829.27	227.44
829.58	227.43
829.90	227.45
830.22	227.45
830.53	227.43
830.85	227.41
831.17	227.37
831.48	227.36
831.80	227.36
832.11	227.35
832.43	227.32
832.75	227.32
833.06	227.39
833.38	227.35
833.69	227.34
834.01	227.33
834.32	227.33
834.64	227.33
834.96	227.32
835.27	227.32
835.59	227.27
835.90	227.24
836.22	227.23
836.53	227.21
836.85	227.20
837.16	227.32
837.48	227.32
837.79	227.35
838.11	227.35
838.42	227.35
838.74	227.35
839.05	227.35
839.37	227.34
839.68	227.26
840.00	227.26
840.31	227.27
840.63	227.26
840.94	227.25
841.26	227.23
841.57	227.22
841.88	227.24
842.20	227.22
842.51	227.20
842.83	227.19
843.14	227.30
843.46	227.28
843.77	227.21
844.08	227.21
844.40	227.17
844.71	227.16
845.03	227.15
845.34	227.14
845.65	227.13
845.97	227.13
846.28	227.14
846.60	227.14
846.91	227.11
847.22	227.11
847.54	227.13
847.85	227.14
848.16	227.13
848.48	227.10
848.79	227.15
849.10	227.17
849.42	227.18
849.73	227.05
850.04	227.06
850.36	227.01
850.67	227.02
850.98	227.03
851.30	227.04
851.61	227.03
851.92	227.03
852.23	227.07
852.55	227.07
852.86	227.07
853.17	227.08
853.49	227.09
853.80	227.12
854.11	227.12
854.42	227.14
854.74	227.14
855.05	227.14
855.36	227.07
855.67	227.07
855.99	227.06
856.30	227.23
856.61	227.23
856.92	227.23
857.23	227.23
857.55	227.21
857.86	227.19
858.17	227.22
858.48	227.20
858.79	227.18
859.11	227.18
859.42	227.18
859.73	227.17
860.04	227.16
860.35	227.12
860.66	227.08
860.98	227.06
861.29	227.07
861.60	227.08
861.91	227.11
862.22	227.08
862.53	227.06
862.84	226.90
863.16	226.93
863.47	226.91
863.78	226.89
864.09	226.91
864.40	226.93
864.71	226.93
865.02	226.95
865.33	226.94
865.64	226.92
865.95	226.91
866.27	226.98
866.58	226.98
866.89	227.00
867.20	227.00
867.51	226.98
867.82	226.98
868.13	227.00
868.44	226.97
868.75	227.00
869.06	227.01
869.37	227.03
869.68	226.99
869.99	227.00
870.30	227.01
870.61	227.02
870.92	226.99
871.23	226.97
871.54	226.97
871.85	227.01
872.16	227.02
872.47	227.01
872.78	226.94
873.09	226.95
873.40	226.94
873.71	226.95
874.02	226.96
874.33	226.94
874.64	226.92
874.95	226.95
875.26	226.91
875.56	226.91
875.87	226.90
876.18	226.89
876.49	227.02
876.80	227.00
877.11	226.98
877.42	226.99
877.73	226.99
878.04	226.96
878.35	226.96
878.66	226.96
878.96	226.96
879.27	226.95
879.58	226.94
879.89	226.93
880.20	226.97
880.51	226.95
880.82	226.95
881.12	226.96
881.43	226.92
881.74	226.91
882.05	226.91
882.36	226.92
882.67	226.94
882.97	226.80
883.28	226.79
883.59	226.78
883.90	226.79
884.21	226.81
884.51	226.80
884.82	226.78
885.13	226.77
885.44	226.77
885.74	226.77
886.05	226.77
886.36	226.76
886.67	226.71
886.98	226.78
887.28	226.79
887.59	226.79
887.90	226.80
888.20	226.80
888.51	226.82
888.82	226.80
889.13	226.81
889.43	226.91
889.74	226.91
890.05	226.91
890.35	226.90
890.66	226.86
890.97	226.86
891.28	226.85
891.58	226.86
891.89	226.85
892.20	226.85
892.50	226.83
892.81	226.82
893.12	226.82
893.42	226.76
893.73	226.76
894.04	226.76
894.34	226.76
894.65	226.76
894.95	226.74
895.26	226.74
895.57	226.78
895.87	226.66
896.18	226.70
896.48	226.70
896.79	226.70
897.10	226.72
897.40	226.71
897.71	226.73
898.01	226.72
898.32	226.73
898.63	226.74
898.93	226.75
899.24	226.76
899.54	226.74
899.85	226.75
900.15	226.74
900.46	226.74
900.76	226.75
901.07	226.74
901.38	226.74
901.68	226.76
901.99	226.69
902.29	226.71
902.60	226.68
902.90	226.66
903.21	226.66
903.51	226.66
903.82	226.69
904.12	226.68
904.43	226.69
904.73	226.66
905.03	226.67
905.34	226.79
905.64	226.78
905.95	226.78
906.25	226.78
906.56	226.78
906.86	226.78
907.17	226.75
907.47	226.76
907.77	226.75
908.08	226.72
908.38	226.73
908.69	226.73
908.99	226.75
909.30	226.76
909.60	226.76
909.90	226.76
910.21	226.72
910.51	226.71
910.81	226.71
911.12	226.71
911.42	226.72
911.73	226.59
912.03	226.61
912.33	226.63
912.64	226.61
912.94	226.59
913.24	226.58
913.55	226.57
913.85	226.56
914.15	226.58
914.46	226.60
914.76	226.59
915.06	226.59
915.37	226.57
915.67	226.56
915.97	226.55
916.27	226.53
916.58	226.54
916.88	226.53
917.18	226.52
917.49	226.60
917.79	226.59
918.09	226.60
918.39	226.63
918.70	226.63
919.00	226.63
919.30	226.69
919.60	226.68
919.91	226.66
920.21	226.67
920.51	226.64
920.81	226.63
921.12	226.64
921.42	226.63
921.72	226.64
922.02	226.65
922.32	226.67
922.63	226.67
922.93	226.73
923.23	226.75
923.53	226.74
923.83	226.66
924.13	226.67
924.44	226.68
924.74	226.69
925.04	226.71
925.34	226.71
925.64	226.66
925.94	226.66
926.24	226.74
926.55	226.74
926.85	226.76
927.15	226.76
927.45	226.76
927.75	226.76
928.05	226.76
928.35	226.76
928.65	226.79
928.95	226.79
929.26	226.73
929.56	226.76
929.86	226.78
930.16	226.76
930.46	226.76
930.76	226.75
931.06	226.69
931.36	226.67
931.66	226.69
931.96	226.71
932.26	226.72
932.56	226.66
932.86	226.67
933.16	226.66
933.46	226.66
933.76	226.64
934.06	226.66
934.36	226.69
934.66	226.69
934.96	226.65
935.26	226.66
935.56	226.68
935.86	226.64
936.16	226.62
936.46	226.61
936.76	226.61
937.06	226.59
937.36	226.61
937.66	226.62
937.96	226.60
938.26	226.57
938.56	226.56
938.86	226.58
939.16	226.60
939.46	226.62
939.76	226.63
940.06	226.63
940.35	226.61
940.65	226.56
940.95	226.57
941.25	226.54
941.55	226.52
941.85	226.51
942.15	226.55
942.45	226.58
942.75	226.58
943.04	226.57
943.34	226.59
943.64	226.58
943.94	226.55
944.24	226.55
944.54	226.56
944.84	226.56
945.13	226.52
945.43	226.50
945.73	226.49
946.03	226.47
946.33	226.46
946.62	226.45
946.92	226.45
947.22	226.46
947.52	226.46
947.82	226.49
948.11	226.47
948.41	226.42
948.71	226.39
949.01	226.40
949.31	226.40
949.60	226.38
949.90	226.40
950.20	226.39
950.50	226.39
950.79	226.38
951.09	226.39
951.39	226.40
951.69	226.39
951.98	226.41
952.28	226.42
952.58	226.42
952.87	226.43
953.17	226.44
953.47	226.43
953.76	226.43
954.06	226.41
954.36	226.40
954.66	226.41
954.95	226.44
955.25	226.46
955.55	226.47
955.84	226.45
956.14	226.47
956.44	226.48
956.73	226.46
957.03	226.47
957.32	226.48
957.62	226.47
957.92	226.49
958.21	226.48
958.51	226.62
958.81	226.63
959.10	226.64
959.40	226.66
959.69	226.67
959.99	226.69
960.29	226.69
960.58	226.69
960.88	226.75
961.17	226.74
961.47	226.75
961.76	226.74
962.06	226.75
962.36	226.72
962.65	226.74
962.95	226.75
963.24	226.74
963.54	226.74
963.83	226.73
964.13	226.72
964.42	226.71
964.72	226.60
965.01	226.61
965.31	226.59
965.60	226.57
965.90	226.65
966.19	226.62
966.49	226.62
966.78	226.62
967.08	226.59
967.37	226.59
967.67	226.56
967.96	226.57
968.26	226.57
968.55	226.60
968.85	226.58
969.14	226.58
969.43	226.58
969.73	226.57
970.02	226.57
970.32	226.57
970.61	226.55
970.91	226.51
971.20	226.49
971.49	226.47
971.79	226.48
972.08	226.39
972.38	226.41
972.67	226.41
972.96	226.42
973.26	226.40
973.55	226.43
973.85	226.43
974.14	226.42
974.43	226.43
974.73	226.40
975.02	226.40
975.31	226.40
975.61	226.40
975.90	226.39
976.19	226.38
976.49	226.39
976.78	226.41
977.07	226.40
977.37	226.41
977.66	226.43
977.95	226.41
978.24	226.43
978.54	226.44
978.83	226.44
979.12	226.43
979.42	226.43
979.71	226.40
980.00	226.40
980.29	226.40
980.59	226.37
980.88	226.41
981.17	226.40
981.46	226.40
981.76	226.41
982.05	226.45
982.34	226.46
982.63	226.46
982.93	226.45
983.22	226.49
983.51	226.50
983.80	226.52
984.09	226.54
984.39	226.52
984.68	226.50
984.97	226.51
985.26	226.51
985.55	226.52
985.85	226.50
986.14	226.52
986.43	226.54
986.72	226.54
987.01	226.49
987.30	226.49
987.59	226.48
987.89	226.48
988.18	226.44
988.47	226.43
988.76	226.41
989.05	226.41
989.34	226.38
989.63	226.40
989.92	226.39
990.22	226.36
990.51	226.36
990.80	226.35
991.09	226.36
991.38	226.37
991.67	226.35
991.96	226.34
992.25	226.32
992.54	226.30
992.83	226.30
993.12	226.31
993.41	226.32
993.70	226.37
993.99	226.40
994.28	226.41
994.58	226.44
994.87	226.43
995.16	226.42
995.45	226.42
995.74	226.37
996.03	226.39
996.32	226.41
996.61	226.44
996.90	226.43
997.19	226.42
997.48	226.42
997.77	226.41
998.06	226.42
998.34	226.40
998.63	226.40
998.92	226.40
999.21	226.43
999.50	226.43
999.79	226.39
1000.08	226.38
1000.37	226.38
1000.66	226.36
1000.95	226.40
1001.24	226.41
1001.53	226.43
1001.82	226.43
1002.11	226.40
1002.40	226.41
1002.68	226.44
1002.97	226.53
1003.26	226.53
1003.55	226.50
1003.84	226.52
1004.13	226.56
1004.42	226.57
1004.71	226.57
1004.99	226.56
1005.28	226.58
1005.57	226.57
1005.86	226.56
1006.15	226.55
1006.44	226.53
1006.72	226.55
1007.01	226.52
1007.30	226.52
1007.59	226.50
1007.88	226.51
1008.17	226.52
1008.45	226.48
1008.74	226.42
1009.03	226.37
1009.32	226.37
1009.60	226.37
1009.89	226.36
1010.18	226.31
1010.47	226.31
1010.76	226.31
1011.04	226.32
1011.33	226.31
1011.62	226.33
1011.91	226.34
1012.19	226.33
1012.48	226.35
1012.77	226.34
1013.05	226.39
1013.34	226.38
1013.63	226.39
1013.92	226.39
1014.20	226.38
1014.49	226.40
1014.78	226.42
1015.06	226.37
1015.35	226.37
1015.64	226.40
1015.92	226.42
1016.21	226.43
1016.50	226.43
1016.78	226.43
1017.07	226.44
1017.36	226.41
1017.64	226.39
1017.93	226.40
1018.22	226.40
1018.50	226.39
1018.79	226.38
1019.08	226.34
1019.36	226.35
1019.65	226.34
1019.93	226.37
1020.22	226.39
1020.51	226.45
1020.79	226.44
1021.08	226.24
1021.36	226.24
1021.65	226.24
1021.94	226.30
1022.22	226.58
1022.51	226.22
1022.79	226.94
1023.08	226.66
1023.36	227.81
1023.65	226.10
>>>>>End Processed Spectral Data<<<<<
