SpectraSuite Data File
++++++++++++++++++++++++++++++++++++
Date: Fri Oct 02 15:43:41 EDT 2015
User: lab3
Dark Spectrum Present: No
Reference Spectrum Present: No
Number of Sampled Component Spectra: 1
Spectrometers: USB2E7196
Integration Time (usec): 46000 (USB2E7196)
Spectra Averaged: 1200 (USB2E7196)
Boxcar Smoothing: 10 (USB2E7196)
Correct for Electrical Dark: No (USB2E7196)
Strobe/Lamp Enabled: No (USB2E7196)
Correct for Detector Non-linearity: No (USB2E7196)
Correct for Stray Light: No (USB2E7196)
Number of Pixels in Processed Spectrum: 2048
>>>>>Begin Processed Spectral Data<<<<<
339.09	0.00
339.48	213.63
339.86	215.07
340.24	216.63
340.63	217.99
341.01	221.16
341.39	220.53
341.78	221.92
342.16	223.24
342.54	223.61
342.93	212.14
343.31	222.86
343.69	223.40
344.07	223.86
344.46	224.29
344.84	224.67
345.22	224.90
345.60	225.16
345.99	225.35
346.37	225.48
346.75	225.59
347.13	225.67
347.52	225.73
347.90	225.82
348.28	225.85
348.66	225.91
349.05	225.90
349.43	225.95
349.81	226.01
350.19	226.06
350.57	226.13
350.96	226.21
351.34	226.30
351.72	226.39
352.10	226.52
352.48	226.58
352.87	226.63
353.25	226.70
353.63	226.76
354.01	226.83
354.39	226.92
354.77	227.00
355.15	227.10
355.54	227.16
355.92	227.18
356.30	227.26
356.68	227.41
357.06	227.50
357.44	227.54
357.82	227.60
358.20	227.72
358.58	227.78
358.97	227.85
359.35	227.93
359.73	228.02
360.11	228.05
360.49	228.11
360.87	228.16
361.25	228.22
361.63	228.32
362.01	228.38
362.39	228.40
362.77	228.44
363.15	228.47
363.53	228.50
363.91	228.54
364.29	228.55
364.67	228.45
365.05	228.47
365.43	228.51
365.81	228.54
366.19	228.55
366.57	228.61
366.95	228.60
367.33	228.58
367.71	228.57
368.09	228.59
368.47	228.59
368.85	228.59
369.23	228.59
369.61	228.53
369.99	228.55
370.37	228.53
370.75	228.62
371.13	228.58
371.51	228.55
371.89	228.52
372.27	228.51
372.65	228.48
373.03	228.44
373.41	228.39
373.78	228.35
374.16	228.25
374.54	228.17
374.92	228.12
375.30	228.08
375.68	228.01
376.06	227.96
376.44	227.91
376.82	227.86
377.19	227.81
377.57	227.75
377.95	227.66
378.33	227.60
378.71	227.43
379.09	227.38
379.47	227.34
379.84	227.27
380.22	227.20
380.60	227.13
380.98	227.09
381.36	227.03
381.73	226.98
382.11	226.95
382.49	226.91
382.87	226.84
383.25	226.79
383.62	226.89
384.00	226.82
384.38	226.78
384.76	226.77
385.13	226.76
385.51	226.72
385.89	226.68
386.27	226.64
386.64	226.62
387.02	226.57
387.40	226.53
387.78	226.51
388.15	226.50
388.53	226.47
388.91	226.43
389.29	226.40
389.66	226.39
390.04	226.36
390.42	226.35
390.79	226.34
391.17	226.32
391.55	226.17
391.92	226.16
392.30	226.16
392.68	226.12
393.05	226.09
393.43	226.10
393.81	226.10
394.18	226.08
394.56	226.07
394.94	226.11
395.31	226.11
395.69	226.15
396.06	226.17
396.44	226.20
396.82	226.21
397.19	226.30
397.57	226.31
397.95	226.35
398.32	226.35
398.70	226.40
399.07	226.46
399.45	226.50
399.82	226.54
400.20	226.58
400.58	226.64
400.95	226.66
401.33	226.74
401.70	226.89
402.08	227.01
402.45	227.10
402.83	227.22
403.20	227.33
403.58	227.43
403.95	227.58
404.33	227.72
404.71	227.86
405.08	228.07
405.46	228.22
405.83	228.41
406.21	228.61
406.58	228.82
406.96	229.02
407.33	229.27
407.70	229.56
408.08	229.95
408.45	230.29
408.83	230.65
409.20	230.97
409.58	231.27
409.95	231.66
410.33	232.11
410.70	232.52
411.08	233.01
411.45	233.52
411.82	234.04
412.20	234.64
412.57	235.35
412.95	235.89
413.32	236.63
413.69	237.37
414.07	238.16
414.44	239.02
414.82	239.91
415.19	240.94
415.56	241.98
415.94	243.05
416.31	244.26
416.68	245.48
417.06	246.89
417.43	248.21
417.81	249.74
418.18	251.28
418.55	252.97
418.93	254.74
419.30	256.59
419.67	258.54
420.04	260.55
420.42	262.64
420.79	265.08
421.16	267.51
421.54	270.01
421.91	272.61
422.28	275.31
422.66	278.22
423.03	281.01
423.40	283.92
423.77	287.04
424.15	290.23
424.52	293.55
424.89	297.16
425.26	300.74
425.64	304.07
426.01	307.79
426.38	311.63
426.75	315.58
427.13	319.62
427.50	323.86
427.87	328.27
428.24	332.72
428.61	337.00
428.99	341.64
429.36	346.72
429.73	351.59
430.10	356.46
430.47	361.43
430.85	366.53
431.22	372.05
431.59	377.72
431.96	383.25
432.33	389.40
432.70	395.27
433.08	402.16
433.45	408.72
433.82	415.19
434.19	422.40
434.56	429.50
434.93	436.38
435.30	443.17
435.68	450.84
436.05	458.38
436.42	465.88
436.79	472.72
437.16	480.09
437.53	488.01
437.90	495.92
438.27	503.69
438.64	512.05
439.01	519.63
439.38	526.57
439.75	533.24
440.13	540.78
440.50	547.91
440.87	553.61
441.24	559.81
441.61	566.59
441.98	571.49
442.35	577.32
442.72	583.25
443.09	588.90
443.46	592.44
443.83	594.99
444.20	597.11
444.57	600.33
444.94	602.10
445.31	603.90
445.68	605.41
446.05	606.43
446.42	605.90
446.79	605.15
447.16	604.45
447.53	603.81
447.90	601.17
448.27	598.68
448.64	594.99
449.01	592.32
449.37	587.26
449.74	582.70
450.11	576.89
450.48	570.52
450.85	564.19
451.22	558.74
451.59	553.46
451.96	548.66
452.33	541.74
452.70	535.60
453.07	528.16
453.43	520.77
453.80	513.60
454.17	506.74
454.54	500.43
454.91	493.33
455.28	486.69
455.65	480.46
456.02	473.86
456.38	468.54
456.75	461.75
457.12	456.29
457.49	450.78
457.86	445.58
458.23	441.06
458.59	436.04
458.96	430.92
459.33	426.40
459.70	421.80
460.07	418.33
460.43	414.25
460.80	410.44
461.17	407.13
461.54	403.54
461.91	400.21
462.27	396.81
462.64	394.09
463.01	390.92
463.38	387.73
463.74	384.85
464.11	382.33
464.48	380.08
464.85	377.60
465.21	375.73
465.58	373.66
465.95	371.25
466.32	369.35
466.68	367.46
467.05	365.59
467.42	363.74
467.78	361.76
468.15	359.93
468.52	358.62
468.88	356.81
469.25	355.18
469.62	353.88
469.98	352.47
470.35	351.19
470.72	350.06
471.08	348.91
471.45	347.95
471.82	346.87
472.18	345.70
472.55	344.97
472.92	344.02
473.28	343.28
473.65	342.48
474.02	341.74
474.38	341.12
474.75	340.76
475.11	340.24
475.48	340.00
475.85	339.75
476.21	339.61
476.58	339.53
476.94	339.67
477.31	339.75
477.67	339.85
478.04	340.07
478.41	340.35
478.77	340.77
479.14	341.04
479.50	341.55
479.87	342.22
480.23	342.91
480.60	343.57
480.96	344.23
481.33	345.23
481.69	346.22
482.06	347.21
482.42	348.10
482.79	349.22
483.15	350.52
483.52	351.99
483.88	353.42
484.25	354.93
484.61	356.51
484.98	358.21
485.34	360.13
485.71	362.13
486.07	364.28
486.44	366.41
486.80	368.80
487.17	371.28
487.53	373.99
487.90	376.81
488.26	379.91
488.62	383.17
488.99	386.41
489.35	389.81
489.72	393.50
490.08	397.41
490.44	401.45
490.81	405.66
491.17	409.95
491.54	414.55
491.90	419.31
492.26	424.40
492.63	429.73
492.99	435.31
493.36	441.08
493.72	447.14
494.08	453.36
494.45	459.95
494.81	466.79
495.17	473.80
495.54	481.18
495.90	488.90
496.26	496.81
496.63	504.98
496.99	513.46
497.35	522.31
497.72	531.44
498.08	540.78
498.44	550.42
498.80	560.64
499.17	571.15
499.53	582.00
499.89	593.17
500.26	604.54
500.62	616.15
500.98	628.44
501.34	640.91
501.71	653.89
502.07	667.02
502.43	680.64
502.79	694.59
503.16	708.98
503.52	723.55
503.88	738.52
504.24	753.95
504.60	769.58
504.97	785.68
505.33	802.12
505.69	819.50
506.05	837.15
506.41	854.77
506.78	872.51
507.14	890.73
507.50	909.44
507.86	928.51
508.22	947.84
508.59	966.98
508.95	986.91
509.31	1007.52
509.67	1028.87
510.03	1050.20
510.39	1071.46
510.75	1092.99
511.12	1114.76
511.48	1136.68
511.84	1158.60
512.20	1180.85
512.56	1203.97
512.92	1227.15
513.28	1249.87
513.64	1272.77
514.00	1296.03
514.37	1319.69
514.73	1343.32
515.09	1366.82
515.45	1390.61
515.81	1414.62
516.17	1438.59
516.53	1462.13
516.89	1485.55
517.25	1509.13
517.61	1532.63
517.97	1556.49
518.33	1579.67
518.69	1602.78
519.05	1626.38
519.41	1650.13
519.77	1674.18
520.13	1697.45
520.49	1720.66
520.85	1744.10
521.21	1767.31
521.57	1790.96
521.93	1813.95
522.29	1837.44
522.65	1860.25
523.01	1883.01
523.37	1905.31
523.73	1928.40
524.09	1951.11
524.45	1973.61
524.81	1995.65
525.17	2017.37
525.53	2038.70
525.89	2060.59
526.25	2082.47
526.61	2103.26
526.97	2124.17
527.33	2144.81
527.68	2165.22
528.04	2184.93
528.40	2203.71
528.76	2222.47
529.12	2240.61
529.48	2258.73
529.84	2274.89
530.20	2291.72
530.56	2308.03
530.91	2324.39
531.27	2340.33
531.63	2355.46
531.99	2370.10
532.35	2384.14
532.71	2398.46
533.07	2413.07
533.42	2425.79
533.78	2439.43
534.14	2453.42
534.50	2466.54
534.86	2479.52
535.21	2490.59
535.57	2502.13
535.93	2513.43
536.29	2523.64
536.65	2533.82
537.00	2543.00
537.36	2553.31
537.72	2562.36
538.08	2570.64
538.44	2578.36
538.79	2585.75
539.15	2592.36
539.51	2598.69
539.87	2604.26
540.22	2607.97
540.58	2611.75
540.94	2616.89
541.29	2620.51
541.65	2622.32
542.01	2623.54
542.37	2624.03
542.72	2625.70
543.08	2625.81
543.44	2626.52
543.79	2626.29
544.15	2625.22
544.51	2624.50
544.87	2622.57
545.22	2619.90
545.58	2616.64
545.94	2613.28
546.29	2608.76
546.65	2604.37
547.01	2599.77
547.36	2595.84
547.72	2591.92
548.07	2586.69
548.43	2580.08
548.79	2572.49
549.14	2566.01
549.50	2559.84
549.86	2552.70
550.21	2544.72
550.57	2537.40
550.92	2528.00
551.28	2519.21
551.64	2510.58
551.99	2501.68
552.35	2492.30
552.70	2483.16
553.06	2474.65
553.41	2465.58
553.77	2456.22
554.13	2446.54
554.48	2436.31
554.84	2424.91
555.19	2414.01
555.55	2403.07
555.90	2392.09
556.26	2381.58
556.61	2370.21
556.97	2357.39
557.32	2345.16
557.68	2332.66
558.03	2320.04
558.39	2308.55
558.74	2297.25
559.10	2284.55
559.45	2271.97
559.81	2259.89
560.16	2247.42
560.52	2234.95
560.87	2222.75
561.23	2209.85
561.58	2197.21
561.94	2184.19
562.29	2170.78
562.64	2157.96
563.00	2144.83
563.35	2132.16
563.71	2119.36
564.06	2106.50
564.42	2094.17
564.77	2081.30
565.12	2068.58
565.48	2055.83
565.83	2042.98
566.19	2030.32
566.54	2017.56
566.89	2003.91
567.25	1990.40
567.60	1977.95
567.96	1964.88
568.31	1950.52
568.66	1936.74
569.02	1924.17
569.37	1911.44
569.72	1899.29
570.08	1885.95
570.43	1872.23
570.78	1858.37
571.14	1844.00
571.49	1830.17
571.84	1816.87
572.20	1802.63
572.55	1788.48
572.90	1774.22
573.26	1760.06
573.61	1745.40
573.96	1731.17
574.31	1717.04
574.67	1703.12
575.02	1688.26
575.37	1673.29
575.72	1659.33
576.08	1645.82
576.43	1631.13
576.78	1616.93
577.13	1602.95
577.49	1589.45
577.84	1576.53
578.19	1562.76
578.54	1549.12
578.90	1535.07
579.25	1520.90
579.60	1508.12
579.95	1495.27
580.30	1482.31
580.66	1469.05
581.01	1455.76
581.36	1442.48
581.71	1430.17
582.06	1417.68
582.42	1405.43
582.77	1393.37
583.12	1381.29
583.47	1368.87
583.82	1356.76
584.17	1344.31
584.53	1331.55
584.88	1319.04
585.23	1306.24
585.58	1294.20
585.93	1282.37
586.28	1271.12
586.63	1259.87
586.98	1248.24
587.34	1236.71
587.69	1224.96
588.04	1213.60
588.39	1202.58
588.74	1191.74
589.09	1180.70
589.44	1169.30
589.79	1158.38
590.14	1147.64
590.49	1136.75
590.84	1126.10
591.19	1115.64
591.54	1105.07
591.89	1094.71
592.25	1084.51
592.60	1074.04
592.95	1063.82
593.30	1053.84
593.65	1043.69
594.00	1033.63
594.35	1024.09
594.70	1014.13
595.05	1004.97
595.40	995.75
595.75	986.41
596.10	977.43
596.45	968.32
596.80	959.51
597.15	950.57
597.50	941.70
597.85	933.24
598.19	924.63
598.54	916.06
598.89	907.88
599.24	899.91
599.59	891.88
599.94	884.62
600.29	877.24
600.64	869.58
600.99	861.61
601.34	853.99
601.69	846.02
602.04	838.67
602.39	831.21
602.74	823.79
603.08	816.38
603.43	808.90
603.78	801.56
604.13	794.36
604.48	787.16
604.83	780.10
605.18	772.93
605.53	766.02
605.87	758.99
606.22	752.23
606.57	745.44
606.92	738.50
607.27	731.57
607.62	724.91
607.96	718.63
608.31	712.70
608.66	706.59
609.01	700.76
609.36	695.06
609.70	689.13
610.05	683.14
610.40	677.40
610.75	671.71
611.10	666.30
611.44	660.77
611.79	655.33
612.14	649.84
612.49	644.41
612.83	639.20
613.18	634.09
613.53	628.93
613.88	623.80
614.22	619.05
614.57	614.23
614.92	609.26
615.27	604.36
615.61	599.52
615.96	594.77
616.31	590.02
616.65	585.35
617.00	580.85
617.35	576.43
617.70	572.06
618.04	567.80
618.39	563.48
618.74	559.30
619.08	555.20
619.43	551.18
619.78	547.19
620.12	543.20
620.47	539.36
620.82	535.59
621.16	531.86
621.51	528.07
621.85	524.28
622.20	520.67
622.55	517.08
622.89	513.56
623.24	510.05
623.59	506.56
623.93	503.15
624.28	499.82
624.62	496.64
624.97	493.51
625.32	490.27
625.66	487.00
626.01	483.76
626.35	480.54
626.70	477.35
627.04	474.40
627.39	471.35
627.73	468.41
628.08	465.57
628.43	462.69
628.77	459.90
629.12	457.23
629.46	454.57
629.81	451.85
630.15	449.12
630.50	446.47
630.84	443.90
631.19	441.38
631.53	438.97
631.88	436.48
632.22	433.99
632.57	431.82
632.91	429.65
633.26	427.54
633.60	425.44
633.95	423.45
634.29	421.33
634.64	419.29
634.98	417.08
635.32	415.01
635.67	413.10
636.01	411.12
636.36	409.17
636.70	407.33
637.05	405.51
637.39	403.72
637.73	401.97
638.08	400.31
638.42	398.62
638.77	396.82
639.11	394.99
639.45	393.23
639.80	391.39
640.14	389.65
640.49	387.90
640.83	386.13
641.17	384.39
641.52	382.73
641.86	381.08
642.20	379.62
642.55	378.02
642.89	376.43
643.23	374.93
643.58	373.56
643.92	372.07
644.26	370.63
644.61	369.23
644.95	367.79
645.29	366.27
645.64	364.78
645.98	363.37
646.32	362.06
646.66	360.72
647.01	359.40
647.35	358.13
647.69	356.85
648.04	355.71
648.38	354.49
648.72	353.27
649.06	352.04
649.41	350.82
649.75	349.66
650.09	348.53
650.43	347.37
650.78	346.17
651.12	345.02
651.46	343.92
651.80	342.82
652.14	341.76
652.49	340.76
652.83	339.72
653.17	338.72
653.51	337.75
653.85	336.84
654.20	335.86
654.54	334.83
654.88	333.87
655.22	332.89
655.56	331.93
655.90	331.03
656.25	330.17
656.59	329.29
656.93	328.44
657.27	327.59
657.61	326.71
657.95	325.87
658.29	325.00
658.64	324.18
658.98	323.34
659.32	322.53
659.66	321.76
660.00	321.00
660.34	320.26
660.68	319.46
661.02	318.66
661.36	317.88
661.70	317.13
662.05	316.39
662.39	315.66
662.73	315.02
663.07	314.38
663.41	313.68
663.75	312.98
664.09	312.28
664.43	311.54
664.77	310.87
665.11	310.16
665.45	309.54
665.79	308.91
666.13	308.25
666.47	307.56
666.81	306.86
667.15	306.13
667.49	305.51
667.83	304.93
668.17	304.30
668.51	303.71
668.85	303.17
669.19	302.68
669.53	302.06
669.87	301.42
670.21	300.78
670.55	300.21
670.89	299.71
671.23	299.16
671.57	298.62
671.91	298.13
672.25	297.66
672.58	297.18
672.92	296.62
673.26	296.15
673.60	295.69
673.94	295.23
674.28	294.81
674.62	294.34
674.96	293.83
675.30	293.39
675.64	292.90
675.97	292.40
676.31	291.86
676.65	291.37
676.99	290.96
677.33	290.48
677.67	290.02
678.01	289.48
678.34	289.01
678.68	288.59
679.02	288.09
679.36	287.60
679.70	287.13
680.04	286.70
680.37	286.25
680.71	285.80
681.05	285.38
681.39	284.91
681.73	284.42
682.06	283.95
682.40	283.48
682.74	283.08
683.08	282.72
683.42	282.29
683.75	281.91
684.09	281.44
684.43	281.04
684.77	280.61
685.10	280.24
685.44	279.84
685.78	279.45
686.12	279.08
686.45	278.67
686.79	278.23
687.13	277.85
687.46	277.41
687.80	277.03
688.14	276.57
688.48	276.18
688.81	275.79
689.15	275.43
689.49	275.03
689.82	274.61
690.16	274.15
690.50	273.77
690.83	273.37
691.17	272.97
691.51	272.59
691.84	272.24
692.18	271.82
692.52	271.42
692.85	271.02
693.19	270.66
693.52	270.29
693.86	269.92
694.20	269.54
694.53	269.17
694.87	268.78
695.21	268.42
695.54	268.05
695.88	267.67
696.21	267.27
696.55	266.92
696.88	266.55
697.22	266.20
697.56	265.84
697.89	265.43
698.23	265.08
698.56	264.69
698.90	264.32
699.23	263.94
699.57	263.58
699.90	263.22
700.24	262.83
700.58	262.50
700.91	262.21
701.25	261.97
701.58	261.70
701.92	261.41
702.25	261.09
702.59	260.76
702.92	260.46
703.26	260.14
703.59	259.79
703.93	259.57
704.26	259.27
704.60	258.95
704.93	258.63
705.26	258.31
705.60	258.05
705.93	257.71
706.27	257.46
706.60	257.19
706.94	256.94
707.27	256.61
707.61	256.30
707.94	255.96
708.27	255.54
708.61	255.18
708.94	254.86
709.28	254.57
709.61	254.27
709.94	253.98
710.28	253.71
710.61	253.48
710.95	253.10
711.28	252.90
711.61	252.64
711.95	252.41
712.28	252.14
712.61	251.85
712.95	251.68
713.28	251.50
713.61	251.22
713.95	250.92
714.28	250.69
714.61	250.45
714.95	250.20
715.28	249.97
715.61	249.75
715.95	249.53
716.28	249.30
716.61	249.11
716.95	248.88
717.28	248.66
717.61	248.43
717.94	248.21
718.28	247.90
718.61	247.66
718.94	247.42
719.27	247.22
719.61	247.03
719.94	246.78
720.27	246.48
720.60	246.27
720.94	246.06
721.27	245.87
721.60	245.68
721.93	245.48
722.27	245.32
722.60	245.14
722.93	244.94
723.26	244.74
723.59	244.51
723.93	244.33
724.26	244.16
724.59	243.97
724.92	243.79
725.25	243.67
725.59	243.49
725.92	243.35
726.25	243.17
726.58	243.00
726.91	242.82
727.24	242.68
727.57	242.53
727.91	242.36
728.24	242.23
728.57	242.06
728.90	241.93
729.23	241.73
729.56	241.63
729.89	241.47
730.22	241.31
730.55	241.17
730.89	241.01
731.22	240.85
731.55	240.70
731.88	240.55
732.21	240.38
732.54	240.23
732.87	240.08
733.20	239.95
733.53	239.80
733.86	239.69
734.19	239.53
734.52	239.41
734.85	239.36
735.18	239.19
735.51	239.09
735.84	238.95
736.17	238.87
736.50	238.69
736.83	238.71
737.16	238.59
737.49	238.49
737.82	238.36
738.15	238.25
738.48	238.13
738.81	238.00
739.14	237.87
739.47	237.74
739.80	237.61
740.13	237.50
740.46	237.36
740.79	237.23
741.12	237.11
741.45	236.97
741.78	236.78
742.11	236.71
742.44	236.57
742.77	236.47
743.10	236.33
743.43	236.19
743.75	235.96
744.08	236.05
744.41	235.94
744.74	235.82
745.07	235.70
745.40	235.63
745.73	235.59
746.06	235.50
746.39	235.42
746.71	235.32
747.04	235.22
747.37	235.13
747.70	235.06
748.03	234.98
748.36	234.91
748.68	234.82
749.01	234.69
749.34	234.60
749.67	234.52
750.00	234.46
750.33	234.48
750.65	234.39
750.98	234.11
751.31	234.02
751.64	233.96
751.97	233.93
752.29	233.83
752.62	233.70
752.95	233.61
753.28	233.51
753.60	233.42
753.93	233.36
754.26	233.29
754.59	233.17
754.91	233.07
755.24	232.97
755.57	232.95
755.90	232.87
756.22	232.77
756.55	232.67
756.88	232.57
757.20	232.40
757.53	232.29
757.86	232.20
758.19	232.13
758.51	232.04
758.84	231.92
759.17	231.84
759.49	231.77
759.82	231.76
760.15	231.71
760.47	231.64
760.80	231.55
761.13	231.50
761.45	231.43
761.78	231.37
762.11	231.32
762.43	231.19
762.76	231.13
763.08	231.09
763.41	231.03
763.74	230.98
764.06	230.92
764.39	230.87
764.71	230.82
765.04	230.75
765.37	230.68
765.69	230.63
766.02	230.58
766.34	230.52
766.67	230.42
767.00	230.39
767.32	230.41
767.65	230.44
767.97	230.38
768.30	230.34
768.62	230.30
768.95	230.23
769.27	230.17
769.60	230.15
769.92	230.09
770.25	230.02
770.57	229.95
770.90	229.91
771.22	229.85
771.55	229.82
771.87	229.77
772.20	229.74
772.52	229.81
772.85	229.92
773.17	229.88
773.50	229.83
773.82	229.76
774.15	229.67
774.47	229.54
774.80	229.49
775.12	229.45
775.45	229.40
775.77	229.38
776.09	229.36
776.42	229.33
776.74	229.33
777.07	229.30
777.39	229.28
777.72	229.25
778.04	229.24
778.36	229.18
778.69	229.15
779.01	229.13
779.33	228.98
779.66	228.80
779.98	228.77
780.31	228.74
780.63	228.77
780.95	228.75
781.28	228.73
781.60	228.69
781.92	228.66
782.25	228.64
782.57	228.61
782.89	228.58
783.22	228.55
783.54	228.50
783.86	228.49
784.19	228.45
784.51	228.46
784.83	228.42
785.16	228.40
785.48	228.38
785.80	228.36
786.12	228.34
786.45	228.32
786.77	228.31
787.09	228.27
787.42	228.20
787.74	228.19
788.06	228.16
788.38	228.14
788.71	228.11
789.03	228.09
789.35	228.08
789.67	228.05
789.99	228.04
790.32	228.00
790.64	227.98
790.96	228.08
791.28	228.02
791.61	227.99
791.93	227.99
792.25	227.96
792.57	228.03
792.89	227.98
793.21	227.98
793.54	227.95
793.86	227.93
794.18	227.92
794.50	227.87
794.82	227.86
795.14	227.87
795.47	227.87
795.79	227.86
796.11	227.81
796.43	227.79
796.75	227.76
797.07	227.76
797.39	227.74
797.71	227.62
798.04	227.60
798.36	227.60
798.68	227.57
799.00	227.57
799.32	227.50
799.64	227.51
799.96	227.49
800.28	227.50
800.60	227.47
800.92	227.46
801.24	227.45
801.56	227.44
801.89	227.42
802.21	227.40
802.53	227.36
802.85	227.39
803.17	227.43
803.49	227.40
803.81	227.38
804.13	227.36
804.45	227.32
804.77	227.33
805.09	227.32
805.41	227.30
805.73	227.26
806.05	227.22
806.37	227.20
806.69	227.17
807.01	227.14
807.33	227.14
807.65	227.10
807.97	227.15
808.28	227.13
808.60	227.12
808.92	227.10
809.24	227.16
809.56	227.13
809.88	227.08
810.20	227.07
810.52	227.09
810.84	227.06
811.16	227.04
811.48	227.01
811.80	227.04
812.12	227.02
812.43	227.04
812.75	227.03
813.07	227.01
813.39	227.01
813.71	226.99
814.03	226.97
814.35	226.97
814.67	226.90
814.98	226.88
815.30	226.86
815.62	226.83
815.94	226.74
816.26	226.75
816.58	226.71
816.89	226.71
817.21	226.67
817.53	226.66
817.85	226.67
818.17	226.66
818.48	226.60
818.80	226.62
819.12	226.59
819.44	226.56
819.76	226.53
820.07	226.52
820.39	226.51
820.71	226.51
821.03	226.50
821.34	226.48
821.66	226.49
821.98	226.50
822.30	226.48
822.61	226.55
822.93	226.52
823.25	226.52
823.57	226.50
823.88	226.50
824.20	226.50
824.52	226.51
824.83	226.51
825.15	226.49
825.47	226.47
825.79	226.48
826.10	226.47
826.42	226.47
826.74	226.46
827.05	226.46
827.37	226.46
827.69	226.44
828.00	226.44
828.32	226.43
828.64	226.41
828.95	226.47
829.27	226.43
829.58	226.41
829.90	226.42
830.22	226.43
830.53	226.41
830.85	226.38
831.17	226.35
831.48	226.33
831.80	226.34
832.11	226.33
832.43	226.30
832.75	226.30
833.06	226.36
833.38	226.33
833.69	226.32
834.01	226.32
834.32	226.31
834.64	226.29
834.96	226.29
835.27	226.28
835.59	226.22
835.90	226.20
836.22	226.19
836.53	226.17
836.85	226.14
837.16	226.27
837.48	226.27
837.79	226.30
838.11	226.31
838.42	226.30
838.74	226.31
839.05	226.30
839.37	226.29
839.68	226.20
840.00	226.21
840.31	226.23
840.63	226.21
840.94	226.20
841.26	226.19
841.57	226.17
841.88	226.19
842.20	226.18
842.51	226.16
842.83	226.15
843.14	226.27
843.46	226.27
843.77	226.18
844.08	226.17
844.40	226.12
844.71	226.10
845.03	226.08
845.34	226.07
845.65	226.06
845.97	226.06
846.28	226.06
846.60	226.06
846.91	226.03
847.22	226.02
847.54	226.04
847.85	226.05
848.16	226.05
848.48	226.02
848.79	226.06
849.10	226.07
849.42	226.08
849.73	225.95
850.04	225.94
850.36	225.90
850.67	225.93
850.98	225.94
851.30	225.95
851.61	225.95
851.92	225.94
852.23	225.98
852.55	225.99
852.86	225.99
853.17	226.00
853.49	226.04
853.80	226.07
854.11	226.08
854.42	226.10
854.74	226.08
855.05	226.09
855.36	226.03
855.67	226.04
855.99	226.05
856.30	226.20
856.61	226.21
856.92	226.21
857.23	226.23
857.55	226.21
857.86	226.20
858.17	226.22
858.48	226.20
858.79	226.18
859.11	226.18
859.42	226.17
859.73	226.15
860.04	226.14
860.35	226.10
860.66	226.06
860.98	226.05
861.29	226.08
861.60	226.06
861.91	226.09
862.22	226.07
862.53	226.04
862.84	225.89
863.16	225.92
863.47	225.89
863.78	225.86
864.09	225.87
864.40	225.88
864.71	225.88
865.02	225.90
865.33	225.88
865.64	225.86
865.95	225.85
866.27	225.94
866.58	225.92
866.89	225.94
867.20	225.93
867.51	225.91
867.82	225.90
868.13	225.94
868.44	225.91
868.75	225.93
869.06	225.94
869.37	225.95
869.68	225.92
869.99	225.94
870.30	225.95
870.61	225.95
870.92	225.93
871.23	225.92
871.54	225.92
871.85	225.95
872.16	225.97
872.47	225.97
872.78	225.89
873.09	225.89
873.40	225.86
873.71	225.87
874.02	225.89
874.33	225.87
874.64	225.84
874.95	225.87
875.26	225.83
875.56	225.83
875.87	225.81
876.18	225.81
876.49	225.93
876.80	225.92
877.11	225.89
877.42	225.91
877.73	225.91
878.04	225.90
878.35	225.90
878.66	225.89
878.96	225.89
879.27	225.88
879.58	225.89
879.89	225.90
880.20	225.93
880.51	225.92
880.82	225.92
881.12	225.93
881.43	225.90
881.74	225.89
882.05	225.88
882.36	225.90
882.67	225.91
882.97	225.77
883.28	225.77
883.59	225.77
883.90	225.78
884.21	225.79
884.51	225.79
884.82	225.77
885.13	225.76
885.44	225.76
885.74	225.76
886.05	225.75
886.36	225.75
886.67	225.69
886.98	225.76
887.28	225.77
887.59	225.77
887.90	225.77
888.20	225.76
888.51	225.79
888.82	225.76
889.13	225.78
889.43	225.89
889.74	225.88
890.05	225.87
890.35	225.85
890.66	225.83
890.97	225.82
891.28	225.81
891.58	225.81
891.89	225.82
892.20	225.81
892.50	225.79
892.81	225.79
893.12	225.80
893.42	225.72
893.73	225.72
894.04	225.71
894.34	225.72
894.65	225.72
894.95	225.70
895.26	225.70
895.57	225.75
895.87	225.61
896.18	225.64
896.48	225.65
896.79	225.65
897.10	225.67
897.40	225.67
897.71	225.68
898.01	225.66
898.32	225.67
898.63	225.67
898.93	225.69
899.24	225.69
899.54	225.69
899.85	225.69
900.15	225.68
900.46	225.68
900.76	225.69
901.07	225.70
901.38	225.70
901.68	225.72
901.99	225.66
902.29	225.67
902.60	225.65
902.90	225.64
903.21	225.64
903.51	225.63
903.82	225.66
904.12	225.67
904.43	225.68
904.73	225.66
905.03	225.67
905.34	225.78
905.64	225.77
905.95	225.77
906.25	225.78
906.56	225.78
906.86	225.77
907.17	225.76
907.47	225.76
907.77	225.74
908.08	225.71
908.38	225.72
908.69	225.71
908.99	225.73
909.30	225.75
909.60	225.75
909.90	225.75
910.21	225.70
910.51	225.68
910.81	225.68
911.12	225.69
911.42	225.68
911.73	225.55
912.03	225.55
912.33	225.57
912.64	225.56
912.94	225.55
913.24	225.53
913.55	225.51
913.85	225.49
914.15	225.52
914.46	225.54
914.76	225.53
915.06	225.52
915.37	225.51
915.67	225.50
915.97	225.50
916.27	225.46
916.58	225.47
916.88	225.46
917.18	225.46
917.49	225.53
917.79	225.52
918.09	225.53
918.39	225.57
918.70	225.56
919.00	225.57
919.30	225.62
919.60	225.63
919.91	225.61
920.21	225.63
920.51	225.60
920.81	225.58
921.12	225.60
921.42	225.60
921.72	225.61
922.02	225.61
922.32	225.63
922.63	225.64
922.93	225.71
923.23	225.72
923.53	225.71
923.83	225.63
924.13	225.65
924.44	225.66
924.74	225.67
925.04	225.70
925.34	225.69
925.64	225.65
925.94	225.65
926.24	225.73
926.55	225.72
926.85	225.74
927.15	225.74
927.45	225.74
927.75	225.73
928.05	225.73
928.35	225.72
928.65	225.74
928.95	225.76
929.26	225.70
929.56	225.72
929.86	225.73
930.16	225.73
930.46	225.71
930.76	225.71
931.06	225.66
931.36	225.63
931.66	225.64
931.96	225.66
932.26	225.67
932.56	225.61
932.86	225.61
933.16	225.61
933.46	225.60
933.76	225.58
934.06	225.60
934.36	225.65
934.66	225.65
934.96	225.63
935.26	225.63
935.56	225.66
935.86	225.63
936.16	225.62
936.46	225.60
936.76	225.60
937.06	225.60
937.36	225.61
937.66	225.61
937.96	225.60
938.26	225.58
938.56	225.57
938.86	225.57
939.16	225.60
939.46	225.61
939.76	225.62
940.06	225.62
940.35	225.59
940.65	225.51
940.95	225.53
941.25	225.50
941.55	225.48
941.85	225.46
942.15	225.49
942.45	225.52
942.75	225.52
943.04	225.52
943.34	225.54
943.64	225.52
943.94	225.51
944.24	225.51
944.54	225.51
944.84	225.51
945.13	225.49
945.43	225.46
945.73	225.45
946.03	225.45
946.33	225.43
946.62	225.43
946.92	225.43
947.22	225.43
947.52	225.44
947.82	225.44
948.11	225.44
948.41	225.40
948.71	225.37
949.01	225.38
949.31	225.37
949.60	225.36
949.90	225.37
950.20	225.36
950.50	225.36
950.79	225.35
951.09	225.37
951.39	225.37
951.69	225.36
951.98	225.39
952.28	225.39
952.58	225.39
952.87	225.40
953.17	225.41
953.47	225.40
953.76	225.40
954.06	225.39
954.36	225.37
954.66	225.37
954.95	225.41
955.25	225.41
955.55	225.42
955.84	225.41
956.14	225.43
956.44	225.43
956.73	225.42
957.03	225.42
957.32	225.43
957.62	225.43
957.92	225.45
958.21	225.43
958.51	225.58
958.81	225.59
959.10	225.60
959.40	225.63
959.69	225.64
959.99	225.67
960.29	225.66
960.58	225.66
960.88	225.71
961.17	225.69
961.47	225.70
961.76	225.69
962.06	225.71
962.36	225.69
962.65	225.69
962.95	225.69
963.24	225.69
963.54	225.68
963.83	225.69
964.13	225.69
964.42	225.68
964.72	225.58
965.01	225.59
965.31	225.58
965.60	225.55
965.90	225.62
966.19	225.58
966.49	225.60
966.78	225.60
967.08	225.58
967.37	225.58
967.67	225.56
967.96	225.58
968.26	225.57
968.55	225.58
968.85	225.58
969.14	225.58
969.43	225.57
969.73	225.57
970.02	225.57
970.32	225.55
970.61	225.52
970.91	225.49
971.20	225.46
971.49	225.45
971.79	225.46
972.08	225.38
972.38	225.39
972.67	225.38
972.96	225.39
973.26	225.38
973.55	225.41
973.85	225.40
974.14	225.39
974.43	225.40
974.73	225.38
975.02	225.37
975.31	225.38
975.61	225.37
975.90	225.36
976.19	225.35
976.49	225.36
976.78	225.38
977.07	225.37
977.37	225.39
977.66	225.40
977.95	225.38
978.24	225.38
978.54	225.41
978.83	225.40
979.12	225.39
979.42	225.39
979.71	225.37
980.00	225.37
980.29	225.38
980.59	225.36
980.88	225.39
981.17	225.39
981.46	225.38
981.76	225.39
982.05	225.43
982.34	225.44
982.63	225.44
982.93	225.43
983.22	225.46
983.51	225.46
983.80	225.48
984.09	225.50
984.39	225.49
984.68	225.47
984.97	225.48
985.26	225.47
985.55	225.48
985.85	225.45
986.14	225.46
986.43	225.47
986.72	225.46
987.01	225.41
987.30	225.41
987.59	225.40
987.89	225.40
988.18	225.36
988.47	225.35
988.76	225.33
989.05	225.32
989.34	225.30
989.63	225.34
989.92	225.31
990.22	225.30
990.51	225.29
990.80	225.28
991.09	225.29
991.38	225.31
991.67	225.29
991.96	225.28
992.25	225.28
992.54	225.26
992.83	225.26
993.12	225.26
993.41	225.28
993.70	225.32
993.99	225.35
994.28	225.36
994.58	225.38
994.87	225.39
995.16	225.39
995.45	225.38
995.74	225.33
996.03	225.35
996.32	225.36
996.61	225.39
996.90	225.40
997.19	225.38
997.48	225.38
997.77	225.37
998.06	225.39
998.34	225.40
998.63	225.40
998.92	225.40
999.21	225.42
999.50	225.42
999.79	225.38
1000.08	225.37
1000.37	225.38
1000.66	225.36
1000.95	225.39
1001.24	225.39
1001.53	225.42
1001.82	225.41
1002.11	225.39
1002.40	225.40
1002.68	225.43
1002.97	225.52
1003.26	225.51
1003.55	225.50
1003.84	225.51
1004.13	225.54
1004.42	225.54
1004.71	225.54
1004.99	225.53
1005.28	225.56
1005.57	225.56
1005.86	225.56
1006.15	225.55
1006.44	225.52
1006.72	225.54
1007.01	225.53
1007.30	225.52
1007.59	225.50
1007.88	225.50
1008.17	225.51
1008.45	225.49
1008.74	225.43
1009.03	225.37
1009.32	225.37
1009.60	225.38
1009.89	225.37
1010.18	225.33
1010.47	225.32
1010.76	225.31
1011.04	225.32
1011.33	225.32
1011.62	225.32
1011.91	225.33
1012.19	225.35
1012.48	225.35
1012.77	225.34
1013.05	225.38
1013.34	225.39
1013.63	225.38
1013.92	225.40
1014.20	225.40
1014.49	225.41
1014.78	225.42
1015.06	225.37
1015.35	225.37
1015.64	225.38
1015.92	225.41
1016.21	225.41
1016.50	225.42
1016.78	225.43
1017.07	225.45
1017.36	225.42
1017.64	225.41
1017.93	225.42
1018.22	225.40
1018.50	225.40
1018.79	225.40
1019.08	225.35
1019.36	225.35
1019.65	225.35
1019.93	225.37
1020.22	225.39
1020.51	225.45
1020.79	225.44
1021.08	225.16
1021.36	225.15
1021.65	225.35
1021.94	225.22
1022.22	225.44
1022.51	225.17
1022.79	226.02
1023.08	225.57
1023.36	226.84
1023.65	225.07
>>>>>End Processed Spectral Data<<<<<
