SpectraSuite Data File
++++++++++++++++++++++++++++++++++++
Date: Fri Oct 02 15:59:42 EDT 2015
User: lab3
Dark Spectrum Present: No
Reference Spectrum Present: No
Number of Sampled Component Spectra: 1
Spectrometers: USB2E7196
Integration Time (usec): 46000 (USB2E7196)
Spectra Averaged: 1200 (USB2E7196)
Boxcar Smoothing: 10 (USB2E7196)
Correct for Electrical Dark: No (USB2E7196)
Strobe/Lamp Enabled: No (USB2E7196)
Correct for Detector Non-linearity: No (USB2E7196)
Correct for Stray Light: No (USB2E7196)
Number of Pixels in Processed Spectrum: 2048
>>>>>Begin Processed Spectral Data<<<<<
339.09	0.00
339.48	214.66
339.86	215.88
340.24	217.40
340.63	218.74
341.01	222.08
341.39	221.29
341.78	222.87
342.16	224.16
342.54	224.57
342.93	212.87
343.31	223.62
343.69	224.15
344.07	224.61
344.46	225.04
344.84	225.42
345.22	225.63
345.60	225.89
345.99	226.07
346.37	226.19
346.75	226.29
347.13	226.36
347.52	226.42
347.90	226.51
348.28	226.55
348.66	226.59
349.05	226.59
349.43	226.64
349.81	226.69
350.19	226.74
350.57	226.79
350.96	226.87
351.34	226.95
351.72	227.03
352.10	227.13
352.48	227.18
352.87	227.22
353.25	227.29
353.63	227.34
354.01	227.40
354.39	227.49
354.77	227.56
355.15	227.66
355.54	227.70
355.92	227.72
356.30	227.80
356.68	227.96
357.06	228.03
357.44	228.08
357.82	228.15
358.20	228.26
358.58	228.34
358.97	228.41
359.35	228.50
359.73	228.59
360.11	228.64
360.49	228.72
360.87	228.76
361.25	228.82
361.63	228.91
362.01	228.96
362.39	228.99
362.77	229.05
363.15	229.08
363.53	229.13
363.91	229.18
364.29	229.19
364.67	229.10
365.05	229.13
365.43	229.17
365.81	229.20
366.19	229.23
366.57	229.29
366.95	229.30
367.33	229.27
367.71	229.27
368.09	229.29
368.47	229.30
368.85	229.30
369.23	229.32
369.61	229.26
369.99	229.28
370.37	229.30
370.75	229.38
371.13	229.34
371.51	229.31
371.89	229.29
372.27	229.27
372.65	229.26
373.03	229.22
373.41	229.18
373.78	229.13
374.16	229.02
374.54	228.94
374.92	228.89
375.30	228.85
375.68	228.78
376.06	228.74
376.44	228.68
376.82	228.63
377.19	228.58
377.57	228.53
377.95	228.45
378.33	228.37
378.71	228.21
379.09	228.17
379.47	228.13
379.84	228.07
380.22	228.01
380.60	227.94
380.98	227.89
381.36	227.84
381.73	227.77
382.11	227.76
382.49	227.72
382.87	227.67
383.25	227.62
383.62	227.73
384.00	227.66
384.38	227.63
384.76	227.63
385.13	227.63
385.51	227.59
385.89	227.53
386.27	227.50
386.64	227.49
387.02	227.44
387.40	227.39
387.78	227.36
388.15	227.33
388.53	227.29
388.91	227.26
389.29	227.22
389.66	227.21
390.04	227.17
390.42	227.17
390.79	227.15
391.17	227.13
391.55	226.97
391.92	226.97
392.30	226.96
392.68	226.91
393.05	226.88
393.43	226.89
393.81	226.90
394.18	226.87
394.56	226.86
394.94	226.89
395.31	226.88
395.69	226.94
396.06	226.97
396.44	227.01
396.82	227.01
397.19	227.09
397.57	227.11
397.95	227.15
398.32	227.14
398.70	227.18
399.07	227.24
399.45	227.28
399.82	227.31
400.20	227.34
400.58	227.40
400.95	227.42
401.33	227.49
401.70	227.64
402.08	227.76
402.45	227.85
402.83	227.96
403.20	228.08
403.58	228.16
403.95	228.30
404.33	228.45
404.71	228.59
405.08	228.80
405.46	228.96
405.83	229.14
406.21	229.34
406.58	229.56
406.96	229.77
407.33	230.02
407.70	230.30
408.08	230.68
408.45	231.01
408.83	231.37
409.20	231.70
409.58	231.99
409.95	232.39
410.33	232.83
410.70	233.25
411.08	233.74
411.45	234.25
411.82	234.77
412.20	235.37
412.57	236.09
412.95	236.65
413.32	237.38
413.69	238.14
414.07	238.95
414.44	239.82
414.82	240.71
415.19	241.75
415.56	242.80
415.94	243.88
416.31	245.11
416.68	246.33
417.06	247.76
417.43	249.09
417.81	250.61
418.18	252.16
418.55	253.86
418.93	255.62
419.30	257.47
419.67	259.42
420.04	261.43
420.42	263.54
420.79	265.98
421.16	268.43
421.54	270.93
421.91	273.54
422.28	276.23
422.66	279.15
423.03	281.93
423.40	284.86
423.77	288.00
424.15	291.20
424.52	294.55
424.89	298.15
425.26	301.75
425.64	305.10
426.01	308.87
426.38	312.71
426.75	316.69
427.13	320.76
427.50	325.04
427.87	329.47
428.24	333.94
428.61	338.25
428.99	342.92
429.36	348.03
429.73	352.93
430.10	357.83
430.47	362.85
430.85	368.02
431.22	373.58
431.59	379.28
431.96	384.84
432.33	391.04
432.70	396.97
433.08	403.93
433.45	410.51
433.82	417.01
434.19	424.28
434.56	431.44
434.93	438.35
435.30	445.19
435.68	452.94
436.05	460.52
436.42	468.06
436.79	474.95
437.16	482.39
437.53	490.33
437.90	498.30
438.27	506.11
438.64	514.52
439.01	522.13
439.38	529.10
439.75	535.82
440.13	543.37
440.50	550.53
440.87	556.25
441.24	562.50
441.61	569.30
441.98	574.22
442.35	580.07
442.72	586.02
443.09	591.65
443.46	595.17
443.83	597.73
444.20	599.84
444.57	603.01
444.94	604.73
445.31	606.51
445.68	608.00
446.05	609.00
446.42	608.39
446.79	607.58
447.16	606.85
447.53	606.12
447.90	603.45
448.27	600.88
448.64	597.12
449.01	594.41
449.37	589.30
449.74	584.68
450.11	578.78
450.48	572.37
450.85	565.98
451.22	560.48
451.59	555.11
451.96	550.26
452.33	543.30
452.70	537.11
453.07	529.61
453.43	522.17
453.80	514.95
454.17	508.06
454.54	501.73
454.91	494.60
455.28	487.94
455.65	481.65
456.02	475.05
456.38	469.71
456.75	462.87
457.12	457.38
457.49	451.83
457.86	446.60
458.23	442.05
458.59	437.02
458.96	431.87
459.33	427.36
459.70	422.74
460.07	419.25
460.43	415.16
460.80	411.35
461.17	408.02
461.54	404.42
461.91	401.08
462.27	397.68
462.64	394.95
463.01	391.79
463.38	388.61
463.74	385.72
464.11	383.19
464.48	380.92
464.85	378.45
465.21	376.59
465.58	374.53
465.95	372.13
466.32	370.22
466.68	368.35
467.05	366.46
467.42	364.64
467.78	362.67
468.15	360.84
468.52	359.52
468.88	357.71
469.25	356.06
469.62	354.76
469.98	353.34
470.35	352.06
470.72	350.93
471.08	349.76
471.45	348.78
471.82	347.68
472.18	346.52
472.55	345.77
472.92	344.83
473.28	344.10
473.65	343.29
474.02	342.55
474.38	341.93
474.75	341.58
475.11	341.07
475.48	340.83
475.85	340.58
476.21	340.46
476.58	340.40
476.94	340.55
477.31	340.63
477.67	340.73
478.04	340.95
478.41	341.24
478.77	341.69
479.14	341.96
479.50	342.49
479.87	343.18
480.23	343.87
480.60	344.54
480.96	345.22
481.33	346.23
481.69	347.21
482.06	348.19
482.42	349.09
482.79	350.20
483.15	351.51
483.52	352.98
483.88	354.40
484.25	355.90
484.61	357.49
484.98	359.20
485.34	361.13
485.71	363.13
486.07	365.28
486.44	367.42
486.80	369.82
487.17	372.32
487.53	375.04
487.90	377.87
488.26	380.97
488.62	384.23
488.99	387.47
489.35	390.90
489.72	394.64
490.08	398.56
490.44	402.61
490.81	406.83
491.17	411.15
491.54	415.77
491.90	420.56
492.26	425.67
492.63	431.04
492.99	436.64
493.36	442.43
493.72	448.52
494.08	454.77
494.45	461.40
494.81	468.29
495.17	475.33
495.54	482.78
495.90	490.53
496.26	498.46
496.63	506.64
496.99	515.15
497.35	524.03
497.72	533.21
498.08	542.62
498.44	552.33
498.80	562.58
499.17	573.13
499.53	584.02
499.89	595.25
500.26	606.66
500.62	618.34
500.98	630.69
501.34	643.20
501.71	656.23
502.07	669.43
502.43	683.12
502.79	697.14
503.16	711.57
503.52	726.17
503.88	741.24
504.24	756.74
504.60	772.42
504.97	788.57
505.33	805.09
505.69	822.53
506.05	840.24
506.41	857.95
506.78	875.82
507.14	894.14
507.50	912.92
507.86	932.06
508.22	951.42
508.59	970.62
508.95	990.69
509.31	1011.42
509.67	1032.79
510.03	1054.19
510.39	1075.54
510.75	1097.19
511.12	1119.09
511.48	1141.07
511.84	1163.13
512.20	1185.55
512.56	1208.76
512.92	1232.03
513.28	1254.86
513.64	1277.87
514.00	1301.28
514.37	1324.97
514.73	1348.78
515.09	1372.38
515.45	1396.30
515.81	1420.41
516.17	1444.51
516.53	1468.09
516.89	1491.60
517.25	1515.33
517.61	1538.90
517.97	1562.87
518.33	1586.12
518.69	1609.32
519.05	1633.12
519.41	1657.02
519.77	1681.12
520.13	1704.54
520.49	1727.85
520.85	1751.45
521.21	1774.71
521.57	1798.40
521.93	1821.52
522.29	1845.00
522.65	1867.99
523.01	1890.90
523.37	1913.36
523.73	1936.60
524.09	1959.46
524.45	1982.11
524.81	2004.20
525.17	2026.06
525.53	2047.54
525.89	2069.56
526.25	2091.56
526.61	2112.45
526.97	2133.42
527.33	2154.23
527.68	2174.78
528.04	2194.60
528.40	2213.40
528.76	2232.34
529.12	2250.58
529.48	2268.73
529.84	2285.05
530.20	2301.96
530.56	2318.29
530.91	2334.76
531.27	2350.81
531.63	2366.02
531.99	2380.84
532.35	2395.06
532.71	2409.42
533.07	2424.09
533.42	2436.87
533.78	2450.66
534.14	2464.74
534.50	2477.91
534.86	2490.85
535.21	2501.96
535.57	2513.53
535.93	2524.91
536.29	2535.13
536.65	2545.42
537.00	2554.80
537.36	2565.22
537.72	2574.27
538.08	2582.67
538.44	2590.52
538.79	2597.95
539.15	2604.68
539.51	2610.94
539.87	2616.48
540.22	2620.27
540.58	2624.12
540.94	2629.37
541.29	2632.97
541.65	2634.71
542.01	2635.96
542.37	2636.57
542.72	2638.28
543.08	2638.45
543.44	2639.18
543.79	2639.05
544.15	2637.99
544.51	2637.23
544.87	2635.30
545.22	2632.58
545.58	2629.32
545.94	2625.99
546.29	2621.48
546.65	2617.06
547.01	2612.55
547.36	2608.75
547.72	2604.80
548.07	2599.57
548.43	2592.93
548.79	2585.31
549.14	2578.96
549.50	2572.84
549.86	2565.69
550.21	2557.71
550.57	2550.37
550.92	2540.96
551.28	2532.14
551.64	2523.56
551.99	2514.63
552.35	2505.22
552.70	2496.13
553.06	2487.57
553.41	2478.48
553.77	2469.02
554.13	2459.26
554.48	2448.92
554.84	2437.41
555.19	2426.56
555.55	2415.60
555.90	2404.57
556.26	2394.00
556.61	2382.54
556.97	2369.64
557.32	2357.40
557.68	2344.79
558.03	2332.18
558.39	2320.71
558.74	2309.31
559.10	2296.56
559.45	2283.98
559.81	2271.87
560.16	2259.39
560.52	2246.85
560.87	2234.53
561.23	2221.54
561.58	2208.93
561.94	2195.82
562.29	2182.34
562.64	2169.43
563.00	2156.19
563.35	2143.54
563.71	2130.74
564.06	2117.79
564.42	2105.32
564.77	2092.38
565.12	2079.61
565.48	2066.79
565.83	2053.92
566.19	2041.29
566.54	2028.38
566.89	2014.65
567.25	2001.13
567.60	1988.59
567.96	1975.45
568.31	1961.04
568.66	1947.39
569.02	1934.74
569.37	1922.03
569.72	1909.84
570.08	1896.45
570.43	1882.75
570.78	1868.71
571.14	1854.27
571.49	1840.43
571.84	1827.22
572.20	1812.92
572.55	1798.77
572.90	1784.45
573.26	1770.16
573.61	1755.34
573.96	1741.05
574.31	1726.85
574.67	1712.78
575.02	1697.85
575.37	1682.81
575.72	1668.78
576.08	1655.08
576.43	1640.32
576.78	1626.03
577.13	1611.98
577.49	1598.46
577.84	1585.43
578.19	1571.62
578.54	1557.89
578.90	1543.79
579.25	1529.57
579.60	1516.70
579.95	1503.77
580.30	1490.64
580.66	1477.30
581.01	1463.94
581.36	1450.65
581.71	1438.33
582.06	1425.74
582.42	1413.46
582.77	1401.33
583.12	1389.09
583.47	1376.65
583.82	1364.45
584.17	1351.93
584.53	1339.07
584.88	1326.42
585.23	1313.50
585.58	1301.42
585.93	1289.50
586.28	1278.19
586.63	1266.87
586.98	1255.14
587.34	1243.49
587.69	1231.71
588.04	1220.27
588.39	1209.26
588.74	1198.29
589.09	1187.15
589.44	1175.70
589.79	1164.76
590.14	1153.93
590.49	1143.04
590.84	1132.30
591.19	1121.77
591.54	1111.16
591.89	1100.73
592.25	1090.52
592.60	1080.01
592.95	1069.72
593.30	1059.71
593.65	1049.49
594.00	1039.31
594.35	1029.77
594.70	1019.85
595.05	1010.69
595.40	1001.48
595.75	992.05
596.10	983.07
596.45	973.89
596.80	965.00
597.15	955.98
597.50	947.06
597.85	938.50
598.19	929.84
598.54	921.26
598.89	913.00
599.24	905.00
599.59	896.89
599.94	889.62
600.29	882.17
600.64	874.40
600.99	866.34
601.34	858.69
601.69	850.66
602.04	843.22
602.39	835.71
602.74	828.18
603.08	820.68
603.43	813.17
603.78	805.79
604.13	798.58
604.48	791.31
604.83	784.26
605.18	777.06
605.53	770.11
605.87	763.02
606.22	756.22
606.57	749.36
606.92	742.39
607.27	735.39
607.62	728.73
607.96	722.42
608.31	716.44
608.66	710.27
609.01	704.38
609.36	698.64
609.70	692.64
610.05	686.64
610.40	680.87
610.75	675.11
611.10	669.66
611.44	664.09
611.79	658.62
612.14	653.09
612.49	647.65
612.83	642.39
613.18	637.26
613.53	632.07
613.88	626.93
614.22	622.17
614.57	617.32
614.92	612.29
615.27	607.37
615.61	602.54
615.96	597.76
616.31	592.98
616.65	588.29
617.00	583.76
617.35	579.32
617.70	574.95
618.04	570.65
618.39	566.29
618.74	562.11
619.08	557.97
619.43	553.92
619.78	549.93
620.12	545.91
620.47	542.05
620.82	538.25
621.16	534.49
621.51	530.64
621.85	526.84
622.20	523.23
622.55	519.61
622.89	516.05
623.24	512.52
623.59	508.99
623.93	505.56
624.28	502.24
624.62	499.03
624.97	495.86
625.32	492.62
625.66	489.36
626.01	486.07
626.35	482.85
626.70	479.66
627.04	476.65
627.39	473.57
627.73	470.61
628.08	467.74
628.43	464.87
628.77	462.06
629.12	459.38
629.46	456.67
629.81	453.95
630.15	451.21
630.50	448.55
630.84	445.96
631.19	443.42
631.53	440.99
631.88	438.49
632.22	436.00
632.57	433.82
632.91	431.62
633.26	429.47
633.60	427.36
633.95	425.34
634.29	423.21
634.64	421.14
634.98	418.91
635.32	416.84
635.67	414.91
636.01	412.91
636.36	410.94
636.70	409.11
637.05	407.27
637.39	405.46
637.73	403.70
638.08	402.02
638.42	400.33
638.77	398.50
639.11	396.64
639.45	394.86
639.80	392.98
640.14	391.22
640.49	389.48
640.83	387.68
641.17	385.93
641.52	384.26
641.86	382.61
642.20	381.15
642.55	379.51
642.89	377.93
643.23	376.39
643.58	375.03
643.92	373.51
644.26	372.04
644.61	370.63
644.95	369.16
645.29	367.64
645.64	366.12
645.98	364.71
646.32	363.40
646.66	362.03
647.01	360.72
647.35	359.46
647.69	358.16
648.04	357.03
648.38	355.80
648.72	354.57
649.06	353.35
649.41	352.11
649.75	350.95
650.09	349.79
650.43	348.63
650.78	347.43
651.12	346.27
651.46	345.18
651.80	344.07
652.14	343.00
652.49	341.99
652.83	340.96
653.17	339.93
653.51	338.96
653.85	338.05
654.20	337.07
654.54	336.01
654.88	335.04
655.22	334.07
655.56	333.10
655.90	332.18
656.25	331.30
656.59	330.40
656.93	329.55
657.27	328.71
657.61	327.81
657.95	326.96
658.29	326.08
658.64	325.24
658.98	324.41
659.32	323.59
659.66	322.83
660.00	322.06
660.34	321.33
660.68	320.51
661.02	319.68
661.36	318.90
661.70	318.15
662.05	317.40
662.39	316.66
662.73	316.02
663.07	315.36
663.41	314.67
663.75	313.97
664.09	313.26
664.43	312.51
664.77	311.84
665.11	311.15
665.45	310.52
665.79	309.89
666.13	309.22
666.47	308.53
666.81	307.81
667.15	307.07
667.49	306.42
667.83	305.85
668.17	305.22
668.51	304.64
668.85	304.09
669.19	303.57
669.53	302.95
669.87	302.30
670.21	301.68
670.55	301.10
670.89	300.59
671.23	300.03
671.57	299.50
671.91	299.02
672.25	298.54
672.58	298.05
672.92	297.48
673.26	297.02
673.60	296.55
673.94	296.10
674.28	295.66
674.62	295.20
674.96	294.68
675.30	294.23
675.64	293.73
675.97	293.23
676.31	292.70
676.65	292.24
676.99	291.81
677.33	291.31
677.67	290.85
678.01	290.32
678.34	289.87
678.68	289.43
679.02	288.94
679.36	288.45
679.70	287.98
680.04	287.54
680.37	287.08
680.71	286.64
681.05	286.22
681.39	285.77
681.73	285.29
682.06	284.82
682.40	284.37
682.74	283.97
683.08	283.60
683.42	283.19
683.75	282.80
684.09	282.32
684.43	281.90
684.77	281.48
685.10	281.10
685.44	280.70
685.78	280.30
686.12	279.91
686.45	279.50
686.79	279.08
687.13	278.69
687.46	278.25
687.80	277.87
688.14	277.43
688.48	277.02
688.81	276.61
689.15	276.26
689.49	275.87
689.82	275.47
690.16	275.01
690.50	274.61
690.83	274.22
691.17	273.83
691.51	273.46
691.84	273.11
692.18	272.70
692.52	272.29
692.85	271.90
693.19	271.57
693.52	271.20
693.86	270.83
694.20	270.45
694.53	270.09
694.87	269.68
695.21	269.31
695.54	268.93
695.88	268.55
696.21	268.15
696.55	267.79
696.88	267.43
697.22	267.07
697.56	266.71
697.89	266.30
698.23	265.94
698.56	265.55
698.90	265.20
699.23	264.81
699.57	264.45
699.90	264.06
700.24	263.66
700.58	263.33
700.91	263.03
701.25	262.80
701.58	262.53
701.92	262.26
702.25	261.94
702.59	261.62
702.92	261.31
703.26	260.97
703.59	260.64
703.93	260.42
704.26	260.12
704.60	259.80
704.93	259.48
705.26	259.16
705.60	258.89
705.93	258.55
706.27	258.30
706.60	258.04
706.94	257.80
707.27	257.48
707.61	257.16
707.94	256.83
708.27	256.41
708.61	256.07
708.94	255.75
709.28	255.46
709.61	255.16
709.94	254.89
710.28	254.65
710.61	254.39
710.95	254.01
711.28	253.83
711.61	253.55
711.95	253.32
712.28	253.06
712.61	252.78
712.95	252.61
713.28	252.41
713.61	252.12
713.95	251.83
714.28	251.60
714.61	251.35
714.95	251.11
715.28	250.87
715.61	250.63
715.95	250.41
716.28	250.19
716.61	250.00
716.95	249.76
717.28	249.51
717.61	249.28
717.94	249.06
718.28	248.75
718.61	248.54
718.94	248.29
719.27	248.08
719.61	247.89
719.94	247.65
720.27	247.36
720.60	247.15
720.94	246.96
721.27	246.77
721.60	246.58
721.93	246.38
722.27	246.23
722.60	246.05
722.93	245.84
723.26	245.63
723.59	245.40
723.93	245.22
724.26	245.05
724.59	244.87
724.92	244.70
725.25	244.57
725.59	244.39
725.92	244.25
726.25	244.08
726.58	243.90
726.91	243.72
727.24	243.57
727.57	243.41
727.91	243.23
728.24	243.10
728.57	242.94
728.90	242.80
729.23	242.60
729.56	242.49
729.89	242.34
730.22	242.19
730.55	242.04
730.89	241.88
731.22	241.72
731.55	241.56
731.88	241.41
732.21	241.24
732.54	241.09
732.87	240.95
733.20	240.81
733.53	240.68
733.86	240.55
734.19	240.39
734.52	240.27
734.85	240.22
735.18	240.05
735.51	239.95
735.84	239.81
736.17	239.72
736.50	239.53
736.83	239.55
737.16	239.43
737.49	239.31
737.82	239.19
738.15	239.09
738.48	238.97
738.81	238.85
739.14	238.71
739.47	238.58
739.80	238.45
740.13	238.34
740.46	238.20
740.79	238.07
741.12	237.95
741.45	237.81
741.78	237.62
742.11	237.54
742.44	237.38
742.77	237.28
743.10	237.14
743.43	237.03
743.75	236.78
744.08	236.87
744.41	236.77
744.74	236.65
745.07	236.51
745.40	236.43
745.73	236.39
746.06	236.30
746.39	236.22
746.71	236.12
747.04	236.01
747.37	235.92
747.70	235.85
748.03	235.78
748.36	235.70
748.68	235.61
749.01	235.48
749.34	235.40
749.67	235.32
750.00	235.26
750.33	235.25
750.65	235.18
750.98	234.90
751.31	234.81
751.64	234.74
751.97	234.73
752.29	234.63
752.62	234.49
752.95	234.40
753.28	234.29
753.60	234.20
753.93	234.15
754.26	234.08
754.59	233.97
754.91	233.86
755.24	233.76
755.57	233.75
755.90	233.67
756.22	233.58
756.55	233.49
756.88	233.37
757.20	233.23
757.53	233.12
757.86	233.06
758.19	233.00
758.51	232.93
758.84	232.80
759.17	232.71
759.49	232.65
759.82	232.64
760.15	232.59
760.47	232.52
760.80	232.41
761.13	232.36
761.45	232.29
761.78	232.24
762.11	232.19
762.43	232.05
762.76	231.99
763.08	231.95
763.41	231.90
763.74	231.85
764.06	231.78
764.39	231.72
764.71	231.65
765.04	231.58
765.37	231.51
765.69	231.46
766.02	231.40
766.34	231.33
766.67	231.24
767.00	231.21
767.32	231.23
767.65	231.27
767.97	231.20
768.30	231.16
768.62	231.11
768.95	231.04
769.27	230.99
769.60	230.96
769.92	230.89
770.25	230.83
770.57	230.76
770.90	230.72
771.22	230.66
771.55	230.62
771.87	230.58
772.20	230.53
772.52	230.60
772.85	230.71
773.17	230.67
773.50	230.62
773.82	230.55
774.15	230.44
774.47	230.33
774.80	230.27
775.12	230.23
775.45	230.20
775.77	230.18
776.09	230.14
776.42	230.10
776.74	230.10
777.07	230.05
777.39	230.03
777.72	229.99
778.04	229.96
778.36	229.93
778.69	229.90
779.01	229.88
779.33	229.74
779.66	229.57
779.98	229.54
780.31	229.51
780.63	229.54
780.95	229.53
781.28	229.51
781.60	229.48
781.92	229.45
782.25	229.43
782.57	229.39
782.89	229.36
783.22	229.32
783.54	229.26
783.86	229.25
784.19	229.21
784.51	229.22
784.83	229.19
785.16	229.17
785.48	229.15
785.80	229.12
786.12	229.10
786.45	229.07
786.77	229.06
787.09	229.03
787.42	228.97
787.74	228.95
788.06	228.93
788.38	228.90
788.71	228.87
789.03	228.84
789.35	228.84
789.67	228.81
789.99	228.81
790.32	228.78
790.64	228.77
790.96	228.87
791.28	228.81
791.61	228.78
791.93	228.76
792.25	228.74
792.57	228.81
792.89	228.78
793.21	228.77
793.54	228.74
793.86	228.70
794.18	228.68
794.50	228.63
794.82	228.61
795.14	228.62
795.47	228.62
795.79	228.60
796.11	228.55
796.43	228.53
796.75	228.50
797.07	228.50
797.39	228.48
797.71	228.36
798.04	228.35
798.36	228.36
798.68	228.34
799.00	228.34
799.32	228.26
799.64	228.26
799.96	228.25
800.28	228.25
800.60	228.23
800.92	228.22
801.24	228.21
801.56	228.21
801.89	228.18
802.21	228.17
802.53	228.14
802.85	228.15
803.17	228.20
803.49	228.16
803.81	228.13
804.13	228.11
804.45	228.07
804.77	228.07
805.09	228.05
805.41	228.03
805.73	227.99
806.05	227.94
806.37	227.92
806.69	227.89
807.01	227.87
807.33	227.86
807.65	227.82
807.97	227.86
808.28	227.84
808.60	227.83
808.92	227.80
809.24	227.87
809.56	227.84
809.88	227.78
810.20	227.78
810.52	227.79
810.84	227.76
811.16	227.74
811.48	227.72
811.80	227.76
812.12	227.75
812.43	227.76
812.75	227.77
813.07	227.74
813.39	227.73
813.71	227.70
814.03	227.69
814.35	227.69
814.67	227.62
814.98	227.60
815.30	227.59
815.62	227.55
815.94	227.46
816.26	227.47
816.58	227.44
816.89	227.44
817.21	227.41
817.53	227.41
817.85	227.41
818.17	227.39
818.48	227.33
818.80	227.34
819.12	227.30
819.44	227.27
819.76	227.25
820.07	227.24
820.39	227.23
820.71	227.23
821.03	227.22
821.34	227.20
821.66	227.21
821.98	227.22
822.30	227.21
822.61	227.29
822.93	227.25
823.25	227.24
823.57	227.23
823.88	227.23
824.20	227.22
824.52	227.23
824.83	227.22
825.15	227.20
825.47	227.18
825.79	227.20
826.10	227.19
826.42	227.18
826.74	227.19
827.05	227.19
827.37	227.19
827.69	227.18
828.00	227.17
828.32	227.17
828.64	227.15
828.95	227.21
829.27	227.16
829.58	227.16
829.90	227.19
830.22	227.19
830.53	227.17
830.85	227.16
831.17	227.12
831.48	227.12
831.80	227.13
832.11	227.13
832.43	227.10
832.75	227.10
833.06	227.17
833.38	227.12
833.69	227.12
834.01	227.11
834.32	227.10
834.64	227.10
834.96	227.10
835.27	227.09
835.59	227.04
835.90	227.02
836.22	227.01
836.53	226.97
836.85	226.94
837.16	227.07
837.48	227.06
837.79	227.11
838.11	227.13
838.42	227.12
838.74	227.13
839.05	227.13
839.37	227.12
839.68	227.05
840.00	227.05
840.31	227.06
840.63	227.05
840.94	227.03
841.26	227.01
841.57	227.00
841.88	227.01
842.20	226.99
842.51	226.97
842.83	226.97
843.14	227.08
843.46	227.08
843.77	227.00
844.08	227.00
844.40	226.95
844.71	226.93
845.03	226.91
845.34	226.90
845.65	226.89
845.97	226.90
846.28	226.89
846.60	226.90
846.91	226.88
847.22	226.87
847.54	226.91
847.85	226.92
848.16	226.90
848.48	226.86
848.79	226.91
849.10	226.93
849.42	226.92
849.73	226.80
850.04	226.80
850.36	226.75
850.67	226.77
850.98	226.77
851.30	226.77
851.61	226.77
851.92	226.77
852.23	226.80
852.55	226.80
852.86	226.81
853.17	226.81
853.49	226.84
853.80	226.86
854.11	226.86
854.42	226.87
854.74	226.87
855.05	226.89
855.36	226.82
855.67	226.81
855.99	226.82
856.30	226.97
856.61	226.97
856.92	226.97
857.23	226.98
857.55	226.96
857.86	226.94
858.17	226.96
858.48	226.92
858.79	226.90
859.11	226.91
859.42	226.90
859.73	226.88
860.04	226.86
860.35	226.83
860.66	226.79
860.98	226.78
861.29	226.80
861.60	226.78
861.91	226.81
862.22	226.80
862.53	226.77
862.84	226.62
863.16	226.65
863.47	226.63
863.78	226.60
864.09	226.62
864.40	226.63
864.71	226.62
865.02	226.63
865.33	226.61
865.64	226.58
865.95	226.58
866.27	226.66
866.58	226.65
866.89	226.67
867.20	226.67
867.51	226.65
867.82	226.64
868.13	226.67
868.44	226.64
868.75	226.67
869.06	226.68
869.37	226.69
869.68	226.66
869.99	226.68
870.30	226.69
870.61	226.71
870.92	226.69
871.23	226.68
871.54	226.70
871.85	226.74
872.16	226.75
872.47	226.74
872.78	226.67
873.09	226.68
873.40	226.66
873.71	226.68
874.02	226.69
874.33	226.67
874.64	226.64
874.95	226.67
875.26	226.63
875.56	226.63
875.87	226.62
876.18	226.62
876.49	226.74
876.80	226.73
877.11	226.70
877.42	226.71
877.73	226.71
878.04	226.70
878.35	226.68
878.66	226.69
878.96	226.69
879.27	226.69
879.58	226.68
879.89	226.67
880.20	226.70
880.51	226.69
880.82	226.69
881.12	226.70
881.43	226.67
881.74	226.66
882.05	226.65
882.36	226.65
882.67	226.66
882.97	226.51
883.28	226.51
883.59	226.50
883.90	226.51
884.21	226.53
884.51	226.52
884.82	226.50
885.13	226.49
885.44	226.49
885.74	226.49
886.05	226.48
886.36	226.48
886.67	226.43
886.98	226.50
887.28	226.51
887.59	226.51
887.90	226.52
888.20	226.51
888.51	226.54
888.82	226.52
889.13	226.53
889.43	226.65
889.74	226.63
890.05	226.62
890.35	226.61
890.66	226.58
890.97	226.56
891.28	226.55
891.58	226.54
891.89	226.54
892.20	226.52
892.50	226.52
892.81	226.51
893.12	226.51
893.42	226.44
893.73	226.44
894.04	226.43
894.34	226.44
894.65	226.44
894.95	226.42
895.26	226.43
895.57	226.48
895.87	226.35
896.18	226.37
896.48	226.38
896.79	226.38
897.10	226.39
897.40	226.40
897.71	226.41
898.01	226.40
898.32	226.42
898.63	226.42
898.93	226.42
899.24	226.43
899.54	226.42
899.85	226.42
900.15	226.41
900.46	226.40
900.76	226.41
901.07	226.41
901.38	226.39
901.68	226.40
901.99	226.34
902.29	226.36
902.60	226.35
902.90	226.35
903.21	226.35
903.51	226.33
903.82	226.36
904.12	226.36
904.43	226.37
904.73	226.36
905.03	226.36
905.34	226.48
905.64	226.47
905.95	226.47
906.25	226.48
906.56	226.47
906.86	226.47
907.17	226.45
907.47	226.47
907.77	226.47
908.08	226.44
908.38	226.45
908.69	226.45
908.99	226.48
909.30	226.48
909.60	226.48
909.90	226.50
910.21	226.46
910.51	226.45
910.81	226.44
911.12	226.45
911.42	226.45
911.73	226.32
912.03	226.32
912.33	226.35
912.64	226.32
912.94	226.32
913.24	226.30
913.55	226.30
913.85	226.28
914.15	226.30
914.46	226.33
914.76	226.32
915.06	226.31
915.37	226.29
915.67	226.28
915.97	226.28
916.27	226.25
916.58	226.26
916.88	226.26
917.18	226.26
917.49	226.34
917.79	226.33
918.09	226.34
918.39	226.39
918.70	226.38
919.00	226.39
919.30	226.46
919.60	226.46
919.91	226.46
920.21	226.46
920.51	226.43
920.81	226.41
921.12	226.43
921.42	226.42
921.72	226.43
922.02	226.44
922.32	226.46
922.63	226.47
922.93	226.54
923.23	226.54
923.53	226.53
923.83	226.45
924.13	226.47
924.44	226.46
924.74	226.48
925.04	226.50
925.34	226.50
925.64	226.44
925.94	226.45
926.24	226.50
926.55	226.49
926.85	226.51
927.15	226.50
927.45	226.50
927.75	226.49
928.05	226.48
928.35	226.47
928.65	226.48
928.95	226.49
929.26	226.43
929.56	226.46
929.86	226.48
930.16	226.47
930.46	226.46
930.76	226.48
931.06	226.41
931.36	226.38
931.66	226.39
931.96	226.41
932.26	226.41
932.56	226.37
932.86	226.38
933.16	226.39
933.46	226.38
933.76	226.36
934.06	226.39
934.36	226.43
934.66	226.44
934.96	226.42
935.26	226.42
935.56	226.44
935.86	226.40
936.16	226.37
936.46	226.37
936.76	226.35
937.06	226.33
937.36	226.35
937.66	226.36
937.96	226.35
938.26	226.32
938.56	226.32
938.86	226.32
939.16	226.35
939.46	226.37
939.76	226.38
940.06	226.38
940.35	226.36
940.65	226.30
940.95	226.30
941.25	226.27
941.55	226.25
941.85	226.24
942.15	226.27
942.45	226.30
942.75	226.29
943.04	226.29
943.34	226.32
943.64	226.31
943.94	226.28
944.24	226.29
944.54	226.30
944.84	226.29
945.13	226.27
945.43	226.24
945.73	226.23
946.03	226.21
946.33	226.19
946.62	226.19
946.92	226.19
947.22	226.20
947.52	226.21
947.82	226.23
948.11	226.22
948.41	226.19
948.71	226.16
949.01	226.18
949.31	226.17
949.60	226.16
949.90	226.18
950.20	226.18
950.50	226.17
950.79	226.16
951.09	226.18
951.39	226.18
951.69	226.17
951.98	226.20
952.28	226.21
952.58	226.21
952.87	226.21
953.17	226.23
953.47	226.22
953.76	226.22
954.06	226.20
954.36	226.18
954.66	226.17
954.95	226.21
955.25	226.21
955.55	226.21
955.84	226.19
956.14	226.19
956.44	226.21
956.73	226.19
957.03	226.19
957.32	226.19
957.62	226.19
957.92	226.21
958.21	226.19
958.51	226.34
958.81	226.34
959.10	226.35
959.40	226.38
959.69	226.39
959.99	226.40
960.29	226.41
960.58	226.41
960.88	226.45
961.17	226.44
961.47	226.45
961.76	226.44
962.06	226.48
962.36	226.46
962.65	226.46
962.95	226.47
963.24	226.46
963.54	226.47
963.83	226.48
964.13	226.48
964.42	226.47
964.72	226.37
965.01	226.37
965.31	226.36
965.60	226.33
965.90	226.41
966.19	226.38
966.49	226.39
966.78	226.38
967.08	226.38
967.37	226.39
967.67	226.37
967.96	226.40
968.26	226.37
968.55	226.40
968.85	226.39
969.14	226.39
969.43	226.39
969.73	226.38
970.02	226.37
970.32	226.36
970.61	226.34
970.91	226.29
971.20	226.28
971.49	226.27
971.79	226.28
972.08	226.20
972.38	226.21
972.67	226.20
972.96	226.22
973.26	226.18
973.55	226.21
973.85	226.21
974.14	226.19
974.43	226.21
974.73	226.18
975.02	226.17
975.31	226.16
975.61	226.17
975.90	226.15
976.19	226.14
976.49	226.15
976.78	226.16
977.07	226.16
977.37	226.17
977.66	226.18
977.95	226.17
978.24	226.17
978.54	226.19
978.83	226.19
979.12	226.17
979.42	226.17
979.71	226.15
980.00	226.14
980.29	226.14
980.59	226.12
980.88	226.16
981.17	226.16
981.46	226.15
981.76	226.14
982.05	226.18
982.34	226.19
982.63	226.18
982.93	226.18
983.22	226.21
983.51	226.22
983.80	226.24
984.09	226.26
984.39	226.25
984.68	226.25
984.97	226.25
985.26	226.24
985.55	226.24
985.85	226.22
986.14	226.23
986.43	226.25
986.72	226.25
987.01	226.20
987.30	226.20
987.59	226.20
987.89	226.21
988.18	226.18
988.47	226.17
988.76	226.16
989.05	226.16
989.34	226.14
989.63	226.17
989.92	226.14
990.22	226.13
990.51	226.13
990.80	226.11
991.09	226.12
991.38	226.14
991.67	226.14
991.96	226.13
992.25	226.15
992.54	226.13
992.83	226.14
993.12	226.14
993.41	226.16
993.70	226.22
993.99	226.25
994.28	226.25
994.58	226.27
994.87	226.26
995.16	226.27
995.45	226.26
995.74	226.21
996.03	226.22
996.32	226.24
996.61	226.27
996.90	226.28
997.19	226.27
997.48	226.26
997.77	226.26
998.06	226.27
998.34	226.25
998.63	226.24
998.92	226.24
999.21	226.27
999.50	226.26
999.79	226.21
1000.08	226.19
1000.37	226.20
1000.66	226.18
1000.95	226.21
1001.24	226.21
1001.53	226.23
1001.82	226.23
1002.11	226.20
1002.40	226.20
1002.68	226.23
1002.97	226.31
1003.26	226.29
1003.55	226.28
1003.84	226.28
1004.13	226.32
1004.42	226.32
1004.71	226.32
1004.99	226.31
1005.28	226.33
1005.57	226.33
1005.86	226.33
1006.15	226.32
1006.44	226.31
1006.72	226.32
1007.01	226.30
1007.30	226.30
1007.59	226.28
1007.88	226.28
1008.17	226.29
1008.45	226.27
1008.74	226.21
1009.03	226.15
1009.32	226.15
1009.60	226.15
1009.89	226.14
1010.18	226.09
1010.47	226.08
1010.76	226.08
1011.04	226.08
1011.33	226.07
1011.62	226.08
1011.91	226.09
1012.19	226.09
1012.48	226.08
1012.77	226.08
1013.05	226.12
1013.34	226.12
1013.63	226.12
1013.92	226.12
1014.20	226.11
1014.49	226.11
1014.78	226.13
1015.06	226.10
1015.35	226.10
1015.64	226.12
1015.92	226.13
1016.21	226.14
1016.50	226.14
1016.78	226.15
1017.07	226.15
1017.36	226.13
1017.64	226.12
1017.93	226.12
1018.22	226.11
1018.50	226.11
1018.79	226.11
1019.08	226.07
1019.36	226.07
1019.65	226.07
1019.93	226.10
1020.22	226.12
1020.51	226.20
1020.79	226.18
1021.08	226.03
1021.36	225.80
1021.65	226.15
1021.94	226.13
1022.22	226.16
1022.51	226.04
1022.79	226.58
1023.08	226.40
1023.36	227.76
1023.65	225.79
>>>>>End Processed Spectral Data<<<<<
