SpectraSuite Data File
++++++++++++++++++++++++++++++++++++
Date: Fri Oct 02 15:35:12 EDT 2015
User: lab3
Dark Spectrum Present: No
Reference Spectrum Present: No
Number of Sampled Component Spectra: 1
Spectrometers: USB2E7196
Integration Time (usec): 46000 (USB2E7196)
Spectra Averaged: 1200 (USB2E7196)
Boxcar Smoothing: 10 (USB2E7196)
Correct for Electrical Dark: No (USB2E7196)
Strobe/Lamp Enabled: No (USB2E7196)
Correct for Detector Non-linearity: No (USB2E7196)
Correct for Stray Light: No (USB2E7196)
Number of Pixels in Processed Spectrum: 2048
>>>>>Begin Processed Spectral Data<<<<<
339.09	0.00
339.48	213.66
339.86	215.12
340.24	216.66
340.63	217.87
341.01	221.39
341.39	220.64
341.78	222.02
342.16	223.32
342.54	223.74
342.93	212.18
343.31	222.90
343.69	223.44
344.07	223.90
344.46	224.32
344.84	224.71
345.22	224.91
345.60	225.17
345.99	225.37
346.37	225.49
346.75	225.59
347.13	225.66
347.52	225.72
347.90	225.82
348.28	225.85
348.66	225.92
349.05	225.91
349.43	225.96
349.81	226.02
350.19	226.08
350.57	226.14
350.96	226.22
351.34	226.30
351.72	226.40
352.10	226.52
352.48	226.58
352.87	226.64
353.25	226.71
353.63	226.77
354.01	226.84
354.39	226.93
354.77	227.01
355.15	227.11
355.54	227.15
355.92	227.17
356.30	227.25
356.68	227.39
357.06	227.47
357.44	227.51
357.82	227.56
358.20	227.69
358.58	227.75
358.97	227.82
359.35	227.90
359.73	227.97
360.11	228.02
360.49	228.09
360.87	228.13
361.25	228.21
361.63	228.30
362.01	228.35
362.39	228.37
362.77	228.42
363.15	228.46
363.53	228.50
363.91	228.54
364.29	228.56
364.67	228.45
365.05	228.48
365.43	228.51
365.81	228.54
366.19	228.55
366.57	228.61
366.95	228.61
367.33	228.59
367.71	228.59
368.09	228.61
368.47	228.60
368.85	228.59
369.23	228.60
369.61	228.54
369.99	228.57
370.37	228.56
370.75	228.64
371.13	228.60
371.51	228.57
371.89	228.55
372.27	228.54
372.65	228.52
373.03	228.48
373.41	228.45
373.78	228.40
374.16	228.30
374.54	228.21
374.92	228.16
375.30	228.11
375.68	228.05
376.06	228.00
376.44	227.96
376.82	227.91
377.19	227.86
377.57	227.81
377.95	227.71
378.33	227.65
378.71	227.49
379.09	227.45
379.47	227.41
379.84	227.34
380.22	227.27
380.60	227.20
380.98	227.15
381.36	227.10
381.73	227.05
382.11	227.03
382.49	227.00
382.87	226.93
383.25	226.89
383.62	226.99
384.00	226.91
384.38	226.87
384.76	226.85
385.13	226.85
385.51	226.81
385.89	226.75
386.27	226.72
386.64	226.71
387.02	226.66
387.40	226.60
387.78	226.58
388.15	226.56
388.53	226.53
388.91	226.49
389.29	226.45
389.66	226.45
390.04	226.40
390.42	226.39
390.79	226.39
391.17	226.36
391.55	226.20
391.92	226.20
392.30	226.20
392.68	226.17
393.05	226.13
393.43	226.14
393.81	226.15
394.18	226.13
394.56	226.12
394.94	226.15
395.31	226.16
395.69	226.21
396.06	226.23
396.44	226.26
396.82	226.27
397.19	226.36
397.57	226.36
397.95	226.41
398.32	226.40
398.70	226.44
399.07	226.52
399.45	226.56
399.82	226.61
400.20	226.65
400.58	226.70
400.95	226.73
401.33	226.80
401.70	226.96
402.08	227.06
402.45	227.15
402.83	227.26
403.20	227.37
403.58	227.46
403.95	227.59
404.33	227.73
404.71	227.87
405.08	228.08
405.46	228.24
405.83	228.43
406.21	228.62
406.58	228.84
406.96	229.06
407.33	229.31
407.70	229.58
408.08	229.96
408.45	230.28
408.83	230.63
409.20	230.96
409.58	231.25
409.95	231.66
410.33	232.09
410.70	232.50
411.08	232.99
411.45	233.51
411.82	234.03
412.20	234.63
412.57	235.35
412.95	235.91
413.32	236.64
413.69	237.39
414.07	238.19
414.44	239.04
414.82	239.91
415.19	240.93
415.56	241.97
415.94	243.05
416.31	244.26
416.68	245.47
417.06	246.88
417.43	248.21
417.81	249.73
418.18	251.29
418.55	252.98
418.93	254.74
419.30	256.57
419.67	258.52
420.04	260.52
420.42	262.60
420.79	265.01
421.16	267.44
421.54	269.91
421.91	272.51
422.28	275.18
422.66	278.08
423.03	280.85
423.40	283.74
423.77	286.85
424.15	290.03
424.52	293.34
424.89	296.93
425.26	300.49
425.64	303.80
426.01	307.53
426.38	311.34
426.75	315.27
427.13	319.29
427.50	323.52
427.87	327.90
428.24	332.35
428.61	336.61
428.99	341.23
429.36	346.30
429.73	351.13
430.10	355.97
430.47	360.91
430.85	366.01
431.22	371.50
431.59	377.13
431.96	382.63
432.33	388.76
432.70	394.58
433.08	401.45
433.45	407.95
433.82	414.36
434.19	421.54
434.56	428.60
434.93	435.44
435.30	442.18
435.68	449.82
436.05	457.30
436.42	464.75
436.79	471.55
437.16	478.88
437.53	486.73
437.90	494.60
438.27	502.30
438.64	510.61
439.01	518.16
439.38	525.06
439.75	531.70
440.13	539.17
440.50	546.31
440.87	551.95
441.24	558.13
441.61	564.86
441.98	569.75
442.35	575.56
442.72	581.47
443.09	587.12
443.46	590.66
443.83	593.22
444.20	595.35
444.57	598.55
444.94	600.35
445.31	602.18
445.68	603.72
446.05	604.80
446.42	604.30
446.79	603.60
447.16	602.94
447.53	602.34
447.90	599.76
448.27	597.27
448.64	593.64
449.01	591.04
449.37	586.07
449.74	581.55
450.11	575.79
450.48	569.52
450.85	563.22
451.22	557.81
451.59	552.56
451.96	547.81
452.33	540.97
452.70	534.88
453.07	527.52
453.43	520.18
453.80	513.07
454.17	506.28
454.54	500.00
454.91	492.95
455.28	486.34
455.65	480.14
456.02	473.60
456.38	468.33
456.75	461.55
457.12	456.09
457.49	450.60
457.86	445.43
458.23	440.91
458.59	435.91
458.96	430.81
459.33	426.32
459.70	421.73
460.07	418.27
460.43	414.19
460.80	410.38
461.17	407.06
461.54	403.48
461.91	400.12
462.27	396.73
462.64	394.00
463.01	390.85
463.38	387.66
463.74	384.80
464.11	382.30
464.48	380.05
464.85	377.58
465.21	375.74
465.58	373.67
465.95	371.27
466.32	369.39
466.68	367.53
467.05	365.65
467.42	363.84
467.78	361.86
468.15	360.03
468.52	358.69
468.88	356.90
469.25	355.27
469.62	353.98
469.98	352.57
470.35	351.30
470.72	350.15
471.08	349.00
471.45	348.02
471.82	346.91
472.18	345.75
472.55	345.02
472.92	344.08
473.28	343.33
473.65	342.53
474.02	341.79
474.38	341.17
474.75	340.80
475.11	340.28
475.48	340.05
475.85	339.80
476.21	339.68
476.58	339.59
476.94	339.71
477.31	339.79
477.67	339.89
478.04	340.10
478.41	340.40
478.77	340.82
479.14	341.09
479.50	341.60
479.87	342.27
480.23	342.96
480.60	343.61
480.96	344.29
481.33	345.28
481.69	346.23
482.06	347.22
482.42	348.10
482.79	349.21
483.15	350.50
483.52	351.97
483.88	353.38
484.25	354.90
484.61	356.48
484.98	358.17
485.34	360.07
485.71	362.06
486.07	364.20
486.44	366.31
486.80	368.71
487.17	371.19
487.53	373.89
487.90	376.70
488.26	379.77
488.62	383.01
488.99	386.24
489.35	389.66
489.72	393.36
490.08	397.24
490.44	401.27
490.81	405.43
491.17	409.71
491.54	414.30
491.90	419.03
492.26	424.12
492.63	429.42
492.99	434.99
493.36	440.73
493.72	446.77
494.08	452.98
494.45	459.55
494.81	466.38
495.17	473.35
495.54	480.73
495.90	488.43
496.26	496.28
496.63	504.37
496.99	512.81
497.35	521.60
497.72	530.70
498.08	540.00
498.44	549.61
498.80	559.78
499.17	570.23
499.53	581.03
499.89	592.15
500.26	603.54
500.62	615.09
500.98	627.34
501.34	639.75
501.71	652.70
502.07	665.77
502.43	679.29
502.79	693.18
503.16	707.47
503.52	721.98
503.88	736.90
504.24	752.30
504.60	767.85
504.97	783.85
505.33	800.21
505.69	817.51
506.05	835.09
506.41	852.70
506.78	870.39
507.14	888.58
507.50	907.17
507.86	926.09
508.22	945.34
508.59	964.40
508.95	984.23
509.31	1004.67
509.67	1025.89
510.03	1047.16
510.39	1068.37
510.75	1089.77
511.12	1111.42
511.48	1133.25
511.84	1155.07
512.20	1177.22
512.56	1200.22
512.92	1223.25
513.28	1245.85
513.64	1268.65
514.00	1291.77
514.37	1315.35
514.73	1338.83
515.09	1362.23
515.45	1385.87
515.81	1409.80
516.17	1433.63
516.53	1457.08
516.89	1480.44
517.25	1503.90
517.61	1527.24
517.97	1550.93
518.33	1573.98
518.69	1597.01
519.05	1620.43
519.41	1644.00
519.77	1667.94
520.13	1691.10
520.49	1714.25
520.85	1737.59
521.21	1760.68
521.57	1784.14
521.93	1806.95
522.29	1830.28
522.65	1852.96
523.01	1875.64
523.37	1897.75
523.73	1920.76
524.09	1943.35
524.45	1965.74
524.81	1987.68
525.17	2009.31
525.53	2030.54
525.89	2052.37
526.25	2074.11
526.61	2094.83
526.97	2115.61
527.33	2136.11
527.68	2156.43
528.04	2176.08
528.40	2194.79
528.76	2213.35
529.12	2231.39
529.48	2249.44
529.84	2265.48
530.20	2282.25
530.56	2298.46
530.91	2314.69
531.27	2330.46
531.63	2345.50
531.99	2359.95
532.35	2373.93
532.71	2388.18
533.07	2402.68
533.42	2415.29
533.78	2428.78
534.14	2442.66
534.50	2455.74
534.86	2468.63
535.21	2479.66
535.57	2491.09
535.93	2502.29
536.29	2512.52
536.65	2522.60
537.00	2531.67
537.36	2541.95
537.72	2550.92
538.08	2559.10
538.44	2566.78
538.79	2574.21
539.15	2580.73
539.51	2587.09
539.87	2592.60
540.22	2596.18
540.58	2599.94
540.94	2604.91
541.29	2608.54
541.65	2610.40
542.01	2611.58
542.37	2612.02
542.72	2613.60
543.08	2613.66
543.44	2614.35
543.79	2614.07
544.15	2613.05
544.51	2612.34
544.87	2610.39
545.22	2607.73
545.58	2604.48
545.94	2601.09
546.29	2596.53
546.65	2592.18
547.01	2587.51
547.36	2583.54
547.72	2579.81
548.07	2574.61
548.43	2568.14
548.79	2560.57
549.14	2554.06
549.50	2547.99
549.86	2540.94
550.21	2532.99
550.57	2525.73
550.92	2516.36
551.28	2507.58
551.64	2498.99
551.99	2490.12
552.35	2480.80
552.70	2471.72
553.06	2463.27
553.41	2454.28
553.77	2444.93
554.13	2435.35
554.48	2425.23
554.84	2413.87
555.19	2402.90
555.55	2391.95
555.90	2381.02
556.26	2370.63
556.61	2359.24
556.97	2346.47
557.32	2334.21
557.68	2321.85
558.03	2309.19
558.39	2297.81
558.74	2286.61
559.10	2273.98
559.45	2261.41
559.81	2249.34
560.16	2236.93
560.52	2224.52
560.87	2212.42
561.23	2199.71
561.58	2187.03
561.94	2174.03
562.29	2160.71
562.64	2147.91
563.00	2134.93
563.35	2122.30
563.71	2109.49
564.06	2096.76
564.42	2084.48
564.77	2071.75
565.12	2059.03
565.48	2046.39
565.83	2033.56
566.19	2020.98
566.54	2008.32
566.89	1994.74
567.25	1981.31
567.60	1968.93
567.96	1955.94
568.31	1941.58
568.66	1927.71
569.02	1915.18
569.37	1902.56
569.72	1890.38
570.08	1877.20
570.43	1863.47
570.78	1849.65
571.14	1835.38
571.49	1821.58
571.84	1808.30
572.20	1794.14
572.55	1780.01
572.90	1765.86
573.26	1751.76
573.61	1737.16
573.96	1722.95
574.31	1708.93
574.67	1695.07
575.02	1680.25
575.37	1665.37
575.72	1651.48
576.08	1638.10
576.43	1623.54
576.78	1609.44
577.13	1595.56
577.49	1582.06
577.84	1569.20
578.19	1555.55
578.54	1541.90
578.90	1527.90
579.25	1513.81
579.60	1501.02
579.95	1488.31
580.30	1475.39
580.66	1462.19
581.01	1448.96
581.36	1435.76
581.71	1423.43
582.06	1411.03
582.42	1398.84
582.77	1386.81
583.12	1374.80
583.47	1362.44
583.82	1350.39
584.17	1337.99
584.53	1325.31
584.88	1312.92
585.23	1300.23
585.58	1288.25
585.93	1276.51
586.28	1265.37
586.63	1254.14
586.98	1242.64
587.34	1231.19
587.69	1219.52
588.04	1208.21
588.39	1197.29
588.74	1186.52
589.09	1175.63
589.44	1164.30
589.79	1153.43
590.14	1142.76
590.49	1131.93
590.84	1121.33
591.19	1110.91
591.54	1100.35
591.89	1090.03
592.25	1079.89
592.60	1069.45
592.95	1059.30
593.30	1049.41
593.65	1039.34
594.00	1029.36
594.35	1019.88
594.70	1009.96
595.05	1000.79
595.40	991.63
595.75	982.30
596.10	973.36
596.45	964.26
596.80	955.47
597.15	946.56
597.50	937.72
597.85	929.31
598.19	920.76
598.54	912.22
598.89	904.13
599.24	896.19
599.59	888.17
599.94	880.93
600.29	873.55
600.64	865.95
600.99	858.00
601.34	850.42
601.69	842.47
602.04	835.18
602.39	827.75
602.74	820.40
603.08	813.00
603.43	805.56
603.78	798.26
604.13	791.13
604.48	783.99
604.83	776.97
605.18	769.87
605.53	763.00
605.87	756.05
606.22	749.29
606.57	742.58
606.92	735.73
607.27	728.85
607.62	722.28
607.96	716.00
608.31	710.11
608.66	704.03
609.01	698.23
609.36	692.52
609.70	686.67
610.05	680.71
610.40	675.03
610.75	669.34
611.10	663.99
611.44	658.47
611.79	653.06
612.14	647.60
612.49	642.19
612.83	637.01
613.18	631.93
613.53	626.81
613.88	621.70
614.22	616.95
614.57	612.17
614.92	607.20
615.27	602.33
615.61	597.52
615.96	592.80
616.31	588.07
616.65	583.43
617.00	578.95
617.35	574.55
617.70	570.19
618.04	565.96
618.39	561.63
618.74	557.50
619.08	553.41
619.43	549.43
619.78	545.47
620.12	541.49
620.47	537.64
620.82	533.88
621.16	530.18
621.51	526.41
621.85	522.64
622.20	519.01
622.55	515.45
622.89	511.93
623.24	508.46
623.59	504.99
623.93	501.60
624.28	498.29
624.62	495.12
624.97	492.00
625.32	488.80
625.66	485.55
626.01	482.31
626.35	479.11
626.70	475.93
627.04	472.96
627.39	469.94
627.73	467.02
628.08	464.21
628.43	461.35
628.77	458.58
629.12	455.92
629.46	453.31
629.81	450.60
630.15	447.90
630.50	445.25
630.84	442.69
631.19	440.16
631.53	437.76
631.88	435.27
632.22	432.79
632.57	430.59
632.91	428.43
633.26	426.34
633.60	424.28
633.95	422.29
634.29	420.19
634.64	418.15
634.98	415.96
635.32	413.91
635.67	412.01
636.01	410.04
636.36	408.11
636.70	406.25
637.05	404.44
637.39	402.68
637.73	400.93
638.08	399.28
638.42	397.61
638.77	395.82
639.11	394.00
639.45	392.25
639.80	390.44
640.14	388.71
640.49	386.96
640.83	385.20
641.17	383.49
641.52	381.83
641.86	380.19
642.20	378.73
642.55	377.12
642.89	375.53
643.23	374.03
643.58	372.65
643.92	371.18
644.26	369.75
644.61	368.34
644.95	366.92
645.29	365.42
645.64	363.94
645.98	362.54
646.32	361.23
646.66	359.90
647.01	358.60
647.35	357.36
647.69	356.08
648.04	354.92
648.38	353.71
648.72	352.50
649.06	351.28
649.41	350.07
649.75	348.91
650.09	347.80
650.43	346.65
650.78	345.45
651.12	344.29
651.46	343.19
651.80	342.12
652.14	341.06
652.49	340.05
652.83	339.01
653.17	338.01
653.51	337.04
653.85	336.14
654.20	335.18
654.54	334.13
654.88	333.16
655.22	332.22
655.56	331.26
655.90	330.35
656.25	329.49
656.59	328.61
656.93	327.78
657.27	326.95
657.61	326.05
657.95	325.23
658.29	324.38
658.64	323.57
658.98	322.74
659.32	321.93
659.66	321.19
660.00	320.45
660.34	319.72
660.68	318.96
661.02	318.14
661.36	317.37
661.70	316.64
662.05	315.91
662.39	315.20
662.73	314.57
663.07	313.93
663.41	313.24
663.75	312.54
664.09	311.85
664.43	311.11
664.77	310.48
665.11	309.78
665.45	309.15
665.79	308.52
666.13	307.89
666.47	307.21
666.81	306.50
667.15	305.78
667.49	305.15
667.83	304.56
668.17	303.94
668.51	303.36
668.85	302.81
669.19	302.32
669.53	301.72
669.87	301.08
670.21	300.46
670.55	299.87
670.89	299.38
671.23	298.83
671.57	298.29
671.91	297.80
672.25	297.34
672.58	296.88
672.92	296.33
673.26	295.83
673.60	295.36
673.94	294.92
674.28	294.49
674.62	294.02
674.96	293.50
675.30	293.06
675.64	292.57
675.97	292.07
676.31	291.53
676.65	291.04
676.99	290.63
677.33	290.15
677.67	289.71
678.01	289.18
678.34	288.73
678.68	288.30
679.02	287.80
679.36	287.31
679.70	286.83
680.04	286.40
680.37	285.95
680.71	285.52
681.05	285.10
681.39	284.63
681.73	284.16
682.06	283.72
682.40	283.28
682.74	282.88
683.08	282.52
683.42	282.10
683.75	281.71
684.09	281.24
684.43	280.83
684.77	280.40
685.10	280.03
685.44	279.63
685.78	279.24
686.12	278.89
686.45	278.49
686.79	278.06
687.13	277.68
687.46	277.25
687.80	276.87
688.14	276.42
688.48	276.03
688.81	275.64
689.15	275.28
689.49	274.86
689.82	274.46
690.16	274.00
690.50	273.61
690.83	273.22
691.17	272.82
691.51	272.46
691.84	272.11
692.18	271.71
692.52	271.31
692.85	270.92
693.19	270.56
693.52	270.18
693.86	269.81
694.20	269.44
694.53	269.09
694.87	268.71
695.21	268.34
695.54	267.98
695.88	267.59
696.21	267.18
696.55	266.84
696.88	266.47
697.22	266.12
697.56	265.77
697.89	265.37
698.23	265.03
698.56	264.63
698.90	264.28
699.23	263.89
699.57	263.54
699.90	263.16
700.24	262.78
700.58	262.46
700.91	262.16
701.25	261.93
701.58	261.65
701.92	261.37
702.25	261.05
702.59	260.73
702.92	260.42
703.26	260.11
703.59	259.78
703.93	259.56
704.26	259.25
704.60	258.93
704.93	258.60
705.26	258.28
705.60	258.03
705.93	257.70
706.27	257.45
706.60	257.19
706.94	256.95
707.27	256.62
707.61	256.30
707.94	255.98
708.27	255.56
708.61	255.20
708.94	254.88
709.28	254.59
709.61	254.30
709.94	254.03
710.28	253.76
710.61	253.51
710.95	253.15
711.28	252.97
711.61	252.71
711.95	252.48
712.28	252.21
712.61	251.92
712.95	251.73
713.28	251.54
713.61	251.25
713.95	250.95
714.28	250.73
714.61	250.48
714.95	250.23
715.28	249.99
715.61	249.77
715.95	249.55
716.28	249.31
716.61	249.12
716.95	248.88
717.28	248.67
717.61	248.43
717.94	248.20
718.28	247.88
718.61	247.66
718.94	247.42
719.27	247.21
719.61	247.03
719.94	246.77
720.27	246.48
720.60	246.28
720.94	246.08
721.27	245.89
721.60	245.70
721.93	245.49
722.27	245.33
722.60	245.15
722.93	244.94
723.26	244.75
723.59	244.52
723.93	244.35
724.26	244.15
724.59	243.96
724.92	243.79
725.25	243.65
725.59	243.47
725.92	243.33
726.25	243.16
726.58	242.98
726.91	242.81
727.24	242.67
727.57	242.50
727.91	242.33
728.24	242.18
728.57	242.02
728.90	241.89
729.23	241.71
729.56	241.61
729.89	241.46
730.22	241.30
730.55	241.15
730.89	241.00
731.22	240.85
731.55	240.70
731.88	240.55
732.21	240.37
732.54	240.23
732.87	240.08
733.20	239.94
733.53	239.80
733.86	239.67
734.19	239.52
734.52	239.40
734.85	239.36
735.18	239.19
735.51	239.10
735.84	238.96
736.17	238.87
736.50	238.66
736.83	238.67
737.16	238.55
737.49	238.43
737.82	238.31
738.15	238.20
738.48	238.09
738.81	237.96
739.14	237.84
739.47	237.72
739.80	237.61
740.13	237.51
740.46	237.37
740.79	237.23
741.12	237.11
741.45	236.97
741.78	236.77
742.11	236.70
742.44	236.55
742.77	236.45
743.10	236.31
743.43	236.20
743.75	235.97
744.08	236.06
744.41	235.95
744.74	235.83
745.07	235.69
745.40	235.60
745.73	235.56
746.06	235.46
746.39	235.38
746.71	235.27
747.04	235.16
747.37	235.07
747.70	234.99
748.03	234.91
748.36	234.84
748.68	234.76
749.01	234.63
749.34	234.54
749.67	234.45
750.00	234.38
750.33	234.39
750.65	234.31
750.98	234.03
751.31	233.95
751.64	233.88
751.97	233.88
752.29	233.79
752.62	233.64
752.95	233.56
753.28	233.45
753.60	233.37
753.93	233.32
754.26	233.26
754.59	233.14
754.91	233.04
755.24	232.96
755.57	232.93
755.90	232.85
756.22	232.78
756.55	232.68
756.88	232.58
757.20	232.41
757.53	232.30
757.86	232.23
758.19	232.16
758.51	232.08
758.84	231.95
759.17	231.86
759.49	231.80
759.82	231.79
760.15	231.75
760.47	231.67
760.80	231.57
761.13	231.51
761.45	231.46
761.78	231.41
762.11	231.35
762.43	231.23
762.76	231.17
763.08	231.12
763.41	231.06
763.74	231.01
764.06	230.95
764.39	230.91
764.71	230.86
765.04	230.80
765.37	230.73
765.69	230.69
766.02	230.65
766.34	230.59
766.67	230.48
767.00	230.44
767.32	230.46
767.65	230.49
767.97	230.42
768.30	230.37
768.62	230.33
768.95	230.26
769.27	230.21
769.60	230.18
769.92	230.10
770.25	230.04
770.57	229.98
770.90	229.94
771.22	229.88
771.55	229.83
771.87	229.79
772.20	229.75
772.52	229.81
772.85	229.92
773.17	229.88
773.50	229.83
773.82	229.77
774.15	229.69
774.47	229.56
774.80	229.52
775.12	229.48
775.45	229.44
775.77	229.41
776.09	229.39
776.42	229.35
776.74	229.35
777.07	229.32
777.39	229.29
777.72	229.24
778.04	229.22
778.36	229.18
778.69	229.15
779.01	229.13
779.33	229.00
779.66	228.82
779.98	228.78
780.31	228.77
780.63	228.80
780.95	228.79
781.28	228.77
781.60	228.73
781.92	228.70
782.25	228.68
782.57	228.65
782.89	228.62
783.22	228.59
783.54	228.53
783.86	228.53
784.19	228.50
784.51	228.51
784.83	228.48
785.16	228.45
785.48	228.43
785.80	228.41
786.12	228.39
786.45	228.37
786.77	228.35
787.09	228.32
787.42	228.25
787.74	228.23
788.06	228.21
788.38	228.19
788.71	228.15
789.03	228.14
789.35	228.13
789.67	228.09
789.99	228.08
790.32	228.05
790.64	228.04
790.96	228.14
791.28	228.07
791.61	228.04
791.93	228.02
792.25	227.98
792.57	228.05
792.89	228.01
793.21	228.00
793.54	227.97
793.86	227.94
794.18	227.93
794.50	227.88
794.82	227.86
795.14	227.86
795.47	227.87
795.79	227.86
796.11	227.82
796.43	227.80
796.75	227.78
797.07	227.76
797.39	227.75
797.71	227.63
798.04	227.61
798.36	227.62
798.68	227.61
799.00	227.61
799.32	227.52
799.64	227.53
799.96	227.51
800.28	227.51
800.60	227.50
800.92	227.49
801.24	227.47
801.56	227.47
801.89	227.45
802.21	227.44
802.53	227.41
802.85	227.41
803.17	227.46
803.49	227.42
803.81	227.41
804.13	227.38
804.45	227.35
804.77	227.36
805.09	227.35
805.41	227.32
805.73	227.29
806.05	227.24
806.37	227.23
806.69	227.19
807.01	227.17
807.33	227.17
807.65	227.11
807.97	227.16
808.28	227.14
808.60	227.13
808.92	227.10
809.24	227.16
809.56	227.12
809.88	227.06
810.20	227.07
810.52	227.08
810.84	227.05
811.16	227.04
811.48	227.02
811.80	227.05
812.12	227.04
812.43	227.05
812.75	227.06
813.07	227.03
813.39	227.04
813.71	227.01
814.03	226.99
814.35	226.98
814.67	226.91
814.98	226.89
815.30	226.87
815.62	226.84
815.94	226.75
816.26	226.75
816.58	226.72
816.89	226.72
817.21	226.68
817.53	226.68
817.85	226.67
818.17	226.66
818.48	226.60
818.80	226.62
819.12	226.60
819.44	226.58
819.76	226.56
820.07	226.54
820.39	226.53
820.71	226.53
821.03	226.53
821.34	226.52
821.66	226.54
821.98	226.54
822.30	226.54
822.61	226.62
822.93	226.59
823.25	226.58
823.57	226.56
823.88	226.57
824.20	226.56
824.52	226.58
824.83	226.57
825.15	226.55
825.47	226.53
825.79	226.54
826.10	226.52
826.42	226.51
826.74	226.53
827.05	226.52
827.37	226.53
827.69	226.50
828.00	226.50
828.32	226.49
828.64	226.47
828.95	226.53
829.27	226.48
829.58	226.48
829.90	226.50
830.22	226.50
830.53	226.47
830.85	226.46
831.17	226.43
831.48	226.43
831.80	226.43
832.11	226.42
832.43	226.40
832.75	226.40
833.06	226.48
833.38	226.43
833.69	226.43
834.01	226.43
834.32	226.43
834.64	226.42
834.96	226.42
835.27	226.42
835.59	226.37
835.90	226.36
836.22	226.35
836.53	226.32
836.85	226.31
837.16	226.43
837.48	226.43
837.79	226.47
838.11	226.47
838.42	226.46
838.74	226.47
839.05	226.45
839.37	226.44
839.68	226.36
840.00	226.35
840.31	226.36
840.63	226.35
840.94	226.33
841.26	226.32
841.57	226.31
841.88	226.31
842.20	226.29
842.51	226.26
842.83	226.25
843.14	226.38
843.46	226.38
843.77	226.29
844.08	226.28
844.40	226.23
844.71	226.21
845.03	226.20
845.34	226.18
845.65	226.17
845.97	226.17
846.28	226.18
846.60	226.19
846.91	226.16
847.22	226.15
847.54	226.18
847.85	226.18
848.16	226.17
848.48	226.14
848.79	226.18
849.10	226.20
849.42	226.20
849.73	226.07
850.04	226.06
850.36	226.02
850.67	226.03
850.98	226.04
851.30	226.05
851.61	226.04
851.92	226.04
852.23	226.07
852.55	226.08
852.86	226.08
853.17	226.07
853.49	226.10
853.80	226.12
854.11	226.13
854.42	226.14
854.74	226.11
855.05	226.12
855.36	226.05
855.67	226.05
855.99	226.05
856.30	226.21
856.61	226.20
856.92	226.19
857.23	226.20
857.55	226.18
857.86	226.18
858.17	226.19
858.48	226.17
858.79	226.15
859.11	226.15
859.42	226.14
859.73	226.13
860.04	226.12
860.35	226.09
860.66	226.04
860.98	226.04
861.29	226.06
861.60	226.05
861.91	226.09
862.22	226.06
862.53	226.03
862.84	225.87
863.16	225.90
863.47	225.88
863.78	225.86
864.09	225.87
864.40	225.86
864.71	225.86
865.02	225.87
865.33	225.84
865.64	225.83
865.95	225.82
866.27	225.89
866.58	225.87
866.89	225.89
867.20	225.88
867.51	225.85
867.82	225.85
868.13	225.87
868.44	225.84
868.75	225.88
869.06	225.89
869.37	225.90
869.68	225.87
869.99	225.89
870.30	225.90
870.61	225.91
870.92	225.90
871.23	225.88
871.54	225.91
871.85	225.94
872.16	225.95
872.47	225.95
872.78	225.88
873.09	225.90
873.40	225.90
873.71	225.92
874.02	225.93
874.33	225.93
874.64	225.91
874.95	225.93
875.26	225.90
875.56	225.90
875.87	225.90
876.18	225.89
876.49	226.01
876.80	226.00
877.11	225.98
877.42	225.98
877.73	225.99
878.04	225.97
878.35	225.97
878.66	225.97
878.96	225.97
879.27	225.96
879.58	225.95
879.89	225.95
880.20	225.97
880.51	225.96
880.82	225.96
881.12	225.97
881.43	225.95
881.74	225.94
882.05	225.94
882.36	225.94
882.67	225.96
882.97	225.83
883.28	225.81
883.59	225.81
883.90	225.83
884.21	225.84
884.51	225.83
884.82	225.81
885.13	225.81
885.44	225.81
885.74	225.81
886.05	225.80
886.36	225.81
886.67	225.76
886.98	225.82
887.28	225.83
887.59	225.82
887.90	225.83
888.20	225.82
888.51	225.84
888.82	225.81
889.13	225.82
889.43	225.94
889.74	225.93
890.05	225.93
890.35	225.91
890.66	225.89
890.97	225.88
891.28	225.87
891.58	225.87
891.89	225.86
892.20	225.85
892.50	225.84
892.81	225.82
893.12	225.82
893.42	225.76
893.73	225.76
894.04	225.75
894.34	225.75
894.65	225.74
894.95	225.73
895.26	225.74
895.57	225.79
895.87	225.65
896.18	225.67
896.48	225.67
896.79	225.68
897.10	225.69
897.40	225.70
897.71	225.71
898.01	225.70
898.32	225.72
898.63	225.71
898.93	225.71
899.24	225.71
899.54	225.70
899.85	225.69
900.15	225.69
900.46	225.69
900.76	225.71
901.07	225.71
901.38	225.71
901.68	225.73
901.99	225.66
902.29	225.67
902.60	225.66
902.90	225.65
903.21	225.64
903.51	225.63
903.82	225.66
904.12	225.65
904.43	225.66
904.73	225.65
905.03	225.66
905.34	225.79
905.64	225.78
905.95	225.79
906.25	225.78
906.56	225.78
906.86	225.77
907.17	225.75
907.47	225.75
907.77	225.74
908.08	225.70
908.38	225.72
908.69	225.73
908.99	225.75
909.30	225.75
909.60	225.76
909.90	225.77
910.21	225.73
910.51	225.72
910.81	225.71
911.12	225.72
911.42	225.71
911.73	225.57
912.03	225.59
912.33	225.61
912.64	225.61
912.94	225.59
913.24	225.58
913.55	225.57
913.85	225.57
914.15	225.58
914.46	225.60
914.76	225.58
915.06	225.56
915.37	225.55
915.67	225.54
915.97	225.54
916.27	225.52
916.58	225.52
916.88	225.52
917.18	225.52
917.49	225.60
917.79	225.60
918.09	225.63
918.39	225.66
918.70	225.65
919.00	225.67
919.30	225.73
919.60	225.73
919.91	225.71
920.21	225.72
920.51	225.70
920.81	225.68
921.12	225.71
921.42	225.71
921.72	225.70
922.02	225.70
922.32	225.72
922.63	225.73
922.93	225.79
923.23	225.79
923.53	225.79
923.83	225.71
924.13	225.72
924.44	225.71
924.74	225.73
925.04	225.75
925.34	225.72
925.64	225.67
925.94	225.67
926.24	225.75
926.55	225.74
926.85	225.76
927.15	225.76
927.45	225.75
927.75	225.75
928.05	225.75
928.35	225.75
928.65	225.76
928.95	225.77
929.26	225.72
929.56	225.73
929.86	225.75
930.16	225.74
930.46	225.72
930.76	225.72
931.06	225.66
931.36	225.62
931.66	225.65
931.96	225.66
932.26	225.66
932.56	225.60
932.86	225.60
933.16	225.59
933.46	225.58
933.76	225.57
934.06	225.60
934.36	225.65
934.66	225.64
934.96	225.63
935.26	225.63
935.56	225.64
935.86	225.61
936.16	225.58
936.46	225.57
936.76	225.58
937.06	225.56
937.36	225.57
937.66	225.58
937.96	225.57
938.26	225.56
938.56	225.54
938.86	225.54
939.16	225.57
939.46	225.58
939.76	225.59
940.06	225.59
940.35	225.56
940.65	225.49
940.95	225.49
941.25	225.45
941.55	225.42
941.85	225.42
942.15	225.45
942.45	225.49
942.75	225.48
943.04	225.48
943.34	225.51
943.64	225.49
943.94	225.47
944.24	225.47
944.54	225.47
944.84	225.47
945.13	225.46
945.43	225.44
945.73	225.42
946.03	225.41
946.33	225.39
946.62	225.39
946.92	225.38
947.22	225.40
947.52	225.41
947.82	225.43
948.11	225.42
948.41	225.38
948.71	225.35
949.01	225.36
949.31	225.35
949.60	225.34
949.90	225.36
950.20	225.36
950.50	225.35
950.79	225.35
951.09	225.37
951.39	225.37
951.69	225.36
951.98	225.38
952.28	225.40
952.58	225.40
952.87	225.40
953.17	225.43
953.47	225.40
953.76	225.40
954.06	225.38
954.36	225.36
954.66	225.36
954.95	225.40
955.25	225.40
955.55	225.40
955.84	225.38
956.14	225.38
956.44	225.40
956.73	225.39
957.03	225.39
957.32	225.40
957.62	225.39
957.92	225.42
958.21	225.41
958.51	225.56
958.81	225.58
959.10	225.60
959.40	225.62
959.69	225.63
959.99	225.65
960.29	225.65
960.58	225.65
960.88	225.70
961.17	225.68
961.47	225.70
961.76	225.69
962.06	225.72
962.36	225.70
962.65	225.69
962.95	225.71
963.24	225.70
963.54	225.69
963.83	225.71
964.13	225.70
964.42	225.69
964.72	225.57
965.01	225.57
965.31	225.56
965.60	225.53
965.90	225.62
966.19	225.58
966.49	225.59
966.78	225.59
967.08	225.58
967.37	225.58
967.67	225.55
967.96	225.58
968.26	225.57
968.55	225.59
968.85	225.59
969.14	225.58
969.43	225.58
969.73	225.58
970.02	225.57
970.32	225.56
970.61	225.54
970.91	225.51
971.20	225.49
971.49	225.49
971.79	225.50
972.08	225.42
972.38	225.44
972.67	225.44
972.96	225.45
973.26	225.42
973.55	225.46
973.85	225.46
974.14	225.45
974.43	225.46
974.73	225.44
975.02	225.43
975.31	225.44
975.61	225.43
975.90	225.41
976.19	225.40
976.49	225.41
976.78	225.43
977.07	225.43
977.37	225.44
977.66	225.45
977.95	225.42
978.24	225.41
978.54	225.44
978.83	225.44
979.12	225.43
979.42	225.43
979.71	225.40
980.00	225.40
980.29	225.40
980.59	225.37
980.88	225.42
981.17	225.42
981.46	225.41
981.76	225.42
982.05	225.46
982.34	225.48
982.63	225.47
982.93	225.46
983.22	225.50
983.51	225.51
983.80	225.53
984.09	225.55
984.39	225.55
984.68	225.53
984.97	225.52
985.26	225.51
985.55	225.52
985.85	225.50
986.14	225.53
986.43	225.54
986.72	225.53
987.01	225.49
987.30	225.49
987.59	225.49
987.89	225.50
988.18	225.46
988.47	225.44
988.76	225.44
989.05	225.44
989.34	225.42
989.63	225.44
989.92	225.42
990.22	225.40
990.51	225.39
990.80	225.39
991.09	225.39
991.38	225.41
991.67	225.41
991.96	225.40
992.25	225.39
992.54	225.37
992.83	225.38
993.12	225.37
993.41	225.39
993.70	225.44
993.99	225.45
994.28	225.46
994.58	225.48
994.87	225.48
995.16	225.48
995.45	225.47
995.74	225.43
996.03	225.45
996.32	225.48
996.61	225.51
996.90	225.50
997.19	225.50
997.48	225.50
997.77	225.48
998.06	225.48
998.34	225.48
998.63	225.48
998.92	225.48
999.21	225.50
999.50	225.50
999.79	225.45
1000.08	225.45
1000.37	225.45
1000.66	225.43
1000.95	225.46
1001.24	225.46
1001.53	225.48
1001.82	225.47
1002.11	225.44
1002.40	225.44
1002.68	225.47
1002.97	225.56
1003.26	225.54
1003.55	225.52
1003.84	225.54
1004.13	225.58
1004.42	225.57
1004.71	225.58
1004.99	225.55
1005.28	225.58
1005.57	225.57
1005.86	225.56
1006.15	225.56
1006.44	225.54
1006.72	225.56
1007.01	225.53
1007.30	225.52
1007.59	225.51
1007.88	225.51
1008.17	225.53
1008.45	225.49
1008.74	225.44
1009.03	225.38
1009.32	225.38
1009.60	225.38
1009.89	225.37
1010.18	225.33
1010.47	225.32
1010.76	225.31
1011.04	225.32
1011.33	225.33
1011.62	225.35
1011.91	225.36
1012.19	225.36
1012.48	225.36
1012.77	225.36
1013.05	225.40
1013.34	225.41
1013.63	225.40
1013.92	225.40
1014.20	225.39
1014.49	225.41
1014.78	225.42
1015.06	225.38
1015.35	225.38
1015.64	225.41
1015.92	225.43
1016.21	225.44
1016.50	225.46
1016.78	225.47
1017.07	225.48
1017.36	225.45
1017.64	225.43
1017.93	225.44
1018.22	225.43
1018.50	225.43
1018.79	225.43
1019.08	225.39
1019.36	225.39
1019.65	225.39
1019.93	225.43
1020.22	225.44
1020.51	225.50
1020.79	225.48
1021.08	225.14
1021.36	225.22
1021.65	225.46
1021.94	225.35
1022.22	225.30
1022.51	225.25
1022.79	226.05
1023.08	225.50
1023.36	226.87
1023.65	225.08
>>>>>End Processed Spectral Data<<<<<
