SpectraSuite Data File
++++++++++++++++++++++++++++++++++++
Date: Sat Oct 03 07:00:48 EDT 2015
User: lab3
Dark Spectrum Present: No
Reference Spectrum Present: No
Number of Sampled Component Spectra: 1
Spectrometers: USB2E7196
Integration Time (usec): 46000 (USB2E7196)
Spectra Averaged: 12000 (USB2E7196)
Boxcar Smoothing: 10 (USB2E7196)
Correct for Electrical Dark: No (USB2E7196)
Strobe/Lamp Enabled: No (USB2E7196)
Correct for Detector Non-linearity: No (USB2E7196)
Correct for Stray Light: No (USB2E7196)
Number of Pixels in Processed Spectrum: 2048
>>>>>Begin Processed Spectral Data<<<<<
339.09	0.00
339.48	213.62
339.86	215.07
340.24	216.42
340.63	217.84
341.01	221.20
341.39	220.56
341.78	221.95
342.16	223.18
342.54	223.59
342.93	212.07
343.31	222.79
343.69	223.33
344.07	223.79
344.46	224.23
344.84	224.62
345.22	224.84
345.60	225.10
345.99	225.30
346.37	225.43
346.75	225.54
347.13	225.62
347.52	225.69
347.90	225.79
348.28	225.83
348.66	225.89
349.05	225.88
349.43	225.93
349.81	225.99
350.19	226.05
350.57	226.12
350.96	226.20
351.34	226.29
351.72	226.38
352.10	226.49
352.48	226.56
352.87	226.61
353.25	226.68
353.63	226.74
354.01	226.80
354.39	226.87
354.77	226.95
355.15	227.05
355.54	227.10
355.92	227.12
356.30	227.20
356.68	227.35
357.06	227.42
357.44	227.47
357.82	227.53
358.20	227.65
358.58	227.71
358.97	227.77
359.35	227.85
359.73	227.93
360.11	227.98
360.49	228.04
360.87	228.08
361.25	228.15
361.63	228.24
362.01	228.29
362.39	228.32
362.77	228.37
363.15	228.39
363.53	228.42
363.91	228.46
364.29	228.48
364.67	228.38
365.05	228.40
365.43	228.44
365.81	228.47
366.19	228.48
366.57	228.54
366.95	228.54
367.33	228.51
367.71	228.51
368.09	228.53
368.47	228.52
368.85	228.51
369.23	228.52
369.61	228.46
369.99	228.48
370.37	228.47
370.75	228.54
371.13	228.51
371.51	228.47
371.89	228.45
372.27	228.43
372.65	228.41
373.03	228.37
373.41	228.32
373.78	228.27
374.16	228.17
374.54	228.08
374.92	228.03
375.30	227.99
375.68	227.92
376.06	227.88
376.44	227.82
376.82	227.78
377.19	227.73
377.57	227.68
377.95	227.59
378.33	227.53
378.71	227.36
379.09	227.32
379.47	227.29
379.84	227.22
380.22	227.16
380.60	227.09
380.98	227.04
381.36	226.99
381.73	226.93
382.11	226.90
382.49	226.86
382.87	226.80
383.25	226.76
383.62	226.86
384.00	226.79
384.38	226.76
384.76	226.74
385.13	226.74
385.51	226.70
385.89	226.65
386.27	226.62
386.64	226.61
387.02	226.55
387.40	226.50
387.78	226.48
388.15	226.46
388.53	226.43
388.91	226.40
389.29	226.36
389.66	226.36
390.04	226.32
390.42	226.32
390.79	226.31
391.17	226.29
391.55	226.13
391.92	226.12
392.30	226.13
392.68	226.09
393.05	226.06
393.43	226.06
393.81	226.07
394.18	226.05
394.56	226.05
394.94	226.09
395.31	226.09
395.69	226.14
396.06	226.17
396.44	226.19
396.82	226.21
397.19	226.30
397.57	226.31
397.95	226.36
398.32	226.35
398.70	226.40
399.07	226.47
399.45	226.51
399.82	226.56
400.20	226.60
400.58	226.66
400.95	226.67
401.33	226.76
401.70	226.92
402.08	227.02
402.45	227.11
402.83	227.23
403.20	227.35
403.58	227.44
403.95	227.58
404.33	227.73
404.71	227.88
405.08	228.09
405.46	228.26
405.83	228.45
406.21	228.65
406.58	228.87
406.96	229.09
407.33	229.34
407.70	229.63
408.08	230.02
408.45	230.36
408.83	230.72
409.20	231.06
409.58	231.35
409.95	231.76
410.33	232.21
410.70	232.62
411.08	233.12
411.45	233.64
411.82	234.17
412.20	234.78
412.57	235.51
412.95	236.07
413.32	236.81
413.69	237.57
414.07	238.37
414.44	239.25
414.82	240.14
415.19	241.19
415.56	242.26
415.94	243.35
416.31	244.59
416.68	245.82
417.06	247.25
417.43	248.60
417.81	250.15
418.18	251.72
418.55	253.44
418.93	255.22
419.30	257.09
419.67	259.07
420.04	261.09
420.42	263.21
420.79	265.66
421.16	268.13
421.54	270.65
421.91	273.28
422.28	276.00
422.66	278.94
423.03	281.74
423.40	284.67
423.77	287.82
424.15	291.04
424.52	294.40
424.89	298.03
425.26	301.65
425.64	305.00
426.01	308.78
426.38	312.65
426.75	316.63
427.13	320.72
427.50	325.00
427.87	329.44
428.24	333.94
428.61	338.24
428.99	342.90
429.36	348.02
429.73	352.90
430.10	357.80
430.47	362.80
430.85	367.95
431.22	373.48
431.59	379.16
431.96	384.71
432.33	390.87
432.70	396.74
433.08	403.66
433.45	410.20
433.82	416.66
434.19	423.86
434.56	430.96
434.93	437.82
435.30	444.60
435.68	452.26
436.05	459.77
436.42	467.25
436.79	474.08
437.16	481.45
437.53	489.33
437.90	497.23
438.27	504.95
438.64	513.30
439.01	520.86
439.38	527.78
439.75	534.44
440.13	541.94
440.50	549.08
440.87	554.74
441.24	560.95
441.61	567.70
441.98	572.62
442.35	578.45
442.72	584.40
443.09	590.06
443.46	593.62
443.83	596.22
444.20	598.36
444.57	601.60
444.94	603.40
445.31	605.27
445.68	606.84
446.05	607.96
446.42	607.50
446.79	606.84
447.16	606.25
447.53	605.69
447.90	603.18
448.27	600.76
448.64	597.16
449.01	594.62
449.37	589.68
449.74	585.21
450.11	579.47
450.48	573.20
450.85	566.94
451.22	561.59
451.59	556.37
451.96	551.65
452.33	544.81
452.70	538.75
453.07	531.36
453.43	524.00
453.80	516.86
454.17	510.01
454.54	503.73
454.91	496.63
455.28	489.99
455.65	483.73
456.02	477.14
456.38	471.83
456.75	464.99
457.12	459.50
457.49	453.95
457.86	448.74
458.23	444.18
458.59	439.13
458.96	433.94
459.33	429.38
459.70	424.74
460.07	421.22
460.43	417.08
460.80	413.21
461.17	409.87
461.54	406.21
461.91	402.82
462.27	399.36
462.64	396.58
463.01	393.36
463.38	390.12
463.74	387.19
464.11	384.62
464.48	382.31
464.85	379.79
465.21	377.89
465.58	375.76
465.95	373.29
466.32	371.35
466.68	369.44
467.05	367.51
467.42	365.64
467.78	363.60
468.15	361.72
468.52	360.37
468.88	358.52
469.25	356.85
469.62	355.51
469.98	354.06
470.35	352.75
470.72	351.58
471.08	350.38
471.45	349.37
471.82	348.24
472.18	347.04
472.55	346.27
472.92	345.29
473.28	344.53
473.65	343.71
474.02	342.93
474.38	342.26
474.75	341.87
475.11	341.33
475.48	341.07
475.85	340.78
476.21	340.62
476.58	340.51
476.94	340.63
477.31	340.68
477.67	340.75
478.04	340.94
478.41	341.21
478.77	341.63
479.14	341.88
479.50	342.38
479.87	343.03
480.23	343.69
480.60	344.34
480.96	344.99
481.33	345.97
481.69	346.94
482.06	347.91
482.42	348.80
482.79	349.90
483.15	351.18
483.52	352.64
483.88	354.05
484.25	355.55
484.61	357.11
484.98	358.80
485.34	360.71
485.71	362.70
486.07	364.83
486.44	366.95
486.80	369.33
487.17	371.79
487.53	374.49
487.90	377.31
488.26	380.39
488.62	383.63
488.99	386.87
489.35	390.28
489.72	393.98
490.08	397.87
490.44	401.90
490.81	406.09
491.17	410.38
491.54	414.99
491.90	419.75
492.26	424.84
492.63	430.17
492.99	435.73
493.36	441.48
493.72	447.54
494.08	453.76
494.45	460.36
494.81	467.21
495.17	474.24
495.54	481.67
495.90	489.40
496.26	497.31
496.63	505.47
496.99	513.93
497.35	522.80
497.72	531.96
498.08	541.31
498.44	550.99
498.80	561.25
499.17	571.77
499.53	582.61
499.89	593.83
500.26	605.28
500.62	617.02
500.98	629.39
501.34	641.96
501.71	655.03
502.07	668.29
502.43	682.10
502.79	696.13
503.16	710.63
503.52	725.32
503.88	740.43
504.24	756.02
504.60	771.81
504.97	788.09
505.33	804.79
505.69	822.41
506.05	840.36
506.41	858.24
506.78	876.32
507.14	894.90
507.50	913.94
507.86	933.32
508.22	952.92
508.59	972.37
508.95	992.61
509.31	1013.60
509.67	1035.30
510.03	1057.00
510.39	1078.75
510.75	1100.69
511.12	1122.92
511.48	1145.34
511.84	1167.79
512.20	1190.62
512.56	1214.33
512.92	1238.07
513.28	1261.43
513.64	1285.04
514.00	1309.12
514.37	1333.50
514.73	1357.87
515.09	1382.13
515.45	1406.70
515.81	1431.47
516.17	1456.38
516.53	1480.83
516.89	1505.15
517.25	1529.64
517.61	1554.00
517.97	1578.84
518.33	1603.20
518.69	1627.47
519.05	1652.20
519.41	1677.22
519.77	1702.54
520.13	1727.06
520.49	1751.51
520.85	1776.26
521.21	1800.63
521.57	1825.35
521.93	1849.56
522.29	1874.32
522.65	1898.50
523.01	1922.70
523.37	1946.48
523.73	1970.95
524.09	1995.16
524.45	2019.18
524.81	2042.79
525.17	2066.29
525.53	2089.22
525.89	2112.59
526.25	2135.92
526.61	2158.28
526.97	2180.80
527.33	2203.17
527.68	2225.32
528.04	2246.67
528.40	2267.15
528.76	2287.76
529.12	2307.96
529.48	2327.88
529.84	2345.92
530.20	2364.61
530.56	2382.67
530.91	2400.89
531.27	2418.77
531.63	2435.76
531.99	2452.25
532.35	2468.12
532.71	2484.13
533.07	2500.82
533.42	2515.68
533.78	2531.53
534.14	2547.54
534.50	2562.65
534.86	2577.51
535.21	2590.47
535.57	2603.92
535.93	2617.12
536.29	2629.26
536.65	2641.14
537.00	2652.29
537.36	2664.42
537.72	2675.14
538.08	2685.38
538.44	2694.92
538.79	2704.07
539.15	2712.45
539.51	2720.50
539.87	2727.91
540.22	2733.25
540.58	2738.63
540.94	2745.20
541.29	2750.25
541.65	2753.58
542.01	2756.04
542.37	2757.88
542.72	2761.05
543.08	2762.53
543.44	2764.62
543.79	2765.61
544.15	2765.80
544.51	2766.40
544.87	2765.85
545.22	2764.61
545.58	2762.68
545.94	2760.72
546.29	2757.47
546.65	2754.18
547.01	2750.78
547.36	2748.10
547.72	2745.65
548.07	2741.43
548.43	2735.78
548.79	2729.09
549.14	2723.68
549.50	2718.64
549.86	2712.65
550.21	2705.48
550.57	2699.30
550.92	2690.83
551.28	2682.93
551.64	2675.36
551.99	2667.33
552.35	2658.71
552.70	2650.26
553.06	2642.17
553.41	2633.46
553.77	2624.50
554.13	2615.53
554.48	2605.77
554.84	2594.72
555.19	2584.11
555.55	2573.55
555.90	2563.02
556.26	2553.11
556.61	2542.12
556.97	2529.47
557.32	2517.35
557.68	2505.17
558.03	2492.69
558.39	2481.41
558.74	2470.42
559.10	2457.69
559.45	2445.17
559.81	2433.28
560.16	2420.80
560.52	2408.52
560.87	2396.64
561.23	2383.94
561.58	2371.28
561.94	2358.28
562.29	2344.78
562.64	2331.95
563.00	2318.84
563.35	2306.13
563.71	2293.24
564.06	2280.24
564.42	2267.98
564.77	2255.11
565.12	2242.14
565.48	2229.18
565.83	2216.15
566.19	2203.26
566.54	2190.37
566.89	2176.34
567.25	2162.41
567.60	2149.86
567.96	2136.38
568.31	2121.58
568.66	2107.48
569.02	2094.59
569.37	2081.62
569.72	2069.13
570.08	2055.42
570.43	2041.37
570.78	2027.18
571.14	2012.24
571.49	1997.92
571.84	1984.16
572.20	1969.20
572.55	1954.46
572.90	1939.67
573.26	1924.87
573.61	1909.59
573.96	1894.74
574.31	1880.11
574.67	1865.59
575.02	1849.99
575.37	1834.51
575.72	1819.82
576.08	1805.48
576.43	1789.99
576.78	1774.92
577.13	1760.13
577.49	1745.68
577.84	1731.85
578.19	1717.06
578.54	1702.48
578.90	1687.41
579.25	1672.23
579.60	1658.60
579.95	1644.90
580.30	1630.99
580.66	1616.85
581.01	1602.59
581.36	1588.29
581.71	1575.02
582.06	1561.67
582.42	1548.52
582.77	1535.45
583.12	1522.35
583.47	1509.09
583.82	1495.97
584.17	1482.51
584.53	1468.72
584.88	1455.31
585.23	1441.44
585.58	1428.38
585.93	1415.53
586.28	1403.44
586.63	1391.31
586.98	1378.76
587.34	1366.27
587.69	1353.45
588.04	1340.98
588.39	1328.88
588.74	1316.95
589.09	1304.79
589.44	1292.17
589.79	1280.21
590.14	1268.35
590.49	1256.43
590.84	1244.69
591.19	1233.30
591.54	1221.74
591.89	1210.31
592.25	1199.05
592.60	1187.46
592.95	1176.27
593.30	1165.29
593.65	1154.00
594.00	1142.87
594.35	1132.26
594.70	1121.22
595.05	1111.10
595.40	1100.88
595.75	1090.50
596.10	1080.66
596.45	1070.53
596.80	1060.77
597.15	1050.70
597.50	1040.81
597.85	1031.35
598.19	1021.68
598.54	1012.06
598.89	1002.91
599.24	994.08
599.59	985.06
599.94	976.96
600.29	968.64
600.64	960.06
600.99	951.10
601.34	942.49
601.69	933.57
602.04	925.33
602.39	916.90
602.74	908.54
603.08	900.14
603.43	891.68
603.78	883.41
604.13	875.30
604.48	867.22
604.83	859.30
605.18	851.27
605.53	843.41
605.87	835.38
606.22	827.65
606.57	819.85
606.92	812.00
607.27	804.05
607.62	796.42
607.96	789.20
608.31	782.43
608.66	775.45
609.01	768.74
609.36	762.13
609.70	755.32
610.05	748.46
610.40	741.89
610.75	735.30
611.10	729.06
611.44	722.65
611.79	716.34
612.14	709.97
612.49	703.67
612.83	697.68
613.18	691.82
613.53	685.86
613.88	679.94
614.22	674.40
614.57	668.82
614.92	663.10
615.27	657.47
615.61	651.89
615.96	646.37
616.31	640.86
616.65	635.40
617.00	630.15
617.35	625.02
617.70	619.93
618.04	614.90
618.39	609.79
618.74	604.93
619.08	600.11
619.43	595.42
619.78	590.73
620.12	586.01
620.47	581.45
620.82	577.01
621.16	572.60
621.51	568.07
621.85	563.58
622.20	559.25
622.55	554.95
622.89	550.75
623.24	546.54
623.59	542.37
623.93	538.36
624.28	534.44
624.62	530.61
624.97	526.82
625.32	523.00
625.66	519.13
626.01	515.23
626.35	511.42
626.70	507.64
627.04	504.04
627.39	500.39
627.73	496.90
628.08	493.48
628.43	490.05
628.77	486.72
629.12	483.51
629.46	480.32
629.81	477.04
630.15	473.75
630.50	470.56
630.84	467.44
631.19	464.38
631.53	461.42
631.88	458.42
632.22	455.45
632.57	452.76
632.91	450.12
633.26	447.55
633.60	445.00
633.95	442.51
634.29	439.93
634.64	437.42
634.98	434.72
635.32	432.17
635.67	429.82
636.01	427.40
636.36	425.01
636.70	422.76
637.05	420.52
637.39	418.32
637.73	416.14
638.08	414.08
638.42	411.97
638.77	409.75
639.11	407.46
639.45	405.26
639.80	403.00
640.14	400.84
640.49	398.69
640.83	396.50
641.17	394.40
641.52	392.36
641.86	390.34
642.20	388.53
642.55	386.56
642.89	384.61
643.23	382.76
643.58	381.06
643.92	379.24
644.26	377.48
644.61	375.78
644.95	374.04
645.29	372.21
645.64	370.42
645.98	368.72
646.32	367.15
646.66	365.56
647.01	363.98
647.35	362.45
647.69	360.90
648.04	359.49
648.38	358.00
648.72	356.53
649.06	355.06
649.41	353.60
649.75	352.20
650.09	350.82
650.43	349.44
650.78	348.01
651.12	346.63
651.46	345.30
651.80	343.99
652.14	342.70
652.49	341.48
652.83	340.23
653.17	339.01
653.51	337.84
653.85	336.72
654.20	335.55
654.54	334.32
654.88	333.17
655.22	332.04
655.56	330.91
655.90	329.83
656.25	328.80
656.59	327.74
656.93	326.75
657.27	325.77
657.61	324.73
657.95	323.74
658.29	322.74
658.64	321.80
658.98	320.84
659.32	319.91
659.66	319.03
660.00	318.18
660.34	317.32
660.68	316.43
661.02	315.52
661.36	314.64
661.70	313.81
662.05	312.99
662.39	312.17
662.73	311.44
663.07	310.71
663.41	309.94
663.75	309.17
664.09	308.40
664.43	307.60
664.77	306.88
665.11	306.12
665.45	305.43
665.79	304.74
666.13	304.02
666.47	303.29
666.81	302.54
667.15	301.77
667.49	301.10
667.83	300.49
668.17	299.85
668.51	299.26
668.85	298.68
669.19	298.15
669.53	297.51
669.87	296.87
670.21	296.25
670.55	295.66
670.89	295.16
671.23	294.60
671.57	294.07
671.91	293.57
672.25	293.10
672.58	292.63
672.92	292.07
673.26	291.60
673.60	291.13
673.94	290.68
674.28	290.26
674.62	289.80
674.96	289.29
675.30	288.84
675.64	288.36
675.97	287.86
676.31	287.34
676.65	286.87
676.99	286.47
677.33	285.99
677.67	285.55
678.01	285.04
678.34	284.60
678.68	284.20
679.02	283.72
679.36	283.27
679.70	282.81
680.04	282.40
680.37	281.98
680.71	281.57
681.05	281.18
681.39	280.75
681.73	280.30
682.06	279.88
682.40	279.46
682.74	279.10
683.08	278.79
683.42	278.41
683.75	278.07
684.09	277.64
684.43	277.28
684.77	276.90
685.10	276.58
685.44	276.23
685.78	275.87
686.12	275.54
686.45	275.19
686.79	274.81
687.13	274.48
687.46	274.10
687.80	273.76
688.14	273.36
688.48	273.03
688.81	272.69
689.15	272.38
689.49	272.02
689.82	271.66
690.16	271.24
690.50	270.90
690.83	270.55
691.17	270.20
691.51	269.86
691.84	269.54
692.18	269.18
692.52	268.81
692.85	268.46
693.19	268.16
693.52	267.83
693.86	267.50
694.20	267.17
694.53	266.86
694.87	266.51
695.21	266.18
695.54	265.86
695.88	265.52
696.21	265.16
696.55	264.85
696.88	264.53
697.22	264.22
697.56	263.90
697.89	263.54
698.23	263.23
698.56	262.90
698.90	262.58
699.23	262.25
699.57	261.94
699.90	261.61
700.24	261.26
700.58	260.98
700.91	260.71
701.25	260.52
701.58	260.28
701.92	260.03
702.25	259.75
702.59	259.45
702.92	259.17
703.26	258.89
703.59	258.58
703.93	258.39
704.26	258.12
704.60	257.83
704.93	257.55
705.26	257.26
705.60	257.02
705.93	256.71
706.27	256.48
706.60	256.25
706.94	256.03
707.27	255.73
707.61	255.45
707.94	255.14
708.27	254.75
708.61	254.42
708.94	254.12
709.28	253.86
709.61	253.59
709.94	253.35
710.28	253.11
710.61	252.89
710.95	252.54
711.28	252.38
711.61	252.14
711.95	251.93
712.28	251.68
712.61	251.42
712.95	251.26
713.28	251.09
713.61	250.82
713.95	250.54
714.28	250.33
714.61	250.09
714.95	249.87
715.28	249.65
715.61	249.44
715.95	249.24
716.28	249.03
716.61	248.86
716.95	248.63
717.28	248.41
717.61	248.19
717.94	247.98
718.28	247.68
718.61	247.46
718.94	247.24
719.27	247.04
719.61	246.86
719.94	246.62
720.27	246.34
720.60	246.15
720.94	245.96
721.27	245.78
721.60	245.61
721.93	245.42
722.27	245.27
722.60	245.10
722.93	244.90
723.26	244.71
723.59	244.49
723.93	244.32
724.26	244.15
724.59	243.96
724.92	243.80
725.25	243.68
725.59	243.51
725.92	243.37
726.25	243.20
726.58	243.03
726.91	242.86
727.24	242.72
727.57	242.56
727.91	242.39
728.24	242.25
728.57	242.08
728.90	241.94
729.23	241.74
729.56	241.64
729.89	241.48
730.22	241.32
730.55	241.17
730.89	241.02
731.22	240.87
731.55	240.72
731.88	240.57
732.21	240.39
732.54	240.25
732.87	240.10
733.20	239.97
733.53	239.84
733.86	239.71
734.19	239.55
734.52	239.44
734.85	239.39
735.18	239.23
735.51	239.13
735.84	239.00
736.17	238.91
736.50	238.72
736.83	238.75
737.16	238.63
737.49	238.52
737.82	238.39
738.15	238.30
738.48	238.18
738.81	238.06
739.14	237.93
739.47	237.80
739.80	237.68
740.13	237.57
740.46	237.43
740.79	237.30
741.12	237.18
741.45	237.04
741.78	236.85
742.11	236.78
742.44	236.63
742.77	236.53
743.10	236.40
743.43	236.29
743.75	236.05
744.08	236.14
744.41	236.02
744.74	235.91
745.07	235.78
745.40	235.70
745.73	235.65
746.06	235.56
746.39	235.48
746.71	235.38
747.04	235.27
747.37	235.18
747.70	235.11
748.03	235.03
748.36	234.96
748.68	234.87
749.01	234.74
749.34	234.65
749.67	234.56
750.00	234.49
750.33	234.49
750.65	234.42
750.98	234.14
751.31	234.05
751.64	233.98
751.97	233.96
752.29	233.86
752.62	233.72
752.95	233.63
753.28	233.53
753.60	233.44
753.93	233.38
754.26	233.31
754.59	233.18
754.91	233.08
755.24	232.99
755.57	232.97
755.90	232.89
756.22	232.79
756.55	232.69
756.88	232.59
757.20	232.42
757.53	232.31
757.86	232.24
758.19	232.17
758.51	232.09
758.84	231.95
759.17	231.87
759.49	231.81
759.82	231.79
760.15	231.74
760.47	231.67
760.80	231.57
761.13	231.52
761.45	231.47
761.78	231.40
762.11	231.35
762.43	231.22
762.76	231.16
763.08	231.12
763.41	231.07
763.74	231.02
764.06	230.96
764.39	230.91
764.71	230.86
765.04	230.79
765.37	230.72
765.69	230.67
766.02	230.61
766.34	230.55
766.67	230.45
767.00	230.42
767.32	230.44
767.65	230.47
767.97	230.40
768.30	230.36
768.62	230.32
768.95	230.25
769.27	230.20
769.60	230.17
769.92	230.09
770.25	230.02
770.57	229.96
770.90	229.91
771.22	229.86
771.55	229.81
771.87	229.78
772.20	229.73
772.52	229.80
772.85	229.91
773.17	229.88
773.50	229.83
773.82	229.77
774.15	229.66
774.47	229.54
774.80	229.49
775.12	229.45
775.45	229.41
775.77	229.38
776.09	229.36
776.42	229.32
776.74	229.33
777.07	229.30
777.39	229.27
777.72	229.23
778.04	229.22
778.36	229.17
778.69	229.14
779.01	229.12
779.33	228.98
779.66	228.80
779.98	228.77
780.31	228.75
780.63	228.77
780.95	228.77
781.28	228.74
781.60	228.71
781.92	228.68
782.25	228.66
782.57	228.63
782.89	228.59
783.22	228.56
783.54	228.50
783.86	228.49
784.19	228.46
784.51	228.47
784.83	228.43
785.16	228.41
785.48	228.39
785.80	228.36
786.12	228.35
786.45	228.33
786.77	228.31
787.09	228.28
787.42	228.21
787.74	228.19
788.06	228.18
788.38	228.15
788.71	228.13
789.03	228.11
789.35	228.11
789.67	228.07
789.99	228.06
790.32	228.03
790.64	228.02
790.96	228.12
791.28	228.05
791.61	228.03
791.93	228.01
792.25	227.99
792.57	228.06
792.89	228.02
793.21	228.01
793.54	227.98
793.86	227.95
794.18	227.94
794.50	227.89
794.82	227.87
795.14	227.87
795.47	227.87
795.79	227.86
796.11	227.81
796.43	227.79
796.75	227.77
797.07	227.76
797.39	227.73
797.71	227.61
798.04	227.61
798.36	227.60
798.68	227.58
799.00	227.57
799.32	227.50
799.64	227.50
799.96	227.48
800.28	227.49
800.60	227.47
800.92	227.47
801.24	227.44
801.56	227.44
801.89	227.41
802.21	227.40
802.53	227.36
802.85	227.38
803.17	227.42
803.49	227.38
803.81	227.36
804.13	227.33
804.45	227.31
804.77	227.30
805.09	227.29
805.41	227.27
805.73	227.23
806.05	227.18
806.37	227.16
806.69	227.13
807.01	227.10
807.33	227.10
807.65	227.04
807.97	227.09
808.28	227.06
808.60	227.05
808.92	227.01
809.24	227.09
809.56	227.05
809.88	227.00
810.20	226.99
810.52	227.01
810.84	226.99
811.16	226.96
811.48	226.94
811.80	226.97
812.12	226.96
812.43	226.98
812.75	226.98
813.07	226.96
813.39	226.96
813.71	226.94
814.03	226.92
814.35	226.92
814.67	226.85
814.98	226.83
815.30	226.82
815.62	226.79
815.94	226.70
816.26	226.70
816.58	226.67
816.89	226.67
817.21	226.63
817.53	226.63
817.85	226.63
818.17	226.62
818.48	226.56
818.80	226.58
819.12	226.55
819.44	226.52
819.76	226.50
820.07	226.48
820.39	226.48
820.71	226.48
821.03	226.47
821.34	226.46
821.66	226.46
821.98	226.48
822.30	226.46
822.61	226.53
822.93	226.50
823.25	226.50
823.57	226.48
823.88	226.49
824.20	226.48
824.52	226.49
824.83	226.47
825.15	226.46
825.47	226.44
825.79	226.44
826.10	226.43
826.42	226.42
826.74	226.43
827.05	226.42
827.37	226.41
827.69	226.40
828.00	226.40
828.32	226.39
828.64	226.37
828.95	226.43
829.27	226.38
829.58	226.38
829.90	226.40
830.22	226.41
830.53	226.38
830.85	226.37
831.17	226.32
831.48	226.32
831.80	226.32
832.11	226.31
832.43	226.28
832.75	226.28
833.06	226.35
833.38	226.31
833.69	226.30
834.01	226.30
834.32	226.29
834.64	226.27
834.96	226.27
835.27	226.26
835.59	226.21
835.90	226.19
836.22	226.18
836.53	226.15
836.85	226.13
837.16	226.25
837.48	226.25
837.79	226.30
838.11	226.30
838.42	226.29
838.74	226.31
839.05	226.29
839.37	226.28
839.68	226.20
840.00	226.19
840.31	226.21
840.63	226.19
840.94	226.18
841.26	226.17
841.57	226.16
841.88	226.17
842.20	226.16
842.51	226.13
842.83	226.13
843.14	226.25
843.46	226.24
843.77	226.16
844.08	226.15
844.40	226.11
844.71	226.09
845.03	226.08
845.34	226.06
845.65	226.06
845.97	226.06
846.28	226.07
846.60	226.07
846.91	226.05
847.22	226.04
847.54	226.07
847.85	226.07
848.16	226.06
848.48	226.03
848.79	226.08
849.10	226.10
849.42	226.10
849.73	225.97
850.04	225.97
850.36	225.93
850.67	225.95
850.98	225.95
851.30	225.96
851.61	225.95
851.92	225.95
852.23	225.99
852.55	225.99
852.86	226.00
853.17	226.00
853.49	226.03
853.80	226.05
854.11	226.05
854.42	226.06
854.74	226.05
855.05	226.05
855.36	225.98
855.67	225.98
855.99	225.97
856.30	226.12
856.61	226.12
856.92	226.12
857.23	226.12
857.55	226.10
857.86	226.09
858.17	226.11
858.48	226.08
858.79	226.05
859.11	226.06
859.42	226.05
859.73	226.03
860.04	226.02
860.35	225.98
860.66	225.94
860.98	225.93
861.29	225.95
861.60	225.94
861.91	225.97
862.22	225.95
862.53	225.93
862.84	225.77
863.16	225.80
863.47	225.78
863.78	225.76
864.09	225.77
864.40	225.77
864.71	225.77
865.02	225.79
865.33	225.77
865.64	225.75
865.95	225.75
866.27	225.82
866.58	225.81
866.89	225.83
867.20	225.83
867.51	225.81
867.82	225.80
868.13	225.83
868.44	225.80
868.75	225.83
869.06	225.84
869.37	225.85
869.68	225.82
869.99	225.83
870.30	225.84
870.61	225.85
870.92	225.83
871.23	225.82
871.54	225.83
871.85	225.86
872.16	225.88
872.47	225.86
872.78	225.79
873.09	225.80
873.40	225.78
873.71	225.79
874.02	225.80
874.33	225.79
874.64	225.76
874.95	225.78
875.26	225.75
875.56	225.75
875.87	225.74
876.18	225.74
876.49	225.86
876.80	225.84
877.11	225.82
877.42	225.83
877.73	225.83
878.04	225.81
878.35	225.81
878.66	225.80
878.96	225.80
879.27	225.80
879.58	225.79
879.89	225.79
880.20	225.82
880.51	225.82
880.82	225.81
881.12	225.82
881.43	225.80
881.74	225.78
882.05	225.77
882.36	225.78
882.67	225.79
882.97	225.65
883.28	225.64
883.59	225.64
883.90	225.65
884.21	225.66
884.51	225.66
884.82	225.64
885.13	225.63
885.44	225.63
885.74	225.63
886.05	225.63
886.36	225.63
886.67	225.58
886.98	225.65
887.28	225.66
887.59	225.66
887.90	225.66
888.20	225.66
888.51	225.68
888.82	225.66
889.13	225.67
889.43	225.78
889.74	225.77
890.05	225.77
890.35	225.76
890.66	225.73
890.97	225.72
891.28	225.72
891.58	225.71
891.89	225.71
892.20	225.70
892.50	225.69
892.81	225.68
893.12	225.68
893.42	225.61
893.73	225.61
894.04	225.61
894.34	225.62
894.65	225.62
894.95	225.61
895.26	225.62
895.57	225.67
895.87	225.55
896.18	225.57
896.48	225.57
896.79	225.57
897.10	225.59
897.40	225.60
897.71	225.61
898.01	225.60
898.32	225.61
898.63	225.61
898.93	225.62
899.24	225.63
899.54	225.62
899.85	225.61
900.15	225.61
900.46	225.60
900.76	225.61
901.07	225.61
901.38	225.60
901.68	225.61
901.99	225.54
902.29	225.55
902.60	225.54
902.90	225.53
903.21	225.53
903.51	225.52
903.82	225.54
904.12	225.54
904.43	225.55
904.73	225.54
905.03	225.55
905.34	225.66
905.64	225.66
905.95	225.66
906.25	225.66
906.56	225.66
906.86	225.66
907.17	225.65
907.47	225.65
907.77	225.64
908.08	225.61
908.38	225.62
908.69	225.63
908.99	225.65
909.30	225.66
909.60	225.65
909.90	225.66
910.21	225.62
910.51	225.60
910.81	225.60
911.12	225.61
911.42	225.61
911.73	225.48
912.03	225.49
912.33	225.51
912.64	225.51
912.94	225.49
913.24	225.47
913.55	225.46
913.85	225.45
914.15	225.48
914.46	225.49
914.76	225.48
915.06	225.47
915.37	225.44
915.67	225.43
915.97	225.43
916.27	225.40
916.58	225.41
916.88	225.41
917.18	225.40
917.49	225.49
917.79	225.47
918.09	225.49
918.39	225.52
918.70	225.51
919.00	225.52
919.30	225.58
919.60	225.58
919.91	225.56
920.21	225.57
920.51	225.55
920.81	225.54
921.12	225.56
921.42	225.56
921.72	225.57
922.02	225.58
922.32	225.59
922.63	225.60
922.93	225.66
923.23	225.67
923.53	225.66
923.83	225.58
924.13	225.59
924.44	225.58
924.74	225.60
925.04	225.63
925.34	225.63
925.64	225.57
925.94	225.57
926.24	225.64
926.55	225.63
926.85	225.65
927.15	225.65
927.45	225.64
927.75	225.64
928.05	225.64
928.35	225.63
928.65	225.65
928.95	225.67
929.26	225.60
929.56	225.63
929.86	225.64
930.16	225.63
930.46	225.62
930.76	225.63
931.06	225.57
931.36	225.53
931.66	225.55
931.96	225.57
932.26	225.57
932.56	225.52
932.86	225.53
933.16	225.53
933.46	225.51
933.76	225.49
934.06	225.52
934.36	225.56
934.66	225.55
934.96	225.53
935.26	225.54
935.56	225.56
935.86	225.52
936.16	225.51
936.46	225.50
936.76	225.49
937.06	225.48
937.36	225.49
937.66	225.49
937.96	225.48
938.26	225.45
938.56	225.45
938.86	225.46
939.16	225.48
939.46	225.49
939.76	225.51
940.06	225.51
940.35	225.49
940.65	225.42
940.95	225.44
941.25	225.40
941.55	225.39
941.85	225.37
942.15	225.40
942.45	225.44
942.75	225.44
943.04	225.44
943.34	225.47
943.64	225.45
943.94	225.43
944.24	225.43
944.54	225.44
944.84	225.44
945.13	225.42
945.43	225.39
945.73	225.39
946.03	225.37
946.33	225.36
946.62	225.34
946.92	225.34
947.22	225.35
947.52	225.36
947.82	225.37
948.11	225.36
948.41	225.33
948.71	225.29
949.01	225.30
949.31	225.30
949.60	225.28
949.90	225.31
950.20	225.30
950.50	225.30
950.79	225.29
951.09	225.31
951.39	225.31
951.69	225.30
951.98	225.32
952.28	225.33
952.58	225.33
952.87	225.34
953.17	225.36
953.47	225.34
953.76	225.34
954.06	225.31
954.36	225.30
954.66	225.30
954.95	225.33
955.25	225.34
955.55	225.35
955.84	225.33
956.14	225.34
956.44	225.35
956.73	225.33
957.03	225.34
957.32	225.33
957.62	225.33
957.92	225.36
958.21	225.34
958.51	225.48
958.81	225.50
959.10	225.51
959.40	225.54
959.69	225.55
959.99	225.57
960.29	225.57
960.58	225.57
960.88	225.62
961.17	225.60
961.47	225.60
961.76	225.59
962.06	225.61
962.36	225.60
962.65	225.60
962.95	225.62
963.24	225.60
963.54	225.61
963.83	225.61
964.13	225.60
964.42	225.59
964.72	225.48
965.01	225.48
965.31	225.47
965.60	225.44
965.90	225.51
966.19	225.48
966.49	225.49
966.78	225.48
967.08	225.47
967.37	225.47
967.67	225.44
967.96	225.47
968.26	225.46
968.55	225.47
968.85	225.46
969.14	225.46
969.43	225.47
969.73	225.45
970.02	225.45
970.32	225.44
970.61	225.42
970.91	225.39
971.20	225.37
971.49	225.36
971.79	225.38
972.08	225.29
972.38	225.30
972.67	225.29
972.96	225.31
973.26	225.29
973.55	225.33
973.85	225.33
974.14	225.31
974.43	225.32
974.73	225.30
975.02	225.29
975.31	225.29
975.61	225.29
975.90	225.27
976.19	225.27
976.49	225.27
976.78	225.28
977.07	225.28
977.37	225.29
977.66	225.30
977.95	225.28
978.24	225.29
978.54	225.32
978.83	225.31
979.12	225.30
979.42	225.30
979.71	225.28
980.00	225.28
980.29	225.28
980.59	225.26
980.88	225.29
981.17	225.29
981.46	225.29
981.76	225.29
982.05	225.33
982.34	225.34
982.63	225.34
982.93	225.34
983.22	225.38
983.51	225.38
983.80	225.39
984.09	225.41
984.39	225.40
984.68	225.38
984.97	225.39
985.26	225.38
985.55	225.39
985.85	225.37
986.14	225.39
986.43	225.40
986.72	225.39
987.01	225.35
987.30	225.35
987.59	225.35
987.89	225.35
988.18	225.31
988.47	225.30
988.76	225.29
989.05	225.28
989.34	225.25
989.63	225.29
989.92	225.27
990.22	225.25
990.51	225.25
990.80	225.23
991.09	225.24
991.38	225.26
991.67	225.24
991.96	225.23
992.25	225.23
992.54	225.21
992.83	225.21
993.12	225.20
993.41	225.22
993.70	225.27
993.99	225.29
994.28	225.31
994.58	225.34
994.87	225.32
995.16	225.32
995.45	225.31
995.74	225.26
996.03	225.28
996.32	225.31
996.61	225.33
996.90	225.33
997.19	225.32
997.48	225.32
997.77	225.31
998.06	225.32
998.34	225.31
998.63	225.32
998.92	225.32
999.21	225.35
999.50	225.34
999.79	225.30
1000.08	225.29
1000.37	225.29
1000.66	225.27
1000.95	225.31
1001.24	225.32
1001.53	225.33
1001.82	225.33
1002.11	225.30
1002.40	225.31
1002.68	225.34
1002.97	225.43
1003.26	225.41
1003.55	225.39
1003.84	225.40
1004.13	225.45
1004.42	225.44
1004.71	225.44
1004.99	225.43
1005.28	225.46
1005.57	225.45
1005.86	225.44
1006.15	225.43
1006.44	225.41
1006.72	225.43
1007.01	225.40
1007.30	225.40
1007.59	225.39
1007.88	225.38
1008.17	225.39
1008.45	225.37
1008.74	225.32
1009.03	225.26
1009.32	225.26
1009.60	225.26
1009.89	225.25
1010.18	225.20
1010.47	225.19
1010.76	225.20
1011.04	225.19
1011.33	225.19
1011.62	225.20
1011.91	225.21
1012.19	225.22
1012.48	225.22
1012.77	225.22
1013.05	225.26
1013.34	225.26
1013.63	225.26
1013.92	225.27
1014.20	225.27
1014.49	225.27
1014.78	225.29
1015.06	225.25
1015.35	225.25
1015.64	225.26
1015.92	225.28
1016.21	225.29
1016.50	225.30
1016.78	225.31
1017.07	225.32
1017.36	225.30
1017.64	225.28
1017.93	225.29
1018.22	225.27
1018.50	225.27
1018.79	225.26
1019.08	225.22
1019.36	225.23
1019.65	225.22
1019.93	225.25
1020.22	225.27
1020.51	225.34
1020.79	225.32
1021.08	225.06
1021.36	225.08
1021.65	225.23
1021.94	225.23
1022.22	225.37
1022.51	225.02
1022.79	225.89
1023.08	225.45
1023.36	226.80
1023.65	224.98
>>>>>End Processed Spectral Data<<<<<
