SpectraSuite Data File
++++++++++++++++++++++++++++++++++++
Date: Sun Oct 04 02:57:18 EDT 2015
User: lab3
Dark Spectrum Present: No
Reference Spectrum Present: No
Number of Sampled Component Spectra: 1
Spectrometers: USB2E7196
Integration Time (usec): 46000 (USB2E7196)
Spectra Averaged: 24000 (USB2E7196)
Boxcar Smoothing: 10 (USB2E7196)
Correct for Electrical Dark: No (USB2E7196)
Strobe/Lamp Enabled: No (USB2E7196)
Correct for Detector Non-linearity: No (USB2E7196)
Correct for Stray Light: No (USB2E7196)
Number of Pixels in Processed Spectrum: 2048
>>>>>Begin Processed Spectral Data<<<<<
339.09	0.00
339.48	213.05
339.86	214.51
340.24	215.84
340.63	217.28
341.01	220.62
341.39	220.01
341.78	221.36
342.16	222.61
342.54	223.05
342.93	211.52
343.31	222.21
343.69	222.75
344.07	223.21
344.46	223.64
344.84	224.04
345.22	224.26
345.60	224.52
345.99	224.71
346.37	224.85
346.75	224.96
347.13	225.04
347.52	225.11
347.90	225.20
348.28	225.24
348.66	225.30
349.05	225.30
349.43	225.36
349.81	225.42
350.19	225.47
350.57	225.54
350.96	225.63
351.34	225.72
351.72	225.82
352.10	225.93
352.48	226.00
352.87	226.05
353.25	226.12
353.63	226.18
354.01	226.24
354.39	226.32
354.77	226.40
355.15	226.50
355.54	226.55
355.92	226.57
356.30	226.65
356.68	226.80
357.06	226.88
357.44	226.92
357.82	226.98
358.20	227.10
358.58	227.16
358.97	227.22
359.35	227.31
359.73	227.39
360.11	227.44
360.49	227.50
360.87	227.55
361.25	227.61
361.63	227.70
362.01	227.76
362.39	227.79
362.77	227.83
363.15	227.85
363.53	227.89
363.91	227.93
364.29	227.95
364.67	227.85
365.05	227.87
365.43	227.91
365.81	227.94
366.19	227.96
366.57	228.01
366.95	228.02
367.33	227.99
367.71	227.98
368.09	228.00
368.47	227.99
368.85	227.98
369.23	227.99
369.61	227.93
369.99	227.95
370.37	227.95
370.75	228.03
371.13	228.00
371.51	227.95
371.89	227.94
372.27	227.91
372.65	227.89
373.03	227.85
373.41	227.81
373.78	227.76
374.16	227.66
374.54	227.57
374.92	227.52
375.30	227.48
375.68	227.41
376.06	227.37
376.44	227.32
376.82	227.28
377.19	227.23
377.57	227.18
377.95	227.09
378.33	227.03
378.71	226.86
379.09	226.82
379.47	226.79
379.84	226.72
380.22	226.66
380.60	226.59
380.98	226.54
381.36	226.49
381.73	226.43
382.11	226.41
382.49	226.37
382.87	226.30
383.25	226.26
383.62	226.37
384.00	226.30
384.38	226.26
384.76	226.24
385.13	226.24
385.51	226.20
385.89	226.15
386.27	226.12
386.64	226.10
387.02	226.06
387.40	226.01
387.78	225.99
388.15	225.97
388.53	225.94
388.91	225.91
389.29	225.88
389.66	225.88
390.04	225.84
390.42	225.84
390.79	225.83
391.17	225.81
391.55	225.65
391.92	225.64
392.30	225.65
392.68	225.61
393.05	225.59
393.43	225.59
393.81	225.60
394.18	225.58
394.56	225.58
394.94	225.62
395.31	225.62
395.69	225.67
396.06	225.70
396.44	225.73
396.82	225.74
397.19	225.83
397.57	225.84
397.95	225.89
398.32	225.89
398.70	225.94
399.07	226.01
399.45	226.05
399.82	226.10
400.20	226.14
400.58	226.21
400.95	226.23
401.33	226.32
401.70	226.48
402.08	226.59
402.45	226.69
402.83	226.81
403.20	226.93
403.58	227.03
403.95	227.18
404.33	227.34
404.71	227.50
405.08	227.72
405.46	227.90
405.83	228.10
406.21	228.31
406.58	228.55
406.96	228.78
407.33	229.05
407.70	229.36
408.08	229.77
408.45	230.13
408.83	230.52
409.20	230.87
409.58	231.20
409.95	231.63
410.33	232.11
410.70	232.56
411.08	233.09
411.45	233.65
411.82	234.22
412.20	234.87
412.57	235.64
412.95	236.25
413.32	237.04
413.69	237.85
414.07	238.72
414.44	239.66
414.82	240.61
415.19	241.74
415.56	242.88
415.94	244.06
416.31	245.38
416.68	246.70
417.06	248.24
417.43	249.68
417.81	251.33
418.18	253.02
418.55	254.87
418.93	256.79
419.30	258.79
419.67	260.91
420.04	263.10
420.42	265.37
420.79	267.99
421.16	270.65
421.54	273.35
421.91	276.17
422.28	279.09
422.66	282.25
423.03	285.25
423.40	288.41
423.77	291.79
424.15	295.26
424.52	298.88
424.89	302.79
425.26	306.68
425.64	310.29
426.01	314.36
426.38	318.51
426.75	322.79
427.13	327.18
427.50	331.78
427.87	336.56
428.24	341.39
428.61	346.04
428.99	351.05
429.36	356.56
429.73	361.82
430.10	367.09
430.47	372.47
430.85	378.02
431.22	383.96
431.59	390.06
431.96	396.03
432.33	402.65
432.70	408.94
433.08	416.37
433.45	423.42
433.82	430.36
434.19	438.09
434.56	445.72
434.93	453.10
435.30	460.38
435.68	468.61
436.05	476.68
436.42	484.73
436.79	492.07
437.16	499.99
437.53	508.48
437.90	516.98
438.27	525.29
438.64	534.28
439.01	542.42
439.38	549.88
439.75	557.04
440.13	565.14
440.50	572.84
440.87	578.95
441.24	585.63
441.61	592.91
441.98	598.22
442.35	604.52
442.72	610.95
443.09	617.08
443.46	620.95
443.83	623.77
444.20	626.11
444.57	629.64
444.94	631.61
445.31	633.65
445.68	635.35
446.05	636.61
446.42	636.15
446.79	635.48
447.16	634.88
447.53	634.32
447.90	631.66
448.27	629.10
448.64	625.27
449.01	622.57
449.37	617.28
449.74	612.50
450.11	606.35
450.48	599.62
450.85	592.90
451.22	587.17
451.59	581.58
451.96	576.52
452.33	569.17
452.70	562.66
453.07	554.71
453.43	546.81
453.80	539.13
454.17	531.78
454.54	525.04
454.91	517.39
455.28	510.24
455.65	503.50
456.02	496.36
456.38	490.64
456.75	483.28
457.12	477.36
457.49	471.39
457.86	465.78
458.23	460.86
458.59	455.40
458.96	449.80
459.33	444.87
459.70	439.84
460.07	436.03
460.43	431.56
460.80	427.37
461.17	423.75
461.54	419.79
461.91	416.09
462.27	412.32
462.64	409.31
463.01	405.82
463.38	402.31
463.74	399.17
464.11	396.37
464.48	393.86
464.85	391.11
465.21	389.04
465.58	386.72
465.95	384.04
466.32	381.93
466.68	379.85
467.05	377.76
467.42	375.73
467.78	373.51
468.15	371.47
468.52	369.98
468.88	367.97
469.25	366.13
469.62	364.68
469.98	363.08
470.35	361.66
470.72	360.36
471.08	359.04
471.45	357.93
471.82	356.69
472.18	355.38
472.55	354.52
472.92	353.44
473.28	352.59
473.65	351.69
474.02	350.82
474.38	350.08
474.75	349.62
475.11	349.00
475.48	348.69
475.85	348.36
476.21	348.16
476.58	348.02
476.94	348.12
477.31	348.14
477.67	348.20
478.04	348.38
478.41	348.64
478.77	349.04
479.14	349.29
479.50	349.80
479.87	350.47
480.23	351.15
480.60	351.82
480.96	352.49
481.33	353.51
481.69	354.52
482.06	355.53
482.42	356.44
482.79	357.59
483.15	358.92
483.52	360.46
483.88	361.92
484.25	363.49
484.61	365.12
484.98	366.89
485.34	368.88
485.71	370.96
486.07	373.20
486.44	375.43
486.80	377.91
487.17	380.50
487.53	383.33
487.90	386.28
488.26	389.50
488.62	392.91
488.99	396.31
489.35	399.90
489.72	403.79
490.08	407.90
490.44	412.13
490.81	416.53
491.17	421.03
491.54	425.86
491.90	430.84
492.26	436.19
492.63	441.78
492.99	447.61
493.36	453.66
493.72	460.01
494.08	466.53
494.45	473.45
494.81	480.63
495.17	488.00
495.54	495.81
495.90	503.91
496.26	512.20
496.63	520.74
496.99	529.60
497.35	538.87
497.72	548.45
498.08	558.23
498.44	568.34
498.80	579.07
499.17	590.07
499.53	601.42
499.89	613.13
500.26	625.09
500.62	637.34
500.98	650.26
501.34	663.36
501.71	676.99
502.07	690.81
502.43	705.18
502.79	719.80
503.16	734.89
503.52	750.15
503.88	765.87
504.24	782.07
504.60	798.48
504.97	815.39
505.33	832.72
505.69	851.00
506.05	869.63
506.41	888.23
506.78	906.99
507.14	926.25
507.50	945.97
507.86	966.04
508.22	986.36
508.59	1006.47
508.95	1027.39
509.31	1049.03
509.67	1071.47
510.03	1093.94
510.39	1116.42
510.75	1139.02
511.12	1161.92
511.48	1185.01
511.84	1208.07
512.20	1231.56
512.56	1255.99
512.92	1280.45
513.28	1304.44
513.64	1328.67
514.00	1353.38
514.37	1378.47
514.73	1403.43
515.09	1428.27
515.45	1453.42
515.81	1478.81
516.17	1504.21
516.53	1529.22
516.89	1554.06
517.25	1579.05
517.61	1603.84
517.97	1629.09
518.33	1653.89
518.69	1678.64
519.05	1703.79
519.41	1729.22
519.77	1754.94
520.13	1779.78
520.49	1804.56
520.85	1829.69
521.21	1854.48
521.57	1879.57
521.93	1904.03
522.29	1929.12
522.65	1953.58
523.01	1978.02
523.37	2001.97
523.73	2026.77
524.09	2051.12
524.45	2075.28
524.81	2099.06
525.17	2122.71
525.53	2145.75
525.89	2169.23
526.25	2192.76
526.61	2215.27
526.97	2237.89
527.33	2260.39
527.68	2282.71
528.04	2304.13
528.40	2324.61
528.76	2345.15
529.12	2365.19
529.48	2385.06
529.84	2402.91
530.20	2421.51
530.56	2439.46
530.91	2457.55
531.27	2475.26
531.63	2492.12
531.99	2508.48
532.35	2524.06
532.71	2539.85
533.07	2556.28
533.42	2570.84
533.78	2586.30
534.14	2602.12
534.50	2616.99
534.86	2631.57
535.21	2644.00
535.57	2657.05
535.93	2669.95
536.29	2681.74
536.65	2693.27
537.00	2703.90
537.36	2715.64
537.72	2726.06
538.08	2735.83
538.44	2744.84
538.79	2753.44
539.15	2761.32
539.51	2768.88
539.87	2775.86
540.22	2780.67
540.58	2785.61
540.94	2791.68
541.29	2796.28
541.65	2799.00
542.01	2800.95
542.37	2802.18
542.72	2804.93
543.08	2805.86
543.44	2807.33
543.79	2807.79
544.15	2807.43
544.51	2807.50
544.87	2806.42
545.22	2804.47
545.58	2801.85
545.94	2799.21
546.29	2795.33
546.65	2791.42
547.01	2787.37
547.36	2784.08
547.72	2781.12
548.07	2776.27
548.43	2770.05
548.79	2762.68
549.14	2756.60
549.50	2750.93
549.86	2744.27
550.21	2736.40
550.57	2729.55
550.92	2720.32
551.28	2711.54
551.64	2703.24
551.99	2694.59
552.35	2685.30
552.70	2676.26
553.06	2667.62
553.41	2658.38
553.77	2648.95
554.13	2639.46
554.48	2629.09
554.84	2617.39
555.19	2605.98
555.55	2594.79
555.90	2583.71
556.26	2573.28
556.61	2561.65
556.97	2548.34
557.32	2535.41
557.68	2522.64
558.03	2509.50
558.39	2497.74
558.74	2486.36
559.10	2473.16
559.45	2460.06
559.81	2447.57
560.16	2434.45
560.52	2421.72
560.87	2409.38
561.23	2396.21
561.58	2382.97
561.94	2369.53
562.29	2355.50
562.64	2342.26
563.00	2328.75
563.35	2315.50
563.71	2302.11
564.06	2288.71
564.42	2276.07
564.77	2263.00
565.12	2249.75
565.48	2236.44
565.83	2222.99
566.19	2209.72
566.54	2196.41
566.89	2182.00
567.25	2167.74
567.60	2154.98
567.96	2141.22
568.31	2126.01
568.66	2111.42
569.02	2098.14
569.37	2084.86
569.72	2072.09
570.08	2058.07
570.43	2043.60
570.78	2029.09
571.14	2013.85
571.49	1999.19
571.84	1985.11
572.20	1969.85
572.55	1954.71
572.90	1939.62
573.26	1924.65
573.61	1909.14
573.96	1894.04
574.31	1879.22
574.67	1864.51
575.02	1848.61
575.37	1832.85
575.72	1818.00
576.08	1803.48
576.43	1787.86
576.78	1772.62
577.13	1757.64
577.49	1743.02
577.84	1729.06
578.19	1714.16
578.54	1699.34
578.90	1684.08
579.25	1668.69
579.60	1654.92
579.95	1641.10
580.30	1627.07
580.66	1612.73
581.01	1598.34
581.36	1583.96
581.71	1570.50
582.06	1557.01
582.42	1543.73
582.77	1530.55
583.12	1517.35
583.47	1504.05
583.82	1490.84
584.17	1477.25
584.53	1463.41
584.88	1449.90
585.23	1436.05
585.58	1422.93
585.93	1410.00
586.28	1397.84
586.63	1385.62
586.98	1372.96
587.34	1360.37
587.69	1347.51
588.04	1334.98
588.39	1322.77
588.74	1310.75
589.09	1298.55
589.44	1285.89
589.79	1273.88
590.14	1261.95
590.49	1249.90
590.84	1238.03
591.19	1226.55
591.54	1214.88
591.89	1203.32
592.25	1192.02
592.60	1180.30
592.95	1169.01
593.30	1158.03
593.65	1146.75
594.00	1135.61
594.35	1125.02
594.70	1113.96
595.05	1103.76
595.40	1093.45
595.75	1083.00
596.10	1073.06
596.45	1062.92
596.80	1053.12
597.15	1043.02
597.50	1033.10
597.85	1023.61
598.19	1013.96
598.54	1004.31
598.89	995.20
599.24	986.38
599.59	977.32
599.94	969.14
600.29	960.81
600.64	952.20
600.99	943.25
601.34	934.61
601.69	925.63
602.04	917.37
602.39	908.91
602.74	900.56
603.08	892.13
603.43	883.68
603.78	875.39
604.13	867.23
604.48	859.12
604.83	851.16
605.18	843.16
605.53	835.33
605.87	827.37
606.22	819.60
606.57	811.82
606.92	803.99
607.27	796.10
607.62	788.47
607.96	781.22
608.31	774.42
608.66	767.44
609.01	760.74
609.36	754.11
609.70	747.35
610.05	740.53
610.40	734.00
610.75	727.43
611.10	721.22
611.44	714.84
611.79	708.58
612.14	702.24
612.49	695.95
612.83	689.97
613.18	684.10
613.53	678.20
613.88	672.27
614.22	666.73
614.57	661.15
614.92	655.45
615.27	649.85
615.61	644.30
615.96	638.81
616.31	633.34
616.65	627.90
617.00	622.65
617.35	617.54
617.70	612.43
618.04	607.43
618.39	602.31
618.74	597.43
619.08	592.59
619.43	587.90
619.78	583.20
620.12	578.47
620.47	573.88
620.82	569.40
621.16	565.01
621.51	560.51
621.85	556.03
622.20	551.71
622.55	547.45
622.89	543.26
623.24	539.09
623.59	534.91
623.93	530.91
624.28	527.03
624.62	523.22
624.97	519.47
625.32	515.66
625.66	511.83
626.01	507.97
626.35	504.16
626.70	500.40
627.04	496.85
627.39	493.19
627.73	489.72
628.08	486.34
628.43	482.94
628.77	479.61
629.12	476.41
629.46	473.26
629.81	469.99
630.15	466.70
630.50	463.52
630.84	460.41
631.19	457.34
631.53	454.36
631.88	451.35
632.22	448.37
632.57	445.66
632.91	442.99
633.26	440.41
633.60	437.85
633.95	435.34
634.29	432.75
634.64	430.23
634.98	427.54
635.32	424.96
635.67	422.58
636.01	420.16
636.36	417.74
636.70	415.44
637.05	413.18
637.39	410.96
637.73	408.75
638.08	406.67
638.42	404.57
638.77	402.33
639.11	400.04
639.45	397.83
639.80	395.57
640.14	393.40
640.49	391.23
640.83	389.04
641.17	386.94
641.52	384.89
641.86	382.87
642.20	381.04
642.55	379.07
642.89	377.13
643.23	375.27
643.58	373.58
643.92	371.77
644.26	370.00
644.61	368.29
644.95	366.56
645.29	364.74
645.64	362.94
645.98	361.26
646.32	359.67
646.66	358.08
647.01	356.52
647.35	355.00
647.69	353.46
648.04	352.03
648.38	350.54
648.72	349.06
649.06	347.60
649.41	346.14
649.75	344.73
650.09	343.36
650.43	341.97
650.78	340.55
651.12	339.17
651.46	337.84
651.80	336.54
652.14	335.27
652.49	334.03
652.83	332.77
653.17	331.57
653.51	330.39
653.85	329.27
654.20	328.11
654.54	326.87
654.88	325.71
655.22	324.60
655.56	323.48
655.90	322.42
656.25	321.39
656.59	320.35
656.93	319.37
657.27	318.40
657.61	317.37
657.95	316.41
658.29	315.42
658.64	314.49
658.98	313.54
659.32	312.64
659.66	311.78
660.00	310.95
660.34	310.11
660.68	309.24
661.02	308.35
661.36	307.50
661.70	306.70
662.05	305.91
662.39	305.12
662.73	304.41
663.07	303.72
663.41	302.97
663.75	302.22
664.09	301.47
664.43	300.69
664.77	300.00
665.11	299.25
665.45	298.58
665.79	297.91
666.13	297.22
666.47	296.51
666.81	295.79
667.15	295.04
667.49	294.39
667.83	293.80
668.17	293.19
668.51	292.61
668.85	292.06
669.19	291.55
669.53	290.94
669.87	290.31
670.21	289.71
670.55	289.16
670.89	288.69
671.23	288.16
671.57	287.65
671.91	287.18
672.25	286.75
672.58	286.31
672.92	285.79
673.26	285.34
673.60	284.90
673.94	284.48
674.28	284.09
674.62	283.67
674.96	283.19
675.30	282.78
675.64	282.33
675.97	281.87
676.31	281.38
676.65	280.95
676.99	280.58
677.33	280.14
677.67	279.73
678.01	279.25
678.34	278.85
678.68	278.48
679.02	278.03
679.36	277.61
679.70	277.18
680.04	276.80
680.37	276.41
680.71	276.04
681.05	275.68
681.39	275.29
681.73	274.87
682.06	274.48
682.40	274.10
682.74	273.78
683.08	273.50
683.42	273.15
683.75	272.84
684.09	272.45
684.43	272.12
684.77	271.79
685.10	271.50
685.44	271.18
685.78	270.85
686.12	270.56
686.45	270.23
686.79	269.89
687.13	269.60
687.46	269.26
687.80	268.95
688.14	268.60
688.48	268.30
688.81	267.99
689.15	267.72
689.49	267.40
689.82	267.08
690.16	266.69
690.50	266.39
690.83	266.08
691.17	265.77
691.51	265.47
691.84	265.18
692.18	264.86
692.52	264.54
692.85	264.24
693.19	263.97
693.52	263.67
693.86	263.38
694.20	263.08
694.53	262.81
694.87	262.50
695.21	262.21
695.54	261.93
695.88	261.63
696.21	261.30
696.55	261.03
696.88	260.74
697.22	260.46
697.56	260.19
697.89	259.87
698.23	259.60
698.56	259.29
698.90	259.02
699.23	258.72
699.57	258.44
699.90	258.15
700.24	257.84
700.58	257.59
700.91	257.36
701.25	257.20
701.58	256.99
701.92	256.77
702.25	256.53
702.59	256.26
702.92	256.01
703.26	255.76
703.59	255.49
703.93	255.33
704.26	255.09
704.60	254.83
704.93	254.58
705.26	254.31
705.60	254.10
705.93	253.82
706.27	253.62
706.60	253.41
706.94	253.23
707.27	252.96
707.61	252.71
707.94	252.44
708.27	252.07
708.61	251.76
708.94	251.49
709.28	251.25
709.61	251.01
709.94	250.80
710.28	250.58
710.61	250.39
710.95	250.06
711.28	249.92
711.61	249.70
711.95	249.52
712.28	249.29
712.61	249.05
712.95	248.91
713.28	248.76
713.61	248.52
713.95	248.26
714.28	248.07
714.61	247.85
714.95	247.64
715.28	247.44
715.61	247.25
715.95	247.07
716.28	246.88
716.61	246.72
716.95	246.51
717.28	246.31
717.61	246.11
717.94	245.92
718.28	245.64
718.61	245.45
718.94	245.23
719.27	245.05
719.61	244.89
719.94	244.67
720.27	244.40
720.60	244.22
720.94	244.05
721.27	243.87
721.60	243.72
721.93	243.54
722.27	243.41
722.60	243.26
722.93	243.07
723.26	242.90
723.59	242.70
723.93	242.54
724.26	242.38
724.59	242.21
724.92	242.05
725.25	241.94
725.59	241.79
725.92	241.66
726.25	241.51
726.58	241.35
726.91	241.19
727.24	241.06
727.57	240.91
727.91	240.74
728.24	240.62
728.57	240.46
728.90	240.34
729.23	240.15
729.56	240.05
729.89	239.91
730.22	239.75
730.55	239.62
730.89	239.48
731.22	239.33
731.55	239.20
731.88	239.06
732.21	238.90
732.54	238.76
732.87	238.63
733.20	238.50
733.53	238.38
733.86	238.26
734.19	238.12
734.52	238.01
734.85	237.98
735.18	237.83
735.51	237.74
735.84	237.62
736.17	237.54
736.50	237.36
736.83	237.39
737.16	237.29
737.49	237.18
737.82	237.06
738.15	236.97
738.48	236.87
738.81	236.75
739.14	236.63
739.47	236.51
739.80	236.39
740.13	236.29
740.46	236.17
740.79	236.04
741.12	235.93
741.45	235.80
741.78	235.63
742.11	235.56
742.44	235.42
742.77	235.33
743.10	235.21
743.43	235.10
743.75	234.87
744.08	234.97
744.41	234.86
744.74	234.76
745.07	234.63
745.40	234.56
745.73	234.52
746.06	234.44
746.39	234.37
746.71	234.27
747.04	234.17
747.37	234.08
747.70	234.02
748.03	233.94
748.36	233.88
748.68	233.79
749.01	233.67
749.34	233.59
749.67	233.51
750.00	233.44
750.33	233.45
750.65	233.38
750.98	233.11
751.31	233.03
751.64	232.96
751.97	232.95
752.29	232.86
752.62	232.72
752.95	232.63
753.28	232.54
753.60	232.46
753.93	232.41
754.26	232.35
754.59	232.23
754.91	232.14
755.24	232.05
755.57	232.03
755.90	231.95
756.22	231.87
756.55	231.77
756.88	231.67
757.20	231.51
757.53	231.41
757.86	231.33
758.19	231.27
758.51	231.20
758.84	231.07
759.17	230.99
759.49	230.92
759.82	230.92
760.15	230.87
760.47	230.81
760.80	230.71
761.13	230.66
761.45	230.60
761.78	230.55
762.11	230.50
762.43	230.37
762.76	230.32
763.08	230.27
763.41	230.23
763.74	230.18
764.06	230.13
764.39	230.08
764.71	230.03
765.04	229.96
765.37	229.90
765.69	229.85
766.02	229.80
766.34	229.74
766.67	229.65
767.00	229.62
767.32	229.64
767.65	229.68
767.97	229.62
768.30	229.58
768.62	229.53
768.95	229.47
769.27	229.42
769.60	229.39
769.92	229.32
770.25	229.26
770.57	229.19
770.90	229.15
771.22	229.09
771.55	229.05
771.87	229.02
772.20	228.98
772.52	229.04
772.85	229.16
773.17	229.12
773.50	229.07
773.82	229.02
774.15	228.91
774.47	228.79
774.80	228.74
775.12	228.70
775.45	228.67
775.77	228.64
776.09	228.62
776.42	228.59
776.74	228.60
777.07	228.57
777.39	228.55
777.72	228.50
778.04	228.49
778.36	228.45
778.69	228.42
779.01	228.41
779.33	228.26
779.66	228.09
779.98	228.06
780.31	228.04
780.63	228.06
780.95	228.06
781.28	228.03
781.60	228.00
781.92	227.98
782.25	227.95
782.57	227.93
782.89	227.89
783.22	227.86
783.54	227.80
783.86	227.79
784.19	227.76
784.51	227.78
784.83	227.74
785.16	227.72
785.48	227.70
785.80	227.67
786.12	227.66
786.45	227.64
786.77	227.62
787.09	227.59
787.42	227.52
787.74	227.51
788.06	227.49
788.38	227.47
788.71	227.44
789.03	227.42
789.35	227.42
789.67	227.39
789.99	227.38
790.32	227.35
790.64	227.34
790.96	227.44
791.28	227.38
791.61	227.35
791.93	227.34
792.25	227.31
792.57	227.39
792.89	227.35
793.21	227.34
793.54	227.31
793.86	227.28
794.18	227.27
794.50	227.23
794.82	227.21
795.14	227.21
795.47	227.21
795.79	227.20
796.11	227.15
796.43	227.14
796.75	227.12
797.07	227.11
797.39	227.09
797.71	226.96
798.04	226.96
798.36	226.95
798.68	226.93
799.00	226.93
799.32	226.85
799.64	226.86
799.96	226.84
800.28	226.85
800.60	226.83
800.92	226.83
801.24	226.81
801.56	226.80
801.89	226.78
802.21	226.76
802.53	226.73
802.85	226.74
803.17	226.79
803.49	226.75
803.81	226.73
804.13	226.71
804.45	226.68
804.77	226.68
805.09	226.66
805.41	226.64
805.73	226.60
806.05	226.56
806.37	226.53
806.69	226.51
807.01	226.48
807.33	226.48
807.65	226.43
807.97	226.47
808.28	226.44
808.60	226.44
808.92	226.40
809.24	226.47
809.56	226.44
809.88	226.38
810.20	226.38
810.52	226.40
810.84	226.37
811.16	226.35
811.48	226.33
811.80	226.37
812.12	226.35
812.43	226.37
812.75	226.37
813.07	226.35
813.39	226.34
813.71	226.32
814.03	226.30
814.35	226.30
814.67	226.23
814.98	226.21
815.30	226.20
815.62	226.17
815.94	226.08
816.26	226.09
816.58	226.05
816.89	226.06
817.21	226.01
817.53	226.02
817.85	226.02
818.17	226.00
818.48	225.94
818.80	225.96
819.12	225.93
819.44	225.90
819.76	225.88
820.07	225.87
820.39	225.86
820.71	225.87
821.03	225.86
821.34	225.84
821.66	225.85
821.98	225.86
822.30	225.85
822.61	225.92
822.93	225.89
823.25	225.88
823.57	225.86
823.88	225.87
824.20	225.86
824.52	225.87
824.83	225.86
825.15	225.85
825.47	225.83
825.79	225.84
826.10	225.83
826.42	225.82
826.74	225.82
827.05	225.81
827.37	225.81
827.69	225.79
828.00	225.79
828.32	225.78
828.64	225.76
828.95	225.83
829.27	225.78
829.58	225.78
829.90	225.80
830.22	225.80
830.53	225.77
830.85	225.76
831.17	225.72
831.48	225.71
831.80	225.72
832.11	225.70
832.43	225.68
832.75	225.67
833.06	225.75
833.38	225.71
833.69	225.70
834.01	225.70
834.32	225.69
834.64	225.68
834.96	225.67
835.27	225.67
835.59	225.62
835.90	225.60
836.22	225.59
836.53	225.56
836.85	225.54
837.16	225.67
837.48	225.67
837.79	225.71
838.11	225.71
838.42	225.71
838.74	225.72
839.05	225.71
839.37	225.70
839.68	225.62
840.00	225.61
840.31	225.63
840.63	225.61
840.94	225.60
841.26	225.59
841.57	225.58
841.88	225.59
842.20	225.57
842.51	225.55
842.83	225.55
843.14	225.66
843.46	225.66
843.77	225.58
844.08	225.57
844.40	225.52
844.71	225.51
845.03	225.49
845.34	225.48
845.65	225.47
845.97	225.47
846.28	225.48
846.60	225.48
846.91	225.46
847.22	225.45
847.54	225.48
847.85	225.48
848.16	225.47
848.48	225.44
848.79	225.49
849.10	225.50
849.42	225.51
849.73	225.38
850.04	225.38
850.36	225.33
850.67	225.35
850.98	225.35
851.30	225.37
851.61	225.36
851.92	225.36
852.23	225.40
852.55	225.40
852.86	225.40
853.17	225.41
853.49	225.43
853.80	225.46
854.11	225.46
854.42	225.47
854.74	225.46
855.05	225.47
855.36	225.40
855.67	225.40
855.99	225.39
856.30	225.55
856.61	225.54
856.92	225.54
857.23	225.54
857.55	225.52
857.86	225.51
858.17	225.53
858.48	225.51
858.79	225.48
859.11	225.49
859.42	225.48
859.73	225.46
860.04	225.45
860.35	225.41
860.66	225.37
860.98	225.36
861.29	225.38
861.60	225.37
861.91	225.40
862.22	225.38
862.53	225.36
862.84	225.21
863.16	225.23
863.47	225.21
863.78	225.19
864.09	225.20
864.40	225.21
864.71	225.20
865.02	225.22
865.33	225.21
865.64	225.18
865.95	225.18
866.27	225.26
866.58	225.25
866.89	225.26
867.20	225.26
867.51	225.24
867.82	225.23
868.13	225.27
868.44	225.23
868.75	225.26
869.06	225.26
869.37	225.28
869.68	225.25
869.99	225.27
870.30	225.27
870.61	225.28
870.92	225.26
871.23	225.25
871.54	225.27
871.85	225.30
872.16	225.31
872.47	225.30
872.78	225.23
873.09	225.24
873.40	225.22
873.71	225.24
874.02	225.25
874.33	225.24
874.64	225.21
874.95	225.23
875.26	225.20
875.56	225.20
875.87	225.19
876.18	225.19
876.49	225.31
876.80	225.30
877.11	225.27
877.42	225.28
877.73	225.28
878.04	225.26
878.35	225.25
878.66	225.25
878.96	225.25
879.27	225.25
879.58	225.24
879.89	225.23
880.20	225.27
880.51	225.26
880.82	225.26
881.12	225.27
881.43	225.25
881.74	225.23
882.05	225.23
882.36	225.24
882.67	225.25
882.97	225.10
883.28	225.10
883.59	225.09
883.90	225.10
884.21	225.12
884.51	225.12
884.82	225.09
885.13	225.09
885.44	225.09
885.74	225.09
886.05	225.08
886.36	225.08
886.67	225.03
886.98	225.09
887.28	225.11
887.59	225.10
887.90	225.11
888.20	225.10
888.51	225.12
888.82	225.10
889.13	225.11
889.43	225.22
889.74	225.21
890.05	225.21
890.35	225.20
890.66	225.17
890.97	225.16
891.28	225.15
891.58	225.15
891.89	225.15
892.20	225.14
892.50	225.13
892.81	225.12
893.12	225.12
893.42	225.05
893.73	225.05
894.04	225.05
894.34	225.06
894.65	225.06
894.95	225.04
895.26	225.05
895.57	225.10
895.87	224.97
896.18	224.99
896.48	225.00
896.79	225.00
897.10	225.02
897.40	225.02
897.71	225.04
898.01	225.02
898.32	225.04
898.63	225.04
898.93	225.05
899.24	225.05
899.54	225.05
899.85	225.04
900.15	225.03
900.46	225.03
900.76	225.04
901.07	225.04
901.38	225.03
901.68	225.05
901.99	224.98
902.29	224.99
902.60	224.98
902.90	224.97
903.21	224.96
903.51	224.95
903.82	224.98
904.12	224.98
904.43	224.99
904.73	224.97
905.03	224.98
905.34	225.10
905.64	225.10
905.95	225.10
906.25	225.09
906.56	225.09
906.86	225.09
907.17	225.08
907.47	225.09
907.77	225.08
908.08	225.05
908.38	225.05
908.69	225.06
908.99	225.08
909.30	225.09
909.60	225.09
909.90	225.09
910.21	225.05
910.51	225.03
910.81	225.03
911.12	225.03
911.42	225.03
911.73	224.90
912.03	224.91
912.33	224.94
912.64	224.93
912.94	224.91
913.24	224.89
913.55	224.88
913.85	224.87
914.15	224.90
914.46	224.92
914.76	224.90
915.06	224.89
915.37	224.87
915.67	224.86
915.97	224.86
916.27	224.84
916.58	224.85
916.88	224.84
917.18	224.83
917.49	224.91
917.79	224.91
918.09	224.93
918.39	224.95
918.70	224.94
919.00	224.95
919.30	225.01
919.60	225.01
919.91	224.99
920.21	225.00
920.51	224.97
920.81	224.96
921.12	224.99
921.42	224.98
921.72	224.99
922.02	225.00
922.32	225.01
922.63	225.02
922.93	225.09
923.23	225.09
923.53	225.08
923.83	225.00
924.13	225.01
924.44	225.00
924.74	225.02
925.04	225.05
925.34	225.04
925.64	224.99
925.94	224.99
926.24	225.06
926.55	225.05
926.85	225.07
927.15	225.07
927.45	225.06
927.75	225.06
928.05	225.06
928.35	225.05
928.65	225.07
928.95	225.08
929.26	225.02
929.56	225.04
929.86	225.06
930.16	225.05
930.46	225.03
930.76	225.04
931.06	224.98
931.36	224.94
931.66	224.97
931.96	224.98
932.26	224.99
932.56	224.93
932.86	224.94
933.16	224.94
933.46	224.93
933.76	224.91
934.06	224.94
934.36	224.98
934.66	224.97
934.96	224.95
935.26	224.96
935.56	224.98
935.86	224.94
936.16	224.92
936.46	224.91
936.76	224.91
937.06	224.89
937.36	224.90
937.66	224.90
937.96	224.89
938.26	224.87
938.56	224.86
938.86	224.87
939.16	224.89
939.46	224.90
939.76	224.91
940.06	224.91
940.35	224.89
940.65	224.82
940.95	224.83
941.25	224.80
941.55	224.79
941.85	224.78
942.15	224.81
942.45	224.84
942.75	224.84
943.04	224.84
943.34	224.87
943.64	224.86
943.94	224.84
944.24	224.84
944.54	224.85
944.84	224.84
945.13	224.83
945.43	224.80
945.73	224.79
946.03	224.78
946.33	224.77
946.62	224.76
946.92	224.76
947.22	224.77
947.52	224.78
947.82	224.80
948.11	224.78
948.41	224.75
948.71	224.71
949.01	224.72
949.31	224.71
949.60	224.70
949.90	224.72
950.20	224.72
950.50	224.71
950.79	224.70
951.09	224.72
951.39	224.72
951.69	224.71
951.98	224.73
952.28	224.74
952.58	224.74
952.87	224.74
953.17	224.76
953.47	224.74
953.76	224.74
954.06	224.71
954.36	224.70
954.66	224.70
954.95	224.74
955.25	224.74
955.55	224.76
955.84	224.74
956.14	224.75
956.44	224.76
956.73	224.74
957.03	224.75
957.32	224.75
957.62	224.74
957.92	224.77
958.21	224.76
958.51	224.90
958.81	224.92
959.10	224.93
959.40	224.96
959.69	224.97
959.99	224.99
960.29	224.99
960.58	224.99
960.88	225.04
961.17	225.02
961.47	225.03
961.76	225.02
962.06	225.04
962.36	225.02
962.65	225.02
962.95	225.04
963.24	225.02
963.54	225.03
963.83	225.03
964.13	225.02
964.42	225.01
964.72	224.90
965.01	224.90
965.31	224.89
965.60	224.86
965.90	224.94
966.19	224.91
966.49	224.91
966.78	224.91
967.08	224.90
967.37	224.90
967.67	224.87
967.96	224.90
968.26	224.89
968.55	224.91
968.85	224.90
969.14	224.90
969.43	224.90
969.73	224.88
970.02	224.88
970.32	224.87
970.61	224.85
970.91	224.81
971.20	224.79
971.49	224.79
971.79	224.80
972.08	224.71
972.38	224.73
972.67	224.72
972.96	224.74
973.26	224.71
973.55	224.75
973.85	224.74
974.14	224.73
974.43	224.74
974.73	224.72
975.02	224.71
975.31	224.71
975.61	224.71
975.90	224.70
976.19	224.69
976.49	224.70
976.78	224.71
977.07	224.71
977.37	224.73
977.66	224.74
977.95	224.72
978.24	224.73
978.54	224.76
978.83	224.75
979.12	224.74
979.42	224.75
979.71	224.72
980.00	224.72
980.29	224.72
980.59	224.70
980.88	224.74
981.17	224.74
981.46	224.74
981.76	224.74
982.05	224.78
982.34	224.78
982.63	224.78
982.93	224.78
983.22	224.81
983.51	224.81
983.80	224.83
984.09	224.85
984.39	224.84
984.68	224.82
984.97	224.83
985.26	224.82
985.55	224.83
985.85	224.80
986.14	224.82
986.43	224.84
986.72	224.83
987.01	224.79
987.30	224.79
987.59	224.78
987.89	224.79
988.18	224.75
988.47	224.74
988.76	224.73
989.05	224.72
989.34	224.70
989.63	224.73
989.92	224.71
990.22	224.69
990.51	224.69
990.80	224.67
991.09	224.69
991.38	224.70
991.67	224.69
991.96	224.68
992.25	224.68
992.54	224.65
992.83	224.66
993.12	224.65
993.41	224.67
993.70	224.72
993.99	224.74
994.28	224.76
994.58	224.78
994.87	224.77
995.16	224.77
995.45	224.76
995.74	224.71
996.03	224.73
996.32	224.75
996.61	224.78
996.90	224.78
997.19	224.77
997.48	224.77
997.77	224.76
998.06	224.77
998.34	224.76
998.63	224.76
998.92	224.76
999.21	224.78
999.50	224.78
999.79	224.73
1000.08	224.73
1000.37	224.73
1000.66	224.71
1000.95	224.74
1001.24	224.75
1001.53	224.77
1001.82	224.77
1002.11	224.73
1002.40	224.74
1002.68	224.77
1002.97	224.85
1003.26	224.84
1003.55	224.82
1003.84	224.84
1004.13	224.88
1004.42	224.87
1004.71	224.87
1004.99	224.87
1005.28	224.89
1005.57	224.89
1005.86	224.87
1006.15	224.86
1006.44	224.85
1006.72	224.86
1007.01	224.84
1007.30	224.84
1007.59	224.82
1007.88	224.82
1008.17	224.84
1008.45	224.81
1008.74	224.75
1009.03	224.70
1009.32	224.70
1009.60	224.70
1009.89	224.69
1010.18	224.64
1010.47	224.63
1010.76	224.63
1011.04	224.63
1011.33	224.62
1011.62	224.63
1011.91	224.64
1012.19	224.65
1012.48	224.65
1012.77	224.65
1013.05	224.69
1013.34	224.69
1013.63	224.69
1013.92	224.70
1014.20	224.69
1014.49	224.69
1014.78	224.71
1015.06	224.67
1015.35	224.67
1015.64	224.68
1015.92	224.70
1016.21	224.71
1016.50	224.72
1016.78	224.73
1017.07	224.74
1017.36	224.72
1017.64	224.70
1017.93	224.71
1018.22	224.70
1018.50	224.69
1018.79	224.69
1019.08	224.65
1019.36	224.65
1019.65	224.64
1019.93	224.67
1020.22	224.69
1020.51	224.76
1020.79	224.74
1021.08	224.50
1021.36	224.48
1021.65	224.69
1021.94	224.61
1022.22	224.76
1022.51	224.41
1022.79	225.29
1023.08	224.85
1023.36	226.21
1023.65	224.41
>>>>>End Processed Spectral Data<<<<<
