SpectraSuite Data File
++++++++++++++++++++++++++++++++++++
Date: Fri Oct 02 17:15:06 EDT 2015
User: lab3
Dark Spectrum Present: No
Reference Spectrum Present: No
Number of Sampled Component Spectra: 1
Spectrometers: USB2E7196
Integration Time (usec): 46000 (USB2E7196)
Spectra Averaged: 600 (USB2E7196)
Boxcar Smoothing: 10 (USB2E7196)
Correct for Electrical Dark: No (USB2E7196)
Strobe/Lamp Enabled: No (USB2E7196)
Correct for Detector Non-linearity: No (USB2E7196)
Correct for Stray Light: No (USB2E7196)
Number of Pixels in Processed Spectrum: 2048
>>>>>Begin Processed Spectral Data<<<<<
339.09	0.00
339.48	214.64
339.86	216.24
340.24	217.75
340.63	219.10
341.01	222.26
341.39	221.62
341.78	223.08
342.16	224.38
342.54	224.67
342.93	213.17
343.31	223.95
343.69	224.49
344.07	224.96
344.46	225.39
344.84	225.77
345.22	225.99
345.60	226.26
345.99	226.47
346.37	226.61
346.75	226.71
347.13	226.79
347.52	226.85
347.90	226.94
348.28	226.99
348.66	227.05
349.05	227.03
349.43	227.08
349.81	227.15
350.19	227.20
350.57	227.29
350.96	227.37
351.34	227.46
351.72	227.55
352.10	227.66
352.48	227.73
352.87	227.78
353.25	227.86
353.63	227.91
354.01	227.97
354.39	228.05
354.77	228.14
355.15	228.25
355.54	228.32
355.92	228.36
356.30	228.42
356.68	228.58
357.06	228.67
357.44	228.72
357.82	228.79
358.20	228.92
358.58	228.98
358.97	229.04
359.35	229.14
359.73	229.23
360.11	229.29
360.49	229.37
360.87	229.43
361.25	229.51
361.63	229.61
362.01	229.67
362.39	229.70
362.77	229.76
363.15	229.80
363.53	229.83
363.91	229.86
364.29	229.91
364.67	229.81
365.05	229.83
365.43	229.88
365.81	229.91
366.19	229.91
366.57	229.98
366.95	229.98
367.33	229.95
367.71	229.94
368.09	229.96
368.47	229.95
368.85	229.94
369.23	229.94
369.61	229.87
369.99	229.89
370.37	229.88
370.75	229.95
371.13	229.91
371.51	229.89
371.89	229.87
372.27	229.84
372.65	229.84
373.03	229.79
373.41	229.75
373.78	229.70
374.16	229.62
374.54	229.53
374.92	229.46
375.30	229.41
375.68	229.35
376.06	229.32
376.44	229.25
376.82	229.21
377.19	229.17
377.57	229.11
377.95	229.02
378.33	228.95
378.71	228.77
379.09	228.73
379.47	228.69
379.84	228.63
380.22	228.56
380.60	228.47
380.98	228.43
381.36	228.37
381.73	228.31
382.11	228.27
382.49	228.22
382.87	228.16
383.25	228.12
383.62	228.23
384.00	228.15
384.38	228.11
384.76	228.08
385.13	228.06
385.51	228.03
385.89	227.98
386.27	227.95
386.64	227.95
387.02	227.90
387.40	227.83
387.78	227.80
388.15	227.79
388.53	227.75
388.91	227.71
389.29	227.67
389.66	227.66
390.04	227.62
390.42	227.63
390.79	227.63
391.17	227.61
391.55	227.46
391.92	227.44
392.30	227.43
392.68	227.39
393.05	227.37
393.43	227.36
393.81	227.38
394.18	227.36
394.56	227.35
394.94	227.38
395.31	227.38
395.69	227.42
396.06	227.44
396.44	227.46
396.82	227.48
397.19	227.56
397.57	227.56
397.95	227.60
398.32	227.59
398.70	227.64
399.07	227.70
399.45	227.73
399.82	227.76
400.20	227.82
400.58	227.89
400.95	227.88
401.33	227.98
401.70	228.13
402.08	228.21
402.45	228.30
402.83	228.41
403.20	228.53
403.58	228.62
403.95	228.75
404.33	228.91
404.71	229.05
405.08	229.27
405.46	229.44
405.83	229.61
406.21	229.81
406.58	230.03
406.96	230.24
407.33	230.49
407.70	230.78
408.08	231.15
408.45	231.47
408.83	231.85
409.20	232.16
409.58	232.45
409.95	232.86
410.33	233.28
410.70	233.68
411.08	234.17
411.45	234.68
411.82	235.19
412.20	235.79
412.57	236.49
412.95	237.02
413.32	237.74
413.69	238.49
414.07	239.27
414.44	240.12
414.82	241.00
415.19	242.01
415.56	243.05
415.94	244.12
416.31	245.32
416.68	246.51
417.06	247.93
417.43	249.26
417.81	250.78
418.18	252.34
418.55	254.02
418.93	255.78
419.30	257.62
419.67	259.57
420.04	261.56
420.42	263.64
420.79	266.08
421.16	268.52
421.54	270.98
421.91	273.57
422.28	276.25
422.66	279.12
423.03	281.89
423.40	284.77
423.77	287.86
424.15	291.05
424.52	294.36
424.89	297.92
425.26	301.46
425.64	304.78
426.01	308.48
426.38	312.30
426.75	316.20
427.13	320.23
427.50	324.42
427.87	328.80
428.24	333.22
428.61	337.46
428.99	342.05
429.36	347.11
429.73	351.92
430.10	356.74
430.47	361.68
430.85	366.77
431.22	372.24
431.59	377.87
431.96	383.34
432.33	389.42
432.70	395.22
433.08	402.05
433.45	408.51
433.82	414.91
434.19	422.06
434.56	429.10
434.93	435.88
435.30	442.64
435.68	450.25
436.05	457.71
436.42	465.13
436.79	471.91
437.16	479.20
437.53	487.04
437.90	494.90
438.27	502.56
438.64	510.83
439.01	518.35
439.38	525.21
439.75	531.82
440.13	539.26
440.50	546.34
440.87	551.98
441.24	558.08
441.61	564.76
441.98	569.60
442.35	575.36
442.72	581.23
443.09	586.77
443.46	590.25
443.83	592.77
444.20	594.84
444.57	597.95
444.94	599.65
445.31	601.42
445.68	602.85
446.05	603.87
446.42	603.30
446.79	602.53
447.16	601.79
447.53	601.12
447.90	598.52
448.27	596.00
448.64	592.34
449.01	589.76
449.37	584.79
449.74	580.25
450.11	574.47
450.48	568.17
450.85	561.91
451.22	556.54
451.59	551.28
451.96	546.52
452.33	539.73
452.70	533.67
453.07	526.32
453.43	519.03
453.80	511.93
454.17	505.16
454.54	498.94
454.91	491.94
455.28	485.38
455.65	479.21
456.02	472.72
456.38	467.45
456.75	460.70
457.12	455.25
457.49	449.79
457.86	444.66
458.23	440.16
458.59	435.18
458.96	430.09
459.33	425.63
459.70	421.08
460.07	417.64
460.43	413.60
460.80	409.82
461.17	406.52
461.54	402.96
461.91	399.65
462.27	396.26
462.64	393.54
463.01	390.40
463.38	387.22
463.74	384.36
464.11	381.85
464.48	379.63
464.85	377.17
465.21	375.34
465.58	373.29
465.95	370.92
466.32	369.04
466.68	367.19
467.05	365.32
467.42	363.50
467.78	361.52
468.15	359.69
468.52	358.40
468.88	356.63
469.25	355.01
469.62	353.73
469.98	352.32
470.35	351.07
470.72	349.96
471.08	348.83
471.45	347.88
471.82	346.80
472.18	345.64
472.55	344.94
472.92	344.02
473.28	343.29
473.65	342.49
474.02	341.76
474.38	341.13
474.75	340.77
475.11	340.27
475.48	340.05
475.85	339.82
476.21	339.69
476.58	339.63
476.94	339.79
477.31	339.87
477.67	339.96
478.04	340.19
478.41	340.46
478.77	340.88
479.14	341.15
479.50	341.68
479.87	342.34
480.23	342.97
480.60	343.64
480.96	344.30
481.33	345.31
481.69	346.31
482.06	347.29
482.42	348.18
482.79	349.31
483.15	350.60
483.52	352.05
483.88	353.44
484.25	354.94
484.61	356.47
484.98	358.15
485.34	360.07
485.71	362.06
486.07	364.19
486.44	366.32
486.80	368.66
487.17	371.12
487.53	373.82
487.90	376.65
488.26	379.69
488.62	382.93
488.99	386.15
489.35	389.52
489.72	393.21
490.08	397.09
490.44	401.09
490.81	405.27
491.17	409.54
491.54	414.11
491.90	418.84
492.26	423.92
492.63	429.23
492.99	434.74
493.36	440.49
493.72	446.52
494.08	452.66
494.45	459.22
494.81	466.01
495.17	472.99
495.54	480.35
495.90	488.02
496.26	495.85
496.63	503.95
496.99	512.35
497.35	521.13
497.72	530.21
498.08	539.49
498.44	549.06
498.80	559.23
499.17	569.66
499.53	580.38
499.89	591.48
500.26	602.79
500.62	614.41
500.98	626.61
501.34	639.01
501.71	651.99
502.07	665.12
502.43	678.78
502.79	692.63
503.16	706.95
503.52	721.43
503.88	736.37
504.24	751.73
504.60	767.34
504.97	783.41
505.33	799.88
505.69	817.26
506.05	834.94
506.41	852.54
506.78	870.33
507.14	888.65
507.50	907.40
507.86	926.48
508.22	945.79
508.59	964.92
508.95	984.87
509.31	1005.48
509.67	1026.81
510.03	1048.09
510.39	1069.48
510.75	1091.06
511.12	1112.92
511.48	1134.90
511.84	1156.92
512.20	1179.29
512.56	1202.51
512.92	1225.74
513.28	1248.61
513.64	1271.69
514.00	1295.21
514.37	1319.01
514.73	1342.78
515.09	1366.47
515.45	1390.47
515.81	1414.60
516.17	1438.94
516.53	1462.71
516.89	1486.35
517.25	1510.15
517.61	1533.85
517.97	1558.00
518.33	1581.60
518.69	1605.15
519.05	1629.18
519.41	1653.51
519.77	1677.97
520.13	1701.70
520.49	1725.37
520.85	1749.34
521.21	1772.86
521.57	1796.77
521.93	1820.17
522.29	1844.02
522.65	1867.37
523.01	1890.65
523.37	1913.53
523.73	1937.08
524.09	1960.37
524.45	1983.41
524.81	2006.06
525.17	2028.60
525.53	2050.48
525.89	2072.85
526.25	2095.06
526.61	2116.31
526.97	2137.68
527.33	2159.08
527.68	2180.18
528.04	2200.46
528.40	2219.84
528.76	2239.55
529.12	2258.67
529.48	2277.36
529.84	2294.45
530.20	2312.08
530.56	2329.10
530.91	2346.26
531.27	2363.04
531.63	2379.06
531.99	2394.70
532.35	2409.67
532.71	2424.65
533.07	2440.31
533.42	2454.20
533.78	2469.06
534.14	2484.09
534.50	2498.14
534.86	2511.96
535.21	2523.91
535.57	2536.26
535.93	2548.43
536.29	2559.49
536.65	2570.39
537.00	2580.72
537.36	2591.83
537.72	2601.50
538.08	2610.76
538.44	2619.37
538.79	2627.56
539.15	2634.90
539.51	2641.82
539.87	2648.17
540.22	2652.67
540.58	2657.25
540.94	2662.98
541.29	2667.19
541.65	2669.63
542.01	2671.48
542.37	2672.58
542.72	2674.95
543.08	2675.86
543.44	2677.16
543.79	2677.45
544.15	2676.97
544.51	2676.89
544.87	2675.70
545.22	2673.80
545.58	2671.29
545.94	2668.75
546.29	2664.98
546.65	2661.20
547.01	2657.38
547.36	2654.16
547.72	2651.08
548.07	2646.30
548.43	2640.07
548.79	2633.08
549.14	2627.31
549.50	2621.69
549.86	2615.31
550.21	2607.78
550.57	2601.14
550.92	2592.36
551.28	2584.06
551.64	2576.07
551.99	2567.56
552.35	2558.57
552.70	2549.87
553.06	2541.39
553.41	2532.39
553.77	2523.17
554.13	2513.89
554.48	2503.84
554.84	2492.60
555.19	2481.83
555.55	2471.11
555.90	2460.48
556.26	2450.29
556.61	2439.05
556.97	2426.27
557.32	2413.97
557.68	2401.72
558.03	2389.15
558.39	2377.75
558.74	2366.69
559.10	2353.99
559.45	2341.59
559.81	2329.79
560.16	2317.24
560.52	2304.98
560.87	2292.98
561.23	2280.20
561.58	2267.64
561.94	2254.69
562.29	2241.17
562.64	2228.49
563.00	2215.40
563.35	2202.80
563.71	2189.97
564.06	2177.06
564.42	2164.88
564.77	2152.08
565.12	2139.22
565.48	2126.36
565.83	2113.51
566.19	2100.76
566.54	2087.95
566.89	2074.03
567.25	2060.25
567.60	2047.83
567.96	2034.57
568.31	2020.06
568.66	2006.21
569.02	1993.41
569.37	1980.64
569.72	1968.45
570.08	1954.88
570.43	1941.12
570.78	1927.12
571.14	1912.50
571.49	1898.54
571.84	1885.15
572.20	1870.56
572.55	1856.24
572.90	1841.78
573.26	1827.32
573.61	1812.35
573.96	1797.90
574.31	1783.73
574.67	1769.50
575.02	1754.41
575.37	1739.36
575.72	1725.16
576.08	1711.31
576.43	1696.34
576.78	1681.76
577.13	1667.45
577.49	1653.51
577.84	1640.13
578.19	1625.82
578.54	1611.78
578.90	1597.24
579.25	1582.58
579.60	1569.45
579.95	1556.19
580.30	1542.81
580.66	1529.16
581.01	1515.51
581.36	1501.82
581.71	1489.12
582.06	1476.33
582.42	1463.73
582.77	1451.16
583.12	1438.56
583.47	1425.83
583.82	1413.22
584.17	1400.28
584.53	1387.08
584.88	1374.22
585.23	1360.97
585.58	1348.54
585.93	1336.29
586.28	1324.78
586.63	1313.26
586.98	1301.25
587.34	1289.30
587.69	1277.13
588.04	1265.29
588.39	1253.83
588.74	1242.47
589.09	1230.85
589.44	1218.90
589.79	1207.57
590.14	1196.40
590.49	1185.12
590.84	1173.99
591.19	1163.26
591.54	1152.35
591.89	1141.56
592.25	1130.97
592.60	1120.02
592.95	1109.50
593.30	1099.09
593.65	1088.46
594.00	1077.88
594.35	1067.94
594.70	1057.55
595.05	1048.01
595.40	1038.36
595.75	1028.54
596.10	1019.28
596.45	1009.74
596.80	1000.52
597.15	991.08
597.50	981.76
597.85	972.81
598.19	963.75
598.54	954.76
598.89	946.20
599.24	937.90
599.59	929.43
599.94	921.88
600.29	914.13
600.64	906.14
600.99	897.78
601.34	889.81
601.69	881.45
602.04	873.80
602.39	865.95
602.74	858.19
603.08	850.39
603.43	842.59
603.78	834.96
604.13	827.45
604.48	819.94
604.83	812.58
605.18	805.17
605.53	797.90
605.87	790.40
606.22	783.23
606.57	776.03
606.92	768.75
607.27	761.35
607.62	754.23
607.96	747.54
608.31	741.28
608.66	734.83
609.01	728.69
609.36	722.63
609.70	716.36
610.05	710.10
610.40	704.05
610.75	697.96
611.10	692.19
611.44	686.31
611.79	680.49
612.14	674.64
612.49	668.90
612.83	663.41
613.18	658.07
613.53	652.59
613.88	647.19
614.22	642.14
614.57	637.05
614.92	631.82
615.27	626.68
615.61	621.58
615.96	616.54
616.31	611.51
616.65	606.53
617.00	601.74
617.35	597.03
617.70	592.42
618.04	587.81
618.39	583.18
618.74	578.79
619.08	574.45
619.43	570.18
619.78	565.92
620.12	561.65
620.47	557.54
620.82	553.54
621.16	549.53
621.51	545.42
621.85	541.34
622.20	537.49
622.55	533.65
622.89	529.85
623.24	526.07
623.59	522.29
623.93	518.67
624.28	515.14
624.62	511.74
624.97	508.34
625.32	504.98
625.66	501.49
626.01	497.97
626.35	494.52
626.70	491.15
627.04	487.92
627.39	484.63
627.73	481.51
628.08	478.46
628.43	475.42
628.77	472.45
629.12	469.57
629.46	466.68
629.81	463.71
630.15	460.75
630.50	457.93
630.84	455.12
631.19	452.39
631.53	449.75
631.88	447.05
632.22	444.39
632.57	441.96
632.91	439.63
633.26	437.37
633.60	435.09
633.95	432.90
634.29	430.62
634.64	428.40
634.98	425.97
635.32	423.73
635.67	421.66
636.01	419.53
636.36	417.45
636.70	415.48
637.05	413.52
637.39	411.60
637.73	409.67
638.08	407.90
638.42	406.07
638.77	404.12
639.11	402.12
639.45	400.18
639.80	398.20
640.14	396.31
640.49	394.41
640.83	392.49
641.17	390.64
641.52	388.81
641.86	387.04
642.20	385.47
642.55	383.72
642.89	382.00
643.23	380.37
643.58	378.88
643.92	377.29
644.26	375.74
644.61	374.24
644.95	372.70
645.29	371.09
645.64	369.50
645.98	368.00
646.32	366.61
646.66	365.20
647.01	363.81
647.35	362.46
647.69	361.09
648.04	359.85
648.38	358.55
648.72	357.27
649.06	355.96
649.41	354.68
649.75	353.45
650.09	352.23
650.43	351.01
650.78	349.76
651.12	348.53
651.46	347.35
651.80	346.20
652.14	345.07
652.49	343.99
652.83	342.87
653.17	341.81
653.51	340.77
653.85	339.79
654.20	338.74
654.54	337.63
654.88	336.60
655.22	335.59
655.56	334.55
655.90	333.59
656.25	332.65
656.59	331.70
656.93	330.78
657.27	329.88
657.61	328.92
657.95	327.99
658.29	327.08
658.64	326.22
658.98	325.34
659.32	324.48
659.66	323.66
660.00	322.86
660.34	322.07
660.68	321.26
661.02	320.39
661.36	319.56
661.70	318.77
662.05	318.00
662.39	317.24
662.73	316.57
663.07	315.88
663.41	315.15
663.75	314.41
664.09	313.70
664.43	312.92
664.77	312.24
665.11	311.51
665.45	310.83
665.79	310.17
666.13	309.48
666.47	308.77
666.81	308.04
667.15	307.30
667.49	306.62
667.83	306.00
668.17	305.37
668.51	304.81
668.85	304.24
669.19	303.72
669.53	303.08
669.87	302.43
670.21	301.81
670.55	301.23
670.89	300.72
671.23	300.17
671.57	299.65
671.91	299.15
672.25	298.68
672.58	298.18
672.92	297.61
673.26	297.12
673.60	296.65
673.94	296.19
674.28	295.76
674.62	295.30
674.96	294.80
675.30	294.33
675.64	293.82
675.97	293.31
676.31	292.74
676.65	292.26
676.99	291.85
677.33	291.35
677.67	290.90
678.01	290.37
678.34	289.91
678.68	289.48
679.02	288.98
679.36	288.50
679.70	288.03
680.04	287.59
680.37	287.14
680.71	286.70
681.05	286.27
681.39	285.80
681.73	285.32
682.06	284.84
682.40	284.41
682.74	284.00
683.08	283.66
683.42	283.27
683.75	282.90
684.09	282.43
684.43	282.05
684.77	281.62
685.10	281.28
685.44	280.88
685.78	280.48
686.12	280.13
686.45	279.73
686.79	279.32
687.13	278.96
687.46	278.55
687.80	278.17
688.14	277.74
688.48	277.39
688.81	277.01
689.15	276.68
689.49	276.29
689.82	275.91
690.16	275.44
690.50	275.06
690.83	274.67
691.17	274.28
691.51	273.88
691.84	273.54
692.18	273.13
692.52	272.71
692.85	272.31
693.19	271.97
693.52	271.60
693.86	271.22
694.20	270.85
694.53	270.50
694.87	270.09
695.21	269.73
695.54	269.34
695.88	268.96
696.21	268.56
696.55	268.21
696.88	267.86
697.22	267.51
697.56	267.15
697.89	266.75
698.23	266.40
698.56	266.02
698.90	265.65
699.23	265.27
699.57	264.94
699.90	264.57
700.24	264.19
700.58	263.88
700.91	263.59
701.25	263.37
701.58	263.08
701.92	262.81
702.25	262.50
702.59	262.17
702.92	261.86
703.26	261.54
703.59	261.19
703.93	260.97
704.26	260.66
704.60	260.35
704.93	260.03
705.26	259.71
705.60	259.46
705.93	259.13
706.27	258.88
706.60	258.61
706.94	258.38
707.27	258.04
707.61	257.73
707.94	257.40
708.27	256.98
708.61	256.63
708.94	256.32
709.28	256.04
709.61	255.74
709.94	255.48
710.28	255.23
710.61	255.00
710.95	254.63
711.28	254.43
711.61	254.15
711.95	253.95
712.28	253.68
712.61	253.40
712.95	253.22
713.28	253.01
713.61	252.72
713.95	252.43
714.28	252.20
714.61	251.96
714.95	251.72
715.28	251.47
715.61	251.28
715.95	251.05
716.28	250.83
716.61	250.64
716.95	250.38
717.28	250.16
717.61	249.92
717.94	249.71
718.28	249.39
718.61	249.18
718.94	248.92
719.27	248.71
719.61	248.53
719.94	248.29
720.27	248.02
720.60	247.82
720.94	247.63
721.27	247.43
721.60	247.24
721.93	247.04
722.27	246.89
722.60	246.69
722.93	246.49
723.26	246.30
723.59	246.08
723.93	245.90
724.26	245.71
724.59	245.52
724.92	245.34
725.25	245.22
725.59	245.05
725.92	244.92
726.25	244.75
726.58	244.55
726.91	244.38
727.24	244.22
727.57	244.05
727.91	243.88
728.24	243.74
728.57	243.57
728.90	243.42
729.23	243.21
729.56	243.10
729.89	242.94
730.22	242.75
730.55	242.61
730.89	242.45
731.22	242.30
731.55	242.15
731.88	242.01
732.21	241.83
732.54	241.67
732.87	241.53
733.20	241.41
733.53	241.26
733.86	241.13
734.19	240.97
734.52	240.86
734.85	240.80
735.18	240.63
735.51	240.54
735.84	240.40
736.17	240.31
736.50	240.12
736.83	240.14
737.16	240.03
737.49	239.92
737.82	239.79
738.15	239.68
738.48	239.57
738.81	239.45
739.14	239.32
739.47	239.19
739.80	239.06
740.13	238.92
740.46	238.78
740.79	238.66
741.12	238.55
741.45	238.42
741.78	238.22
742.11	238.14
742.44	237.99
742.77	237.89
743.10	237.75
743.43	237.63
743.75	237.38
744.08	237.46
744.41	237.33
744.74	237.22
745.07	237.08
745.40	236.98
745.73	236.92
746.06	236.83
746.39	236.74
746.71	236.64
747.04	236.54
747.37	236.45
747.70	236.37
748.03	236.28
748.36	236.20
748.68	236.11
749.01	235.99
749.34	235.90
749.67	235.81
750.00	235.74
750.33	235.76
750.65	235.69
750.98	235.41
751.31	235.33
751.64	235.25
751.97	235.22
752.29	235.13
752.62	235.00
752.95	234.90
753.28	234.80
753.60	234.71
753.93	234.65
754.26	234.57
754.59	234.44
754.91	234.35
755.24	234.25
755.57	234.21
755.90	234.14
756.22	234.04
756.55	233.95
756.88	233.85
757.20	233.68
757.53	233.56
757.86	233.48
758.19	233.41
758.51	233.34
758.84	233.22
759.17	233.13
759.49	233.07
759.82	233.06
760.15	233.00
760.47	232.94
760.80	232.84
761.13	232.79
761.45	232.74
761.78	232.67
762.11	232.60
762.43	232.48
762.76	232.42
763.08	232.39
763.41	232.33
763.74	232.28
764.06	232.22
764.39	232.18
764.71	232.13
765.04	232.06
765.37	231.99
765.69	231.93
766.02	231.88
766.34	231.81
766.67	231.70
767.00	231.67
767.32	231.68
767.65	231.71
767.97	231.65
768.30	231.60
768.62	231.56
768.95	231.50
769.27	231.45
769.60	231.41
769.92	231.33
770.25	231.27
770.57	231.20
770.90	231.16
771.22	231.09
771.55	231.05
771.87	231.02
772.20	230.98
772.52	231.04
772.85	231.14
773.17	231.11
773.50	231.07
773.82	231.02
774.15	230.91
774.47	230.80
774.80	230.74
775.12	230.71
775.45	230.67
775.77	230.64
776.09	230.63
776.42	230.59
776.74	230.60
777.07	230.55
777.39	230.52
777.72	230.49
778.04	230.48
778.36	230.44
778.69	230.41
779.01	230.38
779.33	230.24
779.66	230.07
779.98	230.03
780.31	230.00
780.63	230.02
780.95	230.03
781.28	229.99
781.60	229.96
781.92	229.92
782.25	229.89
782.57	229.87
782.89	229.83
783.22	229.81
783.54	229.75
783.86	229.73
784.19	229.71
784.51	229.72
784.83	229.68
785.16	229.66
785.48	229.62
785.80	229.59
786.12	229.60
786.45	229.57
786.77	229.56
787.09	229.54
787.42	229.47
787.74	229.45
788.06	229.43
788.38	229.40
788.71	229.37
789.03	229.37
789.35	229.37
789.67	229.32
789.99	229.30
790.32	229.27
790.64	229.27
790.96	229.36
791.28	229.29
791.61	229.25
791.93	229.24
792.25	229.22
792.57	229.30
792.89	229.24
793.21	229.23
793.54	229.19
793.86	229.16
794.18	229.14
794.50	229.09
794.82	229.08
795.14	229.09
795.47	229.11
795.79	229.07
796.11	229.03
796.43	229.01
796.75	228.98
797.07	228.97
797.39	228.95
797.71	228.83
798.04	228.82
798.36	228.82
798.68	228.80
799.00	228.79
799.32	228.71
799.64	228.73
799.96	228.70
800.28	228.73
800.60	228.69
800.92	228.69
801.24	228.66
801.56	228.66
801.89	228.62
802.21	228.60
802.53	228.57
802.85	228.58
803.17	228.63
803.49	228.59
803.81	228.57
804.13	228.55
804.45	228.53
804.77	228.53
805.09	228.52
805.41	228.48
805.73	228.45
806.05	228.40
806.37	228.37
806.69	228.35
807.01	228.32
807.33	228.33
807.65	228.26
807.97	228.32
808.28	228.29
808.60	228.27
808.92	228.24
809.24	228.32
809.56	228.28
809.88	228.21
810.20	228.21
810.52	228.22
810.84	228.19
811.16	228.16
811.48	228.13
811.80	228.16
812.12	228.16
812.43	228.19
812.75	228.19
813.07	228.18
813.39	228.18
813.71	228.16
814.03	228.15
814.35	228.14
814.67	228.08
814.98	228.05
815.30	228.04
815.62	228.01
815.94	227.92
816.26	227.93
816.58	227.89
816.89	227.90
817.21	227.87
817.53	227.87
817.85	227.86
818.17	227.86
818.48	227.81
818.80	227.81
819.12	227.78
819.44	227.75
819.76	227.73
820.07	227.72
820.39	227.71
820.71	227.68
821.03	227.69
821.34	227.69
821.66	227.70
821.98	227.71
822.30	227.69
822.61	227.76
822.93	227.73
823.25	227.72
823.57	227.70
823.88	227.70
824.20	227.70
824.52	227.72
824.83	227.71
825.15	227.68
825.47	227.67
825.79	227.67
826.10	227.66
826.42	227.65
826.74	227.65
827.05	227.64
827.37	227.64
827.69	227.62
828.00	227.61
828.32	227.61
828.64	227.60
828.95	227.67
829.27	227.61
829.58	227.62
829.90	227.64
830.22	227.64
830.53	227.63
830.85	227.60
831.17	227.56
831.48	227.56
831.80	227.57
832.11	227.56
832.43	227.54
832.75	227.54
833.06	227.61
833.38	227.57
833.69	227.56
834.01	227.56
834.32	227.55
834.64	227.54
834.96	227.53
835.27	227.50
835.59	227.46
835.90	227.44
836.22	227.43
836.53	227.40
836.85	227.39
837.16	227.50
837.48	227.50
837.79	227.54
838.11	227.53
838.42	227.53
838.74	227.52
839.05	227.51
839.37	227.49
839.68	227.41
840.00	227.41
840.31	227.42
840.63	227.40
840.94	227.40
841.26	227.37
841.57	227.38
841.88	227.39
842.20	227.37
842.51	227.35
842.83	227.34
843.14	227.44
843.46	227.42
843.77	227.34
844.08	227.34
844.40	227.29
844.71	227.28
845.03	227.26
845.34	227.25
845.65	227.26
845.97	227.26
846.28	227.24
846.60	227.23
846.91	227.21
847.22	227.22
847.54	227.25
847.85	227.26
848.16	227.25
848.48	227.22
848.79	227.26
849.10	227.27
849.42	227.28
849.73	227.17
850.04	227.17
850.36	227.12
850.67	227.15
850.98	227.15
851.30	227.16
851.61	227.16
851.92	227.15
852.23	227.17
852.55	227.18
852.86	227.19
853.17	227.20
853.49	227.23
853.80	227.24
854.11	227.24
854.42	227.25
854.74	227.24
855.05	227.23
855.36	227.18
855.67	227.19
855.99	227.18
856.30	227.32
856.61	227.32
856.92	227.33
857.23	227.33
857.55	227.31
857.86	227.29
858.17	227.32
858.48	227.30
858.79	227.27
859.11	227.29
859.42	227.29
859.73	227.27
860.04	227.26
860.35	227.24
860.66	227.19
860.98	227.19
861.29	227.20
861.60	227.20
861.91	227.23
862.22	227.21
862.53	227.19
862.84	227.05
863.16	227.07
863.47	227.05
863.78	227.04
864.09	227.05
864.40	227.05
864.71	227.06
865.02	227.08
865.33	227.06
865.64	227.04
865.95	227.03
866.27	227.11
866.58	227.11
866.89	227.12
867.20	227.12
867.51	227.10
867.82	227.10
868.13	227.14
868.44	227.11
868.75	227.14
869.06	227.15
869.37	227.17
869.68	227.14
869.99	227.14
870.30	227.16
870.61	227.18
870.92	227.16
871.23	227.13
871.54	227.14
871.85	227.17
872.16	227.19
872.47	227.18
872.78	227.10
873.09	227.10
873.40	227.08
873.71	227.09
874.02	227.09
874.33	227.08
874.64	227.05
874.95	227.07
875.26	227.03
875.56	227.03
875.87	227.00
876.18	227.02
876.49	227.15
876.80	227.14
877.11	227.11
877.42	227.12
877.73	227.13
878.04	227.11
878.35	227.10
878.66	227.11
878.96	227.12
879.27	227.12
879.58	227.11
879.89	227.11
880.20	227.13
880.51	227.14
880.82	227.12
881.12	227.13
881.43	227.12
881.74	227.11
882.05	227.11
882.36	227.13
882.67	227.13
882.97	227.00
883.28	226.99
883.59	226.98
883.90	227.00
884.21	227.01
884.51	227.00
884.82	226.98
885.13	226.96
885.44	226.96
885.74	226.96
886.05	226.95
886.36	226.96
886.67	226.92
886.98	226.98
887.28	226.99
887.59	226.98
887.90	226.97
888.20	226.96
888.51	226.98
888.82	226.96
889.13	226.96
889.43	227.07
889.74	227.05
890.05	227.05
890.35	227.02
890.66	227.01
890.97	227.01
891.28	227.00
891.58	227.01
891.89	226.99
892.20	226.99
892.50	226.98
892.81	226.97
893.12	226.97
893.42	226.90
893.73	226.90
894.04	226.91
894.34	226.90
894.65	226.92
894.95	226.90
895.26	226.89
895.57	226.94
895.87	226.81
896.18	226.84
896.48	226.85
896.79	226.85
897.10	226.86
897.40	226.85
897.71	226.88
898.01	226.86
898.32	226.88
898.63	226.89
898.93	226.89
899.24	226.90
899.54	226.88
899.85	226.88
900.15	226.87
900.46	226.88
900.76	226.89
901.07	226.87
901.38	226.87
901.68	226.91
901.99	226.85
902.29	226.85
902.60	226.84
902.90	226.82
903.21	226.82
903.51	226.81
903.82	226.84
904.12	226.83
904.43	226.84
904.73	226.84
905.03	226.84
905.34	226.96
905.64	226.95
905.95	226.95
906.25	226.96
906.56	226.96
906.86	226.96
907.17	226.95
907.47	226.98
907.77	226.97
908.08	226.94
908.38	226.95
908.69	226.96
908.99	226.98
909.30	226.99
909.60	226.99
909.90	227.00
910.21	226.96
910.51	226.95
910.81	226.95
911.12	226.94
911.42	226.94
911.73	226.80
912.03	226.81
912.33	226.84
912.64	226.83
912.94	226.82
913.24	226.79
913.55	226.78
913.85	226.77
914.15	226.80
914.46	226.81
914.76	226.80
915.06	226.80
915.37	226.78
915.67	226.78
915.97	226.78
916.27	226.76
916.58	226.76
916.88	226.74
917.18	226.75
917.49	226.83
917.79	226.84
918.09	226.87
918.39	226.89
918.70	226.87
919.00	226.87
919.30	226.92
919.60	226.93
919.91	226.92
920.21	226.92
920.51	226.89
920.81	226.88
921.12	226.89
921.42	226.88
921.72	226.88
922.02	226.88
922.32	226.90
922.63	226.90
922.93	226.99
923.23	226.99
923.53	226.98
923.83	226.89
924.13	226.89
924.44	226.88
924.74	226.90
925.04	226.93
925.34	226.94
925.64	226.89
925.94	226.87
926.24	226.95
926.55	226.92
926.85	226.94
927.15	226.94
927.45	226.94
927.75	226.93
928.05	226.94
928.35	226.94
928.65	226.95
928.95	226.96
929.26	226.90
929.56	226.93
929.86	226.94
930.16	226.93
930.46	226.93
930.76	226.93
931.06	226.89
931.36	226.86
931.66	226.89
931.96	226.90
932.26	226.91
932.56	226.87
932.86	226.88
933.16	226.87
933.46	226.87
933.76	226.86
934.06	226.88
934.36	226.92
934.66	226.92
934.96	226.90
935.26	226.90
935.56	226.92
935.86	226.87
936.16	226.87
936.46	226.86
936.76	226.84
937.06	226.82
937.36	226.82
937.66	226.82
937.96	226.81
938.26	226.79
938.56	226.77
938.86	226.76
939.16	226.80
939.46	226.83
939.76	226.83
940.06	226.82
940.35	226.80
940.65	226.74
940.95	226.74
941.25	226.71
941.55	226.69
941.85	226.68
942.15	226.71
942.45	226.74
942.75	226.73
943.04	226.75
943.34	226.79
943.64	226.79
943.94	226.76
944.24	226.74
944.54	226.75
944.84	226.74
945.13	226.74
945.43	226.70
945.73	226.68
946.03	226.64
946.33	226.62
946.62	226.60
946.92	226.61
947.22	226.61
947.52	226.63
947.82	226.64
948.11	226.62
948.41	226.58
948.71	226.55
949.01	226.54
949.31	226.52
949.60	226.50
949.90	226.51
950.20	226.51
950.50	226.52
950.79	226.51
951.09	226.55
951.39	226.54
951.69	226.54
951.98	226.56
952.28	226.58
952.58	226.58
952.87	226.58
953.17	226.60
953.47	226.58
953.76	226.58
954.06	226.55
954.36	226.55
954.66	226.56
954.95	226.60
955.25	226.62
955.55	226.63
955.84	226.61
956.14	226.62
956.44	226.63
956.73	226.61
957.03	226.61
957.32	226.61
957.62	226.60
957.92	226.64
958.21	226.62
958.51	226.77
958.81	226.81
959.10	226.82
959.40	226.85
959.69	226.86
959.99	226.87
960.29	226.88
960.58	226.87
960.88	226.90
961.17	226.88
961.47	226.88
961.76	226.87
962.06	226.89
962.36	226.88
962.65	226.88
962.95	226.88
963.24	226.87
963.54	226.87
963.83	226.87
964.13	226.85
964.42	226.86
964.72	226.75
965.01	226.73
965.31	226.72
965.60	226.70
965.90	226.78
966.19	226.75
966.49	226.76
966.78	226.75
967.08	226.74
967.37	226.74
967.67	226.72
967.96	226.75
968.26	226.74
968.55	226.75
968.85	226.74
969.14	226.74
969.43	226.74
969.73	226.71
970.02	226.71
970.32	226.70
970.61	226.66
970.91	226.62
971.20	226.60
971.49	226.58
971.79	226.58
972.08	226.49
972.38	226.49
972.67	226.48
972.96	226.49
973.26	226.45
973.55	226.49
973.85	226.49
974.14	226.47
974.43	226.48
974.73	226.46
975.02	226.45
975.31	226.45
975.61	226.46
975.90	226.46
976.19	226.47
976.49	226.48
976.78	226.51
977.07	226.52
977.37	226.53
977.66	226.55
977.95	226.54
978.24	226.56
978.54	226.58
978.83	226.58
979.12	226.58
979.42	226.58
979.71	226.56
980.00	226.56
980.29	226.56
980.59	226.53
980.88	226.56
981.17	226.58
981.46	226.58
981.76	226.58
982.05	226.62
982.34	226.62
982.63	226.62
982.93	226.61
983.22	226.64
983.51	226.65
983.80	226.67
984.09	226.68
984.39	226.67
984.68	226.66
984.97	226.67
985.26	226.67
985.55	226.70
985.85	226.68
986.14	226.70
986.43	226.70
986.72	226.71
987.01	226.67
987.30	226.66
987.59	226.66
987.89	226.66
988.18	226.63
988.47	226.62
988.76	226.60
989.05	226.60
989.34	226.57
989.63	226.60
989.92	226.60
990.22	226.57
990.51	226.58
990.80	226.57
991.09	226.58
991.38	226.58
991.67	226.56
991.96	226.54
992.25	226.55
992.54	226.54
992.83	226.53
993.12	226.52
993.41	226.56
993.70	226.60
993.99	226.63
994.28	226.64
994.58	226.66
994.87	226.65
995.16	226.65
995.45	226.66
995.74	226.61
996.03	226.63
996.32	226.66
996.61	226.68
996.90	226.68
997.19	226.68
997.48	226.69
997.77	226.67
998.06	226.69
998.34	226.67
998.63	226.67
998.92	226.68
999.21	226.71
999.50	226.69
999.79	226.65
1000.08	226.62
1000.37	226.63
1000.66	226.62
1000.95	226.65
1001.24	226.65
1001.53	226.66
1001.82	226.66
1002.11	226.62
1002.40	226.62
1002.68	226.65
1002.97	226.75
1003.26	226.73
1003.55	226.72
1003.84	226.74
1004.13	226.80
1004.42	226.80
1004.71	226.79
1004.99	226.79
1005.28	226.81
1005.57	226.81
1005.86	226.80
1006.15	226.81
1006.44	226.78
1006.72	226.77
1007.01	226.76
1007.30	226.76
1007.59	226.74
1007.88	226.75
1008.17	226.75
1008.45	226.72
1008.74	226.66
1009.03	226.61
1009.32	226.61
1009.60	226.60
1009.89	226.58
1010.18	226.52
1010.47	226.52
1010.76	226.52
1011.04	226.51
1011.33	226.51
1011.62	226.53
1011.91	226.54
1012.19	226.54
1012.48	226.55
1012.77	226.56
1013.05	226.60
1013.34	226.60
1013.63	226.58
1013.92	226.59
1014.20	226.58
1014.49	226.59
1014.78	226.60
1015.06	226.56
1015.35	226.56
1015.64	226.58
1015.92	226.59
1016.21	226.60
1016.50	226.58
1016.78	226.59
1017.07	226.61
1017.36	226.59
1017.64	226.56
1017.93	226.57
1018.22	226.55
1018.50	226.54
1018.79	226.52
1019.08	226.48
1019.36	226.50
1019.65	226.50
1019.93	226.52
1020.22	226.55
1020.51	226.61
1020.79	226.58
1021.08	226.23
1021.36	226.20
1021.65	226.43
1021.94	226.52
1022.22	226.84
1022.51	226.30
1022.79	227.18
1023.08	226.85
1023.36	227.87
1023.65	226.06
>>>>>End Processed Spectral Data<<<<<
