SpectraSuite Data File
++++++++++++++++++++++++++++++++++++
Date: Sat Oct 03 18:47:29 EDT 2015
User: lab3
Dark Spectrum Present: No
Reference Spectrum Present: No
Number of Sampled Component Spectra: 1
Spectrometers: USB2E7196
Integration Time (usec): 46000 (USB2E7196)
Spectra Averaged: 24000 (USB2E7196)
Boxcar Smoothing: 10 (USB2E7196)
Correct for Electrical Dark: No (USB2E7196)
Strobe/Lamp Enabled: No (USB2E7196)
Correct for Detector Non-linearity: No (USB2E7196)
Correct for Stray Light: No (USB2E7196)
Number of Pixels in Processed Spectrum: 2048
>>>>>Begin Processed Spectral Data<<<<<
339.09	0.00
339.48	214.42
339.86	215.88
340.24	217.23
340.63	218.65
341.01	221.95
341.39	221.39
341.78	222.75
342.16	224.00
342.54	224.39
342.93	212.83
343.31	223.58
343.69	224.12
344.07	224.58
344.46	225.02
344.84	225.41
345.22	225.63
345.60	225.89
345.99	226.08
346.37	226.22
346.75	226.33
347.13	226.41
347.52	226.48
347.90	226.57
348.28	226.61
348.66	226.67
349.05	226.67
349.43	226.72
349.81	226.78
350.19	226.84
350.57	226.91
350.96	226.99
351.34	227.09
351.72	227.18
352.10	227.29
352.48	227.37
352.87	227.42
353.25	227.48
353.63	227.55
354.01	227.61
354.39	227.69
354.77	227.77
355.15	227.87
355.54	227.92
355.92	227.95
356.30	228.02
356.68	228.17
357.06	228.25
357.44	228.30
357.82	228.35
358.20	228.47
358.58	228.53
358.97	228.59
359.35	228.68
359.73	228.76
360.11	228.81
360.49	228.87
360.87	228.91
361.25	228.98
361.63	229.06
362.01	229.11
362.39	229.14
362.77	229.19
363.15	229.21
363.53	229.25
363.91	229.28
364.29	229.30
364.67	229.21
365.05	229.23
365.43	229.26
365.81	229.29
366.19	229.31
366.57	229.37
366.95	229.37
367.33	229.34
367.71	229.33
368.09	229.35
368.47	229.34
368.85	229.34
369.23	229.35
369.61	229.29
369.99	229.31
370.37	229.31
370.75	229.38
371.13	229.35
371.51	229.30
371.89	229.29
372.27	229.27
372.65	229.24
373.03	229.20
373.41	229.16
373.78	229.11
374.16	229.01
374.54	228.92
374.92	228.87
375.30	228.83
375.68	228.76
376.06	228.72
376.44	228.66
376.82	228.62
377.19	228.57
377.57	228.52
377.95	228.43
378.33	228.37
378.71	228.21
379.09	228.16
379.47	228.13
379.84	228.07
380.22	228.00
380.60	227.93
380.98	227.88
381.36	227.83
381.73	227.77
382.11	227.75
382.49	227.71
382.87	227.65
383.25	227.61
383.62	227.71
384.00	227.65
384.38	227.61
384.76	227.60
385.13	227.59
385.51	227.56
385.89	227.51
386.27	227.47
386.64	227.46
387.02	227.41
387.40	227.36
387.78	227.34
388.15	227.32
388.53	227.29
388.91	227.26
389.29	227.23
389.66	227.22
390.04	227.18
390.42	227.18
390.79	227.17
391.17	227.15
391.55	227.00
391.92	226.99
392.30	226.99
392.68	226.95
393.05	226.93
393.43	226.93
393.81	226.94
394.18	226.92
394.56	226.92
394.94	226.96
395.31	226.96
395.69	227.01
396.06	227.04
396.44	227.07
396.82	227.08
397.19	227.17
397.57	227.18
397.95	227.23
398.32	227.22
398.70	227.27
399.07	227.34
399.45	227.38
399.82	227.43
400.20	227.47
400.58	227.53
400.95	227.55
401.33	227.64
401.70	227.80
402.08	227.90
402.45	227.99
402.83	228.11
403.20	228.23
403.58	228.33
403.95	228.47
404.33	228.63
404.71	228.78
405.08	229.00
405.46	229.17
405.83	229.37
406.21	229.58
406.58	229.81
406.96	230.03
407.33	230.30
407.70	230.59
408.08	230.99
408.45	231.34
408.83	231.72
409.20	232.07
409.58	232.38
409.95	232.81
410.33	233.27
410.70	233.71
411.08	234.22
411.45	234.77
411.82	235.33
412.20	235.96
412.57	236.71
412.95	237.30
413.32	238.07
413.69	238.86
414.07	239.70
414.44	240.61
414.82	241.54
415.19	242.63
415.56	243.73
415.94	244.87
416.31	246.16
416.68	247.44
417.06	248.93
417.43	250.32
417.81	251.93
418.18	253.57
418.55	255.36
418.93	257.22
419.30	259.16
419.67	261.22
420.04	263.33
420.42	265.53
420.79	268.08
421.16	270.65
421.54	273.27
421.91	276.01
422.28	278.84
422.66	281.90
423.03	284.81
423.40	287.87
423.77	291.15
424.15	294.52
424.52	298.02
424.89	301.81
425.26	305.57
425.64	309.08
426.01	313.01
426.38	317.04
426.75	321.18
427.13	325.44
427.50	329.89
427.87	334.52
428.24	339.20
428.61	343.69
428.99	348.55
429.36	353.88
429.73	358.97
430.10	364.07
430.47	369.28
430.85	374.65
431.22	380.41
431.59	386.33
431.96	392.11
432.33	398.52
432.70	404.62
433.08	411.82
433.45	418.64
433.82	425.36
434.19	432.85
434.56	440.25
434.93	447.40
435.30	454.46
435.68	462.45
436.05	470.26
436.42	478.05
436.79	485.16
437.16	492.83
437.53	501.06
437.90	509.28
438.27	517.33
438.64	526.03
439.01	533.91
439.38	541.11
439.75	548.04
440.13	555.86
440.50	563.29
440.87	569.19
441.24	575.64
441.61	582.67
441.98	587.78
442.35	593.85
442.72	600.05
443.09	605.95
443.46	609.67
443.83	612.37
444.20	614.62
444.57	618.01
444.94	619.88
445.31	621.83
445.68	623.46
446.05	624.63
446.42	624.14
446.79	623.46
447.16	622.86
447.53	622.28
447.90	619.68
448.27	617.19
448.64	613.45
449.01	610.82
449.37	605.69
449.74	601.06
450.11	595.08
450.48	588.56
450.85	582.06
451.22	576.50
451.59	571.08
451.96	566.17
452.33	559.05
452.70	552.74
453.07	545.05
453.43	537.39
453.80	529.97
454.17	522.85
454.54	516.33
454.91	508.93
455.28	502.01
455.65	495.50
456.02	488.61
456.38	483.09
456.75	475.97
457.12	470.24
457.49	464.46
457.86	459.04
458.23	454.29
458.59	449.01
458.96	443.59
459.33	438.84
459.70	433.99
460.07	430.32
460.43	426.00
460.80	421.97
461.17	418.47
461.54	414.65
461.91	411.09
462.27	407.46
462.64	404.56
463.01	401.19
463.38	397.80
463.74	394.77
464.11	392.07
464.48	389.65
464.85	387.01
465.21	385.02
465.58	382.79
465.95	380.22
466.32	378.19
466.68	376.19
467.05	374.17
467.42	372.21
467.78	370.08
468.15	368.11
468.52	366.69
468.88	364.76
469.25	363.00
469.62	361.61
469.98	360.07
470.35	358.71
470.72	357.48
471.08	356.22
471.45	355.15
471.82	353.97
472.18	352.71
472.55	351.90
472.92	350.87
473.28	350.06
473.65	349.19
474.02	348.36
474.38	347.66
474.75	347.23
475.11	346.65
475.48	346.37
475.85	346.06
476.21	345.89
476.58	345.76
476.94	345.87
477.31	345.91
477.67	345.97
478.04	346.16
478.41	346.43
478.77	346.84
479.14	347.09
479.50	347.59
479.87	348.26
480.23	348.93
480.60	349.60
480.96	350.26
481.33	351.26
481.69	352.25
482.06	353.24
482.42	354.15
482.79	355.28
483.15	356.59
483.52	358.09
483.88	359.52
484.25	361.06
484.61	362.67
484.98	364.40
485.34	366.36
485.71	368.40
486.07	370.59
486.44	372.78
486.80	375.22
487.17	377.76
487.53	380.53
487.90	383.43
488.26	386.59
488.62	389.93
488.99	393.27
489.35	396.78
489.72	400.59
490.08	404.61
490.44	408.76
490.81	413.07
491.17	417.48
491.54	422.23
491.90	427.12
492.26	432.35
492.63	437.83
492.99	443.54
493.36	449.46
493.72	455.69
494.08	462.07
494.45	468.85
494.81	475.88
495.17	483.12
495.54	490.76
495.90	498.69
496.26	506.82
496.63	515.19
496.99	523.89
497.35	532.99
497.72	542.38
498.08	551.97
498.44	561.90
498.80	572.43
499.17	583.20
499.53	594.31
499.89	605.80
500.26	617.52
500.62	629.54
500.98	642.21
501.34	655.06
501.71	668.43
502.07	682.01
502.43	696.13
502.79	710.46
503.16	725.27
503.52	740.25
503.88	755.69
504.24	771.59
504.60	787.70
504.97	804.31
505.33	821.36
505.69	839.34
506.05	857.65
506.41	875.87
506.78	894.32
507.14	913.28
507.50	932.65
507.86	952.41
508.22	972.37
508.59	992.14
508.95	1012.74
509.31	1034.11
509.67	1056.18
510.03	1078.25
510.39	1100.37
510.75	1122.65
511.12	1145.24
511.48	1167.95
511.84	1190.70
512.20	1213.89
512.56	1237.97
512.92	1262.05
513.28	1285.68
513.64	1309.62
514.00	1334.02
514.37	1358.73
514.73	1383.41
515.09	1407.96
515.45	1432.85
515.81	1457.86
516.17	1482.99
516.53	1507.63
516.89	1532.14
517.25	1556.82
517.61	1581.35
517.97	1606.32
518.33	1630.85
518.69	1655.31
519.05	1680.26
519.41	1705.51
519.77	1730.90
520.13	1755.52
520.49	1780.08
520.85	1805.01
521.21	1829.48
521.57	1854.34
521.93	1878.60
522.29	1903.40
522.65	1927.65
523.01	1951.85
523.37	1975.70
523.73	2000.29
524.09	2024.52
524.45	2048.47
524.81	2072.08
525.17	2095.61
525.53	2118.51
525.89	2141.83
526.25	2165.21
526.61	2187.55
526.97	2209.99
527.33	2232.41
527.68	2254.53
528.04	2275.78
528.40	2296.07
528.76	2316.66
529.12	2336.66
529.48	2356.38
529.84	2374.23
530.20	2392.79
530.56	2410.69
530.91	2428.78
531.27	2446.49
531.63	2463.29
531.99	2479.77
532.35	2495.41
532.71	2511.19
533.07	2527.62
533.42	2542.28
533.78	2557.87
534.14	2573.69
534.50	2588.50
534.86	2603.01
535.21	2615.54
535.57	2628.70
535.93	2641.68
536.29	2653.40
536.65	2664.94
537.00	2675.72
537.36	2687.50
537.72	2697.91
538.08	2707.80
538.44	2716.96
538.79	2725.66
539.15	2733.67
539.51	2741.19
539.87	2748.13
540.22	2753.05
540.58	2758.13
540.94	2764.37
541.29	2768.95
541.65	2771.75
542.01	2773.84
542.37	2775.36
542.72	2778.25
543.08	2779.33
543.44	2781.02
543.79	2781.71
544.15	2781.57
544.51	2781.87
544.87	2781.03
545.22	2779.29
545.58	2776.87
545.94	2774.48
546.29	2770.81
546.65	2767.14
547.01	2763.52
547.36	2760.64
547.72	2757.85
548.07	2753.27
548.43	2747.22
548.79	2740.17
549.14	2734.47
549.50	2729.03
549.86	2722.51
550.21	2714.89
550.57	2708.30
550.92	2699.31
551.28	2690.94
551.64	2682.99
551.99	2674.55
552.35	2665.39
552.70	2656.67
553.06	2648.23
553.41	2639.09
553.77	2629.85
554.13	2620.56
554.48	2610.27
554.84	2598.80
555.19	2587.78
555.55	2576.84
555.90	2566.01
556.26	2555.82
556.61	2544.41
556.97	2531.34
557.32	2518.77
557.68	2506.21
558.03	2493.42
558.39	2481.91
558.74	2470.65
559.10	2457.62
559.45	2444.86
559.81	2432.76
560.16	2419.87
560.52	2407.38
560.87	2395.33
561.23	2382.35
561.58	2369.38
561.94	2356.18
562.29	2342.32
562.64	2329.32
563.00	2315.98
563.35	2303.02
563.71	2289.85
564.06	2276.60
564.42	2264.21
564.77	2251.28
565.12	2238.20
565.48	2225.03
565.83	2211.81
566.19	2198.70
566.54	2185.53
566.89	2171.28
567.25	2157.17
567.60	2144.54
567.96	2130.93
568.31	2115.90
568.66	2101.67
569.02	2088.63
569.37	2075.51
569.72	2062.97
570.08	2049.11
570.43	2034.91
570.78	2020.55
571.14	2005.46
571.49	1991.08
571.84	1977.26
572.20	1962.18
572.55	1947.41
572.90	1932.50
573.26	1917.70
573.61	1902.35
573.96	1887.45
574.31	1872.78
574.67	1858.23
575.02	1842.55
575.37	1827.05
575.72	1812.40
576.08	1797.99
576.43	1782.46
576.78	1767.41
577.13	1752.58
577.49	1738.08
577.84	1724.20
578.19	1709.38
578.54	1694.74
578.90	1679.60
579.25	1664.36
579.60	1650.78
579.95	1636.99
580.30	1623.04
580.66	1608.78
581.01	1594.54
581.36	1580.36
581.71	1567.12
582.06	1553.73
582.42	1540.60
582.77	1527.46
583.12	1514.35
583.47	1501.17
583.82	1488.09
584.17	1474.60
584.53	1460.82
584.88	1447.44
585.23	1433.62
585.58	1420.61
585.93	1407.80
586.28	1395.74
586.63	1383.62
586.98	1371.01
587.34	1358.50
587.69	1345.78
588.04	1333.37
588.39	1321.30
588.74	1309.32
589.09	1297.13
589.44	1284.56
589.79	1272.62
590.14	1260.76
590.49	1248.80
590.84	1236.98
591.19	1225.60
591.54	1214.05
591.89	1202.62
592.25	1191.41
592.60	1179.84
592.95	1168.68
593.30	1157.77
593.65	1146.56
594.00	1135.49
594.35	1124.99
594.70	1114.07
595.05	1103.97
595.40	1093.74
595.75	1083.33
596.10	1073.52
596.45	1063.45
596.80	1053.71
597.15	1043.73
597.50	1033.91
597.85	1024.47
598.19	1014.87
598.54	1005.31
598.89	996.23
599.24	987.46
599.59	978.47
599.94	970.39
600.29	962.08
600.64	953.48
600.99	944.53
601.34	935.92
601.69	927.02
602.04	918.76
602.39	910.33
602.74	901.99
603.08	893.62
603.43	885.20
603.78	876.96
604.13	868.85
604.48	860.72
604.83	852.79
605.18	844.83
605.53	837.02
605.87	829.02
606.22	821.30
606.57	813.54
606.92	805.70
607.27	797.78
607.62	790.19
607.96	783.01
608.31	776.26
608.66	769.32
609.01	762.65
609.36	756.09
609.70	749.31
610.05	742.53
610.40	736.01
610.75	729.45
611.10	723.23
611.44	716.89
611.79	710.65
612.14	704.33
612.49	698.09
612.83	692.13
613.18	686.32
613.53	680.42
613.88	674.53
614.22	669.04
614.57	663.50
614.92	657.79
615.27	652.20
615.61	646.68
615.96	641.21
616.31	635.73
616.65	630.29
617.00	625.08
617.35	619.99
617.70	614.92
618.04	609.91
618.39	604.81
618.74	599.95
619.08	595.15
619.43	590.46
619.78	585.78
620.12	581.07
620.47	576.52
620.82	572.06
621.16	567.64
621.51	563.12
621.85	558.64
622.20	554.35
622.55	550.10
622.89	545.91
623.24	541.73
623.59	537.57
623.93	533.60
624.28	529.73
624.62	525.93
624.97	522.17
625.32	518.38
625.66	514.56
626.01	510.71
626.35	506.92
626.70	503.18
627.04	499.63
627.39	495.98
627.73	492.51
628.08	489.14
628.43	485.77
628.77	482.47
629.12	479.29
629.46	476.13
629.81	472.86
630.15	469.59
630.50	466.43
630.84	463.34
631.19	460.28
631.53	457.31
631.88	454.31
632.22	451.35
632.57	448.66
632.91	446.00
633.26	443.43
633.60	440.88
633.95	438.37
634.29	435.78
634.64	433.27
634.98	430.57
635.32	428.01
635.67	425.64
636.01	423.21
636.36	420.81
636.70	418.55
637.05	416.30
637.39	414.08
637.73	411.88
638.08	409.79
638.42	407.68
638.77	405.44
639.11	403.16
639.45	400.96
639.80	398.70
640.14	396.56
640.49	394.40
640.83	392.21
641.17	390.13
641.52	388.09
641.86	386.07
642.20	384.26
642.55	382.29
642.89	380.36
643.23	378.52
643.58	376.83
643.92	375.02
644.26	373.26
644.61	371.56
644.95	369.83
645.29	368.03
645.64	366.24
645.98	364.55
646.32	362.98
646.66	361.40
647.01	359.84
647.35	358.32
647.69	356.79
648.04	355.38
648.38	353.89
648.72	352.42
649.06	350.97
649.41	349.51
649.75	348.11
650.09	346.74
650.43	345.37
650.78	343.95
651.12	342.57
651.46	341.25
651.80	339.95
652.14	338.67
652.49	337.45
652.83	336.19
653.17	334.99
653.51	333.82
653.85	332.69
654.20	331.53
654.54	330.29
654.88	329.15
655.22	328.04
655.56	326.92
655.90	325.86
656.25	324.82
656.59	323.76
656.93	322.78
657.27	321.80
657.61	320.78
657.95	319.80
658.29	318.81
658.64	317.88
658.98	316.94
659.32	316.04
659.66	315.17
660.00	314.34
660.34	313.49
660.68	312.62
661.02	311.72
661.36	310.86
661.70	310.05
662.05	309.26
662.39	308.46
662.73	307.74
663.07	307.03
663.41	306.28
663.75	305.53
664.09	304.78
664.43	304.00
664.77	303.30
665.11	302.55
665.45	301.87
665.79	301.20
666.13	300.49
666.47	299.77
666.81	299.04
667.15	298.28
667.49	297.63
667.83	297.04
668.17	296.41
668.51	295.83
668.85	295.28
669.19	294.75
669.53	294.13
669.87	293.50
670.21	292.90
670.55	292.34
670.89	291.86
671.23	291.32
671.57	290.80
671.91	290.32
672.25	289.87
672.58	289.42
672.92	288.89
673.26	288.44
673.60	287.99
673.94	287.57
674.28	287.17
674.62	286.74
674.96	286.26
675.30	285.83
675.64	285.37
675.97	284.90
676.31	284.40
676.65	283.96
676.99	283.59
677.33	283.14
677.67	282.72
678.01	282.23
678.34	281.82
678.68	281.44
679.02	280.99
679.36	280.56
679.70	280.12
680.04	279.74
680.37	279.34
680.71	278.96
681.05	278.59
681.39	278.18
681.73	277.75
682.06	277.35
682.40	276.97
682.74	276.64
683.08	276.34
683.42	275.99
683.75	275.67
684.09	275.26
684.43	274.93
684.77	274.59
685.10	274.29
685.44	273.96
685.78	273.62
686.12	273.32
686.45	272.98
686.79	272.64
687.13	272.33
687.46	271.98
687.80	271.66
688.14	271.29
688.48	270.99
688.81	270.67
689.15	270.39
689.49	270.06
689.82	269.73
690.16	269.33
690.50	269.02
690.83	268.70
691.17	268.37
691.51	268.05
691.84	267.75
692.18	267.42
692.52	267.08
692.85	266.76
693.19	266.48
693.52	266.18
693.86	265.87
694.20	265.56
694.53	265.28
694.87	264.95
695.21	264.65
695.54	264.35
695.88	264.04
696.21	263.71
696.55	263.42
696.88	263.12
697.22	262.84
697.56	262.55
697.89	262.22
698.23	261.94
698.56	261.62
698.90	261.34
699.23	261.03
699.57	260.74
699.90	260.44
700.24	260.12
700.58	259.85
700.91	259.61
701.25	259.45
701.58	259.22
701.92	258.99
702.25	258.74
702.59	258.46
702.92	258.20
703.26	257.93
703.59	257.65
703.93	257.48
704.26	257.22
704.60	256.95
704.93	256.69
705.26	256.41
705.60	256.19
705.93	255.90
706.27	255.69
706.60	255.49
706.94	255.29
707.27	255.01
707.61	254.75
707.94	254.47
708.27	254.09
708.61	253.78
708.94	253.50
709.28	253.26
709.61	253.01
709.94	252.79
710.28	252.57
710.61	252.36
710.95	252.03
711.28	251.89
711.61	251.66
711.95	251.47
712.28	251.24
712.61	250.99
712.95	250.85
713.28	250.68
713.61	250.43
713.95	250.17
714.28	249.97
714.61	249.75
714.95	249.54
715.28	249.33
715.61	249.14
715.95	248.96
716.28	248.76
716.61	248.60
716.95	248.38
717.28	248.18
717.61	247.97
717.94	247.78
718.28	247.49
718.61	247.29
718.94	247.08
719.27	246.89
719.61	246.72
719.94	246.50
720.27	246.23
720.60	246.05
720.94	245.87
721.27	245.69
721.60	245.54
721.93	245.36
722.27	245.22
722.60	245.06
722.93	244.86
723.26	244.69
723.59	244.48
723.93	244.32
724.26	244.16
724.59	243.98
724.92	243.83
725.25	243.71
725.59	243.56
725.92	243.42
726.25	243.27
726.58	243.10
726.91	242.94
727.24	242.81
727.57	242.65
727.91	242.48
728.24	242.36
728.57	242.20
728.90	242.07
729.23	241.87
729.56	241.77
729.89	241.63
730.22	241.47
730.55	241.33
730.89	241.19
731.22	241.04
731.55	240.90
731.88	240.76
732.21	240.59
732.54	240.45
732.87	240.32
733.20	240.19
733.53	240.06
733.86	239.94
734.19	239.79
734.52	239.69
734.85	239.65
735.18	239.49
735.51	239.40
735.84	239.27
736.17	239.19
736.50	239.01
736.83	239.04
737.16	238.93
737.49	238.82
737.82	238.70
738.15	238.61
738.48	238.49
738.81	238.37
739.14	238.25
739.47	238.13
739.80	238.01
740.13	237.90
740.46	237.77
740.79	237.64
741.12	237.53
741.45	237.40
741.78	237.22
742.11	237.15
742.44	237.01
742.77	236.91
743.10	236.79
743.43	236.68
743.75	236.44
744.08	236.53
744.41	236.42
744.74	236.31
745.07	236.19
745.40	236.11
745.73	236.07
746.06	235.98
746.39	235.91
746.71	235.81
747.04	235.70
747.37	235.61
747.70	235.55
748.03	235.47
748.36	235.40
748.68	235.31
749.01	235.19
749.34	235.10
749.67	235.02
750.00	234.95
750.33	234.96
750.65	234.89
750.98	234.62
751.31	234.54
751.64	234.46
751.97	234.45
752.29	234.36
752.62	234.22
752.95	234.13
753.28	234.03
753.60	233.95
753.93	233.90
754.26	233.84
754.59	233.71
754.91	233.62
755.24	233.53
755.57	233.52
755.90	233.44
756.22	233.35
756.55	233.26
756.88	233.15
757.20	232.99
757.53	232.89
757.86	232.81
758.19	232.75
758.51	232.67
758.84	232.54
759.17	232.45
759.49	232.39
759.82	232.39
760.15	232.34
760.47	232.27
760.80	232.17
761.13	232.12
761.45	232.07
761.78	232.01
762.11	231.95
762.43	231.83
762.76	231.77
763.08	231.73
763.41	231.68
763.74	231.63
764.06	231.57
764.39	231.53
764.71	231.47
765.04	231.41
765.37	231.35
765.69	231.30
766.02	231.25
766.34	231.19
766.67	231.09
767.00	231.06
767.32	231.08
767.65	231.11
767.97	231.05
768.30	231.01
768.62	230.97
768.95	230.90
769.27	230.86
769.60	230.83
769.92	230.76
770.25	230.69
770.57	230.63
770.90	230.59
771.22	230.53
771.55	230.49
771.87	230.46
772.20	230.41
772.52	230.48
772.85	230.59
773.17	230.55
773.50	230.51
773.82	230.45
774.15	230.35
774.47	230.23
774.80	230.18
775.12	230.14
775.45	230.10
775.77	230.08
776.09	230.06
776.42	230.02
776.74	230.03
777.07	230.00
777.39	229.98
777.72	229.94
778.04	229.93
778.36	229.89
778.69	229.86
779.01	229.84
779.33	229.71
779.66	229.53
779.98	229.49
780.31	229.48
780.63	229.50
780.95	229.49
781.28	229.47
781.60	229.43
781.92	229.40
782.25	229.38
782.57	229.35
782.89	229.31
783.22	229.28
783.54	229.22
783.86	229.21
784.19	229.18
784.51	229.19
784.83	229.15
785.16	229.12
785.48	229.10
785.80	229.07
786.12	229.06
786.45	229.04
786.77	229.03
787.09	229.00
787.42	228.93
787.74	228.91
788.06	228.89
788.38	228.87
788.71	228.85
789.03	228.83
789.35	228.83
789.67	228.79
789.99	228.78
790.32	228.75
790.64	228.74
790.96	228.84
791.28	228.77
791.61	228.75
791.93	228.74
792.25	228.71
792.57	228.79
792.89	228.75
793.21	228.74
793.54	228.71
793.86	228.68
794.18	228.67
794.50	228.63
794.82	228.61
795.14	228.61
795.47	228.61
795.79	228.60
796.11	228.55
796.43	228.53
796.75	228.51
797.07	228.50
797.39	228.48
797.71	228.36
798.04	228.35
798.36	228.34
798.68	228.33
799.00	228.32
799.32	228.24
799.64	228.25
799.96	228.23
800.28	228.24
800.60	228.22
800.92	228.21
801.24	228.19
801.56	228.19
801.89	228.16
802.21	228.15
802.53	228.11
802.85	228.13
803.17	228.17
803.49	228.14
803.81	228.11
804.13	228.09
804.45	228.06
804.77	228.06
805.09	228.04
805.41	228.02
805.73	227.99
806.05	227.94
806.37	227.92
806.69	227.89
807.01	227.87
807.33	227.87
807.65	227.81
807.97	227.86
808.28	227.83
808.60	227.82
808.92	227.79
809.24	227.86
809.56	227.83
809.88	227.77
810.20	227.77
810.52	227.79
810.84	227.76
811.16	227.74
811.48	227.72
811.80	227.75
812.12	227.74
812.43	227.75
812.75	227.75
813.07	227.73
813.39	227.73
813.71	227.70
814.03	227.68
814.35	227.68
814.67	227.62
814.98	227.60
815.30	227.59
815.62	227.56
815.94	227.46
816.26	227.47
816.58	227.44
816.89	227.44
817.21	227.40
817.53	227.40
817.85	227.40
818.17	227.39
818.48	227.33
818.80	227.35
819.12	227.32
819.44	227.29
819.76	227.27
820.07	227.26
820.39	227.25
820.71	227.25
821.03	227.25
821.34	227.23
821.66	227.24
821.98	227.25
822.30	227.24
822.61	227.31
822.93	227.28
823.25	227.28
823.57	227.26
823.88	227.27
824.20	227.25
824.52	227.27
824.83	227.26
825.15	227.24
825.47	227.22
825.79	227.22
826.10	227.21
826.42	227.20
826.74	227.21
827.05	227.20
827.37	227.19
827.69	227.18
828.00	227.18
828.32	227.17
828.64	227.15
828.95	227.21
829.27	227.17
829.58	227.17
829.90	227.19
830.22	227.19
830.53	227.17
830.85	227.15
831.17	227.11
831.48	227.10
831.80	227.10
832.11	227.09
832.43	227.07
832.75	227.07
833.06	227.14
833.38	227.10
833.69	227.09
834.01	227.09
834.32	227.08
834.64	227.06
834.96	227.06
835.27	227.05
835.59	227.00
835.90	226.98
836.22	226.97
836.53	226.94
836.85	226.92
837.16	227.04
837.48	227.04
837.79	227.08
838.11	227.09
838.42	227.08
838.74	227.09
839.05	227.08
839.37	227.08
839.68	227.00
840.00	226.99
840.31	227.01
840.63	226.99
840.94	226.97
841.26	226.96
841.57	226.95
841.88	226.96
842.20	226.94
842.51	226.92
842.83	226.91
843.14	227.02
843.46	227.02
843.77	226.94
844.08	226.94
844.40	226.89
844.71	226.88
845.03	226.86
845.34	226.85
845.65	226.84
845.97	226.84
846.28	226.84
846.60	226.85
846.91	226.83
847.22	226.82
847.54	226.85
847.85	226.85
848.16	226.84
848.48	226.81
848.79	226.86
849.10	226.87
849.42	226.88
849.73	226.76
850.04	226.76
850.36	226.71
850.67	226.73
850.98	226.73
851.30	226.74
851.61	226.74
851.92	226.73
852.23	226.77
852.55	226.77
852.86	226.77
853.17	226.78
853.49	226.80
853.80	226.83
854.11	226.83
854.42	226.85
854.74	226.83
855.05	226.83
855.36	226.77
855.67	226.77
855.99	226.77
856.30	226.92
856.61	226.91
856.92	226.91
857.23	226.92
857.55	226.90
857.86	226.89
858.17	226.91
858.48	226.89
858.79	226.85
859.11	226.86
859.42	226.86
859.73	226.84
860.04	226.83
860.35	226.78
860.66	226.75
860.98	226.74
861.29	226.76
861.60	226.75
861.91	226.77
862.22	226.75
862.53	226.74
862.84	226.59
863.16	226.61
863.47	226.59
863.78	226.57
864.09	226.58
864.40	226.59
864.71	226.58
865.02	226.60
865.33	226.58
865.64	226.56
865.95	226.56
866.27	226.63
866.58	226.62
866.89	226.64
867.20	226.64
867.51	226.62
867.82	226.61
868.13	226.65
868.44	226.62
868.75	226.65
869.06	226.65
869.37	226.66
869.68	226.63
869.99	226.65
870.30	226.66
870.61	226.67
870.92	226.65
871.23	226.63
871.54	226.65
871.85	226.68
872.16	226.70
872.47	226.68
872.78	226.61
873.09	226.62
873.40	226.61
873.71	226.62
874.02	226.63
874.33	226.61
874.64	226.58
874.95	226.60
875.26	226.58
875.56	226.57
875.87	226.56
876.18	226.56
876.49	226.68
876.80	226.67
877.11	226.64
877.42	226.65
877.73	226.65
878.04	226.63
878.35	226.63
878.66	226.63
878.96	226.63
879.27	226.62
879.58	226.61
879.89	226.61
880.20	226.64
880.51	226.63
880.82	226.63
881.12	226.64
881.43	226.61
881.74	226.60
882.05	226.59
882.36	226.60
882.67	226.60
882.97	226.47
883.28	226.46
883.59	226.46
883.90	226.47
884.21	226.48
884.51	226.47
884.82	226.45
885.13	226.45
885.44	226.45
885.74	226.45
886.05	226.44
886.36	226.44
886.67	226.39
886.98	226.46
887.28	226.47
887.59	226.47
887.90	226.47
888.20	226.47
888.51	226.49
888.82	226.47
889.13	226.48
889.43	226.59
889.74	226.58
890.05	226.58
890.35	226.56
890.66	226.54
890.97	226.53
891.28	226.52
891.58	226.52
891.89	226.52
892.20	226.50
892.50	226.49
892.81	226.48
893.12	226.48
893.42	226.42
893.73	226.42
894.04	226.41
894.34	226.42
894.65	226.42
894.95	226.40
895.26	226.41
895.57	226.47
895.87	226.34
896.18	226.36
896.48	226.37
896.79	226.36
897.10	226.38
897.40	226.39
897.71	226.40
898.01	226.39
898.32	226.41
898.63	226.41
898.93	226.42
899.24	226.42
899.54	226.41
899.85	226.41
900.15	226.40
900.46	226.41
900.76	226.41
901.07	226.41
901.38	226.41
901.68	226.42
901.99	226.35
902.29	226.36
902.60	226.35
902.90	226.34
903.21	226.34
903.51	226.32
903.82	226.35
904.12	226.35
904.43	226.36
904.73	226.35
905.03	226.35
905.34	226.47
905.64	226.47
905.95	226.47
906.25	226.47
906.56	226.47
906.86	226.46
907.17	226.45
907.47	226.46
907.77	226.45
908.08	226.42
908.38	226.43
908.69	226.44
908.99	226.46
909.30	226.47
909.60	226.47
909.90	226.47
910.21	226.44
910.51	226.41
910.81	226.41
911.12	226.42
911.42	226.42
911.73	226.29
912.03	226.29
912.33	226.32
912.64	226.31
912.94	226.30
913.24	226.28
913.55	226.27
913.85	226.26
914.15	226.29
914.46	226.30
914.76	226.29
915.06	226.28
915.37	226.25
915.67	226.25
915.97	226.25
916.27	226.22
916.58	226.23
916.88	226.23
917.18	226.22
917.49	226.30
917.79	226.30
918.09	226.32
918.39	226.35
918.70	226.34
919.00	226.35
919.30	226.41
919.60	226.41
919.91	226.40
920.21	226.40
920.51	226.37
920.81	226.36
921.12	226.39
921.42	226.38
921.72	226.39
922.02	226.40
922.32	226.41
922.63	226.42
922.93	226.49
923.23	226.49
923.53	226.49
923.83	226.40
924.13	226.41
924.44	226.41
924.74	226.42
925.04	226.45
925.34	226.45
925.64	226.39
925.94	226.39
926.24	226.46
926.55	226.45
926.85	226.47
927.15	226.47
927.45	226.46
927.75	226.46
928.05	226.46
928.35	226.45
928.65	226.47
928.95	226.47
929.26	226.41
929.56	226.44
929.86	226.45
930.16	226.44
930.46	226.43
930.76	226.43
931.06	226.37
931.36	226.34
931.66	226.36
931.96	226.37
932.26	226.38
932.56	226.32
932.86	226.33
933.16	226.33
933.46	226.32
933.76	226.30
934.06	226.32
934.36	226.36
934.66	226.36
934.96	226.34
935.26	226.34
935.56	226.36
935.86	226.33
936.16	226.30
936.46	226.29
936.76	226.29
937.06	226.27
937.36	226.28
937.66	226.28
937.96	226.27
938.26	226.25
938.56	226.24
938.86	226.25
939.16	226.27
939.46	226.29
939.76	226.29
940.06	226.29
940.35	226.27
940.65	226.21
940.95	226.22
941.25	226.19
941.55	226.17
941.85	226.16
942.15	226.19
942.45	226.23
942.75	226.23
943.04	226.23
943.34	226.26
943.64	226.25
943.94	226.23
944.24	226.23
944.54	226.24
944.84	226.23
945.13	226.22
945.43	226.19
945.73	226.18
946.03	226.17
946.33	226.16
946.62	226.15
946.92	226.15
947.22	226.16
947.52	226.17
947.82	226.18
948.11	226.17
948.41	226.14
948.71	226.11
949.01	226.12
949.31	226.11
949.60	226.09
949.90	226.11
950.20	226.11
950.50	226.10
950.79	226.09
951.09	226.11
951.39	226.11
951.69	226.10
951.98	226.12
952.28	226.13
952.58	226.12
952.87	226.13
953.17	226.15
953.47	226.13
953.76	226.13
954.06	226.11
954.36	226.09
954.66	226.09
954.95	226.12
955.25	226.13
955.55	226.14
955.84	226.12
956.14	226.13
956.44	226.14
956.73	226.12
957.03	226.13
957.32	226.13
957.62	226.12
957.92	226.15
958.21	226.14
958.51	226.28
958.81	226.30
959.10	226.31
959.40	226.34
959.69	226.35
959.99	226.36
960.29	226.37
960.58	226.36
960.88	226.41
961.17	226.40
961.47	226.41
961.76	226.39
962.06	226.41
962.36	226.40
962.65	226.40
962.95	226.41
963.24	226.40
963.54	226.40
963.83	226.41
964.13	226.40
964.42	226.39
964.72	226.28
965.01	226.28
965.31	226.27
965.60	226.23
965.90	226.31
966.19	226.28
966.49	226.29
966.78	226.29
967.08	226.27
967.37	226.27
967.67	226.25
967.96	226.27
968.26	226.26
968.55	226.28
968.85	226.27
969.14	226.27
969.43	226.27
969.73	226.26
970.02	226.25
970.32	226.25
970.61	226.23
970.91	226.19
971.20	226.18
971.49	226.17
971.79	226.18
972.08	226.09
972.38	226.11
972.67	226.10
972.96	226.12
973.26	226.09
973.55	226.13
973.85	226.12
974.14	226.11
974.43	226.12
974.73	226.10
975.02	226.08
975.31	226.08
975.61	226.09
975.90	226.08
976.19	226.07
976.49	226.08
976.78	226.09
977.07	226.09
977.37	226.10
977.66	226.11
977.95	226.10
978.24	226.11
978.54	226.13
978.83	226.13
979.12	226.12
979.42	226.12
979.71	226.09
980.00	226.09
980.29	226.09
980.59	226.07
980.88	226.11
981.17	226.11
981.46	226.11
981.76	226.11
982.05	226.14
982.34	226.15
982.63	226.15
982.93	226.14
983.22	226.17
983.51	226.18
983.80	226.19
984.09	226.21
984.39	226.20
984.68	226.18
984.97	226.19
985.26	226.18
985.55	226.19
985.85	226.17
986.14	226.19
986.43	226.20
986.72	226.19
987.01	226.15
987.30	226.15
987.59	226.15
987.89	226.15
988.18	226.11
988.47	226.10
988.76	226.09
989.05	226.08
989.34	226.06
989.63	226.09
989.92	226.07
990.22	226.05
990.51	226.05
990.80	226.04
991.09	226.05
991.38	226.07
991.67	226.05
991.96	226.04
992.25	226.04
992.54	226.02
992.83	226.02
993.12	226.02
993.41	226.04
993.70	226.09
993.99	226.12
994.28	226.13
994.58	226.16
994.87	226.14
995.16	226.14
995.45	226.13
995.74	226.09
996.03	226.11
996.32	226.13
996.61	226.16
996.90	226.15
997.19	226.15
997.48	226.15
997.77	226.13
998.06	226.14
998.34	226.13
998.63	226.13
998.92	226.13
999.21	226.15
999.50	226.15
999.79	226.11
1000.08	226.10
1000.37	226.10
1000.66	226.08
1000.95	226.11
1001.24	226.12
1001.53	226.14
1001.82	226.14
1002.11	226.11
1002.40	226.11
1002.68	226.14
1002.97	226.23
1003.26	226.22
1003.55	226.20
1003.84	226.21
1004.13	226.25
1004.42	226.25
1004.71	226.24
1004.99	226.23
1005.28	226.26
1005.57	226.25
1005.86	226.24
1006.15	226.23
1006.44	226.21
1006.72	226.23
1007.01	226.21
1007.30	226.20
1007.59	226.19
1007.88	226.19
1008.17	226.20
1008.45	226.17
1008.74	226.12
1009.03	226.06
1009.32	226.06
1009.60	226.06
1009.89	226.05
1010.18	226.00
1010.47	226.00
1010.76	226.00
1011.04	226.00
1011.33	225.99
1011.62	226.00
1011.91	226.01
1012.19	226.01
1012.48	226.02
1012.77	226.01
1013.05	226.06
1013.34	226.06
1013.63	226.05
1013.92	226.06
1014.20	226.05
1014.49	226.06
1014.78	226.07
1015.06	226.03
1015.35	226.03
1015.64	226.05
1015.92	226.07
1016.21	226.08
1016.50	226.09
1016.78	226.10
1017.07	226.11
1017.36	226.09
1017.64	226.07
1017.93	226.08
1018.22	226.07
1018.50	226.07
1018.79	226.06
1019.08	226.02
1019.36	226.03
1019.65	226.01
1019.93	226.05
1020.22	226.07
1020.51	226.13
1020.79	226.12
1021.08	225.87
1021.36	225.86
1021.65	226.07
1021.94	225.99
1022.22	226.15
1022.51	225.78
1022.79	226.70
1023.08	226.25
1023.36	227.54
1023.65	225.76
>>>>>End Processed Spectral Data<<<<<
