SpectraSuite Data File
++++++++++++++++++++++++++++++++++++
Date: Sat Oct 03 13:17:44 EDT 2015
User: lab3
Dark Spectrum Present: No
Reference Spectrum Present: No
Number of Sampled Component Spectra: 1
Spectrometers: USB2E7196
Integration Time (usec): 46000 (USB2E7196)
Spectra Averaged: 12000 (USB2E7196)
Boxcar Smoothing: 10 (USB2E7196)
Correct for Electrical Dark: No (USB2E7196)
Strobe/Lamp Enabled: No (USB2E7196)
Correct for Detector Non-linearity: No (USB2E7196)
Correct for Stray Light: No (USB2E7196)
Number of Pixels in Processed Spectrum: 2048
>>>>>Begin Processed Spectral Data<<<<<
339.09	0.00
339.48	213.38
339.86	214.86
340.24	216.25
340.63	217.65
341.01	220.98
341.39	220.33
341.78	221.75
342.16	222.98
342.54	223.34
342.93	211.87
343.31	222.58
343.69	223.12
344.07	223.58
344.46	224.01
344.84	224.41
345.22	224.63
345.60	224.89
345.99	225.08
346.37	225.22
346.75	225.33
347.13	225.41
347.52	225.48
347.90	225.58
348.28	225.62
348.66	225.67
349.05	225.67
349.43	225.73
349.81	225.79
350.19	225.84
350.57	225.91
350.96	226.00
351.34	226.09
351.72	226.19
352.10	226.30
352.48	226.37
352.87	226.42
353.25	226.49
353.63	226.55
354.01	226.61
354.39	226.69
354.77	226.77
355.15	226.88
355.54	226.92
355.92	226.95
356.30	227.03
356.68	227.18
357.06	227.26
357.44	227.30
357.82	227.36
358.20	227.48
358.58	227.54
358.97	227.61
359.35	227.70
359.73	227.78
360.11	227.83
360.49	227.89
360.87	227.94
361.25	228.00
361.63	228.10
362.01	228.15
362.39	228.18
362.77	228.22
363.15	228.24
363.53	228.28
363.91	228.32
364.29	228.34
364.67	228.24
365.05	228.26
365.43	228.30
365.81	228.33
366.19	228.34
366.57	228.40
366.95	228.40
367.33	228.37
367.71	228.36
368.09	228.38
368.47	228.37
368.85	228.36
369.23	228.37
369.61	228.31
369.99	228.33
370.37	228.33
370.75	228.41
371.13	228.37
371.51	228.33
371.89	228.31
372.27	228.29
372.65	228.27
373.03	228.23
373.41	228.19
373.78	228.14
374.16	228.04
374.54	227.95
374.92	227.90
375.30	227.86
375.68	227.79
376.06	227.75
376.44	227.69
376.82	227.65
377.19	227.60
377.57	227.54
377.95	227.45
378.33	227.39
378.71	227.23
379.09	227.19
379.47	227.16
379.84	227.09
380.22	227.03
380.60	226.95
380.98	226.91
381.36	226.86
381.73	226.79
382.11	226.77
382.49	226.73
382.87	226.67
383.25	226.63
383.62	226.74
384.00	226.67
384.38	226.63
384.76	226.62
385.13	226.62
385.51	226.58
385.89	226.53
386.27	226.49
386.64	226.48
387.02	226.43
387.40	226.38
387.78	226.36
388.15	226.34
388.53	226.30
388.91	226.28
389.29	226.24
389.66	226.24
390.04	226.20
390.42	226.20
390.79	226.19
391.17	226.17
391.55	226.01
391.92	226.00
392.30	226.00
392.68	225.96
393.05	225.94
393.43	225.94
393.81	225.95
394.18	225.93
394.56	225.93
394.94	225.97
395.31	225.97
395.69	226.02
396.06	226.05
396.44	226.08
396.82	226.09
397.19	226.18
397.57	226.19
397.95	226.24
398.32	226.23
398.70	226.27
399.07	226.34
399.45	226.38
399.82	226.43
400.20	226.46
400.58	226.52
400.95	226.53
401.33	226.62
401.70	226.77
402.08	226.88
402.45	226.97
402.83	227.09
403.20	227.21
403.58	227.30
403.95	227.44
404.33	227.59
404.71	227.74
405.08	227.95
405.46	228.12
405.83	228.31
406.21	228.52
406.58	228.75
406.96	228.97
407.33	229.22
407.70	229.51
408.08	229.91
408.45	230.25
408.83	230.63
409.20	230.97
409.58	231.28
409.95	231.69
410.33	232.15
410.70	232.57
411.08	233.08
411.45	233.61
411.82	234.15
412.20	234.77
412.57	235.50
412.95	236.08
413.32	236.83
413.69	237.61
414.07	238.43
414.44	239.32
414.82	240.23
415.19	241.30
415.56	242.38
415.94	243.50
416.31	244.75
416.68	246.01
417.06	247.47
417.43	248.84
417.81	250.41
418.18	252.02
418.55	253.76
418.93	255.59
419.30	257.49
419.67	259.51
420.04	261.58
420.42	263.73
420.79	266.23
421.16	268.76
421.54	271.32
421.91	273.99
422.28	276.77
422.66	279.76
423.03	282.62
423.40	285.61
423.77	288.82
424.15	292.11
424.52	295.54
424.89	299.24
425.26	302.93
425.64	306.36
426.01	310.21
426.38	314.16
426.75	318.22
427.13	322.38
427.50	326.73
427.87	331.26
428.24	335.84
428.61	340.24
428.99	344.99
429.36	350.21
429.73	355.19
430.10	360.18
430.47	365.29
430.85	370.54
431.22	376.17
431.59	381.96
431.96	387.61
432.33	393.90
432.70	399.87
433.08	406.93
433.45	413.60
433.82	420.18
434.19	427.52
434.56	434.76
434.93	441.75
435.30	448.67
435.68	456.49
436.05	464.14
436.42	471.77
436.79	478.73
437.16	486.25
437.53	494.30
437.90	502.36
438.27	510.25
438.64	518.77
439.01	526.48
439.38	533.55
439.75	540.35
440.13	548.01
440.50	555.30
440.87	561.07
441.24	567.40
441.61	574.30
441.98	579.33
442.35	585.29
442.72	591.37
443.09	597.16
443.46	600.81
443.83	603.47
444.20	605.68
444.57	609.01
444.94	610.86
445.31	612.79
445.68	614.39
446.05	615.55
446.42	615.10
446.79	614.45
447.16	613.87
447.53	613.33
447.90	610.78
448.27	608.34
448.64	604.70
449.01	602.14
449.37	597.12
449.74	592.57
450.11	586.74
450.48	580.36
450.85	573.99
451.22	568.55
451.59	563.25
451.96	558.44
452.33	551.47
452.70	545.30
453.07	537.77
453.43	530.27
453.80	523.00
454.17	516.03
454.54	509.62
454.91	502.37
455.28	495.60
455.65	489.21
456.02	482.48
456.38	477.05
456.75	470.08
457.12	464.47
457.49	458.81
457.86	453.49
458.23	448.84
458.59	443.67
458.96	438.37
459.33	433.71
459.70	428.96
460.07	425.37
460.43	421.13
460.80	417.17
461.17	413.74
461.54	410.01
461.91	406.52
462.27	402.98
462.64	400.13
463.01	396.84
463.38	393.53
463.74	390.54
464.11	387.90
464.48	385.54
464.85	382.94
465.21	381.00
465.58	378.81
465.95	376.29
466.32	374.30
466.68	372.34
467.05	370.37
467.42	368.45
467.78	366.36
468.15	364.44
468.52	363.05
468.88	361.16
469.25	359.44
469.62	358.07
469.98	356.57
470.35	355.24
470.72	354.03
471.08	352.80
471.45	351.77
471.82	350.61
472.18	349.39
472.55	348.59
472.92	347.59
473.28	346.80
473.65	345.95
474.02	345.14
474.38	344.46
474.75	344.04
475.11	343.48
475.48	343.21
475.85	342.92
476.21	342.74
476.58	342.63
476.94	342.74
477.31	342.78
477.67	342.85
478.04	343.04
478.41	343.31
478.77	343.72
479.14	343.96
479.50	344.47
479.87	345.12
480.23	345.78
480.60	346.43
480.96	347.09
481.33	348.08
481.69	349.07
482.06	350.05
482.42	350.94
482.79	352.06
483.15	353.35
483.52	354.83
483.88	356.24
484.25	357.76
484.61	359.35
484.98	361.06
485.34	362.99
485.71	365.01
486.07	367.17
486.44	369.32
486.80	371.73
487.17	374.23
487.53	376.96
487.90	379.82
488.26	382.95
488.62	386.24
488.99	389.53
489.35	392.99
489.72	396.75
490.08	400.71
490.44	404.79
490.81	409.04
491.17	413.39
491.54	418.07
491.90	422.89
492.26	428.04
492.63	433.44
492.99	439.08
493.36	444.92
493.72	451.06
494.08	457.36
494.45	464.05
494.81	470.98
495.17	478.12
495.54	485.64
495.90	493.48
496.26	501.49
496.63	509.76
496.99	518.33
497.35	527.31
497.72	536.59
498.08	546.06
498.44	555.85
498.80	566.24
499.17	576.88
499.53	587.86
499.89	599.21
500.26	610.80
500.62	622.66
500.98	635.19
501.34	647.88
501.71	661.09
502.07	674.50
502.43	688.46
502.79	702.64
503.16	717.28
503.52	732.10
503.88	747.37
504.24	763.09
504.60	779.03
504.97	795.45
505.33	812.30
505.69	830.08
506.05	848.19
506.41	866.26
506.78	884.51
507.14	903.28
507.50	922.48
507.86	942.04
508.22	961.83
508.59	981.42
508.95	1001.81
509.31	1022.93
509.67	1044.79
510.03	1066.66
510.39	1088.58
510.75	1110.66
511.12	1133.04
511.48	1155.60
511.84	1178.17
512.20	1201.15
512.56	1225.03
512.92	1248.93
513.28	1272.42
513.64	1296.16
514.00	1320.36
514.37	1344.91
514.73	1369.39
515.09	1393.73
515.45	1418.40
515.81	1443.29
516.17	1468.25
516.53	1492.80
516.89	1517.23
517.25	1541.79
517.61	1566.16
517.97	1591.00
518.33	1615.40
518.69	1639.75
519.05	1664.52
519.41	1689.60
519.77	1714.94
520.13	1739.47
520.49	1763.95
520.85	1788.74
521.21	1813.18
521.57	1837.93
521.93	1862.08
522.29	1886.83
522.65	1911.00
523.01	1935.16
523.37	1958.92
523.73	1983.43
524.09	2007.56
524.45	2031.50
524.81	2055.11
525.17	2078.61
525.53	2101.54
525.89	2124.86
526.25	2148.17
526.61	2170.49
526.97	2192.89
527.33	2215.24
527.68	2237.36
528.04	2258.63
528.40	2278.98
528.76	2299.47
529.12	2319.53
529.48	2339.39
529.84	2357.26
530.20	2375.84
530.56	2393.79
530.91	2411.90
531.27	2429.64
531.63	2446.50
531.99	2462.90
532.35	2478.57
532.71	2494.45
533.07	2510.92
533.42	2525.66
533.78	2541.31
534.14	2557.21
534.50	2572.21
534.86	2586.88
535.21	2599.56
535.57	2612.81
535.93	2625.91
536.29	2637.84
536.65	2649.48
537.00	2660.33
537.36	2672.24
537.72	2682.83
538.08	2692.82
538.44	2702.04
538.79	2710.92
539.15	2719.10
539.51	2726.92
539.87	2734.13
540.22	2739.20
540.58	2744.41
540.94	2750.71
541.29	2755.55
541.65	2758.61
542.01	2760.85
542.37	2762.49
542.72	2765.50
543.08	2766.74
543.44	2768.59
543.79	2769.43
544.15	2769.48
544.51	2769.90
544.87	2769.22
545.22	2767.70
545.58	2765.52
545.94	2763.35
546.29	2759.89
546.65	2756.41
547.01	2752.84
547.36	2749.98
547.72	2747.43
548.07	2743.02
548.43	2737.21
548.79	2730.29
549.14	2724.66
549.50	2719.44
549.86	2713.17
550.21	2705.74
550.57	2699.35
550.92	2690.57
551.28	2682.31
551.64	2674.49
551.99	2666.26
552.35	2657.40
552.70	2648.79
553.06	2640.52
553.41	2631.59
553.77	2622.52
554.13	2613.39
554.48	2603.40
554.84	2592.12
555.19	2581.21
555.55	2570.45
555.90	2559.79
556.26	2549.80
556.61	2538.59
556.97	2525.70
557.32	2513.30
557.68	2500.99
558.03	2488.33
558.39	2476.96
558.74	2465.92
559.10	2453.08
559.45	2440.45
559.81	2428.41
560.16	2415.70
560.52	2403.33
560.87	2391.41
561.23	2378.59
561.58	2365.74
561.94	2352.63
562.29	2338.98
562.64	2326.05
563.00	2312.88
563.35	2299.98
563.71	2286.92
564.06	2273.86
564.42	2261.56
564.77	2248.75
565.12	2235.74
565.48	2222.68
565.83	2209.53
566.19	2196.53
566.54	2183.54
566.89	2169.44
567.25	2155.42
567.60	2142.88
567.96	2129.38
568.31	2114.47
568.66	2100.25
569.02	2087.29
569.37	2074.29
569.72	2061.76
570.08	2048.01
570.43	2033.82
570.78	2019.61
571.14	2004.66
571.49	1990.28
571.84	1976.45
572.20	1961.46
572.55	1946.66
572.90	1931.86
573.26	1917.13
573.61	1901.89
573.96	1887.04
574.31	1872.41
574.67	1857.95
575.02	1842.34
575.37	1826.88
575.72	1812.23
576.08	1797.88
576.43	1782.43
576.78	1767.38
577.13	1752.61
577.49	1738.17
577.84	1724.34
578.19	1709.57
578.54	1694.92
578.90	1679.82
579.25	1664.65
579.60	1651.07
579.95	1637.39
580.30	1623.51
580.66	1609.32
581.01	1595.08
581.36	1580.84
581.71	1567.55
582.06	1554.20
582.42	1541.09
582.77	1528.02
583.12	1514.99
583.47	1501.85
583.82	1488.80
584.17	1475.36
584.53	1461.64
584.88	1448.28
585.23	1434.54
585.58	1421.56
585.93	1408.77
586.28	1396.74
586.63	1384.62
586.98	1372.08
587.34	1359.62
587.69	1346.88
588.04	1334.45
588.39	1322.38
588.74	1310.45
589.09	1298.35
589.44	1285.79
589.79	1273.85
590.14	1262.01
590.49	1250.05
590.84	1238.28
591.19	1226.91
591.54	1215.35
591.89	1203.92
592.25	1192.72
592.60	1181.13
592.95	1169.94
593.30	1159.04
593.65	1147.83
594.00	1136.79
594.35	1126.25
594.70	1115.28
595.05	1105.16
595.40	1094.95
595.75	1084.57
596.10	1074.74
596.45	1064.67
596.80	1054.95
597.15	1044.95
597.50	1035.11
597.85	1025.71
598.19	1016.12
598.54	1006.53
598.89	997.46
599.24	988.69
599.59	979.68
599.94	971.60
600.29	963.31
600.64	954.75
600.99	945.82
601.34	937.22
601.69	928.30
602.04	920.06
602.39	911.64
602.74	903.31
603.08	894.92
603.43	886.50
603.78	878.26
604.13	870.14
604.48	862.06
604.83	854.13
605.18	846.16
605.53	838.33
605.87	830.36
606.22	822.62
606.57	814.87
606.92	807.05
607.27	799.15
607.62	791.55
607.96	784.33
608.31	777.58
608.66	770.63
609.01	763.96
609.36	757.38
609.70	750.63
610.05	743.84
610.40	737.31
610.75	730.75
611.10	724.54
611.44	718.17
611.79	711.92
612.14	705.58
612.49	699.31
612.83	693.34
613.18	687.49
613.53	681.59
613.88	675.67
614.22	670.14
614.57	664.58
614.92	658.90
615.27	653.29
615.61	647.75
615.96	642.27
616.31	636.79
616.65	631.36
617.00	626.12
617.35	621.02
617.70	615.93
618.04	610.93
618.39	605.83
618.74	600.97
619.08	596.16
619.43	591.48
619.78	586.79
620.12	582.08
620.47	577.52
620.82	573.07
621.16	568.69
621.51	564.18
621.85	559.70
622.20	555.38
622.55	551.13
622.89	546.93
623.24	542.76
623.59	538.61
623.93	534.62
624.28	530.75
624.62	526.94
624.97	523.19
625.32	519.39
625.66	515.55
626.01	511.69
626.35	507.88
626.70	504.12
627.04	500.57
627.39	496.92
627.73	493.47
628.08	490.09
628.43	486.69
628.77	483.37
629.12	480.19
629.46	477.04
629.81	473.77
630.15	470.49
630.50	467.31
630.84	464.20
631.19	461.14
631.53	458.18
631.88	455.18
632.22	452.20
632.57	449.51
632.91	446.86
633.26	444.29
633.60	441.76
633.95	439.26
634.29	436.67
634.64	434.16
634.98	431.48
635.32	428.92
635.67	426.55
636.01	424.13
636.36	421.73
636.70	419.46
637.05	417.21
637.39	415.01
637.73	412.82
638.08	410.76
638.42	408.66
638.77	406.43
639.11	404.15
639.45	401.96
639.80	399.70
640.14	397.54
640.49	395.38
640.83	393.19
641.17	391.10
641.52	389.06
641.86	387.04
642.20	385.22
642.55	383.25
642.89	381.31
643.23	379.46
643.58	377.78
643.92	375.97
644.26	374.21
644.61	372.51
644.95	370.77
645.29	368.96
645.64	367.17
645.98	365.48
646.32	363.90
646.66	362.31
647.01	360.74
647.35	359.22
647.69	357.69
648.04	356.27
648.38	354.79
648.72	353.31
649.06	351.85
649.41	350.38
649.75	348.99
650.09	347.61
650.43	346.24
650.78	344.82
651.12	343.43
651.46	342.10
651.80	340.80
652.14	339.52
652.49	338.29
652.83	337.03
653.17	335.82
653.51	334.65
653.85	333.53
654.20	332.37
654.54	331.13
654.88	329.98
655.22	328.86
655.56	327.73
655.90	326.67
656.25	325.63
656.59	324.58
656.93	323.60
657.27	322.62
657.61	321.58
657.95	320.60
658.29	319.61
658.64	318.67
658.98	317.72
659.32	316.81
659.66	315.94
660.00	315.10
660.34	314.25
660.68	313.38
661.02	312.48
661.36	311.62
661.70	310.80
662.05	310.00
662.39	309.21
662.73	308.48
663.07	307.77
663.41	307.01
663.75	306.25
664.09	305.50
664.43	304.71
664.77	304.00
665.11	303.25
665.45	302.57
665.79	301.88
666.13	301.17
666.47	300.45
666.81	299.71
667.15	298.95
667.49	298.29
667.83	297.68
668.17	297.05
668.51	296.46
668.85	295.90
669.19	295.38
669.53	294.75
669.87	294.12
670.21	293.50
670.55	292.93
670.89	292.45
671.23	291.90
671.57	291.37
671.91	290.89
672.25	290.43
672.58	289.97
672.92	289.44
673.26	288.97
673.60	288.52
673.94	288.09
674.28	287.69
674.62	287.24
674.96	286.74
675.30	286.31
675.64	285.84
675.97	285.36
676.31	284.85
676.65	284.40
676.99	284.02
677.33	283.55
677.67	283.13
678.01	282.63
678.34	282.21
678.68	281.82
679.02	281.36
679.36	280.92
679.70	280.46
680.04	280.07
680.37	279.66
680.71	279.27
681.05	278.89
681.39	278.48
681.73	278.04
682.06	277.64
682.40	277.23
682.74	276.89
683.08	276.58
683.42	276.22
683.75	275.89
684.09	275.48
684.43	275.13
684.77	274.78
685.10	274.47
685.44	274.13
685.78	273.79
686.12	273.47
686.45	273.13
686.79	272.77
687.13	272.46
687.46	272.10
687.80	271.77
688.14	271.39
688.48	271.07
688.81	270.75
689.15	270.46
689.49	270.12
689.82	269.78
690.16	269.38
690.50	269.06
690.83	268.72
691.17	268.39
691.51	268.06
691.84	267.75
692.18	267.40
692.52	267.06
692.85	266.73
693.19	266.44
693.52	266.12
693.86	265.81
694.20	265.49
694.53	265.20
694.87	264.87
695.21	264.56
695.54	264.25
695.88	263.93
696.21	263.58
696.55	263.29
696.88	262.98
697.22	262.69
697.56	262.39
697.89	262.05
698.23	261.76
698.56	261.44
698.90	261.15
699.23	260.83
699.57	260.53
699.90	260.21
700.24	259.88
700.58	259.61
700.91	259.36
701.25	259.19
701.58	258.96
701.92	258.72
702.25	258.45
702.59	258.17
702.92	257.90
703.26	257.63
703.59	257.34
703.93	257.16
704.26	256.90
704.60	256.62
704.93	256.35
705.26	256.07
705.60	255.84
705.93	255.54
706.27	255.32
706.60	255.10
706.94	254.90
707.27	254.61
707.61	254.34
707.94	254.05
708.27	253.67
708.61	253.35
708.94	253.06
709.28	252.81
709.61	252.55
709.94	252.32
710.28	252.09
710.61	251.89
710.95	251.55
711.28	251.39
711.61	251.17
711.95	250.97
712.28	250.73
712.61	250.48
712.95	250.33
713.28	250.17
713.61	249.91
713.95	249.64
714.28	249.44
714.61	249.21
714.95	248.99
715.28	248.78
715.61	248.58
715.95	248.39
716.28	248.19
716.61	248.02
716.95	247.80
717.28	247.59
717.61	247.37
717.94	247.17
718.28	246.88
718.61	246.67
718.94	246.45
719.27	246.26
719.61	246.09
719.94	245.86
720.27	245.59
720.60	245.40
720.94	245.22
721.27	245.03
721.60	244.87
721.93	244.69
722.27	244.55
722.60	244.38
722.93	244.19
723.26	244.01
723.59	243.80
723.93	243.63
724.26	243.46
724.59	243.28
724.92	243.12
725.25	243.00
725.59	242.85
725.92	242.71
726.25	242.55
726.58	242.39
726.91	242.22
727.24	242.08
727.57	241.93
727.91	241.75
728.24	241.62
728.57	241.46
728.90	241.33
729.23	241.13
729.56	241.03
729.89	240.88
730.22	240.72
730.55	240.58
730.89	240.43
731.22	240.28
731.55	240.14
731.88	240.00
732.21	239.82
732.54	239.68
732.87	239.54
733.20	239.41
733.53	239.28
733.86	239.16
734.19	239.01
734.52	238.90
734.85	238.86
735.18	238.70
735.51	238.61
735.84	238.49
736.17	238.40
736.50	238.21
736.83	238.24
737.16	238.13
737.49	238.02
737.82	237.90
738.15	237.81
738.48	237.70
738.81	237.58
739.14	237.46
739.47	237.34
739.80	237.21
740.13	237.11
740.46	236.98
740.79	236.84
741.12	236.73
741.45	236.60
741.78	236.41
742.11	236.34
742.44	236.19
742.77	236.10
743.10	235.97
743.43	235.86
743.75	235.62
744.08	235.71
744.41	235.60
744.74	235.49
745.07	235.36
745.40	235.29
745.73	235.24
746.06	235.15
746.39	235.08
746.71	234.98
747.04	234.87
747.37	234.78
747.70	234.72
748.03	234.64
748.36	234.57
748.68	234.48
749.01	234.36
749.34	234.28
749.67	234.19
750.00	234.12
750.33	234.13
750.65	234.05
750.98	233.78
751.31	233.69
751.64	233.62
751.97	233.60
752.29	233.51
752.62	233.37
752.95	233.28
753.28	233.18
753.60	233.10
753.93	233.05
754.26	232.98
754.59	232.85
754.91	232.76
755.24	232.66
755.57	232.64
755.90	232.56
756.22	232.47
756.55	232.37
756.88	232.27
757.20	232.11
757.53	232.00
757.86	231.92
758.19	231.86
758.51	231.78
758.84	231.65
759.17	231.56
759.49	231.50
759.82	231.49
760.15	231.44
760.47	231.37
760.80	231.26
761.13	231.22
761.45	231.16
761.78	231.11
762.11	231.05
762.43	230.92
762.76	230.86
763.08	230.82
763.41	230.77
763.74	230.72
764.06	230.66
764.39	230.61
764.71	230.56
765.04	230.49
765.37	230.43
765.69	230.38
766.02	230.33
766.34	230.27
766.67	230.17
767.00	230.14
767.32	230.16
767.65	230.19
767.97	230.12
768.30	230.08
768.62	230.03
768.95	229.97
769.27	229.92
769.60	229.89
769.92	229.83
770.25	229.76
770.57	229.70
770.90	229.65
771.22	229.60
771.55	229.55
771.87	229.52
772.20	229.47
772.52	229.54
772.85	229.65
773.17	229.62
773.50	229.57
773.82	229.51
774.15	229.41
774.47	229.29
774.80	229.24
775.12	229.19
775.45	229.15
775.77	229.13
776.09	229.11
776.42	229.07
776.74	229.08
777.07	229.05
777.39	229.02
777.72	228.98
778.04	228.96
778.36	228.92
778.69	228.89
779.01	228.87
779.33	228.73
779.66	228.55
779.98	228.52
780.31	228.50
780.63	228.52
780.95	228.52
781.28	228.49
781.60	228.46
781.92	228.44
782.25	228.42
782.57	228.39
782.89	228.35
783.22	228.32
783.54	228.26
783.86	228.25
784.19	228.22
784.51	228.24
784.83	228.20
785.16	228.17
785.48	228.15
785.80	228.13
786.12	228.12
786.45	228.10
786.77	228.09
787.09	228.05
787.42	227.98
787.74	227.96
788.06	227.95
788.38	227.92
788.71	227.89
789.03	227.88
789.35	227.87
789.67	227.84
789.99	227.82
790.32	227.79
790.64	227.78
790.96	227.88
791.28	227.81
791.61	227.79
791.93	227.77
792.25	227.75
792.57	227.82
792.89	227.78
793.21	227.76
793.54	227.73
793.86	227.70
794.18	227.69
794.50	227.65
794.82	227.63
795.14	227.63
795.47	227.64
795.79	227.62
796.11	227.57
796.43	227.55
796.75	227.54
797.07	227.53
797.39	227.51
797.71	227.38
798.04	227.38
798.36	227.37
798.68	227.35
799.00	227.35
799.32	227.27
799.64	227.28
799.96	227.26
800.28	227.27
800.60	227.25
800.92	227.24
801.24	227.22
801.56	227.22
801.89	227.19
802.21	227.18
802.53	227.14
802.85	227.16
803.17	227.21
803.49	227.17
803.81	227.14
804.13	227.12
804.45	227.09
804.77	227.09
805.09	227.08
805.41	227.06
805.73	227.02
806.05	226.97
806.37	226.94
806.69	226.92
807.01	226.90
807.33	226.90
807.65	226.84
807.97	226.89
808.28	226.86
808.60	226.85
808.92	226.82
809.24	226.89
809.56	226.86
809.88	226.80
810.20	226.80
810.52	226.81
810.84	226.79
811.16	226.76
811.48	226.74
811.80	226.77
812.12	226.76
812.43	226.78
812.75	226.78
813.07	226.76
813.39	226.76
813.71	226.73
814.03	226.71
814.35	226.71
814.67	226.64
814.98	226.62
815.30	226.61
815.62	226.58
815.94	226.49
816.26	226.49
816.58	226.46
816.89	226.46
817.21	226.42
817.53	226.43
817.85	226.43
818.17	226.42
818.48	226.36
818.80	226.38
819.12	226.35
819.44	226.32
819.76	226.30
820.07	226.29
820.39	226.28
820.71	226.28
821.03	226.28
821.34	226.26
821.66	226.27
821.98	226.28
822.30	226.27
822.61	226.34
822.93	226.30
823.25	226.30
823.57	226.28
823.88	226.29
824.20	226.28
824.52	226.29
824.83	226.28
825.15	226.26
825.47	226.25
825.79	226.25
826.10	226.24
826.42	226.23
826.74	226.23
827.05	226.22
827.37	226.22
827.69	226.21
828.00	226.21
828.32	226.20
828.64	226.18
828.95	226.24
829.27	226.20
829.58	226.20
829.90	226.21
830.22	226.21
830.53	226.18
830.85	226.16
831.17	226.12
831.48	226.12
831.80	226.12
832.11	226.11
832.43	226.09
832.75	226.08
833.06	226.15
833.38	226.11
833.69	226.10
834.01	226.10
834.32	226.09
834.64	226.08
834.96	226.07
835.27	226.07
835.59	226.02
835.90	225.99
836.22	225.98
836.53	225.95
836.85	225.93
837.16	226.07
837.48	226.07
837.79	226.11
838.11	226.11
838.42	226.10
838.74	226.11
839.05	226.10
839.37	226.09
839.68	226.01
840.00	226.01
840.31	226.02
840.63	226.01
840.94	225.99
841.26	225.98
841.57	225.97
841.88	225.98
842.20	225.96
842.51	225.93
842.83	225.93
843.14	226.05
843.46	226.04
843.77	225.96
844.08	225.96
844.40	225.91
844.71	225.90
845.03	225.88
845.34	225.87
845.65	225.86
845.97	225.86
846.28	225.87
846.60	225.87
846.91	225.85
847.22	225.84
847.54	225.87
847.85	225.88
848.16	225.86
848.48	225.84
848.79	225.89
849.10	225.90
849.42	225.91
849.73	225.78
850.04	225.78
850.36	225.73
850.67	225.75
850.98	225.76
851.30	225.76
851.61	225.76
851.92	225.76
852.23	225.79
852.55	225.80
852.86	225.80
853.17	225.81
853.49	225.84
853.80	225.86
854.11	225.86
854.42	225.87
854.74	225.86
855.05	225.86
855.36	225.79
855.67	225.79
855.99	225.79
856.30	225.94
856.61	225.93
856.92	225.94
857.23	225.93
857.55	225.92
857.86	225.91
858.17	225.92
858.48	225.90
858.79	225.87
859.11	225.88
859.42	225.87
859.73	225.84
860.04	225.83
860.35	225.79
860.66	225.75
860.98	225.75
861.29	225.76
861.60	225.75
861.91	225.78
862.22	225.76
862.53	225.73
862.84	225.58
863.16	225.61
863.47	225.58
863.78	225.56
864.09	225.57
864.40	225.57
864.71	225.57
865.02	225.59
865.33	225.57
865.64	225.55
865.95	225.55
866.27	225.63
866.58	225.61
866.89	225.63
867.20	225.63
867.51	225.61
867.82	225.60
868.13	225.64
868.44	225.61
868.75	225.63
869.06	225.64
869.37	225.65
869.68	225.62
869.99	225.64
870.30	225.65
870.61	225.67
870.92	225.64
871.23	225.63
871.54	225.65
871.85	225.67
872.16	225.69
872.47	225.68
872.78	225.61
873.09	225.62
873.40	225.60
873.71	225.61
874.02	225.62
874.33	225.61
874.64	225.59
874.95	225.61
875.26	225.58
875.56	225.58
875.87	225.57
876.18	225.57
876.49	225.69
876.80	225.67
877.11	225.65
877.42	225.66
877.73	225.66
878.04	225.64
878.35	225.63
878.66	225.64
878.96	225.63
879.27	225.63
879.58	225.62
879.89	225.62
880.20	225.65
880.51	225.64
880.82	225.65
881.12	225.65
881.43	225.62
881.74	225.61
882.05	225.61
882.36	225.61
882.67	225.62
882.97	225.48
883.28	225.47
883.59	225.47
883.90	225.49
884.21	225.50
884.51	225.50
884.82	225.48
885.13	225.47
885.44	225.47
885.74	225.47
886.05	225.46
886.36	225.46
886.67	225.42
886.98	225.48
887.28	225.49
887.59	225.49
887.90	225.50
888.20	225.50
888.51	225.52
888.82	225.49
889.13	225.50
889.43	225.61
889.74	225.60
890.05	225.60
890.35	225.58
890.66	225.56
890.97	225.55
891.28	225.54
891.58	225.53
891.89	225.54
892.20	225.52
892.50	225.51
892.81	225.50
893.12	225.50
893.42	225.43
893.73	225.43
894.04	225.43
894.34	225.44
894.65	225.44
894.95	225.42
895.26	225.43
895.57	225.48
895.87	225.35
896.18	225.38
896.48	225.38
896.79	225.38
897.10	225.40
897.40	225.40
897.71	225.42
898.01	225.41
898.32	225.42
898.63	225.42
898.93	225.43
899.24	225.43
899.54	225.43
899.85	225.43
900.15	225.42
900.46	225.41
900.76	225.42
901.07	225.42
901.38	225.41
901.68	225.43
901.99	225.36
902.29	225.37
902.60	225.36
902.90	225.35
903.21	225.35
903.51	225.34
903.82	225.36
904.12	225.36
904.43	225.36
904.73	225.35
905.03	225.36
905.34	225.48
905.64	225.47
905.95	225.47
906.25	225.47
906.56	225.47
906.86	225.47
907.17	225.46
907.47	225.46
907.77	225.45
908.08	225.42
908.38	225.43
908.69	225.43
908.99	225.45
909.30	225.46
909.60	225.46
909.90	225.47
910.21	225.43
910.51	225.41
910.81	225.40
911.12	225.41
911.42	225.41
911.73	225.27
912.03	225.29
912.33	225.31
912.64	225.30
912.94	225.29
913.24	225.28
913.55	225.27
913.85	225.26
914.15	225.28
914.46	225.30
914.76	225.29
915.06	225.28
915.37	225.26
915.67	225.24
915.97	225.25
916.27	225.22
916.58	225.23
916.88	225.23
917.18	225.22
917.49	225.30
917.79	225.29
918.09	225.31
918.39	225.34
918.70	225.33
919.00	225.35
919.30	225.41
919.60	225.40
919.91	225.39
920.21	225.40
920.51	225.37
920.81	225.36
921.12	225.38
921.42	225.38
921.72	225.39
922.02	225.40
922.32	225.41
922.63	225.42
922.93	225.48
923.23	225.49
923.53	225.48
923.83	225.40
924.13	225.41
924.44	225.41
924.74	225.42
925.04	225.45
925.34	225.44
925.64	225.39
925.94	225.39
926.24	225.46
926.55	225.45
926.85	225.47
927.15	225.47
927.45	225.46
927.75	225.46
928.05	225.46
928.35	225.45
928.65	225.47
928.95	225.48
929.26	225.42
929.56	225.44
929.86	225.46
930.16	225.45
930.46	225.44
930.76	225.44
931.06	225.38
931.36	225.35
931.66	225.37
931.96	225.39
932.26	225.39
932.56	225.34
932.86	225.34
933.16	225.34
933.46	225.33
933.76	225.31
934.06	225.34
934.36	225.38
934.66	225.37
934.96	225.35
935.26	225.35
935.56	225.37
935.86	225.34
936.16	225.32
936.46	225.31
936.76	225.31
937.06	225.29
937.36	225.30
937.66	225.31
937.96	225.30
938.26	225.27
938.56	225.26
938.86	225.27
939.16	225.29
939.46	225.30
939.76	225.32
940.06	225.31
940.35	225.29
940.65	225.23
940.95	225.24
941.25	225.21
941.55	225.20
941.85	225.19
942.15	225.22
942.45	225.25
942.75	225.25
943.04	225.25
943.34	225.28
943.64	225.27
943.94	225.25
944.24	225.25
944.54	225.26
944.84	225.26
945.13	225.24
945.43	225.21
945.73	225.21
946.03	225.19
946.33	225.18
946.62	225.17
946.92	225.17
947.22	225.17
947.52	225.19
947.82	225.20
948.11	225.18
948.41	225.16
948.71	225.12
949.01	225.13
949.31	225.12
949.60	225.10
949.90	225.12
950.20	225.11
950.50	225.11
950.79	225.10
951.09	225.12
951.39	225.12
951.69	225.11
951.98	225.13
952.28	225.14
952.58	225.14
952.87	225.14
953.17	225.16
953.47	225.15
953.76	225.14
954.06	225.12
954.36	225.10
954.66	225.11
954.95	225.14
955.25	225.15
955.55	225.16
955.84	225.14
956.14	225.15
956.44	225.16
956.73	225.14
957.03	225.15
957.32	225.15
957.62	225.15
957.92	225.17
958.21	225.16
958.51	225.30
958.81	225.32
959.10	225.33
959.40	225.36
959.69	225.37
959.99	225.39
960.29	225.39
960.58	225.38
960.88	225.43
961.17	225.42
961.47	225.43
961.76	225.41
962.06	225.44
962.36	225.42
962.65	225.42
962.95	225.43
963.24	225.42
963.54	225.42
963.83	225.43
964.13	225.42
964.42	225.41
964.72	225.30
965.01	225.30
965.31	225.29
965.60	225.25
965.90	225.33
966.19	225.30
966.49	225.31
966.78	225.31
967.08	225.30
967.37	225.29
967.67	225.27
967.96	225.30
968.26	225.29
968.55	225.31
968.85	225.30
969.14	225.30
969.43	225.30
969.73	225.28
970.02	225.27
970.32	225.27
970.61	225.25
970.91	225.21
971.20	225.20
971.49	225.19
971.79	225.20
972.08	225.11
972.38	225.12
972.67	225.10
972.96	225.12
973.26	225.10
973.55	225.14
973.85	225.13
974.14	225.11
974.43	225.12
974.73	225.10
975.02	225.09
975.31	225.09
975.61	225.09
975.90	225.08
976.19	225.07
976.49	225.08
976.78	225.09
977.07	225.09
977.37	225.10
977.66	225.11
977.95	225.09
978.24	225.11
978.54	225.13
978.83	225.13
979.12	225.12
979.42	225.12
979.71	225.10
980.00	225.09
980.29	225.09
980.59	225.07
980.88	225.10
981.17	225.10
981.46	225.10
981.76	225.10
982.05	225.14
982.34	225.15
982.63	225.14
982.93	225.14
983.22	225.17
983.51	225.18
983.80	225.20
984.09	225.21
984.39	225.20
984.68	225.19
984.97	225.19
985.26	225.18
985.55	225.19
985.85	225.16
986.14	225.19
986.43	225.20
986.72	225.20
987.01	225.16
987.30	225.16
987.59	225.15
987.89	225.16
988.18	225.12
988.47	225.11
988.76	225.10
989.05	225.09
989.34	225.07
989.63	225.10
989.92	225.08
990.22	225.06
990.51	225.05
990.80	225.04
991.09	225.05
991.38	225.07
991.67	225.06
991.96	225.05
992.25	225.05
992.54	225.02
992.83	225.02
993.12	225.02
993.41	225.04
993.70	225.09
993.99	225.11
994.28	225.13
994.58	225.15
994.87	225.14
995.16	225.14
995.45	225.13
995.74	225.08
996.03	225.11
996.32	225.13
996.61	225.16
996.90	225.16
997.19	225.14
997.48	225.14
997.77	225.13
998.06	225.14
998.34	225.13
998.63	225.13
998.92	225.14
999.21	225.16
999.50	225.16
999.79	225.11
1000.08	225.11
1000.37	225.11
1000.66	225.09
1000.95	225.13
1001.24	225.14
1001.53	225.16
1001.82	225.16
1002.11	225.13
1002.40	225.13
1002.68	225.16
1002.97	225.25
1003.26	225.24
1003.55	225.22
1003.84	225.23
1004.13	225.27
1004.42	225.27
1004.71	225.27
1004.99	225.25
1005.28	225.28
1005.57	225.27
1005.86	225.26
1006.15	225.25
1006.44	225.23
1006.72	225.24
1007.01	225.22
1007.30	225.22
1007.59	225.20
1007.88	225.20
1008.17	225.21
1008.45	225.19
1008.74	225.13
1009.03	225.07
1009.32	225.07
1009.60	225.07
1009.89	225.06
1010.18	225.01
1010.47	225.00
1010.76	225.01
1011.04	225.01
1011.33	225.00
1011.62	225.01
1011.91	225.02
1012.19	225.02
1012.48	225.03
1012.77	225.03
1013.05	225.07
1013.34	225.07
1013.63	225.06
1013.92	225.07
1014.20	225.06
1014.49	225.07
1014.78	225.09
1015.06	225.04
1015.35	225.05
1015.64	225.07
1015.92	225.09
1016.21	225.10
1016.50	225.11
1016.78	225.12
1017.07	225.13
1017.36	225.11
1017.64	225.09
1017.93	225.10
1018.22	225.08
1018.50	225.08
1018.79	225.07
1019.08	225.03
1019.36	225.04
1019.65	225.02
1019.93	225.05
1020.22	225.07
1020.51	225.13
1020.79	225.12
1021.08	224.83
1021.36	224.86
1021.65	225.07
1021.94	225.02
1022.22	225.14
1022.51	224.76
1022.79	225.63
1023.08	225.19
1023.36	226.58
1023.65	224.76
>>>>>End Processed Spectral Data<<<<<
