SpectraSuite Data File
++++++++++++++++++++++++++++++++++++
Date: Fri Oct 02 17:42:23 EDT 2015
User: lab3
Dark Spectrum Present: No
Reference Spectrum Present: No
Number of Sampled Component Spectra: 1
Spectrometers: USB2E7196
Integration Time (usec): 46000 (USB2E7196)
Spectra Averaged: 1500 (USB2E7196)
Boxcar Smoothing: 10 (USB2E7196)
Correct for Electrical Dark: No (USB2E7196)
Strobe/Lamp Enabled: No (USB2E7196)
Correct for Detector Non-linearity: No (USB2E7196)
Correct for Stray Light: No (USB2E7196)
Number of Pixels in Processed Spectrum: 2048
>>>>>Begin Processed Spectral Data<<<<<
339.09	0.00
339.48	215.39
339.86	216.88
340.24	218.22
340.63	219.74
341.01	222.80
341.39	222.34
341.78	223.76
342.16	224.98
342.54	225.08
342.93	213.72
343.31	224.52
343.69	225.05
344.07	225.51
344.46	225.94
344.84	226.31
345.22	226.54
345.60	226.79
345.99	226.98
346.37	227.10
346.75	227.22
347.13	227.30
347.52	227.36
347.90	227.45
348.28	227.48
348.66	227.54
349.05	227.53
349.43	227.59
349.81	227.64
350.19	227.69
350.57	227.75
350.96	227.82
351.34	227.92
351.72	228.01
352.10	228.11
352.48	228.18
352.87	228.24
353.25	228.30
353.63	228.35
354.01	228.42
354.39	228.50
354.77	228.57
355.15	228.67
355.54	228.72
355.92	228.75
356.30	228.82
356.68	228.96
357.06	229.03
357.44	229.08
357.82	229.14
358.20	229.26
358.58	229.32
358.97	229.38
359.35	229.46
359.73	229.55
360.11	229.60
360.49	229.67
360.87	229.71
361.25	229.78
361.63	229.87
362.01	229.92
362.39	229.95
362.77	230.00
363.15	230.02
363.53	230.06
363.91	230.10
364.29	230.12
364.67	230.03
365.05	230.06
365.43	230.09
365.81	230.12
366.19	230.13
366.57	230.19
366.95	230.19
367.33	230.16
367.71	230.14
368.09	230.16
368.47	230.15
368.85	230.15
369.23	230.17
369.61	230.12
369.99	230.14
370.37	230.14
370.75	230.21
371.13	230.18
371.51	230.13
371.89	230.12
372.27	230.09
372.65	230.07
373.03	230.04
373.41	230.00
373.78	229.95
374.16	229.86
374.54	229.78
374.92	229.73
375.30	229.70
375.68	229.63
376.06	229.59
376.44	229.54
376.82	229.48
377.19	229.43
377.57	229.38
377.95	229.29
378.33	229.23
378.71	229.08
379.09	229.03
379.47	229.00
379.84	228.94
380.22	228.88
380.60	228.80
380.98	228.76
381.36	228.70
381.73	228.64
382.11	228.62
382.49	228.57
382.87	228.51
383.25	228.45
383.62	228.56
384.00	228.49
384.38	228.46
384.76	228.44
385.13	228.44
385.51	228.40
385.89	228.34
386.27	228.30
386.64	228.28
387.02	228.24
387.40	228.19
387.78	228.16
388.15	228.14
388.53	228.11
388.91	228.09
389.29	228.05
389.66	228.04
390.04	228.00
390.42	228.01
390.79	228.00
391.17	227.99
391.55	227.83
391.92	227.82
392.30	227.81
392.68	227.77
393.05	227.75
393.43	227.75
393.81	227.75
394.18	227.74
394.56	227.73
394.94	227.77
395.31	227.77
395.69	227.82
396.06	227.85
396.44	227.87
396.82	227.87
397.19	227.95
397.57	227.96
397.95	228.01
398.32	227.99
398.70	228.03
399.07	228.10
399.45	228.13
399.82	228.18
400.20	228.22
400.58	228.28
400.95	228.29
401.33	228.37
401.70	228.52
402.08	228.62
402.45	228.70
402.83	228.80
403.20	228.91
403.58	228.99
403.95	229.12
404.33	229.27
404.71	229.42
405.08	229.62
405.46	229.78
405.83	229.95
406.21	230.15
406.58	230.35
406.96	230.55
407.33	230.80
407.70	231.07
408.08	231.44
408.45	231.77
408.83	232.12
409.20	232.43
409.58	232.72
409.95	233.10
410.33	233.53
410.70	233.94
411.08	234.42
411.45	234.93
411.82	235.42
412.20	236.00
412.57	236.70
412.95	237.24
413.32	237.94
413.69	238.66
414.07	239.42
414.44	240.27
414.82	241.13
415.19	242.12
415.56	243.14
415.94	244.18
416.31	245.35
416.68	246.53
417.06	247.90
417.43	249.18
417.81	250.65
418.18	252.14
418.55	253.78
418.93	255.48
419.30	257.26
419.67	259.15
420.04	261.09
420.42	263.11
420.79	265.46
421.16	267.81
421.54	270.22
421.91	272.74
422.28	275.34
422.66	278.14
423.03	280.82
423.40	283.64
423.77	286.65
424.15	289.74
424.52	292.95
424.89	296.43
425.26	299.88
425.64	303.10
426.01	306.73
426.38	310.44
426.75	314.24
427.13	318.15
427.50	322.24
427.87	326.50
428.24	330.81
428.61	334.96
428.99	339.44
429.36	344.34
429.73	349.05
430.10	353.76
430.47	358.58
430.85	363.55
431.22	368.89
431.59	374.38
431.96	379.73
432.33	385.68
432.70	391.36
433.08	398.07
433.45	404.40
433.82	410.64
434.19	417.61
434.56	424.50
434.93	431.14
435.30	437.74
435.68	445.19
436.05	452.46
436.42	459.68
436.79	466.31
437.16	473.45
437.53	481.07
437.90	488.69
438.27	496.16
438.64	504.22
439.01	511.51
439.38	518.18
439.75	524.59
440.13	531.83
440.50	538.68
440.87	544.10
441.24	550.03
441.61	556.51
441.98	561.18
442.35	566.76
442.72	572.41
443.09	577.76
443.46	581.10
443.83	583.50
444.20	585.47
444.57	588.47
444.94	590.08
445.31	591.75
445.68	593.13
446.05	594.05
446.42	593.41
446.79	592.60
447.16	591.86
447.53	591.15
447.90	588.57
448.27	586.07
448.64	582.46
449.01	579.87
449.37	574.98
449.74	570.52
450.11	564.85
450.48	558.68
450.85	552.54
451.22	547.25
451.59	542.10
451.96	537.43
452.33	530.74
452.70	524.83
453.07	517.66
453.43	510.54
453.80	503.62
454.17	497.02
454.54	490.94
454.91	484.10
455.28	477.71
455.65	471.68
456.02	465.33
456.38	460.22
456.75	453.67
457.12	448.38
457.49	443.08
457.86	438.08
458.23	433.72
458.59	428.90
458.96	423.96
459.33	419.64
459.70	415.24
460.07	411.93
460.43	407.97
460.80	404.30
461.17	401.12
461.54	397.67
461.91	394.46
462.27	391.21
462.64	388.58
463.01	385.52
463.38	382.46
463.74	379.71
464.11	377.28
464.48	375.11
464.85	372.73
465.21	370.94
465.58	368.94
465.95	366.64
466.32	364.80
466.68	363.00
467.05	361.19
467.42	359.43
467.78	357.51
468.15	355.75
468.52	354.49
468.88	352.76
469.25	351.18
469.62	349.93
469.98	348.56
470.35	347.35
470.72	346.26
471.08	345.15
471.45	344.21
471.82	343.18
472.18	342.05
472.55	341.35
472.92	340.45
473.28	339.74
473.65	338.98
474.02	338.27
474.38	337.69
474.75	337.33
475.11	336.83
475.48	336.60
475.85	336.38
476.21	336.25
476.58	336.18
476.94	336.32
477.31	336.40
477.67	336.50
478.04	336.71
478.41	337.01
478.77	337.42
479.14	337.69
479.50	338.19
479.87	338.84
480.23	339.49
480.60	340.13
480.96	340.79
481.33	341.74
481.69	342.68
482.06	343.62
482.42	344.50
482.79	345.59
483.15	346.85
483.52	348.25
483.88	349.62
484.25	351.09
484.61	352.61
484.98	354.26
485.34	356.11
485.71	358.05
486.07	360.12
486.44	362.19
486.80	364.49
487.17	366.90
487.53	369.52
487.90	372.27
488.26	375.26
488.62	378.41
488.99	381.58
489.35	384.91
489.72	388.52
490.08	392.32
490.44	396.23
490.81	400.29
491.17	404.47
491.54	408.95
491.90	413.59
492.26	418.54
492.63	423.74
492.99	429.16
493.36	434.78
493.72	440.67
494.08	446.72
494.45	453.14
494.81	459.81
495.17	466.66
495.54	473.90
495.90	481.42
496.26	489.13
496.63	497.09
496.99	505.34
497.35	513.99
497.72	522.90
498.08	532.05
498.44	541.51
498.80	551.53
499.17	561.79
499.53	572.33
499.89	583.28
500.26	594.42
500.62	605.88
500.98	617.92
501.34	630.15
501.71	642.91
502.07	655.88
502.43	669.37
502.79	683.06
503.16	697.19
503.52	711.55
503.88	726.32
504.24	741.50
504.60	756.94
504.97	772.86
505.33	789.18
505.69	806.38
506.05	823.90
506.41	841.35
506.78	859.01
507.14	877.22
507.50	895.84
507.86	914.80
508.22	933.99
508.59	953.03
508.95	972.92
509.31	993.52
509.67	1014.72
510.03	1035.95
510.39	1057.27
510.75	1078.83
511.12	1100.64
511.48	1122.59
511.84	1144.64
512.20	1167.09
512.56	1190.33
512.92	1213.59
513.28	1236.51
513.64	1259.73
514.00	1283.38
514.37	1307.29
514.73	1331.22
515.09	1355.08
515.45	1379.31
515.81	1403.60
516.17	1428.14
516.53	1452.09
516.89	1475.97
517.25	1500.12
517.61	1524.14
517.97	1548.66
518.33	1572.63
518.69	1596.54
519.05	1621.01
519.41	1645.79
519.77	1670.62
520.13	1694.84
520.49	1719.02
520.85	1743.58
521.21	1767.51
521.57	1791.96
521.93	1815.92
522.29	1840.33
522.65	1864.30
523.01	1888.23
523.37	1911.80
523.73	1936.02
524.09	1960.07
524.45	1983.84
524.81	2007.21
525.17	2030.45
525.53	2053.03
525.89	2076.13
526.25	2099.24
526.61	2121.33
526.97	2143.52
527.33	2165.78
527.68	2187.67
528.04	2208.80
528.40	2228.95
528.76	2249.63
529.12	2269.66
529.48	2289.26
529.84	2307.23
530.20	2325.84
530.56	2343.79
530.91	2361.98
531.27	2379.76
531.63	2396.74
531.99	2413.38
532.35	2429.33
532.71	2445.28
533.07	2461.93
533.42	2476.83
533.78	2492.71
534.14	2508.75
534.50	2523.75
534.86	2538.61
535.21	2551.56
535.57	2565.03
535.93	2578.29
536.29	2590.32
536.65	2602.33
537.00	2613.76
537.36	2626.00
537.72	2636.59
538.08	2646.89
538.44	2656.51
538.79	2665.70
539.15	2674.08
539.51	2682.02
539.87	2689.24
540.22	2694.79
540.58	2700.44
540.94	2707.29
541.29	2712.37
541.65	2715.71
542.01	2718.59
542.37	2720.66
542.72	2724.15
543.08	2725.93
543.44	2728.24
543.79	2729.49
544.15	2729.86
544.51	2730.62
544.87	2730.31
545.22	2729.28
545.58	2727.58
545.94	2725.95
546.29	2723.04
546.65	2720.17
547.01	2717.22
547.36	2715.05
547.72	2712.70
548.07	2708.69
548.43	2703.16
548.79	2696.91
549.14	2691.97
549.50	2687.06
549.86	2681.30
550.21	2674.38
550.57	2668.41
550.92	2660.23
551.28	2652.70
551.64	2645.38
551.99	2637.58
552.35	2629.22
552.70	2621.15
553.06	2613.34
553.41	2604.83
553.77	2596.07
554.13	2587.18
554.48	2577.48
554.84	2566.65
555.19	2556.50
555.55	2546.24
555.90	2536.01
556.26	2526.28
556.61	2515.38
556.97	2502.95
557.32	2491.10
557.68	2479.11
558.03	2466.99
558.39	2455.94
558.74	2445.13
559.10	2432.66
559.45	2420.53
559.81	2408.99
560.16	2396.74
560.52	2384.71
560.87	2372.97
561.23	2360.43
561.58	2348.15
561.94	2335.38
562.29	2322.11
562.64	2309.49
563.00	2296.57
563.35	2284.21
563.71	2271.53
564.06	2258.72
564.42	2246.70
564.77	2233.95
565.12	2221.18
565.48	2208.33
565.83	2195.56
566.19	2182.80
566.54	2170.04
566.89	2156.03
567.25	2142.24
567.60	2129.74
567.96	2116.40
568.31	2101.78
568.66	2087.98
569.02	2075.11
569.37	2062.31
569.72	2049.98
570.08	2036.35
570.43	2022.47
570.78	2008.19
571.14	1993.34
571.49	1979.26
571.84	1965.67
572.20	1950.86
572.55	1936.38
572.90	1921.63
573.26	1906.88
573.61	1891.67
573.96	1876.87
574.31	1862.43
574.67	1847.91
575.02	1832.52
575.37	1817.14
575.72	1802.64
576.08	1788.34
576.43	1772.98
576.78	1758.05
577.13	1743.38
577.49	1729.08
577.84	1715.29
578.19	1700.61
578.54	1686.19
578.90	1671.24
579.25	1656.18
579.60	1642.71
579.95	1629.02
580.30	1615.24
580.66	1601.18
581.01	1587.05
581.36	1572.96
581.71	1559.88
582.06	1546.60
582.42	1533.54
582.77	1520.54
583.12	1507.42
583.47	1494.28
583.82	1481.23
584.17	1467.82
584.53	1454.05
584.88	1440.63
585.23	1426.86
585.58	1413.96
585.93	1401.25
586.28	1389.26
586.63	1377.29
586.98	1364.76
587.34	1352.28
587.69	1339.56
588.04	1327.20
588.39	1315.28
588.74	1303.44
589.09	1291.34
589.44	1278.86
589.79	1267.08
590.14	1255.36
590.49	1243.63
590.84	1231.97
591.19	1220.76
591.54	1209.38
591.89	1198.14
592.25	1187.05
592.60	1175.64
592.95	1164.58
593.30	1153.69
593.65	1142.49
594.00	1131.40
594.35	1120.97
594.70	1110.16
595.05	1100.23
595.40	1090.18
595.75	1079.93
596.10	1070.22
596.45	1060.17
596.80	1050.49
597.15	1040.57
597.50	1030.80
597.85	1021.38
598.19	1011.86
598.54	1002.39
598.89	993.33
599.24	984.57
599.59	975.72
599.94	967.77
600.29	959.58
600.64	951.11
600.99	942.30
601.34	933.88
601.69	925.08
602.04	916.95
602.39	908.66
602.74	900.39
603.08	892.12
603.43	883.81
603.78	875.70
604.13	867.77
604.48	859.79
604.83	852.01
605.18	844.15
605.53	836.42
605.87	828.46
606.22	820.92
606.57	813.28
606.92	805.49
607.27	797.62
607.62	790.18
607.96	783.09
608.31	776.46
608.66	769.60
609.01	763.04
609.36	756.60
609.70	749.88
610.05	743.20
610.40	736.73
610.75	730.30
611.10	724.17
611.44	717.91
611.79	711.75
612.14	705.50
612.49	699.39
612.83	693.56
613.18	687.86
613.53	681.98
613.88	676.22
614.22	670.91
614.57	665.47
614.92	659.83
615.27	654.36
615.61	648.91
615.96	643.54
616.31	638.18
616.65	632.87
617.00	627.82
617.35	622.83
617.70	617.92
618.04	613.00
618.39	608.03
618.74	603.33
619.08	598.65
619.43	594.12
619.78	589.60
620.12	585.02
620.47	580.64
620.82	576.35
621.16	572.03
621.51	567.58
621.85	563.25
622.20	559.10
622.55	554.95
622.89	550.86
623.24	546.76
623.59	542.73
623.93	538.87
624.28	535.05
624.62	531.36
624.97	527.71
625.32	524.07
625.66	520.36
626.01	516.57
626.35	512.88
626.70	509.21
627.04	505.70
627.39	502.17
627.73	498.80
628.08	495.52
628.43	492.27
628.77	489.10
629.12	486.00
629.46	482.90
629.81	479.73
630.15	476.59
630.50	473.55
630.84	470.54
631.19	467.59
631.53	464.75
631.88	461.87
632.22	459.01
632.57	456.43
632.91	453.90
633.26	451.48
633.60	449.03
633.95	446.68
634.29	444.23
634.64	441.86
634.98	439.27
635.32	436.86
635.67	434.61
636.01	432.29
636.36	430.03
636.70	427.94
637.05	425.83
637.39	423.72
637.73	421.65
638.08	419.69
638.42	417.67
638.77	415.56
639.11	413.39
639.45	411.31
639.80	409.15
640.14	407.11
640.49	405.05
640.83	402.99
641.17	401.00
641.52	399.04
641.86	397.11
642.20	395.39
642.55	393.50
642.89	391.66
643.23	389.90
643.58	388.31
643.92	386.55
644.26	384.87
644.61	383.27
644.95	381.60
645.29	379.87
645.64	378.18
645.98	376.56
646.32	375.07
646.66	373.56
647.01	372.06
647.35	370.61
647.69	369.14
648.04	367.81
648.38	366.39
648.72	365.01
649.06	363.61
649.41	362.24
649.75	360.92
650.09	359.59
650.43	358.27
650.78	356.90
651.12	355.57
651.46	354.30
651.80	353.04
652.14	351.81
652.49	350.64
652.83	349.45
653.17	348.29
653.51	347.17
653.85	346.10
654.20	344.98
654.54	343.79
654.88	342.69
655.22	341.60
655.56	340.51
655.90	339.46
656.25	338.47
656.59	337.44
656.93	336.47
657.27	335.54
657.61	334.52
657.95	333.56
658.29	332.60
658.64	331.70
658.98	330.77
659.32	329.87
659.66	329.02
660.00	328.18
660.34	327.34
660.68	326.45
661.02	325.52
661.36	324.66
661.70	323.81
662.05	322.98
662.39	322.16
662.73	321.43
663.07	320.70
663.41	319.92
663.75	319.13
664.09	318.35
664.43	317.53
664.77	316.79
665.11	316.02
665.45	315.30
665.79	314.59
666.13	313.83
666.47	313.06
666.81	312.30
667.15	311.49
667.49	310.79
667.83	310.15
668.17	309.50
668.51	308.89
668.85	308.31
669.19	307.73
669.53	307.08
669.87	306.40
670.21	305.75
670.55	305.13
670.89	304.59
671.23	304.01
671.57	303.46
671.91	302.93
672.25	302.42
672.58	301.91
672.92	301.31
673.26	300.83
673.60	300.33
673.94	299.84
674.28	299.39
674.62	298.90
674.96	298.37
675.30	297.88
675.64	297.34
675.97	296.80
676.31	296.24
676.65	295.73
676.99	295.28
677.33	294.75
677.67	294.27
678.01	293.72
678.34	293.24
678.68	292.78
679.02	292.25
679.36	291.74
679.70	291.24
680.04	290.78
680.37	290.30
680.71	289.85
681.05	289.40
681.39	288.91
681.73	288.39
682.06	287.89
682.40	287.43
682.74	287.01
683.08	286.64
683.42	286.20
683.75	285.81
684.09	285.32
684.43	284.90
684.77	284.47
685.10	284.08
685.44	283.67
685.78	283.25
686.12	282.87
686.45	282.47
686.79	282.03
687.13	281.63
687.46	281.21
687.80	280.81
688.14	280.36
688.48	279.97
688.81	279.57
689.15	279.22
689.49	278.79
689.82	278.38
690.16	277.90
690.50	277.52
690.83	277.10
691.17	276.70
691.51	276.31
691.84	275.94
692.18	275.51
692.52	275.09
692.85	274.68
693.19	274.31
693.52	273.92
693.86	273.54
694.20	273.15
694.53	272.77
694.87	272.37
695.21	271.97
695.54	271.60
695.88	271.22
696.21	270.81
696.55	270.46
696.88	270.08
697.22	269.71
697.56	269.33
697.89	268.91
698.23	268.55
698.56	268.14
698.90	267.77
699.23	267.38
699.57	267.02
699.90	266.66
700.24	266.28
700.58	265.94
700.91	265.64
701.25	265.40
701.58	265.11
701.92	264.81
702.25	264.49
702.59	264.14
702.92	263.80
703.26	263.45
703.59	263.10
703.93	262.88
704.26	262.56
704.60	262.24
704.93	261.91
705.26	261.59
705.60	261.32
705.93	260.98
706.27	260.70
706.60	260.44
706.94	260.17
707.27	259.83
707.61	259.50
707.94	259.16
708.27	258.72
708.61	258.36
708.94	258.03
709.28	257.73
709.61	257.43
709.94	257.17
710.28	256.92
710.61	256.66
710.95	256.27
711.28	256.08
711.61	255.80
711.95	255.57
712.28	255.28
712.61	254.99
712.95	254.81
713.28	254.60
713.61	254.29
713.95	254.00
714.28	253.76
714.61	253.49
714.95	253.25
715.28	253.02
715.61	252.79
715.95	252.55
716.28	252.32
716.61	252.12
716.95	251.86
717.28	251.62
717.61	251.38
717.94	251.15
718.28	250.82
718.61	250.58
718.94	250.32
719.27	250.11
719.61	249.90
719.94	249.64
720.27	249.36
720.60	249.14
720.94	248.93
721.27	248.73
721.60	248.55
721.93	248.33
722.27	248.15
722.60	247.96
722.93	247.74
723.26	247.54
723.59	247.30
723.93	247.12
724.26	246.93
724.59	246.73
724.92	246.56
725.25	246.44
725.59	246.26
725.92	246.11
726.25	245.94
726.58	245.76
726.91	245.58
727.24	245.42
727.57	245.24
727.91	245.06
728.24	244.90
728.57	244.71
728.90	244.56
729.23	244.35
729.56	244.25
729.89	244.08
730.22	243.91
730.55	243.75
730.89	243.59
731.22	243.42
731.55	243.25
731.88	243.09
732.21	242.89
732.54	242.74
732.87	242.59
733.20	242.43
733.53	242.29
733.86	242.15
734.19	241.98
734.52	241.86
734.85	241.79
735.18	241.63
735.51	241.53
735.84	241.39
736.17	241.29
736.50	241.08
736.83	241.10
737.16	240.96
737.49	240.84
737.82	240.70
738.15	240.60
738.48	240.48
738.81	240.34
739.14	240.20
739.47	240.05
739.80	239.92
740.13	239.81
740.46	239.66
740.79	239.51
741.12	239.38
741.45	239.23
741.78	239.04
742.11	238.95
742.44	238.79
742.77	238.69
743.10	238.55
743.43	238.43
743.75	238.19
744.08	238.27
744.41	238.15
744.74	238.03
745.07	237.89
745.40	237.80
745.73	237.75
746.06	237.65
746.39	237.57
746.71	237.46
747.04	237.33
747.37	237.23
747.70	237.16
748.03	237.07
748.36	237.00
748.68	236.89
749.01	236.76
749.34	236.67
749.67	236.58
750.00	236.50
750.33	236.50
750.65	236.42
750.98	236.14
751.31	236.05
751.64	235.96
751.97	235.93
752.29	235.83
752.62	235.69
752.95	235.59
753.28	235.50
753.60	235.41
753.93	235.36
754.26	235.27
754.59	235.15
754.91	235.05
755.24	234.94
755.57	234.92
755.90	234.84
756.22	234.75
756.55	234.64
756.88	234.53
757.20	234.36
757.53	234.24
757.86	234.16
758.19	234.10
758.51	234.02
758.84	233.89
759.17	233.79
759.49	233.72
759.82	233.71
760.15	233.65
760.47	233.57
760.80	233.47
761.13	233.42
761.45	233.36
761.78	233.31
762.11	233.25
762.43	233.12
762.76	233.05
763.08	233.01
763.41	232.95
763.74	232.89
764.06	232.84
764.39	232.78
764.71	232.72
765.04	232.64
765.37	232.57
765.69	232.52
766.02	232.47
766.34	232.40
766.67	232.30
767.00	232.26
767.32	232.28
767.65	232.30
767.97	232.24
768.30	232.19
768.62	232.14
768.95	232.07
769.27	232.02
769.60	231.99
769.92	231.92
770.25	231.86
770.57	231.79
770.90	231.75
771.22	231.69
771.55	231.64
771.87	231.61
772.20	231.57
772.52	231.62
772.85	231.73
773.17	231.70
773.50	231.65
773.82	231.59
774.15	231.48
774.47	231.37
774.80	231.31
775.12	231.26
775.45	231.21
775.77	231.19
776.09	231.16
776.42	231.12
776.74	231.13
777.07	231.09
777.39	231.05
777.72	231.01
778.04	231.00
778.36	230.96
778.69	230.93
779.01	230.90
779.33	230.76
779.66	230.58
779.98	230.54
780.31	230.52
780.63	230.53
780.95	230.52
781.28	230.49
781.60	230.46
781.92	230.44
782.25	230.41
782.57	230.38
782.89	230.35
783.22	230.30
783.54	230.25
783.86	230.23
784.19	230.20
784.51	230.21
784.83	230.17
785.16	230.13
785.48	230.11
785.80	230.09
786.12	230.08
786.45	230.06
786.77	230.05
787.09	230.02
787.42	229.95
787.74	229.93
788.06	229.91
788.38	229.88
788.71	229.85
789.03	229.83
789.35	229.83
789.67	229.79
789.99	229.79
790.32	229.76
790.64	229.75
790.96	229.85
791.28	229.79
791.61	229.77
791.93	229.76
792.25	229.72
792.57	229.79
792.89	229.75
793.21	229.74
793.54	229.71
793.86	229.67
794.18	229.66
794.50	229.62
794.82	229.61
795.14	229.61
795.47	229.61
795.79	229.59
796.11	229.54
796.43	229.52
796.75	229.50
797.07	229.48
797.39	229.46
797.71	229.34
798.04	229.33
798.36	229.31
798.68	229.30
799.00	229.30
799.32	229.23
799.64	229.23
799.96	229.21
800.28	229.22
800.60	229.21
800.92	229.20
801.24	229.17
801.56	229.17
801.89	229.14
802.21	229.13
802.53	229.09
802.85	229.11
803.17	229.16
803.49	229.13
803.81	229.10
804.13	229.08
804.45	229.05
804.77	229.05
805.09	229.03
805.41	228.99
805.73	228.96
806.05	228.92
806.37	228.90
806.69	228.87
807.01	228.84
807.33	228.83
807.65	228.78
807.97	228.84
808.28	228.80
808.60	228.79
808.92	228.76
809.24	228.81
809.56	228.79
809.88	228.73
810.20	228.73
810.52	228.75
810.84	228.71
811.16	228.70
811.48	228.68
811.80	228.72
812.12	228.72
812.43	228.74
812.75	228.73
813.07	228.70
813.39	228.71
813.71	228.68
814.03	228.67
814.35	228.67
814.67	228.60
814.98	228.59
815.30	228.58
815.62	228.55
815.94	228.47
816.26	228.48
816.58	228.44
816.89	228.44
817.21	228.40
817.53	228.41
817.85	228.41
818.17	228.40
818.48	228.34
818.80	228.36
819.12	228.32
819.44	228.29
819.76	228.29
820.07	228.27
820.39	228.27
820.71	228.25
821.03	228.24
821.34	228.22
821.66	228.23
821.98	228.24
822.30	228.22
822.61	228.29
822.93	228.26
823.25	228.25
823.57	228.23
823.88	228.23
824.20	228.22
824.52	228.22
824.83	228.21
825.15	228.19
825.47	228.16
825.79	228.17
826.10	228.15
826.42	228.13
826.74	228.14
827.05	228.13
827.37	228.13
827.69	228.12
828.00	228.12
828.32	228.11
828.64	228.09
828.95	228.14
829.27	228.10
829.58	228.10
829.90	228.12
830.22	228.13
830.53	228.10
830.85	228.08
831.17	228.04
831.48	228.03
831.80	228.03
832.11	228.03
832.43	228.01
832.75	228.01
833.06	228.08
833.38	228.04
833.69	228.02
834.01	228.02
834.32	228.01
834.64	227.99
834.96	227.98
835.27	227.98
835.59	227.93
835.90	227.91
836.22	227.90
836.53	227.86
836.85	227.84
837.16	227.97
837.48	227.97
837.79	228.01
838.11	228.01
838.42	228.01
838.74	228.01
839.05	228.00
839.37	227.99
839.68	227.91
840.00	227.90
840.31	227.92
840.63	227.90
840.94	227.88
841.26	227.86
841.57	227.86
841.88	227.87
842.20	227.85
842.51	227.83
842.83	227.81
843.14	227.93
843.46	227.93
843.77	227.85
844.08	227.85
844.40	227.80
844.71	227.79
845.03	227.78
845.34	227.76
845.65	227.75
845.97	227.75
846.28	227.76
846.60	227.76
846.91	227.74
847.22	227.74
847.54	227.77
847.85	227.77
848.16	227.76
848.48	227.72
848.79	227.77
849.10	227.78
849.42	227.78
849.73	227.66
850.04	227.66
850.36	227.61
850.67	227.63
850.98	227.63
851.30	227.63
851.61	227.63
851.92	227.63
852.23	227.66
852.55	227.67
852.86	227.67
853.17	227.68
853.49	227.71
853.80	227.74
854.11	227.74
854.42	227.76
854.74	227.75
855.05	227.76
855.36	227.69
855.67	227.69
855.99	227.68
856.30	227.83
856.61	227.83
856.92	227.84
857.23	227.83
857.55	227.82
857.86	227.81
858.17	227.83
858.48	227.81
858.79	227.79
859.11	227.80
859.42	227.78
859.73	227.77
860.04	227.77
860.35	227.73
860.66	227.69
860.98	227.68
861.29	227.70
861.60	227.69
861.91	227.72
862.22	227.70
862.53	227.70
862.84	227.55
863.16	227.57
863.47	227.54
863.78	227.52
864.09	227.52
864.40	227.53
864.71	227.53
865.02	227.54
865.33	227.53
865.64	227.50
865.95	227.50
866.27	227.56
866.58	227.54
866.89	227.56
867.20	227.57
867.51	227.53
867.82	227.52
868.13	227.55
868.44	227.52
868.75	227.54
869.06	227.54
869.37	227.55
869.68	227.52
869.99	227.54
870.30	227.55
870.61	227.57
870.92	227.55
871.23	227.54
871.54	227.56
871.85	227.60
872.16	227.61
872.47	227.60
872.78	227.53
873.09	227.54
873.40	227.53
873.71	227.53
874.02	227.55
874.33	227.53
874.64	227.51
874.95	227.52
875.26	227.50
875.56	227.48
875.87	227.48
876.18	227.46
876.49	227.58
876.80	227.56
877.11	227.54
877.42	227.54
877.73	227.54
878.04	227.52
878.35	227.50
878.66	227.50
878.96	227.51
879.27	227.50
879.58	227.49
879.89	227.49
880.20	227.52
880.51	227.51
880.82	227.51
881.12	227.51
881.43	227.49
881.74	227.47
882.05	227.48
882.36	227.48
882.67	227.50
882.97	227.36
883.28	227.36
883.59	227.35
883.90	227.36
884.21	227.37
884.51	227.37
884.82	227.35
885.13	227.34
885.44	227.33
885.74	227.33
886.05	227.32
886.36	227.32
886.67	227.27
886.98	227.34
887.28	227.35
887.59	227.34
887.90	227.35
888.20	227.36
888.51	227.37
888.82	227.34
889.13	227.34
889.43	227.45
889.74	227.44
890.05	227.44
890.35	227.42
890.66	227.40
890.97	227.39
891.28	227.38
891.58	227.39
891.89	227.39
892.20	227.38
892.50	227.37
892.81	227.35
893.12	227.36
893.42	227.29
893.73	227.30
894.04	227.30
894.34	227.32
894.65	227.32
894.95	227.31
895.26	227.33
895.57	227.37
895.87	227.24
896.18	227.26
896.48	227.27
896.79	227.27
897.10	227.29
897.40	227.30
897.71	227.31
898.01	227.31
898.32	227.32
898.63	227.31
898.93	227.32
899.24	227.33
899.54	227.33
899.85	227.31
900.15	227.30
900.46	227.29
900.76	227.29
901.07	227.28
901.38	227.28
901.68	227.29
901.99	227.23
902.29	227.24
902.60	227.24
902.90	227.23
903.21	227.22
903.51	227.21
903.82	227.22
904.12	227.22
904.43	227.22
904.73	227.21
905.03	227.22
905.34	227.34
905.64	227.33
905.95	227.33
906.25	227.34
906.56	227.34
906.86	227.33
907.17	227.31
907.47	227.32
907.77	227.30
908.08	227.28
908.38	227.28
908.69	227.29
908.99	227.31
909.30	227.32
909.60	227.32
909.90	227.33
910.21	227.31
910.51	227.29
910.81	227.29
911.12	227.30
911.42	227.30
911.73	227.17
912.03	227.19
912.33	227.22
912.64	227.21
912.94	227.19
913.24	227.17
913.55	227.16
913.85	227.16
914.15	227.19
914.46	227.21
914.76	227.20
915.06	227.20
915.37	227.16
915.67	227.14
915.97	227.14
916.27	227.12
916.58	227.12
916.88	227.11
917.18	227.10
917.49	227.19
917.79	227.19
918.09	227.21
918.39	227.24
918.70	227.22
919.00	227.23
919.30	227.29
919.60	227.30
919.91	227.29
920.21	227.29
920.51	227.26
920.81	227.26
921.12	227.27
921.42	227.26
921.72	227.27
922.02	227.29
922.32	227.31
922.63	227.31
922.93	227.38
923.23	227.38
923.53	227.37
923.83	227.28
924.13	227.29
924.44	227.28
924.74	227.30
925.04	227.33
925.34	227.33
925.64	227.29
925.94	227.29
926.24	227.35
926.55	227.34
926.85	227.35
927.15	227.35
927.45	227.34
927.75	227.35
928.05	227.34
928.35	227.33
928.65	227.35
928.95	227.37
929.26	227.31
929.56	227.34
929.86	227.35
930.16	227.35
930.46	227.34
930.76	227.33
931.06	227.27
931.36	227.24
931.66	227.25
931.96	227.27
932.26	227.27
932.56	227.22
932.86	227.24
933.16	227.24
933.46	227.23
933.76	227.22
934.06	227.25
934.36	227.29
934.66	227.30
934.96	227.28
935.26	227.28
935.56	227.30
935.86	227.26
936.16	227.24
936.46	227.22
936.76	227.22
937.06	227.20
937.36	227.21
937.66	227.22
937.96	227.21
938.26	227.18
938.56	227.18
938.86	227.17
939.16	227.20
939.46	227.20
939.76	227.22
940.06	227.20
940.35	227.18
940.65	227.11
940.95	227.11
941.25	227.09
941.55	227.07
941.85	227.04
942.15	227.08
942.45	227.12
942.75	227.12
943.04	227.12
943.34	227.14
943.64	227.14
943.94	227.12
944.24	227.13
944.54	227.14
944.84	227.14
945.13	227.12
945.43	227.10
945.73	227.09
946.03	227.08
946.33	227.07
946.62	227.06
946.92	227.06
947.22	227.07
947.52	227.08
947.82	227.10
948.11	227.10
948.41	227.06
948.71	227.03
949.01	227.03
949.31	227.02
949.60	227.00
949.90	227.02
950.20	227.01
950.50	227.00
950.79	226.99
951.09	227.00
951.39	227.01
951.69	226.99
951.98	227.02
952.28	227.02
952.58	227.02
952.87	227.03
953.17	227.05
953.47	227.03
953.76	227.02
954.06	226.99
954.36	226.98
954.66	226.98
954.95	227.02
955.25	227.03
955.55	227.05
955.84	227.04
956.14	227.05
956.44	227.06
956.73	227.04
957.03	227.05
957.32	227.06
957.62	227.05
957.92	227.07
958.21	227.05
958.51	227.19
958.81	227.21
959.10	227.22
959.40	227.24
959.69	227.25
959.99	227.28
960.29	227.28
960.58	227.28
960.88	227.32
961.17	227.31
961.47	227.31
961.76	227.29
962.06	227.32
962.36	227.29
962.65	227.30
962.95	227.31
963.24	227.30
963.54	227.30
963.83	227.32
964.13	227.32
964.42	227.31
964.72	227.20
965.01	227.20
965.31	227.19
965.60	227.16
965.90	227.23
966.19	227.20
966.49	227.21
966.78	227.20
967.08	227.20
967.37	227.20
967.67	227.18
967.96	227.21
968.26	227.19
968.55	227.21
968.85	227.20
969.14	227.20
969.43	227.20
969.73	227.18
970.02	227.17
970.32	227.16
970.61	227.14
970.91	227.09
971.20	227.08
971.49	227.08
971.79	227.10
972.08	227.01
972.38	227.02
972.67	227.01
972.96	227.03
973.26	227.00
973.55	227.04
973.85	227.03
974.14	227.01
974.43	227.02
974.73	226.99
975.02	226.97
975.31	226.97
975.61	226.97
975.90	226.97
976.19	226.96
976.49	226.97
976.78	226.98
977.07	226.99
977.37	226.98
977.66	226.99
977.95	226.97
978.24	226.99
978.54	227.01
978.83	227.00
979.12	226.99
979.42	226.99
979.71	226.96
980.00	226.96
980.29	226.97
980.59	226.95
980.88	226.98
981.17	227.00
981.46	227.00
981.76	227.00
982.05	227.03
982.34	227.03
982.63	227.04
982.93	227.03
983.22	227.06
983.51	227.07
983.80	227.09
984.09	227.10
984.39	227.08
984.68	227.07
984.97	227.08
985.26	227.08
985.55	227.09
985.85	227.06
986.14	227.08
986.43	227.10
986.72	227.10
987.01	227.05
987.30	227.05
987.59	227.04
987.89	227.04
988.18	227.00
988.47	227.00
988.76	226.98
989.05	226.99
989.34	226.98
989.63	227.01
989.92	226.98
990.22	226.96
990.51	226.97
990.80	226.96
991.09	226.97
991.38	226.98
991.67	226.97
991.96	226.96
992.25	226.96
992.54	226.93
992.83	226.92
993.12	226.93
993.41	226.95
993.70	227.01
993.99	227.02
994.28	227.04
994.58	227.06
994.87	227.05
995.16	227.04
995.45	227.03
995.74	226.98
996.03	227.00
996.32	227.02
996.61	227.04
996.90	227.04
997.19	227.03
997.48	227.03
997.77	227.02
998.06	227.02
998.34	227.01
998.63	227.00
998.92	227.01
999.21	227.03
999.50	227.02
999.79	226.97
1000.08	226.97
1000.37	226.96
1000.66	226.95
1000.95	226.98
1001.24	226.99
1001.53	227.01
1001.82	227.02
1002.11	226.99
1002.40	227.00
1002.68	227.03
1002.97	227.12
1003.26	227.11
1003.55	227.09
1003.84	227.11
1004.13	227.14
1004.42	227.13
1004.71	227.13
1004.99	227.13
1005.28	227.14
1005.57	227.13
1005.86	227.13
1006.15	227.12
1006.44	227.11
1006.72	227.12
1007.01	227.09
1007.30	227.09
1007.59	227.07
1007.88	227.06
1008.17	227.06
1008.45	227.04
1008.74	226.99
1009.03	226.94
1009.32	226.94
1009.60	226.94
1009.89	226.93
1010.18	226.89
1010.47	226.90
1010.76	226.90
1011.04	226.90
1011.33	226.90
1011.62	226.92
1011.91	226.93
1012.19	226.94
1012.48	226.94
1012.77	226.94
1013.05	226.98
1013.34	226.99
1013.63	226.99
1013.92	226.99
1014.20	226.99
1014.49	226.99
1014.78	227.00
1015.06	226.96
1015.35	226.95
1015.64	226.97
1015.92	226.98
1016.21	226.99
1016.50	226.99
1016.78	227.00
1017.07	227.01
1017.36	226.99
1017.64	226.97
1017.93	226.98
1018.22	226.97
1018.50	226.96
1018.79	226.95
1019.08	226.90
1019.36	226.91
1019.65	226.90
1019.93	226.93
1020.22	226.95
1020.51	227.02
1020.79	227.00
1021.08	226.88
1021.36	226.72
1021.65	226.90
1021.94	226.81
1022.22	227.12
1022.51	226.77
1022.79	227.50
1023.08	227.19
1023.36	228.33
1023.65	226.62
>>>>>End Processed Spectral Data<<<<<
