SpectraSuite Data File
++++++++++++++++++++++++++++++++++++
Date: Fri Oct 02 16:57:11 EDT 2015
User: lab3
Dark Spectrum Present: No
Reference Spectrum Present: No
Number of Sampled Component Spectra: 1
Spectrometers: USB2E7196
Integration Time (usec): 46000 (USB2E7196)
Spectra Averaged: 1200 (USB2E7196)
Boxcar Smoothing: 10 (USB2E7196)
Correct for Electrical Dark: No (USB2E7196)
Strobe/Lamp Enabled: No (USB2E7196)
Correct for Detector Non-linearity: No (USB2E7196)
Correct for Stray Light: No (USB2E7196)
Number of Pixels in Processed Spectrum: 2048
>>>>>Begin Processed Spectral Data<<<<<
339.09	0.00
339.48	214.65
339.86	216.12
340.24	217.28
340.63	218.97
341.01	222.17
341.39	221.62
341.78	222.87
342.16	224.16
342.54	224.64
342.93	213.01
343.31	223.77
343.69	224.31
344.07	224.77
344.46	225.21
344.84	225.58
345.22	225.80
345.60	226.05
345.99	226.25
346.37	226.37
346.75	226.47
347.13	226.54
347.52	226.61
347.90	226.70
348.28	226.74
348.66	226.80
349.05	226.79
349.43	226.84
349.81	226.89
350.19	226.93
350.57	227.00
350.96	227.08
351.34	227.18
351.72	227.27
352.10	227.38
352.48	227.45
352.87	227.50
353.25	227.57
353.63	227.63
354.01	227.70
354.39	227.78
354.77	227.87
355.15	227.97
355.54	228.02
355.92	228.05
356.30	228.13
356.68	228.28
357.06	228.35
357.44	228.40
357.82	228.45
358.20	228.57
358.58	228.64
358.97	228.69
359.35	228.77
359.73	228.85
360.11	228.89
360.49	228.95
360.87	229.00
361.25	229.06
361.63	229.16
362.01	229.20
362.39	229.23
362.77	229.27
363.15	229.29
363.53	229.32
363.91	229.35
364.29	229.37
364.67	229.26
365.05	229.29
365.43	229.32
365.81	229.36
366.19	229.38
366.57	229.44
366.95	229.44
367.33	229.42
367.71	229.40
368.09	229.44
368.47	229.43
368.85	229.42
369.23	229.43
369.61	229.36
369.99	229.37
370.37	229.37
370.75	229.44
371.13	229.40
371.51	229.37
371.89	229.35
372.27	229.33
372.65	229.32
373.03	229.27
373.41	229.22
373.78	229.16
374.16	229.05
374.54	228.97
374.92	228.92
375.30	228.88
375.68	228.81
376.06	228.76
376.44	228.71
376.82	228.67
377.19	228.63
377.57	228.58
377.95	228.49
378.33	228.43
378.71	228.27
379.09	228.23
379.47	228.19
379.84	228.14
380.22	228.08
380.60	228.01
380.98	227.97
381.36	227.92
381.73	227.86
382.11	227.84
382.49	227.80
382.87	227.75
383.25	227.69
383.62	227.79
384.00	227.74
384.38	227.70
384.76	227.68
385.13	227.68
385.51	227.64
385.89	227.60
386.27	227.56
386.64	227.54
387.02	227.49
387.40	227.45
387.78	227.42
388.15	227.38
388.53	227.34
388.91	227.31
389.29	227.28
389.66	227.28
390.04	227.24
390.42	227.23
390.79	227.22
391.17	227.20
391.55	227.05
391.92	227.03
392.30	227.02
392.68	227.00
393.05	226.97
393.43	226.97
393.81	226.97
394.18	226.95
394.56	226.96
394.94	227.00
395.31	226.99
395.69	227.03
396.06	227.06
396.44	227.09
396.82	227.10
397.19	227.18
397.57	227.18
397.95	227.23
398.32	227.23
398.70	227.29
399.07	227.35
399.45	227.39
399.82	227.43
400.20	227.46
400.58	227.52
400.95	227.53
401.33	227.62
401.70	227.78
402.08	227.88
402.45	227.96
402.83	228.08
403.20	228.20
403.58	228.29
403.95	228.44
404.33	228.58
404.71	228.74
405.08	228.95
405.46	229.12
405.83	229.31
406.21	229.49
406.58	229.70
406.96	229.91
407.33	230.16
407.70	230.45
408.08	230.84
408.45	231.16
408.83	231.53
409.20	231.86
409.58	232.17
409.95	232.58
410.33	233.03
410.70	233.43
411.08	233.91
411.45	234.44
411.82	234.96
412.20	235.56
412.57	236.28
412.95	236.83
413.32	237.57
413.69	238.32
414.07	239.13
414.44	240.00
414.82	240.90
415.19	241.94
415.56	243.00
415.94	244.09
416.31	245.33
416.68	246.55
417.06	247.96
417.43	249.29
417.81	250.82
418.18	252.39
418.55	254.10
418.93	255.89
419.30	257.75
419.67	259.73
420.04	261.75
420.42	263.86
420.79	266.31
421.16	268.78
421.54	271.28
421.91	273.89
422.28	276.60
422.66	279.53
423.03	282.33
423.40	285.26
423.77	288.39
424.15	291.61
424.52	294.97
424.89	298.60
425.26	302.23
425.64	305.58
426.01	309.36
426.38	313.21
426.75	317.19
427.13	321.27
427.50	325.55
427.87	330.00
428.24	334.49
428.61	338.82
428.99	343.48
429.36	348.60
429.73	353.52
430.10	358.44
430.47	363.46
430.85	368.62
431.22	374.21
431.59	379.93
431.96	385.51
432.33	391.72
432.70	397.64
433.08	404.59
433.45	411.20
433.82	417.72
434.19	424.99
434.56	432.17
434.93	439.09
435.30	445.94
435.68	453.67
436.05	461.26
436.42	468.81
436.79	475.73
437.16	483.17
437.53	491.13
437.90	499.11
438.27	506.91
438.64	515.33
439.01	522.94
439.38	529.91
439.75	536.60
440.13	544.17
440.50	551.33
440.87	557.04
441.24	563.28
441.61	570.06
441.98	574.98
442.35	580.83
442.72	586.79
443.09	592.45
443.46	596.01
443.83	598.58
444.20	600.67
444.57	603.86
444.94	605.59
445.31	607.40
445.68	608.87
446.05	609.88
446.42	609.30
446.79	608.51
447.16	607.81
447.53	607.15
447.90	604.49
448.27	601.95
448.64	598.23
449.01	595.54
449.37	590.46
449.74	585.84
450.11	579.96
450.48	573.55
450.85	567.14
451.22	561.66
451.59	556.30
451.96	551.46
452.33	544.51
452.70	538.34
453.07	530.84
453.43	523.40
453.80	516.20
454.17	509.30
454.54	502.95
454.91	495.80
455.28	489.13
455.65	482.82
456.02	476.19
456.38	470.86
456.75	464.02
457.12	458.52
457.49	452.98
457.86	447.76
458.23	443.22
458.59	438.17
458.96	432.99
459.33	428.45
459.70	423.81
460.07	420.31
460.43	416.21
460.80	412.37
461.17	409.06
461.54	405.45
461.91	402.08
462.27	398.65
462.64	395.92
463.01	392.72
463.38	389.52
463.74	386.63
464.11	384.07
464.48	381.79
464.85	379.30
465.21	377.42
465.58	375.32
465.95	372.89
466.32	370.98
466.68	369.10
467.05	367.21
467.42	365.36
467.78	363.37
468.15	361.52
468.52	360.19
468.88	358.37
469.25	356.72
469.62	355.42
469.98	354.00
470.35	352.72
470.72	351.59
471.08	350.42
471.45	349.44
471.82	348.35
472.18	347.19
472.55	346.44
472.92	345.49
473.28	344.76
473.65	343.96
474.02	343.19
474.38	342.58
474.75	342.22
475.11	341.72
475.48	341.49
475.85	341.23
476.21	341.12
476.58	341.04
476.94	341.20
477.31	341.28
477.67	341.39
478.04	341.60
478.41	341.89
478.77	342.33
479.14	342.62
479.50	343.13
479.87	343.81
480.23	344.50
480.60	345.17
480.96	345.85
481.33	346.85
481.69	347.85
482.06	348.83
482.42	349.73
482.79	350.85
483.15	352.15
483.52	353.64
483.88	355.05
484.25	356.56
484.61	358.13
484.98	359.84
485.34	361.76
485.71	363.77
486.07	365.92
486.44	368.07
486.80	370.49
487.17	372.99
487.53	375.71
487.90	378.56
488.26	381.64
488.62	384.91
488.99	388.20
489.35	391.64
489.72	395.36
490.08	399.29
490.44	403.35
490.81	407.57
491.17	411.89
491.54	416.52
491.90	421.33
492.26	426.46
492.63	431.84
492.99	437.42
493.36	443.22
493.72	449.32
494.08	455.55
494.45	462.16
494.81	469.05
495.17	476.11
495.54	483.56
495.90	491.35
496.26	499.27
496.63	507.45
496.99	515.95
497.35	524.84
497.72	534.01
498.08	543.39
498.44	553.12
498.80	563.40
499.17	573.93
499.53	584.79
499.89	596.03
500.26	607.44
500.62	619.20
500.98	631.54
501.34	644.05
501.71	657.10
502.07	670.30
502.43	684.02
502.79	698.01
503.16	712.42
503.52	727.06
503.88	742.07
504.24	757.55
504.60	773.25
504.97	789.44
505.33	806.03
505.69	823.50
506.05	841.26
506.41	858.95
506.78	876.82
507.14	895.19
507.50	914.00
507.86	933.16
508.22	952.52
508.59	971.71
508.95	991.70
509.31	1012.42
509.67	1033.82
510.03	1055.18
510.39	1076.56
510.75	1098.18
511.12	1119.99
511.48	1142.01
511.84	1164.05
512.20	1186.46
512.56	1209.64
512.92	1232.87
513.28	1255.73
513.64	1278.75
514.00	1302.19
514.37	1325.92
514.73	1349.66
515.09	1373.24
515.45	1397.17
515.81	1421.20
516.17	1445.36
516.53	1468.99
516.89	1492.41
517.25	1516.06
517.61	1539.64
517.97	1563.62
518.33	1587.01
518.69	1610.34
519.05	1634.16
519.41	1658.15
519.77	1682.29
520.13	1705.71
520.49	1729.01
520.85	1752.65
521.21	1775.82
521.57	1799.42
521.93	1822.47
522.29	1845.92
522.65	1868.87
523.01	1891.77
523.37	1914.24
523.73	1937.40
524.09	1960.32
524.45	1982.97
524.81	2005.18
525.17	2027.10
525.53	2048.49
525.89	2070.33
526.25	2092.15
526.61	2112.90
526.97	2133.81
527.33	2154.61
527.68	2175.10
528.04	2194.84
528.40	2213.60
528.76	2232.61
529.12	2251.02
529.48	2269.11
529.84	2285.47
530.20	2302.39
530.56	2318.71
530.91	2335.15
531.27	2351.22
531.63	2366.50
531.99	2381.38
532.35	2395.59
532.71	2409.92
533.07	2424.72
533.42	2437.78
533.78	2451.74
534.14	2465.94
534.50	2479.16
534.86	2492.21
535.21	2503.41
535.57	2515.02
535.93	2526.40
536.29	2536.68
536.65	2546.81
537.00	2556.35
537.36	2566.73
537.72	2575.69
538.08	2584.12
538.44	2591.95
538.79	2599.40
539.15	2606.02
539.51	2612.24
539.87	2617.78
540.22	2621.56
540.58	2625.46
540.94	2630.53
541.29	2634.06
541.65	2635.86
542.01	2637.07
542.37	2637.51
542.72	2639.23
543.08	2639.43
543.44	2640.16
543.79	2639.90
544.15	2638.83
544.51	2638.06
544.87	2636.22
545.22	2633.70
545.58	2630.54
545.94	2627.44
546.29	2623.01
546.65	2618.63
547.01	2614.18
547.36	2610.46
547.72	2606.70
548.07	2601.42
548.43	2594.68
548.79	2587.12
549.14	2580.74
549.50	2574.61
549.86	2567.65
550.21	2559.67
550.57	2552.49
550.92	2543.24
551.28	2534.47
551.64	2526.00
551.99	2517.14
552.35	2507.77
552.70	2498.69
553.06	2489.94
553.41	2480.58
553.77	2471.05
554.13	2461.32
554.48	2450.93
554.84	2439.40
555.19	2428.42
555.55	2417.42
555.90	2406.57
556.26	2396.14
556.61	2384.72
556.97	2371.72
557.32	2359.31
557.68	2346.81
558.03	2334.12
558.39	2322.47
558.74	2311.15
559.10	2298.29
559.45	2285.64
559.81	2273.64
560.16	2261.05
560.52	2248.64
560.87	2236.45
561.23	2223.54
561.58	2210.93
561.94	2197.93
562.29	2184.44
562.64	2171.64
563.00	2158.49
563.35	2145.80
563.71	2132.90
564.06	2119.92
564.42	2107.62
564.77	2094.75
565.12	2081.84
565.48	2068.99
565.83	2056.15
566.19	2043.46
566.54	2030.70
566.89	2016.94
567.25	2003.26
567.60	1990.75
567.96	1977.55
568.31	1963.14
568.66	1949.47
569.02	1936.73
569.37	1923.99
569.72	1911.80
570.08	1898.35
570.43	1884.62
570.78	1870.68
571.14	1856.20
571.49	1842.42
571.84	1829.16
572.20	1814.80
572.55	1800.70
572.90	1786.39
573.26	1772.17
573.61	1757.44
573.96	1743.20
574.31	1729.13
574.67	1715.14
575.02	1700.23
575.37	1685.35
575.72	1671.42
576.08	1657.71
576.43	1643.01
576.78	1628.72
577.13	1614.68
577.49	1601.06
577.84	1587.99
578.19	1574.06
578.54	1560.32
578.90	1546.08
579.25	1531.78
579.60	1518.98
579.95	1506.04
580.30	1492.95
580.66	1479.63
581.01	1466.26
581.36	1452.90
581.71	1440.53
582.06	1428.00
582.42	1415.74
582.77	1403.56
583.12	1391.29
583.47	1378.92
583.82	1366.70
584.17	1354.12
584.53	1341.22
584.88	1328.65
585.23	1315.75
585.58	1303.65
585.93	1291.77
586.28	1280.53
586.63	1269.32
586.98	1257.62
587.34	1245.99
587.69	1234.20
588.04	1222.72
588.39	1211.62
588.74	1200.63
589.09	1189.43
589.44	1177.85
589.79	1166.88
590.14	1156.03
590.49	1145.08
590.84	1134.29
591.19	1123.87
591.54	1113.31
591.89	1102.89
592.25	1092.68
592.60	1082.15
592.95	1071.95
593.30	1061.92
593.65	1051.65
594.00	1041.47
594.35	1031.89
594.70	1021.92
595.05	1012.75
595.40	1003.45
595.75	994.00
596.10	985.08
596.45	975.90
596.80	967.03
597.15	957.98
597.50	949.03
597.85	940.47
598.19	931.75
598.54	923.11
598.89	914.84
599.24	906.87
599.59	898.73
599.94	891.44
600.29	883.99
600.64	876.30
600.99	868.28
601.34	860.60
601.69	852.54
602.04	845.14
602.39	837.60
602.74	830.14
603.08	822.66
603.43	815.14
603.78	807.77
604.13	800.59
604.48	793.35
604.83	786.31
605.18	779.18
605.53	772.21
605.87	765.04
606.22	758.23
606.57	751.35
606.92	744.35
607.27	737.29
607.62	730.52
607.96	724.13
608.31	718.15
608.66	711.97
609.01	706.09
609.36	700.29
609.70	694.28
610.05	688.23
610.40	682.45
610.75	676.66
611.10	671.15
611.44	665.51
611.79	659.98
612.14	654.37
612.49	648.84
612.83	643.61
613.18	638.53
613.53	633.30
613.88	628.12
614.22	623.32
614.57	618.48
614.92	613.45
615.27	608.52
615.61	603.64
615.96	598.87
616.31	594.08
616.65	589.34
617.00	584.81
617.35	580.38
617.70	575.99
618.04	571.63
618.39	567.24
618.74	563.06
619.08	558.92
619.43	554.90
619.78	550.90
620.12	546.83
620.47	542.92
620.82	539.10
621.16	535.30
621.51	531.42
621.85	527.56
622.20	523.92
622.55	520.27
622.89	516.67
623.24	513.06
623.59	509.51
623.93	506.09
624.28	502.74
624.62	499.49
624.97	496.28
625.32	493.05
625.66	489.77
626.01	486.45
626.35	483.18
626.70	479.95
627.04	476.90
627.39	473.78
627.73	470.80
628.08	467.94
628.43	465.04
628.77	462.23
629.12	459.52
629.46	456.79
629.81	454.03
630.15	451.27
630.50	448.61
630.84	445.95
631.19	443.38
631.53	440.90
631.88	438.36
632.22	435.85
632.57	433.59
632.91	431.38
633.26	429.25
633.60	427.13
633.95	425.08
634.29	422.92
634.64	420.86
634.98	418.58
635.32	416.47
635.67	414.55
636.01	412.52
636.36	410.55
636.70	408.72
637.05	406.87
637.39	405.05
637.73	403.24
638.08	401.56
638.42	399.83
638.77	397.99
639.11	396.10
639.45	394.29
639.80	392.40
640.14	390.61
640.49	388.82
640.83	386.99
641.17	385.25
641.52	383.55
641.86	381.85
642.20	380.37
642.55	378.72
642.89	377.09
643.23	375.53
643.58	374.14
643.92	372.62
644.26	371.13
644.61	369.70
644.95	368.23
645.29	366.70
645.64	365.20
645.98	363.75
646.32	362.45
646.66	361.09
647.01	359.76
647.35	358.48
647.69	357.19
648.04	356.04
648.38	354.79
648.72	353.55
649.06	352.32
649.41	351.11
649.75	349.94
650.09	348.78
650.43	347.63
650.78	346.41
651.12	345.24
651.46	344.12
651.80	343.00
652.14	341.92
652.49	340.89
652.83	339.82
653.17	338.81
653.51	337.82
653.85	336.88
654.20	335.89
654.54	334.83
654.88	333.84
655.22	332.84
655.56	331.85
655.90	330.93
656.25	330.04
656.59	329.11
656.93	328.26
657.27	327.40
657.61	326.48
657.95	325.60
658.29	324.72
658.64	323.89
658.98	323.05
659.32	322.23
659.66	321.47
660.00	320.71
660.34	319.95
660.68	319.14
661.02	318.31
661.36	317.50
661.70	316.75
662.05	316.02
662.39	315.29
662.73	314.64
663.07	313.97
663.41	313.27
663.75	312.57
664.09	311.85
664.43	311.12
664.77	310.47
665.11	309.77
665.45	309.13
665.79	308.51
666.13	307.83
666.47	307.14
666.81	306.42
667.15	305.69
667.49	305.07
667.83	304.49
668.17	303.89
668.51	303.34
668.85	302.79
669.19	302.27
669.53	301.66
669.87	301.03
670.21	300.43
670.55	299.86
670.89	299.37
671.23	298.82
671.57	298.29
671.91	297.80
672.25	297.34
672.58	296.86
672.92	296.31
673.26	295.87
673.60	295.41
673.94	294.97
674.28	294.55
674.62	294.07
674.96	293.57
675.30	293.12
675.64	292.63
675.97	292.14
676.31	291.62
676.65	291.13
676.99	290.72
677.33	290.23
677.67	289.78
678.01	289.24
678.34	288.79
678.68	288.36
679.02	287.87
679.36	287.40
679.70	286.93
680.04	286.49
680.37	286.03
680.71	285.59
681.05	285.18
681.39	284.71
681.73	284.24
682.06	283.77
682.40	283.32
682.74	282.92
683.08	282.58
683.42	282.16
683.75	281.79
684.09	281.32
684.43	280.93
684.77	280.51
685.10	280.16
685.44	279.78
685.78	279.39
686.12	279.02
686.45	278.62
686.79	278.21
687.13	277.82
687.46	277.42
687.80	277.05
688.14	276.61
688.48	276.24
688.81	275.86
689.15	275.51
689.49	275.12
689.82	274.71
690.16	274.25
690.50	273.87
690.83	273.50
691.17	273.11
691.51	272.73
691.84	272.38
692.18	271.97
692.52	271.57
692.85	271.19
693.19	270.85
693.52	270.48
693.86	270.12
694.20	269.76
694.53	269.41
694.87	269.02
695.21	268.65
695.54	268.28
695.88	267.91
696.21	267.51
696.55	267.17
696.88	266.83
697.22	266.49
697.56	266.15
697.89	265.75
698.23	265.41
698.56	265.03
698.90	264.68
699.23	264.31
699.57	263.96
699.90	263.60
700.24	263.24
700.58	262.93
700.91	262.64
701.25	262.42
701.58	262.15
701.92	261.87
702.25	261.57
702.59	261.24
702.92	260.94
703.26	260.63
703.59	260.30
703.93	260.08
704.26	259.76
704.60	259.44
704.93	259.13
705.26	258.82
705.60	258.56
705.93	258.23
706.27	257.98
706.60	257.74
706.94	257.50
707.27	257.17
707.61	256.86
707.94	256.54
708.27	256.13
708.61	255.79
708.94	255.47
709.28	255.20
709.61	254.91
709.94	254.65
710.28	254.39
710.61	254.16
710.95	253.78
711.28	253.61
711.61	253.35
711.95	253.14
712.28	252.86
712.61	252.59
712.95	252.42
713.28	252.23
713.61	251.93
713.95	251.64
714.28	251.41
714.61	251.16
714.95	250.92
715.28	250.69
715.61	250.46
715.95	250.25
716.28	250.03
716.61	249.84
716.95	249.60
717.28	249.38
717.61	249.15
717.94	248.93
718.28	248.62
718.61	248.40
718.94	248.16
719.27	247.97
719.61	247.78
719.94	247.54
720.27	247.24
720.60	247.05
720.94	246.85
721.27	246.65
721.60	246.47
721.93	246.26
722.27	246.11
722.60	245.93
722.93	245.72
723.26	245.53
723.59	245.30
723.93	245.12
724.26	244.95
724.59	244.74
724.92	244.57
725.25	244.45
725.59	244.27
725.92	244.13
726.25	243.95
726.58	243.79
726.91	243.61
727.24	243.47
727.57	243.31
727.91	243.14
728.24	243.01
728.57	242.84
728.90	242.70
729.23	242.49
729.56	242.39
729.89	242.24
730.22	242.07
730.55	241.92
730.89	241.77
731.22	241.60
731.55	241.46
731.88	241.31
732.21	241.14
732.54	240.99
732.87	240.84
733.20	240.71
733.53	240.57
733.86	240.44
734.19	240.30
734.52	240.18
734.85	240.14
735.18	239.96
735.51	239.87
735.84	239.74
736.17	239.67
736.50	239.46
736.83	239.49
737.16	239.37
737.49	239.26
737.82	239.14
738.15	239.04
738.48	238.92
738.81	238.79
739.14	238.66
739.47	238.54
739.80	238.41
740.13	238.30
740.46	238.17
740.79	238.03
741.12	237.91
741.45	237.77
741.78	237.58
742.11	237.51
742.44	237.36
742.77	237.27
743.10	237.14
743.43	237.02
743.75	236.78
744.08	236.88
744.41	236.76
744.74	236.66
745.07	236.53
745.40	236.46
745.73	236.43
746.06	236.34
746.39	236.26
746.71	236.15
747.04	236.04
747.37	235.96
747.70	235.89
748.03	235.80
748.36	235.74
748.68	235.64
749.01	235.52
749.34	235.44
749.67	235.36
750.00	235.29
750.33	235.30
750.65	235.22
750.98	234.95
751.31	234.87
751.64	234.79
751.97	234.79
752.29	234.70
752.62	234.54
752.95	234.45
753.28	234.35
753.60	234.26
753.93	234.21
754.26	234.13
754.59	234.01
754.91	233.92
755.24	233.82
755.57	233.80
755.90	233.71
756.22	233.62
756.55	233.51
756.88	233.41
757.20	233.25
757.53	233.14
757.86	233.06
758.19	233.00
758.51	232.92
758.84	232.78
759.17	232.69
759.49	232.62
759.82	232.62
760.15	232.57
760.47	232.50
760.80	232.40
761.13	232.36
761.45	232.30
761.78	232.25
762.11	232.19
762.43	232.07
762.76	232.01
763.08	231.96
763.41	231.92
763.74	231.85
764.06	231.80
764.39	231.74
764.71	231.70
765.04	231.61
765.37	231.56
765.69	231.51
766.02	231.46
766.34	231.41
766.67	231.31
767.00	231.27
767.32	231.30
767.65	231.33
767.97	231.27
768.30	231.23
768.62	231.17
768.95	231.11
769.27	231.06
769.60	231.03
769.92	230.97
770.25	230.91
770.57	230.84
770.90	230.78
771.22	230.73
771.55	230.68
771.87	230.65
772.20	230.60
772.52	230.67
772.85	230.77
773.17	230.73
773.50	230.68
773.82	230.62
774.15	230.53
774.47	230.40
774.80	230.35
775.12	230.31
775.45	230.27
775.77	230.24
776.09	230.22
776.42	230.19
776.74	230.19
777.07	230.14
777.39	230.12
777.72	230.09
778.04	230.07
778.36	230.04
778.69	230.01
779.01	229.98
779.33	229.84
779.66	229.68
779.98	229.64
780.31	229.62
780.63	229.65
780.95	229.63
781.28	229.61
781.60	229.58
781.92	229.55
782.25	229.53
782.57	229.51
782.89	229.47
783.22	229.43
783.54	229.38
783.86	229.38
784.19	229.35
784.51	229.37
784.83	229.33
785.16	229.30
785.48	229.28
785.80	229.26
786.12	229.25
786.45	229.23
786.77	229.21
787.09	229.18
787.42	229.11
787.74	229.09
788.06	229.08
788.38	229.05
788.71	229.03
789.03	229.01
789.35	228.99
789.67	228.96
789.99	228.95
790.32	228.92
790.64	228.90
790.96	229.00
791.28	228.94
791.61	228.91
791.93	228.91
792.25	228.88
792.57	228.95
792.89	228.91
793.21	228.90
793.54	228.88
793.86	228.84
794.18	228.84
794.50	228.79
794.82	228.77
795.14	228.77
795.47	228.77
795.79	228.75
796.11	228.71
796.43	228.68
796.75	228.67
797.07	228.67
797.39	228.64
797.71	228.52
798.04	228.50
798.36	228.49
798.68	228.46
799.00	228.47
799.32	228.38
799.64	228.39
799.96	228.37
800.28	228.39
800.60	228.37
800.92	228.35
801.24	228.35
801.56	228.34
801.89	228.30
802.21	228.30
802.53	228.26
802.85	228.28
803.17	228.33
803.49	228.28
803.81	228.26
804.13	228.24
804.45	228.21
804.77	228.21
805.09	228.20
805.41	228.18
805.73	228.14
806.05	228.10
806.37	228.08
806.69	228.06
807.01	228.03
807.33	228.03
807.65	227.98
807.97	228.01
808.28	227.98
808.60	227.98
808.92	227.95
809.24	228.02
809.56	227.99
809.88	227.94
810.20	227.93
810.52	227.94
810.84	227.91
811.16	227.88
811.48	227.86
811.80	227.89
812.12	227.88
812.43	227.89
812.75	227.90
813.07	227.87
813.39	227.87
813.71	227.84
814.03	227.81
814.35	227.82
814.67	227.76
814.98	227.75
815.30	227.73
815.62	227.69
815.94	227.59
816.26	227.60
816.58	227.57
816.89	227.58
817.21	227.53
817.53	227.54
817.85	227.55
818.17	227.54
818.48	227.48
818.80	227.49
819.12	227.46
819.44	227.43
819.76	227.40
820.07	227.38
820.39	227.38
820.71	227.39
821.03	227.39
821.34	227.36
821.66	227.37
821.98	227.38
822.30	227.37
822.61	227.46
822.93	227.43
823.25	227.42
823.57	227.41
823.88	227.42
824.20	227.41
824.52	227.44
824.83	227.42
825.15	227.41
825.47	227.40
825.79	227.41
826.10	227.40
826.42	227.39
826.74	227.40
827.05	227.39
827.37	227.38
827.69	227.37
828.00	227.39
828.32	227.38
828.64	227.35
828.95	227.42
829.27	227.37
829.58	227.37
829.90	227.38
830.22	227.39
830.53	227.36
830.85	227.35
831.17	227.30
831.48	227.30
831.80	227.31
832.11	227.29
832.43	227.28
832.75	227.28
833.06	227.36
833.38	227.31
833.69	227.32
834.01	227.32
834.32	227.30
834.64	227.28
834.96	227.28
835.27	227.28
835.59	227.23
835.90	227.21
836.22	227.19
836.53	227.16
836.85	227.15
837.16	227.27
837.48	227.26
837.79	227.30
838.11	227.30
838.42	227.29
838.74	227.30
839.05	227.28
839.37	227.27
839.68	227.19
840.00	227.19
840.31	227.20
840.63	227.18
840.94	227.16
841.26	227.15
841.57	227.14
841.88	227.15
842.20	227.13
842.51	227.11
842.83	227.10
843.14	227.22
843.46	227.21
843.77	227.13
844.08	227.12
844.40	227.09
844.71	227.07
845.03	227.06
845.34	227.04
845.65	227.04
845.97	227.03
846.28	227.04
846.60	227.03
846.91	227.02
847.22	227.02
847.54	227.05
847.85	227.05
848.16	227.03
848.48	227.00
848.79	227.05
849.10	227.08
849.42	227.08
849.73	226.94
850.04	226.94
850.36	226.89
850.67	226.91
850.98	226.91
851.30	226.92
851.61	226.91
851.92	226.91
852.23	226.94
852.55	226.94
852.86	226.94
853.17	226.95
853.49	226.96
853.80	226.99
854.11	226.99
854.42	227.01
854.74	226.99
855.05	227.00
855.36	226.94
855.67	226.93
855.99	226.93
856.30	227.09
856.61	227.09
856.92	227.09
857.23	227.09
857.55	227.07
857.86	227.05
858.17	227.07
858.48	227.05
858.79	227.02
859.11	227.03
859.42	227.02
859.73	227.00
860.04	226.99
860.35	226.95
860.66	226.92
860.98	226.90
861.29	226.92
861.60	226.90
861.91	226.93
862.22	226.91
862.53	226.89
862.84	226.73
863.16	226.76
863.47	226.75
863.78	226.73
864.09	226.74
864.40	226.74
864.71	226.75
865.02	226.76
865.33	226.75
865.64	226.73
865.95	226.72
866.27	226.80
866.58	226.77
866.89	226.78
867.20	226.79
867.51	226.77
867.82	226.76
868.13	226.81
868.44	226.78
868.75	226.79
869.06	226.80
869.37	226.81
869.68	226.78
869.99	226.79
870.30	226.81
870.61	226.81
870.92	226.79
871.23	226.79
871.54	226.80
871.85	226.83
872.16	226.86
872.47	226.84
872.78	226.77
873.09	226.80
873.40	226.78
873.71	226.79
874.02	226.80
874.33	226.79
874.64	226.75
874.95	226.77
875.26	226.74
875.56	226.74
875.87	226.73
876.18	226.72
876.49	226.84
876.80	226.82
877.11	226.80
877.42	226.81
877.73	226.81
878.04	226.79
878.35	226.79
878.66	226.79
878.96	226.80
879.27	226.79
879.58	226.79
879.89	226.78
880.20	226.81
880.51	226.80
880.82	226.81
881.12	226.82
881.43	226.79
881.74	226.77
882.05	226.77
882.36	226.77
882.67	226.78
882.97	226.65
883.28	226.65
883.59	226.64
883.90	226.65
884.21	226.67
884.51	226.65
884.82	226.63
885.13	226.61
885.44	226.60
885.74	226.60
886.05	226.59
886.36	226.59
886.67	226.54
886.98	226.59
887.28	226.61
887.59	226.60
887.90	226.61
888.20	226.61
888.51	226.63
888.82	226.62
889.13	226.62
889.43	226.73
889.74	226.71
890.05	226.70
890.35	226.68
890.66	226.66
890.97	226.65
891.28	226.64
891.58	226.65
891.89	226.65
892.20	226.64
892.50	226.63
892.81	226.63
893.12	226.63
893.42	226.57
893.73	226.57
894.04	226.57
894.34	226.58
894.65	226.58
894.95	226.56
895.26	226.57
895.57	226.62
895.87	226.49
896.18	226.52
896.48	226.54
896.79	226.53
897.10	226.54
897.40	226.55
897.71	226.56
898.01	226.55
898.32	226.55
898.63	226.55
898.93	226.56
899.24	226.57
899.54	226.56
899.85	226.55
900.15	226.55
900.46	226.54
900.76	226.55
901.07	226.55
901.38	226.54
901.68	226.56
901.99	226.50
902.29	226.50
902.60	226.49
902.90	226.48
903.21	226.49
903.51	226.48
903.82	226.50
904.12	226.50
904.43	226.50
904.73	226.49
905.03	226.49
905.34	226.61
905.64	226.60
905.95	226.59
906.25	226.59
906.56	226.59
906.86	226.59
907.17	226.58
907.47	226.59
907.77	226.57
908.08	226.53
908.38	226.54
908.69	226.55
908.99	226.57
909.30	226.58
909.60	226.57
909.90	226.58
910.21	226.54
910.51	226.53
910.81	226.53
911.12	226.54
911.42	226.55
911.73	226.41
912.03	226.42
912.33	226.44
912.64	226.43
912.94	226.41
913.24	226.38
913.55	226.37
913.85	226.35
914.15	226.37
914.46	226.39
914.76	226.37
915.06	226.36
915.37	226.34
915.67	226.33
915.97	226.34
916.27	226.31
916.58	226.31
916.88	226.31
917.18	226.30
917.49	226.38
917.79	226.37
918.09	226.39
918.39	226.42
918.70	226.42
919.00	226.43
919.30	226.49
919.60	226.49
919.91	226.48
920.21	226.50
920.51	226.48
920.81	226.47
921.12	226.49
921.42	226.49
921.72	226.50
922.02	226.51
922.32	226.52
922.63	226.52
922.93	226.60
923.23	226.60
923.53	226.59
923.83	226.51
924.13	226.52
924.44	226.52
924.74	226.53
925.04	226.56
925.34	226.56
925.64	226.51
925.94	226.52
926.24	226.60
926.55	226.58
926.85	226.59
927.15	226.60
927.45	226.59
927.75	226.60
928.05	226.60
928.35	226.58
928.65	226.61
928.95	226.63
929.26	226.56
929.56	226.58
929.86	226.61
930.16	226.60
930.46	226.60
930.76	226.60
931.06	226.55
931.36	226.52
931.66	226.54
931.96	226.56
932.26	226.55
932.56	226.50
932.86	226.52
933.16	226.52
933.46	226.50
933.76	226.49
934.06	226.52
934.36	226.56
934.66	226.55
934.96	226.53
935.26	226.52
935.56	226.55
935.86	226.51
936.16	226.49
936.46	226.49
936.76	226.49
937.06	226.47
937.36	226.48
937.66	226.48
937.96	226.47
938.26	226.44
938.56	226.43
938.86	226.43
939.16	226.45
939.46	226.46
939.76	226.46
940.06	226.46
940.35	226.44
940.65	226.37
940.95	226.39
941.25	226.36
941.55	226.35
941.85	226.33
942.15	226.36
942.45	226.40
942.75	226.39
943.04	226.39
943.34	226.41
943.64	226.40
943.94	226.39
944.24	226.39
944.54	226.40
944.84	226.40
945.13	226.39
945.43	226.36
945.73	226.36
946.03	226.34
946.33	226.33
946.62	226.31
946.92	226.31
947.22	226.31
947.52	226.32
947.82	226.33
948.11	226.32
948.41	226.30
948.71	226.25
949.01	226.27
949.31	226.25
949.60	226.24
949.90	226.27
950.20	226.25
950.50	226.25
950.79	226.24
951.09	226.25
951.39	226.25
951.69	226.24
951.98	226.27
952.28	226.28
952.58	226.28
952.87	226.28
953.17	226.31
953.47	226.30
953.76	226.30
954.06	226.28
954.36	226.27
954.66	226.28
954.95	226.31
955.25	226.32
955.55	226.32
955.84	226.30
956.14	226.30
956.44	226.31
956.73	226.30
957.03	226.30
957.32	226.31
957.62	226.30
957.92	226.33
958.21	226.32
958.51	226.46
958.81	226.48
959.10	226.49
959.40	226.51
959.69	226.53
959.99	226.55
960.29	226.55
960.58	226.55
960.88	226.58
961.17	226.58
961.47	226.59
961.76	226.58
962.06	226.60
962.36	226.59
962.65	226.60
962.95	226.61
963.24	226.60
963.54	226.60
963.83	226.61
964.13	226.61
964.42	226.60
964.72	226.50
965.01	226.49
965.31	226.49
965.60	226.46
965.90	226.54
966.19	226.50
966.49	226.52
966.78	226.51
967.08	226.49
967.37	226.49
967.67	226.46
967.96	226.48
968.26	226.50
968.55	226.50
968.85	226.49
969.14	226.50
969.43	226.50
969.73	226.47
970.02	226.47
970.32	226.46
970.61	226.43
970.91	226.39
971.20	226.37
971.49	226.36
971.79	226.37
972.08	226.27
972.38	226.29
972.67	226.28
972.96	226.30
973.26	226.29
973.55	226.32
973.85	226.32
974.14	226.30
974.43	226.30
974.73	226.28
975.02	226.28
975.31	226.28
975.61	226.28
975.90	226.27
976.19	226.26
976.49	226.26
976.78	226.27
977.07	226.28
977.37	226.29
977.66	226.31
977.95	226.29
978.24	226.30
978.54	226.32
978.83	226.31
979.12	226.30
979.42	226.30
979.71	226.28
980.00	226.28
980.29	226.28
980.59	226.25
980.88	226.29
981.17	226.28
981.46	226.28
981.76	226.28
982.05	226.33
982.34	226.34
982.63	226.34
982.93	226.34
983.22	226.37
983.51	226.38
983.80	226.40
984.09	226.42
984.39	226.42
984.68	226.40
984.97	226.41
985.26	226.40
985.55	226.41
985.85	226.38
986.14	226.40
986.43	226.42
986.72	226.42
987.01	226.37
987.30	226.37
987.59	226.37
987.89	226.38
988.18	226.32
988.47	226.31
988.76	226.29
989.05	226.28
989.34	226.25
989.63	226.28
989.92	226.26
990.22	226.23
990.51	226.23
990.80	226.22
991.09	226.23
991.38	226.24
991.67	226.24
991.96	226.23
992.25	226.22
992.54	226.20
992.83	226.20
993.12	226.21
993.41	226.23
993.70	226.28
993.99	226.30
994.28	226.32
994.58	226.34
994.87	226.33
995.16	226.33
995.45	226.32
995.74	226.28
996.03	226.29
996.32	226.32
996.61	226.33
996.90	226.33
997.19	226.31
997.48	226.32
997.77	226.30
998.06	226.31
998.34	226.29
998.63	226.30
998.92	226.30
999.21	226.32
999.50	226.32
999.79	226.27
1000.08	226.27
1000.37	226.28
1000.66	226.25
1000.95	226.29
1001.24	226.30
1001.53	226.33
1001.82	226.32
1002.11	226.28
1002.40	226.29
1002.68	226.31
1002.97	226.40
1003.26	226.39
1003.55	226.37
1003.84	226.38
1004.13	226.43
1004.42	226.42
1004.71	226.41
1004.99	226.40
1005.28	226.43
1005.57	226.42
1005.86	226.41
1006.15	226.39
1006.44	226.37
1006.72	226.40
1007.01	226.38
1007.30	226.37
1007.59	226.35
1007.88	226.36
1008.17	226.37
1008.45	226.35
1008.74	226.31
1009.03	226.24
1009.32	226.25
1009.60	226.23
1009.89	226.22
1010.18	226.16
1010.47	226.17
1010.76	226.17
1011.04	226.18
1011.33	226.16
1011.62	226.17
1011.91	226.19
1012.19	226.19
1012.48	226.19
1012.77	226.19
1013.05	226.22
1013.34	226.23
1013.63	226.22
1013.92	226.23
1014.20	226.22
1014.49	226.22
1014.78	226.23
1015.06	226.20
1015.35	226.20
1015.64	226.23
1015.92	226.26
1016.21	226.26
1016.50	226.26
1016.78	226.27
1017.07	226.28
1017.36	226.26
1017.64	226.24
1017.93	226.25
1018.22	226.23
1018.50	226.23
1018.79	226.22
1019.08	226.18
1019.36	226.18
1019.65	226.17
1019.93	226.21
1020.22	226.22
1020.51	226.29
1020.79	226.27
1021.08	225.86
1021.36	226.05
1021.65	226.22
1021.94	226.13
1022.22	226.19
1022.51	226.02
1022.79	226.84
1023.08	226.34
1023.36	227.74
1023.65	225.92
>>>>>End Processed Spectral Data<<<<<
