SpectraSuite Data File
++++++++++++++++++++++++++++++++++++
Date: Sun Oct 04 13:00:14 EDT 2015
User: lab3
Dark Spectrum Present: No
Reference Spectrum Present: No
Number of Sampled Component Spectra: 1
Spectrometers: USB2E7196
Integration Time (usec): 46000 (USB2E7196)
Spectra Averaged: 24000 (USB2E7196)
Boxcar Smoothing: 10 (USB2E7196)
Correct for Electrical Dark: No (USB2E7196)
Strobe/Lamp Enabled: No (USB2E7196)
Correct for Detector Non-linearity: No (USB2E7196)
Correct for Stray Light: No (USB2E7196)
Number of Pixels in Processed Spectrum: 2048
>>>>>Begin Processed Spectral Data<<<<<
339.09	0.00
339.48	213.30
339.86	214.73
340.24	216.11
340.63	217.54
341.01	220.84
341.39	220.24
341.78	221.65
342.16	222.82
342.54	223.23
342.93	211.75
343.31	222.44
343.69	222.98
344.07	223.44
344.46	223.87
344.84	224.27
345.22	224.49
345.60	224.75
345.99	224.94
346.37	225.08
346.75	225.19
347.13	225.27
347.52	225.35
347.90	225.44
348.28	225.48
348.66	225.55
349.05	225.54
349.43	225.60
349.81	225.66
350.19	225.72
350.57	225.79
350.96	225.88
351.34	225.98
351.72	226.07
352.10	226.18
352.48	226.26
352.87	226.30
353.25	226.37
353.63	226.43
354.01	226.49
354.39	226.57
354.77	226.65
355.15	226.76
355.54	226.81
355.92	226.83
356.30	226.91
356.68	227.06
357.06	227.13
357.44	227.18
357.82	227.23
358.20	227.35
358.58	227.41
358.97	227.47
359.35	227.56
359.73	227.64
360.11	227.69
360.49	227.75
360.87	227.80
361.25	227.86
361.63	227.95
362.01	228.01
362.39	228.03
362.77	228.08
363.15	228.10
363.53	228.14
363.91	228.17
364.29	228.19
364.67	228.09
365.05	228.12
365.43	228.15
365.81	228.19
366.19	228.20
366.57	228.26
366.95	228.26
367.33	228.23
367.71	228.22
368.09	228.25
368.47	228.24
368.85	228.23
369.23	228.24
369.61	228.18
369.99	228.20
370.37	228.21
370.75	228.28
371.13	228.25
371.51	228.21
371.89	228.19
372.27	228.17
372.65	228.15
373.03	228.11
373.41	228.06
373.78	228.01
374.16	227.91
374.54	227.82
374.92	227.77
375.30	227.73
375.68	227.66
376.06	227.62
376.44	227.57
376.82	227.53
377.19	227.48
377.57	227.43
377.95	227.34
378.33	227.28
378.71	227.12
379.09	227.07
379.47	227.04
379.84	226.98
380.22	226.91
380.60	226.84
380.98	226.80
381.36	226.75
381.73	226.69
382.11	226.66
382.49	226.62
382.87	226.56
383.25	226.52
383.62	226.63
384.00	226.56
384.38	226.53
384.76	226.51
385.13	226.51
385.51	226.47
385.89	226.42
386.27	226.39
386.64	226.38
387.02	226.33
387.40	226.29
387.78	226.27
388.15	226.25
388.53	226.21
388.91	226.19
389.29	226.15
389.66	226.15
390.04	226.11
390.42	226.11
390.79	226.11
391.17	226.09
391.55	225.93
391.92	225.92
392.30	225.93
392.68	225.89
393.05	225.87
393.43	225.87
393.81	225.88
394.18	225.87
394.56	225.87
394.94	225.91
395.31	225.91
395.69	225.96
396.06	225.99
396.44	226.02
396.82	226.04
397.19	226.13
397.57	226.15
397.95	226.20
398.32	226.20
398.70	226.25
399.07	226.32
399.45	226.37
399.82	226.42
400.20	226.46
400.58	226.53
400.95	226.54
401.33	226.64
401.70	226.80
402.08	226.91
402.45	227.01
402.83	227.14
403.20	227.27
403.58	227.37
403.95	227.52
404.33	227.69
404.71	227.86
405.08	228.08
405.46	228.27
405.83	228.47
406.21	228.69
406.58	228.94
406.96	229.19
407.33	229.47
407.70	229.78
408.08	230.21
408.45	230.58
408.83	230.99
409.20	231.36
409.58	231.70
409.95	232.16
410.33	232.66
410.70	233.13
411.08	233.68
411.45	234.27
411.82	234.86
412.20	235.54
412.57	236.34
412.95	236.98
413.32	237.81
413.69	238.66
414.07	239.56
414.44	240.54
414.82	241.54
415.19	242.71
415.56	243.89
415.94	245.13
416.31	246.51
416.68	247.89
417.06	249.49
417.43	250.98
417.81	252.71
418.18	254.47
418.55	256.39
418.93	258.39
419.30	260.48
419.67	262.69
420.04	264.97
420.42	267.34
420.79	270.08
421.16	272.85
421.54	275.65
421.91	278.60
422.28	281.65
422.66	284.94
423.03	288.08
423.40	291.37
423.77	294.91
424.15	298.52
424.52	302.29
424.89	306.37
425.26	310.43
425.64	314.20
426.01	318.45
426.38	322.78
426.75	327.25
427.13	331.83
427.50	336.63
427.87	341.62
428.24	346.65
428.61	351.50
428.99	356.73
429.36	362.49
429.73	367.97
430.10	373.47
430.47	379.08
430.85	384.85
431.22	391.05
431.59	397.41
431.96	403.62
432.33	410.52
432.70	417.08
433.08	424.82
433.45	432.15
433.82	439.38
434.19	447.43
434.56	455.38
434.93	463.07
435.30	470.65
435.68	479.23
436.05	487.64
436.42	496.02
436.79	503.66
437.16	511.90
437.53	520.74
437.90	529.60
438.27	538.26
438.64	547.63
439.01	556.10
439.38	563.87
439.75	571.34
440.13	579.77
440.50	587.80
440.87	594.16
441.24	601.13
441.61	608.72
441.98	614.25
442.35	620.83
442.72	627.53
443.09	633.93
443.46	637.96
443.83	640.90
444.20	643.34
444.57	647.03
444.94	649.08
445.31	651.22
445.68	652.99
446.05	654.31
446.42	653.85
446.79	653.15
447.16	652.53
447.53	651.97
447.90	649.21
448.27	646.55
448.64	642.56
449.01	639.75
449.37	634.24
449.74	629.28
450.11	622.86
450.48	615.85
450.85	608.86
451.22	602.90
451.59	597.08
451.96	591.82
452.33	584.16
452.70	577.38
453.07	569.11
453.43	560.89
453.80	552.89
454.17	545.23
454.54	538.22
454.91	530.26
455.28	522.82
455.65	515.79
456.02	508.35
456.38	502.40
456.75	494.72
457.12	488.56
457.49	482.32
457.86	476.48
458.23	471.36
458.59	465.66
458.96	459.81
459.33	454.67
459.70	449.41
460.07	445.44
460.43	440.77
460.80	436.40
461.17	432.61
461.54	428.47
461.91	424.60
462.27	420.65
462.64	417.50
463.01	413.84
463.38	410.16
463.74	406.87
464.11	403.94
464.48	401.31
464.85	398.43
465.21	396.26
465.58	393.83
465.95	391.03
466.32	388.82
466.68	386.64
467.05	384.45
467.42	382.31
467.78	379.98
468.15	377.84
468.52	376.28
468.88	374.17
469.25	372.24
469.62	370.71
469.98	369.03
470.35	367.52
470.72	366.16
471.08	364.78
471.45	363.60
471.82	362.30
472.18	360.91
472.55	360.01
472.92	358.87
473.28	357.98
473.65	357.01
474.02	356.09
474.38	355.30
474.75	354.82
475.11	354.16
475.48	353.83
475.85	353.46
476.21	353.25
476.58	353.08
476.94	353.17
477.31	353.18
477.67	353.23
478.04	353.40
478.41	353.66
478.77	354.06
479.14	354.30
479.50	354.82
479.87	355.51
480.23	356.19
480.60	356.87
480.96	357.56
481.33	358.60
481.69	359.63
482.06	360.66
482.42	361.59
482.79	362.76
483.15	364.14
483.52	365.70
483.88	367.19
484.25	368.81
484.61	370.48
484.98	372.29
485.34	374.33
485.71	376.46
486.07	378.76
486.44	381.06
486.80	383.61
487.17	386.26
487.53	389.17
487.90	392.20
488.26	395.51
488.62	399.01
488.99	402.51
489.35	406.19
489.72	410.20
490.08	414.43
490.44	418.78
490.81	423.30
491.17	427.94
491.54	432.91
491.90	438.03
492.26	443.53
492.63	449.27
492.99	455.27
493.36	461.49
493.72	468.02
494.08	474.70
494.45	481.82
494.81	489.20
495.17	496.78
495.54	504.80
495.90	513.13
496.26	521.64
496.63	530.40
496.99	539.50
497.35	549.00
497.72	558.83
498.08	568.86
498.44	579.24
498.80	590.25
499.17	601.53
499.53	613.17
499.89	625.17
500.26	637.44
500.62	650.00
500.98	663.26
501.34	676.70
501.71	690.68
502.07	704.85
502.43	719.56
502.79	734.53
503.16	749.98
503.52	765.62
503.88	781.73
504.24	798.34
504.60	815.14
504.97	832.45
505.33	850.19
505.69	868.89
506.05	887.98
506.41	907.02
506.78	926.22
507.14	945.92
507.50	966.09
507.86	986.61
508.22	1007.39
508.59	1027.94
508.95	1049.31
509.31	1071.46
509.67	1094.41
510.03	1117.39
510.39	1140.35
510.75	1163.41
511.12	1186.77
511.48	1210.31
511.84	1233.84
512.20	1257.81
512.56	1282.74
512.92	1307.69
513.28	1332.15
513.64	1356.82
514.00	1382.00
514.37	1407.53
514.73	1432.98
515.09	1458.28
515.45	1483.86
515.81	1509.69
516.17	1535.55
516.53	1560.97
516.89	1586.22
517.25	1611.63
517.61	1636.83
517.97	1662.51
518.33	1687.73
518.69	1712.88
519.05	1738.44
519.41	1764.26
519.77	1790.36
520.13	1815.57
520.49	1840.71
520.85	1866.20
521.21	1891.37
521.57	1916.82
521.93	1941.64
522.29	1967.06
522.65	1991.84
523.01	2016.63
523.37	2040.91
523.73	2066.02
524.09	2090.69
524.45	2115.15
524.81	2139.22
525.17	2163.11
525.53	2186.37
525.89	2210.10
526.25	2233.89
526.61	2256.66
526.97	2279.56
527.33	2302.32
527.68	2324.86
528.04	2346.47
528.40	2367.14
528.76	2387.81
529.12	2408.02
529.48	2428.06
529.84	2446.04
530.20	2464.79
530.56	2482.83
530.91	2500.99
531.27	2518.79
531.63	2535.72
531.99	2552.11
532.35	2567.70
532.71	2583.56
533.07	2600.11
533.42	2614.66
533.78	2630.18
534.14	2646.02
534.50	2660.90
534.86	2675.49
535.21	2687.92
535.57	2701.00
535.93	2713.88
536.29	2725.68
536.65	2737.20
537.00	2747.78
537.36	2759.53
537.72	2769.87
538.08	2779.61
538.44	2788.59
538.79	2797.08
539.15	2804.87
539.51	2812.37
539.87	2819.26
540.22	2823.89
540.58	2828.67
540.94	2834.67
541.29	2839.11
541.65	2841.64
542.01	2843.34
542.37	2844.32
542.72	2846.87
543.08	2847.55
543.44	2848.77
543.79	2848.97
544.15	2848.32
544.51	2848.13
544.87	2846.73
545.22	2844.48
545.58	2841.56
545.94	2838.65
546.29	2834.49
546.65	2830.28
547.01	2825.89
547.36	2822.33
547.72	2819.10
548.07	2813.93
548.43	2807.38
548.79	2799.66
549.14	2793.27
549.50	2787.32
549.86	2780.38
550.21	2772.20
550.57	2765.06
550.92	2755.52
551.28	2746.44
551.64	2737.88
551.99	2728.98
552.35	2719.39
552.70	2710.08
553.06	2701.15
553.41	2691.63
553.77	2681.88
554.13	2672.06
554.48	2661.38
554.84	2649.31
555.19	2637.58
555.55	2626.04
555.90	2614.60
556.26	2603.83
556.61	2591.88
556.97	2578.23
557.32	2564.98
557.68	2551.82
558.03	2538.31
558.39	2526.23
558.74	2514.50
559.10	2500.91
559.45	2487.39
559.81	2474.54
560.16	2461.11
560.52	2448.05
560.87	2435.38
561.23	2421.91
561.58	2408.38
561.94	2394.64
562.29	2380.30
562.64	2366.76
563.00	2352.94
563.35	2339.42
563.71	2325.75
564.06	2312.03
564.42	2299.12
564.77	2285.77
565.12	2272.26
565.48	2258.73
565.83	2245.04
566.19	2231.52
566.54	2217.93
566.89	2203.23
567.25	2188.76
567.60	2175.72
567.96	2161.66
568.31	2146.17
568.66	2131.33
569.02	2117.80
569.37	2104.25
569.72	2091.24
570.08	2076.98
570.43	2062.26
570.78	2047.49
571.14	2031.98
571.49	2017.07
571.84	2002.73
572.20	1987.16
572.55	1971.74
572.90	1956.37
573.26	1941.12
573.61	1925.34
573.96	1910.01
574.31	1894.97
574.67	1879.97
575.02	1863.81
575.37	1847.79
575.72	1832.70
576.08	1817.92
576.43	1802.08
576.78	1786.60
577.13	1771.39
577.49	1756.56
577.84	1742.40
578.19	1727.30
578.54	1712.29
578.90	1696.80
579.25	1681.21
579.60	1667.25
579.95	1653.24
580.30	1639.00
580.66	1624.45
581.01	1609.85
581.36	1595.24
581.71	1581.61
582.06	1567.91
582.42	1554.42
582.77	1541.04
583.12	1527.63
583.47	1514.10
583.82	1500.68
584.17	1486.92
584.53	1472.88
584.88	1459.17
585.23	1445.11
585.58	1431.79
585.93	1418.67
586.28	1406.33
586.63	1393.91
586.98	1381.08
587.34	1368.31
587.69	1355.28
588.04	1342.58
588.39	1330.22
588.74	1318.04
589.09	1305.66
589.44	1292.86
589.79	1280.72
590.14	1268.66
590.49	1256.49
590.84	1244.49
591.19	1232.87
591.54	1221.05
591.89	1209.36
592.25	1197.90
592.60	1186.04
592.95	1174.61
593.30	1163.49
593.65	1152.06
594.00	1140.79
594.35	1130.05
594.70	1118.87
595.05	1108.54
595.40	1098.15
595.75	1087.58
596.10	1077.52
596.45	1067.25
596.80	1057.33
597.15	1047.11
597.50	1037.06
597.85	1027.44
598.19	1017.67
598.54	1007.93
598.89	998.72
599.24	989.79
599.59	980.62
599.94	972.36
600.29	963.95
600.64	955.25
600.99	946.21
601.34	937.50
601.69	928.45
602.04	920.12
602.39	911.59
602.74	903.13
603.08	894.63
603.43	886.11
603.78	877.75
604.13	869.52
604.48	861.34
604.83	853.33
605.18	845.25
605.53	837.35
605.87	829.33
606.22	821.50
606.57	813.65
606.92	805.77
607.27	797.82
607.62	790.12
607.96	782.83
608.31	775.99
608.66	768.93
609.01	762.17
609.36	755.50
609.70	748.68
610.05	741.80
610.40	735.21
610.75	728.59
611.10	722.33
611.44	715.90
611.79	709.59
612.14	703.19
612.49	696.87
612.83	690.84
613.18	684.93
613.53	678.97
613.88	673.02
614.22	667.44
614.57	661.83
614.92	656.09
615.27	650.44
615.61	644.85
615.96	639.34
616.31	633.82
616.65	628.34
617.00	623.06
617.35	617.90
617.70	612.76
618.04	607.73
618.39	602.58
618.74	597.67
619.08	592.80
619.43	588.08
619.78	583.34
620.12	578.58
620.47	573.96
620.82	569.44
621.16	565.02
621.51	560.49
621.85	555.99
622.20	551.64
622.55	547.35
622.89	543.13
623.24	538.93
623.59	534.74
623.93	530.72
624.28	526.80
624.62	522.96
624.97	519.18
625.32	515.34
625.66	511.48
626.01	507.60
626.35	503.78
626.70	499.99
627.04	496.40
627.39	492.73
627.73	489.24
628.08	485.84
628.43	482.42
628.77	479.06
629.12	475.83
629.46	472.66
629.81	469.36
630.15	466.05
630.50	462.86
630.84	459.73
631.19	456.65
631.53	453.66
631.88	450.64
632.22	447.64
632.57	444.91
632.91	442.22
633.26	439.62
633.60	437.04
633.95	434.51
634.29	431.91
634.64	429.37
634.98	426.66
635.32	424.07
635.67	421.67
636.01	419.23
636.36	416.80
636.70	414.49
637.05	412.21
637.39	409.97
637.73	407.74
638.08	405.64
638.42	403.52
638.77	401.25
639.11	398.95
639.45	396.72
639.80	394.44
640.14	392.27
640.49	390.08
640.83	387.87
641.17	385.77
641.52	383.71
641.86	381.67
642.20	379.83
642.55	377.86
642.89	375.89
643.23	374.02
643.58	372.31
643.92	370.48
644.26	368.72
644.61	366.99
644.95	365.25
645.29	363.42
645.64	361.61
645.98	359.91
646.32	358.32
646.66	356.73
647.01	355.15
647.35	353.62
647.69	352.07
648.04	350.64
648.38	349.14
648.72	347.66
649.06	346.19
649.41	344.72
649.75	343.31
650.09	341.93
650.43	340.54
650.78	339.11
651.12	337.74
651.46	336.40
651.80	335.09
652.14	333.81
652.49	332.58
652.83	331.32
653.17	330.10
653.51	328.92
653.85	327.79
654.20	326.62
654.54	325.38
654.88	324.23
655.22	323.11
655.56	321.98
655.90	320.92
656.25	319.89
656.59	318.85
656.93	317.86
657.27	316.89
657.61	315.87
657.95	314.90
658.29	313.91
658.64	312.98
658.98	312.04
659.32	311.14
659.66	310.28
660.00	309.45
660.34	308.61
660.68	307.76
661.02	306.87
661.36	306.03
661.70	305.22
662.05	304.44
662.39	303.66
662.73	302.95
663.07	302.25
663.41	301.50
663.75	300.75
664.09	300.02
664.43	299.24
664.77	298.55
665.11	297.81
665.45	297.14
665.79	296.48
666.13	295.79
666.47	295.09
666.81	294.37
667.15	293.63
667.49	292.98
667.83	292.40
668.17	291.78
668.51	291.20
668.85	290.66
669.19	290.16
669.53	289.55
669.87	288.93
670.21	288.33
670.55	287.79
670.89	287.32
671.23	286.79
671.57	286.29
671.91	285.82
672.25	285.39
672.58	284.96
672.92	284.44
673.26	284.00
673.60	283.57
673.94	283.16
674.28	282.78
674.62	282.36
674.96	281.89
675.30	281.49
675.64	281.05
675.97	280.60
676.31	280.12
676.65	279.69
676.99	279.34
677.33	278.91
677.67	278.50
678.01	278.04
678.34	277.65
678.68	277.28
679.02	276.85
679.36	276.43
679.70	276.01
680.04	275.64
680.37	275.26
680.71	274.90
681.05	274.56
681.39	274.18
681.73	273.77
682.06	273.39
682.40	273.02
682.74	272.70
683.08	272.42
683.42	272.08
683.75	271.78
684.09	271.39
684.43	271.08
684.77	270.75
685.10	270.47
685.44	270.15
685.78	269.84
686.12	269.55
686.45	269.24
686.79	268.91
687.13	268.62
687.46	268.29
687.80	268.00
688.14	267.65
688.48	267.35
688.81	267.06
689.15	266.79
689.49	266.48
689.82	266.17
690.16	265.79
690.50	265.50
690.83	265.20
691.17	264.90
691.51	264.61
691.84	264.33
692.18	264.01
692.52	263.70
692.85	263.41
693.19	263.15
693.52	262.86
693.86	262.58
694.20	262.30
694.53	262.03
694.87	261.73
695.21	261.45
695.54	261.17
695.88	260.88
696.21	260.57
696.55	260.30
696.88	260.03
697.22	259.76
697.56	259.49
697.89	259.18
698.23	258.92
698.56	258.63
698.90	258.36
699.23	258.08
699.57	257.81
699.90	257.52
700.24	257.22
700.58	256.98
700.91	256.76
701.25	256.61
701.58	256.40
701.92	256.20
702.25	255.96
702.59	255.70
702.92	255.46
703.26	255.22
703.59	254.96
703.93	254.81
704.26	254.58
704.60	254.33
704.93	254.08
705.26	253.82
705.60	253.62
705.93	253.35
706.27	253.16
706.60	252.96
706.94	252.78
707.27	252.51
707.61	252.27
707.94	252.00
708.27	251.64
708.61	251.35
708.94	251.08
709.28	250.85
709.61	250.62
709.94	250.41
710.28	250.20
710.61	250.01
710.95	249.69
711.28	249.55
711.61	249.34
711.95	249.16
712.28	248.94
712.61	248.71
712.95	248.58
713.28	248.43
713.61	248.19
713.95	247.94
714.28	247.75
714.61	247.54
714.95	247.35
715.28	247.15
715.61	246.97
715.95	246.80
716.28	246.61
716.61	246.46
716.95	246.25
717.28	246.06
717.61	245.86
717.94	245.68
718.28	245.41
718.61	245.22
718.94	245.01
719.27	244.84
719.61	244.68
719.94	244.46
720.27	244.20
720.60	244.03
720.94	243.85
721.27	243.69
721.60	243.54
721.93	243.36
722.27	243.24
722.60	243.08
722.93	242.90
723.26	242.73
723.59	242.53
723.93	242.38
724.26	242.22
724.59	242.05
724.92	241.91
725.25	241.79
725.59	241.64
725.92	241.51
726.25	241.37
726.58	241.22
726.91	241.06
727.24	240.94
727.57	240.79
727.91	240.63
728.24	240.51
728.57	240.36
728.90	240.24
729.23	240.05
729.56	239.97
729.89	239.83
730.22	239.68
730.55	239.55
730.89	239.41
731.22	239.27
731.55	239.13
731.88	239.00
732.21	238.84
732.54	238.71
732.87	238.58
733.20	238.46
733.53	238.34
733.86	238.22
734.19	238.08
734.52	237.98
734.85	237.95
735.18	237.80
735.51	237.71
735.84	237.60
736.17	237.52
736.50	237.34
736.83	237.38
737.16	237.28
737.49	237.18
737.82	237.06
738.15	236.98
738.48	236.87
738.81	236.76
739.14	236.64
739.47	236.53
739.80	236.41
740.13	236.32
740.46	236.19
740.79	236.07
741.12	235.96
741.45	235.83
741.78	235.66
742.11	235.59
742.44	235.46
742.77	235.37
743.10	235.25
743.43	235.14
743.75	234.91
744.08	235.01
744.41	234.90
744.74	234.80
745.07	234.68
745.40	234.61
745.73	234.57
746.06	234.49
746.39	234.42
746.71	234.32
747.04	234.22
747.37	234.13
747.70	234.07
748.03	234.00
748.36	233.94
748.68	233.85
749.01	233.73
749.34	233.65
749.67	233.57
750.00	233.51
750.33	233.52
750.65	233.45
750.98	233.18
751.31	233.10
751.64	233.04
751.97	233.03
752.29	232.94
752.62	232.81
752.95	232.72
753.28	232.62
753.60	232.54
753.93	232.50
754.26	232.43
754.59	232.32
754.91	232.23
755.24	232.14
755.57	232.13
755.90	232.05
756.22	231.97
756.55	231.87
756.88	231.77
757.20	231.61
757.53	231.51
757.86	231.44
758.19	231.38
758.51	231.30
758.84	231.18
759.17	231.09
759.49	231.04
759.82	231.04
760.15	230.99
760.47	230.93
760.80	230.83
761.13	230.79
761.45	230.73
761.78	230.68
762.11	230.63
762.43	230.50
762.76	230.45
763.08	230.41
763.41	230.36
763.74	230.32
764.06	230.27
764.39	230.22
764.71	230.17
765.04	230.10
765.37	230.04
765.69	229.99
766.02	229.94
766.34	229.89
766.67	229.79
767.00	229.76
767.32	229.78
767.65	229.82
767.97	229.76
768.30	229.72
768.62	229.67
768.95	229.61
769.27	229.57
769.60	229.54
769.92	229.47
770.25	229.41
770.57	229.35
770.90	229.31
771.22	229.25
771.55	229.21
771.87	229.19
772.20	229.15
772.52	229.21
772.85	229.33
773.17	229.30
773.50	229.25
773.82	229.19
774.15	229.09
774.47	228.98
774.80	228.93
775.12	228.89
775.45	228.86
775.77	228.83
776.09	228.81
776.42	228.78
776.74	228.79
777.07	228.76
777.39	228.73
777.72	228.69
778.04	228.68
778.36	228.65
778.69	228.62
779.01	228.60
779.33	228.46
779.66	228.29
779.98	228.25
780.31	228.24
780.63	228.26
780.95	228.26
781.28	228.23
781.60	228.20
781.92	228.17
782.25	228.15
782.57	228.13
782.89	228.09
783.22	228.05
783.54	228.00
783.86	227.99
784.19	227.96
784.51	227.98
784.83	227.94
785.16	227.91
785.48	227.89
785.80	227.86
786.12	227.85
786.45	227.83
786.77	227.82
787.09	227.78
787.42	227.72
787.74	227.70
788.06	227.68
788.38	227.66
788.71	227.63
789.03	227.61
789.35	227.61
789.67	227.58
789.99	227.57
790.32	227.54
790.64	227.53
790.96	227.63
791.28	227.56
791.61	227.54
791.93	227.53
792.25	227.51
792.57	227.58
792.89	227.54
793.21	227.53
793.54	227.50
793.86	227.47
794.18	227.46
794.50	227.42
794.82	227.40
795.14	227.40
795.47	227.41
795.79	227.39
796.11	227.34
796.43	227.33
796.75	227.31
797.07	227.30
797.39	227.28
797.71	227.16
798.04	227.16
798.36	227.15
798.68	227.13
799.00	227.12
799.32	227.05
799.64	227.06
799.96	227.04
800.28	227.05
800.60	227.03
800.92	227.02
801.24	227.00
801.56	227.00
801.89	226.98
802.21	226.97
802.53	226.93
802.85	226.95
803.17	226.99
803.49	226.96
803.81	226.93
804.13	226.92
804.45	226.89
804.77	226.89
805.09	226.87
805.41	226.85
805.73	226.81
806.05	226.77
806.37	226.74
806.69	226.72
807.01	226.69
807.33	226.69
807.65	226.64
807.97	226.68
808.28	226.65
808.60	226.64
808.92	226.61
809.24	226.68
809.56	226.65
809.88	226.59
810.20	226.59
810.52	226.60
810.84	226.58
811.16	226.56
811.48	226.53
811.80	226.57
812.12	226.56
812.43	226.58
812.75	226.57
813.07	226.55
813.39	226.55
813.71	226.53
814.03	226.51
814.35	226.51
814.67	226.44
814.98	226.43
815.30	226.42
815.62	226.39
815.94	226.29
816.26	226.30
816.58	226.27
816.89	226.27
817.21	226.23
817.53	226.23
817.85	226.23
818.17	226.22
818.48	226.16
818.80	226.17
819.12	226.14
819.44	226.12
819.76	226.09
820.07	226.08
820.39	226.08
820.71	226.08
821.03	226.08
821.34	226.06
821.66	226.07
821.98	226.08
822.30	226.07
822.61	226.14
822.93	226.11
823.25	226.11
823.57	226.08
823.88	226.09
824.20	226.09
824.52	226.10
824.83	226.09
825.15	226.07
825.47	226.06
825.79	226.06
826.10	226.05
826.42	226.05
826.74	226.05
827.05	226.04
827.37	226.04
827.69	226.02
828.00	226.03
828.32	226.02
828.64	226.00
828.95	226.06
829.27	226.02
829.58	226.01
829.90	226.03
830.22	226.04
830.53	226.01
830.85	225.99
831.17	225.96
831.48	225.95
831.80	225.95
832.11	225.94
832.43	225.92
832.75	225.91
833.06	225.98
833.38	225.94
833.69	225.93
834.01	225.93
834.32	225.93
834.64	225.91
834.96	225.90
835.27	225.90
835.59	225.85
835.90	225.83
836.22	225.82
836.53	225.79
836.85	225.77
837.16	225.90
837.48	225.90
837.79	225.94
838.11	225.94
838.42	225.93
838.74	225.94
839.05	225.93
839.37	225.92
839.68	225.84
840.00	225.84
840.31	225.85
840.63	225.84
840.94	225.82
841.26	225.80
841.57	225.80
841.88	225.81
842.20	225.79
842.51	225.76
842.83	225.76
843.14	225.88
843.46	225.87
843.77	225.79
844.08	225.78
844.40	225.74
844.71	225.73
845.03	225.71
845.34	225.70
845.65	225.69
845.97	225.69
846.28	225.69
846.60	225.70
846.91	225.68
847.22	225.67
847.54	225.70
847.85	225.71
848.16	225.69
848.48	225.66
848.79	225.71
849.10	225.73
849.42	225.73
849.73	225.61
850.04	225.60
850.36	225.56
850.67	225.58
850.98	225.58
851.30	225.59
851.61	225.59
851.92	225.58
852.23	225.62
852.55	225.62
852.86	225.63
853.17	225.63
853.49	225.66
853.80	225.68
854.11	225.69
854.42	225.70
854.74	225.69
855.05	225.69
855.36	225.63
855.67	225.63
855.99	225.63
856.30	225.78
856.61	225.77
856.92	225.78
857.23	225.78
857.55	225.76
857.86	225.75
858.17	225.77
858.48	225.75
858.79	225.72
859.11	225.73
859.42	225.72
859.73	225.70
860.04	225.69
860.35	225.65
860.66	225.61
860.98	225.60
861.29	225.62
861.60	225.61
861.91	225.64
862.22	225.62
862.53	225.60
862.84	225.44
863.16	225.47
863.47	225.44
863.78	225.42
864.09	225.43
864.40	225.44
864.71	225.43
865.02	225.45
865.33	225.43
865.64	225.41
865.95	225.41
866.27	225.49
866.58	225.47
866.89	225.49
867.20	225.49
867.51	225.47
867.82	225.46
868.13	225.49
868.44	225.47
868.75	225.49
869.06	225.50
869.37	225.51
869.68	225.48
869.99	225.50
870.30	225.51
870.61	225.52
870.92	225.50
871.23	225.49
871.54	225.51
871.85	225.54
872.16	225.55
872.47	225.54
872.78	225.47
873.09	225.48
873.40	225.46
873.71	225.47
874.02	225.48
874.33	225.47
874.64	225.44
874.95	225.46
875.26	225.43
875.56	225.43
875.87	225.42
876.18	225.42
876.49	225.54
876.80	225.53
877.11	225.50
877.42	225.51
877.73	225.51
878.04	225.49
878.35	225.48
878.66	225.48
878.96	225.48
879.27	225.48
879.58	225.47
879.89	225.47
880.20	225.50
880.51	225.49
880.82	225.50
881.12	225.50
881.43	225.48
881.74	225.46
882.05	225.46
882.36	225.46
882.67	225.47
882.97	225.33
883.28	225.32
883.59	225.32
883.90	225.33
884.21	225.35
884.51	225.34
884.82	225.32
885.13	225.32
885.44	225.31
885.74	225.32
886.05	225.31
886.36	225.31
886.67	225.26
886.98	225.33
887.28	225.34
887.59	225.33
887.90	225.34
888.20	225.34
888.51	225.36
888.82	225.34
889.13	225.35
889.43	225.46
889.74	225.45
890.05	225.45
890.35	225.44
890.66	225.41
890.97	225.40
891.28	225.39
891.58	225.39
891.89	225.39
892.20	225.38
892.50	225.36
892.81	225.35
893.12	225.35
893.42	225.28
893.73	225.28
894.04	225.28
894.34	225.29
894.65	225.28
894.95	225.27
895.26	225.27
895.57	225.32
895.87	225.19
896.18	225.22
896.48	225.22
896.79	225.22
897.10	225.24
897.40	225.25
897.71	225.26
898.01	225.25
898.32	225.26
898.63	225.26
898.93	225.28
899.24	225.28
899.54	225.28
899.85	225.27
900.15	225.27
900.46	225.27
900.76	225.27
901.07	225.27
901.38	225.27
901.68	225.28
901.99	225.22
902.29	225.23
902.60	225.21
902.90	225.20
903.21	225.20
903.51	225.19
903.82	225.21
904.12	225.21
904.43	225.22
904.73	225.21
905.03	225.22
905.34	225.34
905.64	225.33
905.95	225.33
906.25	225.33
906.56	225.32
906.86	225.32
907.17	225.31
907.47	225.31
907.77	225.30
908.08	225.28
908.38	225.28
908.69	225.29
908.99	225.31
909.30	225.32
909.60	225.31
909.90	225.31
910.21	225.27
910.51	225.25
910.81	225.25
911.12	225.25
911.42	225.25
911.73	225.12
912.03	225.13
912.33	225.16
912.64	225.15
912.94	225.14
913.24	225.12
913.55	225.10
913.85	225.10
914.15	225.12
914.46	225.14
914.76	225.13
915.06	225.12
915.37	225.09
915.67	225.08
915.97	225.09
916.27	225.07
916.58	225.08
916.88	225.08
917.18	225.07
917.49	225.15
917.79	225.14
918.09	225.16
918.39	225.19
918.70	225.18
919.00	225.19
919.30	225.25
919.60	225.24
919.91	225.24
920.21	225.24
920.51	225.21
920.81	225.20
921.12	225.23
921.42	225.23
921.72	225.23
922.02	225.24
922.32	225.26
922.63	225.26
922.93	225.33
923.23	225.34
923.53	225.33
923.83	225.24
924.13	225.25
924.44	225.25
924.74	225.26
925.04	225.29
925.34	225.28
925.64	225.23
925.94	225.23
926.24	225.30
926.55	225.29
926.85	225.31
927.15	225.31
927.45	225.30
927.75	225.30
928.05	225.30
928.35	225.29
928.65	225.30
928.95	225.31
929.26	225.25
929.56	225.27
929.86	225.29
930.16	225.28
930.46	225.27
930.76	225.27
931.06	225.21
931.36	225.18
931.66	225.20
931.96	225.22
932.26	225.22
932.56	225.16
932.86	225.17
933.16	225.17
933.46	225.16
933.76	225.14
934.06	225.16
934.36	225.21
934.66	225.20
934.96	225.18
935.26	225.18
935.56	225.20
935.86	225.17
936.16	225.15
936.46	225.14
936.76	225.14
937.06	225.12
937.36	225.13
937.66	225.13
937.96	225.12
938.26	225.09
938.56	225.08
938.86	225.09
939.16	225.12
939.46	225.12
939.76	225.13
940.06	225.13
940.35	225.11
940.65	225.05
940.95	225.06
941.25	225.03
941.55	225.02
941.85	225.01
942.15	225.03
942.45	225.07
942.75	225.07
943.04	225.07
943.34	225.10
943.64	225.09
943.94	225.07
944.24	225.07
944.54	225.08
944.84	225.08
945.13	225.06
945.43	225.04
945.73	225.03
946.03	225.02
946.33	225.01
946.62	225.00
946.92	225.00
947.22	225.00
947.52	225.01
947.82	225.03
948.11	225.01
948.41	224.99
948.71	224.95
949.01	224.96
949.31	224.95
949.60	224.93
949.90	224.95
950.20	224.95
950.50	224.95
950.79	224.94
951.09	224.96
951.39	224.96
951.69	224.95
951.98	224.97
952.28	224.98
952.58	224.98
952.87	224.98
953.17	225.00
953.47	224.98
953.76	224.98
954.06	224.95
954.36	224.94
954.66	224.94
954.95	224.97
955.25	224.98
955.55	224.99
955.84	224.97
956.14	224.98
956.44	224.99
956.73	224.97
957.03	224.97
957.32	224.97
957.62	224.96
957.92	224.99
958.21	224.98
958.51	225.12
958.81	225.14
959.10	225.15
959.40	225.18
959.69	225.19
959.99	225.21
960.29	225.21
960.58	225.21
960.88	225.26
961.17	225.24
961.47	225.25
961.76	225.24
962.06	225.26
962.36	225.24
962.65	225.25
962.95	225.26
963.24	225.25
963.54	225.25
963.83	225.26
964.13	225.25
964.42	225.24
964.72	225.13
965.01	225.13
965.31	225.12
965.60	225.09
965.90	225.17
966.19	225.14
966.49	225.14
966.78	225.14
967.08	225.13
967.37	225.13
967.67	225.10
967.96	225.13
968.26	225.12
968.55	225.14
968.85	225.13
969.14	225.13
969.43	225.13
969.73	225.12
970.02	225.11
970.32	225.10
970.61	225.08
970.91	225.04
971.20	225.02
971.49	225.01
971.79	225.03
972.08	224.93
972.38	224.95
972.67	224.94
972.96	224.96
973.26	224.93
973.55	224.98
973.85	224.97
974.14	224.96
974.43	224.96
974.73	224.94
975.02	224.93
975.31	224.93
975.61	224.93
975.90	224.92
976.19	224.91
976.49	224.92
976.78	224.93
977.07	224.93
977.37	224.94
977.66	224.96
977.95	224.94
978.24	224.95
978.54	224.98
978.83	224.97
979.12	224.96
979.42	224.96
979.71	224.93
980.00	224.93
980.29	224.94
980.59	224.91
980.88	224.95
981.17	224.95
981.46	224.95
981.76	224.95
982.05	224.99
982.34	225.00
982.63	225.00
982.93	225.00
983.22	225.03
983.51	225.03
983.80	225.05
984.09	225.07
984.39	225.05
984.68	225.04
984.97	225.04
985.26	225.03
985.55	225.04
985.85	225.02
986.14	225.04
986.43	225.05
986.72	225.04
987.01	225.00
987.30	225.01
987.59	225.00
987.89	225.01
988.18	224.96
988.47	224.95
988.76	224.94
989.05	224.93
989.34	224.91
989.63	224.95
989.92	224.93
990.22	224.91
990.51	224.91
990.80	224.90
991.09	224.91
991.38	224.92
991.67	224.91
991.96	224.90
992.25	224.90
992.54	224.88
992.83	224.88
993.12	224.88
993.41	224.90
993.70	224.95
993.99	224.97
994.28	224.99
994.58	225.01
994.87	224.99
995.16	225.00
995.45	224.98
995.74	224.94
996.03	224.95
996.32	224.97
996.61	225.00
996.90	225.00
997.19	224.99
997.48	224.99
997.77	224.98
998.06	224.99
998.34	224.98
998.63	224.98
998.92	224.98
999.21	225.00
999.50	225.00
999.79	224.96
1000.08	224.95
1000.37	224.95
1000.66	224.93
1000.95	224.97
1001.24	224.97
1001.53	224.99
1001.82	224.99
1002.11	224.97
1002.40	224.98
1002.68	225.00
1002.97	225.09
1003.26	225.08
1003.55	225.06
1003.84	225.07
1004.13	225.12
1004.42	225.11
1004.71	225.11
1004.99	225.10
1005.28	225.13
1005.57	225.12
1005.86	225.11
1006.15	225.10
1006.44	225.08
1006.72	225.09
1007.01	225.07
1007.30	225.07
1007.59	225.05
1007.88	225.05
1008.17	225.06
1008.45	225.03
1008.74	224.98
1009.03	224.92
1009.32	224.92
1009.60	224.93
1009.89	224.91
1010.18	224.86
1010.47	224.86
1010.76	224.86
1011.04	224.86
1011.33	224.85
1011.62	224.86
1011.91	224.87
1012.19	224.88
1012.48	224.88
1012.77	224.88
1013.05	224.92
1013.34	224.92
1013.63	224.91
1013.92	224.92
1014.20	224.91
1014.49	224.92
1014.78	224.94
1015.06	224.89
1015.35	224.90
1015.64	224.91
1015.92	224.93
1016.21	224.94
1016.50	224.94
1016.78	224.95
1017.07	224.96
1017.36	224.94
1017.64	224.92
1017.93	224.93
1018.22	224.92
1018.50	224.92
1018.79	224.91
1019.08	224.86
1019.36	224.87
1019.65	224.86
1019.93	224.89
1020.22	224.91
1020.51	224.98
1020.79	224.96
1021.08	224.73
1021.36	224.73
1021.65	224.87
1021.94	224.82
1022.22	225.00
1022.51	224.67
1022.79	225.53
1023.08	225.07
1023.36	226.39
1023.65	224.60
>>>>>End Processed Spectral Data<<<<<
