SpectraSuite Data File
++++++++++++++++++++++++++++++++++++
Date: Sun Oct 04 18:01:41 EDT 2015
User: lab3
Dark Spectrum Present: No
Reference Spectrum Present: No
Number of Sampled Component Spectra: 1
Spectrometers: USB2E7196
Integration Time (usec): 46000 (USB2E7196)
Spectra Averaged: 24000 (USB2E7196)
Boxcar Smoothing: 10 (USB2E7196)
Correct for Electrical Dark: No (USB2E7196)
Strobe/Lamp Enabled: No (USB2E7196)
Correct for Detector Non-linearity: No (USB2E7196)
Correct for Stray Light: No (USB2E7196)
Number of Pixels in Processed Spectrum: 2048
>>>>>Begin Processed Spectral Data<<<<<
339.09	0.00
339.48	213.36
339.86	214.84
340.24	216.23
340.63	217.67
341.01	220.94
341.39	220.36
341.78	221.74
342.16	222.96
342.54	223.32
342.93	211.85
343.31	222.55
343.69	223.09
344.07	223.55
344.46	223.98
344.84	224.38
345.22	224.60
345.60	224.86
345.99	225.06
346.37	225.19
346.75	225.31
347.13	225.39
347.52	225.47
347.90	225.56
348.28	225.60
348.66	225.66
349.05	225.66
349.43	225.71
349.81	225.78
350.19	225.84
350.57	225.90
350.96	225.99
351.34	226.09
351.72	226.19
352.10	226.30
352.48	226.37
352.87	226.42
353.25	226.49
353.63	226.55
354.01	226.61
354.39	226.69
354.77	226.76
355.15	226.87
355.54	226.92
355.92	226.95
356.30	227.03
356.68	227.17
357.06	227.25
357.44	227.30
357.82	227.36
358.20	227.48
358.58	227.53
358.97	227.60
359.35	227.68
359.73	227.77
360.11	227.82
360.49	227.88
360.87	227.93
361.25	227.99
361.63	228.08
362.01	228.13
362.39	228.16
362.77	228.21
363.15	228.23
363.53	228.27
363.91	228.31
364.29	228.33
364.67	228.23
365.05	228.25
365.43	228.29
365.81	228.32
366.19	228.33
366.57	228.39
366.95	228.39
367.33	228.36
367.71	228.36
368.09	228.38
368.47	228.37
368.85	228.36
369.23	228.37
369.61	228.31
369.99	228.33
370.37	228.33
370.75	228.41
371.13	228.38
371.51	228.33
371.89	228.31
372.27	228.29
372.65	228.27
373.03	228.23
373.41	228.19
373.78	228.14
374.16	228.04
374.54	227.95
374.92	227.90
375.30	227.86
375.68	227.80
376.06	227.75
376.44	227.70
376.82	227.66
377.19	227.61
377.57	227.56
377.95	227.47
378.33	227.41
378.71	227.25
379.09	227.20
379.47	227.17
379.84	227.11
380.22	227.05
380.60	226.98
380.98	226.93
381.36	226.88
381.73	226.82
382.11	226.80
382.49	226.76
382.87	226.70
383.25	226.66
383.62	226.76
384.00	226.70
384.38	226.66
384.76	226.64
385.13	226.64
385.51	226.60
385.89	226.55
386.27	226.52
386.64	226.51
387.02	226.46
387.40	226.42
387.78	226.40
388.15	226.37
388.53	226.35
388.91	226.32
389.29	226.29
389.66	226.29
390.04	226.25
390.42	226.25
390.79	226.24
391.17	226.22
391.55	226.07
391.92	226.06
392.30	226.06
392.68	226.03
393.05	226.01
393.43	226.01
393.81	226.02
394.18	226.00
394.56	226.01
394.94	226.05
395.31	226.05
395.69	226.10
396.06	226.13
396.44	226.16
396.82	226.18
397.19	226.27
397.57	226.28
397.95	226.33
398.32	226.33
398.70	226.39
399.07	226.46
399.45	226.50
399.82	226.56
400.20	226.60
400.58	226.67
400.95	226.69
401.33	226.78
401.70	226.95
402.08	227.07
402.45	227.17
402.83	227.30
403.20	227.43
403.58	227.53
403.95	227.69
404.33	227.86
404.71	228.02
405.08	228.25
405.46	228.44
405.83	228.65
406.21	228.88
406.58	229.13
406.96	229.38
407.33	229.67
407.70	229.99
408.08	230.41
408.45	230.79
408.83	231.21
409.20	231.59
409.58	231.93
409.95	232.40
410.33	232.91
410.70	233.39
411.08	233.95
411.45	234.54
411.82	235.15
412.20	235.84
412.57	236.66
412.95	237.31
413.32	238.15
413.69	239.02
414.07	239.94
414.44	240.94
414.82	241.96
415.19	243.15
415.56	244.36
415.94	245.62
416.31	247.03
416.68	248.44
417.06	250.07
417.43	251.61
417.81	253.37
418.18	255.17
418.55	257.13
418.93	259.18
419.30	261.32
419.67	263.58
420.04	265.91
420.42	268.34
420.79	271.14
421.16	273.97
421.54	276.84
421.91	279.86
422.28	282.98
422.66	286.35
423.03	289.56
423.40	292.94
423.77	296.56
424.15	300.27
424.52	304.13
424.89	308.31
425.26	312.47
425.64	316.33
426.01	320.68
426.38	325.13
426.75	329.70
427.13	334.40
427.50	339.32
427.87	344.43
428.24	349.60
428.61	354.57
428.99	359.94
429.36	365.85
429.73	371.48
430.10	377.12
430.47	382.87
430.85	388.80
431.22	395.16
431.59	401.68
431.96	408.06
432.33	415.15
432.70	421.89
433.08	429.84
433.45	437.37
433.82	444.80
434.19	453.07
434.56	461.24
434.93	469.14
435.30	476.94
435.68	485.76
436.05	494.40
436.42	503.02
436.79	510.87
437.16	519.35
437.53	528.43
437.90	537.53
438.27	546.43
438.64	556.06
439.01	564.76
439.38	572.74
439.75	580.40
440.13	589.07
440.50	597.30
440.87	603.84
441.24	610.98
441.61	618.77
441.98	624.43
442.35	631.17
442.72	638.03
443.09	644.57
443.46	648.68
443.83	651.67
444.20	654.14
444.57	657.89
444.94	659.95
445.31	662.10
445.68	663.88
446.05	665.19
446.42	664.66
446.79	663.90
447.16	663.22
447.53	662.58
447.90	659.68
448.27	656.91
448.64	652.76
449.01	649.82
449.37	644.11
449.74	638.97
450.11	632.33
450.48	625.10
450.85	617.88
451.22	611.72
451.59	605.71
451.96	600.27
452.33	592.39
452.70	585.41
453.07	576.90
453.43	568.45
453.80	560.21
454.17	552.34
454.54	545.12
454.91	536.95
455.28	529.31
455.65	522.10
456.02	514.46
456.38	508.35
456.75	500.48
457.12	494.17
457.49	487.78
457.86	481.78
458.23	476.53
458.59	470.69
458.96	464.69
459.33	459.42
459.70	454.04
460.07	449.97
460.43	445.19
460.80	440.71
461.17	436.83
461.54	432.60
461.91	428.63
462.27	424.61
462.64	421.37
463.01	417.62
463.38	413.85
463.74	410.49
464.11	407.49
464.48	404.79
464.85	401.84
465.21	399.61
465.58	397.12
465.95	394.25
466.32	391.98
466.68	389.75
467.05	387.51
467.42	385.32
467.78	382.93
468.15	380.74
468.52	379.14
468.88	376.98
469.25	375.01
469.62	373.43
469.98	371.71
470.35	370.17
470.72	368.78
471.08	367.35
471.45	366.15
471.82	364.81
472.18	363.40
472.55	362.47
472.92	361.31
473.28	360.39
473.65	359.40
474.02	358.46
474.38	357.65
474.75	357.15
475.11	356.48
475.48	356.13
475.85	355.75
476.21	355.53
476.58	355.35
476.94	355.44
477.31	355.45
477.67	355.49
478.04	355.66
478.41	355.93
478.77	356.33
479.14	356.57
479.50	357.09
479.87	357.78
480.23	358.48
480.60	359.16
480.96	359.85
481.33	360.91
481.69	361.95
482.06	363.00
482.42	363.94
482.79	365.13
483.15	366.53
483.52	368.12
483.88	369.64
484.25	371.28
484.61	372.97
484.98	374.81
485.34	376.88
485.71	379.05
486.07	381.38
486.44	383.72
486.80	386.32
487.17	389.01
487.53	391.96
487.90	395.04
488.26	398.41
488.62	401.96
488.99	405.51
489.35	409.26
489.72	413.33
490.08	417.62
490.44	422.05
490.81	426.64
491.17	431.35
491.54	436.40
491.90	441.61
492.26	447.20
492.63	453.04
492.99	459.14
493.36	465.45
493.72	472.09
494.08	478.88
494.45	486.11
494.81	493.62
495.17	501.34
495.54	509.49
495.90	517.97
496.26	526.63
496.63	535.54
496.99	544.78
497.35	554.44
497.72	564.42
498.08	574.61
498.44	585.17
498.80	596.35
499.17	607.82
499.53	619.66
499.89	631.85
500.26	644.30
500.62	657.06
500.98	670.52
501.34	684.17
501.71	698.38
502.07	712.76
502.43	727.69
502.79	742.88
503.16	758.57
503.52	774.45
503.88	790.80
504.24	807.66
504.60	824.73
504.97	842.31
505.33	860.33
505.69	879.31
506.05	898.69
506.41	917.99
506.78	937.45
507.14	957.41
507.50	977.87
507.86	998.68
508.22	1019.73
508.59	1040.56
508.95	1062.24
509.31	1084.74
509.67	1108.03
510.03	1131.34
510.39	1154.60
510.75	1178.00
511.12	1201.71
511.48	1225.58
511.84	1249.44
512.20	1273.73
512.56	1298.98
512.92	1324.26
513.28	1349.03
513.64	1374.01
514.00	1399.50
514.37	1425.34
514.73	1451.14
515.09	1476.79
515.45	1502.72
515.81	1528.85
516.17	1555.09
516.53	1580.80
516.89	1606.30
517.25	1631.99
517.61	1657.50
517.97	1683.52
518.33	1709.04
518.69	1734.46
519.05	1760.32
519.41	1786.45
519.77	1812.82
520.13	1838.29
520.49	1863.68
520.85	1889.48
521.21	1914.87
521.57	1940.61
521.93	1965.72
522.29	1991.42
522.65	2016.48
523.01	2041.57
523.37	2066.14
523.73	2091.46
524.09	2116.44
524.45	2141.20
524.81	2165.52
525.17	2189.63
525.53	2213.06
525.89	2236.97
526.25	2260.97
526.61	2283.98
526.97	2307.13
527.33	2330.13
527.68	2352.87
528.04	2374.68
528.40	2395.55
528.76	2416.44
529.12	2436.82
529.48	2456.99
529.84	2475.14
530.20	2493.99
530.56	2512.12
530.91	2530.38
531.27	2548.31
531.63	2565.31
531.99	2581.82
532.35	2597.53
532.71	2613.49
533.07	2630.17
533.42	2644.83
533.78	2660.49
534.14	2676.37
534.50	2691.26
534.86	2705.90
535.21	2718.44
535.57	2731.57
535.93	2744.44
536.29	2756.24
536.65	2767.80
537.00	2778.51
537.36	2790.29
537.72	2800.60
538.08	2810.40
538.44	2819.43
538.79	2827.94
539.15	2835.72
539.51	2843.19
539.87	2850.00
540.22	2854.64
540.58	2859.36
540.94	2865.39
541.29	2869.74
541.65	2872.16
542.01	2873.80
542.37	2874.74
542.72	2877.16
543.08	2877.73
543.44	2878.88
543.79	2878.98
544.15	2878.18
544.51	2877.79
544.87	2876.18
545.22	2873.79
545.58	2870.70
545.94	2867.67
546.29	2863.35
546.65	2858.96
547.01	2854.43
547.36	2850.73
547.72	2847.25
548.07	2841.91
548.43	2835.08
548.79	2827.17
549.14	2820.63
549.50	2814.45
549.86	2807.31
550.21	2798.95
550.57	2791.62
550.92	2781.90
551.28	2772.69
551.64	2764.00
551.99	2754.97
552.35	2745.27
552.70	2735.85
553.06	2726.78
553.41	2717.10
553.77	2707.11
554.13	2697.05
554.48	2686.15
554.84	2673.92
555.19	2662.07
555.55	2650.35
555.90	2638.78
556.26	2627.79
556.61	2615.67
556.97	2601.83
557.32	2588.45
557.68	2575.09
558.03	2561.45
558.39	2549.15
558.74	2537.20
559.10	2523.35
559.45	2509.63
559.81	2496.61
560.16	2483.02
560.52	2469.69
560.87	2456.74
561.23	2443.08
561.58	2429.47
561.94	2415.53
562.29	2401.00
562.64	2387.28
563.00	2373.24
563.35	2359.58
563.71	2345.75
564.06	2331.82
564.42	2318.71
564.77	2305.11
565.12	2291.40
565.48	2277.67
565.83	2263.88
566.19	2250.21
566.54	2236.47
566.89	2221.57
567.25	2206.92
567.60	2193.63
567.96	2179.42
568.31	2163.84
568.66	2148.92
569.02	2135.21
569.37	2121.51
569.72	2108.37
570.08	2093.90
570.43	2079.05
570.78	2064.04
571.14	2048.31
571.49	2033.29
571.84	2018.82
572.20	2003.06
572.55	1987.52
572.90	1971.96
573.26	1956.44
573.61	1940.42
573.96	1924.92
574.31	1909.71
574.67	1894.47
575.02	1878.17
575.37	1861.93
575.72	1846.60
576.08	1831.63
576.43	1815.59
576.78	1799.94
577.13	1784.55
577.49	1769.57
577.84	1755.28
578.19	1740.00
578.54	1724.92
578.90	1709.27
579.25	1693.51
579.60	1679.41
579.95	1665.21
580.30	1650.78
580.66	1636.09
581.01	1621.33
581.36	1606.54
581.71	1592.80
582.06	1578.95
582.42	1565.30
582.77	1551.75
583.12	1538.16
583.47	1524.45
583.82	1510.86
584.17	1496.95
584.53	1482.71
584.88	1468.82
585.23	1454.53
585.58	1441.06
585.93	1427.80
586.28	1415.29
586.63	1402.76
586.98	1389.75
587.34	1376.81
587.69	1363.65
588.04	1350.81
588.39	1338.34
588.74	1326.03
589.09	1313.48
589.44	1300.54
589.79	1288.29
590.14	1276.15
590.49	1263.90
590.84	1251.80
591.19	1240.07
591.54	1228.13
591.89	1216.34
592.25	1204.79
592.60	1192.82
592.95	1181.31
593.30	1170.02
593.65	1158.46
594.00	1147.04
594.35	1136.20
594.70	1124.92
595.05	1114.54
595.40	1104.07
595.75	1093.45
596.10	1083.33
596.45	1072.96
596.80	1062.93
597.15	1052.60
597.50	1042.44
597.85	1032.71
598.19	1022.83
598.54	1013.00
598.89	1003.65
599.24	994.63
599.59	985.37
599.94	977.07
600.29	968.57
600.64	959.82
600.99	950.70
601.34	941.94
601.69	932.83
602.04	924.43
602.39	915.84
602.74	907.31
603.08	898.73
603.43	890.12
603.78	881.69
604.13	873.43
604.48	865.17
604.83	857.11
605.18	848.95
605.53	841.00
605.87	832.88
606.22	825.03
606.57	817.10
606.92	809.16
607.27	801.12
607.62	793.36
607.96	786.03
608.31	779.13
608.66	772.01
609.01	765.21
609.36	758.49
609.70	751.58
610.05	744.63
610.40	737.97
610.75	731.30
611.10	725.00
611.44	718.50
611.79	712.13
612.14	705.68
612.49	699.33
612.83	693.25
613.18	687.31
613.53	681.30
613.88	675.32
614.22	669.70
614.57	664.07
614.92	658.28
615.27	652.58
615.61	646.95
615.96	641.39
616.31	635.80
616.65	630.29
617.00	624.97
617.35	619.76
617.70	614.61
618.04	609.53
618.39	604.36
618.74	599.43
619.08	594.54
619.43	589.78
619.78	585.02
620.12	580.23
620.47	575.58
620.82	571.04
621.16	566.57
621.51	562.00
621.85	557.45
622.20	553.08
622.55	548.75
622.89	544.50
623.24	540.25
623.59	536.04
623.93	531.98
624.28	528.02
624.62	524.15
624.97	520.33
625.32	516.47
625.66	512.57
626.01	508.66
626.35	504.81
626.70	501.00
627.04	497.37
627.39	493.68
627.73	490.16
628.08	486.72
628.43	483.27
628.77	479.89
629.12	476.63
629.46	473.40
629.81	470.09
630.15	466.76
630.50	463.55
630.84	460.40
631.19	457.29
631.53	454.30
631.88	451.26
632.22	448.24
632.57	445.50
632.91	442.80
633.26	440.18
633.60	437.57
633.95	435.03
634.29	432.40
634.64	429.85
634.98	427.10
635.32	424.50
635.67	422.10
636.01	419.63
636.36	417.20
636.70	414.89
637.05	412.59
637.39	410.34
637.73	408.10
638.08	405.97
638.42	403.83
638.77	401.55
639.11	399.22
639.45	396.97
639.80	394.67
640.14	392.48
640.49	390.28
640.83	388.05
641.17	385.93
641.52	383.85
641.86	381.79
642.20	379.94
642.55	377.94
642.89	375.96
643.23	374.07
643.58	372.34
643.92	370.49
644.26	368.70
644.61	366.95
644.95	365.19
645.29	363.35
645.64	361.53
645.98	359.81
646.32	358.21
646.66	356.60
647.01	355.01
647.35	353.46
647.69	351.90
648.04	350.46
648.38	348.95
648.72	347.47
649.06	346.00
649.41	344.52
649.75	343.10
650.09	341.72
650.43	340.33
650.78	338.89
651.12	337.50
651.46	336.16
651.80	334.84
652.14	333.54
652.49	332.30
652.83	331.04
653.17	329.82
653.51	328.63
653.85	327.49
654.20	326.32
654.54	325.08
654.88	323.92
655.22	322.79
655.56	321.66
655.90	320.59
656.25	319.56
656.59	318.50
656.93	317.51
657.27	316.53
657.61	315.51
657.95	314.53
658.29	313.55
658.64	312.62
658.98	311.68
659.32	310.77
659.66	309.92
660.00	309.09
660.34	308.25
660.68	307.39
661.02	306.50
661.36	305.65
661.70	304.84
662.05	304.05
662.39	303.27
662.73	302.56
663.07	301.85
663.41	301.10
663.75	300.36
664.09	299.62
664.43	298.84
664.77	298.14
665.11	297.40
665.45	296.73
665.79	296.07
666.13	295.37
666.47	294.67
666.81	293.95
667.15	293.21
667.49	292.57
667.83	291.99
668.17	291.37
668.51	290.80
668.85	290.25
669.19	289.75
669.53	289.14
669.87	288.52
670.21	287.93
670.55	287.38
670.89	286.91
671.23	286.38
671.57	285.88
671.91	285.42
672.25	284.99
672.58	284.55
672.92	284.03
673.26	283.60
673.60	283.18
673.94	282.76
674.28	282.38
674.62	281.96
674.96	281.50
675.30	281.10
675.64	280.66
675.97	280.21
676.31	279.74
676.65	279.31
676.99	278.96
677.33	278.53
677.67	278.13
678.01	277.67
678.34	277.28
678.68	276.92
679.02	276.49
679.36	276.08
679.70	275.66
680.04	275.30
680.37	274.92
680.71	274.56
681.05	274.21
681.39	273.83
681.73	273.43
682.06	273.05
682.40	272.68
682.74	272.36
683.08	272.09
683.42	271.76
683.75	271.46
684.09	271.08
684.43	270.77
684.77	270.44
685.10	270.16
685.44	269.85
685.78	269.53
686.12	269.25
686.45	268.94
686.79	268.61
687.13	268.32
687.46	268.00
687.80	267.71
688.14	267.37
688.48	267.08
688.81	266.79
689.15	266.53
689.49	266.23
689.82	265.91
690.16	265.55
690.50	265.26
690.83	264.96
691.17	264.66
691.51	264.37
691.84	264.09
692.18	263.78
692.52	263.48
692.85	263.19
693.19	262.94
693.52	262.65
693.86	262.38
694.20	262.10
694.53	261.83
694.87	261.53
695.21	261.25
695.54	260.97
695.88	260.68
696.21	260.37
696.55	260.11
696.88	259.83
697.22	259.57
697.56	259.30
697.89	259.00
698.23	258.74
698.56	258.45
698.90	258.19
699.23	257.90
699.57	257.63
699.90	257.35
700.24	257.05
700.58	256.82
700.91	256.60
701.25	256.45
701.58	256.25
701.92	256.05
702.25	255.82
702.59	255.56
702.92	255.33
703.26	255.08
703.59	254.82
703.93	254.68
704.26	254.45
704.60	254.20
704.93	253.96
705.26	253.71
705.60	253.51
705.93	253.24
706.27	253.05
706.60	252.86
706.94	252.68
707.27	252.42
707.61	252.17
707.94	251.91
708.27	251.55
708.61	251.26
708.94	251.00
709.28	250.77
709.61	250.54
709.94	250.33
710.28	250.12
710.61	249.93
710.95	249.62
711.28	249.48
711.61	249.27
711.95	249.09
712.28	248.87
712.61	248.64
712.95	248.51
713.28	248.36
713.61	248.12
713.95	247.87
714.28	247.68
714.61	247.48
714.95	247.28
715.28	247.09
715.61	246.90
715.95	246.73
716.28	246.54
716.61	246.39
716.95	246.19
717.28	246.00
717.61	245.81
717.94	245.63
718.28	245.35
718.61	245.17
718.94	244.96
719.27	244.79
719.61	244.63
719.94	244.42
720.27	244.16
720.60	243.99
720.94	243.82
721.27	243.65
721.60	243.51
721.93	243.34
722.27	243.21
722.60	243.06
722.93	242.88
723.26	242.71
723.59	242.51
723.93	242.36
724.26	242.21
724.59	242.04
724.92	241.89
725.25	241.79
725.59	241.64
725.92	241.51
726.25	241.36
726.58	241.21
726.91	241.05
727.24	240.93
727.57	240.79
727.91	240.62
728.24	240.51
728.57	240.35
728.90	240.23
729.23	240.05
729.56	239.96
729.89	239.82
730.22	239.67
730.55	239.54
730.89	239.41
731.22	239.27
731.55	239.14
731.88	239.00
732.21	238.85
732.54	238.72
732.87	238.59
733.20	238.47
733.53	238.35
733.86	238.24
734.19	238.10
734.52	238.00
734.85	237.97
735.18	237.82
735.51	237.74
735.84	237.63
736.17	237.55
736.50	237.37
736.83	237.41
737.16	237.31
737.49	237.21
737.82	237.10
738.15	237.01
738.48	236.91
738.81	236.79
739.14	236.68
739.47	236.56
739.80	236.45
740.13	236.35
740.46	236.22
740.79	236.10
741.12	235.99
741.45	235.86
741.78	235.69
742.11	235.62
742.44	235.49
742.77	235.40
743.10	235.28
743.43	235.18
743.75	234.94
744.08	235.04
744.41	234.94
744.74	234.83
745.07	234.71
745.40	234.64
745.73	234.61
746.06	234.52
746.39	234.45
746.71	234.36
747.04	234.26
747.37	234.18
747.70	234.12
748.03	234.04
748.36	233.98
748.68	233.90
749.01	233.78
749.34	233.70
749.67	233.62
750.00	233.56
750.33	233.57
750.65	233.50
750.98	233.23
751.31	233.16
751.64	233.09
751.97	233.09
752.29	233.00
752.62	232.86
752.95	232.78
753.28	232.69
753.60	232.61
753.93	232.56
754.26	232.50
754.59	232.38
754.91	232.30
755.24	232.21
755.57	232.19
755.90	232.12
756.22	232.04
756.55	231.95
756.88	231.85
757.20	231.69
757.53	231.59
757.86	231.51
758.19	231.46
758.51	231.38
758.84	231.25
759.17	231.17
759.49	231.11
759.82	231.11
760.15	231.06
760.47	231.00
760.80	230.90
761.13	230.86
761.45	230.80
761.78	230.75
762.11	230.69
762.43	230.57
762.76	230.51
763.08	230.47
763.41	230.43
763.74	230.38
764.06	230.33
764.39	230.29
764.71	230.24
765.04	230.17
765.37	230.11
765.69	230.07
766.02	230.02
766.34	229.96
766.67	229.87
767.00	229.84
767.32	229.86
767.65	229.90
767.97	229.84
768.30	229.80
768.62	229.76
768.95	229.70
769.27	229.65
769.60	229.62
769.92	229.56
770.25	229.50
770.57	229.43
770.90	229.39
771.22	229.34
771.55	229.30
771.87	229.27
772.20	229.23
772.52	229.30
772.85	229.41
773.17	229.38
773.50	229.34
773.82	229.28
774.15	229.18
774.47	229.06
774.80	229.02
775.12	228.98
775.45	228.94
775.77	228.92
776.09	228.90
776.42	228.87
776.74	228.88
777.07	228.84
777.39	228.82
777.72	228.79
778.04	228.77
778.36	228.74
778.69	228.71
779.01	228.69
779.33	228.55
779.66	228.38
779.98	228.34
780.31	228.32
780.63	228.35
780.95	228.34
781.28	228.32
781.60	228.29
781.92	228.26
782.25	228.24
782.57	228.21
782.89	228.18
783.22	228.14
783.54	228.09
783.86	228.08
784.19	228.05
784.51	228.06
784.83	228.02
785.16	228.00
785.48	227.98
785.80	227.95
786.12	227.94
786.45	227.92
786.77	227.91
787.09	227.88
787.42	227.81
787.74	227.79
788.06	227.77
788.38	227.75
788.71	227.72
789.03	227.71
789.35	227.71
789.67	227.67
789.99	227.66
790.32	227.63
790.64	227.63
790.96	227.73
791.28	227.66
791.61	227.64
791.93	227.63
792.25	227.60
792.57	227.67
792.89	227.63
793.21	227.62
793.54	227.60
793.86	227.57
794.18	227.56
794.50	227.52
794.82	227.50
795.14	227.50
795.47	227.51
795.79	227.49
796.11	227.44
796.43	227.43
796.75	227.41
797.07	227.40
797.39	227.38
797.71	227.26
798.04	227.26
798.36	227.25
798.68	227.23
799.00	227.23
799.32	227.15
799.64	227.16
799.96	227.14
800.28	227.15
800.60	227.13
800.92	227.12
801.24	227.11
801.56	227.10
801.89	227.08
802.21	227.07
802.53	227.03
802.85	227.05
803.17	227.10
803.49	227.06
803.81	227.04
804.13	227.01
804.45	226.99
804.77	226.98
805.09	226.97
805.41	226.95
805.73	226.91
806.05	226.86
806.37	226.84
806.69	226.82
807.01	226.79
807.33	226.79
807.65	226.74
807.97	226.78
808.28	226.76
808.60	226.74
808.92	226.71
809.24	226.78
809.56	226.75
809.88	226.69
810.20	226.69
810.52	226.71
810.84	226.68
811.16	226.66
811.48	226.64
811.80	226.67
812.12	226.66
812.43	226.68
812.75	226.68
813.07	226.66
813.39	226.66
813.71	226.64
814.03	226.61
814.35	226.61
814.67	226.55
814.98	226.53
815.30	226.52
815.62	226.49
815.94	226.40
816.26	226.40
816.58	226.37
816.89	226.37
817.21	226.33
817.53	226.33
817.85	226.33
818.17	226.32
818.48	226.26
818.80	226.28
819.12	226.25
819.44	226.22
819.76	226.20
820.07	226.19
820.39	226.18
820.71	226.18
821.03	226.18
821.34	226.16
821.66	226.17
821.98	226.18
822.30	226.17
822.61	226.24
822.93	226.22
823.25	226.21
823.57	226.19
823.88	226.20
824.20	226.19
824.52	226.20
824.83	226.19
825.15	226.18
825.47	226.16
825.79	226.17
826.10	226.16
826.42	226.15
826.74	226.15
827.05	226.15
827.37	226.14
827.69	226.13
828.00	226.13
828.32	226.12
828.64	226.10
828.95	226.16
829.27	226.12
829.58	226.12
829.90	226.13
830.22	226.14
830.53	226.11
830.85	226.10
831.17	226.06
831.48	226.06
831.80	226.06
832.11	226.05
832.43	226.02
832.75	226.02
833.06	226.09
833.38	226.05
833.69	226.04
834.01	226.04
834.32	226.03
834.64	226.01
834.96	226.01
835.27	226.00
835.59	225.95
835.90	225.93
836.22	225.93
836.53	225.89
836.85	225.88
837.16	226.00
837.48	226.00
837.79	226.04
838.11	226.04
838.42	226.03
838.74	226.04
839.05	226.03
839.37	226.03
839.68	225.94
840.00	225.94
840.31	225.96
840.63	225.94
840.94	225.93
841.26	225.92
841.57	225.91
841.88	225.92
842.20	225.90
842.51	225.88
842.83	225.87
843.14	225.98
843.46	225.98
843.77	225.90
844.08	225.89
844.40	225.85
844.71	225.83
845.03	225.82
845.34	225.81
845.65	225.80
845.97	225.80
846.28	225.81
846.60	225.81
846.91	225.79
847.22	225.78
847.54	225.81
847.85	225.81
848.16	225.79
848.48	225.77
848.79	225.81
849.10	225.83
849.42	225.83
849.73	225.71
850.04	225.71
850.36	225.66
850.67	225.68
850.98	225.69
851.30	225.69
851.61	225.69
851.92	225.68
852.23	225.72
852.55	225.73
852.86	225.73
853.17	225.74
853.49	225.76
853.80	225.79
854.11	225.79
854.42	225.81
854.74	225.80
855.05	225.80
855.36	225.74
855.67	225.74
855.99	225.74
856.30	225.89
856.61	225.88
856.92	225.89
857.23	225.89
857.55	225.87
857.86	225.86
858.17	225.88
858.48	225.86
858.79	225.83
859.11	225.84
859.42	225.83
859.73	225.81
860.04	225.80
860.35	225.76
860.66	225.72
860.98	225.71
861.29	225.73
861.60	225.72
861.91	225.74
862.22	225.72
862.53	225.70
862.84	225.55
863.16	225.58
863.47	225.55
863.78	225.53
864.09	225.54
864.40	225.55
864.71	225.55
865.02	225.56
865.33	225.55
865.64	225.52
865.95	225.52
866.27	225.60
866.58	225.59
866.89	225.60
867.20	225.60
867.51	225.58
867.82	225.57
868.13	225.61
868.44	225.58
868.75	225.60
869.06	225.61
869.37	225.62
869.68	225.58
869.99	225.61
870.30	225.62
870.61	225.63
870.92	225.61
871.23	225.59
871.54	225.61
871.85	225.64
872.16	225.65
872.47	225.64
872.78	225.57
873.09	225.58
873.40	225.57
873.71	225.58
874.02	225.59
874.33	225.58
874.64	225.54
874.95	225.57
875.26	225.54
875.56	225.53
875.87	225.53
876.18	225.52
876.49	225.64
876.80	225.63
877.11	225.60
877.42	225.61
877.73	225.61
878.04	225.59
878.35	225.58
878.66	225.58
878.96	225.58
879.27	225.58
879.58	225.57
879.89	225.56
880.20	225.60
880.51	225.59
880.82	225.59
881.12	225.60
881.43	225.57
881.74	225.56
882.05	225.56
882.36	225.56
882.67	225.57
882.97	225.43
883.28	225.42
883.59	225.42
883.90	225.43
884.21	225.44
884.51	225.44
884.82	225.42
885.13	225.42
885.44	225.41
885.74	225.41
886.05	225.40
886.36	225.41
886.67	225.36
886.98	225.42
887.28	225.43
887.59	225.42
887.90	225.43
888.20	225.43
888.51	225.45
888.82	225.42
889.13	225.43
889.43	225.55
889.74	225.54
890.05	225.54
890.35	225.52
890.66	225.50
890.97	225.49
891.28	225.48
891.58	225.48
891.89	225.48
892.20	225.46
892.50	225.45
892.81	225.44
893.12	225.45
893.42	225.38
893.73	225.38
894.04	225.38
894.34	225.39
894.65	225.38
894.95	225.37
895.26	225.38
895.57	225.43
895.87	225.30
896.18	225.32
896.48	225.33
896.79	225.33
897.10	225.35
897.40	225.35
897.71	225.37
898.01	225.36
898.32	225.37
898.63	225.37
898.93	225.38
899.24	225.38
899.54	225.38
899.85	225.38
900.15	225.37
900.46	225.37
900.76	225.37
901.07	225.37
901.38	225.37
901.68	225.38
901.99	225.32
902.29	225.33
902.60	225.31
902.90	225.30
903.21	225.30
903.51	225.28
903.82	225.31
904.12	225.31
904.43	225.31
904.73	225.31
905.03	225.31
905.34	225.43
905.64	225.42
905.95	225.43
906.25	225.42
906.56	225.42
906.86	225.42
907.17	225.41
907.47	225.41
907.77	225.40
908.08	225.37
908.38	225.38
908.69	225.39
908.99	225.41
909.30	225.42
909.60	225.42
909.90	225.42
910.21	225.38
910.51	225.36
910.81	225.36
911.12	225.36
911.42	225.36
911.73	225.23
912.03	225.24
912.33	225.26
912.64	225.26
912.94	225.25
913.24	225.23
913.55	225.22
913.85	225.21
914.15	225.24
914.46	225.25
914.76	225.24
915.06	225.23
915.37	225.21
915.67	225.20
915.97	225.20
916.27	225.18
916.58	225.19
916.88	225.19
917.18	225.18
917.49	225.26
917.79	225.25
918.09	225.27
918.39	225.30
918.70	225.29
919.00	225.30
919.30	225.35
919.60	225.35
919.91	225.34
920.21	225.34
920.51	225.32
920.81	225.30
921.12	225.33
921.42	225.32
921.72	225.33
922.02	225.34
922.32	225.36
922.63	225.36
922.93	225.43
923.23	225.44
923.53	225.43
923.83	225.34
924.13	225.36
924.44	225.35
924.74	225.37
925.04	225.40
925.34	225.39
925.64	225.34
925.94	225.34
926.24	225.41
926.55	225.40
926.85	225.42
927.15	225.42
927.45	225.41
927.75	225.41
928.05	225.41
928.35	225.40
928.65	225.42
928.95	225.43
929.26	225.37
929.56	225.39
929.86	225.40
930.16	225.39
930.46	225.38
930.76	225.38
931.06	225.33
931.36	225.29
931.66	225.31
931.96	225.33
932.26	225.33
932.56	225.27
932.86	225.28
933.16	225.28
933.46	225.27
933.76	225.25
934.06	225.27
934.36	225.31
934.66	225.31
934.96	225.29
935.26	225.29
935.56	225.31
935.86	225.28
936.16	225.26
936.46	225.25
936.76	225.25
937.06	225.23
937.36	225.24
937.66	225.25
937.96	225.24
938.26	225.21
938.56	225.20
938.86	225.21
939.16	225.24
939.46	225.25
939.76	225.26
940.06	225.26
940.35	225.23
940.65	225.17
940.95	225.18
941.25	225.15
941.55	225.13
941.85	225.12
942.15	225.15
942.45	225.18
942.75	225.19
943.04	225.19
943.34	225.21
943.64	225.20
943.94	225.18
944.24	225.18
944.54	225.19
944.84	225.19
945.13	225.17
945.43	225.15
945.73	225.14
946.03	225.13
946.33	225.12
946.62	225.10
946.92	225.11
947.22	225.11
947.52	225.12
947.82	225.14
948.11	225.12
948.41	225.09
948.71	225.06
949.01	225.07
949.31	225.06
949.60	225.05
949.90	225.07
950.20	225.07
950.50	225.06
950.79	225.05
951.09	225.07
951.39	225.07
951.69	225.06
951.98	225.08
952.28	225.09
952.58	225.09
952.87	225.09
953.17	225.11
953.47	225.09
953.76	225.09
954.06	225.07
954.36	225.05
954.66	225.06
954.95	225.09
955.25	225.09
955.55	225.11
955.84	225.09
956.14	225.09
956.44	225.10
956.73	225.08
957.03	225.09
957.32	225.09
957.62	225.08
957.92	225.11
958.21	225.09
958.51	225.24
958.81	225.25
959.10	225.27
959.40	225.29
959.69	225.30
959.99	225.32
960.29	225.33
960.58	225.32
960.88	225.37
961.17	225.35
961.47	225.36
961.76	225.35
962.06	225.37
962.36	225.35
962.65	225.36
962.95	225.37
963.24	225.36
963.54	225.36
963.83	225.37
964.13	225.36
964.42	225.35
964.72	225.24
965.01	225.24
965.31	225.23
965.60	225.19
965.90	225.27
966.19	225.24
966.49	225.25
966.78	225.24
967.08	225.23
967.37	225.23
967.67	225.21
967.96	225.23
968.26	225.23
968.55	225.25
968.85	225.24
969.14	225.24
969.43	225.24
969.73	225.22
970.02	225.22
970.32	225.21
970.61	225.19
970.91	225.15
971.20	225.13
971.49	225.12
971.79	225.14
972.08	225.05
972.38	225.06
972.67	225.06
972.96	225.08
973.26	225.05
973.55	225.09
973.85	225.08
974.14	225.07
974.43	225.08
974.73	225.05
975.02	225.04
975.31	225.04
975.61	225.04
975.90	225.03
976.19	225.02
976.49	225.03
976.78	225.04
977.07	225.04
977.37	225.05
977.66	225.06
977.95	225.04
978.24	225.06
978.54	225.08
978.83	225.07
979.12	225.06
979.42	225.06
979.71	225.03
980.00	225.03
980.29	225.04
980.59	225.01
980.88	225.05
981.17	225.05
981.46	225.05
981.76	225.05
982.05	225.09
982.34	225.11
982.63	225.10
982.93	225.10
983.22	225.13
983.51	225.14
983.80	225.16
984.09	225.17
984.39	225.16
984.68	225.15
984.97	225.16
985.26	225.15
985.55	225.16
985.85	225.14
986.14	225.15
986.43	225.17
986.72	225.16
987.01	225.12
987.30	225.12
987.59	225.12
987.89	225.12
988.18	225.08
988.47	225.07
988.76	225.06
989.05	225.05
989.34	225.03
989.63	225.06
989.92	225.04
990.22	225.02
990.51	225.02
990.80	225.00
991.09	225.01
991.38	225.03
991.67	225.02
991.96	225.01
992.25	225.01
992.54	224.99
992.83	224.99
993.12	224.99
993.41	225.01
993.70	225.06
993.99	225.08
994.28	225.10
994.58	225.12
994.87	225.11
995.16	225.11
995.45	225.10
995.74	225.05
996.03	225.07
996.32	225.09
996.61	225.12
996.90	225.12
997.19	225.11
997.48	225.11
997.77	225.10
998.06	225.11
998.34	225.10
998.63	225.10
998.92	225.10
999.21	225.12
999.50	225.11
999.79	225.07
1000.08	225.07
1000.37	225.07
1000.66	225.04
1000.95	225.08
1001.24	225.09
1001.53	225.11
1001.82	225.11
1002.11	225.07
1002.40	225.08
1002.68	225.11
1002.97	225.20
1003.26	225.19
1003.55	225.17
1003.84	225.18
1004.13	225.22
1004.42	225.22
1004.71	225.22
1004.99	225.21
1005.28	225.23
1005.57	225.22
1005.86	225.21
1006.15	225.20
1006.44	225.18
1006.72	225.20
1007.01	225.17
1007.30	225.17
1007.59	225.16
1007.88	225.16
1008.17	225.17
1008.45	225.14
1008.74	225.09
1009.03	225.03
1009.32	225.03
1009.60	225.03
1009.89	225.02
1010.18	224.97
1010.47	224.96
1010.76	224.96
1011.04	224.96
1011.33	224.95
1011.62	224.96
1011.91	224.97
1012.19	224.98
1012.48	224.99
1012.77	224.98
1013.05	225.02
1013.34	225.02
1013.63	225.02
1013.92	225.02
1014.20	225.01
1014.49	225.02
1014.78	225.03
1015.06	224.99
1015.35	224.99
1015.64	225.01
1015.92	225.03
1016.21	225.04
1016.50	225.04
1016.78	225.06
1017.07	225.07
1017.36	225.05
1017.64	225.03
1017.93	225.04
1018.22	225.02
1018.50	225.02
1018.79	225.02
1019.08	224.97
1019.36	224.98
1019.65	224.97
1019.93	225.00
1020.22	225.02
1020.51	225.09
1020.79	225.07
1021.08	224.83
1021.36	224.79
1021.65	225.00
1021.94	224.98
1022.22	225.14
1022.51	224.73
1022.79	225.59
1023.08	225.21
1023.36	226.53
1023.65	224.70
>>>>>End Processed Spectral Data<<<<<
