SpectraSuite Data File
++++++++++++++++++++++++++++++++++++
Date: Sat Oct 03 04:20:39 EDT 2015
User: lab3
Dark Spectrum Present: No
Reference Spectrum Present: No
Number of Sampled Component Spectra: 1
Spectrometers: USB2E7196
Integration Time (usec): 46000 (USB2E7196)
Spectra Averaged: 12000 (USB2E7196)
Boxcar Smoothing: 10 (USB2E7196)
Correct for Electrical Dark: No (USB2E7196)
Strobe/Lamp Enabled: No (USB2E7196)
Correct for Detector Non-linearity: No (USB2E7196)
Correct for Stray Light: No (USB2E7196)
Number of Pixels in Processed Spectrum: 2048
>>>>>Begin Processed Spectral Data<<<<<
339.09	0.00
339.48	213.60
339.86	215.02
340.24	216.40
340.63	217.86
341.01	221.10
341.39	220.51
341.78	221.92
342.16	223.12
342.54	223.57
342.93	212.04
343.31	222.75
343.69	223.28
344.07	223.75
344.46	224.18
344.84	224.56
345.22	224.78
345.60	225.04
345.99	225.23
346.37	225.37
346.75	225.48
347.13	225.55
347.52	225.62
347.90	225.71
348.28	225.74
348.66	225.80
349.05	225.80
349.43	225.85
349.81	225.91
350.19	225.96
350.57	226.03
350.96	226.11
351.34	226.20
351.72	226.30
352.10	226.40
352.48	226.47
352.87	226.52
353.25	226.59
353.63	226.65
354.01	226.71
354.39	226.79
354.77	226.86
355.15	226.97
355.54	227.02
355.92	227.04
356.30	227.12
356.68	227.27
357.06	227.34
357.44	227.39
357.82	227.45
358.20	227.56
358.58	227.62
358.97	227.69
359.35	227.77
359.73	227.85
360.11	227.90
360.49	227.96
360.87	228.02
361.25	228.08
361.63	228.17
362.01	228.22
362.39	228.24
362.77	228.29
363.15	228.31
363.53	228.35
363.91	228.39
364.29	228.41
364.67	228.31
365.05	228.33
365.43	228.37
365.81	228.40
366.19	228.42
366.57	228.47
366.95	228.48
367.33	228.45
367.71	228.44
368.09	228.46
368.47	228.46
368.85	228.45
369.23	228.46
369.61	228.39
369.99	228.42
370.37	228.42
370.75	228.50
371.13	228.46
371.51	228.42
371.89	228.40
372.27	228.38
372.65	228.36
373.03	228.32
373.41	228.28
373.78	228.23
374.16	228.13
374.54	228.05
374.92	228.00
375.30	227.96
375.68	227.89
376.06	227.84
376.44	227.79
376.82	227.75
377.19	227.70
377.57	227.65
377.95	227.56
378.33	227.50
378.71	227.34
379.09	227.30
379.47	227.27
379.84	227.20
380.22	227.14
380.60	227.07
380.98	227.03
381.36	226.98
381.73	226.92
382.11	226.90
382.49	226.85
382.87	226.79
383.25	226.75
383.62	226.85
384.00	226.79
384.38	226.74
384.76	226.73
385.13	226.72
385.51	226.69
385.89	226.64
386.27	226.61
386.64	226.59
387.02	226.54
387.40	226.49
387.78	226.47
388.15	226.44
388.53	226.41
388.91	226.38
389.29	226.34
389.66	226.34
390.04	226.30
390.42	226.29
390.79	226.28
391.17	226.26
391.55	226.11
391.92	226.09
392.30	226.09
392.68	226.05
393.05	226.03
393.43	226.03
393.81	226.04
394.18	226.01
394.56	226.02
394.94	226.05
395.31	226.05
395.69	226.10
396.06	226.13
396.44	226.15
396.82	226.17
397.19	226.25
397.57	226.27
397.95	226.31
398.32	226.31
398.70	226.35
399.07	226.42
399.45	226.46
399.82	226.50
400.20	226.54
400.58	226.60
400.95	226.61
401.33	226.69
401.70	226.85
402.08	226.95
402.45	227.04
402.83	227.15
403.20	227.27
403.58	227.36
403.95	227.50
404.33	227.65
404.71	227.79
405.08	228.00
405.46	228.17
405.83	228.35
406.21	228.55
406.58	228.77
406.96	228.98
407.33	229.24
407.70	229.52
408.08	229.91
408.45	230.24
408.83	230.61
409.20	230.94
409.58	231.23
409.95	231.64
410.33	232.08
410.70	232.49
411.08	232.99
411.45	233.51
411.82	234.03
412.20	234.63
412.57	235.35
412.95	235.90
413.32	236.64
413.69	237.39
414.07	238.19
414.44	239.05
414.82	239.94
415.19	240.97
415.56	242.02
415.94	243.10
416.31	244.32
416.68	245.54
417.06	246.96
417.43	248.28
417.81	249.81
418.18	251.36
418.55	253.06
418.93	254.82
419.30	256.67
419.67	258.62
420.04	260.63
420.42	262.72
420.79	265.15
421.16	267.60
421.54	270.08
421.91	272.68
422.28	275.37
422.66	278.26
423.03	281.04
423.40	283.94
423.77	287.05
424.15	290.24
424.52	293.56
424.89	297.16
425.26	300.73
425.64	304.05
426.01	307.79
426.38	311.62
426.75	315.55
427.13	319.59
427.50	323.81
427.87	328.21
428.24	332.65
428.61	336.91
428.99	341.52
429.36	346.57
429.73	351.41
430.10	356.24
430.47	361.20
430.85	366.29
431.22	371.76
431.59	377.38
431.96	382.86
432.33	388.96
432.70	394.77
433.08	401.61
433.45	408.09
433.82	414.47
434.19	421.58
434.56	428.61
434.93	435.40
435.30	442.11
435.68	449.68
436.05	457.11
436.42	464.50
436.79	471.26
437.16	478.54
437.53	486.34
437.90	494.15
438.27	501.79
438.64	510.05
439.01	517.53
439.38	524.37
439.75	530.96
440.13	538.38
440.50	545.43
440.87	551.03
441.24	557.16
441.61	563.85
441.98	568.71
442.35	574.48
442.72	580.36
443.09	585.97
443.46	589.49
443.83	592.06
444.20	594.18
444.57	597.38
444.94	599.16
445.31	601.01
445.68	602.56
446.05	603.67
446.42	603.20
446.79	602.54
447.16	601.96
447.53	601.41
447.90	598.91
448.27	596.52
448.64	592.96
449.01	590.44
449.37	585.55
449.74	581.12
450.11	575.44
450.48	569.24
450.85	563.05
451.22	557.75
451.59	552.58
451.96	547.90
452.33	541.14
452.70	535.14
453.07	527.83
453.43	520.54
453.80	513.48
454.17	506.71
454.54	500.50
454.91	493.47
455.28	486.89
455.65	480.70
456.02	474.18
456.38	468.93
456.75	462.17
457.12	456.73
457.49	451.24
457.86	446.08
458.23	441.58
458.59	436.58
458.96	431.45
459.33	426.94
459.70	422.35
460.07	418.88
460.43	414.78
460.80	410.96
461.17	407.65
461.54	404.05
461.91	400.69
462.27	397.27
462.64	394.52
463.01	391.34
463.38	388.14
463.74	385.24
464.11	382.70
464.48	380.42
464.85	377.92
465.21	376.05
465.58	373.94
465.95	371.51
466.32	369.59
466.68	367.71
467.05	365.81
467.42	363.96
467.78	361.95
468.15	360.10
468.52	358.76
468.88	356.94
469.25	355.28
469.62	353.97
469.98	352.53
470.35	351.25
470.72	350.09
471.08	348.91
471.45	347.92
471.82	346.81
472.18	345.63
472.55	344.87
472.92	343.91
473.28	343.16
473.65	342.35
474.02	341.57
474.38	340.92
474.75	340.53
475.11	340.00
475.48	339.74
475.85	339.46
476.21	339.31
476.58	339.20
476.94	339.32
477.31	339.37
477.67	339.44
478.04	339.63
478.41	339.91
478.77	340.32
479.14	340.57
479.50	341.07
479.87	341.72
480.23	342.36
480.60	343.00
480.96	343.65
481.33	344.62
481.69	345.59
482.06	346.55
482.42	347.43
482.79	348.52
483.15	349.80
483.52	351.24
483.88	352.63
484.25	354.12
484.61	355.67
484.98	357.35
485.34	359.24
485.71	361.20
486.07	363.31
486.44	365.41
486.80	367.76
487.17	370.20
487.53	372.88
487.90	375.67
488.26	378.72
488.62	381.93
488.99	385.15
489.35	388.53
489.72	392.19
490.08	396.05
490.44	400.04
490.81	404.19
491.17	408.45
491.54	413.03
491.90	417.74
492.26	422.80
492.63	428.08
492.99	433.60
493.36	439.32
493.72	445.34
494.08	451.49
494.45	458.04
494.81	464.84
495.17	471.81
495.54	479.18
495.90	486.85
496.26	494.70
496.63	502.78
496.99	511.18
497.35	519.98
497.72	529.07
498.08	538.36
498.44	547.96
498.80	558.14
499.17	568.57
499.53	579.34
499.89	590.47
500.26	601.84
500.62	613.49
500.98	625.77
501.34	638.25
501.71	651.24
502.07	664.40
502.43	678.09
502.79	692.03
503.16	706.44
503.52	721.04
503.88	736.06
504.24	751.55
504.60	767.24
504.97	783.41
505.33	800.00
505.69	817.49
506.05	835.33
506.41	853.12
506.78	871.09
507.14	889.55
507.50	908.48
507.86	927.73
508.22	947.25
508.59	966.59
508.95	986.73
509.31	1007.60
509.67	1029.19
510.03	1050.80
510.39	1072.43
510.75	1094.26
511.12	1116.37
511.48	1138.67
511.84	1161.02
512.20	1183.76
512.56	1207.36
512.92	1230.99
513.28	1254.26
513.64	1277.77
514.00	1301.74
514.37	1326.05
514.73	1350.33
515.09	1374.49
515.45	1398.97
515.81	1423.65
516.17	1448.45
516.53	1472.82
516.89	1497.07
517.25	1521.46
517.61	1545.75
517.97	1570.54
518.33	1594.84
518.69	1619.06
519.05	1643.72
519.41	1668.64
519.77	1693.88
520.13	1718.35
520.49	1742.74
520.85	1767.44
521.21	1791.78
521.57	1816.46
521.93	1840.63
522.29	1865.34
522.65	1889.51
523.01	1913.66
523.37	1937.41
523.73	1961.87
524.09	1986.05
524.45	2010.05
524.81	2033.66
525.17	2057.13
525.53	2080.01
525.89	2103.36
526.25	2126.67
526.61	2149.02
526.97	2171.53
527.33	2193.87
527.68	2216.02
528.04	2237.39
528.40	2257.86
528.76	2278.45
529.12	2298.65
529.48	2318.60
529.84	2336.69
530.20	2355.37
530.56	2373.47
530.91	2391.72
531.27	2409.62
531.63	2426.67
531.99	2443.22
532.35	2459.16
532.71	2475.26
533.07	2492.02
533.42	2506.95
533.78	2522.85
534.14	2538.93
534.50	2554.13
534.86	2569.10
535.21	2582.15
535.57	2595.68
535.93	2608.97
536.29	2621.22
536.65	2633.21
537.00	2644.46
537.36	2656.68
537.72	2667.55
538.08	2677.88
538.44	2687.51
538.79	2696.79
539.15	2705.25
539.51	2713.42
539.87	2720.94
540.22	2726.40
540.58	2731.89
540.94	2738.53
541.29	2743.71
541.65	2747.18
542.01	2749.78
542.37	2751.73
542.72	2755.03
543.08	2756.63
543.44	2758.86
543.79	2759.99
544.15	2760.29
544.51	2760.99
544.87	2760.54
545.22	2759.42
545.58	2757.64
545.94	2755.79
546.29	2752.66
546.65	2749.51
547.01	2746.19
547.36	2743.58
547.72	2741.25
548.07	2737.15
548.43	2731.66
548.79	2725.12
549.14	2719.80
549.50	2714.88
549.86	2709.03
550.21	2702.01
550.57	2695.94
550.92	2687.61
551.28	2679.77
551.64	2672.31
551.99	2664.39
552.35	2655.88
552.70	2647.53
553.06	2639.55
553.41	2630.99
553.77	2622.15
554.13	2613.26
554.48	2603.63
554.84	2592.69
555.19	2582.14
555.55	2571.67
555.90	2561.26
556.26	2551.42
556.61	2540.53
556.97	2527.98
557.32	2515.96
557.68	2503.88
558.03	2491.47
558.39	2480.28
558.74	2469.43
559.10	2456.81
559.45	2444.38
559.81	2432.58
560.16	2420.21
560.52	2408.01
560.87	2396.17
561.23	2383.56
561.58	2370.98
561.94	2358.07
562.29	2344.66
562.64	2331.95
563.00	2318.94
563.35	2306.29
563.71	2293.50
564.06	2280.59
564.42	2268.39
564.77	2255.57
565.12	2242.65
565.48	2229.75
565.83	2216.78
566.19	2203.95
566.54	2191.13
566.89	2177.15
567.25	2163.29
567.60	2150.78
567.96	2137.37
568.31	2122.62
568.66	2108.55
569.02	2095.71
569.37	2082.76
569.72	2070.31
570.08	2056.61
570.43	2042.58
570.78	2028.42
571.14	2013.51
571.49	1999.20
571.84	1985.43
572.20	1970.51
572.55	1955.76
572.90	1941.00
573.26	1926.21
573.61	1910.96
573.96	1896.12
574.31	1881.53
574.67	1867.02
575.02	1851.44
575.37	1835.95
575.72	1821.27
576.08	1806.97
576.43	1791.52
576.78	1776.46
577.13	1761.69
577.49	1747.26
577.84	1733.46
578.19	1718.71
578.54	1704.11
578.90	1689.06
579.25	1673.89
579.60	1660.27
579.95	1646.61
580.30	1632.74
580.66	1618.63
581.01	1604.37
581.36	1590.06
581.71	1576.77
582.06	1563.43
582.42	1550.28
582.77	1537.22
583.12	1524.12
583.47	1510.85
583.82	1497.72
584.17	1484.27
584.53	1470.47
584.88	1457.06
585.23	1443.20
585.58	1430.13
585.93	1417.28
586.28	1405.20
586.63	1393.10
586.98	1380.56
587.34	1368.06
587.69	1355.20
588.04	1342.72
588.39	1330.62
588.74	1318.71
589.09	1306.57
589.44	1293.94
589.79	1281.98
590.14	1270.13
590.49	1258.19
590.84	1246.46
591.19	1235.08
591.54	1223.50
591.89	1212.08
592.25	1200.82
592.60	1189.21
592.95	1178.02
593.30	1167.05
593.65	1155.74
594.00	1144.61
594.35	1133.98
594.70	1122.92
595.05	1112.79
595.40	1102.56
595.75	1092.18
596.10	1082.31
596.45	1072.17
596.80	1062.40
597.15	1052.33
597.50	1042.42
597.85	1032.97
598.19	1023.31
598.54	1013.67
598.89	1004.51
599.24	995.68
599.59	986.64
599.94	978.53
600.29	970.22
600.64	961.63
600.99	952.69
601.34	944.08
601.69	935.16
602.04	926.92
602.39	918.51
602.74	910.13
603.08	901.73
603.43	893.27
603.78	885.00
604.13	876.87
604.48	868.79
604.83	860.86
605.18	852.82
605.53	844.95
605.87	836.92
606.22	829.18
606.57	821.38
606.92	813.53
607.27	805.59
607.62	797.93
607.96	790.70
608.31	783.92
608.66	776.91
609.01	770.19
609.36	763.57
609.70	756.75
610.05	749.89
610.40	743.30
610.75	736.71
611.10	730.46
611.44	724.03
611.79	717.73
612.14	711.34
612.49	705.04
612.83	699.05
613.18	693.19
613.53	687.22
613.88	681.28
614.22	675.73
614.57	670.15
614.92	664.44
615.27	658.81
615.61	653.22
615.96	647.72
616.31	642.21
616.65	636.75
617.00	631.50
617.35	626.37
617.70	621.28
618.04	616.26
618.39	611.15
618.74	606.30
619.08	601.47
619.43	596.78
619.78	592.10
620.12	587.37
620.47	582.80
620.82	578.36
621.16	573.96
621.51	569.43
621.85	564.93
622.20	560.59
622.55	556.29
622.89	552.09
623.24	547.87
623.59	543.70
623.93	539.69
624.28	535.76
624.62	531.93
624.97	528.14
625.32	524.33
625.66	520.46
626.01	516.55
626.35	512.73
626.70	508.95
627.04	505.36
627.39	501.70
627.73	498.21
628.08	494.80
628.43	491.37
628.77	488.04
629.12	484.83
629.46	481.65
629.81	478.38
630.15	475.08
630.50	471.90
630.84	468.77
631.19	465.71
631.53	462.75
631.88	459.76
632.22	456.79
632.57	454.10
632.91	451.46
633.26	448.90
633.60	446.35
633.95	443.86
634.29	441.29
634.64	438.79
634.98	436.10
635.32	433.56
635.67	431.21
636.01	428.79
636.36	426.42
636.70	424.18
637.05	421.94
637.39	419.74
637.73	417.57
638.08	415.51
638.42	413.41
638.77	411.19
639.11	408.90
639.45	406.71
639.80	404.44
640.14	402.30
640.49	400.14
640.83	397.97
641.17	395.87
641.52	393.83
641.86	391.81
642.20	390.00
642.55	388.02
642.89	386.07
643.23	384.22
643.58	382.52
643.92	380.70
644.26	378.94
644.61	377.25
644.95	375.51
645.29	373.69
645.64	371.90
645.98	370.21
646.32	368.64
646.66	367.04
647.01	365.48
647.35	363.94
647.69	362.40
648.04	360.99
648.38	359.50
648.72	358.04
649.06	356.58
649.41	355.12
649.75	353.73
650.09	352.36
650.43	350.98
650.78	349.55
651.12	348.17
651.46	346.83
651.80	345.52
652.14	344.24
652.49	343.02
652.83	341.77
653.17	340.56
653.51	339.38
653.85	338.27
654.20	337.11
654.54	335.87
654.88	334.72
655.22	333.58
655.56	332.45
655.90	331.37
656.25	330.33
656.59	329.28
656.93	328.28
657.27	327.29
657.61	326.26
657.95	325.26
658.29	324.26
658.64	323.31
658.98	322.35
659.32	321.42
659.66	320.54
660.00	319.68
660.34	318.81
660.68	317.92
661.02	317.00
661.36	316.11
661.70	315.27
662.05	314.45
662.39	313.64
662.73	312.91
663.07	312.18
663.41	311.39
663.75	310.62
664.09	309.84
664.43	309.03
664.77	308.31
665.11	307.54
665.45	306.85
665.79	306.15
666.13	305.42
666.47	304.68
666.81	303.93
667.15	303.15
667.49	302.47
667.83	301.86
668.17	301.21
668.51	300.60
668.85	300.03
669.19	299.49
669.53	298.85
669.87	298.19
670.21	297.56
670.55	296.97
670.89	296.46
671.23	295.90
671.57	295.35
671.91	294.84
672.25	294.37
672.58	293.89
672.92	293.32
673.26	292.84
673.60	292.37
673.94	291.91
674.28	291.49
674.62	291.02
674.96	290.50
675.30	290.05
675.64	289.57
675.97	289.06
676.31	288.53
676.65	288.05
676.99	287.64
677.33	287.15
677.67	286.70
678.01	286.18
678.34	285.73
678.68	285.32
679.02	284.84
679.36	284.38
679.70	283.92
680.04	283.50
680.37	283.07
680.71	282.66
681.05	282.26
681.39	281.82
681.73	281.36
682.06	280.92
682.40	280.50
682.74	280.13
683.08	279.80
683.42	279.41
683.75	279.06
684.09	278.62
684.43	278.26
684.77	277.87
685.10	277.54
685.44	277.18
685.78	276.81
686.12	276.48
686.45	276.11
686.79	275.72
687.13	275.38
687.46	274.99
687.80	274.63
688.14	274.23
688.48	273.89
688.81	273.53
689.15	273.22
689.49	272.85
689.82	272.48
690.16	272.05
690.50	271.70
690.83	271.34
691.17	270.98
691.51	270.63
691.84	270.31
692.18	269.93
692.52	269.55
692.85	269.20
693.19	268.89
693.52	268.55
693.86	268.22
694.20	267.88
694.53	267.56
694.87	267.20
695.21	266.87
695.54	266.53
695.88	266.19
696.21	265.82
696.55	265.50
696.88	265.17
697.22	264.84
697.56	264.51
697.89	264.14
698.23	263.83
698.56	263.48
698.90	263.16
699.23	262.82
699.57	262.50
699.90	262.16
700.24	261.81
700.58	261.51
700.91	261.24
701.25	261.04
701.58	260.79
701.92	260.53
702.25	260.25
702.59	259.94
702.92	259.66
703.26	259.37
703.59	259.06
703.93	258.86
704.26	258.59
704.60	258.29
704.93	258.00
705.26	257.70
705.60	257.46
705.93	257.15
706.27	256.91
706.60	256.67
706.94	256.45
707.27	256.14
707.61	255.85
707.94	255.54
708.27	255.14
708.61	254.80
708.94	254.50
709.28	254.22
709.61	253.95
709.94	253.69
710.28	253.45
710.61	253.23
710.95	252.87
711.28	252.70
711.61	252.45
711.95	252.24
712.28	251.99
712.61	251.72
712.95	251.56
713.28	251.38
713.61	251.11
713.95	250.82
714.28	250.61
714.61	250.36
714.95	250.13
715.28	249.91
715.61	249.70
715.95	249.49
716.28	249.28
716.61	249.10
716.95	248.87
717.28	248.65
717.61	248.43
717.94	248.22
718.28	247.92
718.61	247.70
718.94	247.46
719.27	247.26
719.61	247.08
719.94	246.84
720.27	246.56
720.60	246.36
720.94	246.17
721.27	245.98
721.60	245.81
721.93	245.62
722.27	245.46
722.60	245.29
722.93	245.09
723.26	244.90
723.59	244.67
723.93	244.49
724.26	244.32
724.59	244.13
724.92	243.96
725.25	243.84
725.59	243.67
725.92	243.53
726.25	243.36
726.58	243.19
726.91	243.02
727.24	242.88
727.57	242.71
727.91	242.53
728.24	242.40
728.57	242.23
728.90	242.09
729.23	241.89
729.56	241.78
729.89	241.63
730.22	241.46
730.55	241.32
730.89	241.17
731.22	241.01
731.55	240.86
731.88	240.71
732.21	240.53
732.54	240.38
732.87	240.23
733.20	240.10
733.53	239.96
733.86	239.83
734.19	239.67
734.52	239.56
734.85	239.51
735.18	239.34
735.51	239.24
735.84	239.11
736.17	239.02
736.50	238.82
736.83	238.85
737.16	238.72
737.49	238.61
737.82	238.48
738.15	238.38
738.48	238.26
738.81	238.13
739.14	238.01
739.47	237.88
739.80	237.75
740.13	237.64
740.46	237.50
740.79	237.36
741.12	237.24
741.45	237.10
741.78	236.91
742.11	236.84
742.44	236.69
742.77	236.59
743.10	236.46
743.43	236.34
743.75	236.10
744.08	236.19
744.41	236.07
744.74	235.96
745.07	235.83
745.40	235.75
745.73	235.70
746.06	235.61
746.39	235.53
746.71	235.42
747.04	235.31
747.37	235.22
747.70	235.16
748.03	235.07
748.36	235.00
748.68	234.91
749.01	234.78
749.34	234.69
749.67	234.61
750.00	234.54
750.33	234.55
750.65	234.47
750.98	234.19
751.31	234.10
751.64	234.02
751.97	234.01
752.29	233.91
752.62	233.77
752.95	233.67
753.28	233.57
753.60	233.48
753.93	233.43
754.26	233.35
754.59	233.23
754.91	233.13
755.24	233.04
755.57	233.01
755.90	232.94
756.22	232.84
756.55	232.74
756.88	232.63
757.20	232.47
757.53	232.36
757.86	232.28
758.19	232.21
758.51	232.13
758.84	231.99
759.17	231.90
759.49	231.84
759.82	231.83
760.15	231.78
760.47	231.71
760.80	231.61
761.13	231.56
761.45	231.50
761.78	231.44
762.11	231.38
762.43	231.25
762.76	231.19
763.08	231.14
763.41	231.09
763.74	231.04
764.06	230.98
764.39	230.93
764.71	230.87
765.04	230.81
765.37	230.74
765.69	230.69
766.02	230.64
766.34	230.58
766.67	230.47
767.00	230.43
767.32	230.45
767.65	230.48
767.97	230.42
768.30	230.37
768.62	230.32
768.95	230.26
769.27	230.21
769.60	230.17
769.92	230.10
770.25	230.04
770.57	229.97
770.90	229.92
771.22	229.86
771.55	229.81
771.87	229.78
772.20	229.73
772.52	229.80
772.85	229.91
773.17	229.87
773.50	229.82
773.82	229.77
774.15	229.66
774.47	229.54
774.80	229.49
775.12	229.45
775.45	229.41
775.77	229.38
776.09	229.35
776.42	229.32
776.74	229.33
777.07	229.29
777.39	229.27
777.72	229.22
778.04	229.21
778.36	229.17
778.69	229.14
779.01	229.12
779.33	228.97
779.66	228.79
779.98	228.76
780.31	228.73
780.63	228.75
780.95	228.75
781.28	228.72
781.60	228.69
781.92	228.66
782.25	228.64
782.57	228.61
782.89	228.57
783.22	228.53
783.54	228.48
783.86	228.46
784.19	228.43
784.51	228.44
784.83	228.40
785.16	228.37
785.48	228.35
785.80	228.33
786.12	228.32
786.45	228.29
786.77	228.28
787.09	228.25
787.42	228.18
787.74	228.16
788.06	228.14
788.38	228.11
788.71	228.08
789.03	228.07
789.35	228.06
789.67	228.03
789.99	228.02
790.32	227.98
790.64	227.98
790.96	228.08
791.28	228.01
791.61	227.99
791.93	227.98
792.25	227.95
792.57	228.02
792.89	227.98
793.21	227.97
793.54	227.94
793.86	227.91
794.18	227.89
794.50	227.85
794.82	227.83
795.14	227.83
795.47	227.83
795.79	227.82
796.11	227.77
796.43	227.75
796.75	227.73
797.07	227.73
797.39	227.70
797.71	227.58
798.04	227.57
798.36	227.56
798.68	227.54
799.00	227.54
799.32	227.46
799.64	227.47
799.96	227.45
800.28	227.46
800.60	227.44
800.92	227.43
801.24	227.41
801.56	227.41
801.89	227.38
802.21	227.37
802.53	227.33
802.85	227.35
803.17	227.39
803.49	227.35
803.81	227.32
804.13	227.30
804.45	227.27
804.77	227.27
805.09	227.25
805.41	227.23
805.73	227.19
806.05	227.14
806.37	227.12
806.69	227.09
807.01	227.07
807.33	227.06
807.65	227.01
807.97	227.06
808.28	227.03
808.60	227.01
808.92	226.98
809.24	227.06
809.56	227.02
809.88	226.96
810.20	226.96
810.52	226.98
810.84	226.95
811.16	226.93
811.48	226.90
811.80	226.94
812.12	226.92
812.43	226.94
812.75	226.94
813.07	226.92
813.39	226.92
813.71	226.89
814.03	226.87
814.35	226.86
814.67	226.80
814.98	226.78
815.30	226.77
815.62	226.74
815.94	226.64
816.26	226.65
816.58	226.62
816.89	226.62
817.21	226.58
817.53	226.58
817.85	226.58
818.17	226.57
818.48	226.51
818.80	226.53
819.12	226.50
819.44	226.47
819.76	226.45
820.07	226.44
820.39	226.42
820.71	226.43
821.03	226.43
821.34	226.41
821.66	226.42
821.98	226.43
822.30	226.42
822.61	226.49
822.93	226.46
823.25	226.45
823.57	226.43
823.88	226.44
824.20	226.43
824.52	226.44
824.83	226.43
825.15	226.41
825.47	226.39
825.79	226.39
826.10	226.39
826.42	226.38
826.74	226.38
827.05	226.37
827.37	226.37
827.69	226.35
828.00	226.35
828.32	226.34
828.64	226.32
828.95	226.38
829.27	226.34
829.58	226.34
829.90	226.35
830.22	226.36
830.53	226.33
830.85	226.32
831.17	226.28
831.48	226.27
831.80	226.28
832.11	226.26
832.43	226.24
832.75	226.24
833.06	226.31
833.38	226.27
833.69	226.26
834.01	226.26
834.32	226.25
834.64	226.24
834.96	226.23
835.27	226.23
835.59	226.18
835.90	226.15
836.22	226.14
836.53	226.11
836.85	226.09
837.16	226.22
837.48	226.22
837.79	226.26
838.11	226.26
838.42	226.26
838.74	226.27
839.05	226.26
839.37	226.25
839.68	226.16
840.00	226.16
840.31	226.17
840.63	226.16
840.94	226.14
841.26	226.13
841.57	226.12
841.88	226.13
842.20	226.11
842.51	226.09
842.83	226.09
843.14	226.20
843.46	226.19
843.77	226.11
844.08	226.11
844.40	226.06
844.71	226.04
845.03	226.03
845.34	226.01
845.65	226.01
845.97	226.01
846.28	226.01
846.60	226.02
846.91	226.00
847.22	225.99
847.54	226.01
847.85	226.02
848.16	226.00
848.48	225.97
848.79	226.02
849.10	226.04
849.42	226.04
849.73	225.92
850.04	225.91
850.36	225.86
850.67	225.88
850.98	225.88
851.30	225.89
851.61	225.89
851.92	225.88
852.23	225.92
852.55	225.92
852.86	225.92
853.17	225.93
853.49	225.96
853.80	225.98
854.11	225.98
854.42	225.99
854.74	225.98
855.05	225.99
855.36	225.92
855.67	225.92
855.99	225.92
856.30	226.07
856.61	226.07
856.92	226.07
857.23	226.07
857.55	226.05
857.86	226.04
858.17	226.06
858.48	226.04
858.79	226.01
859.11	226.02
859.42	226.01
859.73	225.99
860.04	225.98
860.35	225.94
860.66	225.90
860.98	225.89
861.29	225.91
861.60	225.90
861.91	225.93
862.22	225.91
862.53	225.89
862.84	225.73
863.16	225.76
863.47	225.73
863.78	225.71
864.09	225.72
864.40	225.73
864.71	225.73
865.02	225.74
865.33	225.73
865.64	225.71
865.95	225.70
866.27	225.78
866.58	225.77
866.89	225.79
867.20	225.79
867.51	225.76
867.82	225.75
868.13	225.79
868.44	225.76
868.75	225.79
869.06	225.79
869.37	225.81
869.68	225.77
869.99	225.80
870.30	225.80
870.61	225.81
870.92	225.79
871.23	225.78
871.54	225.79
871.85	225.82
872.16	225.83
872.47	225.82
872.78	225.75
873.09	225.76
873.40	225.75
873.71	225.76
874.02	225.77
874.33	225.76
874.64	225.73
874.95	225.75
875.26	225.72
875.56	225.71
875.87	225.70
876.18	225.70
876.49	225.82
876.80	225.81
877.11	225.78
877.42	225.79
877.73	225.79
878.04	225.77
878.35	225.77
878.66	225.77
878.96	225.77
879.27	225.76
879.58	225.76
879.89	225.75
880.20	225.79
880.51	225.78
880.82	225.78
881.12	225.78
881.43	225.75
881.74	225.74
882.05	225.74
882.36	225.74
882.67	225.75
882.97	225.61
883.28	225.61
883.59	225.61
883.90	225.61
884.21	225.63
884.51	225.62
884.82	225.60
885.13	225.60
885.44	225.59
885.74	225.59
886.05	225.59
886.36	225.59
886.67	225.54
886.98	225.60
887.28	225.61
887.59	225.61
887.90	225.62
888.20	225.62
888.51	225.64
888.82	225.62
889.13	225.63
889.43	225.74
889.74	225.73
890.05	225.73
890.35	225.71
890.66	225.69
890.97	225.68
891.28	225.67
891.58	225.67
891.89	225.67
892.20	225.66
892.50	225.64
892.81	225.63
893.12	225.63
893.42	225.57
893.73	225.57
894.04	225.57
894.34	225.58
894.65	225.57
894.95	225.56
895.26	225.57
895.57	225.62
895.87	225.49
896.18	225.52
896.48	225.53
896.79	225.52
897.10	225.54
897.40	225.55
897.71	225.56
898.01	225.55
898.32	225.57
898.63	225.56
898.93	225.57
899.24	225.57
899.54	225.57
899.85	225.57
900.15	225.56
900.46	225.56
900.76	225.56
901.07	225.57
901.38	225.56
901.68	225.57
901.99	225.50
902.29	225.51
902.60	225.50
902.90	225.49
903.21	225.49
903.51	225.48
903.82	225.50
904.12	225.50
904.43	225.51
904.73	225.50
905.03	225.51
905.34	225.64
905.64	225.63
905.95	225.63
906.25	225.63
906.56	225.63
906.86	225.63
907.17	225.62
907.47	225.62
907.77	225.61
908.08	225.58
908.38	225.59
908.69	225.60
908.99	225.62
909.30	225.62
909.60	225.62
909.90	225.63
910.21	225.59
910.51	225.57
910.81	225.57
911.12	225.57
911.42	225.57
911.73	225.44
912.03	225.45
912.33	225.48
912.64	225.46
912.94	225.45
913.24	225.43
913.55	225.42
913.85	225.41
914.15	225.44
914.46	225.45
914.76	225.44
915.06	225.43
915.37	225.41
915.67	225.40
915.97	225.40
916.27	225.37
916.58	225.37
916.88	225.37
917.18	225.36
917.49	225.45
917.79	225.44
918.09	225.46
918.39	225.48
918.70	225.47
919.00	225.48
919.30	225.55
919.60	225.55
919.91	225.53
920.21	225.54
920.51	225.51
920.81	225.51
921.12	225.53
921.42	225.53
921.72	225.53
922.02	225.54
922.32	225.56
922.63	225.56
922.93	225.63
923.23	225.64
923.53	225.63
923.83	225.55
924.13	225.56
924.44	225.56
924.74	225.57
925.04	225.60
925.34	225.60
925.64	225.54
925.94	225.54
926.24	225.61
926.55	225.60
926.85	225.61
927.15	225.61
927.45	225.61
927.75	225.61
928.05	225.62
928.35	225.61
928.65	225.62
928.95	225.63
929.26	225.57
929.56	225.59
929.86	225.61
930.16	225.60
930.46	225.59
930.76	225.59
931.06	225.53
931.36	225.49
931.66	225.51
931.96	225.53
932.26	225.54
932.56	225.48
932.86	225.49
933.16	225.49
933.46	225.48
933.76	225.46
934.06	225.48
934.36	225.52
934.66	225.52
934.96	225.50
935.26	225.50
935.56	225.52
935.86	225.48
936.16	225.47
936.46	225.46
936.76	225.45
937.06	225.43
937.36	225.44
937.66	225.45
937.96	225.44
938.26	225.41
938.56	225.40
938.86	225.41
939.16	225.43
939.46	225.44
939.76	225.45
940.06	225.45
940.35	225.43
940.65	225.36
940.95	225.37
941.25	225.34
941.55	225.33
941.85	225.31
942.15	225.35
942.45	225.38
942.75	225.38
943.04	225.38
943.34	225.41
943.64	225.40
943.94	225.38
944.24	225.38
944.54	225.39
944.84	225.38
945.13	225.36
945.43	225.34
945.73	225.33
946.03	225.32
946.33	225.30
946.62	225.29
946.92	225.29
947.22	225.29
947.52	225.30
947.82	225.32
948.11	225.31
948.41	225.28
948.71	225.25
949.01	225.26
949.31	225.24
949.60	225.23
949.90	225.25
950.20	225.24
950.50	225.24
950.79	225.23
951.09	225.24
951.39	225.24
951.69	225.23
951.98	225.25
952.28	225.26
952.58	225.26
952.87	225.26
953.17	225.27
953.47	225.26
953.76	225.25
954.06	225.23
954.36	225.21
954.66	225.21
954.95	225.24
955.25	225.25
955.55	225.26
955.84	225.25
956.14	225.25
956.44	225.26
956.73	225.24
957.03	225.25
957.32	225.25
957.62	225.25
957.92	225.28
958.21	225.26
958.51	225.41
958.81	225.43
959.10	225.44
959.40	225.47
959.69	225.49
959.99	225.51
960.29	225.51
960.58	225.51
960.88	225.56
961.17	225.54
961.47	225.55
961.76	225.54
962.06	225.56
962.36	225.55
962.65	225.55
962.95	225.56
963.24	225.55
963.54	225.55
963.83	225.56
964.13	225.55
964.42	225.54
964.72	225.43
965.01	225.42
965.31	225.41
965.60	225.37
965.90	225.45
966.19	225.42
966.49	225.43
966.78	225.43
967.08	225.41
967.37	225.41
967.67	225.39
967.96	225.41
968.26	225.41
968.55	225.42
968.85	225.42
969.14	225.42
969.43	225.42
969.73	225.40
970.02	225.39
970.32	225.39
970.61	225.37
970.91	225.34
971.20	225.32
971.49	225.32
971.79	225.33
972.08	225.24
972.38	225.26
972.67	225.24
972.96	225.26
973.26	225.24
973.55	225.28
973.85	225.27
974.14	225.26
974.43	225.27
974.73	225.24
975.02	225.23
975.31	225.23
975.61	225.23
975.90	225.22
976.19	225.21
976.49	225.22
976.78	225.23
977.07	225.23
977.37	225.24
977.66	225.25
977.95	225.23
978.24	225.24
978.54	225.26
978.83	225.26
979.12	225.25
979.42	225.25
979.71	225.22
980.00	225.22
980.29	225.22
980.59	225.20
980.88	225.23
981.17	225.24
981.46	225.24
981.76	225.24
982.05	225.28
982.34	225.29
982.63	225.28
982.93	225.28
983.22	225.31
983.51	225.32
983.80	225.33
984.09	225.35
984.39	225.34
984.68	225.33
984.97	225.33
985.26	225.33
985.55	225.34
985.85	225.32
986.14	225.34
986.43	225.35
986.72	225.34
987.01	225.31
987.30	225.31
987.59	225.30
987.89	225.31
988.18	225.27
988.47	225.26
988.76	225.25
989.05	225.24
989.34	225.22
989.63	225.26
989.92	225.23
990.22	225.21
990.51	225.21
990.80	225.20
991.09	225.21
991.38	225.23
991.67	225.22
991.96	225.20
992.25	225.20
992.54	225.18
992.83	225.19
993.12	225.18
993.41	225.20
993.70	225.25
993.99	225.27
994.28	225.29
994.58	225.31
994.87	225.30
995.16	225.29
995.45	225.29
995.74	225.24
996.03	225.26
996.32	225.28
996.61	225.31
996.90	225.31
997.19	225.30
997.48	225.30
997.77	225.28
998.06	225.29
998.34	225.28
998.63	225.28
998.92	225.29
999.21	225.31
999.50	225.31
999.79	225.26
1000.08	225.26
1000.37	225.26
1000.66	225.24
1000.95	225.27
1001.24	225.28
1001.53	225.30
1001.82	225.30
1002.11	225.27
1002.40	225.27
1002.68	225.30
1002.97	225.39
1003.26	225.38
1003.55	225.36
1003.84	225.37
1004.13	225.41
1004.42	225.41
1004.71	225.41
1004.99	225.40
1005.28	225.42
1005.57	225.41
1005.86	225.40
1006.15	225.39
1006.44	225.37
1006.72	225.38
1007.01	225.36
1007.30	225.35
1007.59	225.34
1007.88	225.34
1008.17	225.35
1008.45	225.32
1008.74	225.27
1009.03	225.21
1009.32	225.21
1009.60	225.21
1009.89	225.20
1010.18	225.15
1010.47	225.14
1010.76	225.15
1011.04	225.14
1011.33	225.14
1011.62	225.15
1011.91	225.16
1012.19	225.17
1012.48	225.17
1012.77	225.17
1013.05	225.22
1013.34	225.22
1013.63	225.21
1013.92	225.22
1014.20	225.21
1014.49	225.21
1014.78	225.23
1015.06	225.18
1015.35	225.19
1015.64	225.21
1015.92	225.23
1016.21	225.23
1016.50	225.24
1016.78	225.25
1017.07	225.27
1017.36	225.25
1017.64	225.22
1017.93	225.23
1018.22	225.22
1018.50	225.22
1018.79	225.21
1019.08	225.16
1019.36	225.17
1019.65	225.16
1019.93	225.19
1020.22	225.21
1020.51	225.28
1020.79	225.26
1021.08	225.01
1021.36	225.01
1021.65	225.18
1021.94	225.11
1022.22	225.29
1022.51	224.92
1022.79	225.86
1023.08	225.33
1023.36	226.76
1023.65	224.90
>>>>>End Processed Spectral Data<<<<<
