SpectraSuite Data File
++++++++++++++++++++++++++++++++++++
Date: Fri Oct 02 17:12:16 EDT 2015
User: lab3
Dark Spectrum Present: No
Reference Spectrum Present: No
Number of Sampled Component Spectra: 1
Spectrometers: USB2E7196
Integration Time (usec): 46000 (USB2E7196)
Spectra Averaged: 600 (USB2E7196)
Boxcar Smoothing: 10 (USB2E7196)
Correct for Electrical Dark: No (USB2E7196)
Strobe/Lamp Enabled: No (USB2E7196)
Correct for Detector Non-linearity: No (USB2E7196)
Correct for Stray Light: No (USB2E7196)
Number of Pixels in Processed Spectrum: 2048
>>>>>Begin Processed Spectral Data<<<<<
339.09	0.00
339.48	214.85
339.86	216.07
340.24	217.77
340.63	219.16
341.01	222.60
341.39	221.85
341.78	223.13
342.16	224.48
342.54	224.84
342.93	213.24
343.31	224.01
343.69	224.54
344.07	225.02
344.46	225.45
344.84	225.84
345.22	226.06
345.60	226.31
345.99	226.50
346.37	226.62
346.75	226.73
347.13	226.81
347.52	226.88
347.90	226.97
348.28	227.00
348.66	227.05
349.05	227.06
349.43	227.10
349.81	227.16
350.19	227.21
350.57	227.28
350.96	227.37
351.34	227.47
351.72	227.56
352.10	227.67
352.48	227.73
352.87	227.78
353.25	227.84
353.63	227.90
354.01	227.98
354.39	228.06
354.77	228.14
355.15	228.24
355.54	228.29
355.92	228.32
356.30	228.39
356.68	228.53
357.06	228.60
357.44	228.65
357.82	228.71
358.20	228.82
358.58	228.88
358.97	228.94
359.35	229.02
359.73	229.11
360.11	229.16
360.49	229.22
360.87	229.27
361.25	229.33
361.63	229.42
362.01	229.47
362.39	229.51
362.77	229.56
363.15	229.57
363.53	229.60
363.91	229.63
364.29	229.66
364.67	229.57
365.05	229.60
365.43	229.64
365.81	229.68
366.19	229.70
366.57	229.75
366.95	229.75
367.33	229.71
367.71	229.70
368.09	229.72
368.47	229.71
368.85	229.70
369.23	229.71
369.61	229.65
369.99	229.67
370.37	229.67
370.75	229.73
371.13	229.70
371.51	229.66
371.89	229.65
372.27	229.61
372.65	229.58
373.03	229.55
373.41	229.49
373.78	229.43
374.16	229.34
374.54	229.27
374.92	229.21
375.30	229.17
375.68	229.11
376.06	229.05
376.44	229.01
376.82	228.97
377.19	228.92
377.57	228.86
377.95	228.75
378.33	228.69
378.71	228.52
379.09	228.49
379.47	228.46
379.84	228.39
380.22	228.33
380.60	228.26
380.98	228.22
381.36	228.17
381.73	228.11
382.11	228.08
382.49	228.04
382.87	227.99
383.25	227.95
383.62	228.05
384.00	227.98
384.38	227.95
384.76	227.94
385.13	227.93
385.51	227.90
385.89	227.85
386.27	227.82
386.64	227.80
387.02	227.75
387.40	227.70
387.78	227.68
388.15	227.66
388.53	227.64
388.91	227.61
389.29	227.57
389.66	227.56
390.04	227.53
390.42	227.52
390.79	227.50
391.17	227.48
391.55	227.32
391.92	227.31
392.30	227.30
392.68	227.26
393.05	227.23
393.43	227.24
393.81	227.25
394.18	227.23
394.56	227.23
394.94	227.26
395.31	227.27
395.69	227.32
396.06	227.36
396.44	227.38
396.82	227.39
397.19	227.47
397.57	227.49
397.95	227.53
398.32	227.54
398.70	227.58
399.07	227.65
399.45	227.69
399.82	227.73
400.20	227.77
400.58	227.83
400.95	227.84
401.33	227.93
401.70	228.09
402.08	228.19
402.45	228.27
402.83	228.38
403.20	228.48
403.58	228.56
403.95	228.69
404.33	228.83
404.71	228.96
405.08	229.17
405.46	229.33
405.83	229.50
406.21	229.68
406.58	229.91
406.96	230.11
407.33	230.36
407.70	230.63
408.08	231.00
408.45	231.33
408.83	231.68
409.20	232.01
409.58	232.30
409.95	232.71
410.33	233.15
410.70	233.56
411.08	234.04
411.45	234.57
411.82	235.09
412.20	235.70
412.57	236.41
412.95	236.98
413.32	237.70
413.69	238.44
414.07	239.25
414.44	240.10
414.82	240.98
415.19	242.02
415.56	243.08
415.94	244.15
416.31	245.37
416.68	246.58
417.06	247.98
417.43	249.29
417.81	250.82
418.18	252.37
418.55	254.07
418.93	255.83
419.30	257.67
419.67	259.60
420.04	261.61
420.42	263.70
420.79	266.11
421.16	268.55
421.54	271.03
421.91	273.61
422.28	276.31
422.66	279.20
423.03	281.97
423.40	284.86
423.77	287.97
424.15	291.16
424.52	294.49
424.89	298.09
425.26	301.68
425.64	305.00
426.01	308.73
426.38	312.56
426.75	316.49
427.13	320.52
427.50	324.74
427.87	329.12
428.24	333.58
428.61	337.84
428.99	342.47
429.36	347.53
429.73	352.37
430.10	357.22
430.47	362.19
430.85	367.29
431.22	372.79
431.59	378.44
431.96	383.95
432.33	390.08
432.70	395.90
433.08	402.77
433.45	409.25
433.82	415.66
434.19	422.83
434.56	429.91
434.93	436.75
435.30	443.52
435.68	451.17
436.05	458.64
436.42	466.09
436.79	472.87
437.16	480.22
437.53	488.08
437.90	495.93
438.27	503.62
438.64	511.90
439.01	519.44
439.38	526.30
439.75	532.92
440.13	540.35
440.50	547.43
440.87	553.03
441.24	559.19
441.61	565.89
441.98	570.79
442.35	576.55
442.72	582.40
443.09	587.99
443.46	591.46
443.83	593.99
444.20	596.05
444.57	599.23
444.94	600.94
445.31	602.72
445.68	604.21
446.05	605.22
446.42	604.69
446.79	603.93
447.16	603.27
447.53	602.60
447.90	600.03
448.27	597.56
448.64	593.91
449.01	591.29
449.37	586.29
449.74	581.71
450.11	575.95
450.48	569.67
450.85	563.37
451.22	557.99
451.59	552.73
451.96	547.96
452.33	541.13
452.70	535.06
453.07	527.70
453.43	520.34
453.80	513.24
454.17	506.43
454.54	500.14
454.91	493.08
455.28	486.51
455.65	480.29
456.02	473.72
456.38	468.44
456.75	461.69
457.12	456.27
457.49	450.79
457.86	445.62
458.23	441.11
458.59	436.15
458.96	431.04
459.33	426.55
459.70	422.01
460.07	418.55
460.43	414.47
460.80	410.68
461.17	407.41
461.54	403.84
461.91	400.53
462.27	397.15
462.64	394.42
463.01	391.24
463.38	388.07
463.74	385.22
464.11	382.71
464.48	380.46
464.85	377.99
465.21	376.14
465.58	374.08
465.95	371.67
466.32	369.76
466.68	367.90
467.05	366.02
467.42	364.19
467.78	362.20
468.15	360.38
468.52	359.05
468.88	357.27
469.25	355.62
469.62	354.34
469.98	352.94
470.35	351.69
470.72	350.59
471.08	349.44
471.45	348.48
471.82	347.42
472.18	346.26
472.55	345.52
472.92	344.60
473.28	343.86
473.65	343.09
474.02	342.34
474.38	341.71
474.75	341.37
475.11	340.86
475.48	340.63
475.85	340.37
476.21	340.26
476.58	340.15
476.94	340.30
477.31	340.37
477.67	340.47
478.04	340.69
478.41	341.00
478.77	341.43
479.14	341.71
479.50	342.22
479.87	342.89
480.23	343.55
480.60	344.20
480.96	344.87
481.33	345.85
481.69	346.85
482.06	347.84
482.42	348.74
482.79	349.85
483.15	351.16
483.52	352.64
483.88	354.03
484.25	355.54
484.61	357.10
484.98	358.80
485.34	360.71
485.71	362.71
486.07	364.81
486.44	366.94
486.80	369.30
487.17	371.75
487.53	374.44
487.90	377.27
488.26	380.35
488.62	383.57
488.99	386.81
489.35	390.22
489.72	393.90
490.08	397.79
490.44	401.80
490.81	405.98
491.17	410.24
491.54	414.85
491.90	419.61
492.26	424.69
492.63	430.01
492.99	435.54
493.36	441.29
493.72	447.34
494.08	453.53
494.45	460.09
494.81	466.92
495.17	473.91
495.54	481.29
495.90	488.98
496.26	496.86
496.63	504.97
496.99	513.38
497.35	522.18
497.72	531.27
498.08	540.57
498.44	550.16
498.80	560.35
499.17	570.80
499.53	581.54
499.89	592.65
500.26	603.96
500.62	615.57
500.98	627.81
501.34	640.23
501.71	653.16
502.07	666.31
502.43	679.97
502.79	693.85
503.16	708.18
503.52	722.67
503.88	737.58
504.24	752.94
504.60	768.55
504.97	784.65
505.33	801.11
505.69	818.50
506.05	836.20
506.41	853.77
506.78	871.56
507.14	889.88
507.50	908.63
507.86	927.73
508.22	947.06
508.59	966.17
508.95	986.06
509.31	1006.74
509.67	1027.98
510.03	1049.25
510.39	1070.61
510.75	1092.13
511.12	1113.94
511.48	1135.88
511.84	1157.88
512.20	1180.20
512.56	1203.37
512.92	1226.59
513.28	1249.41
513.64	1272.47
514.00	1296.01
514.37	1319.72
514.73	1343.45
515.09	1367.07
515.45	1391.01
515.81	1415.07
516.17	1439.33
516.53	1463.07
516.89	1486.57
517.25	1510.31
517.61	1533.97
517.97	1558.04
518.33	1581.61
518.69	1605.07
519.05	1629.02
519.41	1653.24
519.77	1677.66
520.13	1701.29
520.49	1724.89
520.85	1748.80
521.21	1772.17
521.57	1795.94
521.93	1819.17
522.29	1842.90
522.65	1866.14
523.01	1889.32
523.37	1912.10
523.73	1935.51
524.09	1958.73
524.45	1981.67
524.81	2004.22
525.17	2026.59
525.53	2048.29
525.89	2070.50
526.25	2092.66
526.61	2113.78
526.97	2135.02
527.33	2156.19
527.68	2177.13
528.04	2197.20
528.40	2216.35
528.76	2235.86
529.12	2254.82
529.48	2273.46
529.84	2290.31
530.20	2307.76
530.56	2324.57
530.91	2341.53
531.27	2358.14
531.63	2373.92
531.99	2389.35
532.35	2404.06
532.71	2418.85
533.07	2434.33
533.42	2447.99
533.78	2462.57
534.14	2477.42
534.50	2491.29
534.86	2504.91
535.21	2516.63
535.57	2528.83
535.93	2540.84
536.29	2551.70
536.65	2562.34
537.00	2572.50
537.36	2583.46
537.72	2592.94
538.08	2601.98
538.44	2610.47
538.79	2618.44
539.15	2625.58
539.51	2632.29
539.87	2638.44
540.22	2642.72
540.58	2647.13
540.94	2652.71
541.29	2656.75
541.65	2659.02
542.01	2660.71
542.37	2661.62
542.72	2663.93
543.08	2664.68
543.44	2665.91
543.79	2666.10
544.15	2665.56
544.51	2665.30
544.87	2664.02
545.22	2661.98
545.58	2659.32
545.94	2656.61
546.29	2652.70
546.65	2648.85
547.01	2644.95
547.36	2641.78
547.72	2638.67
548.07	2633.82
548.43	2627.50
548.79	2620.36
549.14	2614.50
549.50	2608.74
549.86	2602.25
550.21	2594.59
550.57	2587.83
550.92	2578.85
551.28	2570.42
551.64	2562.32
551.99	2553.78
552.35	2544.61
552.70	2535.89
553.06	2527.39
553.41	2518.28
553.77	2509.02
554.13	2499.66
554.48	2489.52
554.84	2478.14
555.19	2467.28
555.55	2456.51
555.90	2445.84
556.26	2435.61
556.61	2424.32
556.97	2411.56
557.32	2399.28
557.68	2386.94
558.03	2374.41
558.39	2362.97
558.74	2351.92
559.10	2339.20
559.45	2326.73
559.81	2314.89
560.16	2302.25
560.52	2290.00
560.87	2277.98
561.23	2265.18
561.58	2252.55
561.94	2239.62
562.29	2226.18
562.64	2213.43
563.00	2200.32
563.35	2187.69
563.71	2174.86
564.06	2161.99
564.42	2149.79
564.77	2137.03
565.12	2124.12
565.48	2111.18
565.83	2098.30
566.19	2085.51
566.54	2072.70
566.89	2058.83
567.25	2045.09
567.60	2032.67
567.96	2019.45
568.31	2005.02
568.66	1991.28
569.02	1978.52
569.37	1965.74
569.72	1953.47
570.08	1939.97
570.43	1926.21
570.78	1912.23
571.14	1897.71
571.49	1883.78
571.84	1870.40
572.20	1855.84
572.55	1841.59
572.90	1827.18
573.26	1812.85
573.61	1798.06
573.96	1783.70
574.31	1769.54
574.67	1755.44
575.02	1740.45
575.37	1725.39
575.72	1711.22
576.08	1697.34
576.43	1682.45
576.78	1667.93
577.13	1653.73
577.49	1639.82
577.84	1626.53
578.19	1612.39
578.54	1598.35
578.90	1583.84
579.25	1569.26
579.60	1556.26
579.95	1543.11
580.30	1529.81
580.66	1516.29
581.01	1502.64
581.36	1489.00
581.71	1476.37
582.06	1463.60
582.42	1451.08
582.77	1438.60
583.12	1426.08
583.47	1413.43
583.82	1400.91
584.17	1388.12
584.53	1374.97
584.88	1362.25
585.23	1349.08
585.58	1336.67
585.93	1324.53
586.28	1313.13
586.63	1301.69
586.98	1289.77
587.34	1277.92
587.69	1265.86
588.04	1254.09
588.39	1242.71
588.74	1231.42
589.09	1219.92
589.44	1208.05
589.79	1196.80
590.14	1185.68
590.49	1174.50
590.84	1163.45
591.19	1152.82
591.54	1141.98
591.89	1131.34
592.25	1120.81
592.60	1109.99
592.95	1099.58
593.30	1089.33
593.65	1078.77
594.00	1068.35
594.35	1058.46
594.70	1048.19
595.05	1038.75
595.40	1029.18
595.75	1019.48
596.10	1010.32
596.45	1000.89
596.80	991.76
597.15	982.41
597.50	973.21
597.85	964.37
598.19	955.44
598.54	946.52
598.89	938.05
599.24	929.82
599.59	921.43
599.94	913.93
600.29	906.23
600.64	898.31
600.99	890.01
601.34	882.08
601.69	873.80
602.04	866.24
602.39	858.46
602.74	850.74
603.08	843.01
603.43	835.30
603.78	827.73
604.13	820.32
604.48	812.88
604.83	805.58
605.18	798.25
605.53	791.02
605.87	783.61
606.22	776.56
606.57	769.45
606.92	762.25
607.27	754.95
607.62	747.94
607.96	741.31
608.31	735.14
608.66	728.72
609.01	722.63
609.36	716.59
609.70	710.38
610.05	704.18
610.40	698.19
610.75	692.19
611.10	686.50
611.44	680.66
611.79	674.95
612.14	669.16
612.49	663.44
612.83	658.03
613.18	652.76
613.53	647.33
613.88	641.95
614.22	636.96
614.57	631.91
614.92	626.70
615.27	621.62
615.61	616.58
615.96	611.62
616.31	606.63
616.65	601.72
617.00	597.01
617.35	592.40
617.70	587.86
618.04	583.30
618.39	578.70
618.74	574.38
619.08	570.04
619.43	565.84
619.78	561.66
620.12	557.42
620.47	553.32
620.82	549.33
621.16	545.39
621.51	541.33
621.85	537.34
622.20	533.53
622.55	529.72
622.89	525.95
623.24	522.19
623.59	518.49
623.93	514.95
624.28	511.47
624.62	508.09
624.97	504.74
625.32	501.38
625.66	497.96
626.01	494.47
626.35	491.10
626.70	487.79
627.04	484.61
627.39	481.38
627.73	478.30
628.08	475.32
628.43	472.31
628.77	469.37
629.12	466.55
629.46	463.72
629.81	460.83
630.15	457.95
630.50	455.15
630.84	452.41
631.19	449.71
631.53	447.11
631.88	444.46
632.22	441.83
632.57	439.47
632.91	437.17
633.26	434.95
633.60	432.71
633.95	430.52
634.29	428.26
634.64	426.07
634.98	423.70
635.32	421.49
635.67	419.47
636.01	417.37
636.36	415.31
636.70	413.39
637.05	411.44
637.39	409.53
637.73	407.65
638.08	405.86
638.42	404.04
638.77	402.13
639.11	400.16
639.45	398.26
639.80	396.31
640.14	394.43
640.49	392.56
640.83	390.67
641.17	388.84
641.52	387.06
641.86	385.33
642.20	383.76
642.55	382.04
642.89	380.33
643.23	378.72
643.58	377.25
643.92	375.66
644.26	374.12
644.61	372.66
644.95	371.15
645.29	369.57
645.64	368.01
645.98	366.51
646.32	365.14
646.66	363.76
647.01	362.39
647.35	361.06
647.69	359.72
648.04	358.50
648.38	357.21
648.72	355.93
649.06	354.65
649.41	353.39
649.75	352.18
650.09	350.96
650.43	349.76
650.78	348.51
651.12	347.30
651.46	346.14
651.80	345.01
652.14	343.87
652.49	342.80
652.83	341.70
653.17	340.65
653.51	339.61
653.85	338.62
654.20	337.58
654.54	336.46
654.88	335.43
655.22	334.44
655.56	333.42
655.90	332.47
656.25	331.54
656.59	330.59
656.93	329.71
657.27	328.84
657.61	327.89
657.95	327.00
658.29	326.10
658.64	325.24
658.98	324.37
659.32	323.54
659.66	322.74
660.00	321.95
660.34	321.18
660.68	320.36
661.02	319.50
661.36	318.67
661.70	317.91
662.05	317.14
662.39	316.39
662.73	315.72
663.07	315.04
663.41	314.33
663.75	313.60
664.09	312.86
664.43	312.10
664.77	311.42
665.11	310.69
665.45	310.04
665.79	309.39
666.13	308.69
666.47	307.97
666.81	307.26
667.15	306.51
667.49	305.85
667.83	305.26
668.17	304.67
668.51	304.12
668.85	303.57
669.19	303.05
669.53	302.43
669.87	301.78
670.21	301.17
670.55	300.60
670.89	300.09
671.23	299.55
671.57	299.02
671.91	298.51
672.25	298.05
672.58	297.56
672.92	297.01
673.26	296.54
673.60	296.08
673.94	295.62
674.28	295.20
674.62	294.75
674.96	294.24
675.30	293.77
675.64	293.24
675.97	292.73
676.31	292.19
676.65	291.72
676.99	291.30
677.33	290.80
677.67	290.35
678.01	289.83
678.34	289.39
678.68	288.98
679.02	288.50
679.36	288.02
679.70	287.53
680.04	287.09
680.37	286.65
680.71	286.22
681.05	285.80
681.39	285.33
681.73	284.83
682.06	284.37
682.40	283.93
682.74	283.56
683.08	283.22
683.42	282.81
683.75	282.42
684.09	281.98
684.43	281.61
684.77	281.19
685.10	280.83
685.44	280.43
685.78	280.02
686.12	279.65
686.45	279.27
686.79	278.86
687.13	278.50
687.46	278.08
687.80	277.71
688.14	277.27
688.48	276.92
688.81	276.54
689.15	276.18
689.49	275.79
689.82	275.38
690.16	274.94
690.50	274.56
690.83	274.18
691.17	273.79
691.51	273.39
691.84	273.04
692.18	272.63
692.52	272.25
692.85	271.88
693.19	271.55
693.52	271.16
693.86	270.80
694.20	270.43
694.53	270.08
694.87	269.68
695.21	269.32
695.54	268.97
695.88	268.60
696.21	268.22
696.55	267.87
696.88	267.54
697.22	267.19
697.56	266.85
697.89	266.46
698.23	266.10
698.56	265.73
698.90	265.39
699.23	265.03
699.57	264.66
699.90	264.30
700.24	263.93
700.58	263.61
700.91	263.33
701.25	263.11
701.58	262.84
701.92	262.57
702.25	262.27
702.59	261.93
702.92	261.62
703.26	261.29
703.59	260.97
703.93	260.74
704.26	260.43
704.60	260.10
704.93	259.79
705.26	259.50
705.60	259.25
705.93	258.91
706.27	258.66
706.60	258.40
706.94	258.15
707.27	257.83
707.61	257.53
707.94	257.19
708.27	256.77
708.61	256.41
708.94	256.09
709.28	255.80
709.61	255.51
709.94	255.24
710.28	254.98
710.61	254.74
710.95	254.38
711.28	254.20
711.61	253.95
711.95	253.73
712.28	253.45
712.61	253.15
712.95	252.98
713.28	252.79
713.61	252.51
713.95	252.21
714.28	251.99
714.61	251.73
714.95	251.50
715.28	251.27
715.61	251.04
715.95	250.82
716.28	250.59
716.61	250.41
716.95	250.18
717.28	249.97
717.61	249.75
717.94	249.51
718.28	249.21
718.61	248.96
718.94	248.72
719.27	248.51
719.61	248.33
719.94	248.08
720.27	247.79
720.60	247.58
720.94	247.38
721.27	247.17
721.60	246.98
721.93	246.79
722.27	246.63
722.60	246.45
722.93	246.24
723.26	246.04
723.59	245.81
723.93	245.63
724.26	245.44
724.59	245.24
724.92	245.08
725.25	244.94
725.59	244.79
725.92	244.63
726.25	244.46
726.58	244.30
726.91	244.12
727.24	243.98
727.57	243.80
727.91	243.61
728.24	243.48
728.57	243.31
728.90	243.16
729.23	242.97
729.56	242.85
729.89	242.70
730.22	242.54
730.55	242.40
730.89	242.25
731.22	242.09
731.55	241.93
731.88	241.77
732.21	241.58
732.54	241.43
732.87	241.29
733.20	241.15
733.53	241.00
733.86	240.88
734.19	240.71
734.52	240.61
734.85	240.57
735.18	240.39
735.51	240.29
735.84	240.16
736.17	240.08
736.50	239.88
736.83	239.89
737.16	239.77
737.49	239.65
737.82	239.52
738.15	239.41
738.48	239.30
738.81	239.18
739.14	239.05
739.47	238.92
739.80	238.79
740.13	238.68
740.46	238.55
740.79	238.40
741.12	238.29
741.45	238.15
741.78	237.95
742.11	237.88
742.44	237.73
742.77	237.64
743.10	237.49
743.43	237.38
743.75	237.13
744.08	237.23
744.41	237.11
744.74	237.00
745.07	236.87
745.40	236.79
745.73	236.74
746.06	236.65
746.39	236.58
746.71	236.46
747.04	236.36
747.37	236.27
747.70	236.21
748.03	236.13
748.36	236.04
748.68	235.96
749.01	235.84
749.34	235.74
749.67	235.66
750.00	235.60
750.33	235.60
750.65	235.54
750.98	235.26
751.31	235.18
751.64	235.10
751.97	235.08
752.29	235.00
752.62	234.85
752.95	234.77
753.28	234.66
753.60	234.59
753.93	234.54
754.26	234.45
754.59	234.33
754.91	234.23
755.24	234.15
755.57	234.12
755.90	234.05
756.22	233.98
756.55	233.87
756.88	233.76
757.20	233.62
757.53	233.50
757.86	233.40
758.19	233.33
758.51	233.25
758.84	233.12
759.17	233.02
759.49	232.96
759.82	232.95
760.15	232.90
760.47	232.83
760.80	232.72
761.13	232.68
761.45	232.62
761.78	232.57
762.11	232.51
762.43	232.38
762.76	232.31
763.08	232.26
763.41	232.21
763.74	232.16
764.06	232.08
764.39	232.03
764.71	231.99
765.04	231.93
765.37	231.87
765.69	231.83
766.02	231.78
766.34	231.72
766.67	231.60
767.00	231.57
767.32	231.59
767.65	231.63
767.97	231.56
768.30	231.51
768.62	231.46
768.95	231.39
769.27	231.33
769.60	231.32
769.92	231.25
770.25	231.18
770.57	231.12
770.90	231.07
771.22	231.02
771.55	230.97
771.87	230.94
772.20	230.89
772.52	230.96
772.85	231.06
773.17	231.04
773.50	230.98
773.82	230.93
774.15	230.82
774.47	230.70
774.80	230.65
775.12	230.62
775.45	230.56
775.77	230.55
776.09	230.53
776.42	230.49
776.74	230.49
777.07	230.46
777.39	230.44
777.72	230.40
778.04	230.37
778.36	230.33
778.69	230.30
779.01	230.29
779.33	230.14
779.66	229.98
779.98	229.94
780.31	229.92
780.63	229.94
780.95	229.93
781.28	229.92
781.60	229.89
781.92	229.87
782.25	229.85
782.57	229.82
782.89	229.79
783.22	229.76
783.54	229.71
783.86	229.69
784.19	229.66
784.51	229.68
784.83	229.64
785.16	229.62
785.48	229.59
785.80	229.56
786.12	229.54
786.45	229.53
786.77	229.51
787.09	229.48
787.42	229.42
787.74	229.40
788.06	229.37
788.38	229.34
788.71	229.32
789.03	229.30
789.35	229.29
789.67	229.27
789.99	229.25
790.32	229.22
790.64	229.22
790.96	229.32
791.28	229.25
791.61	229.23
791.93	229.23
792.25	229.19
792.57	229.26
792.89	229.21
793.21	229.18
793.54	229.17
793.86	229.14
794.18	229.12
794.50	229.08
794.82	229.06
795.14	229.06
795.47	229.05
795.79	229.04
796.11	229.00
796.43	228.98
796.75	228.95
797.07	228.95
797.39	228.93
797.71	228.81
798.04	228.79
798.36	228.78
798.68	228.76
799.00	228.76
799.32	228.70
799.64	228.72
799.96	228.71
800.28	228.72
800.60	228.70
800.92	228.70
801.24	228.68
801.56	228.67
801.89	228.64
802.21	228.65
802.53	228.61
802.85	228.63
803.17	228.67
803.49	228.64
803.81	228.61
804.13	228.58
804.45	228.55
804.77	228.56
805.09	228.54
805.41	228.52
805.73	228.49
806.05	228.43
806.37	228.39
806.69	228.37
807.01	228.33
807.33	228.33
807.65	228.28
807.97	228.33
808.28	228.31
808.60	228.29
808.92	228.26
809.24	228.32
809.56	228.28
809.88	228.22
810.20	228.21
810.52	228.22
810.84	228.19
811.16	228.17
811.48	228.15
811.80	228.18
812.12	228.16
812.43	228.17
812.75	228.17
813.07	228.15
813.39	228.14
813.71	228.12
814.03	228.10
814.35	228.09
814.67	228.02
814.98	228.01
815.30	228.01
815.62	227.98
815.94	227.88
816.26	227.88
816.58	227.85
816.89	227.87
817.21	227.84
817.53	227.85
817.85	227.84
818.17	227.83
818.48	227.77
818.80	227.80
819.12	227.76
819.44	227.73
819.76	227.70
820.07	227.70
820.39	227.68
820.71	227.69
821.03	227.69
821.34	227.68
821.66	227.68
821.98	227.67
822.30	227.65
822.61	227.74
822.93	227.70
823.25	227.70
823.57	227.69
823.88	227.69
824.20	227.66
824.52	227.68
824.83	227.67
825.15	227.66
825.47	227.63
825.79	227.64
826.10	227.64
826.42	227.63
826.74	227.64
827.05	227.64
827.37	227.63
827.69	227.61
828.00	227.61
828.32	227.60
828.64	227.58
828.95	227.65
829.27	227.61
829.58	227.60
829.90	227.61
830.22	227.60
830.53	227.57
830.85	227.55
831.17	227.51
831.48	227.50
831.80	227.50
832.11	227.50
832.43	227.47
832.75	227.47
833.06	227.54
833.38	227.49
833.69	227.49
834.01	227.49
834.32	227.48
834.64	227.48
834.96	227.46
835.27	227.46
835.59	227.41
835.90	227.38
836.22	227.37
836.53	227.35
836.85	227.34
837.16	227.47
837.48	227.48
837.79	227.51
838.11	227.51
838.42	227.50
838.74	227.50
839.05	227.49
839.37	227.47
839.68	227.39
840.00	227.39
840.31	227.40
840.63	227.38
840.94	227.35
841.26	227.34
841.57	227.34
841.88	227.35
842.20	227.33
842.51	227.30
842.83	227.31
843.14	227.43
843.46	227.41
843.77	227.32
844.08	227.32
844.40	227.26
844.71	227.26
845.03	227.25
845.34	227.24
845.65	227.24
845.97	227.24
846.28	227.25
846.60	227.26
846.91	227.24
847.22	227.23
847.54	227.26
847.85	227.26
848.16	227.26
848.48	227.24
848.79	227.30
849.10	227.32
849.42	227.31
849.73	227.19
850.04	227.21
850.36	227.16
850.67	227.18
850.98	227.19
851.30	227.20
851.61	227.19
851.92	227.18
852.23	227.22
852.55	227.23
852.86	227.23
853.17	227.24
853.49	227.27
853.80	227.30
854.11	227.31
854.42	227.32
854.74	227.30
855.05	227.28
855.36	227.22
855.67	227.22
855.99	227.22
856.30	227.38
856.61	227.37
856.92	227.38
857.23	227.37
857.55	227.36
857.86	227.35
858.17	227.38
858.48	227.35
858.79	227.31
859.11	227.32
859.42	227.31
859.73	227.29
860.04	227.28
860.35	227.24
860.66	227.20
860.98	227.19
861.29	227.21
861.60	227.20
861.91	227.23
862.22	227.20
862.53	227.16
862.84	226.99
863.16	227.01
863.47	226.98
863.78	226.98
864.09	226.99
864.40	227.00
864.71	227.00
865.02	227.02
865.33	227.03
865.64	227.00
865.95	226.99
866.27	227.06
866.58	227.06
866.89	227.08
867.20	227.08
867.51	227.06
867.82	227.06
868.13	227.11
868.44	227.09
868.75	227.12
869.06	227.14
869.37	227.15
869.68	227.12
869.99	227.15
870.30	227.15
870.61	227.15
870.92	227.13
871.23	227.12
871.54	227.13
871.85	227.15
872.16	227.18
872.47	227.17
872.78	227.11
873.09	227.11
873.40	227.10
873.71	227.11
874.02	227.12
874.33	227.09
874.64	227.05
874.95	227.06
875.26	227.04
875.56	227.03
875.87	227.03
876.18	227.02
876.49	227.13
876.80	227.10
877.11	227.08
877.42	227.08
877.73	227.08
878.04	227.05
878.35	227.06
878.66	227.05
878.96	227.04
879.27	227.03
879.58	227.03
879.89	227.01
880.20	227.04
880.51	227.05
880.82	227.06
881.12	227.08
881.43	227.05
881.74	227.03
882.05	227.02
882.36	227.02
882.67	227.03
882.97	226.89
883.28	226.89
883.59	226.88
883.90	226.89
884.21	226.91
884.51	226.90
884.82	226.87
885.13	226.88
885.44	226.88
885.74	226.89
886.05	226.87
886.36	226.89
886.67	226.85
886.98	226.90
887.28	226.91
887.59	226.91
887.90	226.93
888.20	226.93
888.51	226.96
888.82	226.94
889.13	226.96
889.43	227.08
889.74	227.08
890.05	227.08
890.35	227.07
890.66	227.06
890.97	227.06
891.28	227.06
891.58	227.05
891.89	227.05
892.20	227.05
892.50	227.04
892.81	227.03
893.12	227.01
893.42	226.94
893.73	226.94
894.04	226.92
894.34	226.92
894.65	226.92
894.95	226.91
895.26	226.91
895.57	226.96
895.87	226.84
896.18	226.85
896.48	226.86
896.79	226.86
897.10	226.86
897.40	226.87
897.71	226.88
898.01	226.87
898.32	226.88
898.63	226.87
898.93	226.88
899.24	226.87
899.54	226.87
899.85	226.87
900.15	226.85
900.46	226.86
900.76	226.87
901.07	226.86
901.38	226.84
901.68	226.85
901.99	226.78
902.29	226.78
902.60	226.77
902.90	226.77
903.21	226.77
903.51	226.76
903.82	226.77
904.12	226.77
904.43	226.79
904.73	226.78
905.03	226.79
905.34	226.90
905.64	226.90
905.95	226.89
906.25	226.89
906.56	226.90
906.86	226.88
907.17	226.87
907.47	226.88
907.77	226.86
908.08	226.84
908.38	226.85
908.69	226.85
908.99	226.87
909.30	226.86
909.60	226.86
909.90	226.86
910.21	226.84
910.51	226.81
910.81	226.79
911.12	226.79
911.42	226.79
911.73	226.67
912.03	226.68
912.33	226.71
912.64	226.71
912.94	226.70
913.24	226.69
913.55	226.68
913.85	226.68
914.15	226.72
914.46	226.72
914.76	226.72
915.06	226.71
915.37	226.70
915.67	226.69
915.97	226.69
916.27	226.67
916.58	226.67
916.88	226.66
917.18	226.66
917.49	226.75
917.79	226.73
918.09	226.75
918.39	226.79
918.70	226.77
919.00	226.78
919.30	226.82
919.60	226.82
919.91	226.81
920.21	226.81
920.51	226.77
920.81	226.78
921.12	226.80
921.42	226.79
921.72	226.79
922.02	226.80
922.32	226.82
922.63	226.82
922.93	226.90
923.23	226.91
923.53	226.90
923.83	226.81
924.13	226.82
924.44	226.81
924.74	226.82
925.04	226.85
925.34	226.85
925.64	226.80
925.94	226.80
926.24	226.86
926.55	226.86
926.85	226.89
927.15	226.89
927.45	226.87
927.75	226.86
928.05	226.86
928.35	226.84
928.65	226.86
928.95	226.87
929.26	226.79
929.56	226.81
929.86	226.82
930.16	226.82
930.46	226.81
930.76	226.80
931.06	226.73
931.36	226.71
931.66	226.71
931.96	226.72
932.26	226.73
932.56	226.68
932.86	226.67
933.16	226.66
933.46	226.66
933.76	226.65
934.06	226.68
934.36	226.72
934.66	226.72
934.96	226.69
935.26	226.71
935.56	226.72
935.86	226.69
936.16	226.67
936.46	226.66
936.76	226.65
937.06	226.65
937.36	226.67
937.66	226.65
937.96	226.65
938.26	226.62
938.56	226.61
938.86	226.62
939.16	226.66
939.46	226.67
939.76	226.67
940.06	226.66
940.35	226.63
940.65	226.57
940.95	226.60
941.25	226.57
941.55	226.54
941.85	226.54
942.15	226.58
942.45	226.62
942.75	226.63
943.04	226.65
943.34	226.67
943.64	226.65
943.94	226.64
944.24	226.63
944.54	226.64
944.84	226.64
945.13	226.61
945.43	226.59
945.73	226.57
946.03	226.55
946.33	226.54
946.62	226.53
946.92	226.53
947.22	226.54
947.52	226.55
947.82	226.56
948.11	226.55
948.41	226.51
948.71	226.47
949.01	226.48
949.31	226.46
949.60	226.44
949.90	226.47
950.20	226.46
950.50	226.47
950.79	226.46
951.09	226.48
951.39	226.47
951.69	226.46
951.98	226.50
952.28	226.51
952.58	226.52
952.87	226.51
953.17	226.52
953.47	226.49
953.76	226.49
954.06	226.47
954.36	226.45
954.66	226.47
954.95	226.50
955.25	226.50
955.55	226.53
955.84	226.52
956.14	226.52
956.44	226.53
956.73	226.51
957.03	226.52
957.32	226.52
957.62	226.53
957.92	226.56
958.21	226.54
958.51	226.70
958.81	226.71
959.10	226.73
959.40	226.75
959.69	226.76
959.99	226.78
960.29	226.79
960.58	226.79
960.88	226.82
961.17	226.81
961.47	226.82
961.76	226.80
962.06	226.83
962.36	226.81
962.65	226.82
962.95	226.83
963.24	226.82
963.54	226.82
963.83	226.82
964.13	226.81
964.42	226.80
964.72	226.69
965.01	226.69
965.31	226.68
965.60	226.64
965.90	226.71
966.19	226.68
966.49	226.70
966.78	226.69
967.08	226.67
967.37	226.67
967.67	226.65
967.96	226.67
968.26	226.67
968.55	226.68
968.85	226.67
969.14	226.67
969.43	226.68
969.73	226.66
970.02	226.66
970.32	226.65
970.61	226.63
970.91	226.61
971.20	226.59
971.49	226.57
971.79	226.61
972.08	226.53
972.38	226.55
972.67	226.53
972.96	226.55
973.26	226.54
973.55	226.59
973.85	226.57
974.14	226.56
974.43	226.56
974.73	226.54
975.02	226.53
975.31	226.52
975.61	226.53
975.90	226.53
976.19	226.53
976.49	226.54
976.78	226.55
977.07	226.54
977.37	226.55
977.66	226.58
977.95	226.56
978.24	226.57
978.54	226.59
978.83	226.59
979.12	226.59
979.42	226.58
979.71	226.55
980.00	226.56
980.29	226.58
980.59	226.56
980.88	226.60
981.17	226.61
981.46	226.60
981.76	226.61
982.05	226.64
982.34	226.65
982.63	226.63
982.93	226.63
983.22	226.66
983.51	226.67
983.80	226.67
984.09	226.69
984.39	226.68
984.68	226.67
984.97	226.67
985.26	226.67
985.55	226.68
985.85	226.65
986.14	226.67
986.43	226.68
986.72	226.68
987.01	226.65
987.30	226.65
987.59	226.65
987.89	226.65
988.18	226.63
988.47	226.60
988.76	226.61
989.05	226.61
989.34	226.58
989.63	226.62
989.92	226.60
990.22	226.57
990.51	226.58
990.80	226.56
991.09	226.57
991.38	226.58
991.67	226.57
991.96	226.57
992.25	226.57
992.54	226.55
992.83	226.54
993.12	226.54
993.41	226.54
993.70	226.58
993.99	226.60
994.28	226.61
994.58	226.64
994.87	226.62
995.16	226.61
995.45	226.60
995.74	226.55
996.03	226.57
996.32	226.58
996.61	226.60
996.90	226.61
997.19	226.59
997.48	226.59
997.77	226.57
998.06	226.57
998.34	226.57
998.63	226.56
998.92	226.57
999.21	226.58
999.50	226.59
999.79	226.55
1000.08	226.55
1000.37	226.54
1000.66	226.53
1000.95	226.57
1001.24	226.58
1001.53	226.61
1001.82	226.62
1002.11	226.59
1002.40	226.61
1002.68	226.63
1002.97	226.71
1003.26	226.70
1003.55	226.68
1003.84	226.71
1004.13	226.75
1004.42	226.74
1004.71	226.75
1004.99	226.74
1005.28	226.76
1005.57	226.75
1005.86	226.74
1006.15	226.73
1006.44	226.72
1006.72	226.74
1007.01	226.70
1007.30	226.70
1007.59	226.69
1007.88	226.67
1008.17	226.68
1008.45	226.65
1008.74	226.60
1009.03	226.55
1009.32	226.56
1009.60	226.56
1009.89	226.55
1010.18	226.50
1010.47	226.49
1010.76	226.48
1011.04	226.48
1011.33	226.48
1011.62	226.48
1011.91	226.48
1012.19	226.49
1012.48	226.49
1012.77	226.49
1013.05	226.55
1013.34	226.55
1013.63	226.54
1013.92	226.56
1014.20	226.55
1014.49	226.55
1014.78	226.56
1015.06	226.52
1015.35	226.54
1015.64	226.55
1015.92	226.58
1016.21	226.60
1016.50	226.61
1016.78	226.63
1017.07	226.63
1017.36	226.60
1017.64	226.60
1017.93	226.62
1018.22	226.60
1018.50	226.60
1018.79	226.58
1019.08	226.53
1019.36	226.53
1019.65	226.52
1019.93	226.54
1020.22	226.56
1020.51	226.62
1020.79	226.60
1021.08	226.24
1021.36	226.45
1021.65	226.52
1021.94	226.26
1022.22	226.56
1022.51	226.28
1022.79	227.03
1023.08	226.64
1023.36	228.01
1023.65	226.14
>>>>>End Processed Spectral Data<<<<<
