SpectraSuite Data File
++++++++++++++++++++++++++++++++++++
Date: Sat Oct 03 09:59:53 EDT 2015
User: lab3
Dark Spectrum Present: No
Reference Spectrum Present: No
Number of Sampled Component Spectra: 1
Spectrometers: USB2E7196
Integration Time (usec): 46000 (USB2E7196)
Spectra Averaged: 12000 (USB2E7196)
Boxcar Smoothing: 10 (USB2E7196)
Correct for Electrical Dark: No (USB2E7196)
Strobe/Lamp Enabled: No (USB2E7196)
Correct for Detector Non-linearity: No (USB2E7196)
Correct for Stray Light: No (USB2E7196)
Number of Pixels in Processed Spectrum: 2048
>>>>>Begin Processed Spectral Data<<<<<
339.09	0.00
339.48	213.21
339.86	214.70
340.24	216.05
340.63	217.54
341.01	220.83
341.39	220.20
341.78	221.63
342.16	222.80
342.54	223.26
342.93	211.75
343.31	222.45
343.69	222.99
344.07	223.45
344.46	223.89
344.84	224.28
345.22	224.50
345.60	224.76
345.99	224.95
346.37	225.09
346.75	225.20
347.13	225.28
347.52	225.35
347.90	225.45
348.28	225.48
348.66	225.54
349.05	225.53
349.43	225.59
349.81	225.65
350.19	225.70
350.57	225.77
350.96	225.85
351.34	225.95
351.72	226.04
352.10	226.15
352.48	226.23
352.87	226.27
353.25	226.34
353.63	226.40
354.01	226.46
354.39	226.54
354.77	226.62
355.15	226.73
355.54	226.77
355.92	226.80
356.30	226.87
356.68	227.02
357.06	227.10
357.44	227.15
357.82	227.20
358.20	227.32
358.58	227.38
358.97	227.45
359.35	227.53
359.73	227.61
360.11	227.66
360.49	227.72
360.87	227.78
361.25	227.83
361.63	227.92
362.01	227.97
362.39	228.00
362.77	228.05
363.15	228.07
363.53	228.10
363.91	228.14
364.29	228.16
364.67	228.06
365.05	228.09
365.43	228.12
365.81	228.15
366.19	228.16
366.57	228.22
366.95	228.22
367.33	228.19
367.71	228.18
368.09	228.20
368.47	228.19
368.85	228.18
369.23	228.19
369.61	228.13
369.99	228.16
370.37	228.16
370.75	228.23
371.13	228.20
371.51	228.16
371.89	228.14
372.27	228.12
372.65	228.10
373.03	228.06
373.41	228.01
373.78	227.96
374.16	227.86
374.54	227.77
374.92	227.72
375.30	227.68
375.68	227.61
376.06	227.57
376.44	227.52
376.82	227.47
377.19	227.43
377.57	227.38
377.95	227.29
378.33	227.23
378.71	227.06
379.09	227.02
379.47	226.99
379.84	226.92
380.22	226.86
380.60	226.79
380.98	226.74
381.36	226.69
381.73	226.63
382.11	226.61
382.49	226.57
382.87	226.51
383.25	226.46
383.62	226.57
384.00	226.50
384.38	226.46
384.76	226.45
385.13	226.44
385.51	226.40
385.89	226.35
386.27	226.31
386.64	226.30
387.02	226.25
387.40	226.21
387.78	226.18
388.15	226.16
388.53	226.13
388.91	226.10
389.29	226.07
389.66	226.07
390.04	226.03
390.42	226.03
390.79	226.02
391.17	226.00
391.55	225.84
391.92	225.83
392.30	225.84
392.68	225.80
393.05	225.77
393.43	225.77
393.81	225.78
394.18	225.77
394.56	225.76
394.94	225.80
395.31	225.80
395.69	225.84
396.06	225.87
396.44	225.90
396.82	225.91
397.19	226.00
397.57	226.01
397.95	226.06
398.32	226.05
398.70	226.10
399.07	226.17
399.45	226.21
399.82	226.26
400.20	226.30
400.58	226.36
400.95	226.37
401.33	226.46
401.70	226.62
402.08	226.72
402.45	226.81
402.83	226.93
403.20	227.04
403.58	227.14
403.95	227.28
404.33	227.44
404.71	227.59
405.08	227.80
405.46	227.97
405.83	228.16
406.21	228.36
406.58	228.59
406.96	228.80
407.33	229.06
407.70	229.35
408.08	229.74
408.45	230.08
408.83	230.45
409.20	230.79
409.58	231.09
409.95	231.50
410.33	231.95
410.70	232.38
411.08	232.88
411.45	233.41
411.82	233.94
412.20	234.55
412.57	235.28
412.95	235.84
413.32	236.59
413.69	237.35
414.07	238.17
414.44	239.06
414.82	239.96
415.19	241.02
415.56	242.09
415.94	243.20
416.31	244.45
416.68	245.69
417.06	247.14
417.43	248.50
417.81	250.05
418.18	251.64
418.55	253.38
418.93	255.18
419.30	257.07
419.67	259.07
420.04	261.12
420.42	263.26
420.79	265.74
421.16	268.24
421.54	270.78
421.91	273.43
422.28	276.18
422.66	279.14
423.03	281.97
423.40	284.94
423.77	288.12
424.15	291.37
424.52	294.76
424.89	298.44
425.26	302.09
425.64	305.49
426.01	309.30
426.38	313.20
426.75	317.22
427.13	321.34
427.50	325.66
427.87	330.15
428.24	334.68
428.61	339.03
428.99	343.74
429.36	348.91
429.73	353.84
430.10	358.78
430.47	363.83
430.85	369.03
431.22	374.61
431.59	380.34
431.96	385.94
432.33	392.16
432.70	398.08
433.08	405.06
433.45	411.67
433.82	418.19
434.19	425.46
434.56	432.63
434.93	439.55
435.30	446.40
435.68	454.13
436.05	461.72
436.42	469.27
436.79	476.17
437.16	483.60
437.53	491.57
437.90	499.55
438.27	507.35
438.64	515.78
439.01	523.42
439.38	530.41
439.75	537.13
440.13	544.71
440.50	551.93
440.87	557.65
441.24	563.90
441.61	570.74
441.98	575.71
442.35	581.61
442.72	587.63
443.09	593.36
443.46	596.97
443.83	599.60
444.20	601.78
444.57	605.07
444.94	606.90
445.31	608.80
445.68	610.40
446.05	611.54
446.42	611.10
446.79	610.45
447.16	609.87
447.53	609.33
447.90	606.81
448.27	604.39
448.64	600.79
449.01	598.25
449.37	593.27
449.74	588.77
450.11	582.99
450.48	576.68
450.85	570.37
451.22	564.98
451.59	559.73
451.96	554.97
452.33	548.07
452.70	541.96
453.07	534.51
453.43	527.08
453.80	519.88
454.17	512.97
454.54	506.63
454.91	499.45
455.28	492.75
455.65	486.43
456.02	479.76
456.38	474.39
456.75	467.49
457.12	461.93
457.49	456.32
457.86	451.05
458.23	446.45
458.59	441.33
458.96	436.08
459.33	431.46
459.70	426.76
460.07	423.20
460.43	419.00
460.80	415.09
461.17	411.71
461.54	408.02
461.91	404.57
462.27	401.06
462.64	398.25
463.01	394.99
463.38	391.71
463.74	388.76
464.11	386.15
464.48	383.81
464.85	381.25
465.21	379.34
465.58	377.18
465.95	374.68
466.32	372.72
466.68	370.79
467.05	368.84
467.42	366.95
467.78	364.89
468.15	362.99
468.52	361.62
468.88	359.75
469.25	358.05
469.62	356.70
469.98	355.22
470.35	353.90
470.72	352.71
471.08	351.49
471.45	350.47
471.82	349.32
472.18	348.11
472.55	347.33
472.92	346.33
473.28	345.55
473.65	344.72
474.02	343.92
474.38	343.25
474.75	342.85
475.11	342.28
475.48	342.02
475.85	341.72
476.21	341.56
476.58	341.44
476.94	341.55
477.31	341.59
477.67	341.67
478.04	341.86
478.41	342.13
478.77	342.54
479.14	342.79
479.50	343.29
479.87	343.95
480.23	344.60
480.60	345.26
480.96	345.91
481.33	346.90
481.69	347.87
482.06	348.85
482.42	349.74
482.79	350.85
483.15	352.14
483.52	353.61
483.88	355.02
484.25	356.54
484.61	358.11
484.98	359.80
485.34	361.72
485.71	363.73
486.07	365.87
486.44	368.02
486.80	370.40
487.17	372.88
487.53	375.60
487.90	378.44
488.26	381.54
488.62	384.80
488.99	388.07
489.35	391.51
489.72	395.24
490.08	399.17
490.44	403.22
490.81	407.44
491.17	411.76
491.54	416.41
491.90	421.19
492.26	426.32
492.63	431.69
492.99	437.29
493.36	443.11
493.72	449.21
494.08	455.46
494.45	462.11
494.81	469.01
495.17	476.09
495.54	483.57
495.90	491.35
496.26	499.33
496.63	507.53
496.99	516.05
497.35	524.98
497.72	534.20
498.08	543.63
498.44	553.36
498.80	563.69
499.17	574.27
499.53	585.20
499.89	596.49
500.26	608.01
500.62	619.82
500.98	632.27
501.34	644.91
501.71	658.07
502.07	671.40
502.43	685.29
502.79	699.41
503.16	713.99
503.52	728.76
503.88	743.96
504.24	759.64
504.60	775.51
504.97	791.88
505.33	808.67
505.69	826.39
506.05	844.45
506.41	862.44
506.78	880.62
507.14	899.30
507.50	918.44
507.86	937.92
508.22	957.64
508.59	977.19
508.95	997.52
509.31	1018.59
509.67	1040.39
510.03	1062.22
510.39	1084.08
510.75	1106.10
511.12	1128.42
511.48	1150.94
511.84	1173.48
512.20	1196.41
512.56	1220.22
512.92	1244.08
513.28	1267.51
513.64	1291.20
514.00	1315.36
514.37	1339.84
514.73	1364.30
515.09	1388.63
515.45	1413.27
515.81	1438.12
516.17	1463.07
516.53	1487.60
516.89	1512.00
517.25	1536.56
517.61	1560.96
517.97	1585.83
518.33	1610.24
518.69	1634.59
519.05	1659.36
519.41	1684.42
519.77	1709.78
520.13	1734.33
520.49	1758.82
520.85	1783.62
521.21	1808.07
521.57	1832.83
521.93	1857.05
522.29	1881.82
522.65	1906.04
523.01	1930.25
523.37	1954.03
523.73	1978.57
524.09	2002.78
524.45	2026.76
524.81	2050.42
525.17	2073.94
525.53	2096.90
525.89	2120.27
526.25	2143.61
526.61	2165.96
526.97	2188.46
527.33	2210.81
527.68	2232.97
528.04	2254.31
528.40	2274.74
528.76	2295.30
529.12	2315.44
529.48	2335.35
529.84	2353.32
530.20	2371.94
530.56	2389.97
530.91	2408.13
531.27	2425.92
531.63	2442.87
531.99	2459.35
532.35	2475.11
532.71	2491.06
533.07	2507.65
533.42	2522.47
533.78	2538.22
534.14	2554.20
534.50	2569.29
534.86	2584.10
535.21	2596.96
535.57	2610.32
535.93	2623.48
536.29	2635.53
536.65	2647.31
537.00	2658.31
537.36	2670.36
537.72	2681.05
538.08	2691.16
538.44	2700.56
538.79	2709.60
539.15	2717.86
539.51	2725.81
539.87	2733.13
540.22	2738.32
540.58	2743.60
540.94	2750.01
541.29	2754.97
541.65	2758.17
542.01	2760.50
542.37	2762.20
542.72	2765.27
543.08	2766.63
543.44	2768.57
543.79	2769.48
544.15	2769.58
544.51	2770.10
544.87	2769.45
545.22	2768.09
545.58	2766.05
545.94	2763.96
546.29	2760.61
546.65	2757.24
547.01	2753.71
547.36	2750.90
547.72	2748.41
548.07	2744.11
548.43	2738.40
548.79	2731.58
549.14	2726.03
549.50	2720.90
549.86	2714.76
550.21	2707.45
550.57	2701.14
550.92	2692.55
551.28	2684.44
551.64	2676.72
551.99	2668.58
552.35	2659.84
552.70	2651.30
553.06	2643.13
553.41	2634.31
553.77	2625.30
554.13	2616.24
554.48	2606.38
554.84	2595.23
555.19	2584.43
555.55	2573.73
555.90	2563.11
556.26	2553.13
556.61	2542.03
556.97	2529.25
557.32	2517.00
557.68	2504.76
558.03	2492.18
558.39	2480.83
558.74	2469.83
559.10	2457.05
559.45	2444.47
559.81	2432.46
560.16	2419.84
560.52	2407.49
560.87	2395.56
561.23	2382.75
561.58	2369.97
561.94	2356.91
562.29	2343.33
562.64	2330.45
563.00	2317.30
563.35	2304.48
563.71	2291.49
564.06	2278.45
564.42	2266.15
564.77	2253.30
565.12	2240.28
565.48	2227.25
565.83	2214.14
566.19	2201.17
566.54	2188.21
566.89	2174.13
567.25	2160.16
567.60	2147.60
567.96	2134.10
568.31	2119.24
568.66	2105.07
569.02	2092.13
569.37	2079.13
569.72	2066.60
570.08	2052.85
570.43	2038.72
570.78	2024.53
571.14	2009.60
571.49	1995.23
571.84	1981.41
572.20	1966.41
572.55	1951.62
572.90	1936.82
573.26	1922.04
573.61	1906.78
573.96	1891.94
574.31	1877.30
574.67	1862.80
575.02	1847.20
575.37	1831.71
575.72	1817.02
576.08	1802.67
576.43	1787.20
576.78	1772.12
577.13	1757.33
577.49	1742.90
577.84	1729.06
578.19	1714.27
578.54	1699.63
578.90	1684.53
579.25	1669.34
579.60	1655.72
579.95	1642.02
580.30	1628.12
580.66	1613.96
581.01	1599.70
581.36	1585.40
581.71	1572.11
582.06	1558.74
582.42	1545.59
582.77	1532.51
583.12	1519.42
583.47	1506.20
583.82	1493.09
584.17	1479.62
584.53	1465.85
584.88	1452.45
585.23	1438.64
585.58	1425.59
585.93	1412.75
586.28	1400.68
586.63	1388.55
586.98	1376.00
587.34	1363.52
587.69	1350.70
588.04	1338.23
588.39	1326.12
588.74	1314.19
589.09	1302.05
589.44	1289.46
589.79	1277.49
590.14	1265.63
590.49	1253.69
590.84	1241.94
591.19	1230.56
591.54	1219.00
591.89	1207.55
592.25	1196.31
592.60	1184.68
592.95	1173.49
593.30	1162.55
593.65	1151.30
594.00	1140.21
594.35	1129.63
594.70	1118.61
595.05	1108.48
595.40	1098.27
595.75	1087.90
596.10	1078.04
596.45	1067.93
596.80	1058.18
597.15	1048.13
597.50	1038.25
597.85	1028.82
598.19	1019.19
598.54	1009.58
598.89	1000.45
599.24	991.65
599.59	982.62
599.94	974.53
600.29	966.23
600.64	957.65
600.99	948.70
601.34	940.09
601.69	931.17
602.04	922.93
602.39	914.51
602.74	906.15
603.08	897.75
603.43	889.30
603.78	881.04
604.13	872.92
604.48	864.84
604.83	856.91
605.18	848.89
605.53	841.04
605.87	833.03
606.22	825.29
606.57	817.51
606.92	809.68
607.27	801.76
607.62	794.13
607.96	786.91
608.31	780.14
608.66	773.17
609.01	766.46
609.36	759.86
609.70	753.08
610.05	746.25
610.40	739.70
610.75	733.13
611.10	726.90
611.44	720.50
611.79	714.22
612.14	707.86
612.49	701.57
612.83	695.58
613.18	689.73
613.53	683.80
613.88	677.86
614.22	672.31
614.57	666.74
614.92	661.03
615.27	655.41
615.61	649.84
615.96	644.33
616.31	638.83
616.65	633.38
617.00	628.12
617.35	622.99
617.70	617.88
618.04	612.86
618.39	607.75
618.74	602.88
619.08	598.06
619.43	593.36
619.78	588.68
620.12	583.96
620.47	579.39
620.82	574.95
621.16	570.56
621.51	566.04
621.85	561.56
622.20	557.22
622.55	552.94
622.89	548.74
623.24	544.56
623.59	540.39
623.93	536.39
624.28	532.49
624.62	528.68
624.97	524.91
625.32	521.09
625.66	517.24
626.01	513.36
626.35	509.55
626.70	505.77
627.04	502.18
627.39	498.52
627.73	495.04
628.08	491.63
628.43	488.22
628.77	484.89
629.12	481.68
629.46	478.52
629.81	475.24
630.15	471.95
630.50	468.76
630.84	465.63
631.19	462.56
631.53	459.60
631.88	456.60
632.22	453.63
632.57	450.93
632.91	448.28
633.26	445.71
633.60	443.16
633.95	440.66
634.29	438.08
634.64	435.58
634.98	432.89
635.32	430.33
635.67	427.97
636.01	425.54
636.36	423.14
636.70	420.88
637.05	418.64
637.39	416.44
637.73	414.25
638.08	412.18
638.42	410.08
638.77	407.85
639.11	405.57
639.45	403.37
639.80	401.10
640.14	398.94
640.49	396.78
640.83	394.59
641.17	392.50
641.52	390.46
641.86	388.44
642.20	386.62
642.55	384.65
642.89	382.70
643.23	380.85
643.58	379.16
643.92	377.34
644.26	375.58
644.61	373.88
644.95	372.14
645.29	370.32
645.64	368.53
645.98	366.83
646.32	365.26
646.66	363.67
647.01	362.10
647.35	360.58
647.69	359.03
648.04	357.62
648.38	356.13
648.72	354.66
649.06	353.19
649.41	351.73
649.75	350.34
650.09	348.96
650.43	347.58
650.78	346.15
651.12	344.77
651.46	343.44
651.80	342.13
652.14	340.85
652.49	339.63
652.83	338.37
653.17	337.16
653.51	335.98
653.85	334.86
654.20	333.69
654.54	332.46
654.88	331.31
655.22	330.18
655.56	329.05
655.90	327.98
656.25	326.94
656.59	325.88
656.93	324.90
657.27	323.91
657.61	322.88
657.95	321.89
658.29	320.89
658.64	319.95
658.98	319.00
659.32	318.08
659.66	317.20
660.00	316.36
660.34	315.50
660.68	314.62
661.02	313.71
661.36	312.84
661.70	312.01
662.05	311.21
662.39	310.41
662.73	309.68
663.07	308.97
663.41	308.20
663.75	307.44
664.09	306.68
664.43	305.88
664.77	305.17
665.11	304.41
665.45	303.72
665.79	303.03
666.13	302.32
666.47	301.60
666.81	300.85
667.15	300.09
667.49	299.43
667.83	298.81
668.17	298.18
668.51	297.58
668.85	297.02
669.19	296.49
669.53	295.86
669.87	295.22
670.21	294.59
670.55	294.02
670.89	293.53
671.23	292.98
671.57	292.45
671.91	291.96
672.25	291.50
672.58	291.04
672.92	290.49
673.26	290.02
673.60	289.56
673.94	289.12
674.28	288.71
674.62	288.26
674.96	287.76
675.30	287.32
675.64	286.85
675.97	286.36
676.31	285.85
676.65	285.39
676.99	285.00
677.33	284.54
677.67	284.10
678.01	283.59
678.34	283.17
678.68	282.77
679.02	282.31
679.36	281.86
679.70	281.41
680.04	281.00
680.37	280.59
680.71	280.20
681.05	279.81
681.39	279.39
681.73	278.95
682.06	278.53
682.40	278.13
682.74	277.78
683.08	277.47
683.42	277.10
683.75	276.76
684.09	276.33
684.43	275.98
684.77	275.62
685.10	275.31
685.44	274.96
685.78	274.61
686.12	274.29
686.45	273.94
686.79	273.58
687.13	273.26
687.46	272.89
687.80	272.55
688.14	272.16
688.48	271.84
688.81	271.51
689.15	271.21
689.49	270.86
689.82	270.51
690.16	270.10
690.50	269.77
690.83	269.42
691.17	269.08
691.51	268.75
691.84	268.44
692.18	268.08
692.52	267.72
692.85	267.38
693.19	267.09
693.52	266.76
693.86	266.44
694.20	266.12
694.53	265.81
694.87	265.48
695.21	265.16
695.54	264.84
695.88	264.52
696.21	264.16
696.55	263.86
696.88	263.55
697.22	263.24
697.56	262.93
697.89	262.58
698.23	262.28
698.56	261.95
698.90	261.65
699.23	261.32
699.57	261.01
699.90	260.69
700.24	260.36
700.58	260.08
700.91	259.83
701.25	259.64
701.58	259.41
701.92	259.16
702.25	258.89
702.59	258.60
702.92	258.32
703.26	258.03
703.59	257.74
703.93	257.56
704.26	257.29
704.60	257.01
704.93	256.74
705.26	256.45
705.60	256.22
705.93	255.92
706.27	255.69
706.60	255.47
706.94	255.26
707.27	254.96
707.61	254.68
707.94	254.39
708.27	254.00
708.61	253.67
708.94	253.38
709.28	253.13
709.61	252.86
709.94	252.63
710.28	252.40
710.61	252.18
710.95	251.84
711.28	251.67
711.61	251.43
711.95	251.24
712.28	251.00
712.61	250.74
712.95	250.59
713.28	250.42
713.61	250.16
713.95	249.88
714.28	249.67
714.61	249.44
714.95	249.22
715.28	249.00
715.61	248.80
715.95	248.60
716.28	248.40
716.61	248.23
716.95	248.00
717.28	247.79
717.61	247.57
717.94	247.37
718.28	247.07
718.61	246.86
718.94	246.63
719.27	246.44
719.61	246.26
719.94	246.03
720.27	245.75
720.60	245.56
720.94	245.37
721.27	245.18
721.60	245.02
721.93	244.83
722.27	244.69
722.60	244.51
722.93	244.31
723.26	244.13
723.59	243.91
723.93	243.75
724.26	243.57
724.59	243.39
724.92	243.23
725.25	243.11
725.59	242.95
725.92	242.81
726.25	242.65
726.58	242.48
726.91	242.31
727.24	242.18
727.57	242.02
727.91	241.85
728.24	241.72
728.57	241.55
728.90	241.42
729.23	241.22
729.56	241.12
729.89	240.97
730.22	240.80
730.55	240.66
730.89	240.51
731.22	240.36
731.55	240.21
731.88	240.06
732.21	239.89
732.54	239.74
732.87	239.60
733.20	239.47
733.53	239.33
733.86	239.20
734.19	239.05
734.52	238.94
734.85	238.90
735.18	238.74
735.51	238.64
735.84	238.51
736.17	238.43
736.50	238.24
736.83	238.27
737.16	238.15
737.49	238.04
737.82	237.92
738.15	237.82
738.48	237.70
738.81	237.59
739.14	237.46
739.47	237.34
739.80	237.21
740.13	237.11
740.46	236.97
740.79	236.84
741.12	236.73
741.45	236.59
741.78	236.40
742.11	236.33
742.44	236.19
742.77	236.09
743.10	235.96
743.43	235.85
743.75	235.60
744.08	235.70
744.41	235.58
744.74	235.47
745.07	235.34
745.40	235.26
745.73	235.21
746.06	235.12
746.39	235.04
746.71	234.94
747.04	234.83
747.37	234.74
747.70	234.67
748.03	234.58
748.36	234.51
748.68	234.42
749.01	234.29
749.34	234.21
749.67	234.12
750.00	234.05
750.33	234.06
750.65	233.98
750.98	233.70
751.31	233.62
751.64	233.55
751.97	233.54
752.29	233.44
752.62	233.30
752.95	233.21
753.28	233.10
753.60	233.02
753.93	232.98
754.26	232.91
754.59	232.78
754.91	232.69
755.24	232.60
755.57	232.58
755.90	232.50
756.22	232.41
756.55	232.31
756.88	232.20
757.20	232.04
757.53	231.93
757.86	231.85
758.19	231.79
758.51	231.71
758.84	231.57
759.17	231.49
759.49	231.42
759.82	231.42
760.15	231.37
760.47	231.29
760.80	231.19
761.13	231.14
761.45	231.08
761.78	231.02
762.11	230.97
762.43	230.84
762.76	230.78
763.08	230.74
763.41	230.69
763.74	230.64
764.06	230.58
764.39	230.53
764.71	230.48
765.04	230.41
765.37	230.34
765.69	230.29
766.02	230.24
766.34	230.18
766.67	230.08
767.00	230.05
767.32	230.07
767.65	230.11
767.97	230.05
768.30	230.00
768.62	229.95
768.95	229.89
769.27	229.84
769.60	229.81
769.92	229.74
770.25	229.68
770.57	229.61
770.90	229.57
771.22	229.51
771.55	229.47
771.87	229.44
772.20	229.39
772.52	229.46
772.85	229.58
773.17	229.54
773.50	229.49
773.82	229.43
774.15	229.32
774.47	229.20
774.80	229.14
775.12	229.10
775.45	229.06
775.77	229.04
776.09	229.01
776.42	228.98
776.74	228.99
777.07	228.95
777.39	228.93
777.72	228.89
778.04	228.87
778.36	228.83
778.69	228.80
779.01	228.79
779.33	228.64
779.66	228.47
779.98	228.43
780.31	228.41
780.63	228.44
780.95	228.44
781.28	228.41
781.60	228.38
781.92	228.35
782.25	228.32
782.57	228.29
782.89	228.26
783.22	228.22
783.54	228.17
783.86	228.15
784.19	228.12
784.51	228.14
784.83	228.10
785.16	228.07
785.48	228.05
785.80	228.02
786.12	228.01
786.45	227.99
786.77	227.98
787.09	227.94
787.42	227.87
787.74	227.84
788.06	227.83
788.38	227.81
788.71	227.78
789.03	227.76
789.35	227.75
789.67	227.72
789.99	227.71
790.32	227.67
790.64	227.66
790.96	227.76
791.28	227.70
791.61	227.67
791.93	227.66
792.25	227.64
792.57	227.70
792.89	227.66
793.21	227.65
793.54	227.62
793.86	227.59
794.18	227.58
794.50	227.53
794.82	227.51
795.14	227.51
795.47	227.52
795.79	227.50
796.11	227.45
796.43	227.43
796.75	227.42
797.07	227.41
797.39	227.38
797.71	227.26
798.04	227.25
798.36	227.25
798.68	227.22
799.00	227.22
799.32	227.14
799.64	227.14
799.96	227.12
800.28	227.13
800.60	227.11
800.92	227.11
801.24	227.09
801.56	227.09
801.89	227.06
802.21	227.05
802.53	227.01
802.85	227.03
803.17	227.08
803.49	227.04
803.81	227.01
804.13	226.98
804.45	226.95
804.77	226.95
805.09	226.93
805.41	226.91
805.73	226.88
806.05	226.83
806.37	226.80
806.69	226.78
807.01	226.75
807.33	226.75
807.65	226.70
807.97	226.75
808.28	226.72
808.60	226.71
808.92	226.67
809.24	226.75
809.56	226.71
809.88	226.66
810.20	226.66
810.52	226.67
810.84	226.65
811.16	226.63
811.48	226.61
811.80	226.64
812.12	226.63
812.43	226.65
812.75	226.65
813.07	226.63
813.39	226.62
813.71	226.60
814.03	226.58
814.35	226.57
814.67	226.51
814.98	226.49
815.30	226.48
815.62	226.45
815.94	226.35
816.26	226.36
816.58	226.32
816.89	226.32
817.21	226.29
817.53	226.29
817.85	226.29
818.17	226.28
818.48	226.22
818.80	226.23
819.12	226.20
819.44	226.17
819.76	226.15
820.07	226.14
820.39	226.14
820.71	226.14
821.03	226.13
821.34	226.12
821.66	226.12
821.98	226.13
822.30	226.12
822.61	226.19
822.93	226.16
823.25	226.16
823.57	226.14
823.88	226.15
824.20	226.14
824.52	226.15
824.83	226.13
825.15	226.11
825.47	226.10
825.79	226.10
826.10	226.09
826.42	226.09
826.74	226.09
827.05	226.08
827.37	226.08
827.69	226.06
828.00	226.06
828.32	226.06
828.64	226.03
828.95	226.09
829.27	226.05
829.58	226.05
829.90	226.06
830.22	226.06
830.53	226.04
830.85	226.02
831.17	225.98
831.48	225.98
831.80	225.98
832.11	225.96
832.43	225.94
832.75	225.93
833.06	226.01
833.38	225.97
833.69	225.95
834.01	225.95
834.32	225.94
834.64	225.93
834.96	225.92
835.27	225.92
835.59	225.87
835.90	225.85
836.22	225.84
836.53	225.81
836.85	225.79
837.16	225.91
837.48	225.91
837.79	225.95
838.11	225.95
838.42	225.94
838.74	225.96
839.05	225.95
839.37	225.94
839.68	225.85
840.00	225.85
840.31	225.86
840.63	225.85
840.94	225.83
841.26	225.82
841.57	225.81
841.88	225.82
842.20	225.80
842.51	225.77
842.83	225.77
843.14	225.88
843.46	225.87
843.77	225.80
844.08	225.79
844.40	225.75
844.71	225.73
845.03	225.72
845.34	225.70
845.65	225.69
845.97	225.69
846.28	225.70
846.60	225.71
846.91	225.68
847.22	225.68
847.54	225.70
847.85	225.71
848.16	225.69
848.48	225.67
848.79	225.71
849.10	225.73
849.42	225.74
849.73	225.62
850.04	225.61
850.36	225.57
850.67	225.58
850.98	225.59
851.30	225.59
851.61	225.59
851.92	225.59
852.23	225.63
852.55	225.63
852.86	225.63
853.17	225.63
853.49	225.66
853.80	225.68
854.11	225.68
854.42	225.70
854.74	225.69
855.05	225.69
855.36	225.63
855.67	225.63
855.99	225.63
856.30	225.78
856.61	225.77
856.92	225.78
857.23	225.78
857.55	225.76
857.86	225.75
858.17	225.77
858.48	225.75
858.79	225.72
859.11	225.73
859.42	225.72
859.73	225.71
860.04	225.70
860.35	225.66
860.66	225.62
860.98	225.61
861.29	225.63
861.60	225.61
861.91	225.64
862.22	225.62
862.53	225.60
862.84	225.45
863.16	225.47
863.47	225.45
863.78	225.43
864.09	225.44
864.40	225.45
864.71	225.44
865.02	225.46
865.33	225.44
865.64	225.42
865.95	225.42
866.27	225.50
866.58	225.48
866.89	225.50
867.20	225.50
867.51	225.48
867.82	225.47
868.13	225.51
868.44	225.48
868.75	225.50
869.06	225.51
869.37	225.52
869.68	225.49
869.99	225.51
870.30	225.52
870.61	225.53
870.92	225.51
871.23	225.50
871.54	225.51
871.85	225.54
872.16	225.56
872.47	225.54
872.78	225.47
873.09	225.48
873.40	225.47
873.71	225.48
874.02	225.49
874.33	225.48
874.64	225.45
874.95	225.47
875.26	225.44
875.56	225.43
875.87	225.42
876.18	225.42
876.49	225.54
876.80	225.52
877.11	225.50
877.42	225.51
877.73	225.51
878.04	225.49
878.35	225.48
878.66	225.48
878.96	225.48
879.27	225.47
879.58	225.47
879.89	225.46
880.20	225.49
880.51	225.48
880.82	225.48
881.12	225.48
881.43	225.46
881.74	225.45
882.05	225.45
882.36	225.45
882.67	225.46
882.97	225.32
883.28	225.31
883.59	225.31
883.90	225.32
884.21	225.33
884.51	225.33
884.82	225.31
885.13	225.30
885.44	225.30
885.74	225.30
886.05	225.30
886.36	225.30
886.67	225.25
886.98	225.31
887.28	225.33
887.59	225.33
887.90	225.33
888.20	225.33
888.51	225.35
888.82	225.33
889.13	225.33
889.43	225.45
889.74	225.44
890.05	225.44
890.35	225.42
890.66	225.40
890.97	225.39
891.28	225.38
891.58	225.38
891.89	225.38
892.20	225.37
892.50	225.35
892.81	225.35
893.12	225.35
893.42	225.28
893.73	225.28
894.04	225.28
894.34	225.29
894.65	225.29
894.95	225.27
895.26	225.28
895.57	225.33
895.87	225.20
896.18	225.22
896.48	225.23
896.79	225.23
897.10	225.25
897.40	225.26
897.71	225.27
898.01	225.26
898.32	225.28
898.63	225.27
898.93	225.29
899.24	225.29
899.54	225.28
899.85	225.27
900.15	225.27
900.46	225.27
900.76	225.27
901.07	225.27
901.38	225.26
901.68	225.28
901.99	225.21
902.29	225.22
902.60	225.21
902.90	225.20
903.21	225.20
903.51	225.18
903.82	225.21
904.12	225.21
904.43	225.21
904.73	225.20
905.03	225.21
905.34	225.33
905.64	225.33
905.95	225.33
906.25	225.33
906.56	225.33
906.86	225.32
907.17	225.31
907.47	225.32
907.77	225.31
908.08	225.28
908.38	225.29
908.69	225.29
908.99	225.31
909.30	225.32
909.60	225.32
909.90	225.33
910.21	225.29
910.51	225.27
910.81	225.27
911.12	225.28
911.42	225.28
911.73	225.14
912.03	225.15
912.33	225.18
912.64	225.17
912.94	225.16
913.24	225.15
913.55	225.14
913.85	225.13
914.15	225.15
914.46	225.17
914.76	225.16
915.06	225.15
915.37	225.13
915.67	225.12
915.97	225.12
916.27	225.09
916.58	225.10
916.88	225.10
917.18	225.09
917.49	225.17
917.79	225.16
918.09	225.18
918.39	225.21
918.70	225.20
919.00	225.20
919.30	225.26
919.60	225.26
919.91	225.25
920.21	225.25
920.51	225.23
920.81	225.22
921.12	225.24
921.42	225.24
921.72	225.25
922.02	225.26
922.32	225.27
922.63	225.28
922.93	225.35
923.23	225.35
923.53	225.35
923.83	225.26
924.13	225.27
924.44	225.27
924.74	225.29
925.04	225.32
925.34	225.31
925.64	225.26
925.94	225.26
926.24	225.33
926.55	225.32
926.85	225.33
927.15	225.33
927.45	225.32
927.75	225.32
928.05	225.32
928.35	225.31
928.65	225.32
928.95	225.33
929.26	225.27
929.56	225.30
929.86	225.31
930.16	225.30
930.46	225.29
930.76	225.29
931.06	225.23
931.36	225.20
931.66	225.21
931.96	225.23
932.26	225.24
932.56	225.18
932.86	225.19
933.16	225.19
933.46	225.18
933.76	225.16
934.06	225.18
934.36	225.23
934.66	225.22
934.96	225.21
935.26	225.21
935.56	225.23
935.86	225.19
936.16	225.18
936.46	225.17
936.76	225.16
937.06	225.14
937.36	225.15
937.66	225.16
937.96	225.15
938.26	225.12
938.56	225.11
938.86	225.12
939.16	225.14
939.46	225.15
939.76	225.16
940.06	225.16
940.35	225.13
940.65	225.07
940.95	225.08
941.25	225.05
941.55	225.03
941.85	225.02
942.15	225.05
942.45	225.09
942.75	225.08
943.04	225.09
943.34	225.12
943.64	225.10
943.94	225.09
944.24	225.09
944.54	225.10
944.84	225.09
945.13	225.07
945.43	225.05
945.73	225.04
946.03	225.03
946.33	225.02
946.62	225.00
946.92	225.00
947.22	225.01
947.52	225.02
947.82	225.03
948.11	225.02
948.41	224.99
948.71	224.95
949.01	224.96
949.31	224.95
949.60	224.93
949.90	224.95
950.20	224.95
950.50	224.94
950.79	224.93
951.09	224.95
951.39	224.95
951.69	224.94
951.98	224.96
952.28	224.97
952.58	224.97
952.87	224.97
953.17	224.99
953.47	224.97
953.76	224.97
954.06	224.95
954.36	224.93
954.66	224.93
954.95	224.96
955.25	224.97
955.55	224.98
955.84	224.96
956.14	224.97
956.44	224.98
956.73	224.96
957.03	224.98
957.32	224.97
957.62	224.97
957.92	224.99
958.21	224.98
958.51	225.12
958.81	225.14
959.10	225.16
959.40	225.18
959.69	225.19
959.99	225.21
960.29	225.21
960.58	225.21
960.88	225.26
961.17	225.25
961.47	225.26
961.76	225.24
962.06	225.27
962.36	225.25
962.65	225.26
962.95	225.27
963.24	225.25
963.54	225.26
963.83	225.27
964.13	225.26
964.42	225.25
964.72	225.14
965.01	225.14
965.31	225.13
965.60	225.09
965.90	225.17
966.19	225.14
966.49	225.15
966.78	225.15
967.08	225.13
967.37	225.13
967.67	225.11
967.96	225.13
968.26	225.13
968.55	225.14
968.85	225.14
969.14	225.13
969.43	225.13
969.73	225.12
970.02	225.12
970.32	225.10
970.61	225.09
970.91	225.05
971.20	225.03
971.49	225.02
971.79	225.04
972.08	224.95
972.38	224.96
972.67	224.95
972.96	224.97
973.26	224.95
973.55	224.99
973.85	224.98
974.14	224.97
974.43	224.98
974.73	224.95
975.02	224.95
975.31	224.95
975.61	224.95
975.90	224.93
976.19	224.93
976.49	224.94
976.78	224.95
977.07	224.96
977.37	224.97
977.66	224.98
977.95	224.96
978.24	224.97
978.54	225.00
978.83	224.99
979.12	224.98
979.42	224.98
979.71	224.96
980.00	224.95
980.29	224.96
980.59	224.94
980.88	224.97
981.17	224.97
981.46	224.98
981.76	224.97
982.05	225.02
982.34	225.03
982.63	225.02
982.93	225.02
983.22	225.05
983.51	225.06
983.80	225.07
984.09	225.09
984.39	225.08
984.68	225.06
984.97	225.07
985.26	225.06
985.55	225.07
985.85	225.05
986.14	225.07
986.43	225.08
986.72	225.08
987.01	225.04
987.30	225.04
987.59	225.03
987.89	225.03
988.18	224.99
988.47	224.98
988.76	224.97
989.05	224.96
989.34	224.94
989.63	224.97
989.92	224.94
990.22	224.93
990.51	224.92
990.80	224.91
991.09	224.92
991.38	224.94
991.67	224.93
991.96	224.92
992.25	224.92
992.54	224.90
992.83	224.90
993.12	224.90
993.41	224.92
993.70	224.97
993.99	224.99
994.28	225.01
994.58	225.03
994.87	225.02
995.16	225.02
995.45	225.01
995.74	224.96
996.03	224.98
996.32	225.00
996.61	225.03
996.90	225.02
997.19	225.02
997.48	225.01
997.77	225.00
998.06	225.01
998.34	225.00
998.63	224.99
998.92	225.00
999.21	225.02
999.50	225.02
999.79	224.98
1000.08	224.97
1000.37	224.98
1000.66	224.96
1000.95	224.99
1001.24	225.00
1001.53	225.02
1001.82	225.02
1002.11	224.99
1002.40	224.99
1002.68	225.02
1002.97	225.11
1003.26	225.10
1003.55	225.08
1003.84	225.09
1004.13	225.14
1004.42	225.13
1004.71	225.13
1004.99	225.12
1005.28	225.15
1005.57	225.14
1005.86	225.13
1006.15	225.11
1006.44	225.09
1006.72	225.11
1007.01	225.08
1007.30	225.08
1007.59	225.07
1007.88	225.07
1008.17	225.08
1008.45	225.06
1008.74	225.00
1009.03	224.94
1009.32	224.95
1009.60	224.95
1009.89	224.93
1010.18	224.88
1010.47	224.87
1010.76	224.88
1011.04	224.88
1011.33	224.87
1011.62	224.88
1011.91	224.89
1012.19	224.90
1012.48	224.90
1012.77	224.90
1013.05	224.94
1013.34	224.94
1013.63	224.93
1013.92	224.94
1014.20	224.93
1014.49	224.94
1014.78	224.95
1015.06	224.91
1015.35	224.91
1015.64	224.93
1015.92	224.95
1016.21	224.96
1016.50	224.96
1016.78	224.97
1017.07	224.98
1017.36	224.96
1017.64	224.94
1017.93	224.95
1018.22	224.94
1018.50	224.93
1018.79	224.93
1019.08	224.88
1019.36	224.89
1019.65	224.88
1019.93	224.91
1020.22	224.93
1020.51	224.99
1020.79	224.98
1021.08	224.72
1021.36	224.66
1021.65	224.90
1021.94	224.78
1022.22	225.01
1022.51	224.67
1022.79	225.54
1023.08	225.09
1023.36	226.45
1023.65	224.64
>>>>>End Processed Spectral Data<<<<<
