SpectraSuite Data File
++++++++++++++++++++++++++++++++++++
Date: Sat Oct 03 12:02:22 EDT 2015
User: lab3
Dark Spectrum Present: No
Reference Spectrum Present: No
Number of Sampled Component Spectra: 1
Spectrometers: USB2E7196
Integration Time (usec): 46000 (USB2E7196)
Spectra Averaged: 12000 (USB2E7196)
Boxcar Smoothing: 10 (USB2E7196)
Correct for Electrical Dark: No (USB2E7196)
Strobe/Lamp Enabled: No (USB2E7196)
Correct for Detector Non-linearity: No (USB2E7196)
Correct for Stray Light: No (USB2E7196)
Number of Pixels in Processed Spectrum: 2048
>>>>>Begin Processed Spectral Data<<<<<
339.09	0.00
339.48	214.18
339.86	215.70
340.24	217.03
340.63	218.48
341.01	221.71
341.39	221.14
341.78	222.52
342.16	223.81
342.54	224.16
342.93	212.62
343.31	223.36
343.69	223.90
344.07	224.36
344.46	224.79
344.84	225.18
345.22	225.40
345.60	225.66
345.99	225.85
346.37	225.99
346.75	226.09
347.13	226.17
347.52	226.24
347.90	226.33
348.28	226.37
348.66	226.43
349.05	226.43
349.43	226.48
349.81	226.54
350.19	226.60
350.57	226.67
350.96	226.75
351.34	226.85
351.72	226.95
352.10	227.05
352.48	227.12
352.87	227.17
353.25	227.24
353.63	227.30
354.01	227.36
354.39	227.44
354.77	227.51
355.15	227.62
355.54	227.67
355.92	227.70
356.30	227.77
356.68	227.92
357.06	228.00
357.44	228.05
357.82	228.10
358.20	228.22
358.58	228.28
358.97	228.34
359.35	228.42
359.73	228.50
360.11	228.55
360.49	228.61
360.87	228.66
361.25	228.73
361.63	228.81
362.01	228.87
362.39	228.90
362.77	228.95
363.15	228.97
363.53	229.00
363.91	229.04
364.29	229.06
364.67	228.96
365.05	228.98
365.43	229.02
365.81	229.05
366.19	229.07
366.57	229.13
366.95	229.13
367.33	229.10
367.71	229.09
368.09	229.11
368.47	229.10
368.85	229.09
369.23	229.11
369.61	229.05
369.99	229.07
370.37	229.07
370.75	229.14
371.13	229.10
371.51	229.06
371.89	229.05
372.27	229.03
372.65	229.01
373.03	228.97
373.41	228.92
373.78	228.87
374.16	228.77
374.54	228.69
374.92	228.63
375.30	228.59
375.68	228.53
376.06	228.49
376.44	228.43
376.82	228.39
377.19	228.34
377.57	228.30
377.95	228.20
378.33	228.14
378.71	227.98
379.09	227.94
379.47	227.91
379.84	227.85
380.22	227.78
380.60	227.72
380.98	227.67
381.36	227.62
381.73	227.56
382.11	227.54
382.49	227.50
382.87	227.44
383.25	227.39
383.62	227.50
384.00	227.43
384.38	227.39
384.76	227.38
385.13	227.37
385.51	227.33
385.89	227.28
386.27	227.25
386.64	227.24
387.02	227.19
387.40	227.15
387.78	227.13
388.15	227.10
388.53	227.07
388.91	227.04
389.29	227.01
389.66	227.01
390.04	226.97
390.42	226.96
390.79	226.96
391.17	226.94
391.55	226.78
391.92	226.77
392.30	226.77
392.68	226.73
393.05	226.71
393.43	226.71
393.81	226.72
394.18	226.70
394.56	226.70
394.94	226.73
395.31	226.72
395.69	226.77
396.06	226.80
396.44	226.83
396.82	226.84
397.19	226.93
397.57	226.94
397.95	226.99
398.32	226.98
398.70	227.02
399.07	227.09
399.45	227.13
399.82	227.18
400.20	227.22
400.58	227.28
400.95	227.29
401.33	227.38
401.70	227.54
402.08	227.64
402.45	227.73
402.83	227.85
403.20	227.97
403.58	228.06
403.95	228.20
404.33	228.35
404.71	228.50
405.08	228.71
405.46	228.89
405.83	229.08
406.21	229.28
406.58	229.51
406.96	229.73
407.33	229.99
407.70	230.28
408.08	230.67
408.45	231.01
408.83	231.39
409.20	231.72
409.58	232.02
409.95	232.44
410.33	232.90
410.70	233.32
411.08	233.83
411.45	234.37
411.82	234.91
412.20	235.52
412.57	236.26
412.95	236.83
413.32	237.58
413.69	238.35
414.07	239.17
414.44	240.06
414.82	240.97
415.19	242.03
415.56	243.11
415.94	244.23
416.31	245.48
416.68	246.74
417.06	248.20
417.43	249.56
417.81	251.13
418.18	252.73
418.55	254.48
418.93	256.30
419.30	258.19
419.67	260.21
420.04	262.27
420.42	264.42
420.79	266.92
421.16	269.43
421.54	271.99
421.91	274.66
422.28	277.43
422.66	280.41
423.03	283.26
423.40	286.25
423.77	289.46
424.15	292.74
424.52	296.16
424.89	299.86
425.26	303.53
425.64	306.95
426.01	310.79
426.38	314.72
426.75	318.76
427.13	322.91
427.50	327.26
427.87	331.79
428.24	336.35
428.61	340.74
428.99	345.48
429.36	350.68
429.73	355.65
430.10	360.63
430.47	365.72
430.85	370.96
431.22	376.58
431.59	382.35
431.96	387.98
432.33	394.25
432.70	400.21
433.08	407.24
433.45	413.90
433.82	420.46
434.19	427.78
434.56	435.00
434.93	441.98
435.30	448.87
435.68	456.67
436.05	464.30
436.42	471.90
436.79	478.84
437.16	486.32
437.53	494.34
437.90	502.37
438.27	510.23
438.64	518.71
439.01	526.40
439.38	533.44
439.75	540.21
440.13	547.83
440.50	555.08
440.87	560.83
441.24	567.13
441.61	574.00
441.98	578.99
442.35	584.93
442.72	590.97
443.09	596.72
443.46	600.34
443.83	602.97
444.20	605.16
444.57	608.46
444.94	610.29
445.31	612.19
445.68	613.78
446.05	614.91
446.42	614.44
446.79	613.77
447.16	613.17
447.53	612.61
447.90	610.06
448.27	607.61
448.64	603.96
449.01	601.39
449.37	596.38
449.74	591.84
450.11	586.00
450.48	579.64
450.85	573.29
451.22	567.86
451.59	562.56
451.96	557.77
452.33	550.82
452.70	544.67
453.07	537.17
453.43	529.69
453.80	522.45
454.17	515.49
454.54	509.11
454.91	501.89
455.28	495.14
455.65	488.79
456.02	482.09
456.38	476.69
456.75	469.74
457.12	464.16
457.49	458.52
457.86	453.22
458.23	448.59
458.59	443.45
458.96	438.17
459.33	433.53
459.70	428.81
460.07	425.23
460.43	421.01
460.80	417.06
461.17	413.66
461.54	409.94
461.91	406.48
462.27	402.95
462.64	400.13
463.01	396.86
463.38	393.56
463.74	390.59
464.11	387.96
464.48	385.61
464.85	383.03
465.21	381.10
465.58	378.93
465.95	376.42
466.32	374.44
466.68	372.49
467.05	370.53
467.42	368.62
467.78	366.54
468.15	364.63
468.52	363.25
468.88	361.37
469.25	359.65
469.62	358.29
469.98	356.81
470.35	355.48
470.72	354.28
471.08	353.06
471.45	352.03
471.82	350.88
472.18	349.66
472.55	348.87
472.92	347.87
473.28	347.09
473.65	346.25
474.02	345.45
474.38	344.77
474.75	344.36
475.11	343.80
475.48	343.54
475.85	343.25
476.21	343.08
476.58	342.97
476.94	343.09
477.31	343.13
477.67	343.20
478.04	343.39
478.41	343.67
478.77	344.08
479.14	344.33
479.50	344.83
479.87	345.49
480.23	346.16
480.60	346.81
480.96	347.47
481.33	348.46
481.69	349.44
482.06	350.42
482.42	351.32
482.79	352.44
483.15	353.73
483.52	355.21
483.88	356.63
484.25	358.14
484.61	359.72
484.98	361.44
485.34	363.36
485.71	365.38
486.07	367.54
486.44	369.69
486.80	372.09
487.17	374.59
487.53	377.32
487.90	380.17
488.26	383.27
488.62	386.55
488.99	389.84
489.35	393.30
489.72	397.05
490.08	401.01
490.44	405.09
490.81	409.33
491.17	413.68
491.54	418.35
491.90	423.15
492.26	428.30
492.63	433.70
492.99	439.32
493.36	445.15
493.72	451.28
494.08	457.56
494.45	464.24
494.81	471.16
495.17	478.28
495.54	485.80
495.90	493.62
496.26	501.62
496.63	509.88
496.99	518.44
497.35	527.41
497.72	536.66
498.08	546.11
498.44	555.89
498.80	566.25
499.17	576.88
499.53	587.85
499.89	599.18
500.26	610.74
500.62	622.60
500.98	635.11
501.34	647.80
501.71	661.00
502.07	674.39
502.43	688.34
502.79	702.49
503.16	717.12
503.52	731.92
503.88	747.16
504.24	762.86
504.60	778.77
504.97	795.19
505.33	812.05
505.69	829.81
506.05	847.91
506.41	865.94
506.78	884.16
507.14	902.89
507.50	922.07
507.86	941.61
508.22	961.34
508.59	980.90
508.95	1001.27
509.31	1022.41
509.67	1044.26
510.03	1066.09
510.39	1087.99
510.75	1110.06
511.12	1132.42
511.48	1154.94
511.84	1177.50
512.20	1200.47
512.56	1224.32
512.92	1248.17
513.28	1271.62
513.64	1295.36
514.00	1319.56
514.37	1344.05
514.73	1368.53
515.09	1392.88
515.45	1417.57
515.81	1442.41
516.17	1467.37
516.53	1491.87
516.89	1516.23
517.25	1540.79
517.61	1565.17
517.97	1590.02
518.33	1614.41
518.69	1638.76
519.05	1663.57
519.41	1688.68
519.77	1713.98
520.13	1738.53
520.49	1763.01
520.85	1787.81
521.21	1812.18
521.57	1836.91
521.93	1861.11
522.29	1885.81
522.65	1909.99
523.01	1934.15
523.37	1957.94
523.73	1982.46
524.09	2006.63
524.45	2030.58
524.81	2054.17
525.17	2077.66
525.53	2100.59
525.89	2123.89
526.25	2147.21
526.61	2169.53
526.97	2191.95
527.33	2214.33
527.68	2236.43
528.04	2257.69
528.40	2278.03
528.76	2298.63
529.12	2318.72
529.48	2338.53
529.84	2356.46
530.20	2375.05
530.56	2392.98
530.91	2411.12
531.27	2428.87
531.63	2445.75
531.99	2462.23
532.35	2477.95
532.71	2493.84
533.07	2510.39
533.42	2525.19
533.78	2540.94
534.14	2556.85
534.50	2571.82
534.86	2586.47
535.21	2599.20
535.57	2612.53
535.93	2625.63
536.29	2637.52
536.65	2649.20
537.00	2660.13
537.36	2672.08
537.72	2682.62
538.08	2692.68
538.44	2702.01
538.79	2710.93
539.15	2719.11
539.51	2726.89
539.87	2734.05
540.22	2739.14
540.58	2744.33
540.94	2750.70
541.29	2755.45
541.65	2758.48
542.01	2760.74
542.37	2762.46
542.72	2765.50
543.08	2766.74
543.44	2768.63
543.79	2769.50
544.15	2769.55
544.51	2770.00
544.87	2769.32
545.22	2767.85
545.58	2765.68
545.94	2763.53
546.29	2760.11
546.65	2756.66
547.01	2753.17
547.36	2750.44
547.72	2747.88
548.07	2743.48
548.43	2737.63
548.79	2730.77
549.14	2725.25
549.50	2720.05
549.86	2713.78
550.21	2706.36
550.57	2700.00
550.92	2691.27
551.28	2683.16
551.64	2675.45
551.99	2667.25
552.35	2658.37
552.70	2649.82
553.06	2641.58
553.41	2632.62
553.77	2623.54
554.13	2614.41
554.48	2604.39
554.84	2593.13
555.19	2582.31
555.55	2571.59
555.90	2560.96
556.26	2550.96
556.61	2539.76
556.97	2526.90
557.32	2514.58
557.68	2502.25
558.03	2489.66
558.39	2478.30
558.74	2467.21
559.10	2454.33
559.45	2441.74
559.81	2429.79
560.16	2417.13
560.52	2404.79
560.87	2392.89
561.23	2380.06
561.58	2367.27
561.94	2354.19
562.29	2340.53
562.64	2327.63
563.00	2314.44
563.35	2301.61
563.71	2288.60
564.06	2275.52
564.42	2263.23
564.77	2250.39
565.12	2237.39
565.48	2224.32
565.83	2211.21
566.19	2198.21
566.54	2185.19
566.89	2171.07
567.25	2157.07
567.60	2144.52
567.96	2130.98
568.31	2116.10
568.66	2102.00
569.02	2089.08
569.37	2076.08
569.72	2063.60
570.08	2049.88
570.43	2035.76
570.78	2021.54
571.14	2006.56
571.49	1992.25
571.84	1978.47
572.20	1963.46
572.55	1948.76
572.90	1933.96
573.26	1919.21
573.61	1903.93
573.96	1889.10
574.31	1874.48
574.67	1859.97
575.02	1844.37
575.37	1828.93
575.72	1814.27
576.08	1799.90
576.43	1784.41
576.78	1769.37
577.13	1754.59
577.49	1740.12
577.84	1726.28
578.19	1711.48
578.54	1696.90
578.90	1681.81
579.25	1666.64
579.60	1653.09
579.95	1639.36
580.30	1625.47
580.66	1611.26
581.01	1597.04
581.36	1582.83
581.71	1569.60
582.06	1556.28
582.42	1543.17
582.77	1530.09
583.12	1517.03
583.47	1503.85
583.82	1490.77
584.17	1477.32
584.53	1463.56
584.88	1450.20
585.23	1436.40
585.58	1423.39
585.93	1410.59
586.28	1398.54
586.63	1386.42
586.98	1373.85
587.34	1361.36
587.69	1348.62
588.04	1336.21
588.39	1324.16
588.74	1312.21
589.09	1300.04
589.44	1287.45
589.79	1275.52
590.14	1263.67
590.49	1251.73
590.84	1239.96
591.19	1228.59
591.54	1217.04
591.89	1205.63
592.25	1194.41
592.60	1182.83
592.95	1171.68
593.30	1160.76
593.65	1149.54
594.00	1138.47
594.35	1127.93
594.70	1116.99
595.05	1106.88
595.40	1096.66
595.75	1086.27
596.10	1076.46
596.45	1066.38
596.80	1056.65
597.15	1046.65
597.50	1036.83
597.85	1027.40
598.19	1017.80
598.54	1008.24
598.89	999.14
599.24	990.37
599.59	981.38
599.94	973.31
600.29	965.00
600.64	956.42
600.99	947.46
601.34	938.87
601.69	929.97
602.04	921.71
602.39	913.29
602.74	904.94
603.08	896.55
603.43	888.14
603.78	879.91
604.13	871.80
604.48	863.69
604.83	855.76
605.18	847.78
605.53	839.95
605.87	831.92
606.22	824.21
606.57	816.45
606.92	808.62
607.27	800.68
607.62	793.08
607.96	785.89
608.31	779.14
608.66	772.19
609.01	765.50
609.36	758.93
609.70	752.15
610.05	745.36
610.40	738.82
610.75	732.25
611.10	726.02
611.44	719.64
611.79	713.38
612.14	707.04
612.49	700.76
612.83	694.80
613.18	688.97
613.53	683.04
613.88	677.12
614.22	671.60
614.57	666.05
614.92	660.34
615.27	654.74
615.61	649.20
615.96	643.71
616.31	638.21
616.65	632.76
617.00	627.53
617.35	622.41
617.70	617.33
618.04	612.32
618.39	607.22
618.74	602.37
619.08	597.56
619.43	592.87
619.78	588.18
620.12	583.47
620.47	578.92
620.82	574.48
621.16	570.07
621.51	565.56
621.85	561.07
622.20	556.77
622.55	552.50
622.89	548.30
623.24	544.12
623.59	539.96
623.93	535.98
624.28	532.10
624.62	528.30
624.97	524.53
625.32	520.73
625.66	516.89
626.01	513.01
626.35	509.21
626.70	505.46
627.04	501.90
627.39	498.25
627.73	494.78
628.08	491.39
628.43	488.00
628.77	484.68
629.12	481.49
629.46	478.32
629.81	475.05
630.15	471.77
630.50	468.60
630.84	465.49
631.19	462.43
631.53	459.46
631.88	456.46
632.22	453.49
632.57	450.81
632.91	448.16
633.26	445.59
633.60	443.04
633.95	440.54
634.29	437.96
634.64	435.45
634.98	432.76
635.32	430.21
635.67	427.84
636.01	425.41
636.36	423.03
636.70	420.77
637.05	418.52
637.39	416.31
637.73	414.12
638.08	412.06
638.42	409.95
638.77	407.72
639.11	405.43
639.45	403.24
639.80	400.98
640.14	398.82
640.49	396.66
640.83	394.48
641.17	392.39
641.52	390.35
641.86	388.33
642.20	386.52
642.55	384.54
642.89	382.61
643.23	380.76
643.58	379.07
643.92	377.25
644.26	375.50
644.61	373.79
644.95	372.06
645.29	370.25
645.64	368.47
645.98	366.78
646.32	365.20
646.66	363.62
647.01	362.05
647.35	360.53
647.69	358.99
648.04	357.58
648.38	356.09
648.72	354.62
649.06	353.16
649.41	351.70
649.75	350.31
650.09	348.93
650.43	347.56
650.78	346.13
651.12	344.75
651.46	343.42
651.80	342.12
652.14	340.84
652.49	339.61
652.83	338.35
653.17	337.15
653.51	335.98
653.85	334.86
654.20	333.69
654.54	332.46
654.88	331.31
655.22	330.19
655.56	329.06
655.90	327.99
656.25	326.95
656.59	325.89
656.93	324.90
657.27	323.92
657.61	322.89
657.95	321.91
658.29	320.92
658.64	319.98
658.98	319.04
659.32	318.13
659.66	317.25
660.00	316.41
660.34	315.55
660.68	314.67
661.02	313.77
661.36	312.90
661.70	312.07
662.05	311.27
662.39	310.47
662.73	309.75
663.07	309.03
663.41	308.27
663.75	307.51
664.09	306.76
664.43	305.96
664.77	305.25
665.11	304.50
665.45	303.81
665.79	303.12
666.13	302.40
666.47	301.67
666.81	300.93
667.15	300.17
667.49	299.51
667.83	298.91
668.17	298.28
668.51	297.69
668.85	297.13
669.19	296.60
669.53	295.96
669.87	295.33
670.21	294.72
670.55	294.15
670.89	293.66
671.23	293.11
671.57	292.58
671.91	292.10
672.25	291.64
672.58	291.18
672.92	290.64
673.26	290.18
673.60	289.72
673.94	289.28
674.28	288.88
674.62	288.43
674.96	287.94
675.30	287.50
675.64	287.03
675.97	286.54
676.31	286.04
676.65	285.58
676.99	285.20
677.33	284.73
677.67	284.30
678.01	283.80
678.34	283.37
678.68	282.98
679.02	282.52
679.36	282.08
679.70	281.63
680.04	281.23
680.37	280.82
680.71	280.43
681.05	280.05
681.39	279.62
681.73	279.19
682.06	278.77
682.40	278.37
682.74	278.03
683.08	277.73
683.42	277.36
683.75	277.03
684.09	276.61
684.43	276.27
684.77	275.91
685.10	275.61
685.44	275.27
685.78	274.92
686.12	274.60
686.45	274.25
686.79	273.89
687.13	273.57
687.46	273.22
687.80	272.89
688.14	272.50
688.48	272.19
688.81	271.86
689.15	271.57
689.49	271.23
689.82	270.87
690.16	270.47
690.50	270.15
690.83	269.81
691.17	269.47
691.51	269.13
691.84	268.82
692.18	268.47
692.52	268.12
692.85	267.79
693.19	267.49
693.52	267.17
693.86	266.85
694.20	266.53
694.53	266.23
694.87	265.90
695.21	265.59
695.54	265.27
695.88	264.95
696.21	264.60
696.55	264.30
696.88	263.99
697.22	263.69
697.56	263.39
697.89	263.04
698.23	262.75
698.56	262.42
698.90	262.12
699.23	261.80
699.57	261.50
699.90	261.19
700.24	260.86
700.58	260.58
700.91	260.34
701.25	260.16
701.58	259.93
701.92	259.68
702.25	259.41
702.59	259.12
702.92	258.85
703.26	258.57
703.59	258.28
703.93	258.10
704.26	257.84
704.60	257.56
704.93	257.28
705.26	257.00
705.60	256.77
705.93	256.47
706.27	256.25
706.60	256.03
706.94	255.82
707.27	255.53
707.61	255.25
707.94	254.96
708.27	254.58
708.61	254.26
708.94	253.98
709.28	253.72
709.61	253.47
709.94	253.24
710.28	253.01
710.61	252.80
710.95	252.46
711.28	252.31
711.61	252.07
711.95	251.87
712.28	251.64
712.61	251.38
712.95	251.23
713.28	251.07
713.61	250.81
713.95	250.54
714.28	250.33
714.61	250.10
714.95	249.88
715.28	249.67
715.61	249.46
715.95	249.27
716.28	249.07
716.61	248.89
716.95	248.67
717.28	248.46
717.61	248.24
717.94	248.04
718.28	247.75
718.61	247.55
718.94	247.32
719.27	247.13
719.61	246.95
719.94	246.73
720.27	246.45
720.60	246.27
720.94	246.08
721.27	245.90
721.60	245.74
721.93	245.55
722.27	245.40
722.60	245.24
722.93	245.04
723.26	244.86
723.59	244.65
723.93	244.49
724.26	244.32
724.59	244.14
724.92	243.98
725.25	243.86
725.59	243.69
725.92	243.56
726.25	243.40
726.58	243.24
726.91	243.07
727.24	242.93
727.57	242.78
727.91	242.61
728.24	242.48
728.57	242.31
728.90	242.18
729.23	241.99
729.56	241.89
729.89	241.73
730.22	241.57
730.55	241.43
730.89	241.28
731.22	241.13
731.55	240.99
731.88	240.84
732.21	240.67
732.54	240.53
732.87	240.38
733.20	240.25
733.53	240.12
733.86	240.00
734.19	239.84
734.52	239.73
734.85	239.69
735.18	239.52
735.51	239.43
735.84	239.31
736.17	239.22
736.50	239.04
736.83	239.07
737.16	238.95
737.49	238.84
737.82	238.72
738.15	238.62
738.48	238.50
738.81	238.38
739.14	238.26
739.47	238.13
739.80	238.01
740.13	237.91
740.46	237.77
740.79	237.64
741.12	237.53
741.45	237.40
741.78	237.21
742.11	237.14
742.44	236.99
742.77	236.89
743.10	236.76
743.43	236.65
743.75	236.41
744.08	236.49
744.41	236.38
744.74	236.27
745.07	236.14
745.40	236.06
745.73	236.02
746.06	235.93
746.39	235.86
746.71	235.76
747.04	235.65
747.37	235.55
747.70	235.49
748.03	235.40
748.36	235.33
748.68	235.24
749.01	235.12
749.34	235.03
749.67	234.95
750.00	234.89
750.33	234.90
750.65	234.82
750.98	234.55
751.31	234.47
751.64	234.39
751.97	234.38
752.29	234.29
752.62	234.15
752.95	234.06
753.28	233.96
753.60	233.88
753.93	233.83
754.26	233.76
754.59	233.64
754.91	233.55
755.24	233.46
755.57	233.44
755.90	233.36
756.22	233.27
756.55	233.17
756.88	233.07
757.20	232.91
757.53	232.80
757.86	232.72
758.19	232.66
758.51	232.58
758.84	232.45
759.17	232.36
759.49	232.30
759.82	232.29
760.15	232.24
760.47	232.17
760.80	232.07
761.13	232.02
761.45	231.97
761.78	231.91
762.11	231.85
762.43	231.73
762.76	231.67
763.08	231.62
763.41	231.58
763.74	231.53
764.06	231.47
764.39	231.42
764.71	231.37
765.04	231.30
765.37	231.24
765.69	231.19
766.02	231.13
766.34	231.07
766.67	230.97
767.00	230.94
767.32	230.96
767.65	231.00
767.97	230.93
768.30	230.89
768.62	230.84
768.95	230.78
769.27	230.73
769.60	230.70
769.92	230.63
770.25	230.56
770.57	230.49
770.90	230.44
771.22	230.39
771.55	230.35
771.87	230.31
772.20	230.27
772.52	230.34
772.85	230.45
773.17	230.41
773.50	230.36
773.82	230.30
774.15	230.20
774.47	230.08
774.80	230.03
775.12	229.99
775.45	229.95
775.77	229.92
776.09	229.90
776.42	229.86
776.74	229.87
777.07	229.84
777.39	229.82
777.72	229.77
778.04	229.76
778.36	229.72
778.69	229.69
779.01	229.67
779.33	229.53
779.66	229.35
779.98	229.32
780.31	229.30
780.63	229.32
780.95	229.31
781.28	229.28
781.60	229.25
781.92	229.22
782.25	229.20
782.57	229.17
782.89	229.14
783.22	229.10
783.54	229.05
783.86	229.03
784.19	229.00
784.51	229.02
784.83	228.99
785.16	228.96
785.48	228.94
785.80	228.91
786.12	228.90
786.45	228.88
786.77	228.86
787.09	228.83
787.42	228.76
787.74	228.75
788.06	228.73
788.38	228.71
788.71	228.68
789.03	228.66
789.35	228.65
789.67	228.62
789.99	228.61
790.32	228.58
790.64	228.57
790.96	228.67
791.28	228.60
791.61	228.57
791.93	228.56
792.25	228.54
792.57	228.61
792.89	228.57
793.21	228.56
793.54	228.53
793.86	228.50
794.18	228.49
794.50	228.44
794.82	228.42
795.14	228.43
795.47	228.43
795.79	228.42
796.11	228.37
796.43	228.35
796.75	228.33
797.07	228.32
797.39	228.30
797.71	228.18
798.04	228.17
798.36	228.16
798.68	228.14
799.00	228.14
799.32	228.06
799.64	228.06
799.96	228.05
800.28	228.06
800.60	228.04
800.92	228.03
801.24	228.01
801.56	228.01
801.89	227.98
802.21	227.97
802.53	227.94
802.85	227.95
803.17	227.99
803.49	227.96
803.81	227.94
804.13	227.91
804.45	227.89
804.77	227.88
805.09	227.86
805.41	227.84
805.73	227.81
806.05	227.76
806.37	227.73
806.69	227.71
807.01	227.68
807.33	227.68
807.65	227.62
807.97	227.67
808.28	227.64
808.60	227.63
808.92	227.60
809.24	227.67
809.56	227.64
809.88	227.58
810.20	227.58
810.52	227.60
810.84	227.57
811.16	227.55
811.48	227.53
811.80	227.56
812.12	227.55
812.43	227.56
812.75	227.56
813.07	227.54
813.39	227.54
813.71	227.51
814.03	227.49
814.35	227.49
814.67	227.42
814.98	227.40
815.30	227.39
815.62	227.36
815.94	227.26
816.26	227.27
816.58	227.24
816.89	227.24
817.21	227.20
817.53	227.20
817.85	227.20
818.17	227.18
818.48	227.12
818.80	227.14
819.12	227.12
819.44	227.09
819.76	227.07
820.07	227.06
820.39	227.05
820.71	227.05
821.03	227.05
821.34	227.03
821.66	227.04
821.98	227.04
822.30	227.03
822.61	227.10
822.93	227.07
823.25	227.06
823.57	227.04
823.88	227.05
824.20	227.04
824.52	227.05
824.83	227.04
825.15	227.03
825.47	227.01
825.79	227.01
826.10	227.00
826.42	226.99
826.74	226.99
827.05	226.99
827.37	226.98
827.69	226.97
828.00	226.97
828.32	226.96
828.64	226.94
828.95	227.00
829.27	226.96
829.58	226.95
829.90	226.97
830.22	226.97
830.53	226.95
830.85	226.93
831.17	226.89
831.48	226.89
831.80	226.89
832.11	226.87
832.43	226.85
832.75	226.85
833.06	226.92
833.38	226.88
833.69	226.88
834.01	226.87
834.32	226.86
834.64	226.85
834.96	226.84
835.27	226.84
835.59	226.79
835.90	226.77
836.22	226.76
836.53	226.73
836.85	226.71
837.16	226.83
837.48	226.83
837.79	226.87
838.11	226.87
838.42	226.87
838.74	226.88
839.05	226.86
839.37	226.85
839.68	226.77
840.00	226.77
840.31	226.78
840.63	226.77
840.94	226.75
841.26	226.74
841.57	226.73
841.88	226.74
842.20	226.72
842.51	226.70
842.83	226.70
843.14	226.81
843.46	226.80
843.77	226.73
844.08	226.72
844.40	226.67
844.71	226.66
845.03	226.65
845.34	226.63
845.65	226.63
845.97	226.63
846.28	226.63
846.60	226.64
846.91	226.61
847.22	226.61
847.54	226.64
847.85	226.64
848.16	226.63
848.48	226.60
848.79	226.65
849.10	226.67
849.42	226.67
849.73	226.55
850.04	226.55
850.36	226.50
850.67	226.52
850.98	226.52
851.30	226.53
851.61	226.53
851.92	226.52
852.23	226.56
852.55	226.56
852.86	226.57
853.17	226.57
853.49	226.60
853.80	226.62
854.11	226.62
854.42	226.64
854.74	226.62
855.05	226.62
855.36	226.56
855.67	226.56
855.99	226.56
856.30	226.71
856.61	226.70
856.92	226.71
857.23	226.71
857.55	226.69
857.86	226.68
858.17	226.70
858.48	226.68
858.79	226.65
859.11	226.65
859.42	226.64
859.73	226.63
860.04	226.62
860.35	226.58
860.66	226.54
860.98	226.53
861.29	226.55
861.60	226.53
861.91	226.56
862.22	226.54
862.53	226.52
862.84	226.37
863.16	226.39
863.47	226.37
863.78	226.35
864.09	226.36
864.40	226.37
864.71	226.37
865.02	226.38
865.33	226.37
865.64	226.34
865.95	226.34
866.27	226.42
866.58	226.41
866.89	226.42
867.20	226.42
867.51	226.40
867.82	226.39
868.13	226.43
868.44	226.40
868.75	226.42
869.06	226.43
869.37	226.44
869.68	226.41
869.99	226.43
870.30	226.44
870.61	226.45
870.92	226.43
871.23	226.41
871.54	226.43
871.85	226.46
872.16	226.47
872.47	226.46
872.78	226.39
873.09	226.40
873.40	226.39
873.71	226.40
874.02	226.41
874.33	226.40
874.64	226.37
874.95	226.39
875.26	226.36
875.56	226.36
875.87	226.35
876.18	226.34
876.49	226.47
876.80	226.45
877.11	226.43
877.42	226.43
877.73	226.44
878.04	226.41
878.35	226.40
878.66	226.40
878.96	226.40
879.27	226.40
879.58	226.39
879.89	226.39
880.20	226.42
880.51	226.41
880.82	226.41
881.12	226.42
881.43	226.39
881.74	226.38
882.05	226.37
882.36	226.38
882.67	226.39
882.97	226.25
883.28	226.24
883.59	226.24
883.90	226.25
884.21	226.26
884.51	226.26
884.82	226.24
885.13	226.24
885.44	226.23
885.74	226.23
886.05	226.22
886.36	226.22
886.67	226.17
886.98	226.24
887.28	226.25
887.59	226.24
887.90	226.25
888.20	226.25
888.51	226.27
888.82	226.25
889.13	226.26
889.43	226.37
889.74	226.36
890.05	226.36
890.35	226.34
890.66	226.32
890.97	226.31
891.28	226.30
891.58	226.30
891.89	226.30
892.20	226.29
892.50	226.27
892.81	226.27
893.12	226.26
893.42	226.20
893.73	226.20
894.04	226.19
894.34	226.20
894.65	226.20
894.95	226.19
895.26	226.19
895.57	226.24
895.87	226.12
896.18	226.14
896.48	226.15
896.79	226.15
897.10	226.17
897.40	226.17
897.71	226.19
898.01	226.17
898.32	226.19
898.63	226.19
898.93	226.20
899.24	226.20
899.54	226.19
899.85	226.19
900.15	226.18
900.46	226.18
900.76	226.19
901.07	226.18
901.38	226.18
901.68	226.20
901.99	226.13
902.29	226.14
902.60	226.12
902.90	226.11
903.21	226.11
903.51	226.10
903.82	226.12
904.12	226.12
904.43	226.13
904.73	226.12
905.03	226.13
905.34	226.26
905.64	226.25
905.95	226.25
906.25	226.25
906.56	226.24
906.86	226.24
907.17	226.23
907.47	226.24
907.77	226.23
908.08	226.20
908.38	226.21
908.69	226.21
908.99	226.23
909.30	226.24
909.60	226.24
909.90	226.25
910.21	226.21
910.51	226.19
910.81	226.19
911.12	226.19
911.42	226.20
911.73	226.06
912.03	226.07
912.33	226.10
912.64	226.09
912.94	226.08
913.24	226.06
913.55	226.06
913.85	226.05
914.15	226.07
914.46	226.09
914.76	226.08
915.06	226.07
915.37	226.05
915.67	226.04
915.97	226.04
916.27	226.01
916.58	226.01
916.88	226.01
917.18	226.00
917.49	226.08
917.79	226.08
918.09	226.10
918.39	226.12
918.70	226.11
919.00	226.12
919.30	226.18
919.60	226.18
919.91	226.16
920.21	226.17
920.51	226.15
920.81	226.14
921.12	226.16
921.42	226.16
921.72	226.17
922.02	226.18
922.32	226.19
922.63	226.19
922.93	226.26
923.23	226.27
923.53	226.26
923.83	226.18
924.13	226.19
924.44	226.18
924.74	226.20
925.04	226.22
925.34	226.22
925.64	226.16
925.94	226.16
926.24	226.23
926.55	226.22
926.85	226.23
927.15	226.23
927.45	226.23
927.75	226.22
928.05	226.22
928.35	226.21
928.65	226.23
928.95	226.24
929.26	226.18
929.56	226.21
929.86	226.22
930.16	226.21
930.46	226.20
930.76	226.20
931.06	226.14
931.36	226.10
931.66	226.12
931.96	226.14
932.26	226.14
932.56	226.09
932.86	226.09
933.16	226.09
933.46	226.08
933.76	226.06
934.06	226.09
934.36	226.13
934.66	226.12
934.96	226.10
935.26	226.10
935.56	226.12
935.86	226.09
936.16	226.07
936.46	226.06
936.76	226.06
937.06	226.04
937.36	226.05
937.66	226.05
937.96	226.04
938.26	226.01
938.56	226.01
938.86	226.02
939.16	226.05
939.46	226.06
939.76	226.06
940.06	226.07
940.35	226.05
940.65	225.99
940.95	226.00
941.25	225.97
941.55	225.95
941.85	225.94
942.15	225.97
942.45	226.00
942.75	226.00
943.04	226.01
943.34	226.03
943.64	226.02
943.94	226.01
944.24	226.01
944.54	226.02
944.84	226.02
945.13	226.00
945.43	225.97
945.73	225.96
946.03	225.95
946.33	225.93
946.62	225.92
946.92	225.92
947.22	225.93
947.52	225.94
947.82	225.95
948.11	225.94
948.41	225.91
948.71	225.87
949.01	225.88
949.31	225.87
949.60	225.86
949.90	225.88
950.20	225.88
950.50	225.87
950.79	225.86
951.09	225.88
951.39	225.88
951.69	225.87
951.98	225.89
952.28	225.90
952.58	225.90
952.87	225.90
953.17	225.92
953.47	225.90
953.76	225.90
954.06	225.88
954.36	225.86
954.66	225.86
954.95	225.89
955.25	225.90
955.55	225.92
955.84	225.90
956.14	225.90
956.44	225.91
956.73	225.90
957.03	225.91
957.32	225.91
957.62	225.90
957.92	225.93
958.21	225.92
958.51	226.06
958.81	226.08
959.10	226.09
959.40	226.12
959.69	226.13
959.99	226.15
960.29	226.15
960.58	226.15
960.88	226.20
961.17	226.18
961.47	226.19
961.76	226.18
962.06	226.20
962.36	226.19
962.65	226.19
962.95	226.20
963.24	226.19
963.54	226.19
963.83	226.20
964.13	226.19
964.42	226.17
964.72	226.07
965.01	226.07
965.31	226.06
965.60	226.02
965.90	226.10
966.19	226.07
966.49	226.07
966.78	226.07
967.08	226.05
967.37	226.05
967.67	226.03
967.96	226.05
968.26	226.05
968.55	226.06
968.85	226.06
969.14	226.05
969.43	226.06
969.73	226.04
970.02	226.04
970.32	226.03
970.61	226.01
970.91	225.98
971.20	225.96
971.49	225.95
971.79	225.97
972.08	225.88
972.38	225.89
972.67	225.88
972.96	225.90
973.26	225.88
973.55	225.91
973.85	225.91
974.14	225.89
974.43	225.90
974.73	225.88
975.02	225.87
975.31	225.87
975.61	225.87
975.90	225.86
976.19	225.84
976.49	225.86
976.78	225.86
977.07	225.86
977.37	225.87
977.66	225.89
977.95	225.87
978.24	225.88
978.54	225.90
978.83	225.90
979.12	225.89
979.42	225.89
979.71	225.86
980.00	225.86
980.29	225.87
980.59	225.84
980.88	225.88
981.17	225.87
981.46	225.88
981.76	225.87
982.05	225.91
982.34	225.92
982.63	225.92
982.93	225.92
983.22	225.95
983.51	225.95
983.80	225.97
984.09	225.99
984.39	225.98
984.68	225.96
984.97	225.97
985.26	225.96
985.55	225.97
985.85	225.95
986.14	225.96
986.43	225.98
986.72	225.97
987.01	225.93
987.30	225.94
987.59	225.93
987.89	225.93
988.18	225.89
988.47	225.88
988.76	225.88
989.05	225.87
989.34	225.85
989.63	225.88
989.92	225.86
990.22	225.84
990.51	225.84
990.80	225.83
991.09	225.84
991.38	225.85
991.67	225.84
991.96	225.83
992.25	225.83
992.54	225.81
992.83	225.82
993.12	225.82
993.41	225.84
993.70	225.89
993.99	225.91
994.28	225.93
994.58	225.95
994.87	225.94
995.16	225.94
995.45	225.93
995.74	225.88
996.03	225.91
996.32	225.93
996.61	225.95
996.90	225.95
997.19	225.94
997.48	225.94
997.77	225.93
998.06	225.93
998.34	225.92
998.63	225.92
998.92	225.92
999.21	225.94
999.50	225.94
999.79	225.89
1000.08	225.89
1000.37	225.88
1000.66	225.86
1000.95	225.90
1001.24	225.91
1001.53	225.93
1001.82	225.92
1002.11	225.89
1002.40	225.90
1002.68	225.92
1002.97	226.01
1003.26	226.00
1003.55	225.98
1003.84	225.99
1004.13	226.03
1004.42	226.03
1004.71	226.03
1004.99	226.02
1005.28	226.05
1005.57	226.04
1005.86	226.03
1006.15	226.02
1006.44	226.00
1006.72	226.02
1007.01	225.99
1007.30	226.00
1007.59	225.98
1007.88	225.98
1008.17	225.99
1008.45	225.96
1008.74	225.91
1009.03	225.86
1009.32	225.86
1009.60	225.86
1009.89	225.85
1010.18	225.80
1010.47	225.80
1010.76	225.80
1011.04	225.79
1011.33	225.79
1011.62	225.79
1011.91	225.80
1012.19	225.81
1012.48	225.81
1012.77	225.81
1013.05	225.85
1013.34	225.85
1013.63	225.84
1013.92	225.85
1014.20	225.84
1014.49	225.85
1014.78	225.86
1015.06	225.82
1015.35	225.82
1015.64	225.84
1015.92	225.86
1016.21	225.87
1016.50	225.87
1016.78	225.89
1017.07	225.90
1017.36	225.87
1017.64	225.86
1017.93	225.87
1018.22	225.85
1018.50	225.85
1018.79	225.85
1019.08	225.80
1019.36	225.81
1019.65	225.80
1019.93	225.83
1020.22	225.85
1020.51	225.91
1020.79	225.90
1021.08	225.61
1021.36	225.62
1021.65	225.91
1021.94	225.73
1022.22	225.94
1022.51	225.57
1022.79	226.40
1023.08	226.01
1023.36	227.33
1023.65	225.54
>>>>>End Processed Spectral Data<<<<<
