SpectraSuite Data File
++++++++++++++++++++++++++++++++++++
Date: Sun Oct 04 07:58:44 EDT 2015
User: lab3
Dark Spectrum Present: No
Reference Spectrum Present: No
Number of Sampled Component Spectra: 1
Spectrometers: USB2E7196
Integration Time (usec): 46000 (USB2E7196)
Spectra Averaged: 24000 (USB2E7196)
Boxcar Smoothing: 10 (USB2E7196)
Correct for Electrical Dark: No (USB2E7196)
Strobe/Lamp Enabled: No (USB2E7196)
Correct for Detector Non-linearity: No (USB2E7196)
Correct for Stray Light: No (USB2E7196)
Number of Pixels in Processed Spectrum: 2048
>>>>>Begin Processed Spectral Data<<<<<
339.09	0.00
339.48	213.05
339.86	214.57
340.24	215.92
340.63	217.36
341.01	220.64
341.39	220.03
341.78	221.43
342.16	222.64
342.54	223.08
342.93	211.57
343.31	222.26
343.69	222.80
344.07	223.26
344.46	223.69
344.84	224.08
345.22	224.30
345.60	224.56
345.99	224.76
346.37	224.90
346.75	225.01
347.13	225.09
347.52	225.16
347.90	225.26
348.28	225.30
348.66	225.36
349.05	225.36
349.43	225.42
349.81	225.48
350.19	225.54
350.57	225.60
350.96	225.69
351.34	225.79
351.72	225.88
352.10	225.99
352.48	226.07
352.87	226.12
353.25	226.19
353.63	226.25
354.01	226.31
354.39	226.39
354.77	226.47
355.15	226.57
355.54	226.62
355.92	226.64
356.30	226.72
356.68	226.87
357.06	226.95
357.44	227.00
357.82	227.06
358.20	227.18
358.58	227.24
358.97	227.30
359.35	227.38
359.73	227.47
360.11	227.52
360.49	227.58
360.87	227.63
361.25	227.69
361.63	227.78
362.01	227.83
362.39	227.86
362.77	227.91
363.15	227.93
363.53	227.96
363.91	228.00
364.29	228.02
364.67	227.92
365.05	227.95
365.43	227.98
365.81	228.01
366.19	228.03
366.57	228.09
366.95	228.09
367.33	228.06
367.71	228.05
368.09	228.08
368.47	228.07
368.85	228.06
369.23	228.07
369.61	228.01
369.99	228.03
370.37	228.03
370.75	228.11
371.13	228.08
371.51	228.04
371.89	228.02
372.27	228.00
372.65	227.97
373.03	227.93
373.41	227.89
373.78	227.84
374.16	227.74
374.54	227.65
374.92	227.60
375.30	227.56
375.68	227.49
376.06	227.45
376.44	227.39
376.82	227.35
377.19	227.30
377.57	227.25
377.95	227.15
378.33	227.09
378.71	226.93
379.09	226.89
379.47	226.86
379.84	226.79
380.22	226.73
380.60	226.66
380.98	226.61
381.36	226.56
381.73	226.50
382.11	226.48
382.49	226.44
382.87	226.38
383.25	226.33
383.62	226.44
384.00	226.37
384.38	226.34
384.76	226.32
385.13	226.32
385.51	226.28
385.89	226.23
386.27	226.20
386.64	226.19
387.02	226.14
387.40	226.09
387.78	226.07
388.15	226.05
388.53	226.02
388.91	225.99
389.29	225.96
389.66	225.96
390.04	225.92
390.42	225.92
390.79	225.91
391.17	225.89
391.55	225.73
391.92	225.72
392.30	225.73
392.68	225.69
393.05	225.67
393.43	225.68
393.81	225.69
394.18	225.67
394.56	225.67
394.94	225.71
395.31	225.71
395.69	225.75
396.06	225.79
396.44	225.82
396.82	225.84
397.19	225.93
397.57	225.94
397.95	225.99
398.32	225.99
398.70	226.04
399.07	226.11
399.45	226.15
399.82	226.20
400.20	226.25
400.58	226.31
400.95	226.33
401.33	226.42
401.70	226.59
402.08	226.70
402.45	226.79
402.83	226.92
403.20	227.04
403.58	227.14
403.95	227.29
404.33	227.46
404.71	227.62
405.08	227.84
405.46	228.02
405.83	228.23
406.21	228.44
406.58	228.69
406.96	228.92
407.33	229.20
407.70	229.50
408.08	229.92
408.45	230.29
408.83	230.68
409.20	231.05
409.58	231.38
409.95	231.83
410.33	232.31
410.70	232.78
411.08	233.32
411.45	233.89
411.82	234.47
412.20	235.14
412.57	235.92
412.95	236.55
413.32	237.36
413.69	238.19
414.07	239.07
414.44	240.03
414.82	241.01
415.19	242.15
415.56	243.32
415.94	244.52
416.31	245.87
416.68	247.22
417.06	248.79
417.43	250.26
417.81	251.95
418.18	253.67
418.55	255.56
418.93	257.51
419.30	259.56
419.67	261.73
420.04	263.96
420.42	266.28
420.79	268.96
421.16	271.67
421.54	274.42
421.91	277.31
422.28	280.30
422.66	283.52
423.03	286.59
423.40	289.82
423.77	293.27
424.15	296.82
424.52	300.51
424.89	304.50
425.26	308.48
425.64	312.17
426.01	316.32
426.38	320.57
426.75	324.94
427.13	329.42
427.50	334.12
427.87	339.00
428.24	343.93
428.61	348.67
428.99	353.79
429.36	359.43
429.73	364.80
430.10	370.17
430.47	375.67
430.85	381.33
431.22	387.40
431.59	393.63
431.96	399.71
432.33	406.47
432.70	412.90
433.08	420.48
433.45	427.66
433.82	434.75
434.19	442.63
434.56	450.42
434.93	457.95
435.30	465.38
435.68	473.79
436.05	482.02
436.42	490.23
436.79	497.71
437.16	505.79
437.53	514.46
437.90	523.14
438.27	531.62
438.64	540.80
439.01	549.10
439.38	556.71
439.75	564.03
440.13	572.28
440.50	580.14
440.87	586.38
441.24	593.20
441.61	600.63
441.98	606.05
442.35	612.48
442.72	619.05
443.09	625.31
443.46	629.25
443.83	632.13
444.20	634.53
444.57	638.13
444.94	640.13
445.31	642.21
445.68	643.95
446.05	645.23
446.42	644.76
446.79	644.08
447.16	643.46
447.53	642.89
447.90	640.18
448.27	637.57
448.64	633.65
449.01	630.90
449.37	625.50
449.74	620.62
450.11	614.34
450.48	607.47
450.85	600.62
451.22	594.77
451.59	589.07
451.96	583.91
452.33	576.41
452.70	569.77
453.07	561.67
453.43	553.61
453.80	545.77
454.17	538.26
454.54	531.38
454.91	523.59
455.28	516.30
455.65	509.42
456.02	502.13
456.38	496.30
456.75	488.78
457.12	482.75
457.49	476.64
457.86	470.92
458.23	465.90
458.59	460.33
458.96	454.61
459.33	449.58
459.70	444.44
460.07	440.55
460.43	435.98
460.80	431.70
461.17	427.99
461.54	423.95
461.91	420.17
462.27	416.33
462.64	413.25
463.01	409.67
463.38	406.09
463.74	402.87
464.11	400.01
464.48	397.45
464.85	394.63
465.21	392.52
465.58	390.14
465.95	387.41
466.32	385.25
466.68	383.12
467.05	380.98
467.42	378.89
467.78	376.63
468.15	374.54
468.52	373.02
468.88	370.96
469.25	369.08
469.62	367.58
469.98	365.94
470.35	364.47
470.72	363.15
471.08	361.79
471.45	360.65
471.82	359.37
472.18	358.02
472.55	357.15
472.92	356.04
473.28	355.17
473.65	354.24
474.02	353.34
474.38	352.57
474.75	352.10
475.11	351.46
475.48	351.14
475.85	350.79
476.21	350.58
476.58	350.43
476.94	350.52
477.31	350.54
477.67	350.60
478.04	350.77
478.41	351.04
478.77	351.44
479.14	351.68
479.50	352.19
479.87	352.87
480.23	353.56
480.60	354.23
480.96	354.91
481.33	355.94
481.69	356.96
482.06	357.98
482.42	358.90
482.79	360.06
483.15	361.41
483.52	362.96
483.88	364.44
484.25	366.03
484.61	367.68
484.98	369.47
485.34	371.48
485.71	373.59
486.07	375.86
486.44	378.11
486.80	380.64
487.17	383.26
487.53	386.12
487.90	389.11
488.26	392.38
488.62	395.83
488.99	399.28
489.35	402.92
489.72	406.87
490.08	411.04
490.44	415.33
490.81	419.79
491.17	424.35
491.54	429.26
491.90	434.31
492.26	439.73
492.63	445.40
492.99	451.32
493.36	457.45
493.72	463.89
494.08	470.50
494.45	477.52
494.81	484.80
495.17	492.27
495.54	500.18
495.90	508.40
496.26	516.80
496.63	525.45
496.99	534.43
497.35	543.82
497.72	553.52
498.08	563.43
498.44	573.67
498.80	584.54
499.17	595.67
499.53	607.18
499.89	619.03
500.26	631.15
500.62	643.54
500.98	656.63
501.34	669.89
501.71	683.70
502.07	697.68
502.43	712.22
502.79	727.01
503.16	742.28
503.52	757.72
503.88	773.64
504.24	790.04
504.60	806.64
504.97	823.75
505.33	841.29
505.69	859.76
506.05	878.62
506.41	897.44
506.78	916.42
507.14	935.89
507.50	955.82
507.86	976.12
508.22	996.66
508.59	1017.00
508.95	1038.14
509.31	1060.02
509.67	1082.71
510.03	1105.44
510.39	1128.15
510.75	1150.99
511.12	1174.12
511.48	1197.43
511.84	1220.72
512.20	1244.44
512.56	1269.11
512.92	1293.82
513.28	1318.03
513.64	1342.48
514.00	1367.41
514.37	1392.73
514.73	1417.93
515.09	1442.98
515.45	1468.34
515.81	1493.94
516.17	1519.56
516.53	1544.77
516.89	1569.81
517.25	1595.00
517.61	1619.98
517.97	1645.42
518.33	1670.42
518.69	1695.36
519.05	1720.69
519.41	1746.30
519.77	1772.19
520.13	1797.20
520.49	1822.15
520.85	1847.44
521.21	1872.42
521.57	1897.68
521.93	1922.30
522.29	1947.55
522.65	1972.16
523.01	1996.76
523.37	2020.87
523.73	2045.82
524.09	2070.31
524.45	2094.62
524.81	2118.53
525.17	2142.30
525.53	2165.44
525.89	2189.05
526.25	2212.69
526.61	2235.33
526.97	2258.08
527.33	2280.71
527.68	2303.16
528.04	2324.67
528.40	2345.26
528.76	2365.85
529.12	2385.96
529.48	2405.91
529.84	2423.81
530.20	2442.49
530.56	2460.46
530.91	2478.58
531.27	2496.32
531.63	2513.20
531.99	2529.57
532.35	2545.17
532.71	2560.98
533.07	2577.44
533.42	2591.99
533.78	2607.45
534.14	2623.29
534.50	2638.15
534.86	2652.71
535.21	2665.10
535.57	2678.14
535.93	2691.02
536.29	2702.81
536.65	2714.32
537.00	2724.91
537.36	2736.63
537.72	2747.01
538.08	2756.75
538.44	2765.73
538.79	2774.26
539.15	2782.10
539.51	2789.62
539.87	2796.53
540.22	2801.24
540.58	2806.09
540.94	2812.10
541.29	2816.63
541.65	2819.27
542.01	2821.10
542.37	2822.21
542.72	2824.87
543.08	2825.68
543.44	2827.04
543.79	2827.37
544.15	2826.86
544.51	2826.82
544.87	2825.60
545.22	2823.48
545.58	2820.71
545.94	2817.93
546.29	2813.93
546.65	2809.84
547.01	2805.61
547.36	2802.18
547.72	2799.11
548.07	2794.11
548.43	2787.74
548.79	2780.20
549.14	2773.93
549.50	2768.13
549.86	2761.32
550.21	2753.29
550.57	2746.29
550.92	2736.87
551.28	2727.91
551.64	2719.46
551.99	2710.67
552.35	2701.22
552.70	2692.03
553.06	2683.25
553.41	2673.87
553.77	2664.29
554.13	2654.65
554.48	2644.13
554.84	2632.24
555.19	2620.65
555.55	2609.29
555.90	2598.02
556.26	2587.42
556.61	2575.62
556.97	2562.13
557.32	2549.03
557.68	2536.07
558.03	2522.74
558.39	2510.82
558.74	2499.29
559.10	2485.92
559.45	2472.60
559.81	2459.93
560.16	2446.66
560.52	2433.75
560.87	2421.24
561.23	2407.92
561.58	2394.53
561.94	2380.92
562.29	2366.73
562.64	2353.35
563.00	2339.69
563.35	2326.30
563.71	2312.74
564.06	2299.19
564.42	2286.42
564.77	2273.23
565.12	2259.85
565.48	2246.42
565.83	2232.86
566.19	2219.46
566.54	2206.01
566.89	2191.47
567.25	2177.11
567.60	2164.21
567.96	2150.32
568.31	2134.98
568.66	2120.25
569.02	2106.83
569.37	2093.43
569.72	2080.56
570.08	2066.41
570.43	2051.80
570.78	2037.17
571.14	2021.82
571.49	2007.02
571.84	1992.81
572.20	1977.40
572.55	1962.12
572.90	1946.90
573.26	1931.80
573.61	1916.16
573.96	1900.95
574.31	1886.03
574.67	1871.19
575.02	1855.18
575.37	1839.30
575.72	1824.33
576.08	1809.68
576.43	1793.97
576.78	1778.62
577.13	1763.53
577.49	1748.82
577.84	1734.76
578.19	1719.76
578.54	1704.84
578.90	1689.47
579.25	1673.99
579.60	1660.15
579.95	1646.25
580.30	1632.11
580.66	1617.66
581.01	1603.17
581.36	1588.69
581.71	1575.14
582.06	1561.55
582.42	1548.18
582.77	1534.90
583.12	1521.62
583.47	1508.23
583.82	1494.93
584.17	1481.26
584.53	1467.34
584.88	1453.73
585.23	1439.81
585.58	1426.61
585.93	1413.61
586.28	1401.38
586.63	1389.07
586.98	1376.32
587.34	1363.65
587.69	1350.72
588.04	1338.11
588.39	1325.85
588.74	1313.75
589.09	1301.47
589.44	1288.75
589.79	1276.67
590.14	1264.69
590.49	1252.58
590.84	1240.64
591.19	1229.09
591.54	1217.35
591.89	1205.72
592.25	1194.35
592.60	1182.55
592.95	1171.19
593.30	1160.14
593.65	1148.79
594.00	1137.59
594.35	1126.93
594.70	1115.81
595.05	1105.55
595.40	1095.19
595.75	1084.67
596.10	1074.67
596.45	1064.47
596.80	1054.61
597.15	1044.46
597.50	1034.47
597.85	1024.93
598.19	1015.23
598.54	1005.54
598.89	996.39
599.24	987.52
599.59	978.41
599.94	970.19
600.29	961.82
600.64	953.18
600.99	944.19
601.34	935.52
601.69	926.51
602.04	918.22
602.39	909.72
602.74	901.33
603.08	892.88
603.43	884.39
603.78	876.06
604.13	867.87
604.48	859.73
604.83	851.74
605.18	843.71
605.53	835.85
605.87	827.87
606.22	820.07
606.57	812.27
606.92	804.41
607.27	796.50
607.62	788.84
607.96	781.57
608.31	774.75
608.66	767.74
609.01	761.01
609.36	754.36
609.70	747.58
610.05	740.73
610.40	734.18
610.75	727.58
611.10	721.36
611.44	714.96
611.79	708.69
612.14	702.32
612.49	696.02
612.83	690.01
613.18	684.12
613.53	678.19
613.88	672.25
614.22	666.69
614.57	661.09
614.92	655.38
615.27	649.75
615.61	644.19
615.96	638.70
616.31	633.20
616.65	627.75
617.00	622.49
617.35	617.36
617.70	612.24
618.04	607.22
618.39	602.09
618.74	597.20
619.08	592.34
619.43	587.63
619.78	582.92
620.12	578.18
620.47	573.57
620.82	569.07
621.16	564.67
621.51	560.17
621.85	555.69
622.20	551.36
622.55	547.08
622.89	542.88
623.24	538.70
623.59	534.52
623.93	530.51
624.28	526.61
624.62	522.80
624.97	519.04
625.32	515.22
625.66	511.38
626.01	507.51
626.35	503.70
626.70	499.93
627.04	496.37
627.39	492.70
627.73	489.23
628.08	485.84
628.43	482.42
628.77	479.08
629.12	475.87
629.46	472.71
629.81	469.44
630.15	466.14
630.50	462.96
630.84	459.84
631.19	456.77
631.53	453.78
631.88	450.76
632.22	447.77
632.57	445.05
632.91	442.37
633.26	439.78
633.60	437.22
633.95	434.70
634.29	432.10
634.64	429.58
634.98	426.88
635.32	424.30
635.67	421.92
636.01	419.48
636.36	417.06
636.70	414.76
637.05	412.48
637.39	410.26
637.73	408.04
638.08	405.94
638.42	403.83
638.77	401.58
639.11	399.29
639.45	397.08
639.80	394.81
640.14	392.64
640.49	390.46
640.83	388.26
641.17	386.16
641.52	384.10
641.86	382.08
642.20	380.24
642.55	378.27
642.89	376.32
643.23	374.45
643.58	372.75
643.92	370.93
644.26	369.17
644.61	367.44
644.95	365.70
645.29	363.88
645.64	362.07
645.98	360.39
646.32	358.80
646.66	357.20
647.01	355.64
647.35	354.11
647.69	352.57
648.04	351.14
648.38	349.65
648.72	348.16
649.06	346.70
649.41	345.24
649.75	343.83
650.09	342.45
650.43	341.07
650.78	339.64
651.12	338.27
651.46	336.94
651.80	335.63
652.14	334.36
652.49	333.13
652.83	331.86
653.17	330.65
653.51	329.47
653.85	328.35
654.20	327.19
654.54	325.95
654.88	324.79
655.22	323.68
655.56	322.56
655.90	321.50
656.25	320.47
656.59	319.43
656.93	318.45
657.27	317.48
657.61	316.45
657.95	315.48
658.29	314.50
658.64	313.57
658.98	312.63
659.32	311.73
659.66	310.87
660.00	310.05
660.34	309.20
660.68	308.35
661.02	307.46
661.36	306.61
661.70	305.81
662.05	305.03
662.39	304.25
662.73	303.54
663.07	302.84
663.41	302.09
663.75	301.34
664.09	300.60
664.43	299.83
664.77	299.13
665.11	298.39
665.45	297.72
665.79	297.06
666.13	296.37
666.47	295.66
666.81	294.94
667.15	294.20
667.49	293.56
667.83	292.97
668.17	292.36
668.51	291.78
668.85	291.24
669.19	290.72
669.53	290.11
669.87	289.50
670.21	288.90
670.55	288.35
670.89	287.88
671.23	287.36
671.57	286.85
671.91	286.38
672.25	285.95
672.58	285.52
672.92	285.00
673.26	284.56
673.60	284.12
673.94	283.71
674.28	283.32
674.62	282.90
674.96	282.43
675.30	282.02
675.64	281.58
675.97	281.12
676.31	280.64
676.65	280.21
676.99	279.85
677.33	279.41
677.67	279.01
678.01	278.53
678.34	278.14
678.68	277.77
679.02	277.34
679.36	276.92
679.70	276.49
680.04	276.12
680.37	275.74
680.71	275.37
681.05	275.02
681.39	274.63
681.73	274.22
682.06	273.84
682.40	273.46
682.74	273.14
683.08	272.86
683.42	272.53
683.75	272.22
684.09	271.83
684.43	271.51
684.77	271.18
685.10	270.89
685.44	270.58
685.78	270.25
686.12	269.97
686.45	269.65
686.79	269.32
687.13	269.02
687.46	268.69
687.80	268.39
688.14	268.03
688.48	267.74
688.81	267.43
689.15	267.17
689.49	266.86
689.82	266.53
690.16	266.16
690.50	265.86
690.83	265.56
691.17	265.25
691.51	264.96
691.84	264.68
692.18	264.36
692.52	264.04
692.85	263.74
693.19	263.48
693.52	263.19
693.86	262.91
694.20	262.62
694.53	262.35
694.87	262.05
695.21	261.76
695.54	261.48
695.88	261.19
696.21	260.87
696.55	260.60
696.88	260.32
697.22	260.05
697.56	259.77
697.89	259.45
698.23	259.19
698.56	258.89
698.90	258.62
699.23	258.33
699.57	258.05
699.90	257.76
700.24	257.46
700.58	257.21
700.91	256.98
701.25	256.83
701.58	256.62
701.92	256.41
702.25	256.16
702.59	255.90
702.92	255.66
703.26	255.41
703.59	255.14
703.93	254.99
704.26	254.75
704.60	254.50
704.93	254.25
705.26	253.99
705.60	253.78
705.93	253.51
706.27	253.31
706.60	253.11
706.94	252.93
707.27	252.66
707.61	252.41
707.94	252.14
708.27	251.78
708.61	251.48
708.94	251.21
709.28	250.98
709.61	250.74
709.94	250.53
710.28	250.32
710.61	250.12
710.95	249.80
711.28	249.67
711.61	249.45
711.95	249.27
712.28	249.05
712.61	248.81
712.95	248.67
713.28	248.52
713.61	248.28
713.95	248.03
714.28	247.84
714.61	247.63
714.95	247.43
715.28	247.23
715.61	247.04
715.95	246.87
716.28	246.68
716.61	246.52
716.95	246.31
717.28	246.12
717.61	245.92
717.94	245.73
718.28	245.45
718.61	245.26
718.94	245.05
719.27	244.87
719.61	244.71
719.94	244.50
720.27	244.23
720.60	244.05
720.94	243.88
721.27	243.71
721.60	243.56
721.93	243.38
722.27	243.26
722.60	243.10
722.93	242.91
723.26	242.75
723.59	242.54
723.93	242.39
724.26	242.23
724.59	242.06
724.92	241.91
725.25	241.80
725.59	241.65
725.92	241.52
726.25	241.37
726.58	241.22
726.91	241.06
727.24	240.94
727.57	240.79
727.91	240.63
728.24	240.51
728.57	240.36
728.90	240.23
729.23	240.04
729.56	239.96
729.89	239.81
730.22	239.66
730.55	239.53
730.89	239.39
731.22	239.25
731.55	239.11
731.88	238.98
732.21	238.81
732.54	238.68
732.87	238.55
733.20	238.43
733.53	238.30
733.86	238.19
734.19	238.05
734.52	237.94
734.85	237.92
735.18	237.76
735.51	237.68
735.84	237.56
736.17	237.48
736.50	237.30
736.83	237.34
737.16	237.24
737.49	237.14
737.82	237.02
738.15	236.93
738.48	236.82
738.81	236.71
739.14	236.59
739.47	236.48
739.80	236.36
740.13	236.26
740.46	236.13
740.79	236.01
741.12	235.90
741.45	235.77
741.78	235.59
742.11	235.53
742.44	235.39
742.77	235.30
743.10	235.18
743.43	235.07
743.75	234.84
744.08	234.94
744.41	234.83
744.74	234.73
745.07	234.60
745.40	234.53
745.73	234.50
746.06	234.42
746.39	234.34
746.71	234.25
747.04	234.14
747.37	234.06
747.70	234.00
748.03	233.92
748.36	233.86
748.68	233.77
749.01	233.65
749.34	233.57
749.67	233.49
750.00	233.43
750.33	233.44
750.65	233.37
750.98	233.10
751.31	233.02
751.64	232.95
751.97	232.95
752.29	232.86
752.62	232.72
752.95	232.63
753.28	232.53
753.60	232.45
753.93	232.41
754.26	232.34
754.59	232.22
754.91	232.13
755.24	232.04
755.57	232.02
755.90	231.95
756.22	231.86
756.55	231.76
756.88	231.67
757.20	231.51
757.53	231.40
757.86	231.33
758.19	231.26
758.51	231.19
758.84	231.06
759.17	230.97
759.49	230.92
759.82	230.91
760.15	230.86
760.47	230.80
760.80	230.70
761.13	230.66
761.45	230.60
761.78	230.55
762.11	230.49
762.43	230.37
762.76	230.31
763.08	230.28
763.41	230.23
763.74	230.18
764.06	230.13
764.39	230.08
764.71	230.03
765.04	229.96
765.37	229.90
765.69	229.86
766.02	229.81
766.34	229.75
766.67	229.65
767.00	229.63
767.32	229.65
767.65	229.68
767.97	229.62
768.30	229.59
768.62	229.54
768.95	229.48
769.27	229.43
769.60	229.41
769.92	229.34
770.25	229.27
770.57	229.21
770.90	229.17
771.22	229.12
771.55	229.08
771.87	229.05
772.20	229.01
772.52	229.08
772.85	229.19
773.17	229.16
773.50	229.11
773.82	229.05
774.15	228.95
774.47	228.83
774.80	228.78
775.12	228.74
775.45	228.71
775.77	228.68
776.09	228.66
776.42	228.63
776.74	228.64
777.07	228.61
777.39	228.58
777.72	228.54
778.04	228.53
778.36	228.49
778.69	228.46
779.01	228.45
779.33	228.30
779.66	228.13
779.98	228.10
780.31	228.08
780.63	228.10
780.95	228.10
781.28	228.08
781.60	228.04
781.92	228.02
782.25	227.99
782.57	227.97
782.89	227.93
783.22	227.90
783.54	227.85
783.86	227.84
784.19	227.80
784.51	227.82
784.83	227.78
785.16	227.75
785.48	227.73
785.80	227.71
786.12	227.70
786.45	227.67
786.77	227.66
787.09	227.63
787.42	227.56
787.74	227.54
788.06	227.53
788.38	227.51
788.71	227.48
789.03	227.46
789.35	227.46
789.67	227.43
789.99	227.42
790.32	227.39
790.64	227.38
790.96	227.49
791.28	227.42
791.61	227.40
791.93	227.39
792.25	227.36
792.57	227.44
792.89	227.39
793.21	227.39
793.54	227.36
793.86	227.33
794.18	227.32
794.50	227.27
794.82	227.26
795.14	227.26
795.47	227.26
795.79	227.24
796.11	227.19
796.43	227.17
796.75	227.15
797.07	227.15
797.39	227.12
797.71	227.00
798.04	226.99
798.36	226.99
798.68	226.97
799.00	226.96
799.32	226.88
799.64	226.89
799.96	226.87
800.28	226.88
800.60	226.87
800.92	226.86
801.24	226.84
801.56	226.84
801.89	226.81
802.21	226.80
802.53	226.77
802.85	226.79
803.17	226.83
803.49	226.80
803.81	226.77
804.13	226.75
804.45	226.72
804.77	226.72
805.09	226.70
805.41	226.68
805.73	226.64
806.05	226.60
806.37	226.58
806.69	226.55
807.01	226.53
807.33	226.52
807.65	226.47
807.97	226.51
808.28	226.48
808.60	226.47
808.92	226.44
809.24	226.51
809.56	226.48
809.88	226.42
810.20	226.42
810.52	226.44
810.84	226.41
811.16	226.39
811.48	226.37
811.80	226.40
812.12	226.39
812.43	226.40
812.75	226.41
813.07	226.39
813.39	226.38
813.71	226.36
814.03	226.34
814.35	226.33
814.67	226.27
814.98	226.25
815.30	226.24
815.62	226.21
815.94	226.12
816.26	226.13
816.58	226.09
816.89	226.10
817.21	226.06
817.53	226.06
817.85	226.06
818.17	226.05
818.48	225.99
818.80	226.01
819.12	225.98
819.44	225.95
819.76	225.93
820.07	225.92
820.39	225.91
820.71	225.91
821.03	225.91
821.34	225.89
821.66	225.90
821.98	225.91
822.30	225.90
822.61	225.97
822.93	225.94
823.25	225.94
823.57	225.92
823.88	225.93
824.20	225.92
824.52	225.93
824.83	225.92
825.15	225.91
825.47	225.89
825.79	225.90
826.10	225.89
826.42	225.88
826.74	225.88
827.05	225.87
827.37	225.87
827.69	225.86
828.00	225.86
828.32	225.85
828.64	225.82
828.95	225.89
829.27	225.84
829.58	225.84
829.90	225.86
830.22	225.86
830.53	225.83
830.85	225.82
831.17	225.78
831.48	225.77
831.80	225.77
832.11	225.76
832.43	225.74
832.75	225.73
833.06	225.80
833.38	225.76
833.69	225.76
834.01	225.75
834.32	225.75
834.64	225.73
834.96	225.72
835.27	225.72
835.59	225.67
835.90	225.65
836.22	225.64
836.53	225.61
836.85	225.59
837.16	225.72
837.48	225.72
837.79	225.76
838.11	225.76
838.42	225.76
838.74	225.77
839.05	225.76
839.37	225.75
839.68	225.67
840.00	225.66
840.31	225.68
840.63	225.66
840.94	225.65
841.26	225.64
841.57	225.63
841.88	225.64
842.20	225.62
842.51	225.59
842.83	225.59
843.14	225.70
843.46	225.69
843.77	225.61
844.08	225.61
844.40	225.57
844.71	225.55
845.03	225.54
845.34	225.52
845.65	225.51
845.97	225.51
846.28	225.52
846.60	225.52
846.91	225.50
847.22	225.49
847.54	225.52
847.85	225.53
848.16	225.51
848.48	225.49
848.79	225.53
849.10	225.55
849.42	225.55
849.73	225.43
850.04	225.43
850.36	225.38
850.67	225.40
850.98	225.40
851.30	225.41
851.61	225.40
851.92	225.40
852.23	225.44
852.55	225.44
852.86	225.45
853.17	225.45
853.49	225.48
853.80	225.50
854.11	225.51
854.42	225.52
854.74	225.51
855.05	225.51
855.36	225.45
855.67	225.45
855.99	225.45
856.30	225.60
856.61	225.59
856.92	225.60
857.23	225.60
857.55	225.59
857.86	225.58
858.17	225.60
858.48	225.58
858.79	225.55
859.11	225.56
859.42	225.54
859.73	225.53
860.04	225.52
860.35	225.47
860.66	225.43
860.98	225.43
861.29	225.44
861.60	225.43
861.91	225.46
862.22	225.44
862.53	225.42
862.84	225.26
863.16	225.29
863.47	225.27
863.78	225.25
864.09	225.26
864.40	225.26
864.71	225.26
865.02	225.28
865.33	225.26
865.64	225.24
865.95	225.24
866.27	225.31
866.58	225.30
866.89	225.32
867.20	225.31
867.51	225.29
867.82	225.28
868.13	225.32
868.44	225.29
868.75	225.31
869.06	225.32
869.37	225.34
869.68	225.30
869.99	225.33
870.30	225.33
870.61	225.35
870.92	225.33
871.23	225.32
871.54	225.33
871.85	225.36
872.16	225.38
872.47	225.37
872.78	225.30
873.09	225.31
873.40	225.30
873.71	225.31
874.02	225.32
874.33	225.31
874.64	225.28
874.95	225.30
875.26	225.28
875.56	225.27
875.87	225.26
876.18	225.26
876.49	225.38
876.80	225.36
877.11	225.34
877.42	225.34
877.73	225.34
878.04	225.32
878.35	225.32
878.66	225.32
878.96	225.31
879.27	225.30
879.58	225.30
879.89	225.29
880.20	225.32
880.51	225.31
880.82	225.32
881.12	225.32
881.43	225.29
881.74	225.28
882.05	225.28
882.36	225.28
882.67	225.29
882.97	225.15
883.28	225.15
883.59	225.14
883.90	225.15
884.21	225.17
884.51	225.16
884.82	225.14
885.13	225.14
885.44	225.14
885.74	225.14
886.05	225.13
886.36	225.14
886.67	225.09
886.98	225.15
887.28	225.16
887.59	225.15
887.90	225.16
888.20	225.16
888.51	225.18
888.82	225.16
889.13	225.16
889.43	225.27
889.74	225.27
890.05	225.27
890.35	225.25
890.66	225.23
890.97	225.22
891.28	225.21
891.58	225.21
891.89	225.21
892.20	225.19
892.50	225.18
892.81	225.17
893.12	225.17
893.42	225.10
893.73	225.11
894.04	225.11
894.34	225.12
894.65	225.12
894.95	225.10
895.26	225.11
895.57	225.16
895.87	225.03
896.18	225.06
896.48	225.06
896.79	225.06
897.10	225.08
897.40	225.09
897.71	225.10
898.01	225.09
898.32	225.11
898.63	225.10
898.93	225.11
899.24	225.12
899.54	225.11
899.85	225.10
900.15	225.09
900.46	225.09
900.76	225.10
901.07	225.10
901.38	225.10
901.68	225.11
901.99	225.04
902.29	225.05
902.60	225.04
902.90	225.03
903.21	225.03
903.51	225.01
903.82	225.04
904.12	225.04
904.43	225.04
904.73	225.03
905.03	225.04
905.34	225.16
905.64	225.15
905.95	225.16
906.25	225.15
906.56	225.15
906.86	225.15
907.17	225.14
907.47	225.14
907.77	225.13
908.08	225.10
908.38	225.11
908.69	225.12
908.99	225.14
909.30	225.15
909.60	225.14
909.90	225.14
910.21	225.11
910.51	225.08
910.81	225.09
911.12	225.09
911.42	225.09
911.73	224.96
912.03	224.97
912.33	225.00
912.64	224.99
912.94	224.98
913.24	224.96
913.55	224.95
913.85	224.94
914.15	224.96
914.46	224.98
914.76	224.97
915.06	224.96
915.37	224.93
915.67	224.92
915.97	224.92
916.27	224.91
916.58	224.91
916.88	224.91
917.18	224.90
917.49	224.99
917.79	224.98
918.09	225.00
918.39	225.03
918.70	225.02
919.00	225.03
919.30	225.09
919.60	225.09
919.91	225.08
920.21	225.08
920.51	225.05
920.81	225.04
921.12	225.07
921.42	225.06
921.72	225.07
922.02	225.08
922.32	225.10
922.63	225.10
922.93	225.17
923.23	225.18
923.53	225.17
923.83	225.08
924.13	225.09
924.44	225.09
924.74	225.10
925.04	225.12
925.34	225.12
925.64	225.06
925.94	225.06
926.24	225.14
926.55	225.13
926.85	225.14
927.15	225.14
927.45	225.14
927.75	225.14
928.05	225.14
928.35	225.13
928.65	225.14
928.95	225.15
929.26	225.09
929.56	225.12
929.86	225.13
930.16	225.12
930.46	225.11
930.76	225.12
931.06	225.06
931.36	225.02
931.66	225.04
931.96	225.06
932.26	225.06
932.56	225.01
932.86	225.01
933.16	225.01
933.46	225.00
933.76	224.98
934.06	225.01
934.36	225.05
934.66	225.04
934.96	225.02
935.26	225.02
935.56	225.04
935.86	225.00
936.16	224.99
936.46	224.98
936.76	224.97
937.06	224.95
937.36	224.96
937.66	224.97
937.96	224.95
938.26	224.93
938.56	224.92
938.86	224.93
939.16	224.95
939.46	224.96
939.76	224.97
940.06	224.97
940.35	224.95
940.65	224.88
940.95	224.90
941.25	224.87
941.55	224.85
941.85	224.84
942.15	224.87
942.45	224.91
942.75	224.91
943.04	224.91
943.34	224.94
943.64	224.93
943.94	224.91
944.24	224.91
944.54	224.92
944.84	224.92
945.13	224.90
945.43	224.88
945.73	224.87
946.03	224.86
946.33	224.84
946.62	224.83
946.92	224.83
947.22	224.84
947.52	224.85
947.82	224.86
948.11	224.85
948.41	224.82
948.71	224.78
949.01	224.79
949.31	224.78
949.60	224.77
949.90	224.79
950.20	224.79
950.50	224.78
950.79	224.77
951.09	224.79
951.39	224.79
951.69	224.78
951.98	224.80
952.28	224.81
952.58	224.81
952.87	224.81
953.17	224.83
953.47	224.82
953.76	224.82
954.06	224.79
954.36	224.77
954.66	224.78
954.95	224.81
955.25	224.82
955.55	224.83
955.84	224.81
956.14	224.81
956.44	224.82
956.73	224.81
957.03	224.82
957.32	224.82
957.62	224.81
957.92	224.84
958.21	224.82
958.51	224.97
958.81	224.99
959.10	225.00
959.40	225.03
959.69	225.04
959.99	225.05
960.29	225.06
960.58	225.06
960.88	225.10
961.17	225.08
961.47	225.09
961.76	225.08
962.06	225.10
962.36	225.09
962.65	225.09
962.95	225.10
963.24	225.08
963.54	225.08
963.83	225.10
964.13	225.09
964.42	225.07
964.72	224.96
965.01	224.96
965.31	224.95
965.60	224.92
965.90	224.99
966.19	224.96
966.49	224.97
966.78	224.97
967.08	224.95
967.37	224.96
967.67	224.93
967.96	224.96
968.26	224.95
968.55	224.97
968.85	224.96
969.14	224.96
969.43	224.96
969.73	224.94
970.02	224.93
970.32	224.92
970.61	224.90
970.91	224.87
971.20	224.85
971.49	224.84
971.79	224.86
972.08	224.77
972.38	224.78
972.67	224.77
972.96	224.79
973.26	224.76
973.55	224.80
973.85	224.80
974.14	224.78
974.43	224.79
974.73	224.77
975.02	224.75
975.31	224.76
975.61	224.75
975.90	224.74
976.19	224.73
976.49	224.74
976.78	224.75
977.07	224.75
977.37	224.76
977.66	224.77
977.95	224.76
978.24	224.77
978.54	224.79
978.83	224.79
979.12	224.78
979.42	224.78
979.71	224.75
980.00	224.74
980.29	224.75
980.59	224.73
980.88	224.76
981.17	224.76
981.46	224.76
981.76	224.76
982.05	224.80
982.34	224.81
982.63	224.81
982.93	224.81
983.22	224.84
983.51	224.84
983.80	224.86
984.09	224.88
984.39	224.86
984.68	224.85
984.97	224.86
985.26	224.85
985.55	224.86
985.85	224.84
986.14	224.86
986.43	224.87
986.72	224.86
987.01	224.82
987.30	224.82
987.59	224.82
987.89	224.82
988.18	224.78
988.47	224.77
988.76	224.76
989.05	224.75
989.34	224.73
989.63	224.76
989.92	224.74
990.22	224.72
990.51	224.72
990.80	224.71
991.09	224.72
991.38	224.74
991.67	224.72
991.96	224.71
992.25	224.71
992.54	224.69
992.83	224.69
993.12	224.68
993.41	224.71
993.70	224.76
993.99	224.78
994.28	224.80
994.58	224.82
994.87	224.81
995.16	224.81
995.45	224.80
995.74	224.75
996.03	224.77
996.32	224.79
996.61	224.82
996.90	224.81
997.19	224.80
997.48	224.80
997.77	224.79
998.06	224.80
998.34	224.79
998.63	224.79
998.92	224.80
999.21	224.82
999.50	224.82
999.79	224.77
1000.08	224.76
1000.37	224.76
1000.66	224.75
1000.95	224.78
1001.24	224.79
1001.53	224.81
1001.82	224.81
1002.11	224.78
1002.40	224.78
1002.68	224.81
1002.97	224.90
1003.26	224.89
1003.55	224.87
1003.84	224.88
1004.13	224.93
1004.42	224.92
1004.71	224.92
1004.99	224.91
1005.28	224.94
1005.57	224.93
1005.86	224.92
1006.15	224.91
1006.44	224.89
1006.72	224.91
1007.01	224.88
1007.30	224.88
1007.59	224.87
1007.88	224.87
1008.17	224.88
1008.45	224.85
1008.74	224.80
1009.03	224.74
1009.32	224.75
1009.60	224.75
1009.89	224.74
1010.18	224.68
1010.47	224.68
1010.76	224.68
1011.04	224.68
1011.33	224.68
1011.62	224.69
1011.91	224.70
1012.19	224.70
1012.48	224.71
1012.77	224.71
1013.05	224.75
1013.34	224.75
1013.63	224.74
1013.92	224.75
1014.20	224.75
1014.49	224.75
1014.78	224.76
1015.06	224.72
1015.35	224.72
1015.64	224.74
1015.92	224.76
1016.21	224.77
1016.50	224.77
1016.78	224.78
1017.07	224.79
1017.36	224.77
1017.64	224.75
1017.93	224.76
1018.22	224.75
1018.50	224.74
1018.79	224.74
1019.08	224.69
1019.36	224.70
1019.65	224.69
1019.93	224.72
1020.22	224.74
1020.51	224.80
1020.79	224.78
1021.08	224.53
1021.36	224.53
1021.65	224.74
1021.94	224.65
1022.22	224.83
1022.51	224.50
1022.79	225.33
1023.08	224.88
1023.36	226.24
1023.65	224.41
>>>>>End Processed Spectral Data<<<<<
