SpectraSuite Data File
++++++++++++++++++++++++++++++++++++
Date: Sat Oct 03 07:19:38 EDT 2015
User: lab3
Dark Spectrum Present: No
Reference Spectrum Present: No
Number of Sampled Component Spectra: 1
Spectrometers: USB2E7196
Integration Time (usec): 46000 (USB2E7196)
Spectra Averaged: 12000 (USB2E7196)
Boxcar Smoothing: 10 (USB2E7196)
Correct for Electrical Dark: No (USB2E7196)
Strobe/Lamp Enabled: No (USB2E7196)
Correct for Detector Non-linearity: No (USB2E7196)
Correct for Stray Light: No (USB2E7196)
Number of Pixels in Processed Spectrum: 2048
>>>>>Begin Processed Spectral Data<<<<<
339.09	0.00
339.48	213.70
339.86	215.19
340.24	216.59
340.63	218.02
341.01	221.32
341.39	220.74
341.78	222.13
342.16	223.31
342.54	223.67
342.93	212.19
343.31	222.91
343.69	223.45
344.07	223.91
344.46	224.35
344.84	224.73
345.22	224.95
345.60	225.21
345.99	225.40
346.37	225.54
346.75	225.65
347.13	225.72
347.52	225.79
347.90	225.88
348.28	225.91
348.66	225.97
349.05	225.97
349.43	226.02
349.81	226.07
350.19	226.13
350.57	226.20
350.96	226.28
351.34	226.37
351.72	226.47
352.10	226.57
352.48	226.64
352.87	226.69
353.25	226.75
353.63	226.81
354.01	226.87
354.39	226.95
354.77	227.02
355.15	227.13
355.54	227.18
355.92	227.20
356.30	227.28
356.68	227.42
357.06	227.50
357.44	227.55
357.82	227.60
358.20	227.72
358.58	227.78
358.97	227.84
359.35	227.93
359.73	228.01
360.11	228.06
360.49	228.12
360.87	228.17
361.25	228.24
361.63	228.33
362.01	228.38
362.39	228.41
362.77	228.45
363.15	228.48
363.53	228.51
363.91	228.55
364.29	228.57
364.67	228.47
365.05	228.50
365.43	228.54
365.81	228.57
366.19	228.58
366.57	228.64
366.95	228.64
367.33	228.61
367.71	228.60
368.09	228.62
368.47	228.61
368.85	228.60
369.23	228.61
369.61	228.55
369.99	228.57
370.37	228.57
370.75	228.65
371.13	228.62
371.51	228.58
371.89	228.56
372.27	228.54
372.65	228.52
373.03	228.48
373.41	228.43
373.78	228.38
374.16	228.28
374.54	228.20
374.92	228.15
375.30	228.11
375.68	228.04
376.06	228.00
376.44	227.95
376.82	227.91
377.19	227.86
377.57	227.81
377.95	227.72
378.33	227.65
378.71	227.49
379.09	227.44
379.47	227.41
379.84	227.34
380.22	227.28
380.60	227.21
380.98	227.17
381.36	227.12
381.73	227.05
382.11	227.03
382.49	226.99
382.87	226.93
383.25	226.89
383.62	226.99
384.00	226.93
384.38	226.89
384.76	226.88
385.13	226.87
385.51	226.84
385.89	226.78
386.27	226.75
386.64	226.74
387.02	226.69
387.40	226.65
387.78	226.62
388.15	226.60
388.53	226.57
388.91	226.54
389.29	226.51
389.66	226.51
390.04	226.47
390.42	226.46
390.79	226.45
391.17	226.43
391.55	226.28
391.92	226.27
392.30	226.27
392.68	226.23
393.05	226.20
393.43	226.20
393.81	226.21
394.18	226.19
394.56	226.19
394.94	226.22
395.31	226.22
395.69	226.27
396.06	226.30
396.44	226.32
396.82	226.33
397.19	226.42
397.57	226.43
397.95	226.48
398.32	226.47
398.70	226.51
399.07	226.58
399.45	226.62
399.82	226.67
400.20	226.70
400.58	226.77
400.95	226.78
401.33	226.87
401.70	227.03
402.08	227.13
402.45	227.22
402.83	227.34
403.20	227.46
403.58	227.55
403.95	227.69
404.33	227.84
404.71	227.99
405.08	228.20
405.46	228.37
405.83	228.55
406.21	228.75
406.58	228.98
406.96	229.19
407.33	229.45
407.70	229.74
408.08	230.12
408.45	230.46
408.83	230.83
409.20	231.16
409.58	231.45
409.95	231.86
410.33	232.31
410.70	232.73
411.08	233.23
411.45	233.75
411.82	234.28
412.20	234.89
412.57	235.62
412.95	236.18
413.32	236.92
413.69	237.69
414.07	238.50
414.44	239.37
414.82	240.26
415.19	241.31
415.56	242.37
415.94	243.47
416.31	244.71
416.68	245.95
417.06	247.38
417.43	248.73
417.81	250.28
418.18	251.85
418.55	253.57
418.93	255.36
419.30	257.23
419.67	259.21
420.04	261.25
420.42	263.37
420.79	265.83
421.16	268.31
421.54	270.83
421.91	273.46
422.28	276.18
422.66	279.12
423.03	281.93
423.40	284.88
423.77	288.03
424.15	291.26
424.52	294.63
424.89	298.28
425.26	301.90
425.64	305.26
426.01	309.05
426.38	312.92
426.75	316.91
427.13	321.00
427.50	325.28
427.87	329.74
428.24	334.24
428.61	338.55
428.99	343.22
429.36	348.35
429.73	353.25
430.10	358.16
430.47	363.18
430.85	368.34
431.22	373.88
431.59	379.58
431.96	385.14
432.33	391.32
432.70	397.20
433.08	404.13
433.45	410.69
433.82	417.16
434.19	424.38
434.56	431.50
434.93	438.37
435.30	445.17
435.68	452.84
436.05	460.37
436.42	467.86
436.79	474.70
437.16	482.08
437.53	489.98
437.90	497.89
438.27	505.63
438.64	513.99
439.01	521.56
439.38	528.49
439.75	535.15
440.13	542.67
440.50	549.81
440.87	555.47
441.24	561.68
441.61	568.44
441.98	573.36
442.35	579.21
442.72	585.15
443.09	590.82
443.46	594.39
443.83	596.99
444.20	599.13
444.57	602.37
444.94	604.16
445.31	606.03
445.68	607.59
446.05	608.71
446.42	608.24
446.79	607.57
447.16	606.97
447.53	606.40
447.90	603.88
448.27	601.45
448.64	597.84
449.01	595.30
449.37	590.35
449.74	585.86
450.11	580.11
450.48	573.83
450.85	567.57
451.22	562.20
451.59	556.97
451.96	552.24
452.33	545.38
452.70	539.31
453.07	531.91
453.43	524.53
453.80	517.38
454.17	510.53
454.54	504.23
454.91	497.11
455.28	490.46
455.65	484.20
456.02	477.59
456.38	472.27
456.75	465.42
457.12	459.92
457.49	454.36
457.86	449.13
458.23	444.57
458.59	439.50
458.96	434.31
459.33	429.75
459.70	425.09
460.07	421.57
460.43	417.42
460.80	413.54
461.17	410.19
461.54	406.53
461.91	403.13
462.27	399.66
462.64	396.89
463.01	393.66
463.38	390.42
463.74	387.49
464.11	384.91
464.48	382.60
464.85	380.06
465.21	378.17
465.58	376.03
465.95	373.57
466.32	371.62
466.68	369.70
467.05	367.78
467.42	365.91
467.78	363.87
468.15	361.99
468.52	360.64
468.88	358.79
469.25	357.11
469.62	355.78
469.98	354.32
470.35	353.02
470.72	351.85
471.08	350.64
471.45	349.64
471.82	348.51
472.18	347.32
472.55	346.54
472.92	345.56
473.28	344.80
473.65	343.98
474.02	343.18
474.38	342.52
474.75	342.13
475.11	341.58
475.48	341.32
475.85	341.03
476.21	340.87
476.58	340.76
476.94	340.88
477.31	340.93
477.67	341.00
478.04	341.20
478.41	341.47
478.77	341.88
479.14	342.13
479.50	342.64
479.87	343.29
480.23	343.94
480.60	344.60
480.96	345.25
481.33	346.23
481.69	347.20
482.06	348.17
482.42	349.06
482.79	350.17
483.15	351.45
483.52	352.91
483.88	354.31
484.25	355.81
484.61	357.37
484.98	359.06
485.34	360.97
485.71	362.96
486.07	365.09
486.44	367.21
486.80	369.58
487.17	372.05
487.53	374.75
487.90	377.58
488.26	380.66
488.62	383.90
488.99	387.15
489.35	390.57
489.72	394.28
490.08	398.18
490.44	402.21
490.81	406.40
491.17	410.70
491.54	415.32
491.90	420.09
492.26	425.18
492.63	430.52
492.99	436.09
493.36	441.86
493.72	447.94
494.08	454.15
494.45	460.76
494.81	467.62
495.17	474.66
495.54	482.10
495.90	489.83
496.26	497.76
496.63	505.91
496.99	514.39
497.35	523.27
497.72	532.44
498.08	541.80
498.44	551.49
498.80	561.76
499.17	572.29
499.53	583.14
499.89	594.37
500.26	605.83
500.62	617.59
500.98	629.97
501.34	642.54
501.71	655.63
502.07	668.91
502.43	682.73
502.79	696.77
503.16	711.28
503.52	725.98
503.88	741.11
504.24	756.70
504.60	772.49
504.97	788.78
505.33	805.51
505.69	823.13
506.05	841.10
506.41	859.00
506.78	877.09
507.14	895.70
507.50	914.74
507.86	934.14
508.22	953.77
508.59	973.22
508.95	993.47
509.31	1014.47
509.67	1036.18
510.03	1057.90
510.39	1079.67
510.75	1101.62
511.12	1123.87
511.48	1146.28
511.84	1168.75
512.20	1191.61
512.56	1215.33
512.92	1239.09
513.28	1262.48
513.64	1286.09
514.00	1310.19
514.37	1334.58
514.73	1358.97
515.09	1383.24
515.45	1407.82
515.81	1432.60
516.17	1457.50
516.53	1481.96
516.89	1506.29
517.25	1530.79
517.61	1555.15
517.97	1579.99
518.33	1604.36
518.69	1628.65
519.05	1653.40
519.41	1678.42
519.77	1703.75
520.13	1728.29
520.49	1752.75
520.85	1777.50
521.21	1801.89
521.57	1826.60
521.93	1850.82
522.29	1875.58
522.65	1899.79
523.01	1923.99
523.37	1947.78
523.73	1972.28
524.09	1996.50
524.45	2020.51
524.81	2044.15
525.17	2067.66
525.53	2090.60
525.89	2113.98
526.25	2137.31
526.61	2159.67
526.97	2182.19
527.33	2204.55
527.68	2226.70
528.04	2248.03
528.40	2268.48
528.76	2289.09
529.12	2309.28
529.48	2329.22
529.84	2347.25
530.20	2365.92
530.56	2383.98
530.91	2402.19
531.27	2420.07
531.63	2437.05
531.99	2453.54
532.35	2469.39
532.71	2485.40
533.07	2502.08
533.42	2516.94
533.78	2532.78
534.14	2548.79
534.50	2563.92
534.86	2578.76
535.21	2591.71
535.57	2605.16
535.93	2618.39
536.29	2630.51
536.65	2642.39
537.00	2653.50
537.36	2665.64
537.72	2676.36
538.08	2686.57
538.44	2696.10
538.79	2705.23
539.15	2713.59
539.51	2721.64
539.87	2729.05
540.22	2734.36
540.58	2739.71
540.94	2746.26
541.29	2751.27
541.65	2754.58
542.01	2757.01
542.37	2758.86
542.72	2762.04
543.08	2763.51
543.44	2765.57
543.79	2766.57
544.15	2766.75
544.51	2767.34
544.87	2766.78
545.22	2765.56
545.58	2763.63
545.94	2761.65
546.29	2758.38
546.65	2755.10
547.01	2751.70
547.36	2749.01
547.72	2746.58
548.07	2742.35
548.43	2736.70
548.79	2730.01
549.14	2724.60
549.50	2719.56
549.86	2713.54
550.21	2706.33
550.57	2700.14
550.92	2691.65
551.28	2683.72
551.64	2676.14
551.99	2668.09
552.35	2659.43
552.70	2650.96
553.06	2642.86
553.41	2634.14
553.77	2625.20
554.13	2616.19
554.48	2606.39
554.84	2595.32
555.19	2584.67
555.55	2574.08
555.90	2563.56
556.26	2553.63
556.61	2542.61
556.97	2529.95
557.32	2517.82
557.68	2505.63
558.03	2493.13
558.39	2481.86
558.74	2470.88
559.10	2458.11
559.45	2445.60
559.81	2433.71
560.16	2421.19
560.52	2408.92
560.87	2397.04
561.23	2384.33
561.58	2371.66
561.94	2358.66
562.29	2345.15
562.64	2332.33
563.00	2319.23
563.35	2306.50
563.71	2293.62
564.06	2280.61
564.42	2268.35
564.77	2255.50
565.12	2242.52
565.48	2229.55
565.83	2216.50
566.19	2203.60
566.54	2190.71
566.89	2176.66
567.25	2162.73
567.60	2150.20
567.96	2136.71
568.31	2121.90
568.66	2107.77
569.02	2094.89
569.37	2081.91
569.72	2069.41
570.08	2055.69
570.43	2041.62
570.78	2027.44
571.14	2012.49
571.49	1998.19
571.84	1984.42
572.20	1969.44
572.55	1954.71
572.90	1939.92
573.26	1925.12
573.61	1909.86
573.96	1895.02
574.31	1880.38
574.67	1865.87
575.02	1850.26
575.37	1834.77
575.72	1820.07
576.08	1805.75
576.43	1790.25
576.78	1775.18
577.13	1760.41
577.49	1745.96
577.84	1732.13
578.19	1717.34
578.54	1702.75
578.90	1687.66
579.25	1672.46
579.60	1658.83
579.95	1645.13
580.30	1631.24
580.66	1617.09
581.01	1602.81
581.36	1588.52
581.71	1575.26
582.06	1561.88
582.42	1548.73
582.77	1535.67
583.12	1522.57
583.47	1509.31
583.82	1496.18
584.17	1482.72
584.53	1468.92
584.88	1455.52
585.23	1441.64
585.58	1428.57
585.93	1415.72
586.28	1403.63
586.63	1391.50
586.98	1378.95
587.34	1366.43
587.69	1353.61
588.04	1341.12
588.39	1329.04
588.74	1317.10
589.09	1304.93
589.44	1292.32
589.79	1280.35
590.14	1268.49
590.49	1256.54
590.84	1244.80
591.19	1233.43
591.54	1221.86
591.89	1210.42
592.25	1199.15
592.60	1187.53
592.95	1176.34
593.30	1165.38
593.65	1154.10
594.00	1142.98
594.35	1132.37
594.70	1121.34
595.05	1111.21
595.40	1100.99
595.75	1090.60
596.10	1080.75
596.45	1070.62
596.80	1060.84
597.15	1050.79
597.50	1040.90
597.85	1031.46
598.19	1021.78
598.54	1012.15
598.89	1003.00
599.24	994.19
599.59	985.17
599.94	977.09
600.29	968.78
600.64	960.18
600.99	951.22
601.34	942.61
601.69	933.69
602.04	925.45
602.39	917.03
602.74	908.65
603.08	900.24
603.43	891.78
603.78	883.52
604.13	875.40
604.48	867.32
604.83	859.37
605.18	851.34
605.53	843.48
605.87	835.45
606.22	827.71
606.57	819.91
606.92	812.06
607.27	804.10
607.62	796.46
607.96	789.25
608.31	782.46
608.66	775.48
609.01	768.77
609.36	762.14
609.70	755.33
610.05	748.48
610.40	741.91
610.75	735.33
611.10	729.08
611.44	722.67
611.79	716.37
612.14	710.00
612.49	703.71
612.83	697.72
613.18	691.86
613.53	685.90
613.88	679.97
614.22	674.43
614.57	668.85
614.92	663.13
615.27	657.51
615.61	651.94
615.96	646.42
616.31	640.91
616.65	635.45
617.00	630.21
617.35	625.08
617.70	619.99
618.04	614.96
618.39	609.85
618.74	604.99
619.08	600.17
619.43	595.48
619.78	590.79
620.12	586.06
620.47	581.49
620.82	577.04
621.16	572.62
621.51	568.09
621.85	563.59
622.20	559.26
622.55	554.96
622.89	550.75
623.24	546.55
623.59	542.38
623.93	538.37
624.28	534.45
624.62	530.62
624.97	526.83
625.32	523.00
625.66	519.14
626.01	515.24
626.35	511.42
626.70	507.64
627.04	504.05
627.39	500.40
627.73	496.92
628.08	493.51
628.43	490.09
628.77	486.75
629.12	483.55
629.46	480.36
629.81	477.08
630.15	473.79
630.50	470.60
630.84	467.47
631.19	464.41
631.53	461.44
631.88	458.44
632.22	455.47
632.57	452.78
632.91	450.13
633.26	447.56
633.60	445.01
633.95	442.50
634.29	439.92
634.64	437.41
634.98	434.71
635.32	432.16
635.67	429.81
636.01	427.38
636.36	424.99
636.70	422.74
637.05	420.49
637.39	418.29
637.73	416.11
638.08	414.05
638.42	411.95
638.77	409.72
639.11	407.42
639.45	405.22
639.80	402.96
640.14	400.80
640.49	398.64
640.83	396.45
641.17	394.36
641.52	392.31
641.86	390.29
642.20	388.47
642.55	386.49
642.89	384.55
643.23	382.69
643.58	381.00
643.92	379.18
644.26	377.42
644.61	375.72
644.95	373.98
645.29	372.16
645.64	370.37
645.98	368.67
646.32	367.10
646.66	365.51
647.01	363.94
647.35	362.40
647.69	360.85
648.04	359.44
648.38	357.95
648.72	356.49
649.06	355.02
649.41	353.56
649.75	352.16
650.09	350.78
650.43	349.40
650.78	347.97
651.12	346.58
651.46	345.24
651.80	343.93
652.14	342.65
652.49	341.42
652.83	340.16
653.17	338.95
653.51	337.77
653.85	336.65
654.20	335.48
654.54	334.25
654.88	333.11
655.22	331.98
655.56	330.84
655.90	329.76
656.25	328.73
656.59	327.68
656.93	326.68
657.27	325.70
657.61	324.67
657.95	323.67
658.29	322.68
658.64	321.73
658.98	320.78
659.32	319.86
659.66	318.98
660.00	318.12
660.34	317.26
660.68	316.38
661.02	315.46
661.36	314.58
661.70	313.75
662.05	312.93
662.39	312.12
662.73	311.38
663.07	310.66
663.41	309.89
663.75	309.12
664.09	308.36
664.43	307.55
664.77	306.84
665.11	306.08
665.45	305.39
665.79	304.70
666.13	303.97
666.47	303.24
666.81	302.50
667.15	301.73
667.49	301.06
667.83	300.44
668.17	299.80
668.51	299.21
668.85	298.64
669.19	298.10
669.53	297.47
669.87	296.83
670.21	296.20
670.55	295.62
670.89	295.11
671.23	294.55
671.57	294.01
671.91	293.52
672.25	293.04
672.58	292.57
672.92	292.01
673.26	291.55
673.60	291.08
673.94	290.63
674.28	290.22
674.62	289.76
674.96	289.25
675.30	288.80
675.64	288.32
675.97	287.82
676.31	287.30
676.65	286.84
676.99	286.44
677.33	285.96
677.67	285.52
678.01	285.01
678.34	284.57
678.68	284.17
679.02	283.70
679.36	283.25
679.70	282.80
680.04	282.39
680.37	281.96
680.71	281.56
681.05	281.17
681.39	280.74
681.73	280.29
682.06	279.87
682.40	279.45
682.74	279.10
683.08	278.78
683.42	278.40
683.75	278.06
684.09	277.63
684.43	277.28
684.77	276.91
685.10	276.59
685.44	276.24
685.78	275.88
686.12	275.54
686.45	275.19
686.79	274.81
687.13	274.48
687.46	274.11
687.80	273.76
688.14	273.36
688.48	273.03
688.81	272.69
689.15	272.38
689.49	272.03
689.82	271.67
690.16	271.25
690.50	270.91
690.83	270.56
691.17	270.21
691.51	269.86
691.84	269.54
692.18	269.18
692.52	268.82
692.85	268.48
693.19	268.18
693.52	267.84
693.86	267.51
694.20	267.19
694.53	266.88
694.87	266.54
695.21	266.22
695.54	265.89
695.88	265.55
696.21	265.19
696.55	264.88
696.88	264.56
697.22	264.25
697.56	263.94
697.89	263.58
698.23	263.27
698.56	262.93
698.90	262.62
699.23	262.29
699.57	261.97
699.90	261.65
700.24	261.31
700.58	261.03
700.91	260.77
701.25	260.58
701.58	260.33
701.92	260.08
702.25	259.80
702.59	259.51
702.92	259.22
703.26	258.94
703.59	258.64
703.93	258.45
704.26	258.18
704.60	257.89
704.93	257.61
705.26	257.32
705.60	257.08
705.93	256.77
706.27	256.54
706.60	256.31
706.94	256.09
707.27	255.79
707.61	255.51
707.94	255.21
708.27	254.82
708.61	254.49
708.94	254.19
709.28	253.93
709.61	253.66
709.94	253.42
710.28	253.19
710.61	252.97
710.95	252.62
711.28	252.45
711.61	252.21
711.95	252.01
712.28	251.76
712.61	251.50
712.95	251.35
713.28	251.18
713.61	250.91
713.95	250.64
714.28	250.42
714.61	250.18
714.95	249.96
715.28	249.74
715.61	249.53
715.95	249.33
716.28	249.12
716.61	248.94
716.95	248.72
717.28	248.50
717.61	248.28
717.94	248.08
718.28	247.78
718.61	247.57
718.94	247.34
719.27	247.14
719.61	246.96
719.94	246.73
720.27	246.45
720.60	246.25
720.94	246.06
721.27	245.88
721.60	245.71
721.93	245.52
722.27	245.37
722.60	245.20
722.93	245.00
723.26	244.81
723.59	244.59
723.93	244.42
724.26	244.25
724.59	244.06
724.92	243.90
725.25	243.78
725.59	243.61
725.92	243.47
726.25	243.31
726.58	243.14
726.91	242.97
727.24	242.82
727.57	242.67
727.91	242.49
728.24	242.35
728.57	242.19
728.90	242.05
729.23	241.85
729.56	241.74
729.89	241.59
730.22	241.42
730.55	241.28
730.89	241.12
731.22	240.97
731.55	240.82
731.88	240.67
732.21	240.50
732.54	240.35
732.87	240.20
733.20	240.07
733.53	239.93
733.86	239.80
734.19	239.65
734.52	239.54
734.85	239.49
735.18	239.33
735.51	239.24
735.84	239.11
736.17	239.02
736.50	238.83
736.83	238.86
737.16	238.74
737.49	238.63
737.82	238.50
738.15	238.40
738.48	238.28
738.81	238.16
739.14	238.03
739.47	237.90
739.80	237.77
740.13	237.66
740.46	237.53
740.79	237.40
741.12	237.28
741.45	237.14
741.78	236.96
742.11	236.88
742.44	236.74
742.77	236.64
743.10	236.50
743.43	236.39
743.75	236.15
744.08	236.23
744.41	236.12
744.74	236.01
745.07	235.88
745.40	235.80
745.73	235.75
746.06	235.66
746.39	235.58
746.71	235.48
747.04	235.37
747.37	235.27
747.70	235.20
748.03	235.12
748.36	235.05
748.68	234.96
749.01	234.83
749.34	234.74
749.67	234.65
750.00	234.58
750.33	234.59
750.65	234.51
750.98	234.23
751.31	234.15
751.64	234.08
751.97	234.06
752.29	233.97
752.62	233.82
752.95	233.73
753.28	233.63
753.60	233.55
753.93	233.49
754.26	233.42
754.59	233.30
754.91	233.20
755.24	233.11
755.57	233.08
755.90	233.00
756.22	232.91
756.55	232.81
756.88	232.70
757.20	232.54
757.53	232.43
757.86	232.35
758.19	232.28
758.51	232.21
758.84	232.07
759.17	231.98
759.49	231.92
759.82	231.91
760.15	231.86
760.47	231.79
760.80	231.69
761.13	231.64
761.45	231.58
761.78	231.52
762.11	231.46
762.43	231.33
762.76	231.27
763.08	231.23
763.41	231.18
763.74	231.13
764.06	231.07
764.39	231.02
764.71	230.97
765.04	230.90
765.37	230.84
765.69	230.79
766.02	230.73
766.34	230.67
766.67	230.57
767.00	230.54
767.32	230.56
767.65	230.59
767.97	230.53
768.30	230.49
768.62	230.44
768.95	230.37
769.27	230.32
769.60	230.29
769.92	230.22
770.25	230.15
770.57	230.08
770.90	230.04
771.22	229.98
771.55	229.93
771.87	229.89
772.20	229.85
772.52	229.91
772.85	230.03
773.17	229.99
773.50	229.94
773.82	229.88
774.15	229.77
774.47	229.65
774.80	229.60
775.12	229.56
775.45	229.52
775.77	229.50
776.09	229.48
776.42	229.45
776.74	229.45
777.07	229.42
777.39	229.40
777.72	229.36
778.04	229.34
778.36	229.31
778.69	229.28
779.01	229.26
779.33	229.11
779.66	228.94
779.98	228.90
780.31	228.88
780.63	228.90
780.95	228.90
781.28	228.87
781.60	228.84
781.92	228.81
782.25	228.78
782.57	228.75
782.89	228.71
783.22	228.68
783.54	228.62
783.86	228.61
784.19	228.58
784.51	228.60
784.83	228.56
785.16	228.53
785.48	228.50
785.80	228.48
786.12	228.47
786.45	228.45
786.77	228.43
787.09	228.40
787.42	228.33
787.74	228.31
788.06	228.29
788.38	228.27
788.71	228.24
789.03	228.23
789.35	228.22
789.67	228.18
789.99	228.17
790.32	228.14
790.64	228.13
790.96	228.22
791.28	228.16
791.61	228.14
791.93	228.12
792.25	228.10
792.57	228.16
792.89	228.12
793.21	228.11
793.54	228.08
793.86	228.05
794.18	228.04
794.50	227.99
794.82	227.97
795.14	227.97
795.47	227.97
795.79	227.95
796.11	227.91
796.43	227.89
796.75	227.87
797.07	227.86
797.39	227.84
797.71	227.71
798.04	227.70
798.36	227.70
798.68	227.68
799.00	227.67
799.32	227.60
799.64	227.60
799.96	227.59
800.28	227.59
800.60	227.58
800.92	227.57
801.24	227.55
801.56	227.54
801.89	227.52
802.21	227.51
802.53	227.47
802.85	227.49
803.17	227.53
803.49	227.49
803.81	227.47
804.13	227.45
804.45	227.42
804.77	227.41
805.09	227.40
805.41	227.37
805.73	227.33
806.05	227.28
806.37	227.26
806.69	227.24
807.01	227.22
807.33	227.21
807.65	227.16
807.97	227.20
808.28	227.17
808.60	227.16
808.92	227.13
809.24	227.20
809.56	227.16
809.88	227.11
810.20	227.11
810.52	227.12
810.84	227.09
811.16	227.07
811.48	227.05
811.80	227.09
812.12	227.07
812.43	227.09
812.75	227.09
813.07	227.07
813.39	227.06
813.71	227.04
814.03	227.02
814.35	227.01
814.67	226.95
814.98	226.93
815.30	226.92
815.62	226.89
815.94	226.80
816.26	226.80
816.58	226.77
816.89	226.77
817.21	226.73
817.53	226.74
817.85	226.74
818.17	226.73
818.48	226.66
818.80	226.68
819.12	226.65
819.44	226.62
819.76	226.60
820.07	226.59
820.39	226.58
820.71	226.59
821.03	226.58
821.34	226.56
821.66	226.57
821.98	226.58
822.30	226.57
822.61	226.64
822.93	226.62
823.25	226.61
823.57	226.59
823.88	226.60
824.20	226.59
824.52	226.60
824.83	226.59
825.15	226.57
825.47	226.56
825.79	226.56
826.10	226.55
826.42	226.54
826.74	226.54
827.05	226.53
827.37	226.53
827.69	226.52
828.00	226.52
828.32	226.51
828.64	226.48
828.95	226.54
829.27	226.50
829.58	226.50
829.90	226.51
830.22	226.52
830.53	226.49
830.85	226.47
831.17	226.43
831.48	226.42
831.80	226.42
832.11	226.41
832.43	226.39
832.75	226.39
833.06	226.46
833.38	226.42
833.69	226.41
834.01	226.41
834.32	226.40
834.64	226.39
834.96	226.38
835.27	226.38
835.59	226.33
835.90	226.31
836.22	226.29
836.53	226.27
836.85	226.25
837.16	226.37
837.48	226.37
837.79	226.41
838.11	226.41
838.42	226.40
838.74	226.41
839.05	226.40
839.37	226.39
839.68	226.31
840.00	226.30
840.31	226.31
840.63	226.30
840.94	226.28
841.26	226.27
841.57	226.26
841.88	226.27
842.20	226.25
842.51	226.22
842.83	226.22
843.14	226.33
843.46	226.32
843.77	226.25
844.08	226.24
844.40	226.19
844.71	226.18
845.03	226.17
845.34	226.15
845.65	226.15
845.97	226.15
846.28	226.16
846.60	226.16
846.91	226.14
847.22	226.13
847.54	226.16
847.85	226.17
848.16	226.15
848.48	226.13
848.79	226.17
849.10	226.19
849.42	226.19
849.73	226.07
850.04	226.07
850.36	226.02
850.67	226.04
850.98	226.05
851.30	226.06
851.61	226.05
851.92	226.05
852.23	226.09
852.55	226.09
852.86	226.09
853.17	226.09
853.49	226.12
853.80	226.14
854.11	226.15
854.42	226.16
854.74	226.15
855.05	226.15
855.36	226.08
855.67	226.09
855.99	226.08
856.30	226.23
856.61	226.23
856.92	226.23
857.23	226.23
857.55	226.22
857.86	226.20
858.17	226.22
858.48	226.20
858.79	226.17
859.11	226.18
859.42	226.17
859.73	226.15
860.04	226.14
860.35	226.10
860.66	226.06
860.98	226.05
861.29	226.07
861.60	226.05
861.91	226.08
862.22	226.06
862.53	226.04
862.84	225.88
863.16	225.91
863.47	225.88
863.78	225.86
864.09	225.87
864.40	225.88
864.71	225.88
865.02	225.89
865.33	225.88
865.64	225.85
865.95	225.85
866.27	225.93
866.58	225.91
866.89	225.93
867.20	225.93
867.51	225.91
867.82	225.90
868.13	225.94
868.44	225.91
868.75	225.93
869.06	225.94
869.37	225.95
869.68	225.92
869.99	225.94
870.30	225.95
870.61	225.97
870.92	225.95
871.23	225.93
871.54	225.95
871.85	225.98
872.16	226.00
872.47	225.99
872.78	225.91
873.09	225.93
873.40	225.91
873.71	225.92
874.02	225.94
874.33	225.92
874.64	225.90
874.95	225.92
875.26	225.89
875.56	225.89
875.87	225.88
876.18	225.87
876.49	226.00
876.80	225.98
877.11	225.96
877.42	225.97
877.73	225.97
878.04	225.94
878.35	225.94
878.66	225.94
878.96	225.94
879.27	225.93
879.58	225.92
879.89	225.91
880.20	225.95
880.51	225.94
880.82	225.94
881.12	225.95
881.43	225.92
881.74	225.90
882.05	225.90
882.36	225.90
882.67	225.91
882.97	225.77
883.28	225.77
883.59	225.77
883.90	225.77
884.21	225.79
884.51	225.78
884.82	225.76
885.13	225.76
885.44	225.76
885.74	225.76
886.05	225.75
886.36	225.76
886.67	225.71
886.98	225.77
887.28	225.78
887.59	225.78
887.90	225.79
888.20	225.79
888.51	225.81
888.82	225.79
889.13	225.80
889.43	225.92
889.74	225.91
890.05	225.91
890.35	225.90
890.66	225.87
890.97	225.86
891.28	225.85
891.58	225.85
891.89	225.84
892.20	225.83
892.50	225.82
892.81	225.81
893.12	225.81
893.42	225.74
893.73	225.74
894.04	225.74
894.34	225.75
894.65	225.75
894.95	225.73
895.26	225.74
895.57	225.78
895.87	225.66
896.18	225.68
896.48	225.68
896.79	225.68
897.10	225.70
897.40	225.71
897.71	225.72
898.01	225.71
898.32	225.73
898.63	225.72
898.93	225.73
899.24	225.74
899.54	225.73
899.85	225.73
900.15	225.72
900.46	225.72
900.76	225.73
901.07	225.73
901.38	225.72
901.68	225.73
901.99	225.67
902.29	225.68
902.60	225.67
902.90	225.65
903.21	225.65
903.51	225.64
903.82	225.66
904.12	225.66
904.43	225.67
904.73	225.65
905.03	225.66
905.34	225.78
905.64	225.77
905.95	225.77
906.25	225.76
906.56	225.76
906.86	225.76
907.17	225.74
907.47	225.75
907.77	225.74
908.08	225.71
908.38	225.72
908.69	225.73
908.99	225.75
909.30	225.76
909.60	225.75
909.90	225.76
910.21	225.72
910.51	225.71
910.81	225.70
911.12	225.71
911.42	225.71
911.73	225.58
912.03	225.59
912.33	225.62
912.64	225.61
912.94	225.59
913.24	225.58
913.55	225.57
913.85	225.56
914.15	225.58
914.46	225.60
914.76	225.58
915.06	225.57
915.37	225.55
915.67	225.54
915.97	225.54
916.27	225.51
916.58	225.52
916.88	225.52
917.18	225.51
917.49	225.60
917.79	225.59
918.09	225.61
918.39	225.64
918.70	225.63
919.00	225.64
919.30	225.70
919.60	225.69
919.91	225.68
920.21	225.69
920.51	225.66
920.81	225.65
921.12	225.67
921.42	225.67
921.72	225.67
922.02	225.68
922.32	225.70
922.63	225.70
922.93	225.77
923.23	225.78
923.53	225.77
923.83	225.68
924.13	225.70
924.44	225.70
924.74	225.71
925.04	225.74
925.34	225.73
925.64	225.68
925.94	225.68
926.24	225.76
926.55	225.74
926.85	225.76
927.15	225.76
927.45	225.76
927.75	225.76
928.05	225.76
928.35	225.75
928.65	225.76
928.95	225.77
929.26	225.71
929.56	225.73
929.86	225.75
930.16	225.74
930.46	225.73
930.76	225.73
931.06	225.68
931.36	225.64
931.66	225.66
931.96	225.68
932.26	225.69
932.56	225.63
932.86	225.65
933.16	225.64
933.46	225.63
933.76	225.61
934.06	225.64
934.36	225.68
934.66	225.67
934.96	225.65
935.26	225.65
935.56	225.67
935.86	225.64
936.16	225.62
936.46	225.61
936.76	225.60
937.06	225.58
937.36	225.59
937.66	225.60
937.96	225.59
938.26	225.56
938.56	225.55
938.86	225.56
939.16	225.58
939.46	225.59
939.76	225.60
940.06	225.60
940.35	225.57
940.65	225.51
940.95	225.52
941.25	225.49
941.55	225.48
941.85	225.47
942.15	225.50
942.45	225.53
942.75	225.53
943.04	225.53
943.34	225.56
943.64	225.55
943.94	225.53
944.24	225.53
944.54	225.53
944.84	225.53
945.13	225.51
945.43	225.49
945.73	225.48
946.03	225.47
946.33	225.46
946.62	225.45
946.92	225.44
947.22	225.45
947.52	225.46
947.82	225.48
948.11	225.47
948.41	225.44
948.71	225.40
949.01	225.41
949.31	225.40
949.60	225.38
949.90	225.40
950.20	225.40
950.50	225.39
950.79	225.38
951.09	225.40
951.39	225.40
951.69	225.38
951.98	225.41
952.28	225.41
952.58	225.41
952.87	225.42
953.17	225.43
953.47	225.41
953.76	225.41
954.06	225.38
954.36	225.37
954.66	225.37
954.95	225.41
955.25	225.41
955.55	225.42
955.84	225.41
956.14	225.41
956.44	225.42
956.73	225.40
957.03	225.42
957.32	225.41
957.62	225.41
957.92	225.44
958.21	225.42
958.51	225.56
958.81	225.58
959.10	225.59
959.40	225.62
959.69	225.63
959.99	225.65
960.29	225.66
960.58	225.65
960.88	225.70
961.17	225.68
961.47	225.70
961.76	225.68
962.06	225.70
962.36	225.69
962.65	225.69
962.95	225.70
963.24	225.69
963.54	225.69
963.83	225.71
964.13	225.70
964.42	225.69
964.72	225.57
965.01	225.58
965.31	225.57
965.60	225.53
965.90	225.61
966.19	225.58
966.49	225.59
966.78	225.59
967.08	225.57
967.37	225.57
967.67	225.55
967.96	225.57
968.26	225.57
968.55	225.59
968.85	225.58
969.14	225.58
969.43	225.58
969.73	225.57
970.02	225.56
970.32	225.55
970.61	225.54
970.91	225.50
971.20	225.49
971.49	225.48
971.79	225.49
972.08	225.40
972.38	225.42
972.67	225.41
972.96	225.43
973.26	225.40
973.55	225.44
973.85	225.43
974.14	225.42
974.43	225.42
974.73	225.40
975.02	225.39
975.31	225.39
975.61	225.38
975.90	225.38
976.19	225.37
976.49	225.38
976.78	225.39
977.07	225.39
977.37	225.40
977.66	225.41
977.95	225.39
978.24	225.41
978.54	225.43
978.83	225.42
979.12	225.41
979.42	225.42
979.71	225.39
980.00	225.38
980.29	225.39
980.59	225.37
980.88	225.40
981.17	225.40
981.46	225.40
981.76	225.40
982.05	225.44
982.34	225.44
982.63	225.44
982.93	225.44
983.22	225.47
983.51	225.48
983.80	225.49
984.09	225.51
984.39	225.50
984.68	225.48
984.97	225.49
985.26	225.48
985.55	225.49
985.85	225.47
986.14	225.49
986.43	225.50
986.72	225.50
987.01	225.46
987.30	225.46
987.59	225.45
987.89	225.46
988.18	225.42
988.47	225.41
988.76	225.40
989.05	225.39
989.34	225.36
989.63	225.40
989.92	225.38
990.22	225.36
990.51	225.36
990.80	225.34
991.09	225.35
991.38	225.37
991.67	225.36
991.96	225.35
992.25	225.35
992.54	225.33
992.83	225.33
993.12	225.33
993.41	225.35
993.70	225.40
993.99	225.42
994.28	225.44
994.58	225.46
994.87	225.45
995.16	225.45
995.45	225.44
995.74	225.40
996.03	225.41
996.32	225.44
996.61	225.46
996.90	225.46
997.19	225.45
997.48	225.45
997.77	225.44
998.06	225.45
998.34	225.44
998.63	225.44
998.92	225.45
999.21	225.47
999.50	225.47
999.79	225.43
1000.08	225.42
1000.37	225.42
1000.66	225.40
1000.95	225.43
1001.24	225.45
1001.53	225.46
1001.82	225.46
1002.11	225.43
1002.40	225.44
1002.68	225.46
1002.97	225.55
1003.26	225.54
1003.55	225.52
1003.84	225.53
1004.13	225.57
1004.42	225.56
1004.71	225.56
1004.99	225.56
1005.28	225.59
1005.57	225.58
1005.86	225.57
1006.15	225.55
1006.44	225.54
1006.72	225.55
1007.01	225.53
1007.30	225.53
1007.59	225.52
1007.88	225.52
1008.17	225.53
1008.45	225.50
1008.74	225.45
1009.03	225.39
1009.32	225.39
1009.60	225.40
1009.89	225.38
1010.18	225.33
1010.47	225.33
1010.76	225.33
1011.04	225.33
1011.33	225.32
1011.62	225.33
1011.91	225.34
1012.19	225.34
1012.48	225.35
1012.77	225.34
1013.05	225.38
1013.34	225.38
1013.63	225.38
1013.92	225.39
1014.20	225.38
1014.49	225.38
1014.78	225.39
1015.06	225.35
1015.35	225.36
1015.64	225.37
1015.92	225.39
1016.21	225.40
1016.50	225.41
1016.78	225.42
1017.07	225.43
1017.36	225.40
1017.64	225.38
1017.93	225.39
1018.22	225.38
1018.50	225.38
1018.79	225.37
1019.08	225.33
1019.36	225.34
1019.65	225.33
1019.93	225.35
1020.22	225.38
1020.51	225.44
1020.79	225.43
1021.08	225.13
1021.36	225.20
1021.65	225.33
1021.94	225.32
1022.22	225.47
1022.51	225.16
1022.79	225.90
1023.08	225.62
1023.36	226.85
1023.65	225.10
>>>>>End Processed Spectral Data<<<<<
