SpectraSuite Data File
++++++++++++++++++++++++++++++++++++
Date: Fri Oct 02 17:31:08 EDT 2015
User: lab3
Dark Spectrum Present: No
Reference Spectrum Present: No
Number of Sampled Component Spectra: 1
Spectrometers: USB2E7196
Integration Time (usec): 46000 (USB2E7196)
Spectra Averaged: 600 (USB2E7196)
Boxcar Smoothing: 10 (USB2E7196)
Correct for Electrical Dark: No (USB2E7196)
Strobe/Lamp Enabled: No (USB2E7196)
Correct for Detector Non-linearity: No (USB2E7196)
Correct for Stray Light: No (USB2E7196)
Number of Pixels in Processed Spectrum: 2048
>>>>>Begin Processed Spectral Data<<<<<
339.09	0.00
339.48	215.26
339.86	216.62
340.24	218.08
340.63	219.35
341.01	222.92
341.39	222.10
341.78	223.55
342.16	224.76
342.54	225.11
342.93	213.58
343.31	224.37
343.69	224.91
344.07	225.36
344.46	225.78
344.84	226.18
345.22	226.40
345.60	226.66
345.99	226.84
346.37	226.97
346.75	227.08
347.13	227.16
347.52	227.24
347.90	227.33
348.28	227.38
348.66	227.42
349.05	227.42
349.43	227.48
349.81	227.53
350.19	227.57
350.57	227.63
350.96	227.71
351.34	227.79
351.72	227.88
352.10	228.00
352.48	228.08
352.87	228.12
353.25	228.18
353.63	228.24
354.01	228.30
354.39	228.38
354.77	228.47
355.15	228.58
355.54	228.63
355.92	228.66
356.30	228.74
356.68	228.89
357.06	228.96
357.44	229.01
357.82	229.09
358.20	229.22
358.58	229.28
358.97	229.33
359.35	229.41
359.73	229.50
360.11	229.55
360.49	229.61
360.87	229.66
361.25	229.73
361.63	229.83
362.01	229.89
362.39	229.93
362.77	229.97
363.15	229.99
363.53	230.01
363.91	230.05
364.29	230.08
364.67	229.99
365.05	230.01
365.43	230.05
365.81	230.07
366.19	230.08
366.57	230.14
366.95	230.14
367.33	230.13
367.71	230.12
368.09	230.14
368.47	230.13
368.85	230.12
369.23	230.13
369.61	230.06
369.99	230.07
370.37	230.07
370.75	230.17
371.13	230.13
371.51	230.08
371.89	230.06
372.27	230.02
372.65	230.01
373.03	229.98
373.41	229.93
373.78	229.90
374.16	229.81
374.54	229.72
374.92	229.68
375.30	229.64
375.68	229.58
376.06	229.54
376.44	229.48
376.82	229.45
377.19	229.41
377.57	229.36
377.95	229.27
378.33	229.21
378.71	229.02
379.09	228.98
379.47	228.96
379.84	228.89
380.22	228.84
380.60	228.75
380.98	228.69
381.36	228.64
381.73	228.56
382.11	228.53
382.49	228.48
382.87	228.43
383.25	228.37
383.62	228.47
384.00	228.39
384.38	228.36
384.76	228.33
385.13	228.33
385.51	228.28
385.89	228.24
386.27	228.21
386.64	228.19
387.02	228.13
387.40	228.08
387.78	228.06
388.15	228.03
388.53	228.02
388.91	227.99
389.29	227.95
389.66	227.95
390.04	227.92
390.42	227.91
390.79	227.90
391.17	227.89
391.55	227.74
391.92	227.73
392.30	227.73
392.68	227.69
393.05	227.65
393.43	227.67
393.81	227.66
394.18	227.63
394.56	227.63
394.94	227.66
395.31	227.65
395.69	227.70
396.06	227.73
396.44	227.73
396.82	227.75
397.19	227.82
397.57	227.84
397.95	227.88
398.32	227.88
398.70	227.92
399.07	227.98
399.45	228.01
399.82	228.05
400.20	228.08
400.58	228.13
400.95	228.15
401.33	228.22
401.70	228.38
402.08	228.49
402.45	228.58
402.83	228.70
403.20	228.82
403.58	228.91
403.95	229.04
404.33	229.20
404.71	229.33
405.08	229.53
405.46	229.69
405.83	229.86
406.21	230.05
406.58	230.26
406.96	230.46
407.33	230.70
407.70	230.97
408.08	231.36
408.45	231.67
408.83	232.02
409.20	232.34
409.58	232.63
409.95	233.02
410.33	233.45
410.70	233.85
411.08	234.31
411.45	234.81
411.82	235.32
412.20	235.89
412.57	236.58
412.95	237.12
413.32	237.83
413.69	238.57
414.07	239.36
414.44	240.21
414.82	241.05
415.19	242.07
415.56	243.09
415.94	244.13
416.31	245.32
416.68	246.51
417.06	247.89
417.43	249.18
417.81	250.66
418.18	252.18
418.55	253.82
418.93	255.55
419.30	257.36
419.67	259.26
420.04	261.23
420.42	263.26
420.79	265.64
421.16	268.03
421.54	270.46
421.91	272.97
422.28	275.59
422.66	278.42
423.03	281.14
423.40	283.98
423.77	287.04
424.15	290.17
424.52	293.41
424.89	296.92
425.26	300.42
425.64	303.67
426.01	307.33
426.38	311.07
426.75	314.90
427.13	318.87
427.50	323.01
427.87	327.30
428.24	331.64
428.61	335.82
428.99	340.34
429.36	345.29
429.73	350.03
430.10	354.79
430.47	359.67
430.85	364.66
431.22	370.04
431.59	375.56
431.96	380.95
432.33	386.97
432.70	392.71
433.08	399.45
433.45	405.84
433.82	412.11
434.19	419.15
434.56	426.09
434.93	432.76
435.30	439.40
435.68	446.91
436.05	454.26
436.42	461.56
436.79	468.24
437.16	475.45
437.53	483.15
437.90	490.86
438.27	498.39
438.64	506.52
439.01	513.87
439.38	520.62
439.75	527.11
440.13	534.39
440.50	541.30
440.87	546.80
441.24	552.79
441.61	559.38
441.98	564.12
442.35	569.76
442.72	575.49
443.09	580.94
443.46	584.31
443.83	586.79
444.20	588.78
444.57	591.81
444.94	593.45
445.31	595.17
445.68	596.56
446.05	597.50
446.42	596.89
446.79	596.10
447.16	595.34
447.53	594.63
447.90	592.05
448.27	589.54
448.64	585.91
449.01	583.33
449.37	578.36
449.74	573.87
450.11	568.16
450.48	561.97
450.85	555.74
451.22	550.41
451.59	545.20
451.96	540.50
452.33	533.77
452.70	527.79
453.07	520.53
453.43	513.34
453.80	506.37
454.17	499.72
454.54	493.60
454.91	486.70
455.28	480.26
455.65	474.17
456.02	467.78
456.38	462.61
456.75	455.98
457.12	450.65
457.49	445.31
457.86	440.25
458.23	435.84
458.59	430.98
458.96	426.00
459.33	421.61
459.70	417.16
460.07	413.81
460.43	409.83
460.80	406.14
461.17	402.93
461.54	399.45
461.91	396.20
462.27	392.89
462.64	390.25
463.01	387.16
463.38	384.06
463.74	381.26
464.11	378.81
464.48	376.62
464.85	374.23
465.21	372.41
465.58	370.38
465.95	368.06
466.32	366.23
466.68	364.42
467.05	362.58
467.42	360.80
467.78	358.86
468.15	357.09
468.52	355.79
468.88	354.05
469.25	352.46
469.62	351.17
469.98	349.80
470.35	348.58
470.72	347.48
471.08	346.36
471.45	345.42
471.82	344.37
472.18	343.24
472.55	342.51
472.92	341.60
473.28	340.91
473.65	340.13
474.02	339.37
474.38	338.77
474.75	338.43
475.11	337.95
475.48	337.72
475.85	337.48
476.21	337.37
476.58	337.29
476.94	337.44
477.31	337.52
477.67	337.62
478.04	337.83
478.41	338.12
478.77	338.54
479.14	338.82
479.50	339.33
479.87	339.99
480.23	340.65
480.60	341.28
480.96	341.94
481.33	342.91
481.69	343.88
482.06	344.84
482.42	345.75
482.79	346.84
483.15	348.11
483.52	349.55
483.88	350.91
484.25	352.38
484.61	353.90
484.98	355.59
485.34	357.48
485.71	359.45
486.07	361.54
486.44	363.64
486.80	365.96
487.17	368.37
487.53	370.99
487.90	373.76
488.26	376.79
488.62	379.97
488.99	383.16
489.35	386.53
489.72	390.17
490.08	393.99
490.44	397.94
490.81	402.03
491.17	406.25
491.54	410.78
491.90	415.48
492.26	420.47
492.63	425.69
492.99	431.14
493.36	436.79
493.72	442.74
494.08	448.81
494.45	455.27
494.81	461.99
495.17	468.92
495.54	476.24
495.90	483.84
496.26	491.59
496.63	499.59
496.99	507.91
497.35	516.60
497.72	525.57
498.08	534.77
498.44	544.29
498.80	554.32
499.17	564.64
499.53	575.26
499.89	586.30
500.26	597.54
500.62	609.04
500.98	621.15
501.34	633.51
501.71	646.35
502.07	659.40
502.43	672.99
502.79	686.73
503.16	700.94
503.52	715.35
503.88	730.22
504.24	745.51
504.60	761.00
504.97	777.01
505.33	793.43
505.69	810.71
506.05	828.28
506.41	845.80
506.78	863.53
507.14	881.80
507.50	900.46
507.86	919.46
508.22	938.73
508.59	957.83
508.95	977.71
509.31	998.34
509.67	1019.63
510.03	1040.90
510.39	1062.26
510.75	1083.83
511.12	1105.65
511.48	1127.67
511.84	1149.74
512.20	1172.18
512.56	1195.46
512.92	1218.73
513.28	1241.71
513.64	1264.98
514.00	1288.62
514.37	1312.53
514.73	1336.40
515.09	1360.21
515.45	1384.44
515.81	1408.73
516.17	1433.20
516.53	1457.11
516.89	1480.92
517.25	1504.92
517.61	1528.88
517.97	1553.29
518.33	1577.19
518.69	1601.04
519.05	1625.36
519.41	1649.94
519.77	1674.66
520.13	1698.67
520.49	1722.70
520.85	1746.99
521.21	1770.73
521.57	1794.99
521.93	1818.73
522.29	1842.97
522.65	1866.72
523.01	1890.39
523.37	1913.75
523.73	1937.78
524.09	1961.55
524.45	1985.13
524.81	2008.27
525.17	2031.23
525.53	2053.65
525.89	2076.49
526.25	2099.32
526.61	2121.09
526.97	2143.10
527.33	2165.11
527.68	2186.78
528.04	2207.65
528.40	2227.65
528.76	2248.02
529.12	2267.80
529.48	2287.11
529.84	2304.82
530.20	2323.11
530.56	2340.78
530.91	2358.57
531.27	2376.00
531.63	2392.70
531.99	2408.99
532.35	2424.63
532.71	2440.29
533.07	2456.56
533.42	2471.13
533.78	2486.65
534.14	2502.32
534.50	2517.00
534.86	2531.50
535.21	2544.11
535.57	2557.17
535.93	2569.99
536.29	2581.76
536.65	2593.34
537.00	2604.45
537.36	2616.29
537.72	2626.61
538.08	2636.48
538.44	2645.72
538.79	2654.64
539.15	2662.64
539.51	2670.21
539.87	2677.19
540.22	2682.37
540.58	2687.67
540.94	2694.07
541.29	2698.84
541.65	2701.94
542.01	2704.41
542.37	2706.18
542.72	2709.25
543.08	2710.73
543.44	2712.75
543.79	2713.67
544.15	2713.74
544.51	2714.23
544.87	2713.59
545.22	2712.25
545.58	2710.34
545.94	2708.49
546.29	2705.25
546.65	2702.02
547.01	2698.85
547.36	2696.29
547.72	2693.69
548.07	2689.41
548.43	2683.72
548.79	2677.15
549.14	2671.86
549.50	2666.69
549.86	2660.69
550.21	2653.62
550.57	2647.39
550.92	2638.98
551.28	2631.08
551.64	2623.49
551.99	2615.44
552.35	2606.81
552.70	2598.56
553.06	2590.52
553.41	2581.79
553.77	2572.87
554.13	2563.86
554.48	2553.91
554.84	2542.86
555.19	2532.45
555.55	2522.03
555.90	2511.57
556.26	2501.68
556.61	2490.71
556.97	2478.20
557.32	2466.11
557.68	2453.96
558.03	2441.67
558.39	2430.44
558.74	2419.57
559.10	2407.08
559.45	2394.82
559.81	2383.14
560.16	2370.69
560.52	2358.49
560.87	2346.61
561.23	2333.93
561.58	2321.52
561.94	2308.74
562.29	2295.37
562.64	2282.71
563.00	2269.72
563.35	2257.25
563.71	2244.54
564.06	2231.73
564.42	2219.54
564.77	2206.83
565.12	2194.03
565.48	2181.12
565.83	2168.35
566.19	2155.54
566.54	2142.76
566.89	2128.78
567.25	2115.02
567.60	2102.55
567.96	2089.23
568.31	2074.68
568.66	2060.84
569.02	2048.02
569.37	2035.18
569.72	2022.88
570.08	2009.25
570.43	1995.30
570.78	1981.11
571.14	1966.34
571.49	1952.19
571.84	1938.70
572.20	1923.95
572.55	1909.50
572.90	1894.81
573.26	1880.09
573.61	1865.01
573.96	1850.32
574.31	1835.96
574.67	1821.53
575.02	1806.22
575.37	1791.00
575.72	1776.54
576.08	1762.42
576.43	1747.20
576.78	1732.33
577.13	1717.82
577.49	1703.65
577.84	1690.07
578.19	1675.56
578.54	1661.20
578.90	1646.41
579.25	1631.44
579.60	1618.09
579.95	1604.52
580.30	1590.93
580.66	1577.04
581.01	1563.00
581.36	1548.95
581.71	1535.98
582.06	1522.89
582.42	1509.99
582.77	1497.11
583.12	1484.20
583.47	1471.16
583.82	1458.19
584.17	1444.98
584.53	1431.38
584.88	1418.17
585.23	1404.51
585.58	1391.77
585.93	1379.25
586.28	1367.41
586.63	1355.58
586.98	1343.15
587.34	1330.82
587.69	1318.28
588.04	1306.13
588.39	1294.37
588.74	1282.71
589.09	1270.74
589.44	1258.41
589.79	1246.79
590.14	1235.23
590.49	1223.67
590.84	1212.21
591.19	1201.19
591.54	1189.93
591.89	1178.82
592.25	1167.86
592.60	1156.63
592.95	1145.72
593.30	1134.96
593.65	1123.93
594.00	1113.02
594.35	1102.77
594.70	1092.12
595.05	1082.28
595.40	1072.33
595.75	1062.23
596.10	1052.69
596.45	1042.87
596.80	1033.34
597.15	1023.55
597.50	1013.93
597.85	1004.64
598.19	995.28
598.54	985.96
598.89	977.09
599.24	968.51
599.59	959.78
599.94	951.97
600.29	943.95
600.64	935.66
600.99	927.00
601.34	918.75
601.69	910.13
602.04	902.19
602.39	894.08
602.74	885.95
603.08	877.87
603.43	869.70
603.78	861.71
604.13	853.93
604.48	846.13
604.83	838.52
605.18	830.82
605.53	823.22
605.87	815.48
606.22	808.02
606.57	800.52
606.92	792.93
607.27	785.20
607.62	777.84
607.96	770.87
608.31	764.40
608.66	757.69
609.01	751.25
609.36	744.91
609.70	738.34
610.05	731.77
610.40	725.40
610.75	719.10
611.10	713.08
611.44	706.93
611.79	700.90
612.14	694.76
612.49	688.74
612.83	683.01
613.18	677.38
613.53	671.68
613.88	666.02
614.22	660.78
614.57	655.48
614.92	649.99
615.27	644.65
615.61	639.32
615.96	634.03
616.31	628.80
616.65	623.63
617.00	618.67
617.35	613.83
617.70	609.09
618.04	604.30
618.39	599.49
618.74	594.90
619.08	590.30
619.43	585.85
619.78	581.44
620.12	576.99
620.47	572.70
620.82	568.48
621.16	564.29
621.51	559.98
621.85	555.73
622.20	551.67
622.55	547.59
622.89	543.59
623.24	539.59
623.59	535.67
623.93	531.88
624.28	528.17
624.62	524.57
624.97	520.95
625.32	517.37
625.66	513.72
626.01	510.04
626.35	506.45
626.70	502.90
627.04	499.50
627.39	496.04
627.73	492.79
628.08	489.61
628.43	486.44
628.77	483.33
629.12	480.32
629.46	477.30
629.81	474.22
630.15	471.16
630.50	468.20
630.84	465.27
631.19	462.41
631.53	459.62
631.88	456.82
632.22	454.05
632.57	451.51
632.91	449.04
633.26	446.67
633.60	444.29
633.95	441.97
634.29	439.56
634.64	437.24
634.98	434.70
635.32	432.35
635.67	430.18
636.01	427.90
636.36	425.69
636.70	423.67
637.05	421.60
637.39	419.58
637.73	417.56
638.08	415.66
638.42	413.70
638.77	411.66
639.11	409.53
639.45	407.50
639.80	405.43
640.14	403.46
640.49	401.45
640.83	399.42
641.17	397.50
641.52	395.62
641.86	393.75
642.20	392.09
642.55	390.24
642.89	388.43
643.23	386.71
643.58	385.17
643.92	383.47
644.26	381.82
644.61	380.24
644.95	378.61
645.29	376.93
645.64	375.26
645.98	373.66
646.32	372.21
646.66	370.71
647.01	369.26
647.35	367.84
647.69	366.41
648.04	365.13
648.38	363.73
648.72	362.35
649.06	360.99
649.41	359.63
649.75	358.34
650.09	357.04
650.43	355.78
650.78	354.40
651.12	353.08
651.46	351.84
651.80	350.60
652.14	349.44
652.49	348.27
652.83	347.10
653.17	345.98
653.51	344.88
653.85	343.85
654.20	342.76
654.54	341.58
654.88	340.50
655.22	339.43
655.56	338.38
655.90	337.37
656.25	336.40
656.59	335.41
656.93	334.47
657.27	333.55
657.61	332.57
657.95	331.64
658.29	330.72
658.64	329.82
658.98	328.91
659.32	328.02
659.66	327.17
660.00	326.37
660.34	325.54
660.68	324.68
661.02	323.78
661.36	322.92
661.70	322.10
662.05	321.31
662.39	320.51
662.73	319.78
663.07	319.08
663.41	318.32
663.75	317.55
664.09	316.79
664.43	315.98
664.77	315.27
665.11	314.51
665.45	313.81
665.79	313.13
666.13	312.41
666.47	311.65
666.81	310.91
667.15	310.12
667.49	309.44
667.83	308.81
668.17	308.15
668.51	307.56
668.85	306.99
669.19	306.44
669.53	305.80
669.87	305.12
670.21	304.49
670.55	303.89
670.89	303.35
671.23	302.79
671.57	302.24
671.91	301.73
672.25	301.23
672.58	300.72
672.92	300.13
673.26	299.64
673.60	299.16
673.94	298.68
674.28	298.25
674.62	297.78
674.96	297.25
675.30	296.79
675.64	296.25
675.97	295.72
676.31	295.17
676.65	294.66
676.99	294.23
677.33	293.71
677.67	293.23
678.01	292.68
678.34	292.19
678.68	291.75
679.02	291.23
679.36	290.73
679.70	290.22
680.04	289.77
680.37	289.29
680.71	288.84
681.05	288.38
681.39	287.90
681.73	287.39
682.06	286.90
682.40	286.41
682.74	286.01
683.08	285.64
683.42	285.20
683.75	284.81
684.09	284.34
684.43	283.93
684.77	283.49
685.10	283.11
685.44	282.73
685.78	282.30
686.12	281.93
686.45	281.54
686.79	281.12
687.13	280.73
687.46	280.30
687.80	279.91
688.14	279.49
688.48	279.11
688.81	278.71
689.15	278.37
689.49	277.97
689.82	277.56
690.16	277.09
690.50	276.71
690.83	276.31
691.17	275.90
691.51	275.51
691.84	275.14
692.18	274.73
692.52	274.30
692.85	273.90
693.19	273.53
693.52	273.14
693.86	272.76
694.20	272.38
694.53	272.02
694.87	271.62
695.21	271.23
695.54	270.85
695.88	270.48
696.21	270.07
696.55	269.71
696.88	269.35
697.22	268.97
697.56	268.61
697.89	268.22
698.23	267.86
698.56	267.47
698.90	267.11
699.23	266.72
699.57	266.36
699.90	265.97
700.24	265.59
700.58	265.25
700.91	264.94
701.25	264.72
701.58	264.45
701.92	264.16
702.25	263.84
702.59	263.49
702.92	263.16
703.26	262.83
703.59	262.49
703.93	262.26
704.26	261.95
704.60	261.62
704.93	261.28
705.26	260.96
705.60	260.71
705.93	260.35
706.27	260.10
706.60	259.84
706.94	259.60
707.27	259.26
707.61	258.92
707.94	258.61
708.27	258.17
708.61	257.81
708.94	257.49
709.28	257.20
709.61	256.90
709.94	256.63
710.28	256.37
710.61	256.12
710.95	255.75
711.28	255.56
711.61	255.29
711.95	255.07
712.28	254.79
712.61	254.49
712.95	254.30
713.28	254.09
713.61	253.80
713.95	253.49
714.28	253.25
714.61	253.01
714.95	252.75
715.28	252.50
715.61	252.26
715.95	252.02
716.28	251.80
716.61	251.60
716.95	251.35
717.28	251.10
717.61	250.87
717.94	250.65
718.28	250.31
718.61	250.08
718.94	249.82
719.27	249.59
719.61	249.41
719.94	249.17
720.27	248.87
720.60	248.68
720.94	248.48
721.27	248.29
721.60	248.11
721.93	247.90
722.27	247.74
722.60	247.55
722.93	247.34
723.26	247.13
723.59	246.91
723.93	246.74
724.26	246.55
724.59	246.36
724.92	246.18
725.25	246.06
725.59	245.87
725.92	245.72
726.25	245.55
726.58	245.38
726.91	245.19
727.24	245.06
727.57	244.89
727.91	244.70
728.24	244.55
728.57	244.37
728.90	244.24
729.23	244.03
729.56	243.92
729.89	243.75
730.22	243.58
730.55	243.41
730.89	243.25
731.22	243.09
731.55	242.92
731.88	242.76
732.21	242.58
732.54	242.44
732.87	242.29
733.20	242.16
733.53	242.00
733.86	241.84
734.19	241.68
734.52	241.54
734.85	241.48
735.18	241.30
735.51	241.19
735.84	241.04
736.17	240.94
736.50	240.74
736.83	240.77
737.16	240.65
737.49	240.53
737.82	240.39
738.15	240.29
738.48	240.18
738.81	240.05
739.14	239.91
739.47	239.78
739.80	239.64
740.13	239.52
740.46	239.38
740.79	239.25
741.12	239.11
741.45	238.97
741.78	238.79
742.11	238.71
742.44	238.55
742.77	238.44
743.10	238.31
743.43	238.19
743.75	237.94
744.08	238.03
744.41	237.89
744.74	237.79
745.07	237.63
745.40	237.53
745.73	237.49
746.06	237.39
746.39	237.31
746.71	237.20
747.04	237.10
747.37	237.00
747.70	236.92
748.03	236.84
748.36	236.77
748.68	236.67
749.01	236.53
749.34	236.46
749.67	236.39
750.00	236.31
750.33	236.30
750.65	236.22
750.98	235.92
751.31	235.85
751.64	235.76
751.97	235.74
752.29	235.65
752.62	235.50
752.95	235.41
753.28	235.31
753.60	235.23
753.93	235.16
754.26	235.09
754.59	234.99
754.91	234.89
755.24	234.80
755.57	234.77
755.90	234.68
756.22	234.58
756.55	234.47
756.88	234.38
757.20	234.22
757.53	234.10
757.86	234.04
758.19	233.97
758.51	233.90
758.84	233.77
759.17	233.68
759.49	233.62
759.82	233.59
760.15	233.53
760.47	233.44
760.80	233.34
761.13	233.28
761.45	233.21
761.78	233.14
762.11	233.08
762.43	232.96
762.76	232.91
763.08	232.85
763.41	232.80
763.74	232.75
764.06	232.69
764.39	232.65
764.71	232.58
765.04	232.51
765.37	232.43
765.69	232.39
766.02	232.35
766.34	232.28
766.67	232.18
767.00	232.14
767.32	232.17
767.65	232.20
767.97	232.13
768.30	232.09
768.62	232.04
768.95	231.97
769.27	231.92
769.60	231.88
769.92	231.82
770.25	231.75
770.57	231.67
770.90	231.61
771.22	231.54
771.55	231.49
771.87	231.45
772.20	231.39
772.52	231.45
772.85	231.55
773.17	231.50
773.50	231.48
773.82	231.41
774.15	231.29
774.47	231.16
774.80	231.11
775.12	231.07
775.45	231.03
775.77	231.00
776.09	230.95
776.42	230.90
776.74	230.91
777.07	230.86
777.39	230.83
777.72	230.79
778.04	230.79
778.36	230.76
778.69	230.73
779.01	230.72
779.33	230.57
779.66	230.40
779.98	230.35
780.31	230.32
780.63	230.36
780.95	230.36
781.28	230.34
781.60	230.30
781.92	230.26
782.25	230.23
782.57	230.21
782.89	230.20
783.22	230.17
783.54	230.11
783.86	230.12
784.19	230.10
784.51	230.10
784.83	230.05
785.16	230.01
785.48	230.00
785.80	229.97
786.12	229.96
786.45	229.92
786.77	229.91
787.09	229.89
787.42	229.82
787.74	229.81
788.06	229.79
788.38	229.77
788.71	229.74
789.03	229.74
789.35	229.73
789.67	229.68
789.99	229.68
790.32	229.65
790.64	229.65
790.96	229.76
791.28	229.70
791.61	229.68
791.93	229.67
792.25	229.64
792.57	229.71
792.89	229.67
793.21	229.67
793.54	229.64
793.86	229.61
794.18	229.59
794.50	229.54
794.82	229.52
795.14	229.53
795.47	229.54
795.79	229.51
796.11	229.47
796.43	229.45
796.75	229.43
797.07	229.41
797.39	229.37
797.71	229.26
798.04	229.23
798.36	229.23
798.68	229.21
799.00	229.20
799.32	229.11
799.64	229.12
799.96	229.10
800.28	229.09
800.60	229.07
800.92	229.04
801.24	229.03
801.56	229.02
801.89	228.98
802.21	228.97
802.53	228.95
802.85	228.96
803.17	229.01
803.49	228.96
803.81	228.94
804.13	228.92
804.45	228.89
804.77	228.90
805.09	228.87
805.41	228.85
805.73	228.81
806.05	228.77
806.37	228.73
806.69	228.71
807.01	228.68
807.33	228.70
807.65	228.65
807.97	228.69
808.28	228.67
808.60	228.67
808.92	228.65
809.24	228.71
809.56	228.67
809.88	228.62
810.20	228.63
810.52	228.64
810.84	228.61
811.16	228.59
811.48	228.56
811.80	228.61
812.12	228.59
812.43	228.61
812.75	228.61
813.07	228.60
813.39	228.60
813.71	228.58
814.03	228.55
814.35	228.55
814.67	228.48
814.98	228.46
815.30	228.45
815.62	228.42
815.94	228.32
816.26	228.33
816.58	228.28
816.89	228.28
817.21	228.25
817.53	228.27
817.85	228.26
818.17	228.27
818.48	228.20
818.80	228.22
819.12	228.20
819.44	228.18
819.76	228.17
820.07	228.16
820.39	228.16
820.71	228.16
821.03	228.16
821.34	228.15
821.66	228.16
821.98	228.15
822.30	228.15
822.61	228.22
822.93	228.20
823.25	228.20
823.57	228.17
823.88	228.18
824.20	228.15
824.52	228.16
824.83	228.15
825.15	228.14
825.47	228.12
825.79	228.13
826.10	228.10
826.42	228.09
826.74	228.10
827.05	228.07
827.37	228.08
827.69	228.06
828.00	228.07
828.32	228.05
828.64	228.04
828.95	228.10
829.27	228.05
829.58	228.05
829.90	228.07
830.22	228.07
830.53	228.04
830.85	228.02
831.17	227.98
831.48	227.98
831.80	227.97
832.11	227.97
832.43	227.94
832.75	227.95
833.06	228.03
833.38	227.98
833.69	227.97
834.01	227.95
834.32	227.94
834.64	227.92
834.96	227.91
835.27	227.90
835.59	227.84
835.90	227.81
836.22	227.80
836.53	227.75
836.85	227.74
837.16	227.85
837.48	227.86
837.79	227.90
838.11	227.91
838.42	227.90
838.74	227.90
839.05	227.90
839.37	227.88
839.68	227.80
840.00	227.79
840.31	227.81
840.63	227.79
840.94	227.78
841.26	227.76
841.57	227.76
841.88	227.77
842.20	227.76
842.51	227.73
842.83	227.72
843.14	227.85
843.46	227.85
843.77	227.79
844.08	227.79
844.40	227.73
844.71	227.71
845.03	227.70
845.34	227.68
845.65	227.67
845.97	227.66
846.28	227.66
846.60	227.67
846.91	227.64
847.22	227.64
847.54	227.66
847.85	227.67
848.16	227.65
848.48	227.62
848.79	227.67
849.10	227.71
849.42	227.69
849.73	227.57
850.04	227.57
850.36	227.51
850.67	227.53
850.98	227.53
851.30	227.53
851.61	227.53
851.92	227.53
852.23	227.56
852.55	227.58
852.86	227.57
853.17	227.58
853.49	227.59
853.80	227.63
854.11	227.64
854.42	227.64
854.74	227.64
855.05	227.64
855.36	227.56
855.67	227.54
855.99	227.56
856.30	227.71
856.61	227.70
856.92	227.70
857.23	227.70
857.55	227.69
857.86	227.68
858.17	227.69
858.48	227.67
858.79	227.64
859.11	227.64
859.42	227.62
859.73	227.61
860.04	227.61
860.35	227.57
860.66	227.52
860.98	227.52
861.29	227.53
861.60	227.53
861.91	227.56
862.22	227.54
862.53	227.52
862.84	227.36
863.16	227.38
863.47	227.36
863.78	227.34
864.09	227.34
864.40	227.36
864.71	227.36
865.02	227.37
865.33	227.35
865.64	227.32
865.95	227.34
866.27	227.40
866.58	227.39
866.89	227.41
867.20	227.41
867.51	227.38
867.82	227.38
868.13	227.41
868.44	227.38
868.75	227.42
869.06	227.43
869.37	227.45
869.68	227.41
869.99	227.43
870.30	227.44
870.61	227.45
870.92	227.42
871.23	227.41
871.54	227.43
871.85	227.47
872.16	227.48
872.47	227.47
872.78	227.42
873.09	227.42
873.40	227.40
873.71	227.41
874.02	227.42
874.33	227.39
874.64	227.38
874.95	227.39
875.26	227.35
875.56	227.35
875.87	227.35
876.18	227.36
876.49	227.49
876.80	227.47
877.11	227.46
877.42	227.48
877.73	227.48
878.04	227.46
878.35	227.45
878.66	227.44
878.96	227.44
879.27	227.44
879.58	227.45
879.89	227.45
880.20	227.50
880.51	227.50
880.82	227.51
881.12	227.51
881.43	227.49
881.74	227.48
882.05	227.46
882.36	227.46
882.67	227.46
882.97	227.33
883.28	227.32
883.59	227.31
883.90	227.30
884.21	227.32
884.51	227.30
884.82	227.28
885.13	227.29
885.44	227.28
885.74	227.27
886.05	227.26
886.36	227.26
886.67	227.21
886.98	227.26
887.28	227.26
887.59	227.25
887.90	227.26
888.20	227.26
888.51	227.28
888.82	227.26
889.13	227.24
889.43	227.35
889.74	227.34
890.05	227.34
890.35	227.33
890.66	227.32
890.97	227.32
891.28	227.30
891.58	227.30
891.89	227.29
892.20	227.28
892.50	227.27
892.81	227.25
893.12	227.25
893.42	227.21
893.73	227.21
894.04	227.21
894.34	227.21
894.65	227.20
894.95	227.20
895.26	227.22
895.57	227.28
895.87	227.16
896.18	227.18
896.48	227.19
896.79	227.19
897.10	227.20
897.40	227.19
897.71	227.20
898.01	227.19
898.32	227.20
898.63	227.20
898.93	227.22
899.24	227.23
899.54	227.22
899.85	227.21
900.15	227.20
900.46	227.20
900.76	227.20
901.07	227.20
901.38	227.19
901.68	227.19
901.99	227.13
902.29	227.14
902.60	227.13
902.90	227.12
903.21	227.11
903.51	227.10
903.82	227.12
904.12	227.14
904.43	227.15
904.73	227.15
905.03	227.16
905.34	227.25
905.64	227.25
905.95	227.23
906.25	227.24
906.56	227.24
906.86	227.24
907.17	227.24
907.47	227.26
907.77	227.25
908.08	227.22
908.38	227.24
908.69	227.24
908.99	227.25
909.30	227.27
909.60	227.28
909.90	227.29
910.21	227.26
910.51	227.23
910.81	227.23
911.12	227.22
911.42	227.22
911.73	227.11
912.03	227.11
912.33	227.13
912.64	227.13
912.94	227.11
913.24	227.08
913.55	227.06
913.85	227.05
914.15	227.07
914.46	227.09
914.76	227.07
915.06	227.07
915.37	227.06
915.67	227.04
915.97	227.02
916.27	226.99
916.58	226.98
916.88	226.98
917.18	226.97
917.49	227.06
917.79	227.05
918.09	227.06
918.39	227.10
918.70	227.09
919.00	227.08
919.30	227.14
919.60	227.13
919.91	227.11
920.21	227.12
920.51	227.09
920.81	227.07
921.12	227.09
921.42	227.09
921.72	227.08
922.02	227.09
922.32	227.10
922.63	227.12
922.93	227.19
923.23	227.19
923.53	227.20
923.83	227.11
924.13	227.10
924.44	227.10
924.74	227.11
925.04	227.14
925.34	227.15
925.64	227.10
925.94	227.11
926.24	227.18
926.55	227.17
926.85	227.19
927.15	227.19
927.45	227.20
927.75	227.19
928.05	227.20
928.35	227.19
928.65	227.22
928.95	227.23
929.26	227.18
929.56	227.20
929.86	227.22
930.16	227.21
930.46	227.21
930.76	227.21
931.06	227.16
931.36	227.14
931.66	227.14
931.96	227.17
932.26	227.18
932.56	227.12
932.86	227.13
933.16	227.13
933.46	227.12
933.76	227.10
934.06	227.13
934.36	227.16
934.66	227.16
934.96	227.14
935.26	227.15
935.56	227.15
935.86	227.13
936.16	227.11
936.46	227.10
936.76	227.09
937.06	227.07
937.36	227.06
937.66	227.05
937.96	227.04
938.26	227.01
938.56	227.01
938.86	227.02
939.16	227.05
939.46	227.06
939.76	227.06
940.06	227.05
940.35	227.03
940.65	226.97
940.95	226.98
941.25	226.95
941.55	226.93
941.85	226.93
942.15	226.94
942.45	226.98
942.75	226.98
943.04	226.99
943.34	227.02
943.64	227.02
943.94	227.01
944.24	227.02
944.54	227.03
944.84	227.02
945.13	227.00
945.43	226.96
945.73	226.96
946.03	226.94
946.33	226.93
946.62	226.93
946.92	226.93
947.22	226.94
947.52	226.94
947.82	226.96
948.11	226.93
948.41	226.91
948.71	226.88
949.01	226.88
949.31	226.86
949.60	226.85
949.90	226.87
950.20	226.86
950.50	226.86
950.79	226.85
951.09	226.88
951.39	226.87
951.69	226.86
951.98	226.88
952.28	226.89
952.58	226.89
952.87	226.88
953.17	226.90
953.47	226.88
953.76	226.88
954.06	226.86
954.36	226.86
954.66	226.87
954.95	226.89
955.25	226.91
955.55	226.93
955.84	226.90
956.14	226.91
956.44	226.92
956.73	226.90
957.03	226.90
957.32	226.90
957.62	226.91
957.92	226.95
958.21	226.93
958.51	227.08
958.81	227.10
959.10	227.11
959.40	227.13
959.69	227.16
959.99	227.18
960.29	227.18
960.58	227.16
960.88	227.21
961.17	227.20
961.47	227.20
961.76	227.18
962.06	227.22
962.36	227.20
962.65	227.21
962.95	227.22
963.24	227.21
963.54	227.22
963.83	227.23
964.13	227.21
964.42	227.20
964.72	227.09
965.01	227.09
965.31	227.08
965.60	227.06
965.90	227.14
966.19	227.10
966.49	227.12
966.78	227.12
967.08	227.11
967.37	227.12
967.67	227.09
967.96	227.12
968.26	227.11
968.55	227.12
968.85	227.12
969.14	227.12
969.43	227.12
969.73	227.09
970.02	227.09
970.32	227.08
970.61	227.07
970.91	227.02
971.20	227.00
971.49	226.99
971.79	227.00
972.08	226.90
972.38	226.92
972.67	226.90
972.96	226.93
973.26	226.91
973.55	226.94
973.85	226.95
974.14	226.92
974.43	226.92
974.73	226.90
975.02	226.89
975.31	226.88
975.61	226.88
975.90	226.89
976.19	226.86
976.49	226.87
976.78	226.87
977.07	226.88
977.37	226.90
977.66	226.92
977.95	226.90
978.24	226.91
978.54	226.92
978.83	226.90
979.12	226.89
979.42	226.89
979.71	226.86
980.00	226.85
980.29	226.87
980.59	226.84
980.88	226.87
981.17	226.87
981.46	226.88
981.76	226.88
982.05	226.91
982.34	226.92
982.63	226.93
982.93	226.94
983.22	226.96
983.51	226.95
983.80	226.96
984.09	226.98
984.39	226.99
984.68	226.98
984.97	226.99
985.26	226.98
985.55	226.99
985.85	226.96
986.14	226.98
986.43	226.98
986.72	226.98
987.01	226.94
987.30	226.94
987.59	226.93
987.89	226.94
988.18	226.89
988.47	226.89
988.76	226.88
989.05	226.86
989.34	226.84
989.63	226.89
989.92	226.88
990.22	226.85
990.51	226.84
990.80	226.83
991.09	226.83
991.38	226.83
991.67	226.83
991.96	226.83
992.25	226.84
992.54	226.83
992.83	226.83
993.12	226.83
993.41	226.86
993.70	226.91
993.99	226.93
994.28	226.96
994.58	226.97
994.87	226.97
995.16	226.98
995.45	226.97
995.74	226.93
996.03	226.93
996.32	226.95
996.61	226.99
996.90	226.99
997.19	226.99
997.48	227.01
997.77	226.98
998.06	226.99
998.34	226.97
998.63	226.97
998.92	226.97
999.21	227.00
999.50	226.98
999.79	226.93
1000.08	226.92
1000.37	226.92
1000.66	226.90
1000.95	226.94
1001.24	226.94
1001.53	226.95
1001.82	226.94
1002.11	226.93
1002.40	226.93
1002.68	226.95
1002.97	227.05
1003.26	227.04
1003.55	227.02
1003.84	227.02
1004.13	227.06
1004.42	227.05
1004.71	227.04
1004.99	227.04
1005.28	227.06
1005.57	227.05
1005.86	227.06
1006.15	227.04
1006.44	227.02
1006.72	227.03
1007.01	226.99
1007.30	226.98
1007.59	226.98
1007.88	226.97
1008.17	226.97
1008.45	226.94
1008.74	226.88
1009.03	226.81
1009.32	226.81
1009.60	226.81
1009.89	226.81
1010.18	226.76
1010.47	226.76
1010.76	226.76
1011.04	226.75
1011.33	226.73
1011.62	226.74
1011.91	226.74
1012.19	226.76
1012.48	226.76
1012.77	226.76
1013.05	226.79
1013.34	226.80
1013.63	226.80
1013.92	226.81
1014.20	226.80
1014.49	226.81
1014.78	226.82
1015.06	226.78
1015.35	226.79
1015.64	226.81
1015.92	226.83
1016.21	226.83
1016.50	226.84
1016.78	226.86
1017.07	226.86
1017.36	226.85
1017.64	226.84
1017.93	226.86
1018.22	226.85
1018.50	226.84
1018.79	226.83
1019.08	226.80
1019.36	226.81
1019.65	226.79
1019.93	226.83
1020.22	226.86
1020.51	226.91
1020.79	226.89
1021.08	226.80
1021.36	226.42
1021.65	226.72
1021.94	226.78
1022.22	226.92
1022.51	226.70
1022.79	227.62
1023.08	226.93
1023.36	228.23
1023.65	226.48
>>>>>End Processed Spectral Data<<<<<
