SpectraSuite Data File
++++++++++++++++++++++++++++++++++++
Date: Sat Oct 03 00:25:09 EDT 2015
User: lab3
Dark Spectrum Present: No
Reference Spectrum Present: No
Number of Sampled Component Spectra: 1
Spectrometers: USB2E7196
Integration Time (usec): 46000 (USB2E7196)
Spectra Averaged: 12000 (USB2E7196)
Boxcar Smoothing: 10 (USB2E7196)
Correct for Electrical Dark: No (USB2E7196)
Strobe/Lamp Enabled: No (USB2E7196)
Correct for Detector Non-linearity: No (USB2E7196)
Correct for Stray Light: No (USB2E7196)
Number of Pixels in Processed Spectrum: 2048
>>>>>Begin Processed Spectral Data<<<<<
339.09	0.00
339.48	214.70
339.86	216.18
340.24	217.55
340.63	218.94
341.01	222.21
341.39	221.67
341.78	223.04
342.16	224.22
342.54	224.67
342.93	213.11
343.31	223.88
343.69	224.42
344.07	224.88
344.46	225.31
344.84	225.70
345.22	225.92
345.60	226.18
345.99	226.37
346.37	226.50
346.75	226.61
347.13	226.69
347.52	226.76
347.90	226.85
348.28	226.88
348.66	226.94
349.05	226.94
349.43	226.99
349.81	227.04
350.19	227.10
350.57	227.16
350.96	227.24
351.34	227.34
351.72	227.43
352.10	227.54
352.48	227.61
352.87	227.66
353.25	227.73
353.63	227.78
354.01	227.85
354.39	227.93
354.77	228.00
355.15	228.10
355.54	228.15
355.92	228.18
356.30	228.26
356.68	228.41
357.06	228.49
357.44	228.54
357.82	228.60
358.20	228.71
358.58	228.77
358.97	228.84
359.35	228.92
359.73	229.00
360.11	229.05
360.49	229.12
360.87	229.17
361.25	229.23
361.63	229.32
362.01	229.37
362.39	229.40
362.77	229.45
363.15	229.48
363.53	229.51
363.91	229.55
364.29	229.57
364.67	229.48
365.05	229.50
365.43	229.53
365.81	229.56
366.19	229.58
366.57	229.64
366.95	229.64
367.33	229.61
367.71	229.60
368.09	229.62
368.47	229.61
368.85	229.60
369.23	229.61
369.61	229.55
369.99	229.58
370.37	229.58
370.75	229.65
371.13	229.62
371.51	229.58
371.89	229.56
372.27	229.54
372.65	229.51
373.03	229.47
373.41	229.43
373.78	229.38
374.16	229.27
374.54	229.19
374.92	229.14
375.30	229.10
375.68	229.03
376.06	228.99
376.44	228.93
376.82	228.89
377.19	228.84
377.57	228.79
377.95	228.70
378.33	228.64
378.71	228.48
379.09	228.43
379.47	228.40
379.84	228.33
380.22	228.27
380.60	228.20
380.98	228.15
381.36	228.10
381.73	228.04
382.11	228.02
382.49	227.98
382.87	227.92
383.25	227.87
383.62	227.97
384.00	227.90
384.38	227.86
384.76	227.85
385.13	227.84
385.51	227.80
385.89	227.75
386.27	227.71
386.64	227.70
387.02	227.65
387.40	227.60
387.78	227.58
388.15	227.55
388.53	227.52
388.91	227.49
389.29	227.46
389.66	227.46
390.04	227.42
390.42	227.41
390.79	227.40
391.17	227.38
391.55	227.23
391.92	227.22
392.30	227.22
392.68	227.18
393.05	227.16
393.43	227.15
393.81	227.16
394.18	227.14
394.56	227.14
394.94	227.18
395.31	227.17
395.69	227.22
396.06	227.24
396.44	227.26
396.82	227.28
397.19	227.36
397.57	227.37
397.95	227.42
398.32	227.41
398.70	227.46
399.07	227.52
399.45	227.56
399.82	227.61
400.20	227.64
400.58	227.70
400.95	227.71
401.33	227.80
401.70	227.96
402.08	228.06
402.45	228.14
402.83	228.26
403.20	228.37
403.58	228.46
403.95	228.61
404.33	228.76
404.71	228.90
405.08	229.11
405.46	229.27
405.83	229.45
406.21	229.64
406.58	229.86
406.96	230.07
407.33	230.31
407.70	230.59
408.08	230.97
408.45	231.30
408.83	231.66
409.20	231.98
409.58	232.27
409.95	232.67
410.33	233.10
410.70	233.51
411.08	233.99
411.45	234.50
411.82	235.02
412.20	235.61
412.57	236.31
412.95	236.86
413.32	237.58
413.69	238.32
414.07	239.11
414.44	239.96
414.82	240.83
415.19	241.85
415.56	242.88
415.94	243.94
416.31	245.15
416.68	246.35
417.06	247.74
417.43	249.05
417.81	250.55
418.18	252.08
418.55	253.75
418.93	255.48
419.30	257.29
419.67	259.22
420.04	261.19
420.42	263.24
420.79	265.63
421.16	268.03
421.54	270.47
421.91	273.02
422.28	275.66
422.66	278.51
423.03	281.23
423.40	284.09
423.77	287.14
424.15	290.27
424.52	293.53
424.89	297.06
425.26	300.57
425.64	303.83
426.01	307.50
426.38	311.25
426.75	315.11
427.13	319.08
427.50	323.23
427.87	327.55
428.24	331.91
428.61	336.10
428.99	340.62
429.36	345.59
429.73	350.33
430.10	355.09
430.47	359.95
430.85	364.96
431.22	370.33
431.59	375.86
431.96	381.26
432.33	387.25
432.70	392.96
433.08	399.69
433.45	406.05
433.82	412.32
434.19	419.33
434.56	426.24
434.93	432.91
435.30	439.51
435.68	446.97
436.05	454.27
436.42	461.54
436.79	468.18
437.16	475.34
437.53	483.01
437.90	490.68
438.27	498.18
438.64	506.28
439.01	513.62
439.38	520.33
439.75	526.79
440.13	534.08
440.50	541.00
440.87	546.49
441.24	552.49
441.61	559.05
441.98	563.81
442.35	569.46
442.72	575.22
443.09	580.71
443.46	584.15
443.83	586.66
444.20	588.72
444.57	591.84
444.94	593.57
445.31	595.37
445.68	596.87
446.05	597.94
446.42	597.46
446.79	596.78
447.16	596.18
447.53	595.61
447.90	593.13
448.27	590.75
448.64	587.23
449.01	584.75
449.37	579.93
449.74	575.56
450.11	569.97
450.48	563.87
450.85	557.76
451.22	552.53
451.59	547.44
451.96	542.83
452.33	536.16
452.70	530.26
453.07	523.07
453.43	515.90
453.80	508.95
454.17	502.30
454.54	496.20
454.91	489.30
455.28	482.85
455.65	476.78
456.02	470.38
456.38	465.23
456.75	458.58
457.12	453.24
457.49	447.85
457.86	442.78
458.23	438.36
458.59	433.46
458.96	428.44
459.33	424.03
459.70	419.54
460.07	416.14
460.43	412.12
460.80	408.38
461.17	405.13
461.54	401.61
461.91	398.33
462.27	394.98
462.64	392.30
463.01	389.18
463.38	386.04
463.74	383.21
464.11	380.71
464.48	378.48
464.85	376.04
465.21	374.22
465.58	372.16
465.95	369.78
466.32	367.91
466.68	366.06
467.05	364.20
467.42	362.39
467.78	360.42
468.15	358.61
468.52	357.31
468.88	355.53
469.25	353.91
469.62	352.63
469.98	351.22
470.35	349.97
470.72	348.84
471.08	347.69
471.45	346.73
471.82	345.65
472.18	344.50
472.55	343.76
472.92	342.82
473.28	342.09
473.65	341.30
474.02	340.55
474.38	339.92
474.75	339.55
475.11	339.03
475.48	338.79
475.85	338.53
476.21	338.38
476.58	338.28
476.94	338.41
477.31	338.46
477.67	338.55
478.04	338.74
478.41	339.02
478.77	339.43
479.14	339.68
479.50	340.18
479.87	340.82
480.23	341.47
480.60	342.11
480.96	342.74
481.33	343.71
481.69	344.65
482.06	345.60
482.42	346.47
482.79	347.55
483.15	348.80
483.52	350.24
483.88	351.61
484.25	353.08
484.61	354.61
484.98	356.27
485.34	358.14
485.71	360.08
486.07	362.16
486.44	364.24
486.80	366.56
487.17	368.97
487.53	371.60
487.90	374.37
488.26	377.37
488.62	380.54
488.99	383.71
489.35	387.06
489.72	390.68
490.08	394.50
490.44	398.44
490.81	402.54
491.17	406.74
491.54	411.25
491.90	415.92
492.26	420.90
492.63	426.12
492.99	431.56
493.36	437.21
493.72	443.14
494.08	449.22
494.45	455.69
494.81	462.40
495.17	469.29
495.54	476.57
495.90	484.15
496.26	491.90
496.63	499.89
496.99	508.20
497.35	516.90
497.72	525.88
498.08	535.07
498.44	544.56
498.80	554.63
499.17	564.95
499.53	575.56
499.89	586.57
500.26	597.80
500.62	609.34
500.98	621.50
501.34	633.84
501.71	646.68
502.07	659.72
502.43	673.29
502.79	687.08
503.16	701.32
503.52	715.77
503.88	730.64
504.24	745.96
504.60	761.48
504.97	777.49
505.33	793.92
505.69	811.25
506.05	828.91
506.41	846.51
506.78	864.30
507.14	882.60
507.50	901.35
507.86	920.45
508.22	939.75
508.59	958.91
508.95	978.88
509.31	999.60
509.67	1020.98
510.03	1042.37
510.39	1063.83
510.75	1085.49
511.12	1107.42
511.48	1129.51
511.84	1151.70
512.20	1174.29
512.56	1197.72
512.92	1221.17
513.28	1244.26
513.64	1267.63
514.00	1291.44
514.37	1315.54
514.73	1339.68
515.09	1363.70
515.45	1388.05
515.81	1412.57
516.17	1437.26
516.53	1461.45
516.89	1485.52
517.25	1509.80
517.61	1533.99
517.97	1558.67
518.33	1582.84
518.69	1606.93
519.05	1631.53
519.41	1656.39
519.77	1681.48
520.13	1705.86
520.49	1730.15
520.85	1754.80
521.21	1779.00
521.57	1803.60
521.93	1827.74
522.29	1852.36
522.65	1876.45
523.01	1900.51
523.37	1924.21
523.73	1948.57
524.09	1972.72
524.45	1996.68
524.81	2020.23
525.17	2043.65
525.53	2066.51
525.89	2089.81
526.25	2113.12
526.61	2135.42
526.97	2157.90
527.33	2180.28
527.68	2202.37
528.04	2223.72
528.40	2244.14
528.76	2264.84
529.12	2285.05
529.48	2304.94
529.84	2323.08
530.20	2341.84
530.56	2360.01
530.91	2378.33
531.27	2396.34
531.63	2413.46
531.99	2430.11
532.35	2446.17
532.71	2462.33
533.07	2479.13
533.42	2494.17
533.78	2510.20
534.14	2526.40
534.50	2541.62
534.86	2556.64
535.21	2569.79
535.57	2583.43
535.93	2596.85
536.29	2609.11
536.65	2621.25
537.00	2632.69
537.36	2645.04
537.72	2655.93
538.08	2666.40
538.44	2676.22
538.79	2685.58
539.15	2694.15
539.51	2702.39
539.87	2709.94
540.22	2715.54
540.58	2721.19
540.94	2728.08
541.29	2733.31
541.65	2736.86
542.01	2739.65
542.37	2741.83
542.72	2745.32
543.08	2747.11
543.44	2749.50
543.79	2750.81
544.15	2751.27
544.51	2752.16
544.87	2751.89
545.22	2750.97
545.58	2749.34
545.94	2747.71
546.29	2744.78
546.65	2741.85
547.01	2738.84
547.36	2736.57
547.72	2734.39
548.07	2730.45
548.43	2725.04
548.79	2718.73
549.14	2713.73
549.50	2708.97
549.86	2703.26
550.21	2696.41
550.57	2690.53
550.92	2682.36
551.28	2674.82
551.64	2667.56
551.99	2659.78
552.35	2651.38
552.70	2643.22
553.06	2635.39
553.41	2626.91
553.77	2618.19
554.13	2609.44
554.48	2599.84
554.84	2589.02
555.19	2578.70
555.55	2568.42
555.90	2558.15
556.26	2548.41
556.61	2537.60
556.97	2525.17
557.32	2513.29
557.68	2501.30
558.03	2489.07
558.39	2478.02
558.74	2467.23
559.10	2454.71
559.45	2442.46
559.81	2430.85
560.16	2418.59
560.52	2406.54
560.87	2394.83
561.23	2382.32
561.58	2369.91
561.94	2357.15
562.29	2343.82
562.64	2331.21
563.00	2318.25
563.35	2305.80
563.71	2293.15
564.06	2280.32
564.42	2268.25
564.77	2255.53
565.12	2242.71
565.48	2229.88
565.83	2216.99
566.19	2204.22
566.54	2191.44
566.89	2177.50
567.25	2163.70
567.60	2151.24
567.96	2137.87
568.31	2123.16
568.66	2109.21
569.02	2096.41
569.37	2083.50
569.72	2071.12
570.08	2057.46
570.43	2043.53
570.78	2029.37
571.14	2014.48
571.49	2000.28
571.84	1986.62
572.20	1971.72
572.55	1957.11
572.90	1942.37
573.26	1927.64
573.61	1912.40
573.96	1897.59
574.31	1883.03
574.67	1868.51
575.02	1852.98
575.37	1837.53
575.72	1822.92
576.08	1808.63
576.43	1793.18
576.78	1778.18
577.13	1763.44
577.49	1749.02
577.84	1735.22
578.19	1720.44
578.54	1705.91
578.90	1690.86
579.25	1675.69
579.60	1662.11
579.95	1648.42
580.30	1634.55
580.66	1620.46
581.01	1606.24
581.36	1592.00
581.71	1578.79
582.06	1565.46
582.42	1552.34
582.77	1539.27
583.12	1526.15
583.47	1512.90
583.82	1499.76
584.17	1486.31
584.53	1472.50
584.88	1459.09
585.23	1445.18
585.58	1432.15
585.93	1419.30
586.28	1407.25
586.63	1395.17
586.98	1382.62
587.34	1370.10
587.69	1357.27
588.04	1344.79
588.39	1332.72
588.74	1320.80
589.09	1308.62
589.44	1296.02
589.79	1284.09
590.14	1272.26
590.49	1260.36
590.84	1248.61
591.19	1237.25
591.54	1225.69
591.89	1214.29
592.25	1203.06
592.60	1191.49
592.95	1180.33
593.30	1169.37
593.65	1158.06
594.00	1146.88
594.35	1136.27
594.70	1125.26
595.05	1115.17
595.40	1104.94
595.75	1094.54
596.10	1084.69
596.45	1074.55
596.80	1064.75
597.15	1054.70
597.50	1044.81
597.85	1035.33
598.19	1025.66
598.54	1016.06
598.89	1006.89
599.24	998.06
599.59	989.03
599.94	980.96
600.29	972.63
600.64	964.01
600.99	955.03
601.34	946.45
601.69	937.53
602.04	929.27
602.39	920.85
602.74	912.48
603.08	904.08
603.43	895.62
603.78	887.36
604.13	879.26
604.48	871.16
604.83	863.23
605.18	855.19
605.53	847.32
605.87	839.25
606.22	831.54
606.57	823.73
606.92	815.85
607.27	807.88
607.62	800.25
607.96	793.05
608.31	786.29
608.66	779.30
609.01	772.59
609.36	765.99
609.70	759.14
610.05	752.29
610.40	745.70
610.75	739.12
611.10	732.87
611.44	726.45
611.79	720.14
612.14	713.76
612.49	707.49
612.83	701.51
613.18	695.66
613.53	689.68
613.88	683.77
614.22	678.27
614.57	672.69
614.92	666.94
615.27	661.32
615.61	655.75
615.96	650.24
616.31	644.73
616.65	639.28
617.00	634.07
617.35	628.96
617.70	623.89
618.04	618.85
618.39	613.76
618.74	608.93
619.08	604.13
619.43	599.45
619.78	594.78
620.12	590.05
620.47	585.51
620.82	581.10
621.16	576.67
621.51	572.12
621.85	567.65
622.20	563.35
622.55	559.05
622.89	554.85
623.24	550.63
623.59	546.47
623.93	542.47
624.28	538.55
624.62	534.73
624.97	530.94
625.32	527.14
625.66	523.28
626.01	519.38
626.35	515.56
626.70	511.80
627.04	508.22
627.39	504.58
627.73	501.09
628.08	497.69
628.43	494.29
628.77	490.98
629.12	487.78
629.46	484.60
629.81	481.33
630.15	478.07
630.50	474.90
630.84	471.78
631.19	468.73
631.53	465.79
631.88	462.81
632.22	459.85
632.57	457.18
632.91	454.55
633.26	452.01
633.60	449.47
633.95	446.99
634.29	444.43
634.64	441.95
634.98	439.26
635.32	436.73
635.67	434.40
636.01	431.99
636.36	429.63
636.70	427.42
637.05	425.19
637.39	423.00
637.73	420.84
638.08	418.79
638.42	416.70
638.77	414.49
639.11	412.21
639.45	410.03
639.80	407.79
640.14	405.66
640.49	403.52
640.83	401.34
641.17	399.26
641.52	397.23
641.86	395.21
642.20	393.42
642.55	391.45
642.89	389.52
643.23	387.67
643.58	385.99
643.92	384.17
644.26	382.42
644.61	380.74
644.95	379.00
645.29	377.19
645.64	375.42
645.98	373.73
646.32	372.17
646.66	370.58
647.01	369.01
647.35	367.49
647.69	365.94
648.04	364.55
648.38	363.06
648.72	361.61
649.06	360.15
649.41	358.71
649.75	357.33
650.09	355.96
650.43	354.59
650.78	353.17
651.12	351.79
651.46	350.46
651.80	349.15
652.14	347.88
652.49	346.66
652.83	345.41
653.17	344.21
653.51	343.04
653.85	341.93
654.20	340.78
654.54	339.55
654.88	338.41
655.22	337.29
655.56	336.16
655.90	335.09
656.25	334.06
656.59	333.00
656.93	332.01
657.27	331.03
657.61	329.99
657.95	328.99
658.29	328.00
658.64	327.06
658.98	326.10
659.32	325.18
659.66	324.30
660.00	323.44
660.34	322.57
660.68	321.68
661.02	320.74
661.36	319.85
661.70	319.00
662.05	318.16
662.39	317.33
662.73	316.59
663.07	315.84
663.41	315.06
663.75	314.27
664.09	313.49
664.43	312.67
664.77	311.94
665.11	311.16
665.45	310.46
665.79	309.75
666.13	309.01
666.47	308.26
666.81	307.49
667.15	306.70
667.49	306.02
667.83	305.40
668.17	304.74
668.51	304.13
668.85	303.55
669.19	303.00
669.53	302.36
669.87	301.70
670.21	301.06
670.55	300.46
670.89	299.93
671.23	299.35
671.57	298.80
671.91	298.29
672.25	297.80
672.58	297.30
672.92	296.73
673.26	296.25
673.60	295.76
673.94	295.29
674.28	294.86
674.62	294.39
674.96	293.85
675.30	293.38
675.64	292.88
675.97	292.35
676.31	291.81
676.65	291.32
676.99	290.89
677.33	290.39
677.67	289.93
678.01	289.40
678.34	288.94
678.68	288.51
679.02	288.02
679.36	287.53
679.70	287.06
680.04	286.62
680.37	286.17
680.71	285.75
681.05	285.33
681.39	284.87
681.73	284.39
682.06	283.93
682.40	283.50
682.74	283.12
683.08	282.78
683.42	282.38
683.75	282.01
684.09	281.55
684.43	281.17
684.77	280.77
685.10	280.43
685.44	280.05
685.78	279.67
686.12	279.32
686.45	278.94
686.79	278.54
687.13	278.18
687.46	277.78
687.80	277.41
688.14	276.99
688.48	276.63
688.81	276.27
689.15	275.94
689.49	275.55
689.82	275.16
690.16	274.72
690.50	274.36
690.83	273.98
691.17	273.60
691.51	273.23
691.84	272.89
692.18	272.49
692.52	272.10
692.85	271.73
693.19	271.39
693.52	271.03
693.86	270.68
694.20	270.32
694.53	269.99
694.87	269.61
695.21	269.26
695.54	268.91
695.88	268.55
696.21	268.17
696.55	267.83
696.88	267.49
697.22	267.15
697.56	266.81
697.89	266.43
698.23	266.10
698.56	265.74
698.90	265.41
699.23	265.06
699.57	264.72
699.90	264.37
700.24	264.01
700.58	263.70
700.91	263.42
701.25	263.21
701.58	262.95
701.92	262.68
702.25	262.38
702.59	262.06
702.92	261.76
703.26	261.45
703.59	261.13
703.93	260.92
704.26	260.63
704.60	260.32
704.93	260.01
705.26	259.71
705.60	259.46
705.93	259.13
706.27	258.87
706.60	258.62
706.94	258.38
707.27	258.06
707.61	257.76
707.94	257.44
708.27	257.03
708.61	256.68
708.94	256.37
709.28	256.09
709.61	255.80
709.94	255.55
710.28	255.30
710.61	255.08
710.95	254.71
711.28	254.53
711.61	254.27
711.95	254.05
712.28	253.79
712.61	253.51
712.95	253.35
713.28	253.16
713.61	252.88
713.95	252.59
714.28	252.37
714.61	252.12
714.95	251.88
715.28	251.65
715.61	251.43
715.95	251.22
716.28	251.00
716.61	250.81
716.95	250.57
717.28	250.35
717.61	250.11
717.94	249.90
718.28	249.59
718.61	249.37
718.94	249.13
719.27	248.92
719.61	248.73
719.94	248.48
720.27	248.20
720.60	247.99
720.94	247.79
721.27	247.59
721.60	247.42
721.93	247.21
722.27	247.05
722.60	246.88
722.93	246.66
723.26	246.47
723.59	246.24
723.93	246.06
724.26	245.88
724.59	245.68
724.92	245.51
725.25	245.38
725.59	245.21
725.92	245.06
726.25	244.89
726.58	244.71
726.91	244.54
727.24	244.39
727.57	244.22
727.91	244.04
728.24	243.90
728.57	243.73
728.90	243.59
729.23	243.38
729.56	243.27
729.89	243.11
730.22	242.94
730.55	242.79
730.89	242.63
731.22	242.47
731.55	242.32
731.88	242.16
732.21	241.98
732.54	241.82
732.87	241.68
733.20	241.54
733.53	241.40
733.86	241.26
734.19	241.10
734.52	240.97
734.85	240.92
735.18	240.75
735.51	240.65
735.84	240.51
736.17	240.42
736.50	240.23
736.83	240.24
737.16	240.12
737.49	240.00
737.82	239.87
738.15	239.76
738.48	239.64
738.81	239.51
739.14	239.38
739.47	239.25
739.80	239.12
740.13	239.00
740.46	238.86
740.79	238.72
741.12	238.60
741.45	238.46
741.78	238.27
742.11	238.19
742.44	238.04
742.77	237.93
743.10	237.80
743.43	237.68
743.75	237.44
744.08	237.52
744.41	237.40
744.74	237.28
745.07	237.15
745.40	237.06
745.73	237.01
746.06	236.92
746.39	236.84
746.71	236.73
747.04	236.62
747.37	236.52
747.70	236.45
748.03	236.36
748.36	236.29
748.68	236.19
749.01	236.05
749.34	235.97
749.67	235.89
750.00	235.81
750.33	235.82
750.65	235.73
750.98	235.46
751.31	235.37
751.64	235.29
751.97	235.28
752.29	235.18
752.62	235.03
752.95	234.94
753.28	234.83
753.60	234.75
753.93	234.69
754.26	234.62
754.59	234.49
754.91	234.39
755.24	234.29
755.57	234.27
755.90	234.19
756.22	234.09
756.55	233.99
756.88	233.88
757.20	233.71
757.53	233.60
757.86	233.52
758.19	233.45
758.51	233.37
758.84	233.23
759.17	233.15
759.49	233.08
759.82	233.06
760.15	233.01
760.47	232.94
760.80	232.83
761.13	232.78
761.45	232.72
761.78	232.66
762.11	232.60
762.43	232.47
762.76	232.41
763.08	232.37
763.41	232.31
763.74	232.26
764.06	232.20
764.39	232.15
764.71	232.10
765.04	232.02
765.37	231.96
765.69	231.90
766.02	231.85
766.34	231.78
766.67	231.68
767.00	231.65
767.32	231.67
767.65	231.69
767.97	231.63
768.30	231.59
768.62	231.54
768.95	231.47
769.27	231.42
769.60	231.38
769.92	231.31
770.25	231.24
770.57	231.17
770.90	231.12
771.22	231.06
771.55	231.02
771.87	230.98
772.20	230.94
772.52	231.00
772.85	231.11
773.17	231.07
773.50	231.02
773.82	230.96
774.15	230.85
774.47	230.73
774.80	230.68
775.12	230.63
775.45	230.59
775.77	230.57
776.09	230.54
776.42	230.51
776.74	230.52
777.07	230.48
777.39	230.46
777.72	230.42
778.04	230.40
778.36	230.36
778.69	230.32
779.01	230.30
779.33	230.16
779.66	229.98
779.98	229.94
780.31	229.92
780.63	229.94
780.95	229.93
781.28	229.90
781.60	229.86
781.92	229.83
782.25	229.81
782.57	229.78
782.89	229.74
783.22	229.70
783.54	229.64
783.86	229.63
784.19	229.59
784.51	229.60
784.83	229.56
785.16	229.53
785.48	229.51
785.80	229.49
786.12	229.47
786.45	229.45
786.77	229.44
787.09	229.41
787.42	229.34
787.74	229.32
788.06	229.31
788.38	229.28
788.71	229.25
789.03	229.24
789.35	229.23
789.67	229.19
789.99	229.18
790.32	229.15
790.64	229.14
790.96	229.24
791.28	229.17
791.61	229.15
791.93	229.14
792.25	229.11
792.57	229.18
792.89	229.14
793.21	229.13
793.54	229.10
793.86	229.07
794.18	229.06
794.50	229.01
794.82	228.99
795.14	229.00
795.47	229.00
795.79	228.98
796.11	228.93
796.43	228.91
796.75	228.89
797.07	228.88
797.39	228.86
797.71	228.74
798.04	228.73
798.36	228.72
798.68	228.70
799.00	228.70
799.32	228.62
799.64	228.62
799.96	228.60
800.28	228.61
800.60	228.59
800.92	228.58
801.24	228.56
801.56	228.56
801.89	228.53
802.21	228.52
802.53	228.48
802.85	228.50
803.17	228.55
803.49	228.51
803.81	228.49
804.13	228.46
804.45	228.44
804.77	228.43
805.09	228.41
805.41	228.39
805.73	228.35
806.05	228.30
806.37	228.28
806.69	228.25
807.01	228.22
807.33	228.22
807.65	228.16
807.97	228.21
808.28	228.18
808.60	228.16
808.92	228.13
809.24	228.20
809.56	228.17
809.88	228.11
810.20	228.11
810.52	228.12
810.84	228.09
811.16	228.07
811.48	228.05
811.80	228.09
812.12	228.07
812.43	228.09
812.75	228.09
813.07	228.07
813.39	228.06
813.71	228.04
814.03	228.02
814.35	228.02
814.67	227.96
814.98	227.94
815.30	227.93
815.62	227.90
815.94	227.80
816.26	227.81
816.58	227.77
816.89	227.77
817.21	227.73
817.53	227.73
817.85	227.73
818.17	227.72
818.48	227.66
818.80	227.68
819.12	227.64
819.44	227.61
819.76	227.59
820.07	227.59
820.39	227.58
820.71	227.58
821.03	227.57
821.34	227.56
821.66	227.56
821.98	227.57
822.30	227.56
822.61	227.63
822.93	227.60
823.25	227.60
823.57	227.58
823.88	227.59
824.20	227.57
824.52	227.59
824.83	227.57
825.15	227.56
825.47	227.54
825.79	227.55
826.10	227.54
826.42	227.52
826.74	227.52
827.05	227.52
827.37	227.51
827.69	227.50
828.00	227.50
828.32	227.49
828.64	227.47
828.95	227.53
829.27	227.49
829.58	227.48
829.90	227.50
830.22	227.50
830.53	227.47
830.85	227.46
831.17	227.42
831.48	227.42
831.80	227.42
832.11	227.41
832.43	227.39
832.75	227.38
833.06	227.46
833.38	227.42
833.69	227.41
834.01	227.41
834.32	227.40
834.64	227.39
834.96	227.38
835.27	227.38
835.59	227.33
835.90	227.31
836.22	227.29
836.53	227.26
836.85	227.24
837.16	227.36
837.48	227.36
837.79	227.40
838.11	227.40
838.42	227.40
838.74	227.40
839.05	227.39
839.37	227.39
839.68	227.31
840.00	227.30
840.31	227.31
840.63	227.29
840.94	227.28
841.26	227.27
841.57	227.26
841.88	227.26
842.20	227.25
842.51	227.22
842.83	227.22
843.14	227.33
843.46	227.33
843.77	227.25
844.08	227.25
844.40	227.20
844.71	227.19
845.03	227.17
845.34	227.16
845.65	227.16
845.97	227.16
846.28	227.16
846.60	227.16
846.91	227.14
847.22	227.14
847.54	227.16
847.85	227.17
848.16	227.15
848.48	227.13
848.79	227.17
849.10	227.19
849.42	227.19
849.73	227.07
850.04	227.07
850.36	227.02
850.67	227.04
850.98	227.04
851.30	227.05
851.61	227.04
851.92	227.04
852.23	227.07
852.55	227.08
852.86	227.08
853.17	227.08
853.49	227.11
853.80	227.13
854.11	227.14
854.42	227.15
854.74	227.14
855.05	227.15
855.36	227.08
855.67	227.08
855.99	227.08
856.30	227.22
856.61	227.22
856.92	227.23
857.23	227.23
857.55	227.21
857.86	227.20
858.17	227.23
858.48	227.20
858.79	227.17
859.11	227.18
859.42	227.17
859.73	227.15
860.04	227.14
860.35	227.10
860.66	227.06
860.98	227.05
861.29	227.07
861.60	227.05
861.91	227.08
862.22	227.06
862.53	227.04
862.84	226.89
863.16	226.91
863.47	226.89
863.78	226.87
864.09	226.88
864.40	226.89
864.71	226.88
865.02	226.90
865.33	226.89
865.64	226.86
865.95	226.86
866.27	226.94
866.58	226.93
866.89	226.95
867.20	226.95
867.51	226.93
867.82	226.91
868.13	226.95
868.44	226.92
868.75	226.95
869.06	226.95
869.37	226.97
869.68	226.93
869.99	226.95
870.30	226.96
870.61	226.97
870.92	226.95
871.23	226.93
871.54	226.94
871.85	226.98
872.16	226.99
872.47	226.98
872.78	226.90
873.09	226.91
873.40	226.90
873.71	226.91
874.02	226.92
874.33	226.91
874.64	226.88
874.95	226.90
875.26	226.87
875.56	226.86
875.87	226.86
876.18	226.85
876.49	226.97
876.80	226.96
877.11	226.94
877.42	226.94
877.73	226.95
878.04	226.92
878.35	226.92
878.66	226.92
878.96	226.91
879.27	226.91
879.58	226.90
879.89	226.89
880.20	226.93
880.51	226.92
880.82	226.93
881.12	226.93
881.43	226.91
881.74	226.89
882.05	226.89
882.36	226.89
882.67	226.90
882.97	226.77
883.28	226.76
883.59	226.76
883.90	226.77
884.21	226.78
884.51	226.78
884.82	226.76
885.13	226.76
885.44	226.76
885.74	226.76
886.05	226.75
886.36	226.74
886.67	226.70
886.98	226.76
887.28	226.77
887.59	226.76
887.90	226.77
888.20	226.76
888.51	226.78
888.82	226.76
889.13	226.77
889.43	226.88
889.74	226.87
890.05	226.87
890.35	226.86
890.66	226.84
890.97	226.82
891.28	226.81
891.58	226.81
891.89	226.82
892.20	226.80
892.50	226.79
892.81	226.79
893.12	226.78
893.42	226.72
893.73	226.72
894.04	226.72
894.34	226.73
894.65	226.73
894.95	226.71
895.26	226.72
895.57	226.77
895.87	226.64
896.18	226.67
896.48	226.67
896.79	226.67
897.10	226.69
897.40	226.69
897.71	226.70
898.01	226.69
898.32	226.70
898.63	226.70
898.93	226.71
899.24	226.72
899.54	226.71
899.85	226.70
900.15	226.69
900.46	226.69
900.76	226.70
901.07	226.70
901.38	226.69
901.68	226.70
901.99	226.63
902.29	226.64
902.60	226.63
902.90	226.62
903.21	226.61
903.51	226.60
903.82	226.62
904.12	226.62
904.43	226.63
904.73	226.62
905.03	226.63
905.34	226.74
905.64	226.73
905.95	226.74
906.25	226.73
906.56	226.73
906.86	226.73
907.17	226.72
907.47	226.72
907.77	226.71
908.08	226.69
908.38	226.70
908.69	226.70
908.99	226.73
909.30	226.73
909.60	226.73
909.90	226.74
910.21	226.70
910.51	226.68
910.81	226.68
911.12	226.69
911.42	226.69
911.73	226.56
912.03	226.57
912.33	226.59
912.64	226.59
912.94	226.57
913.24	226.55
913.55	226.54
913.85	226.54
914.15	226.56
914.46	226.58
914.76	226.57
915.06	226.56
915.37	226.54
915.67	226.53
915.97	226.53
916.27	226.50
916.58	226.51
916.88	226.51
917.18	226.50
917.49	226.58
917.79	226.58
918.09	226.60
918.39	226.63
918.70	226.62
919.00	226.63
919.30	226.69
919.60	226.69
919.91	226.68
920.21	226.68
920.51	226.66
920.81	226.65
921.12	226.67
921.42	226.67
921.72	226.67
922.02	226.69
922.32	226.71
922.63	226.71
922.93	226.78
923.23	226.79
923.53	226.77
923.83	226.69
924.13	226.70
924.44	226.70
924.74	226.71
925.04	226.74
925.34	226.73
925.64	226.68
925.94	226.68
926.24	226.76
926.55	226.74
926.85	226.76
927.15	226.76
927.45	226.76
927.75	226.76
928.05	226.76
928.35	226.74
928.65	226.76
928.95	226.77
929.26	226.71
929.56	226.73
929.86	226.74
930.16	226.73
930.46	226.71
930.76	226.72
931.06	226.66
931.36	226.63
931.66	226.65
931.96	226.66
932.26	226.67
932.56	226.61
932.86	226.63
933.16	226.62
933.46	226.61
933.76	226.59
934.06	226.61
934.36	226.65
934.66	226.65
934.96	226.63
935.26	226.63
935.56	226.65
935.86	226.62
936.16	226.60
936.46	226.60
936.76	226.59
937.06	226.57
937.36	226.58
937.66	226.59
937.96	226.58
938.26	226.55
938.56	226.54
938.86	226.54
939.16	226.57
939.46	226.58
939.76	226.59
940.06	226.59
940.35	226.56
940.65	226.50
940.95	226.51
941.25	226.49
941.55	226.47
941.85	226.46
942.15	226.49
942.45	226.52
942.75	226.52
943.04	226.53
943.34	226.55
943.64	226.54
943.94	226.52
944.24	226.52
944.54	226.53
944.84	226.53
945.13	226.51
945.43	226.49
945.73	226.48
946.03	226.47
946.33	226.46
946.62	226.45
946.92	226.45
947.22	226.45
947.52	226.46
947.82	226.47
948.11	226.46
948.41	226.43
948.71	226.39
949.01	226.40
949.31	226.39
949.60	226.37
949.90	226.40
950.20	226.40
950.50	226.40
950.79	226.39
951.09	226.41
951.39	226.41
951.69	226.40
951.98	226.42
952.28	226.43
952.58	226.43
952.87	226.43
953.17	226.45
953.47	226.44
953.76	226.44
954.06	226.41
954.36	226.40
954.66	226.40
954.95	226.43
955.25	226.44
955.55	226.45
955.84	226.44
956.14	226.44
956.44	226.45
956.73	226.43
957.03	226.44
957.32	226.44
957.62	226.43
957.92	226.46
958.21	226.44
958.51	226.59
958.81	226.61
959.10	226.62
959.40	226.65
959.69	226.66
959.99	226.68
960.29	226.69
960.58	226.68
960.88	226.73
961.17	226.71
961.47	226.72
961.76	226.71
962.06	226.73
962.36	226.71
962.65	226.72
962.95	226.73
963.24	226.71
963.54	226.71
963.83	226.72
964.13	226.71
964.42	226.70
964.72	226.59
965.01	226.59
965.31	226.59
965.60	226.55
965.90	226.63
966.19	226.60
966.49	226.60
966.78	226.60
967.08	226.59
967.37	226.59
967.67	226.57
967.96	226.59
968.26	226.58
968.55	226.60
968.85	226.59
969.14	226.59
969.43	226.59
969.73	226.58
970.02	226.57
970.32	226.56
970.61	226.55
970.91	226.51
971.20	226.49
971.49	226.48
971.79	226.49
972.08	226.40
972.38	226.41
972.67	226.41
972.96	226.43
973.26	226.40
973.55	226.44
973.85	226.43
974.14	226.41
974.43	226.42
974.73	226.39
975.02	226.39
975.31	226.39
975.61	226.38
975.90	226.37
976.19	226.37
976.49	226.37
976.78	226.38
977.07	226.38
977.37	226.39
977.66	226.40
977.95	226.38
978.24	226.39
978.54	226.42
978.83	226.41
979.12	226.40
979.42	226.40
979.71	226.37
980.00	226.37
980.29	226.38
980.59	226.36
980.88	226.39
981.17	226.39
981.46	226.39
981.76	226.39
982.05	226.43
982.34	226.44
982.63	226.43
982.93	226.43
983.22	226.46
983.51	226.47
983.80	226.49
984.09	226.50
984.39	226.49
984.68	226.47
984.97	226.48
985.26	226.47
985.55	226.48
985.85	226.46
986.14	226.48
986.43	226.49
986.72	226.48
987.01	226.44
987.30	226.44
987.59	226.43
987.89	226.44
988.18	226.40
988.47	226.39
988.76	226.38
989.05	226.37
989.34	226.35
989.63	226.38
989.92	226.36
990.22	226.34
990.51	226.35
990.80	226.34
991.09	226.35
991.38	226.37
991.67	226.35
991.96	226.34
992.25	226.34
992.54	226.32
992.83	226.32
993.12	226.32
993.41	226.34
993.70	226.39
993.99	226.41
994.28	226.43
994.58	226.45
994.87	226.44
995.16	226.44
995.45	226.43
995.74	226.38
996.03	226.40
996.32	226.42
996.61	226.44
996.90	226.44
997.19	226.43
997.48	226.43
997.77	226.41
998.06	226.42
998.34	226.41
998.63	226.41
998.92	226.42
999.21	226.44
999.50	226.43
999.79	226.39
1000.08	226.38
1000.37	226.38
1000.66	226.37
1000.95	226.40
1001.24	226.41
1001.53	226.43
1001.82	226.42
1002.11	226.40
1002.40	226.41
1002.68	226.43
1002.97	226.52
1003.26	226.51
1003.55	226.49
1003.84	226.50
1004.13	226.55
1004.42	226.54
1004.71	226.54
1004.99	226.53
1005.28	226.56
1005.57	226.55
1005.86	226.54
1006.15	226.53
1006.44	226.51
1006.72	226.52
1007.01	226.49
1007.30	226.49
1007.59	226.48
1007.88	226.48
1008.17	226.49
1008.45	226.46
1008.74	226.41
1009.03	226.35
1009.32	226.35
1009.60	226.35
1009.89	226.34
1010.18	226.29
1010.47	226.29
1010.76	226.29
1011.04	226.29
1011.33	226.29
1011.62	226.29
1011.91	226.31
1012.19	226.31
1012.48	226.31
1012.77	226.31
1013.05	226.36
1013.34	226.36
1013.63	226.35
1013.92	226.36
1014.20	226.35
1014.49	226.36
1014.78	226.37
1015.06	226.33
1015.35	226.33
1015.64	226.34
1015.92	226.36
1016.21	226.37
1016.50	226.37
1016.78	226.38
1017.07	226.39
1017.36	226.36
1017.64	226.35
1017.93	226.36
1018.22	226.34
1018.50	226.34
1018.79	226.34
1019.08	226.29
1019.36	226.30
1019.65	226.29
1019.93	226.32
1020.22	226.34
1020.51	226.40
1020.79	226.39
1021.08	226.14
1021.36	226.14
1021.65	226.41
1021.94	226.26
1022.22	226.41
1022.51	226.05
1022.79	226.94
1023.08	226.50
1023.36	227.82
1023.65	226.04
>>>>>End Processed Spectral Data<<<<<
