SpectraSuite Data File
++++++++++++++++++++++++++++++++++++
Date: Sat Oct 03 08:53:57 EDT 2015
User: lab3
Dark Spectrum Present: No
Reference Spectrum Present: No
Number of Sampled Component Spectra: 1
Spectrometers: USB2E7196
Integration Time (usec): 46000 (USB2E7196)
Spectra Averaged: 12000 (USB2E7196)
Boxcar Smoothing: 10 (USB2E7196)
Correct for Electrical Dark: No (USB2E7196)
Strobe/Lamp Enabled: No (USB2E7196)
Correct for Detector Non-linearity: No (USB2E7196)
Correct for Stray Light: No (USB2E7196)
Number of Pixels in Processed Spectrum: 2048
>>>>>Begin Processed Spectral Data<<<<<
339.09	0.00
339.48	213.47
339.86	214.95
340.24	216.34
340.63	217.73
341.01	221.04
341.39	220.44
341.78	221.84
342.16	223.07
342.54	223.46
342.93	211.95
343.31	222.66
343.69	223.19
344.07	223.66
344.46	224.09
344.84	224.48
345.22	224.70
345.60	224.96
345.99	225.15
346.37	225.29
346.75	225.40
347.13	225.47
347.52	225.54
347.90	225.64
348.28	225.67
348.66	225.73
349.05	225.73
349.43	225.78
349.81	225.85
350.19	225.90
350.57	225.97
350.96	226.05
351.34	226.15
351.72	226.24
352.10	226.35
352.48	226.42
352.87	226.48
353.25	226.54
353.63	226.60
354.01	226.67
354.39	226.75
354.77	226.83
355.15	226.94
355.54	226.99
355.92	227.02
356.30	227.10
356.68	227.25
357.06	227.33
357.44	227.38
357.82	227.44
358.20	227.56
358.58	227.62
358.97	227.69
359.35	227.77
359.73	227.86
360.11	227.91
360.49	227.97
360.87	228.02
361.25	228.09
361.63	228.18
362.01	228.23
362.39	228.26
362.77	228.31
363.15	228.33
363.53	228.36
363.91	228.40
364.29	228.42
364.67	228.32
365.05	228.34
365.43	228.38
365.81	228.41
366.19	228.43
366.57	228.48
366.95	228.49
367.33	228.46
367.71	228.45
368.09	228.47
368.47	228.47
368.85	228.45
369.23	228.46
369.61	228.40
369.99	228.43
370.37	228.43
370.75	228.50
371.13	228.47
371.51	228.43
371.89	228.42
372.27	228.40
372.65	228.38
373.03	228.34
373.41	228.30
373.78	228.25
374.16	228.14
374.54	228.05
374.92	228.00
375.30	227.96
375.68	227.90
376.06	227.85
376.44	227.80
376.82	227.76
377.19	227.71
377.57	227.66
377.95	227.56
378.33	227.50
378.71	227.34
379.09	227.29
379.47	227.26
379.84	227.19
380.22	227.13
380.60	227.05
380.98	227.00
381.36	226.95
381.73	226.89
382.11	226.87
382.49	226.83
382.87	226.77
383.25	226.72
383.62	226.83
384.00	226.75
384.38	226.72
384.76	226.70
385.13	226.69
385.51	226.65
385.89	226.60
386.27	226.57
386.64	226.56
387.02	226.51
387.40	226.46
387.78	226.44
388.15	226.41
388.53	226.38
388.91	226.35
389.29	226.31
389.66	226.31
390.04	226.27
390.42	226.26
390.79	226.25
391.17	226.23
391.55	226.07
391.92	226.06
392.30	226.06
392.68	226.02
393.05	226.00
393.43	226.01
393.81	226.01
394.18	225.99
394.56	225.99
394.94	226.02
395.31	226.02
395.69	226.07
396.06	226.10
396.44	226.13
396.82	226.14
397.19	226.24
397.57	226.25
397.95	226.30
398.32	226.29
398.70	226.34
399.07	226.41
399.45	226.45
399.82	226.49
400.20	226.53
400.58	226.59
400.95	226.60
401.33	226.69
401.70	226.84
402.08	226.95
402.45	227.04
402.83	227.16
403.20	227.28
403.58	227.37
403.95	227.51
404.33	227.66
404.71	227.81
405.08	228.02
405.46	228.20
405.83	228.38
406.21	228.59
406.58	228.81
406.96	229.03
407.33	229.28
407.70	229.57
408.08	229.97
408.45	230.31
408.83	230.68
409.20	231.02
409.58	231.32
409.95	231.73
410.33	232.19
410.70	232.60
411.08	233.10
411.45	233.63
411.82	234.17
412.20	234.78
412.57	235.51
412.95	236.07
413.32	236.82
413.69	237.58
414.07	238.40
414.44	239.28
414.82	240.18
415.19	241.23
415.56	242.30
415.94	243.41
416.31	244.65
416.68	245.89
417.06	247.33
417.43	248.68
417.81	250.24
418.18	251.82
418.55	253.55
418.93	255.35
419.30	257.22
419.67	259.22
420.04	261.26
420.42	263.39
420.79	265.86
421.16	268.35
421.54	270.88
421.91	273.53
422.28	276.27
422.66	279.23
423.03	282.05
423.40	285.00
423.77	288.17
424.15	291.41
424.52	294.79
424.89	298.45
425.26	302.09
425.64	305.47
426.01	309.27
426.38	313.16
426.75	317.17
427.13	321.28
427.50	325.58
427.87	330.05
428.24	334.57
428.61	338.90
428.99	343.59
429.36	348.74
429.73	353.65
430.10	358.57
430.47	363.60
430.85	368.79
431.22	374.35
431.59	380.06
431.96	385.64
432.33	391.84
432.70	397.74
433.08	404.70
433.45	411.28
433.82	417.77
434.19	425.01
434.56	432.15
434.93	439.05
435.30	445.87
435.68	453.57
436.05	461.13
436.42	468.66
436.79	475.53
437.16	482.93
437.53	490.87
437.90	498.81
438.27	506.58
438.64	514.97
439.01	522.58
439.38	529.54
439.75	536.24
440.13	543.79
440.50	550.97
440.87	556.65
441.24	562.89
441.61	569.70
441.98	574.65
442.35	580.52
442.72	586.51
443.09	592.22
443.46	595.81
443.83	598.43
444.20	600.59
444.57	603.86
444.94	605.68
445.31	607.57
445.68	609.16
446.05	610.30
446.42	609.86
446.79	609.21
447.16	608.63
447.53	608.09
447.90	605.57
448.27	603.17
448.64	599.57
449.01	597.03
449.37	592.07
449.74	587.59
450.11	581.83
450.48	575.54
450.85	569.26
451.22	563.89
451.59	558.65
451.96	553.90
452.33	547.04
452.70	540.94
453.07	533.52
453.43	526.12
453.80	518.94
454.17	512.06
454.54	505.74
454.91	498.59
455.28	491.91
455.65	485.61
456.02	478.97
456.38	473.62
456.75	466.74
457.12	461.20
457.49	455.61
457.86	450.36
458.23	445.77
458.59	440.68
458.96	435.45
459.33	430.86
459.70	426.18
460.07	422.64
460.43	418.46
460.80	414.56
461.17	411.19
461.54	407.51
461.91	404.09
462.27	400.60
462.64	397.79
463.01	394.54
463.38	391.28
463.74	388.34
464.11	385.74
464.48	383.42
464.85	380.87
465.21	378.96
465.58	376.81
465.95	374.33
466.32	372.38
466.68	370.45
467.05	368.51
467.42	366.62
467.78	364.56
468.15	362.68
468.52	361.31
468.88	359.45
469.25	357.75
469.62	356.41
469.98	354.94
470.35	353.63
470.72	352.45
471.08	351.24
471.45	350.22
471.82	349.08
472.18	347.88
472.55	347.10
472.92	346.11
473.28	345.33
473.65	344.50
474.02	343.70
474.38	343.03
474.75	342.63
475.11	342.07
475.48	341.81
475.85	341.53
476.21	341.36
476.58	341.24
476.94	341.36
477.31	341.40
477.67	341.48
478.04	341.66
478.41	341.94
478.77	342.35
479.14	342.60
479.50	343.10
479.87	343.76
480.23	344.41
480.60	345.06
480.96	345.71
481.33	346.70
481.69	347.67
482.06	348.65
482.42	349.53
482.79	350.64
483.15	351.93
483.52	353.39
483.88	354.80
484.25	356.31
484.61	357.88
484.98	359.57
485.34	361.49
485.71	363.48
486.07	365.62
486.44	367.76
486.80	370.14
487.17	372.62
487.53	375.33
487.90	378.17
488.26	381.25
488.62	384.52
488.99	387.78
489.35	391.21
489.72	394.94
490.08	398.85
490.44	402.90
490.81	407.11
491.17	411.42
491.54	416.06
491.90	420.84
492.26	425.96
492.63	431.31
492.99	436.90
493.36	442.69
493.72	448.78
494.08	455.01
494.45	461.64
494.81	468.52
495.17	475.58
495.54	483.04
495.90	490.81
496.26	498.75
496.63	506.94
496.99	515.45
497.35	524.35
497.72	533.56
498.08	542.95
498.44	552.67
498.80	562.97
499.17	573.53
499.53	584.43
499.89	595.69
500.26	607.19
500.62	618.97
500.98	631.40
501.34	644.01
501.71	657.14
502.07	670.45
502.43	684.30
502.79	698.39
503.16	712.94
503.52	727.68
503.88	742.85
504.24	758.49
504.60	774.32
504.97	790.66
505.33	807.42
505.69	825.11
506.05	843.12
506.41	861.07
506.78	879.21
507.14	897.85
507.50	916.95
507.86	936.40
508.22	956.07
508.59	975.58
508.95	995.88
509.31	1016.92
509.67	1038.68
510.03	1060.46
510.39	1082.28
510.75	1104.27
511.12	1126.56
511.48	1149.04
511.84	1171.55
512.20	1194.46
512.56	1218.22
512.92	1242.01
513.28	1265.43
513.64	1289.09
514.00	1313.22
514.37	1337.67
514.73	1362.09
515.09	1386.38
515.45	1411.00
515.81	1435.82
516.17	1460.76
516.53	1485.25
516.89	1509.62
517.25	1534.15
517.61	1558.53
517.97	1583.37
518.33	1607.77
518.69	1632.08
519.05	1656.84
519.41	1681.89
519.77	1707.23
520.13	1731.79
520.49	1756.25
520.85	1781.01
521.21	1805.44
521.57	1830.18
521.93	1854.41
522.29	1879.17
522.65	1903.40
523.01	1927.60
523.37	1951.38
523.73	1975.87
524.09	2000.07
524.45	2024.05
524.81	2047.69
525.17	2071.20
525.53	2094.17
525.89	2117.53
526.25	2140.87
526.61	2163.24
526.97	2185.74
527.33	2208.08
527.68	2230.23
528.04	2251.59
528.40	2272.05
528.76	2292.62
529.12	2312.79
529.48	2332.70
529.84	2350.69
530.20	2369.33
530.56	2387.36
530.91	2405.54
531.27	2423.38
531.63	2440.34
531.99	2456.84
532.35	2472.63
532.71	2488.61
533.07	2505.24
533.42	2520.04
533.78	2535.83
534.14	2551.80
534.50	2566.89
534.86	2581.70
535.21	2594.57
535.57	2607.95
535.93	2621.12
536.29	2633.20
536.65	2645.01
537.00	2656.05
537.36	2668.14
537.72	2678.83
538.08	2688.99
538.44	2698.45
538.79	2707.54
539.15	2715.85
539.51	2723.84
539.87	2731.20
540.22	2736.43
540.58	2741.73
540.94	2748.23
541.29	2753.22
541.65	2756.46
542.01	2758.82
542.37	2760.60
542.72	2763.73
543.08	2765.14
543.44	2767.15
543.79	2768.09
544.15	2768.23
544.51	2768.76
544.87	2768.15
545.22	2766.84
545.58	2764.84
545.94	2762.80
546.29	2759.46
546.65	2756.12
547.01	2752.64
547.36	2749.86
547.72	2747.39
548.07	2743.12
548.43	2737.43
548.79	2730.65
549.14	2725.16
549.50	2720.06
549.86	2713.97
550.21	2706.69
550.57	2700.42
550.92	2691.85
551.28	2683.82
551.64	2676.16
551.99	2668.06
552.35	2659.34
552.70	2650.84
553.06	2642.68
553.41	2633.90
553.77	2624.91
554.13	2615.88
554.48	2606.05
554.84	2594.94
555.19	2584.21
555.55	2573.55
555.90	2562.97
556.26	2553.01
556.61	2541.95
556.97	2529.25
557.32	2517.04
557.68	2504.82
558.03	2492.29
558.39	2480.99
558.74	2469.99
559.10	2457.20
559.45	2444.64
559.81	2432.68
560.16	2420.11
560.52	2407.80
560.87	2395.90
561.23	2383.14
561.58	2370.40
561.94	2357.35
562.29	2343.79
562.64	2330.93
563.00	2317.80
563.35	2305.02
563.71	2292.08
564.06	2279.03
564.42	2266.73
564.77	2253.87
565.12	2240.87
565.48	2227.86
565.83	2214.77
566.19	2201.84
566.54	2188.92
566.89	2174.85
567.25	2160.89
567.60	2148.31
567.96	2134.81
568.31	2119.96
568.66	2105.80
569.02	2092.89
569.37	2079.90
569.72	2067.39
570.08	2053.66
570.43	2039.56
570.78	2025.37
571.14	2010.42
571.49	1996.09
571.84	1982.29
572.20	1967.32
572.55	1952.55
572.90	1937.75
573.26	1922.96
573.61	1907.67
573.96	1892.84
574.31	1878.20
574.67	1863.70
575.02	1848.10
575.37	1832.62
575.72	1817.93
576.08	1803.59
576.43	1788.10
576.78	1773.03
577.13	1758.25
577.49	1743.81
577.84	1729.97
578.19	1715.19
578.54	1700.59
578.90	1685.50
579.25	1670.31
579.60	1656.69
579.95	1642.99
580.30	1629.09
580.66	1614.93
581.01	1600.68
581.36	1586.38
581.71	1573.09
582.06	1559.73
582.42	1546.59
582.77	1533.51
583.12	1520.40
583.47	1507.16
583.82	1494.05
584.17	1480.58
584.53	1466.79
584.88	1453.37
585.23	1439.53
585.58	1426.47
585.93	1413.62
586.28	1401.54
586.63	1389.41
586.98	1376.85
587.34	1364.35
587.69	1351.53
588.04	1339.06
588.39	1326.96
588.74	1315.02
589.09	1302.87
589.44	1290.27
589.79	1278.29
590.14	1266.44
590.49	1254.52
590.84	1242.78
591.19	1231.39
591.54	1219.83
591.89	1208.40
592.25	1197.16
592.60	1185.54
592.95	1174.36
593.30	1163.40
593.65	1152.13
594.00	1141.03
594.35	1130.46
594.70	1119.44
595.05	1109.32
595.40	1099.09
595.75	1088.72
596.10	1078.88
596.45	1068.76
596.80	1058.99
597.15	1048.94
597.50	1039.06
597.85	1029.62
598.19	1019.99
598.54	1010.39
598.89	1001.26
599.24	992.45
599.59	983.42
599.94	975.33
600.29	967.04
600.64	958.46
600.99	949.51
601.34	940.89
601.69	931.97
602.04	923.73
602.39	915.31
602.74	906.96
603.08	898.55
603.43	890.11
603.78	881.86
604.13	873.75
604.48	865.68
604.83	857.75
605.18	849.73
605.53	841.87
605.87	833.84
606.22	826.11
606.57	818.32
606.92	810.49
607.27	802.56
607.62	794.92
607.96	787.71
608.31	780.95
608.66	773.98
609.01	767.27
609.36	760.66
609.70	753.86
610.05	747.02
610.40	740.48
610.75	733.90
611.10	727.67
611.44	721.26
611.79	714.97
612.14	708.61
612.49	702.32
612.83	696.33
613.18	690.49
613.53	684.54
613.88	678.61
614.22	673.07
614.57	667.49
614.92	661.78
615.27	656.16
615.61	650.58
615.96	645.06
616.31	639.56
616.65	634.11
617.00	628.87
617.35	623.73
617.70	618.63
618.04	613.61
618.39	608.50
618.74	603.64
619.08	598.82
619.43	594.13
619.78	589.44
620.12	584.73
620.47	580.16
620.82	575.73
621.16	571.32
621.51	566.80
621.85	562.31
622.20	557.99
622.55	553.69
622.89	549.49
623.24	545.30
623.59	541.13
623.93	537.13
624.28	533.22
624.62	529.39
624.97	525.61
625.32	521.78
625.66	517.93
626.01	514.04
626.35	510.23
626.70	506.45
627.04	502.88
627.39	499.22
627.73	495.73
628.08	492.32
628.43	488.91
628.77	485.57
629.12	482.36
629.46	479.18
629.81	475.90
630.15	472.61
630.50	469.43
630.84	466.30
631.19	463.24
631.53	460.28
631.88	457.28
632.22	454.31
632.57	451.62
632.91	448.97
633.26	446.40
633.60	443.84
633.95	441.34
634.29	438.75
634.64	436.24
634.98	433.56
635.32	431.00
635.67	428.64
636.01	426.22
636.36	423.84
636.70	421.58
637.05	419.33
637.39	417.13
637.73	414.95
638.08	412.89
638.42	410.79
638.77	408.55
639.11	406.27
639.45	404.07
639.80	401.81
640.14	399.65
640.49	397.49
640.83	395.30
641.17	393.21
641.52	391.16
641.86	389.14
642.20	387.32
642.55	385.35
642.89	383.40
643.23	381.55
643.58	379.85
643.92	378.04
644.26	376.28
644.61	374.58
644.95	372.84
645.29	371.03
645.64	369.24
645.98	367.54
646.32	365.96
646.66	364.37
647.01	362.80
647.35	361.27
647.69	359.73
648.04	358.32
648.38	356.83
648.72	355.36
649.06	353.90
649.41	352.44
649.75	351.04
650.09	349.67
650.43	348.29
650.78	346.86
651.12	345.47
651.46	344.14
651.80	342.84
652.14	341.56
652.49	340.33
652.83	339.07
653.17	337.86
653.51	336.68
653.85	335.56
654.20	334.40
654.54	333.17
654.88	332.02
655.22	330.90
655.56	329.77
655.90	328.70
656.25	327.66
656.59	326.61
656.93	325.62
657.27	324.65
657.61	323.61
657.95	322.62
658.29	321.63
658.64	320.69
658.98	319.73
659.32	318.81
659.66	317.94
660.00	317.09
660.34	316.23
660.68	315.35
661.02	314.45
661.36	313.57
661.70	312.74
662.05	311.93
662.39	311.13
662.73	310.40
663.07	309.68
663.41	308.91
663.75	308.14
664.09	307.38
664.43	306.58
664.77	305.86
665.11	305.11
665.45	304.42
665.79	303.73
666.13	303.02
666.47	302.29
666.81	301.54
667.15	300.77
667.49	300.11
667.83	299.50
668.17	298.86
668.51	298.27
668.85	297.70
669.19	297.17
669.53	296.54
669.87	295.90
670.21	295.28
670.55	294.70
670.89	294.20
671.23	293.65
671.57	293.12
671.91	292.63
672.25	292.17
672.58	291.70
672.92	291.15
673.26	290.68
673.60	290.22
673.94	289.77
674.28	289.36
674.62	288.90
674.96	288.39
675.30	287.95
675.64	287.48
675.97	286.98
676.31	286.46
676.65	286.00
676.99	285.61
677.33	285.13
677.67	284.70
678.01	284.19
678.34	283.76
678.68	283.36
679.02	282.89
679.36	282.44
679.70	281.99
680.04	281.58
680.37	281.17
680.71	280.78
681.05	280.39
681.39	279.97
681.73	279.52
682.06	279.10
682.40	278.69
682.74	278.34
683.08	278.03
683.42	277.66
683.75	277.33
684.09	276.90
684.43	276.55
684.77	276.18
685.10	275.86
685.44	275.51
685.78	275.16
686.12	274.84
686.45	274.48
686.79	274.11
687.13	273.78
687.46	273.41
687.80	273.07
688.14	272.67
688.48	272.35
688.81	272.02
689.15	271.72
689.49	271.37
689.82	271.01
690.16	270.59
690.50	270.26
690.83	269.91
691.17	269.57
691.51	269.24
691.84	268.92
692.18	268.56
692.52	268.20
692.85	267.86
693.19	267.57
693.52	267.23
693.86	266.91
694.20	266.59
694.53	266.28
694.87	265.94
695.21	265.62
695.54	265.30
695.88	264.97
696.21	264.61
696.55	264.30
696.88	263.99
697.22	263.68
697.56	263.37
697.89	263.02
698.23	262.71
698.56	262.38
698.90	262.08
699.23	261.75
699.57	261.44
699.90	261.12
700.24	260.78
700.58	260.51
700.91	260.25
701.25	260.07
701.58	259.83
701.92	259.58
702.25	259.31
702.59	259.01
702.92	258.74
703.26	258.46
703.59	258.16
703.93	257.98
704.26	257.71
704.60	257.43
704.93	257.15
705.26	256.86
705.60	256.63
705.93	256.33
706.27	256.09
706.60	255.86
706.94	255.64
707.27	255.35
707.61	255.07
707.94	254.78
708.27	254.38
708.61	254.06
708.94	253.76
709.28	253.50
709.61	253.24
709.94	253.00
710.28	252.77
710.61	252.55
710.95	252.20
711.28	252.04
711.61	251.80
711.95	251.60
712.28	251.35
712.61	251.09
712.95	250.94
713.28	250.77
713.61	250.51
713.95	250.24
714.28	250.03
714.61	249.79
714.95	249.57
715.28	249.35
715.61	249.15
715.95	248.95
716.28	248.74
716.61	248.57
716.95	248.34
717.28	248.13
717.61	247.91
717.94	247.70
718.28	247.41
718.61	247.19
718.94	246.96
719.27	246.77
719.61	246.59
719.94	246.36
720.27	246.08
720.60	245.89
720.94	245.70
721.27	245.52
721.60	245.35
721.93	245.16
722.27	245.02
722.60	244.85
722.93	244.65
723.26	244.46
723.59	244.25
723.93	244.08
724.26	243.91
724.59	243.72
724.92	243.56
725.25	243.44
725.59	243.28
725.92	243.14
726.25	242.98
726.58	242.81
726.91	242.63
727.24	242.49
727.57	242.33
727.91	242.16
728.24	242.03
728.57	241.86
728.90	241.72
729.23	241.53
729.56	241.42
729.89	241.27
730.22	241.11
730.55	240.96
730.89	240.82
731.22	240.66
731.55	240.52
731.88	240.37
732.21	240.20
732.54	240.05
732.87	239.91
733.20	239.78
733.53	239.65
733.86	239.51
734.19	239.36
734.52	239.25
734.85	239.21
735.18	239.04
735.51	238.94
735.84	238.82
736.17	238.73
736.50	238.54
736.83	238.57
737.16	238.45
737.49	238.34
737.82	238.21
738.15	238.11
738.48	238.00
738.81	237.87
739.14	237.75
739.47	237.62
739.80	237.50
740.13	237.39
740.46	237.25
740.79	237.12
741.12	237.01
741.45	236.87
741.78	236.68
742.11	236.61
742.44	236.46
742.77	236.37
743.10	236.24
743.43	236.13
743.75	235.89
744.08	235.97
744.41	235.86
744.74	235.75
745.07	235.62
745.40	235.54
745.73	235.49
746.06	235.40
746.39	235.32
746.71	235.22
747.04	235.11
747.37	235.02
747.70	234.96
748.03	234.87
748.36	234.80
748.68	234.71
749.01	234.58
749.34	234.50
749.67	234.41
750.00	234.35
750.33	234.35
750.65	234.28
750.98	234.00
751.31	233.92
751.64	233.85
751.97	233.84
752.29	233.74
752.62	233.59
752.95	233.50
753.28	233.40
753.60	233.31
753.93	233.26
754.26	233.19
754.59	233.06
754.91	232.97
755.24	232.87
755.57	232.85
755.90	232.77
756.22	232.67
756.55	232.57
756.88	232.47
757.20	232.31
757.53	232.19
757.86	232.11
758.19	232.05
758.51	231.97
758.84	231.83
759.17	231.75
759.49	231.68
759.82	231.68
760.15	231.62
760.47	231.56
760.80	231.46
761.13	231.41
761.45	231.36
761.78	231.29
762.11	231.24
762.43	231.11
762.76	231.05
763.08	231.01
763.41	230.96
763.74	230.90
764.06	230.84
764.39	230.80
764.71	230.74
765.04	230.68
765.37	230.61
765.69	230.56
766.02	230.51
766.34	230.45
766.67	230.34
767.00	230.31
767.32	230.33
767.65	230.36
767.97	230.29
768.30	230.25
768.62	230.21
768.95	230.14
769.27	230.09
769.60	230.06
769.92	229.99
770.25	229.93
770.57	229.86
770.90	229.82
771.22	229.76
771.55	229.72
771.87	229.68
772.20	229.64
772.52	229.71
772.85	229.82
773.17	229.79
773.50	229.74
773.82	229.68
774.15	229.58
774.47	229.46
774.80	229.41
775.12	229.36
775.45	229.33
775.77	229.30
776.09	229.27
776.42	229.24
776.74	229.25
777.07	229.21
777.39	229.19
777.72	229.14
778.04	229.13
778.36	229.09
778.69	229.06
779.01	229.04
779.33	228.89
779.66	228.72
779.98	228.68
780.31	228.66
780.63	228.68
780.95	228.67
781.28	228.65
781.60	228.61
781.92	228.58
782.25	228.56
782.57	228.53
782.89	228.49
783.22	228.46
783.54	228.40
783.86	228.38
784.19	228.35
784.51	228.37
784.83	228.33
785.16	228.30
785.48	228.27
785.80	228.25
786.12	228.24
786.45	228.21
786.77	228.20
787.09	228.17
787.42	228.10
787.74	228.08
788.06	228.06
788.38	228.04
788.71	228.01
789.03	228.00
789.35	228.00
789.67	227.96
789.99	227.95
790.32	227.92
790.64	227.92
790.96	228.01
791.28	227.95
791.61	227.93
791.93	227.92
792.25	227.89
792.57	227.96
792.89	227.92
793.21	227.91
793.54	227.88
793.86	227.85
794.18	227.84
794.50	227.80
794.82	227.78
795.14	227.78
795.47	227.78
795.79	227.76
796.11	227.72
796.43	227.69
796.75	227.68
797.07	227.67
797.39	227.64
797.71	227.52
798.04	227.51
798.36	227.51
798.68	227.48
799.00	227.48
799.32	227.40
799.64	227.41
799.96	227.39
800.28	227.40
800.60	227.38
800.92	227.37
801.24	227.35
801.56	227.35
801.89	227.32
802.21	227.31
802.53	227.27
802.85	227.29
803.17	227.34
803.49	227.30
803.81	227.27
804.13	227.25
804.45	227.23
804.77	227.22
805.09	227.20
805.41	227.18
805.73	227.15
806.05	227.10
806.37	227.08
806.69	227.05
807.01	227.02
807.33	227.02
807.65	226.96
807.97	227.01
808.28	226.98
808.60	226.97
808.92	226.94
809.24	227.01
809.56	226.98
809.88	226.92
810.20	226.92
810.52	226.93
810.84	226.91
811.16	226.88
811.48	226.86
811.80	226.89
812.12	226.88
812.43	226.89
812.75	226.89
813.07	226.87
813.39	226.86
813.71	226.84
814.03	226.82
814.35	226.81
814.67	226.75
814.98	226.73
815.30	226.72
815.62	226.69
815.94	226.59
816.26	226.60
816.58	226.56
816.89	226.56
817.21	226.52
817.53	226.52
817.85	226.52
818.17	226.50
818.48	226.45
818.80	226.46
819.12	226.43
819.44	226.40
819.76	226.38
820.07	226.37
820.39	226.36
820.71	226.36
821.03	226.36
821.34	226.34
821.66	226.35
821.98	226.36
822.30	226.35
822.61	226.42
822.93	226.39
823.25	226.38
823.57	226.36
823.88	226.37
824.20	226.36
824.52	226.37
824.83	226.36
825.15	226.34
825.47	226.32
825.79	226.33
826.10	226.31
826.42	226.31
826.74	226.31
827.05	226.30
827.37	226.30
827.69	226.28
828.00	226.28
828.32	226.28
828.64	226.25
828.95	226.31
829.27	226.27
829.58	226.27
829.90	226.29
830.22	226.29
830.53	226.26
830.85	226.25
831.17	226.21
831.48	226.21
831.80	226.21
832.11	226.20
832.43	226.18
832.75	226.18
833.06	226.25
833.38	226.21
833.69	226.20
834.01	226.20
834.32	226.19
834.64	226.17
834.96	226.17
835.27	226.16
835.59	226.11
835.90	226.09
836.22	226.08
836.53	226.05
836.85	226.03
837.16	226.16
837.48	226.16
837.79	226.20
838.11	226.20
838.42	226.19
838.74	226.21
839.05	226.20
839.37	226.19
839.68	226.10
840.00	226.10
840.31	226.12
840.63	226.10
840.94	226.09
841.26	226.07
841.57	226.07
841.88	226.07
842.20	226.05
842.51	226.03
842.83	226.03
843.14	226.14
843.46	226.14
843.77	226.06
844.08	226.05
844.40	226.01
844.71	225.99
845.03	225.98
845.34	225.96
845.65	225.96
845.97	225.95
846.28	225.96
846.60	225.96
846.91	225.94
847.22	225.93
847.54	225.95
847.85	225.96
848.16	225.94
848.48	225.92
848.79	225.97
849.10	225.98
849.42	225.99
849.73	225.86
850.04	225.86
850.36	225.81
850.67	225.83
850.98	225.84
851.30	225.84
851.61	225.84
851.92	225.83
852.23	225.87
852.55	225.88
852.86	225.88
853.17	225.89
853.49	225.91
853.80	225.94
854.11	225.94
854.42	225.96
854.74	225.95
855.05	225.95
855.36	225.88
855.67	225.88
855.99	225.88
856.30	226.03
856.61	226.03
856.92	226.03
857.23	226.04
857.55	226.02
857.86	226.01
858.17	226.03
858.48	226.00
858.79	225.97
859.11	225.98
859.42	225.97
859.73	225.96
860.04	225.94
860.35	225.90
860.66	225.86
860.98	225.85
861.29	225.87
861.60	225.86
861.91	225.89
862.22	225.86
862.53	225.84
862.84	225.69
863.16	225.71
863.47	225.69
863.78	225.67
864.09	225.68
864.40	225.68
864.71	225.68
865.02	225.70
865.33	225.69
865.64	225.66
865.95	225.66
866.27	225.74
866.58	225.73
866.89	225.74
867.20	225.74
867.51	225.72
867.82	225.71
868.13	225.75
868.44	225.72
868.75	225.74
869.06	225.75
869.37	225.76
869.68	225.73
869.99	225.75
870.30	225.76
870.61	225.77
870.92	225.75
871.23	225.73
871.54	225.74
871.85	225.77
872.16	225.79
872.47	225.78
872.78	225.71
873.09	225.72
873.40	225.71
873.71	225.71
874.02	225.72
874.33	225.71
874.64	225.68
874.95	225.70
875.26	225.68
875.56	225.67
875.87	225.67
876.18	225.66
876.49	225.79
876.80	225.77
877.11	225.75
877.42	225.75
877.73	225.76
878.04	225.74
878.35	225.73
878.66	225.73
878.96	225.73
879.27	225.73
879.58	225.72
879.89	225.71
880.20	225.75
880.51	225.74
880.82	225.74
881.12	225.74
881.43	225.72
881.74	225.70
882.05	225.70
882.36	225.70
882.67	225.71
882.97	225.57
883.28	225.56
883.59	225.56
883.90	225.57
884.21	225.59
884.51	225.58
884.82	225.56
885.13	225.55
885.44	225.55
885.74	225.55
886.05	225.54
886.36	225.55
886.67	225.50
886.98	225.56
887.28	225.57
887.59	225.57
887.90	225.58
888.20	225.58
888.51	225.60
888.82	225.58
889.13	225.59
889.43	225.70
889.74	225.69
890.05	225.69
890.35	225.68
890.66	225.65
890.97	225.64
891.28	225.63
891.58	225.63
891.89	225.63
892.20	225.62
892.50	225.61
892.81	225.60
893.12	225.60
893.42	225.53
893.73	225.53
894.04	225.53
894.34	225.53
894.65	225.53
894.95	225.52
895.26	225.52
895.57	225.57
895.87	225.44
896.18	225.47
896.48	225.47
896.79	225.47
897.10	225.49
897.40	225.50
897.71	225.51
898.01	225.49
898.32	225.51
898.63	225.50
898.93	225.51
899.24	225.52
899.54	225.51
899.85	225.51
900.15	225.50
900.46	225.50
900.76	225.51
901.07	225.51
901.38	225.50
901.68	225.51
901.99	225.45
902.29	225.46
902.60	225.45
902.90	225.44
903.21	225.43
903.51	225.42
903.82	225.45
904.12	225.45
904.43	225.46
904.73	225.45
905.03	225.46
905.34	225.58
905.64	225.57
905.95	225.57
906.25	225.57
906.56	225.57
906.86	225.57
907.17	225.55
907.47	225.56
907.77	225.55
908.08	225.52
908.38	225.52
908.69	225.53
908.99	225.55
909.30	225.56
909.60	225.56
909.90	225.56
910.21	225.53
910.51	225.51
910.81	225.50
911.12	225.51
911.42	225.51
911.73	225.38
912.03	225.39
912.33	225.41
912.64	225.40
912.94	225.39
913.24	225.37
913.55	225.37
913.85	225.36
914.15	225.38
914.46	225.40
914.76	225.39
915.06	225.38
915.37	225.35
915.67	225.34
915.97	225.35
916.27	225.32
916.58	225.33
916.88	225.33
917.18	225.32
917.49	225.40
917.79	225.40
918.09	225.42
918.39	225.44
918.70	225.43
919.00	225.44
919.30	225.50
919.60	225.50
919.91	225.48
920.21	225.49
920.51	225.47
920.81	225.46
921.12	225.48
921.42	225.48
921.72	225.49
922.02	225.50
922.32	225.52
922.63	225.52
922.93	225.59
923.23	225.60
923.53	225.59
923.83	225.50
924.13	225.51
924.44	225.51
924.74	225.53
925.04	225.56
925.34	225.56
925.64	225.50
925.94	225.50
926.24	225.58
926.55	225.56
926.85	225.57
927.15	225.57
927.45	225.57
927.75	225.57
928.05	225.57
928.35	225.56
928.65	225.57
928.95	225.58
929.26	225.52
929.56	225.54
929.86	225.56
930.16	225.55
930.46	225.54
930.76	225.54
931.06	225.48
931.36	225.45
931.66	225.47
931.96	225.49
932.26	225.50
932.56	225.44
932.86	225.45
933.16	225.45
933.46	225.44
933.76	225.42
934.06	225.44
934.36	225.49
934.66	225.48
934.96	225.46
935.26	225.46
935.56	225.48
935.86	225.45
936.16	225.43
936.46	225.42
936.76	225.41
937.06	225.39
937.36	225.40
937.66	225.41
937.96	225.39
938.26	225.37
938.56	225.36
938.86	225.36
939.16	225.39
939.46	225.40
939.76	225.41
940.06	225.40
940.35	225.38
940.65	225.31
940.95	225.33
941.25	225.30
941.55	225.29
941.85	225.27
942.15	225.30
942.45	225.33
942.75	225.34
943.04	225.34
943.34	225.36
943.64	225.35
943.94	225.33
944.24	225.33
944.54	225.35
944.84	225.34
945.13	225.32
945.43	225.30
945.73	225.29
946.03	225.28
946.33	225.27
946.62	225.26
946.92	225.26
947.22	225.26
947.52	225.27
947.82	225.29
948.11	225.28
948.41	225.25
948.71	225.21
949.01	225.22
949.31	225.21
949.60	225.20
949.90	225.22
950.20	225.22
950.50	225.21
950.79	225.20
951.09	225.22
951.39	225.22
951.69	225.21
951.98	225.23
952.28	225.24
952.58	225.24
952.87	225.24
953.17	225.26
953.47	225.24
953.76	225.24
954.06	225.21
954.36	225.20
954.66	225.20
954.95	225.24
955.25	225.24
955.55	225.26
955.84	225.24
956.14	225.25
956.44	225.25
956.73	225.24
957.03	225.25
957.32	225.24
957.62	225.24
957.92	225.27
958.21	225.25
958.51	225.39
958.81	225.42
959.10	225.43
959.40	225.45
959.69	225.46
959.99	225.48
960.29	225.49
960.58	225.49
960.88	225.53
961.17	225.52
961.47	225.53
961.76	225.51
962.06	225.54
962.36	225.52
962.65	225.53
962.95	225.53
963.24	225.52
963.54	225.52
963.83	225.54
964.13	225.52
964.42	225.51
964.72	225.41
965.01	225.40
965.31	225.39
965.60	225.36
965.90	225.44
966.19	225.41
966.49	225.42
966.78	225.41
967.08	225.40
967.37	225.40
967.67	225.37
967.96	225.39
968.26	225.39
968.55	225.40
968.85	225.40
969.14	225.40
969.43	225.40
969.73	225.38
970.02	225.37
970.32	225.37
970.61	225.35
970.91	225.31
971.20	225.29
971.49	225.29
971.79	225.30
972.08	225.21
972.38	225.22
972.67	225.21
972.96	225.23
973.26	225.21
973.55	225.25
973.85	225.25
974.14	225.23
974.43	225.24
974.73	225.21
975.02	225.20
975.31	225.20
975.61	225.20
975.90	225.19
976.19	225.18
976.49	225.19
976.78	225.20
977.07	225.19
977.37	225.20
977.66	225.22
977.95	225.20
978.24	225.21
978.54	225.24
978.83	225.23
979.12	225.21
979.42	225.22
979.71	225.19
980.00	225.18
980.29	225.19
980.59	225.17
980.88	225.20
981.17	225.20
981.46	225.20
981.76	225.21
982.05	225.25
982.34	225.25
982.63	225.25
982.93	225.25
983.22	225.28
983.51	225.29
983.80	225.30
984.09	225.32
984.39	225.30
984.68	225.29
984.97	225.29
985.26	225.29
985.55	225.30
985.85	225.27
986.14	225.29
986.43	225.30
986.72	225.30
987.01	225.25
987.30	225.25
987.59	225.24
987.89	225.24
988.18	225.21
988.47	225.20
988.76	225.19
989.05	225.17
989.34	225.15
989.63	225.18
989.92	225.16
990.22	225.15
990.51	225.14
990.80	225.14
991.09	225.14
991.38	225.16
991.67	225.15
991.96	225.14
992.25	225.14
992.54	225.12
992.83	225.12
993.12	225.12
993.41	225.14
993.70	225.19
993.99	225.21
994.28	225.23
994.58	225.25
994.87	225.24
995.16	225.24
995.45	225.23
995.74	225.19
996.03	225.21
996.32	225.23
996.61	225.26
996.90	225.26
997.19	225.25
997.48	225.25
997.77	225.24
998.06	225.25
998.34	225.23
998.63	225.24
998.92	225.24
999.21	225.27
999.50	225.27
999.79	225.22
1000.08	225.22
1000.37	225.22
1000.66	225.20
1000.95	225.24
1001.24	225.25
1001.53	225.26
1001.82	225.26
1002.11	225.23
1002.40	225.24
1002.68	225.27
1002.97	225.35
1003.26	225.34
1003.55	225.32
1003.84	225.33
1004.13	225.37
1004.42	225.36
1004.71	225.36
1004.99	225.36
1005.28	225.38
1005.57	225.37
1005.86	225.36
1006.15	225.35
1006.44	225.33
1006.72	225.34
1007.01	225.32
1007.30	225.32
1007.59	225.30
1007.88	225.30
1008.17	225.31
1008.45	225.28
1008.74	225.23
1009.03	225.17
1009.32	225.17
1009.60	225.17
1009.89	225.16
1010.18	225.10
1010.47	225.10
1010.76	225.10
1011.04	225.10
1011.33	225.08
1011.62	225.09
1011.91	225.10
1012.19	225.11
1012.48	225.11
1012.77	225.11
1013.05	225.15
1013.34	225.15
1013.63	225.14
1013.92	225.15
1014.20	225.14
1014.49	225.15
1014.78	225.17
1015.06	225.13
1015.35	225.13
1015.64	225.15
1015.92	225.17
1016.21	225.18
1016.50	225.18
1016.78	225.20
1017.07	225.21
1017.36	225.19
1017.64	225.17
1017.93	225.18
1018.22	225.17
1018.50	225.16
1018.79	225.16
1019.08	225.11
1019.36	225.12
1019.65	225.11
1019.93	225.14
1020.22	225.16
1020.51	225.22
1020.79	225.21
1021.08	224.99
1021.36	224.95
1021.65	225.17
1021.94	225.06
1022.22	225.22
1022.51	224.87
1022.79	225.77
1023.08	225.29
1023.36	226.64
1023.65	224.87
>>>>>End Processed Spectral Data<<<<<
