SpectraSuite Data File
++++++++++++++++++++++++++++++++++++
Date: Fri Oct 02 17:32:47 EDT 2015
User: lab3
Dark Spectrum Present: No
Reference Spectrum Present: No
Number of Sampled Component Spectra: 1
Spectrometers: USB2E7196
Integration Time (usec): 46000 (USB2E7196)
Spectra Averaged: 1500 (USB2E7196)
Boxcar Smoothing: 10 (USB2E7196)
Correct for Electrical Dark: No (USB2E7196)
Strobe/Lamp Enabled: No (USB2E7196)
Correct for Detector Non-linearity: No (USB2E7196)
Correct for Stray Light: No (USB2E7196)
Number of Pixels in Processed Spectrum: 2048
>>>>>Begin Processed Spectral Data<<<<<
339.09	0.00
339.48	215.26
339.86	216.67
340.24	218.08
340.63	219.52
341.01	222.60
341.39	222.13
341.78	223.36
342.16	224.66
342.54	225.14
342.93	213.56
343.31	224.34
343.69	224.88
344.07	225.33
344.46	225.76
344.84	226.15
345.22	226.38
345.60	226.64
345.99	226.84
346.37	226.98
346.75	227.08
347.13	227.16
347.52	227.24
347.90	227.33
348.28	227.36
348.66	227.41
349.05	227.40
349.43	227.45
349.81	227.50
350.19	227.55
350.57	227.61
350.96	227.69
351.34	227.79
351.72	227.88
352.10	227.98
352.48	228.05
352.87	228.10
353.25	228.16
353.63	228.22
354.01	228.28
354.39	228.35
354.77	228.42
355.15	228.53
355.54	228.57
355.92	228.61
356.30	228.68
356.68	228.83
357.06	228.91
357.44	228.96
357.82	229.01
358.20	229.12
358.58	229.18
358.97	229.25
359.35	229.33
359.73	229.42
360.11	229.47
360.49	229.53
360.87	229.57
361.25	229.63
361.63	229.72
362.01	229.78
362.39	229.81
362.77	229.86
363.15	229.88
363.53	229.92
363.91	229.94
364.29	229.97
364.67	229.87
365.05	229.90
365.43	229.93
365.81	229.97
366.19	229.99
366.57	230.05
366.95	230.04
367.33	230.01
367.71	230.00
368.09	230.03
368.47	230.02
368.85	230.01
369.23	230.03
369.61	229.97
369.99	229.99
370.37	229.99
370.75	230.06
371.13	230.02
371.51	229.98
371.89	229.97
372.27	229.95
372.65	229.93
373.03	229.89
373.41	229.85
373.78	229.80
374.16	229.70
374.54	229.62
374.92	229.57
375.30	229.53
375.68	229.46
376.06	229.41
376.44	229.36
376.82	229.32
377.19	229.27
377.57	229.22
377.95	229.12
378.33	229.06
378.71	228.91
379.09	228.88
379.47	228.85
379.84	228.77
380.22	228.71
380.60	228.64
380.98	228.59
381.36	228.54
381.73	228.48
382.11	228.46
382.49	228.42
382.87	228.37
383.25	228.32
383.62	228.42
384.00	228.36
384.38	228.32
384.76	228.30
385.13	228.29
385.51	228.25
385.89	228.20
386.27	228.17
386.64	228.15
387.02	228.09
387.40	228.04
387.78	228.02
388.15	228.00
388.53	227.97
388.91	227.93
389.29	227.90
389.66	227.89
390.04	227.85
390.42	227.84
390.79	227.82
391.17	227.81
391.55	227.66
391.92	227.66
392.30	227.66
392.68	227.63
393.05	227.61
393.43	227.61
393.81	227.62
394.18	227.59
394.56	227.59
394.94	227.62
395.31	227.62
395.69	227.67
396.06	227.69
396.44	227.72
396.82	227.73
397.19	227.83
397.57	227.84
397.95	227.89
398.32	227.89
398.70	227.94
399.07	228.00
399.45	228.04
399.82	228.06
400.20	228.10
400.58	228.15
400.95	228.17
401.33	228.25
401.70	228.40
402.08	228.50
402.45	228.58
402.83	228.70
403.20	228.81
403.58	228.89
403.95	229.03
404.33	229.18
404.71	229.31
405.08	229.51
405.46	229.66
405.83	229.84
406.21	230.02
406.58	230.23
406.96	230.43
407.33	230.68
407.70	230.95
408.08	231.33
408.45	231.65
408.83	232.01
409.20	232.32
409.58	232.60
409.95	233.00
410.33	233.43
410.70	233.82
411.08	234.29
411.45	234.80
411.82	235.30
412.20	235.89
412.57	236.60
412.95	237.13
413.32	237.85
413.69	238.58
414.07	239.36
414.44	240.20
414.82	241.06
415.19	242.06
415.56	243.09
415.94	244.13
416.31	245.31
416.68	246.50
417.06	247.89
417.43	249.18
417.81	250.66
418.18	252.18
418.55	253.84
418.93	255.56
419.30	257.35
419.67	259.25
420.04	261.20
420.42	263.23
420.79	265.60
421.16	267.99
421.54	270.42
421.91	272.94
422.28	275.56
422.66	278.39
423.03	281.10
423.40	283.92
423.77	286.96
424.15	290.07
424.52	293.32
424.89	296.83
425.26	300.31
425.64	303.55
426.01	307.20
426.38	310.93
426.75	314.77
427.13	318.72
427.50	322.86
427.87	327.16
428.24	331.50
428.61	335.67
428.99	340.18
429.36	345.12
429.73	349.86
430.10	354.61
430.47	359.47
430.85	364.47
431.22	369.86
431.59	375.38
431.96	380.78
432.33	386.78
432.70	392.50
433.08	399.26
433.45	405.65
433.82	411.95
434.19	418.98
434.56	425.90
434.93	432.59
435.30	439.21
435.68	446.70
436.05	454.03
436.42	461.33
436.79	468.00
437.16	475.21
437.53	482.91
437.90	490.61
438.27	498.15
438.64	506.28
439.01	513.64
439.38	520.39
439.75	526.86
440.13	534.15
440.50	541.07
440.87	546.55
441.24	552.55
441.61	559.08
441.98	563.83
442.35	569.46
442.72	575.19
443.09	580.60
443.46	583.97
443.83	586.43
444.20	588.42
444.57	591.47
444.94	593.09
445.31	594.77
445.68	596.17
446.05	597.12
446.42	596.50
446.79	595.70
447.16	594.94
447.53	594.22
447.90	591.63
448.27	589.12
448.64	585.47
449.01	582.84
449.37	577.90
449.74	573.40
450.11	567.69
450.48	561.48
450.85	555.31
451.22	549.98
451.59	544.76
451.96	540.07
452.33	533.34
452.70	527.38
453.07	520.14
453.43	512.95
453.80	505.95
454.17	499.29
454.54	493.14
454.91	486.25
455.28	479.83
455.65	473.74
456.02	467.36
456.38	462.21
456.75	455.62
457.12	450.31
457.49	444.96
457.86	439.92
458.23	435.52
458.59	430.65
458.96	425.67
459.33	421.32
459.70	416.88
460.07	413.52
460.43	409.54
460.80	405.85
461.17	402.66
461.54	399.20
461.91	395.96
462.27	392.68
462.64	390.03
463.01	386.94
463.38	383.85
463.74	381.05
464.11	378.59
464.48	376.38
464.85	373.98
465.21	372.18
465.58	370.16
465.95	367.83
466.32	365.99
466.68	364.18
467.05	362.35
467.42	360.56
467.78	358.63
468.15	356.86
468.52	355.58
468.88	353.83
469.25	352.24
469.62	350.99
469.98	349.61
470.35	348.40
470.72	347.31
471.08	346.19
471.45	345.26
471.82	344.20
472.18	343.08
472.55	342.38
472.92	341.48
473.28	340.77
473.65	340.00
474.02	339.26
474.38	338.66
474.75	338.31
475.11	337.82
475.48	337.58
475.85	337.33
476.21	337.21
476.58	337.13
476.94	337.27
477.31	337.34
477.67	337.42
478.04	337.63
478.41	337.93
478.77	338.35
479.14	338.61
479.50	339.11
479.87	339.76
480.23	340.40
480.60	341.05
480.96	341.69
481.33	342.66
481.69	343.63
482.06	344.59
482.42	345.46
482.79	346.55
483.15	347.81
483.52	349.25
483.88	350.63
484.25	352.11
484.61	353.64
484.98	355.30
485.34	357.19
485.71	359.14
486.07	361.23
486.44	363.32
486.80	365.63
487.17	368.05
487.53	370.70
487.90	373.47
488.26	376.47
488.62	379.64
488.99	382.84
489.35	386.18
489.72	389.82
490.08	393.64
490.44	397.59
490.81	401.69
491.17	405.88
491.54	410.40
491.90	415.07
492.26	420.06
492.63	425.30
492.99	430.75
493.36	436.39
493.72	442.33
494.08	448.42
494.45	454.89
494.81	461.62
495.17	468.51
495.54	475.79
495.90	483.38
496.26	491.15
496.63	499.13
496.99	507.43
497.35	516.13
497.72	525.08
498.08	534.29
498.44	543.81
498.80	553.89
499.17	564.23
499.53	574.88
499.89	585.87
500.26	597.08
500.62	608.61
500.98	620.75
501.34	633.05
501.71	645.88
502.07	658.90
502.43	672.44
502.79	686.22
503.16	700.45
503.52	714.85
503.88	729.69
504.24	744.98
504.60	760.49
504.97	776.44
505.33	792.83
505.69	810.12
506.05	827.70
506.41	845.21
506.78	862.90
507.14	881.12
507.50	899.79
507.86	918.83
508.22	938.08
508.59	957.19
508.95	977.08
509.31	997.69
509.67	1018.94
510.03	1040.21
510.39	1061.57
510.75	1083.13
511.12	1104.97
511.48	1126.91
511.84	1148.96
512.20	1171.39
512.56	1194.70
512.92	1218.02
513.28	1240.95
513.64	1264.17
514.00	1287.79
514.37	1311.72
514.73	1335.64
515.09	1359.46
515.45	1383.59
515.81	1407.86
516.17	1432.30
516.53	1456.27
516.89	1480.10
517.25	1504.14
517.61	1528.10
517.97	1552.46
518.33	1576.34
518.69	1600.17
519.05	1624.58
519.41	1649.16
519.77	1673.94
520.13	1698.01
520.49	1722.01
520.85	1746.39
521.21	1770.27
521.57	1794.57
521.93	1818.36
522.29	1842.64
522.65	1866.42
523.01	1890.14
523.37	1913.50
523.73	1937.51
524.09	1961.29
524.45	1984.87
524.81	2008.07
525.17	2031.13
525.53	2053.58
525.89	2076.45
526.25	2099.31
526.61	2121.13
526.97	2143.16
527.33	2165.13
527.68	2186.82
528.04	2207.71
528.40	2227.62
528.76	2247.92
529.12	2267.66
529.48	2287.03
529.84	2304.71
530.20	2323.02
530.56	2340.74
530.91	2358.64
531.27	2376.17
531.63	2392.84
531.99	2409.15
532.35	2424.78
532.71	2440.45
533.07	2456.79
533.42	2471.40
533.78	2486.95
534.14	2502.73
534.50	2517.48
534.86	2532.01
535.21	2544.70
535.57	2557.85
535.93	2570.80
536.29	2582.60
536.65	2594.27
537.00	2605.33
537.36	2617.22
537.72	2627.62
538.08	2637.54
538.44	2646.83
538.79	2655.76
539.15	2663.91
539.51	2671.54
539.87	2678.61
540.22	2683.83
540.58	2689.14
540.94	2695.61
541.29	2700.49
541.65	2703.60
542.01	2706.08
542.37	2707.93
542.72	2711.05
543.08	2712.54
543.44	2714.59
543.79	2715.57
544.15	2715.72
544.51	2716.29
544.87	2715.74
545.22	2714.46
545.58	2712.60
545.94	2710.69
546.29	2707.46
546.65	2704.25
547.01	2701.06
547.36	2698.48
547.72	2695.96
548.07	2691.78
548.43	2686.11
548.79	2679.58
549.14	2674.34
549.50	2669.28
549.86	2663.31
550.21	2656.21
550.57	2650.01
550.92	2641.61
551.28	2633.76
551.64	2626.24
551.99	2618.24
552.35	2609.61
552.70	2601.31
553.06	2593.21
553.41	2584.56
553.77	2575.70
554.13	2566.73
554.48	2556.92
554.84	2545.93
555.19	2535.47
555.55	2525.02
555.90	2514.63
556.26	2504.79
556.61	2493.81
556.97	2481.24
557.32	2469.18
557.68	2457.07
558.03	2444.81
558.39	2433.65
558.74	2422.76
559.10	2410.20
559.45	2397.91
559.81	2386.24
560.16	2373.86
560.52	2361.76
560.87	2349.96
561.23	2337.31
561.58	2324.86
561.94	2312.05
562.29	2298.73
562.64	2286.12
563.00	2273.16
563.35	2260.66
563.71	2247.88
564.06	2235.00
564.42	2222.87
564.77	2210.18
565.12	2197.35
565.48	2184.47
565.83	2171.57
566.19	2158.80
566.54	2146.01
566.89	2132.04
567.25	2118.24
567.60	2105.78
567.96	2092.46
568.31	2077.83
568.66	2063.98
569.02	2051.18
569.37	2038.30
569.72	2025.96
570.08	2012.34
570.43	1998.40
570.78	1984.21
571.14	1969.43
571.49	1955.36
571.84	1941.83
572.20	1927.02
572.55	1912.55
572.90	1897.94
573.26	1883.32
573.61	1868.21
573.96	1853.51
574.31	1839.13
574.67	1824.78
575.02	1809.44
575.37	1794.15
575.72	1779.72
576.08	1765.59
576.43	1750.31
576.78	1735.53
577.13	1720.97
577.49	1706.73
577.84	1693.08
578.19	1678.55
578.54	1664.20
578.90	1649.34
579.25	1634.38
579.60	1621.04
579.95	1607.48
580.30	1593.77
580.66	1579.84
581.01	1565.85
581.36	1551.83
581.71	1538.84
582.06	1525.67
582.42	1512.78
582.77	1499.91
583.12	1486.98
583.47	1473.93
583.82	1461.00
584.17	1447.74
584.53	1434.15
584.88	1420.94
585.23	1407.32
585.58	1394.55
585.93	1381.97
586.28	1370.14
586.63	1358.31
586.98	1345.97
587.34	1333.69
587.69	1321.16
588.04	1308.97
588.39	1297.12
588.74	1285.45
589.09	1273.47
589.44	1261.15
589.79	1249.46
590.14	1237.89
590.49	1226.26
590.84	1214.76
591.19	1203.68
591.54	1192.41
591.89	1181.25
592.25	1170.28
592.60	1158.99
592.95	1148.09
593.30	1137.37
593.65	1126.37
594.00	1115.45
594.35	1105.11
594.70	1094.37
595.05	1084.48
595.40	1074.49
595.75	1064.39
596.10	1054.80
596.45	1044.92
596.80	1035.38
597.15	1025.58
597.50	1015.95
597.85	1006.71
598.19	997.32
598.54	987.97
598.89	979.05
599.24	970.49
599.59	961.74
599.94	953.92
600.29	945.84
600.64	937.51
600.99	928.78
601.34	920.45
601.69	911.78
602.04	903.79
602.39	895.65
602.74	887.52
603.08	879.37
603.43	871.20
603.78	863.23
604.13	855.42
604.48	847.59
604.83	839.92
605.18	832.19
605.53	824.62
605.87	816.87
606.22	809.43
606.57	801.90
606.92	794.28
607.27	786.58
607.62	779.21
607.96	772.25
608.31	765.73
608.66	758.99
609.01	752.56
609.36	746.22
609.70	739.66
610.05	733.12
610.40	726.81
610.75	720.48
611.10	714.47
611.44	708.31
611.79	702.25
612.14	696.13
612.49	690.08
612.83	684.34
613.18	678.72
613.53	673.00
613.88	667.32
614.22	662.08
614.57	656.73
614.92	651.23
615.27	645.83
615.61	640.51
615.96	635.25
616.31	629.99
616.65	624.78
617.00	619.78
617.35	614.89
617.70	610.04
618.04	605.22
618.39	600.37
618.74	595.76
619.08	591.20
619.43	586.75
619.78	582.31
620.12	577.79
620.47	573.48
620.82	569.26
621.16	565.07
621.51	560.73
621.85	556.47
622.20	552.39
622.55	548.31
622.89	544.30
623.24	540.31
623.59	536.36
623.93	532.58
624.28	528.90
624.62	525.29
624.97	521.73
625.32	518.14
625.66	514.48
626.01	510.79
626.35	507.17
626.70	503.60
627.04	500.18
627.39	496.77
627.73	493.48
628.08	490.29
628.43	487.10
628.77	483.99
629.12	480.99
629.46	478.00
629.81	474.93
630.15	471.87
630.50	468.89
630.84	465.96
631.19	463.08
631.53	460.28
631.88	457.47
632.22	454.68
632.57	452.17
632.91	449.71
633.26	447.33
633.60	444.96
633.95	442.64
634.29	440.27
634.64	437.94
634.98	435.40
635.32	433.01
635.67	430.82
636.01	428.54
636.36	426.32
636.70	424.24
637.05	422.18
637.39	420.13
637.73	418.11
638.08	416.19
638.42	414.24
638.77	412.17
639.11	410.05
639.45	408.01
639.80	405.91
640.14	403.92
640.49	401.90
640.83	399.86
641.17	397.92
641.52	396.01
641.86	394.11
642.20	392.45
642.55	390.61
642.89	388.79
643.23	387.08
643.58	385.50
643.92	383.80
644.26	382.16
644.61	380.58
644.95	378.95
645.29	377.26
645.64	375.60
645.98	374.02
646.32	372.55
646.66	371.07
647.01	369.61
647.35	368.17
647.69	366.73
648.04	365.44
648.38	364.04
648.72	362.68
649.06	361.32
649.41	359.96
649.75	358.67
650.09	357.38
650.43	356.10
650.78	354.78
651.12	353.48
651.46	352.22
651.80	351.00
652.14	349.81
652.49	348.66
652.83	347.48
653.17	346.34
653.51	345.25
653.85	344.21
654.20	343.10
654.54	341.93
654.88	340.86
655.22	339.79
655.56	338.72
655.90	337.70
656.25	336.72
656.59	335.71
656.93	334.77
657.27	333.84
657.61	332.84
657.95	331.89
658.29	330.94
658.64	330.04
658.98	329.12
659.32	328.22
659.66	327.38
660.00	326.56
660.34	325.75
660.68	324.89
661.02	323.98
661.36	323.11
661.70	322.30
662.05	321.48
662.39	320.68
662.73	319.96
663.07	319.24
663.41	318.48
663.75	317.71
664.09	316.95
664.43	316.14
664.77	315.44
665.11	314.67
665.45	313.98
665.79	313.28
666.13	312.55
666.47	311.80
666.81	311.03
667.15	310.24
667.49	309.55
667.83	308.91
668.17	308.26
668.51	307.67
668.85	307.09
669.19	306.55
669.53	305.91
669.87	305.24
670.21	304.60
670.55	303.98
670.89	303.46
671.23	302.88
671.57	302.32
671.91	301.80
672.25	301.30
672.58	300.79
672.92	300.20
673.26	299.72
673.60	299.24
673.94	298.76
674.28	298.32
674.62	297.83
674.96	297.29
675.30	296.80
675.64	296.27
675.97	295.74
676.31	295.18
676.65	294.68
676.99	294.24
677.33	293.72
677.67	293.23
678.01	292.67
678.34	292.19
678.68	291.74
679.02	291.21
679.36	290.71
679.70	290.21
680.04	289.77
680.37	289.28
680.71	288.84
681.05	288.41
681.39	287.92
681.73	287.43
682.06	286.96
682.40	286.49
682.74	286.09
683.08	285.74
683.42	285.32
683.75	284.91
684.09	284.44
684.43	284.02
684.77	283.61
685.10	283.25
685.44	282.84
685.78	282.44
686.12	282.07
686.45	281.66
686.79	281.24
687.13	280.85
687.46	280.43
687.80	280.03
688.14	279.58
688.48	279.19
688.81	278.80
689.15	278.45
689.49	278.05
689.82	277.63
690.16	277.14
690.50	276.74
690.83	276.34
691.17	275.93
691.51	275.55
691.84	275.18
692.18	274.76
692.52	274.35
692.85	273.95
693.19	273.58
693.52	273.19
693.86	272.81
694.20	272.43
694.53	272.07
694.87	271.68
695.21	271.29
695.54	270.90
695.88	270.51
696.21	270.10
696.55	269.73
696.88	269.37
697.22	269.00
697.56	268.65
697.89	268.24
698.23	267.89
698.56	267.50
698.90	267.14
699.23	266.75
699.57	266.39
699.90	266.02
700.24	265.64
700.58	265.32
700.91	265.01
701.25	264.77
701.58	264.48
701.92	264.19
702.25	263.88
702.59	263.54
702.92	263.22
703.26	262.88
703.59	262.55
703.93	262.32
704.26	262.01
704.60	261.67
704.93	261.36
705.26	261.02
705.60	260.75
705.93	260.40
706.27	260.14
706.60	259.87
706.94	259.61
707.27	259.27
707.61	258.95
707.94	258.61
708.27	258.18
708.61	257.82
708.94	257.49
709.28	257.19
709.61	256.89
709.94	256.62
710.28	256.36
710.61	256.10
710.95	255.73
711.28	255.53
711.61	255.26
711.95	255.02
712.28	254.76
712.61	254.46
712.95	254.29
713.28	254.09
713.61	253.79
713.95	253.49
714.28	253.25
714.61	252.99
714.95	252.74
715.28	252.49
715.61	252.26
715.95	252.03
716.28	251.80
716.61	251.61
716.95	251.35
717.28	251.12
717.61	250.88
717.94	250.66
718.28	250.33
718.61	250.10
718.94	249.86
719.27	249.64
719.61	249.43
719.94	249.18
720.27	248.89
720.60	248.68
720.94	248.48
721.27	248.28
721.60	248.10
721.93	247.89
722.27	247.73
722.60	247.54
722.93	247.32
723.26	247.13
723.59	246.90
723.93	246.71
724.26	246.52
724.59	246.32
724.92	246.14
725.25	246.00
725.59	245.83
725.92	245.68
726.25	245.51
726.58	245.34
726.91	245.16
727.24	245.01
727.57	244.85
727.91	244.66
728.24	244.51
728.57	244.33
728.90	244.19
729.23	243.99
729.56	243.87
729.89	243.71
730.22	243.53
730.55	243.37
730.89	243.22
731.22	243.06
731.55	242.91
731.88	242.76
732.21	242.58
732.54	242.43
732.87	242.29
733.20	242.14
733.53	242.00
733.86	241.85
734.19	241.69
734.52	241.56
734.85	241.51
735.18	241.34
735.51	241.24
735.84	241.10
736.17	241.00
736.50	240.80
736.83	240.82
737.16	240.69
737.49	240.57
737.82	240.44
738.15	240.33
738.48	240.21
738.81	240.07
739.14	239.94
739.47	239.81
739.80	239.67
740.13	239.55
740.46	239.41
740.79	239.28
741.12	239.16
741.45	239.01
741.78	238.82
742.11	238.74
742.44	238.59
742.77	238.49
743.10	238.35
743.43	238.24
743.75	238.00
744.08	238.08
744.41	237.96
744.74	237.85
745.07	237.71
745.40	237.62
745.73	237.58
746.06	237.48
746.39	237.41
746.71	237.29
747.04	237.19
747.37	237.08
747.70	237.00
748.03	236.91
748.36	236.84
748.68	236.73
749.01	236.60
749.34	236.51
749.67	236.42
750.00	236.35
750.33	236.36
750.65	236.27
750.98	236.00
751.31	235.91
751.64	235.82
751.97	235.82
752.29	235.71
752.62	235.56
752.95	235.47
753.28	235.36
753.60	235.27
753.93	235.21
754.26	235.13
754.59	235.00
754.91	234.90
755.24	234.80
755.57	234.78
755.90	234.70
756.22	234.61
756.55	234.50
756.88	234.39
757.20	234.22
757.53	234.10
757.86	234.02
758.19	233.96
758.51	233.88
758.84	233.73
759.17	233.64
759.49	233.57
759.82	233.56
760.15	233.50
760.47	233.43
760.80	233.32
761.13	233.28
761.45	233.22
761.78	233.17
762.11	233.11
762.43	232.97
762.76	232.91
763.08	232.86
763.41	232.81
763.74	232.76
764.06	232.71
764.39	232.65
764.71	232.59
765.04	232.52
765.37	232.46
765.69	232.40
766.02	232.35
766.34	232.28
766.67	232.18
767.00	232.16
767.32	232.17
767.65	232.20
767.97	232.13
768.30	232.09
768.62	232.02
768.95	231.96
769.27	231.90
769.60	231.87
769.92	231.80
770.25	231.73
770.57	231.66
770.90	231.59
771.22	231.55
771.55	231.49
771.87	231.45
772.20	231.40
772.52	231.46
772.85	231.57
773.17	231.53
773.50	231.48
773.82	231.41
774.15	231.31
774.47	231.19
774.80	231.13
775.12	231.08
775.45	231.04
775.77	231.02
776.09	230.99
776.42	230.95
776.74	230.95
777.07	230.92
777.39	230.89
777.72	230.86
778.04	230.84
778.36	230.80
778.69	230.77
779.01	230.75
779.33	230.61
779.66	230.43
779.98	230.39
780.31	230.37
780.63	230.39
780.95	230.38
781.28	230.35
781.60	230.31
781.92	230.29
782.25	230.27
782.57	230.24
782.89	230.20
783.22	230.17
783.54	230.12
783.86	230.12
784.19	230.08
784.51	230.09
784.83	230.05
785.16	230.02
785.48	230.00
785.80	229.98
786.12	229.96
786.45	229.94
786.77	229.92
787.09	229.89
787.42	229.83
787.74	229.81
788.06	229.80
788.38	229.78
788.71	229.75
789.03	229.74
789.35	229.73
789.67	229.70
789.99	229.69
790.32	229.65
790.64	229.63
790.96	229.73
791.28	229.66
791.61	229.63
791.93	229.63
792.25	229.60
792.57	229.67
792.89	229.63
793.21	229.62
793.54	229.59
793.86	229.56
794.18	229.54
794.50	229.48
794.82	229.46
795.14	229.47
795.47	229.47
795.79	229.45
796.11	229.40
796.43	229.38
796.75	229.36
797.07	229.36
797.39	229.33
797.71	229.22
798.04	229.21
798.36	229.20
798.68	229.18
799.00	229.17
799.32	229.09
799.64	229.09
799.96	229.07
800.28	229.08
800.60	229.06
800.92	229.06
801.24	229.04
801.56	229.03
801.89	228.99
802.21	228.98
802.53	228.94
802.85	228.95
803.17	228.99
803.49	228.95
803.81	228.93
804.13	228.91
804.45	228.87
804.77	228.87
805.09	228.85
805.41	228.83
805.73	228.79
806.05	228.74
806.37	228.71
806.69	228.69
807.01	228.66
807.33	228.66
807.65	228.61
807.97	228.65
808.28	228.63
808.60	228.62
808.92	228.58
809.24	228.65
809.56	228.62
809.88	228.57
810.20	228.56
810.52	228.58
810.84	228.54
811.16	228.53
811.48	228.52
811.80	228.55
812.12	228.54
812.43	228.55
812.75	228.55
813.07	228.53
813.39	228.53
813.71	228.50
814.03	228.48
814.35	228.47
814.67	228.41
814.98	228.39
815.30	228.39
815.62	228.37
815.94	228.28
816.26	228.29
816.58	228.24
816.89	228.24
817.21	228.20
817.53	228.21
817.85	228.21
818.17	228.18
818.48	228.12
818.80	228.13
819.12	228.10
819.44	228.07
819.76	228.06
820.07	228.06
820.39	228.05
820.71	228.05
821.03	228.05
821.34	228.04
821.66	228.04
821.98	228.04
822.30	228.02
822.61	228.09
822.93	228.06
823.25	228.07
823.57	228.05
823.88	228.07
824.20	228.06
824.52	228.07
824.83	228.06
825.15	228.05
825.47	228.04
825.79	228.04
826.10	228.03
826.42	228.01
826.74	228.02
827.05	228.00
827.37	228.00
827.69	227.98
828.00	227.98
828.32	227.98
828.64	227.96
828.95	228.02
829.27	227.99
829.58	227.99
829.90	228.00
830.22	228.00
830.53	227.97
830.85	227.95
831.17	227.91
831.48	227.90
831.80	227.91
832.11	227.90
832.43	227.87
832.75	227.87
833.06	227.94
833.38	227.90
833.69	227.89
834.01	227.89
834.32	227.88
834.64	227.87
834.96	227.86
835.27	227.85
835.59	227.81
835.90	227.78
836.22	227.77
836.53	227.74
836.85	227.72
837.16	227.84
837.48	227.85
837.79	227.89
838.11	227.90
838.42	227.90
838.74	227.92
839.05	227.91
839.37	227.91
839.68	227.82
840.00	227.82
840.31	227.83
840.63	227.81
840.94	227.80
841.26	227.79
841.57	227.79
841.88	227.79
842.20	227.77
842.51	227.75
842.83	227.75
843.14	227.85
843.46	227.84
843.77	227.76
844.08	227.75
844.40	227.70
844.71	227.69
845.03	227.67
845.34	227.65
845.65	227.63
845.97	227.63
846.28	227.63
846.60	227.64
846.91	227.61
847.22	227.61
847.54	227.63
847.85	227.63
848.16	227.61
848.48	227.59
848.79	227.64
849.10	227.65
849.42	227.65
849.73	227.54
850.04	227.54
850.36	227.49
850.67	227.51
850.98	227.50
851.30	227.50
851.61	227.50
851.92	227.50
852.23	227.53
852.55	227.53
852.86	227.54
853.17	227.55
853.49	227.58
853.80	227.59
854.11	227.60
854.42	227.61
854.74	227.60
855.05	227.60
855.36	227.53
855.67	227.54
855.99	227.53
856.30	227.68
856.61	227.66
856.92	227.67
857.23	227.67
857.55	227.65
857.86	227.64
858.17	227.65
858.48	227.63
858.79	227.61
859.11	227.61
859.42	227.59
859.73	227.58
860.04	227.57
860.35	227.53
860.66	227.49
860.98	227.49
861.29	227.51
861.60	227.50
861.91	227.53
862.22	227.51
862.53	227.50
862.84	227.34
863.16	227.37
863.47	227.34
863.78	227.33
864.09	227.36
864.40	227.36
864.71	227.36
865.02	227.39
865.33	227.37
865.64	227.35
865.95	227.34
866.27	227.41
866.58	227.40
866.89	227.41
867.20	227.41
867.51	227.39
867.82	227.37
868.13	227.41
868.44	227.38
868.75	227.41
869.06	227.41
869.37	227.42
869.68	227.40
869.99	227.42
870.30	227.42
870.61	227.43
870.92	227.40
871.23	227.39
871.54	227.39
871.85	227.42
872.16	227.43
872.47	227.42
872.78	227.35
873.09	227.36
873.40	227.35
873.71	227.36
874.02	227.37
874.33	227.36
874.64	227.32
874.95	227.34
875.26	227.31
875.56	227.31
875.87	227.29
876.18	227.28
876.49	227.41
876.80	227.40
877.11	227.38
877.42	227.39
877.73	227.39
878.04	227.38
878.35	227.40
878.66	227.40
878.96	227.40
879.27	227.39
879.58	227.37
879.89	227.37
880.20	227.40
880.51	227.38
880.82	227.39
881.12	227.40
881.43	227.38
881.74	227.37
882.05	227.37
882.36	227.37
882.67	227.37
882.97	227.22
883.28	227.22
883.59	227.22
883.90	227.23
884.21	227.24
884.51	227.23
884.82	227.21
885.13	227.20
885.44	227.20
885.74	227.20
886.05	227.21
886.36	227.21
886.67	227.17
886.98	227.24
887.28	227.25
887.59	227.25
887.90	227.26
888.20	227.24
888.51	227.26
888.82	227.24
889.13	227.25
889.43	227.36
889.74	227.36
890.05	227.35
890.35	227.33
890.66	227.30
890.97	227.29
891.28	227.28
891.58	227.29
891.89	227.29
892.20	227.28
892.50	227.27
892.81	227.27
893.12	227.26
893.42	227.20
893.73	227.20
894.04	227.20
894.34	227.20
894.65	227.20
894.95	227.19
895.26	227.21
895.57	227.26
895.87	227.14
896.18	227.16
896.48	227.16
896.79	227.17
897.10	227.19
897.40	227.20
897.71	227.21
898.01	227.19
898.32	227.21
898.63	227.21
898.93	227.21
899.24	227.22
899.54	227.21
899.85	227.20
900.15	227.19
900.46	227.19
900.76	227.20
901.07	227.20
901.38	227.19
901.68	227.21
901.99	227.15
902.29	227.16
902.60	227.15
902.90	227.15
903.21	227.14
903.51	227.13
903.82	227.15
904.12	227.15
904.43	227.16
904.73	227.15
905.03	227.15
905.34	227.27
905.64	227.27
905.95	227.28
906.25	227.28
906.56	227.28
906.86	227.28
907.17	227.27
907.47	227.28
907.77	227.27
908.08	227.23
908.38	227.23
908.69	227.23
908.99	227.25
909.30	227.26
909.60	227.27
909.90	227.28
910.21	227.25
910.51	227.23
910.81	227.22
911.12	227.22
911.42	227.22
911.73	227.08
912.03	227.09
912.33	227.11
912.64	227.09
912.94	227.08
913.24	227.06
913.55	227.06
913.85	227.04
914.15	227.06
914.46	227.08
914.76	227.06
915.06	227.05
915.37	227.02
915.67	227.01
915.97	227.01
916.27	226.98
916.58	226.99
916.88	226.98
917.18	226.97
917.49	227.05
917.79	227.04
918.09	227.06
918.39	227.09
918.70	227.08
919.00	227.10
919.30	227.15
919.60	227.14
919.91	227.13
920.21	227.14
920.51	227.11
920.81	227.10
921.12	227.13
921.42	227.13
921.72	227.14
922.02	227.15
922.32	227.15
922.63	227.16
922.93	227.22
923.23	227.23
923.53	227.23
923.83	227.15
924.13	227.17
924.44	227.16
924.74	227.17
925.04	227.20
925.34	227.20
925.64	227.14
925.94	227.15
926.24	227.21
926.55	227.20
926.85	227.23
927.15	227.23
927.45	227.23
927.75	227.22
928.05	227.23
928.35	227.23
928.65	227.24
928.95	227.26
929.26	227.19
929.56	227.22
929.86	227.22
930.16	227.21
930.46	227.20
930.76	227.20
931.06	227.14
931.36	227.11
931.66	227.13
931.96	227.14
932.26	227.15
932.56	227.10
932.86	227.11
933.16	227.11
933.46	227.10
933.76	227.08
934.06	227.10
934.36	227.14
934.66	227.13
934.96	227.11
935.26	227.12
935.56	227.14
935.86	227.11
936.16	227.09
936.46	227.08
936.76	227.08
937.06	227.07
937.36	227.09
937.66	227.09
937.96	227.09
938.26	227.06
938.56	227.06
938.86	227.07
939.16	227.09
939.46	227.09
939.76	227.10
940.06	227.10
940.35	227.08
940.65	227.02
940.95	227.03
941.25	227.01
941.55	226.99
941.85	226.98
942.15	227.02
942.45	227.05
942.75	227.05
943.04	227.05
943.34	227.08
943.64	227.07
943.94	227.04
944.24	227.05
944.54	227.05
944.84	227.05
945.13	227.04
945.43	227.01
945.73	227.00
946.03	226.99
946.33	226.98
946.62	226.97
946.92	226.97
947.22	226.98
947.52	226.98
947.82	226.99
948.11	226.98
948.41	226.95
948.71	226.92
949.01	226.93
949.31	226.92
949.60	226.90
949.90	226.92
950.20	226.92
950.50	226.90
950.79	226.89
951.09	226.91
951.39	226.89
951.69	226.88
951.98	226.91
952.28	226.91
952.58	226.91
952.87	226.91
953.17	226.93
953.47	226.91
953.76	226.90
954.06	226.88
954.36	226.87
954.66	226.87
954.95	226.90
955.25	226.90
955.55	226.91
955.84	226.90
956.14	226.91
956.44	226.93
956.73	226.91
957.03	226.94
957.32	226.93
957.62	226.93
957.92	226.96
958.21	226.94
958.51	227.08
958.81	227.10
959.10	227.11
959.40	227.13
959.69	227.15
959.99	227.17
960.29	227.17
960.58	227.16
960.88	227.21
961.17	227.18
961.47	227.19
961.76	227.17
962.06	227.19
962.36	227.17
962.65	227.17
962.95	227.18
963.24	227.16
963.54	227.17
963.83	227.18
964.13	227.16
964.42	227.15
964.72	227.04
965.01	227.05
965.31	227.04
965.60	227.01
965.90	227.09
966.19	227.06
966.49	227.07
966.78	227.07
967.08	227.07
967.37	227.07
967.67	227.05
967.96	227.08
968.26	227.08
968.55	227.10
968.85	227.09
969.14	227.09
969.43	227.09
969.73	227.07
970.02	227.07
970.32	227.06
970.61	227.05
970.91	227.02
971.20	227.00
971.49	226.99
971.79	227.00
972.08	226.90
972.38	226.91
972.67	226.90
972.96	226.92
973.26	226.88
973.55	226.92
973.85	226.91
974.14	226.89
974.43	226.91
974.73	226.89
975.02	226.88
975.31	226.89
975.61	226.88
975.90	226.87
976.19	226.86
976.49	226.88
976.78	226.87
977.07	226.87
977.37	226.87
977.66	226.88
977.95	226.87
978.24	226.88
978.54	226.91
978.83	226.89
979.12	226.87
979.42	226.88
979.71	226.86
980.00	226.85
980.29	226.85
980.59	226.82
980.88	226.85
981.17	226.84
981.46	226.84
981.76	226.84
982.05	226.87
982.34	226.88
982.63	226.88
982.93	226.89
983.22	226.92
983.51	226.93
983.80	226.95
984.09	226.96
984.39	226.95
984.68	226.94
984.97	226.94
985.26	226.94
985.55	226.95
985.85	226.92
986.14	226.95
986.43	226.97
986.72	226.96
987.01	226.91
987.30	226.92
987.59	226.91
987.89	226.91
988.18	226.87
988.47	226.86
988.76	226.84
989.05	226.83
989.34	226.80
989.63	226.83
989.92	226.80
990.22	226.78
990.51	226.77
990.80	226.76
991.09	226.77
991.38	226.78
991.67	226.77
991.96	226.76
992.25	226.76
992.54	226.73
992.83	226.73
993.12	226.73
993.41	226.75
993.70	226.80
993.99	226.83
994.28	226.86
994.58	226.88
994.87	226.87
995.16	226.86
995.45	226.86
995.74	226.82
996.03	226.83
996.32	226.85
996.61	226.89
996.90	226.88
997.19	226.87
997.48	226.87
997.77	226.87
998.06	226.88
998.34	226.86
998.63	226.85
998.92	226.86
999.21	226.88
999.50	226.87
999.79	226.83
1000.08	226.83
1000.37	226.82
1000.66	226.79
1000.95	226.82
1001.24	226.83
1001.53	226.84
1001.82	226.84
1002.11	226.82
1002.40	226.83
1002.68	226.84
1002.97	226.93
1003.26	226.92
1003.55	226.90
1003.84	226.91
1004.13	226.95
1004.42	226.94
1004.71	226.94
1004.99	226.94
1005.28	226.97
1005.57	226.97
1005.86	226.95
1006.15	226.92
1006.44	226.91
1006.72	226.92
1007.01	226.92
1007.30	226.92
1007.59	226.90
1007.88	226.90
1008.17	226.90
1008.45	226.87
1008.74	226.83
1009.03	226.77
1009.32	226.78
1009.60	226.78
1009.89	226.76
1010.18	226.71
1010.47	226.71
1010.76	226.72
1011.04	226.72
1011.33	226.71
1011.62	226.71
1011.91	226.73
1012.19	226.74
1012.48	226.75
1012.77	226.75
1013.05	226.79
1013.34	226.80
1013.63	226.79
1013.92	226.81
1014.20	226.80
1014.49	226.81
1014.78	226.82
1015.06	226.78
1015.35	226.79
1015.64	226.80
1015.92	226.83
1016.21	226.85
1016.50	226.85
1016.78	226.86
1017.07	226.87
1017.36	226.84
1017.64	226.83
1017.93	226.84
1018.22	226.82
1018.50	226.82
1018.79	226.82
1019.08	226.78
1019.36	226.78
1019.65	226.77
1019.93	226.80
1020.22	226.82
1020.51	226.88
1020.79	226.87
1021.08	226.65
1021.36	226.69
1021.65	226.83
1021.94	226.84
1022.22	226.82
1022.51	226.52
1022.79	227.47
1023.08	227.08
1023.36	228.30
1023.65	226.64
>>>>>End Processed Spectral Data<<<<<
