SpectraSuite Data File
++++++++++++++++++++++++++++++++++++
Date: Fri Oct 02 17:00:01 EDT 2015
User: lab3
Dark Spectrum Present: No
Reference Spectrum Present: No
Number of Sampled Component Spectra: 1
Spectrometers: USB2E7196
Integration Time (usec): 46000 (USB2E7196)
Spectra Averaged: 1200 (USB2E7196)
Boxcar Smoothing: 10 (USB2E7196)
Correct for Electrical Dark: No (USB2E7196)
Strobe/Lamp Enabled: No (USB2E7196)
Correct for Detector Non-linearity: No (USB2E7196)
Correct for Stray Light: No (USB2E7196)
Number of Pixels in Processed Spectrum: 2048
>>>>>Begin Processed Spectral Data<<<<<
339.09	0.00
339.48	214.77
339.86	216.23
340.24	217.52
340.63	219.16
341.01	222.41
341.39	221.76
341.78	223.13
342.16	224.26
342.54	224.67
342.93	213.17
343.31	223.94
343.69	224.48
344.07	224.93
344.46	225.37
344.84	225.75
345.22	225.96
345.60	226.21
345.99	226.39
346.37	226.52
346.75	226.63
347.13	226.71
347.52	226.78
347.90	226.87
348.28	226.90
348.66	226.95
349.05	226.95
349.43	227.01
349.81	227.06
350.19	227.11
350.57	227.18
350.96	227.27
351.34	227.35
351.72	227.45
352.10	227.56
352.48	227.63
352.87	227.68
353.25	227.75
353.63	227.81
354.01	227.89
354.39	227.97
354.77	228.04
355.15	228.15
355.54	228.19
355.92	228.21
356.30	228.29
356.68	228.43
357.06	228.51
357.44	228.55
357.82	228.61
358.20	228.74
358.58	228.79
358.97	228.85
359.35	228.94
359.73	229.01
360.11	229.06
360.49	229.12
360.87	229.17
361.25	229.23
361.63	229.32
362.01	229.36
362.39	229.38
362.77	229.43
363.15	229.45
363.53	229.47
363.91	229.51
364.29	229.53
364.67	229.44
365.05	229.45
365.43	229.48
365.81	229.51
366.19	229.51
366.57	229.57
366.95	229.57
367.33	229.54
367.71	229.53
368.09	229.56
368.47	229.54
368.85	229.53
369.23	229.54
369.61	229.48
369.99	229.50
370.37	229.51
370.75	229.59
371.13	229.57
371.51	229.53
371.89	229.51
372.27	229.48
372.65	229.46
373.03	229.42
373.41	229.37
373.78	229.32
374.16	229.22
374.54	229.13
374.92	229.08
375.30	229.04
375.68	228.97
376.06	228.93
376.44	228.87
376.82	228.83
377.19	228.78
377.57	228.72
377.95	228.61
378.33	228.54
378.71	228.39
379.09	228.33
379.47	228.30
379.84	228.23
380.22	228.17
380.60	228.10
380.98	228.06
381.36	228.02
381.73	227.96
382.11	227.93
382.49	227.90
382.87	227.84
383.25	227.79
383.62	227.89
384.00	227.82
384.38	227.78
384.76	227.78
385.13	227.77
385.51	227.74
385.89	227.70
386.27	227.67
386.64	227.65
387.02	227.59
387.40	227.56
387.78	227.53
388.15	227.51
388.53	227.46
388.91	227.43
389.29	227.40
389.66	227.39
390.04	227.36
390.42	227.35
390.79	227.33
391.17	227.31
391.55	227.17
391.92	227.16
392.30	227.17
392.68	227.12
393.05	227.09
393.43	227.08
393.81	227.10
394.18	227.08
394.56	227.09
394.94	227.14
395.31	227.13
395.69	227.18
396.06	227.21
396.44	227.25
396.82	227.26
397.19	227.33
397.57	227.34
397.95	227.38
398.32	227.38
398.70	227.43
399.07	227.49
399.45	227.52
399.82	227.57
400.20	227.62
400.58	227.68
400.95	227.69
401.33	227.77
401.70	227.92
402.08	228.02
402.45	228.10
402.83	228.21
403.20	228.33
403.58	228.42
403.95	228.56
404.33	228.71
404.71	228.85
405.08	229.06
405.46	229.22
405.83	229.41
406.21	229.61
406.58	229.82
406.96	230.04
407.33	230.29
407.70	230.57
408.08	230.94
408.45	231.27
408.83	231.63
409.20	231.97
409.58	232.26
409.95	232.66
410.33	233.10
410.70	233.51
411.08	233.99
411.45	234.50
411.82	235.03
412.20	235.63
412.57	236.35
412.95	236.91
413.32	237.66
413.69	238.40
414.07	239.21
414.44	240.09
414.82	240.97
415.19	242.02
415.56	243.07
415.94	244.16
416.31	245.40
416.68	246.63
417.06	248.05
417.43	249.39
417.81	250.94
418.18	252.50
418.55	254.21
418.93	256.00
419.30	257.86
419.67	259.82
420.04	261.83
420.42	263.95
420.79	266.39
421.16	268.85
421.54	271.35
421.91	273.97
422.28	276.68
422.66	279.61
423.03	282.41
423.40	285.33
423.77	288.49
424.15	291.70
424.52	295.05
424.89	298.69
425.26	302.30
425.64	305.65
426.01	309.43
426.38	313.30
426.75	317.30
427.13	321.39
427.50	325.68
427.87	330.14
428.24	334.64
428.61	338.96
428.99	343.64
429.36	348.77
429.73	353.68
430.10	358.59
430.47	363.62
430.85	368.82
431.22	374.39
431.59	380.10
431.96	385.69
432.33	391.89
432.70	397.81
433.08	404.79
433.45	411.41
433.82	417.92
434.19	425.18
434.56	432.35
434.93	439.27
435.30	446.14
435.68	453.89
436.05	461.47
436.42	469.03
436.79	475.93
437.16	483.38
437.53	491.35
437.90	499.33
438.27	507.15
438.64	515.55
439.01	523.20
439.38	530.20
439.75	536.92
440.13	544.50
440.50	551.70
440.87	557.41
441.24	563.64
441.61	570.43
441.98	575.36
442.35	581.21
442.72	587.16
443.09	592.81
443.46	596.35
443.83	598.93
444.20	601.03
444.57	604.23
444.94	605.95
445.31	607.75
445.68	609.24
446.05	610.26
446.42	609.66
446.79	608.86
447.16	608.12
447.53	607.42
447.90	604.76
448.27	602.20
448.64	598.45
449.01	595.77
449.37	590.67
449.74	586.04
450.11	580.15
450.48	573.73
450.85	567.32
451.22	561.82
451.59	556.45
451.96	551.60
452.33	544.64
452.70	538.47
453.07	530.98
453.43	523.53
453.80	516.29
454.17	509.39
454.54	503.04
454.91	495.88
455.28	489.21
455.65	482.91
456.02	476.28
456.38	470.94
456.75	464.10
457.12	458.60
457.49	453.06
457.86	447.84
458.23	443.29
458.59	438.23
458.96	433.06
459.33	428.53
459.70	423.91
460.07	420.42
460.43	416.31
460.80	412.47
461.17	409.15
461.54	405.53
461.91	402.16
462.27	398.73
462.64	396.00
463.01	392.81
463.38	389.59
463.74	386.69
464.11	384.14
464.48	381.86
464.85	379.36
465.21	377.48
465.58	375.38
465.95	372.95
466.32	371.06
466.68	369.17
467.05	367.28
467.42	365.44
467.78	363.43
468.15	361.60
468.52	360.26
468.88	358.43
469.25	356.79
469.62	355.50
469.98	354.08
470.35	352.80
470.72	351.66
471.08	350.49
471.45	349.52
471.82	348.43
472.18	347.26
472.55	346.52
472.92	345.59
473.28	344.86
473.65	344.07
474.02	343.32
474.38	342.68
474.75	342.31
475.11	341.81
475.48	341.58
475.85	341.32
476.21	341.19
476.58	341.12
476.94	341.27
477.31	341.35
477.67	341.44
478.04	341.66
478.41	341.96
478.77	342.41
479.14	342.68
479.50	343.21
479.87	343.89
480.23	344.58
480.60	345.25
480.96	345.92
481.33	346.93
481.69	347.93
482.06	348.93
482.42	349.84
482.79	350.97
483.15	352.27
483.52	353.76
483.88	355.19
484.25	356.71
484.61	358.29
484.98	359.99
485.34	361.93
485.71	363.94
486.07	366.10
486.44	368.25
486.80	370.66
487.17	373.15
487.53	375.88
487.90	378.72
488.26	381.84
488.62	385.09
488.99	388.36
489.35	391.81
489.72	395.54
490.08	399.47
490.44	403.53
490.81	407.75
491.17	412.06
491.54	416.68
491.90	421.49
492.26	426.61
492.63	431.99
492.99	437.59
493.36	443.40
493.72	449.49
494.08	455.73
494.45	462.35
494.81	469.24
495.17	476.29
495.54	483.74
495.90	491.51
496.26	499.47
496.63	507.66
496.99	516.17
497.35	525.04
497.72	534.21
498.08	543.59
498.44	553.30
498.80	563.59
499.17	574.14
499.53	585.00
499.89	596.24
500.26	607.67
500.62	619.39
500.98	631.74
501.34	644.25
501.71	657.32
502.07	670.55
502.43	684.30
502.79	698.31
503.16	712.76
503.52	727.37
503.88	742.42
504.24	757.90
504.60	773.60
504.97	789.80
505.33	806.38
505.69	823.86
506.05	841.67
506.41	859.37
506.78	877.26
507.14	895.63
507.50	914.45
507.86	933.61
508.22	952.99
508.59	972.19
508.95	992.22
509.31	1012.92
509.67	1034.31
510.03	1055.69
510.39	1077.11
510.75	1098.68
511.12	1120.55
511.48	1142.54
511.84	1164.61
512.20	1187.02
512.56	1210.24
512.92	1233.48
513.28	1256.33
513.64	1279.32
514.00	1302.77
514.37	1326.51
514.73	1350.24
515.09	1373.87
515.45	1397.80
515.81	1421.85
516.17	1446.02
516.53	1469.64
516.89	1493.11
517.25	1516.77
517.61	1540.32
517.97	1564.28
518.33	1587.69
518.69	1610.98
519.05	1634.78
519.41	1658.80
519.77	1682.97
520.13	1706.40
520.49	1729.72
520.85	1753.40
521.21	1776.63
521.57	1800.22
521.93	1823.29
522.29	1846.84
522.65	1869.77
523.01	1892.67
523.37	1915.14
523.73	1938.36
524.09	1961.27
524.45	1983.94
524.81	2006.15
525.17	2028.13
525.53	2049.52
525.89	2071.38
526.25	2093.24
526.61	2114.06
526.97	2134.93
527.33	2155.74
527.68	2176.23
528.04	2195.97
528.40	2214.64
528.76	2233.65
529.12	2252.09
529.48	2270.21
529.84	2286.55
530.20	2303.51
530.56	2319.81
530.91	2336.27
531.27	2352.35
531.63	2367.61
531.99	2382.49
532.35	2396.68
532.71	2410.95
533.07	2425.78
533.42	2438.82
533.78	2452.71
534.14	2466.91
534.50	2480.17
534.86	2493.17
535.21	2504.39
535.57	2515.96
535.93	2527.43
536.29	2537.69
536.65	2547.82
537.00	2557.29
537.36	2567.65
537.72	2576.57
538.08	2585.04
538.44	2592.85
538.79	2600.21
539.15	2606.85
539.51	2613.01
539.87	2618.55
540.22	2622.30
540.58	2626.15
540.94	2631.20
541.29	2634.76
541.65	2636.48
542.01	2637.67
542.37	2638.14
542.72	2639.85
543.08	2640.07
543.44	2640.75
543.79	2640.47
544.15	2639.34
544.51	2638.59
544.87	2636.78
545.22	2634.25
545.58	2631.10
545.94	2628.01
546.29	2623.60
546.65	2619.23
547.01	2614.81
547.36	2611.07
547.72	2607.34
548.07	2602.06
548.43	2595.32
548.79	2587.79
549.14	2581.44
549.50	2575.27
549.86	2568.30
550.21	2560.28
550.57	2553.08
550.92	2543.79
551.28	2535.05
551.64	2526.59
551.99	2517.77
552.35	2508.34
552.70	2499.29
553.06	2490.52
553.41	2481.12
553.77	2471.58
554.13	2461.87
554.48	2451.47
554.84	2439.95
555.19	2428.93
555.55	2417.96
555.90	2407.11
556.26	2396.66
556.61	2385.23
556.97	2372.29
557.32	2359.89
557.68	2347.39
558.03	2334.79
558.39	2323.18
558.74	2311.87
559.10	2299.03
559.45	2286.37
559.81	2274.32
560.16	2261.67
560.52	2249.21
560.87	2237.04
561.23	2224.14
561.58	2211.51
561.94	2198.48
562.29	2184.97
562.64	2172.19
563.00	2159.07
563.35	2146.36
563.71	2133.42
564.06	2120.49
564.42	2108.15
564.77	2095.31
565.12	2082.42
565.48	2069.48
565.83	2056.65
566.19	2043.89
566.54	2031.09
566.89	2017.30
567.25	2003.66
567.60	1991.21
567.96	1978.03
568.31	1963.59
568.66	1949.92
569.02	1937.19
569.37	1924.49
569.72	1912.30
570.08	1898.87
570.43	1885.11
570.78	1871.17
571.14	1856.75
571.49	1842.90
571.84	1829.67
572.20	1815.26
572.55	1801.15
572.90	1786.92
573.26	1772.63
573.61	1757.95
573.96	1743.74
574.31	1729.68
574.67	1715.65
575.02	1700.78
575.37	1685.87
575.72	1671.92
576.08	1658.20
576.43	1643.48
576.78	1629.18
577.13	1615.16
577.49	1601.53
577.84	1588.45
578.19	1574.52
578.54	1560.76
578.90	1546.53
579.25	1532.21
579.60	1519.40
579.95	1506.44
580.30	1493.31
580.66	1480.03
581.01	1466.65
581.36	1453.26
581.71	1440.89
582.06	1428.36
582.42	1416.08
582.77	1403.90
583.12	1391.64
583.47	1379.30
583.82	1367.05
584.17	1354.47
584.53	1341.56
584.88	1328.99
585.23	1316.11
585.58	1304.02
585.93	1292.11
586.28	1280.91
586.63	1269.68
586.98	1258.00
587.34	1246.41
587.69	1234.62
588.04	1223.14
588.39	1212.01
588.74	1201.05
589.09	1189.83
589.44	1178.30
589.79	1167.32
590.14	1156.49
590.49	1145.58
590.84	1134.78
591.19	1124.37
591.54	1113.80
591.89	1103.42
592.25	1093.22
592.60	1082.68
592.95	1072.47
593.30	1062.44
593.65	1052.18
594.00	1042.01
594.35	1032.42
594.70	1022.40
595.05	1013.20
595.40	1003.90
595.75	994.46
596.10	985.50
596.45	976.29
596.80	967.42
597.15	958.32
597.50	949.38
597.85	940.79
598.19	932.07
598.54	923.41
598.89	915.14
599.24	907.14
599.59	899.00
599.94	891.71
600.29	884.26
600.64	876.57
600.99	868.53
601.34	860.82
601.69	852.77
602.04	845.39
602.39	837.86
602.74	830.37
603.08	822.92
603.43	815.39
603.78	808.03
604.13	800.83
604.48	793.62
604.83	786.57
605.18	779.43
605.53	772.45
605.87	765.29
606.22	758.47
606.57	751.58
606.92	744.59
607.27	737.53
607.62	730.77
607.96	724.39
608.31	718.39
608.66	712.23
609.01	706.33
609.36	700.54
609.70	694.54
610.05	688.50
610.40	682.70
610.75	676.92
611.10	671.45
611.44	665.78
611.79	660.24
612.14	654.62
612.49	649.12
612.83	643.89
613.18	638.78
613.53	633.55
613.88	628.35
614.22	623.57
614.57	618.70
614.92	613.67
615.27	608.75
615.61	603.90
615.96	599.10
616.31	594.31
616.65	589.57
617.00	585.02
617.35	580.58
617.70	576.18
618.04	571.84
618.39	567.41
618.74	563.22
619.08	559.07
619.43	555.06
619.78	551.03
620.12	546.94
620.47	543.03
620.82	539.22
621.16	535.44
621.51	531.56
621.85	527.70
622.20	524.04
622.55	520.37
622.89	516.75
623.24	513.16
623.59	509.60
623.93	506.20
624.28	502.86
624.62	499.62
624.97	496.40
625.32	493.17
625.66	489.90
626.01	486.59
626.35	483.34
626.70	480.11
627.04	477.07
627.39	473.98
627.73	471.03
628.08	468.13
628.43	465.23
628.77	462.39
629.12	459.67
629.46	456.95
629.81	454.18
630.15	451.43
630.50	448.75
630.84	446.12
631.19	443.54
631.53	441.06
631.88	438.52
632.22	436.02
632.57	433.76
632.91	431.54
633.26	429.41
633.60	427.28
633.95	425.21
634.29	423.05
634.64	420.97
634.98	418.69
635.32	416.58
635.67	414.64
636.01	412.62
636.36	410.66
636.70	408.82
637.05	406.96
637.39	405.14
637.73	403.33
638.08	401.64
638.42	399.90
638.77	398.06
639.11	396.16
639.45	394.32
639.80	392.45
640.14	390.66
640.49	388.84
640.83	387.03
641.17	385.29
641.52	383.59
641.86	381.89
642.20	380.41
642.55	378.77
642.89	377.13
643.23	375.58
643.58	374.18
643.92	372.64
644.26	371.18
644.61	369.76
644.95	368.30
645.29	366.76
645.64	365.25
645.98	363.81
646.32	362.50
646.66	361.15
647.01	359.83
647.35	358.55
647.69	357.28
648.04	356.11
648.38	354.85
648.72	353.62
649.06	352.39
649.41	351.16
649.75	349.99
650.09	348.83
650.43	347.68
650.78	346.48
651.12	345.32
651.46	344.18
651.80	343.06
652.14	341.97
652.49	340.92
652.83	339.86
653.17	338.85
653.51	337.84
653.85	336.91
654.20	335.92
654.54	334.84
654.88	333.84
655.22	332.87
655.56	331.89
655.90	330.97
656.25	330.09
656.59	329.17
656.93	328.32
657.27	327.47
657.61	326.56
657.95	325.68
658.29	324.81
658.64	323.99
658.98	323.16
659.32	322.34
659.66	321.58
660.00	320.81
660.34	320.04
660.68	319.26
661.02	318.43
661.36	317.65
661.70	316.90
662.05	316.16
662.39	315.42
662.73	314.77
663.07	314.11
663.41	313.39
663.75	312.68
664.09	311.97
664.43	311.23
664.77	310.59
665.11	309.89
665.45	309.25
665.79	308.61
666.13	307.93
666.47	307.24
666.81	306.52
667.15	305.81
667.49	305.17
667.83	304.58
668.17	303.98
668.51	303.40
668.85	302.86
669.19	302.35
669.53	301.74
669.87	301.10
670.21	300.49
670.55	299.93
670.89	299.44
671.23	298.89
671.57	298.35
671.91	297.86
672.25	297.40
672.58	296.92
672.92	296.37
673.26	295.90
673.60	295.44
673.94	294.98
674.28	294.56
674.62	294.09
674.96	293.59
675.30	293.14
675.64	292.66
675.97	292.16
676.31	291.63
676.65	291.14
676.99	290.74
677.33	290.25
677.67	289.80
678.01	289.27
678.34	288.81
678.68	288.39
679.02	287.89
679.36	287.39
679.70	286.93
680.04	286.50
680.37	286.04
680.71	285.61
681.05	285.20
681.39	284.74
681.73	284.27
682.06	283.80
682.40	283.38
682.74	282.98
683.08	282.64
683.42	282.23
683.75	281.85
684.09	281.39
684.43	280.99
684.77	280.59
685.10	280.24
685.44	279.86
685.78	279.48
686.12	279.11
686.45	278.72
686.79	278.32
687.13	277.94
687.46	277.53
687.80	277.16
688.14	276.73
688.48	276.37
688.81	275.99
689.15	275.64
689.49	275.24
689.82	274.84
690.16	274.38
690.50	274.00
690.83	273.62
691.17	273.24
691.51	272.87
691.84	272.51
692.18	272.10
692.52	271.69
692.85	271.30
693.19	270.97
693.52	270.61
693.86	270.23
694.20	269.87
694.53	269.53
694.87	269.13
695.21	268.77
695.54	268.41
695.88	268.05
696.21	267.66
696.55	267.33
696.88	266.97
697.22	266.62
697.56	266.28
697.89	265.89
698.23	265.54
698.56	265.16
698.90	264.82
699.23	264.46
699.57	264.11
699.90	263.75
700.24	263.37
700.58	263.06
700.91	262.77
701.25	262.55
701.58	262.28
701.92	262.00
702.25	261.69
702.59	261.35
702.92	261.04
703.26	260.71
703.59	260.38
703.93	260.16
704.26	259.86
704.60	259.53
704.93	259.21
705.26	258.91
705.60	258.65
705.93	258.33
706.27	258.07
706.60	257.82
706.94	257.59
707.27	257.28
707.61	256.97
707.94	256.64
708.27	256.23
708.61	255.90
708.94	255.58
709.28	255.30
709.61	255.01
709.94	254.75
710.28	254.50
710.61	254.26
710.95	253.89
711.28	253.72
711.61	253.46
711.95	253.24
712.28	252.97
712.61	252.69
712.95	252.51
713.28	252.32
713.61	252.04
713.95	251.75
714.28	251.51
714.61	251.25
714.95	251.01
715.28	250.77
715.61	250.53
715.95	250.32
716.28	250.10
716.61	249.91
716.95	249.67
717.28	249.44
717.61	249.21
717.94	249.00
718.28	248.69
718.61	248.48
718.94	248.23
719.27	248.03
719.61	247.84
719.94	247.59
720.27	247.30
720.60	247.10
720.94	246.90
721.27	246.72
721.60	246.53
721.93	246.33
722.27	246.17
722.60	246.01
722.93	245.79
723.26	245.59
723.59	245.37
723.93	245.20
724.26	245.02
724.59	244.84
724.92	244.67
725.25	244.54
725.59	244.36
725.92	244.23
726.25	244.06
726.58	243.88
726.91	243.70
727.24	243.58
727.57	243.42
727.91	243.25
728.24	243.12
728.57	242.95
728.90	242.82
729.23	242.64
729.56	242.52
729.89	242.38
730.22	242.22
730.55	242.07
730.89	241.92
731.22	241.76
731.55	241.61
731.88	241.45
732.21	241.27
732.54	241.14
732.87	240.98
733.20	240.86
733.53	240.72
733.86	240.60
734.19	240.43
734.52	240.30
734.85	240.25
735.18	240.08
735.51	240.00
735.84	239.86
736.17	239.76
736.50	239.57
736.83	239.61
737.16	239.49
737.49	239.38
737.82	239.24
738.15	239.14
738.48	239.02
738.81	238.90
739.14	238.77
739.47	238.63
739.80	238.51
740.13	238.39
740.46	238.27
740.79	238.13
741.12	238.02
741.45	237.89
741.78	237.70
742.11	237.61
742.44	237.47
742.77	237.38
743.10	237.25
743.43	237.15
743.75	236.90
744.08	237.00
744.41	236.89
744.74	236.79
745.07	236.66
745.40	236.59
745.73	236.55
746.06	236.47
746.39	236.40
746.71	236.31
747.04	236.20
747.37	236.10
747.70	236.05
748.03	235.96
748.36	235.89
748.68	235.80
749.01	235.68
749.34	235.58
749.67	235.50
750.00	235.42
750.33	235.42
750.65	235.34
750.98	235.06
751.31	234.98
751.64	234.90
751.97	234.89
752.29	234.79
752.62	234.66
752.95	234.56
753.28	234.47
753.60	234.37
753.93	234.31
754.26	234.23
754.59	234.09
754.91	234.00
755.24	233.90
755.57	233.88
755.90	233.80
756.22	233.71
756.55	233.61
756.88	233.50
757.20	233.33
757.53	233.22
757.86	233.14
758.19	233.08
758.51	233.01
758.84	232.87
759.17	232.79
759.49	232.72
759.82	232.71
760.15	232.64
760.47	232.57
760.80	232.47
761.13	232.43
761.45	232.38
761.78	232.32
762.11	232.27
762.43	232.14
762.76	232.08
763.08	232.04
763.41	231.99
763.74	231.94
764.06	231.89
764.39	231.84
764.71	231.78
765.04	231.70
765.37	231.63
765.69	231.57
766.02	231.52
766.34	231.46
766.67	231.36
767.00	231.34
767.32	231.36
767.65	231.37
767.97	231.31
768.30	231.26
768.62	231.20
768.95	231.14
769.27	231.09
769.60	231.06
769.92	230.99
770.25	230.92
770.57	230.85
770.90	230.81
771.22	230.76
771.55	230.72
771.87	230.68
772.20	230.64
772.52	230.70
772.85	230.81
773.17	230.77
773.50	230.71
773.82	230.66
774.15	230.55
774.47	230.45
774.80	230.40
775.12	230.36
775.45	230.33
775.77	230.31
776.09	230.29
776.42	230.25
776.74	230.26
777.07	230.22
777.39	230.21
777.72	230.17
778.04	230.16
778.36	230.13
778.69	230.10
779.01	230.09
779.33	229.96
779.66	229.79
779.98	229.76
780.31	229.75
780.63	229.78
780.95	229.78
781.28	229.74
781.60	229.71
781.92	229.69
782.25	229.67
782.57	229.63
782.89	229.59
783.22	229.56
783.54	229.50
783.86	229.48
784.19	229.45
784.51	229.47
784.83	229.42
785.16	229.39
785.48	229.37
785.80	229.34
786.12	229.33
786.45	229.31
786.77	229.30
787.09	229.27
787.42	229.20
787.74	229.18
788.06	229.18
788.38	229.15
788.71	229.12
789.03	229.11
789.35	229.12
789.67	229.09
789.99	229.07
790.32	229.05
790.64	229.04
790.96	229.14
791.28	229.07
791.61	229.05
791.93	229.03
792.25	229.00
792.57	229.08
792.89	229.03
793.21	229.02
793.54	228.98
793.86	228.95
794.18	228.93
794.50	228.89
794.82	228.88
795.14	228.86
795.47	228.88
795.79	228.85
796.11	228.80
796.43	228.78
796.75	228.78
797.07	228.76
797.39	228.73
797.71	228.60
798.04	228.60
798.36	228.59
798.68	228.56
799.00	228.57
799.32	228.48
799.64	228.48
799.96	228.46
800.28	228.47
800.60	228.45
800.92	228.45
801.24	228.42
801.56	228.41
801.89	228.40
802.21	228.37
802.53	228.33
802.85	228.35
803.17	228.40
803.49	228.35
803.81	228.34
804.13	228.33
804.45	228.30
804.77	228.30
805.09	228.30
805.41	228.28
805.73	228.24
806.05	228.21
806.37	228.19
806.69	228.17
807.01	228.14
807.33	228.13
807.65	228.07
807.97	228.13
808.28	228.10
808.60	228.09
808.92	228.07
809.24	228.13
809.56	228.10
809.88	228.03
810.20	228.03
810.52	228.03
810.84	228.01
811.16	227.99
811.48	227.96
811.80	228.00
812.12	227.99
812.43	228.00
812.75	227.99
813.07	227.96
813.39	227.95
813.71	227.93
814.03	227.91
814.35	227.91
814.67	227.84
814.98	227.82
815.30	227.81
815.62	227.78
815.94	227.70
816.26	227.70
816.58	227.66
816.89	227.67
817.21	227.63
817.53	227.64
817.85	227.64
818.17	227.64
818.48	227.58
818.80	227.60
819.12	227.57
819.44	227.54
819.76	227.51
820.07	227.52
820.39	227.50
820.71	227.51
821.03	227.50
821.34	227.49
821.66	227.49
821.98	227.49
822.30	227.48
822.61	227.55
822.93	227.52
823.25	227.51
823.57	227.49
823.88	227.50
824.20	227.49
824.52	227.50
824.83	227.48
825.15	227.46
825.47	227.44
825.79	227.44
826.10	227.43
826.42	227.43
826.74	227.42
827.05	227.42
827.37	227.41
827.69	227.40
828.00	227.41
828.32	227.41
828.64	227.38
828.95	227.45
829.27	227.41
829.58	227.41
829.90	227.43
830.22	227.43
830.53	227.40
830.85	227.38
831.17	227.34
831.48	227.34
831.80	227.34
832.11	227.32
832.43	227.31
832.75	227.32
833.06	227.38
833.38	227.34
833.69	227.34
834.01	227.33
834.32	227.32
834.64	227.29
834.96	227.28
835.27	227.27
835.59	227.22
835.90	227.21
836.22	227.20
836.53	227.16
836.85	227.14
837.16	227.26
837.48	227.27
837.79	227.30
838.11	227.29
838.42	227.28
838.74	227.29
839.05	227.27
839.37	227.25
839.68	227.17
840.00	227.17
840.31	227.19
840.63	227.17
840.94	227.16
841.26	227.15
841.57	227.16
841.88	227.16
842.20	227.14
842.51	227.11
842.83	227.10
843.14	227.22
843.46	227.22
843.77	227.15
844.08	227.14
844.40	227.10
844.71	227.10
845.03	227.09
845.34	227.07
845.65	227.06
845.97	227.07
846.28	227.08
846.60	227.08
846.91	227.05
847.22	227.05
847.54	227.08
847.85	227.08
848.16	227.07
848.48	227.05
848.79	227.10
849.10	227.12
849.42	227.13
849.73	227.01
850.04	227.01
850.36	226.96
850.67	226.97
850.98	226.97
851.30	226.98
851.61	226.98
851.92	226.97
852.23	227.02
852.55	227.02
852.86	227.03
853.17	227.04
853.49	227.06
853.80	227.08
854.11	227.09
854.42	227.09
854.74	227.08
855.05	227.09
855.36	227.01
855.67	227.01
855.99	227.00
856.30	227.15
856.61	227.15
856.92	227.16
857.23	227.16
857.55	227.14
857.86	227.13
858.17	227.15
858.48	227.14
858.79	227.09
859.11	227.10
859.42	227.09
859.73	227.07
860.04	227.06
860.35	227.02
860.66	226.99
860.98	226.98
861.29	226.99
861.60	226.98
861.91	227.01
862.22	226.99
862.53	226.97
862.84	226.81
863.16	226.83
863.47	226.81
863.78	226.78
864.09	226.80
864.40	226.80
864.71	226.81
865.02	226.82
865.33	226.81
865.64	226.79
865.95	226.78
866.27	226.86
866.58	226.85
866.89	226.88
867.20	226.87
867.51	226.85
867.82	226.85
868.13	226.89
868.44	226.86
868.75	226.89
869.06	226.89
869.37	226.91
869.68	226.88
869.99	226.91
870.30	226.92
870.61	226.93
870.92	226.92
871.23	226.90
871.54	226.91
871.85	226.94
872.16	226.96
872.47	226.95
872.78	226.88
873.09	226.89
873.40	226.88
873.71	226.89
874.02	226.90
874.33	226.88
874.64	226.85
874.95	226.86
875.26	226.83
875.56	226.82
875.87	226.81
876.18	226.81
876.49	226.93
876.80	226.92
877.11	226.89
877.42	226.89
877.73	226.89
878.04	226.87
878.35	226.87
878.66	226.87
878.96	226.87
879.27	226.86
879.58	226.85
879.89	226.84
880.20	226.87
880.51	226.87
880.82	226.87
881.12	226.87
881.43	226.85
881.74	226.84
882.05	226.84
882.36	226.85
882.67	226.85
882.97	226.70
883.28	226.70
883.59	226.70
883.90	226.71
884.21	226.73
884.51	226.72
884.82	226.70
885.13	226.70
885.44	226.69
885.74	226.69
886.05	226.69
886.36	226.70
886.67	226.65
886.98	226.72
887.28	226.74
887.59	226.74
887.90	226.74
888.20	226.74
888.51	226.77
888.82	226.74
889.13	226.76
889.43	226.88
889.74	226.86
890.05	226.86
890.35	226.85
890.66	226.82
890.97	226.82
891.28	226.81
891.58	226.81
891.89	226.81
892.20	226.79
892.50	226.78
892.81	226.77
893.12	226.77
893.42	226.70
893.73	226.70
894.04	226.70
894.34	226.72
894.65	226.71
894.95	226.70
895.26	226.70
895.57	226.76
895.87	226.64
896.18	226.67
896.48	226.67
896.79	226.67
897.10	226.69
897.40	226.69
897.71	226.70
898.01	226.69
898.32	226.70
898.63	226.70
898.93	226.72
899.24	226.73
899.54	226.72
899.85	226.71
900.15	226.70
900.46	226.70
900.76	226.71
901.07	226.71
901.38	226.70
901.68	226.72
901.99	226.64
902.29	226.66
902.60	226.64
902.90	226.63
903.21	226.63
903.51	226.62
903.82	226.65
904.12	226.65
904.43	226.66
904.73	226.66
905.03	226.66
905.34	226.76
905.64	226.76
905.95	226.76
906.25	226.77
906.56	226.77
906.86	226.76
907.17	226.75
907.47	226.75
907.77	226.75
908.08	226.72
908.38	226.74
908.69	226.75
908.99	226.77
909.30	226.78
909.60	226.78
909.90	226.78
910.21	226.74
910.51	226.72
910.81	226.70
911.12	226.72
911.42	226.72
911.73	226.59
912.03	226.59
912.33	226.62
912.64	226.61
912.94	226.58
913.24	226.57
913.55	226.56
913.85	226.54
914.15	226.58
914.46	226.58
914.76	226.57
915.06	226.55
915.37	226.53
915.67	226.52
915.97	226.52
916.27	226.49
916.58	226.50
916.88	226.51
917.18	226.51
917.49	226.58
917.79	226.58
918.09	226.60
918.39	226.64
918.70	226.63
919.00	226.63
919.30	226.70
919.60	226.70
919.91	226.70
920.21	226.72
920.51	226.69
920.81	226.68
921.12	226.70
921.42	226.69
921.72	226.71
922.02	226.71
922.32	226.73
922.63	226.73
922.93	226.80
923.23	226.81
923.53	226.81
923.83	226.72
924.13	226.72
924.44	226.72
924.74	226.73
925.04	226.76
925.34	226.77
925.64	226.71
925.94	226.71
926.24	226.78
926.55	226.77
926.85	226.79
927.15	226.80
927.45	226.79
927.75	226.79
928.05	226.78
928.35	226.78
928.65	226.80
928.95	226.81
929.26	226.75
929.56	226.78
929.86	226.80
930.16	226.79
930.46	226.78
930.76	226.78
931.06	226.72
931.36	226.68
931.66	226.69
931.96	226.71
932.26	226.72
932.56	226.67
932.86	226.67
933.16	226.66
933.46	226.65
933.76	226.62
934.06	226.65
934.36	226.69
934.66	226.69
934.96	226.67
935.26	226.68
935.56	226.70
935.86	226.65
936.16	226.62
936.46	226.61
936.76	226.62
937.06	226.60
937.36	226.62
937.66	226.61
937.96	226.60
938.26	226.57
938.56	226.56
938.86	226.55
939.16	226.58
939.46	226.59
939.76	226.60
940.06	226.60
940.35	226.58
940.65	226.52
940.95	226.52
941.25	226.49
941.55	226.46
941.85	226.45
942.15	226.48
942.45	226.51
942.75	226.50
943.04	226.50
943.34	226.52
943.64	226.51
943.94	226.50
944.24	226.48
944.54	226.50
944.84	226.49
945.13	226.47
945.43	226.44
945.73	226.44
946.03	226.43
946.33	226.41
946.62	226.40
946.92	226.39
947.22	226.40
947.52	226.41
947.82	226.44
948.11	226.41
948.41	226.39
948.71	226.36
949.01	226.37
949.31	226.35
949.60	226.33
949.90	226.35
950.20	226.35
950.50	226.35
950.79	226.34
951.09	226.35
951.39	226.35
951.69	226.34
951.98	226.35
952.28	226.35
952.58	226.34
952.87	226.34
953.17	226.35
953.47	226.33
953.76	226.33
954.06	226.30
954.36	226.30
954.66	226.31
954.95	226.34
955.25	226.35
955.55	226.36
955.84	226.33
956.14	226.34
956.44	226.35
956.73	226.33
957.03	226.35
957.32	226.34
957.62	226.35
957.92	226.37
958.21	226.37
958.51	226.50
958.81	226.53
959.10	226.54
959.40	226.57
959.69	226.59
959.99	226.60
960.29	226.61
960.58	226.60
960.88	226.64
961.17	226.61
961.47	226.63
961.76	226.63
962.06	226.66
962.36	226.64
962.65	226.65
962.95	226.66
963.24	226.63
963.54	226.64
963.83	226.65
964.13	226.65
964.42	226.64
964.72	226.55
965.01	226.55
965.31	226.54
965.60	226.51
965.90	226.59
966.19	226.56
966.49	226.57
966.78	226.56
967.08	226.55
967.37	226.55
967.67	226.54
967.96	226.55
968.26	226.55
968.55	226.57
968.85	226.56
969.14	226.57
969.43	226.56
969.73	226.55
970.02	226.54
970.32	226.54
970.61	226.53
970.91	226.49
971.20	226.47
971.49	226.46
971.79	226.48
972.08	226.39
972.38	226.40
972.67	226.39
972.96	226.41
973.26	226.38
973.55	226.43
973.85	226.41
974.14	226.40
974.43	226.40
974.73	226.37
975.02	226.35
975.31	226.36
975.61	226.37
975.90	226.35
976.19	226.34
976.49	226.34
976.78	226.35
977.07	226.34
977.37	226.35
977.66	226.36
977.95	226.34
978.24	226.36
978.54	226.39
978.83	226.37
979.12	226.36
979.42	226.38
979.71	226.36
980.00	226.36
980.29	226.37
980.59	226.35
980.88	226.39
981.17	226.40
981.46	226.39
981.76	226.38
982.05	226.42
982.34	226.43
982.63	226.42
982.93	226.41
983.22	226.45
983.51	226.46
983.80	226.47
984.09	226.49
984.39	226.47
984.68	226.45
984.97	226.46
985.26	226.45
985.55	226.45
985.85	226.41
986.14	226.43
986.43	226.43
986.72	226.42
987.01	226.38
987.30	226.38
987.59	226.37
987.89	226.37
988.18	226.34
988.47	226.34
988.76	226.34
989.05	226.34
989.34	226.31
989.63	226.34
989.92	226.31
990.22	226.29
990.51	226.29
990.80	226.27
991.09	226.28
991.38	226.30
991.67	226.29
991.96	226.28
992.25	226.29
992.54	226.26
992.83	226.27
993.12	226.27
993.41	226.29
993.70	226.34
993.99	226.36
994.28	226.38
994.58	226.40
994.87	226.39
995.16	226.38
995.45	226.37
995.74	226.31
996.03	226.34
996.32	226.37
996.61	226.40
996.90	226.40
997.19	226.39
997.48	226.39
997.77	226.38
998.06	226.39
998.34	226.37
998.63	226.38
998.92	226.39
999.21	226.40
999.50	226.41
999.79	226.35
1000.08	226.36
1000.37	226.35
1000.66	226.34
1000.95	226.38
1001.24	226.39
1001.53	226.40
1001.82	226.41
1002.11	226.39
1002.40	226.39
1002.68	226.42
1002.97	226.51
1003.26	226.50
1003.55	226.49
1003.84	226.50
1004.13	226.54
1004.42	226.55
1004.71	226.54
1004.99	226.54
1005.28	226.57
1005.57	226.55
1005.86	226.55
1006.15	226.52
1006.44	226.51
1006.72	226.53
1007.01	226.50
1007.30	226.50
1007.59	226.48
1007.88	226.48
1008.17	226.48
1008.45	226.45
1008.74	226.39
1009.03	226.34
1009.32	226.33
1009.60	226.34
1009.89	226.33
1010.18	226.28
1010.47	226.28
1010.76	226.28
1011.04	226.27
1011.33	226.27
1011.62	226.27
1011.91	226.29
1012.19	226.31
1012.48	226.30
1012.77	226.30
1013.05	226.34
1013.34	226.34
1013.63	226.34
1013.92	226.35
1014.20	226.34
1014.49	226.36
1014.78	226.37
1015.06	226.33
1015.35	226.34
1015.64	226.36
1015.92	226.38
1016.21	226.39
1016.50	226.38
1016.78	226.40
1017.07	226.42
1017.36	226.40
1017.64	226.39
1017.93	226.39
1018.22	226.37
1018.50	226.37
1018.79	226.36
1019.08	226.32
1019.36	226.33
1019.65	226.32
1019.93	226.35
1020.22	226.37
1020.51	226.44
1020.79	226.42
1021.08	226.17
1021.36	226.09
1021.65	226.27
1021.94	226.35
1022.22	226.51
1022.51	226.04
1022.79	226.95
1023.08	226.56
1023.36	227.89
1023.65	226.06
>>>>>End Processed Spectral Data<<<<<
