SpectraSuite Data File
++++++++++++++++++++++++++++++++++++
Date: Fri Oct 02 16:21:22 EDT 2015
User: lab3
Dark Spectrum Present: No
Reference Spectrum Present: No
Number of Sampled Component Spectra: 1
Spectrometers: USB2E7196
Integration Time (usec): 46000 (USB2E7196)
Spectra Averaged: 1200 (USB2E7196)
Boxcar Smoothing: 10 (USB2E7196)
Correct for Electrical Dark: No (USB2E7196)
Strobe/Lamp Enabled: No (USB2E7196)
Correct for Detector Non-linearity: No (USB2E7196)
Correct for Stray Light: No (USB2E7196)
Number of Pixels in Processed Spectrum: 2048
>>>>>Begin Processed Spectral Data<<<<<
339.09	0.00
339.48	214.98
339.86	216.29
340.24	217.63
340.63	219.09
341.01	222.49
341.39	221.89
341.78	223.31
342.16	224.26
342.54	224.95
342.93	213.31
343.31	224.08
343.69	224.62
344.07	225.08
344.46	225.52
344.84	225.92
345.22	226.14
345.60	226.40
345.99	226.59
346.37	226.73
346.75	226.83
347.13	226.90
347.52	226.96
347.90	227.05
348.28	227.09
348.66	227.15
349.05	227.13
349.43	227.18
349.81	227.26
350.19	227.32
350.57	227.38
350.96	227.46
351.34	227.56
351.72	227.66
352.10	227.76
352.48	227.83
352.87	227.88
353.25	227.94
353.63	228.00
354.01	228.06
354.39	228.15
354.77	228.23
355.15	228.34
355.54	228.39
355.92	228.42
356.30	228.49
356.68	228.63
357.06	228.71
357.44	228.76
357.82	228.82
358.20	228.94
358.58	229.00
358.97	229.06
359.35	229.14
359.73	229.22
360.11	229.28
360.49	229.34
360.87	229.38
361.25	229.45
361.63	229.54
362.01	229.59
362.39	229.62
362.77	229.65
363.15	229.68
363.53	229.72
363.91	229.76
364.29	229.79
364.67	229.71
365.05	229.73
365.43	229.77
365.81	229.79
366.19	229.82
366.57	229.88
366.95	229.88
367.33	229.85
367.71	229.85
368.09	229.87
368.47	229.86
368.85	229.86
369.23	229.86
369.61	229.80
369.99	229.83
370.37	229.84
370.75	229.93
371.13	229.89
371.51	229.84
371.89	229.83
372.27	229.79
372.65	229.76
373.03	229.72
373.41	229.68
373.78	229.62
374.16	229.51
374.54	229.42
374.92	229.37
375.30	229.33
375.68	229.27
376.06	229.22
376.44	229.15
376.82	229.11
377.19	229.07
377.57	229.01
377.95	228.91
378.33	228.85
378.71	228.68
379.09	228.64
379.47	228.61
379.84	228.54
380.22	228.47
380.60	228.40
380.98	228.35
381.36	228.29
381.73	228.23
382.11	228.21
382.49	228.17
382.87	228.10
383.25	228.04
383.62	228.14
384.00	228.07
384.38	228.03
384.76	228.02
385.13	228.00
385.51	227.96
385.89	227.91
386.27	227.87
386.64	227.85
387.02	227.80
387.40	227.76
387.78	227.73
388.15	227.70
388.53	227.66
388.91	227.64
389.29	227.60
389.66	227.60
390.04	227.57
390.42	227.56
390.79	227.56
391.17	227.54
391.55	227.39
391.92	227.38
392.30	227.39
392.68	227.35
393.05	227.32
393.43	227.32
393.81	227.32
394.18	227.30
394.56	227.31
394.94	227.34
395.31	227.34
395.69	227.37
396.06	227.41
396.44	227.44
396.82	227.45
397.19	227.54
397.57	227.55
397.95	227.59
398.32	227.59
398.70	227.63
399.07	227.69
399.45	227.73
399.82	227.78
400.20	227.81
400.58	227.87
400.95	227.88
401.33	227.97
401.70	228.13
402.08	228.22
402.45	228.31
402.83	228.43
403.20	228.55
403.58	228.65
403.95	228.79
404.33	228.94
404.71	229.09
405.08	229.29
405.46	229.46
405.83	229.65
406.21	229.84
406.58	230.07
406.96	230.28
407.33	230.52
407.70	230.80
408.08	231.18
408.45	231.52
408.83	231.89
409.20	232.22
409.58	232.51
409.95	232.93
410.33	233.37
410.70	233.77
411.08	234.26
411.45	234.77
411.82	235.29
412.20	235.90
412.57	236.61
412.95	237.17
413.32	237.90
413.69	238.66
414.07	239.46
414.44	240.33
414.82	241.21
415.19	242.26
415.56	243.30
415.94	244.38
416.31	245.61
416.68	246.84
417.06	248.26
417.43	249.60
417.81	251.12
418.18	252.68
418.55	254.39
418.93	256.16
419.30	258.02
419.67	259.98
420.04	261.98
420.42	264.08
420.79	266.50
421.16	268.94
421.54	271.44
421.91	274.03
422.28	276.72
422.66	279.64
423.03	282.42
423.40	285.33
423.77	288.46
424.15	291.66
424.52	294.98
424.89	298.58
425.26	302.15
425.64	305.48
426.01	309.22
426.38	313.05
426.75	316.99
427.13	321.04
427.50	325.30
427.87	329.71
428.24	334.16
428.61	338.44
428.99	343.07
429.36	348.13
429.73	353.00
430.10	357.86
430.47	362.82
430.85	367.93
431.22	373.43
431.59	379.07
431.96	384.57
432.33	390.69
432.70	396.54
433.08	403.43
433.45	409.96
433.82	416.39
434.19	423.58
434.56	430.64
434.93	437.49
435.30	444.23
435.68	451.87
436.05	459.37
436.42	466.83
436.79	473.64
437.16	480.98
437.53	488.85
437.90	496.72
438.27	504.44
438.64	512.77
439.01	520.29
439.38	527.21
439.75	533.85
440.13	541.37
440.50	548.49
440.87	554.17
441.24	560.34
441.61	567.09
441.98	571.95
442.35	577.78
442.72	583.70
443.09	589.36
443.46	592.92
443.83	595.50
444.20	597.64
444.57	600.86
444.94	602.65
445.31	604.49
445.68	606.04
446.05	607.12
446.42	606.62
446.79	605.93
447.16	605.28
447.53	604.70
447.90	602.15
448.27	599.68
448.64	596.04
449.01	593.46
449.37	588.48
449.74	584.03
450.11	578.29
450.48	572.00
450.85	565.71
451.22	560.32
451.59	555.09
451.96	550.34
452.33	543.48
452.70	537.42
453.07	530.04
453.43	522.71
453.80	515.59
454.17	508.79
454.54	502.53
454.91	495.46
455.28	488.87
455.65	482.62
456.02	476.06
456.38	470.77
456.75	463.97
457.12	458.51
457.49	452.98
457.86	447.77
458.23	443.28
458.59	438.28
458.96	433.15
459.33	428.63
459.70	424.06
460.07	420.60
460.43	416.51
460.80	412.69
461.17	409.38
461.54	405.77
461.91	402.42
462.27	399.01
462.64	396.28
463.01	393.09
463.38	389.91
463.74	387.04
464.11	384.51
464.48	382.25
464.85	379.78
465.21	377.93
465.58	375.87
465.95	373.45
466.32	371.55
466.68	369.66
467.05	367.78
467.42	365.93
467.78	363.93
468.15	362.08
468.52	360.77
468.88	358.96
469.25	357.32
469.62	356.02
469.98	354.61
470.35	353.33
470.72	352.19
471.08	351.03
471.45	350.03
471.82	348.94
472.18	347.79
472.55	347.04
472.92	346.09
473.28	345.35
473.65	344.54
474.02	343.79
474.38	343.17
474.75	342.80
475.11	342.27
475.48	342.04
475.85	341.80
476.21	341.67
476.58	341.58
476.94	341.74
477.31	341.81
477.67	341.90
478.04	342.12
478.41	342.42
478.77	342.84
479.14	343.11
479.50	343.63
479.87	344.30
480.23	344.98
480.60	345.65
480.96	346.32
481.33	347.32
481.69	348.30
482.06	349.29
482.42	350.20
482.79	351.32
483.15	352.62
483.52	354.08
483.88	355.49
484.25	357.00
484.61	358.57
484.98	360.28
485.34	362.20
485.71	364.20
486.07	366.36
486.44	368.50
486.80	370.90
487.17	373.39
487.53	376.09
487.90	378.92
488.26	382.00
488.62	385.25
488.99	388.49
489.35	391.90
489.72	395.61
490.08	399.50
490.44	403.55
490.81	407.76
491.17	412.06
491.54	416.65
491.90	421.42
492.26	426.52
492.63	431.86
492.99	437.43
493.36	443.18
493.72	449.23
494.08	455.46
494.45	462.06
494.81	468.91
495.17	475.95
495.54	483.35
495.90	491.08
496.26	498.99
496.63	507.15
496.99	515.61
497.35	524.47
497.72	533.61
498.08	542.94
498.44	552.58
498.80	562.81
499.17	573.33
499.53	584.15
499.89	595.33
500.26	606.72
500.62	618.38
500.98	630.67
501.34	643.14
501.71	656.11
502.07	669.25
502.43	682.86
502.79	696.81
503.16	711.19
503.52	725.74
503.88	740.71
504.24	756.15
504.60	771.78
504.97	787.89
505.33	804.33
505.69	821.72
506.05	839.37
506.41	856.99
506.78	874.75
507.14	893.00
507.50	911.70
507.86	930.71
508.22	949.97
508.59	969.10
508.95	989.07
509.31	1009.67
509.67	1031.00
510.03	1052.29
510.39	1073.59
510.75	1095.12
511.12	1116.88
511.48	1138.74
511.84	1160.67
512.20	1182.98
512.56	1206.04
512.92	1229.16
513.28	1251.89
513.64	1274.78
514.00	1298.06
514.37	1321.64
514.73	1345.32
515.09	1368.80
515.45	1392.62
515.81	1416.61
516.17	1440.61
516.53	1464.14
516.89	1487.58
517.25	1511.19
517.61	1534.71
517.97	1558.57
518.33	1581.74
518.69	1604.90
519.05	1628.58
519.41	1652.41
519.77	1676.43
520.13	1699.78
520.49	1723.04
520.85	1746.54
521.21	1769.76
521.57	1793.39
521.93	1816.43
522.29	1839.89
522.65	1862.77
523.01	1885.60
523.37	1907.99
523.73	1931.17
524.09	1953.90
524.45	1976.47
524.81	1998.48
525.17	2020.27
525.53	2041.66
525.89	2063.59
526.25	2085.53
526.61	2106.40
526.97	2127.32
527.33	2148.08
527.68	2168.56
528.04	2188.32
528.40	2207.04
528.76	2225.90
529.12	2244.13
529.48	2262.29
529.84	2278.51
530.20	2295.41
530.56	2311.76
530.91	2328.18
531.27	2344.16
531.63	2359.36
531.99	2374.14
532.35	2388.37
532.71	2402.71
533.07	2417.32
533.42	2430.08
533.78	2443.90
534.14	2457.93
534.50	2471.07
534.86	2484.03
535.21	2495.17
535.57	2506.76
535.93	2518.20
536.29	2528.43
536.65	2538.67
537.00	2548.02
537.36	2558.45
537.72	2567.50
538.08	2575.88
538.44	2583.76
538.79	2591.20
539.15	2597.93
539.51	2604.20
539.87	2609.68
540.22	2613.51
540.58	2617.43
540.94	2622.73
541.29	2626.25
541.65	2628.07
542.01	2629.31
542.37	2629.91
542.72	2631.63
543.08	2631.81
543.44	2632.61
543.79	2632.44
544.15	2631.49
544.51	2630.76
544.87	2628.86
545.22	2626.24
545.58	2623.07
545.94	2619.78
546.29	2615.34
546.65	2611.01
547.01	2606.53
547.36	2602.82
547.72	2598.92
548.07	2593.74
548.43	2587.12
548.79	2579.61
549.14	2573.31
549.50	2567.25
549.86	2560.15
550.21	2552.26
550.57	2544.98
550.92	2535.57
551.28	2526.87
551.64	2518.27
551.99	2509.42
552.35	2500.05
552.70	2491.01
553.06	2482.46
553.41	2473.37
553.77	2463.93
554.13	2454.22
554.48	2443.95
554.84	2432.50
555.19	2421.70
555.55	2410.70
555.90	2399.68
556.26	2389.13
556.61	2377.70
556.97	2364.86
557.32	2352.62
557.68	2340.01
558.03	2327.43
558.39	2315.99
558.74	2304.67
559.10	2291.93
559.45	2279.30
559.81	2267.33
560.16	2254.87
560.52	2242.39
560.87	2230.12
561.23	2217.23
561.58	2204.60
561.94	2191.54
562.29	2178.09
562.64	2165.20
563.00	2152.07
563.35	2139.52
563.71	2126.75
564.06	2113.80
564.42	2101.39
564.77	2088.52
565.12	2075.79
565.48	2063.02
565.83	2050.17
566.19	2037.56
566.54	2024.68
566.89	2011.01
567.25	1997.44
567.60	1984.96
567.96	1971.85
568.31	1957.47
568.66	1943.81
569.02	1931.22
569.37	1918.53
569.72	1906.36
570.08	1893.03
570.43	1879.35
570.78	1865.34
571.14	1850.94
571.49	1837.21
571.84	1824.03
572.20	1809.74
572.55	1795.63
572.90	1781.37
573.26	1767.12
573.61	1752.30
573.96	1738.06
574.31	1723.94
574.67	1709.92
575.02	1694.97
575.37	1679.95
575.72	1665.96
576.08	1652.27
576.43	1637.54
576.78	1623.28
577.13	1609.28
577.49	1595.73
577.84	1582.71
578.19	1568.94
578.54	1555.27
578.90	1541.14
579.25	1526.94
579.60	1514.12
579.95	1501.22
580.30	1488.16
580.66	1474.84
581.01	1461.53
581.36	1448.25
581.71	1435.94
582.06	1423.38
582.42	1411.10
582.77	1399.03
583.12	1386.86
583.47	1374.48
583.82	1362.35
584.17	1349.86
584.53	1337.02
584.88	1324.45
585.23	1311.60
585.58	1299.51
585.93	1287.59
586.28	1276.28
586.63	1264.94
586.98	1253.25
587.34	1241.65
587.69	1229.89
588.04	1218.49
588.39	1207.50
588.74	1196.63
589.09	1185.54
589.44	1174.11
589.79	1163.20
590.14	1152.40
590.49	1141.50
590.84	1130.78
591.19	1120.26
591.54	1109.67
591.89	1099.26
592.25	1089.06
592.60	1078.52
592.95	1068.31
593.30	1058.32
593.65	1048.12
594.00	1037.97
594.35	1028.42
594.70	1018.46
595.05	1009.27
595.40	1000.07
595.75	990.66
596.10	981.67
596.45	972.46
596.80	963.60
597.15	954.62
597.50	945.70
597.85	937.19
598.19	928.51
598.54	919.92
598.89	911.67
599.24	903.68
599.59	895.59
599.94	888.33
600.29	880.87
600.64	873.16
600.99	865.15
601.34	857.53
601.69	849.53
602.04	842.12
602.39	834.64
602.74	827.15
603.08	819.68
603.43	812.21
603.78	804.87
604.13	797.66
604.48	790.38
604.83	783.31
605.18	776.13
605.53	769.20
605.87	762.14
606.22	755.36
606.57	748.56
606.92	741.59
607.27	734.62
607.62	727.97
607.96	721.64
608.31	715.67
608.66	709.53
609.01	703.66
609.36	697.93
609.70	691.93
610.05	685.93
610.40	680.18
610.75	674.42
611.10	668.98
611.44	663.42
611.79	657.98
612.14	652.47
612.49	647.02
612.83	641.80
613.18	636.68
613.53	631.49
613.88	626.36
614.22	621.64
614.57	616.79
614.92	611.77
615.27	606.90
615.61	602.07
615.96	597.31
616.31	592.54
616.65	587.86
617.00	583.36
617.35	578.92
617.70	574.55
618.04	570.27
618.39	565.92
618.74	561.77
619.08	557.64
619.43	553.61
619.78	549.63
620.12	545.62
620.47	541.77
620.82	537.97
621.16	534.19
621.51	530.33
621.85	526.53
622.20	522.92
622.55	519.30
622.89	515.75
623.24	512.23
623.59	508.72
623.93	505.32
624.28	502.00
624.62	498.81
624.97	495.64
625.32	492.39
625.66	489.11
626.01	485.84
626.35	482.61
626.70	479.42
627.04	476.42
627.39	473.35
627.73	470.41
628.08	467.56
628.43	464.68
628.77	461.89
629.12	459.21
629.46	456.53
629.81	453.81
630.15	451.10
630.50	448.43
630.84	445.84
631.19	443.31
631.53	440.86
631.88	438.37
632.22	435.91
632.57	433.72
632.91	431.55
633.26	429.42
633.60	427.32
633.95	425.30
634.29	423.17
634.64	421.11
634.98	418.87
635.32	416.80
635.67	414.88
636.01	412.87
636.36	410.91
636.70	409.07
637.05	407.22
637.39	405.40
637.73	403.65
638.08	401.98
638.42	400.26
638.77	398.45
639.11	396.58
639.45	394.78
639.80	392.94
640.14	391.17
640.49	389.41
640.83	387.62
641.17	385.89
641.52	384.22
641.86	382.57
642.20	381.11
642.55	379.48
642.89	377.88
643.23	376.35
643.58	374.97
643.92	373.48
644.26	372.02
644.61	370.59
644.95	369.13
645.29	367.61
645.64	366.11
645.98	364.69
646.32	363.39
646.66	362.03
647.01	360.69
647.35	359.43
647.69	358.16
648.04	357.01
648.38	355.76
648.72	354.55
649.06	353.31
649.41	352.08
649.75	350.92
650.09	349.77
650.43	348.61
650.78	347.40
651.12	346.23
651.46	345.14
651.80	344.05
652.14	342.98
652.49	341.94
652.83	340.90
653.17	339.89
653.51	338.90
653.85	337.98
654.20	337.00
654.54	335.94
654.88	334.96
655.22	333.99
655.56	333.01
655.90	332.08
656.25	331.20
656.59	330.29
656.93	329.43
657.27	328.57
657.61	327.69
657.95	326.84
658.29	325.97
658.64	325.15
658.98	324.32
659.32	323.49
659.66	322.74
660.00	321.98
660.34	321.23
660.68	320.45
661.02	319.62
661.36	318.84
661.70	318.10
662.05	317.35
662.39	316.63
662.73	315.99
663.07	315.34
663.41	314.66
663.75	313.96
664.09	313.26
664.43	312.53
664.77	311.86
665.11	311.16
665.45	310.52
665.79	309.88
666.13	309.21
666.47	308.54
666.81	307.82
667.15	307.08
667.49	306.45
667.83	305.85
668.17	305.23
668.51	304.65
668.85	304.11
669.19	303.60
669.53	302.97
669.87	302.32
670.21	301.71
670.55	301.11
670.89	300.61
671.23	300.06
671.57	299.53
671.91	299.05
672.25	298.57
672.58	298.08
672.92	297.53
673.26	297.04
673.60	296.56
673.94	296.11
674.28	295.71
674.62	295.25
674.96	294.74
675.30	294.30
675.64	293.81
675.97	293.31
676.31	292.78
676.65	292.30
676.99	291.90
677.33	291.41
677.67	290.97
678.01	290.44
678.34	289.97
678.68	289.54
679.02	289.06
679.36	288.58
679.70	288.11
680.04	287.67
680.37	287.22
680.71	286.79
681.05	286.36
681.39	285.89
681.73	285.40
682.06	284.94
682.40	284.49
682.74	284.09
683.08	283.73
683.42	283.30
683.75	282.92
684.09	282.44
684.43	282.03
684.77	281.60
685.10	281.25
685.44	280.85
685.78	280.46
686.12	280.07
686.45	279.67
686.79	279.25
687.13	278.87
687.46	278.45
687.80	278.05
688.14	277.61
688.48	277.23
688.81	276.83
689.15	276.47
689.49	276.08
689.82	275.67
690.16	275.21
690.50	274.83
690.83	274.44
691.17	274.05
691.51	273.68
691.84	273.33
692.18	272.92
692.52	272.52
692.85	272.13
693.19	271.79
693.52	271.42
693.86	271.04
694.20	270.66
694.53	270.32
694.87	269.93
695.21	269.56
695.54	269.18
695.88	268.80
696.21	268.40
696.55	268.04
696.88	267.68
697.22	267.33
697.56	266.97
697.89	266.57
698.23	266.22
698.56	265.83
698.90	265.47
699.23	265.08
699.57	264.72
699.90	264.35
700.24	263.96
700.58	263.63
700.91	263.34
701.25	263.12
701.58	262.84
701.92	262.56
702.25	262.26
702.59	261.94
702.92	261.63
703.26	261.31
703.59	260.98
703.93	260.75
704.26	260.44
704.60	260.12
704.93	259.81
705.26	259.50
705.60	259.24
705.93	258.92
706.27	258.66
706.60	258.41
706.94	258.16
707.27	257.83
707.61	257.52
707.94	257.20
708.27	256.78
708.61	256.43
708.94	256.11
709.28	255.81
709.61	255.51
709.94	255.25
710.28	254.99
710.61	254.76
710.95	254.39
711.28	254.20
711.61	253.93
711.95	253.70
712.28	253.44
712.61	253.15
712.95	252.97
713.28	252.77
713.61	252.48
713.95	252.19
714.28	251.97
714.61	251.72
714.95	251.47
715.28	251.23
715.61	251.00
715.95	250.77
716.28	250.55
716.61	250.36
716.95	250.11
717.28	249.89
717.61	249.66
717.94	249.44
718.28	249.12
718.61	248.91
718.94	248.67
719.27	248.45
719.61	248.25
719.94	248.01
720.27	247.73
720.60	247.53
720.94	247.33
721.27	247.14
721.60	246.96
721.93	246.75
722.27	246.59
722.60	246.41
722.93	246.20
723.26	246.02
723.59	245.78
723.93	245.60
724.26	245.42
724.59	245.23
724.92	245.06
725.25	244.93
725.59	244.75
725.92	244.61
726.25	244.44
726.58	244.28
726.91	244.11
727.24	243.96
727.57	243.80
727.91	243.62
728.24	243.48
728.57	243.32
728.90	243.17
729.23	242.99
729.56	242.88
729.89	242.72
730.22	242.55
730.55	242.41
730.89	242.27
731.22	242.11
731.55	241.96
731.88	241.80
732.21	241.63
732.54	241.48
732.87	241.33
733.20	241.18
733.53	241.03
733.86	240.89
734.19	240.74
734.52	240.62
734.85	240.57
735.18	240.40
735.51	240.30
735.84	240.17
736.17	240.07
736.50	239.87
736.83	239.89
737.16	239.77
737.49	239.66
737.82	239.53
738.15	239.43
738.48	239.30
738.81	239.18
739.14	239.05
739.47	238.92
739.80	238.79
740.13	238.69
740.46	238.56
740.79	238.42
741.12	238.31
741.45	238.16
741.78	237.98
742.11	237.90
742.44	237.74
742.77	237.64
743.10	237.50
743.43	237.39
743.75	237.15
744.08	237.24
744.41	237.13
744.74	237.02
745.07	236.89
745.40	236.80
745.73	236.75
746.06	236.66
746.39	236.59
746.71	236.48
747.04	236.37
747.37	236.27
747.70	236.20
748.03	236.12
748.36	236.04
748.68	235.95
749.01	235.82
749.34	235.73
749.67	235.65
750.00	235.58
750.33	235.60
750.65	235.51
750.98	235.24
751.31	235.16
751.64	235.07
751.97	235.06
752.29	234.97
752.62	234.83
752.95	234.73
753.28	234.62
753.60	234.55
753.93	234.50
754.26	234.43
754.59	234.31
754.91	234.21
755.24	234.12
755.57	234.10
755.90	234.02
756.22	233.92
756.55	233.82
756.88	233.72
757.20	233.56
757.53	233.45
757.86	233.36
758.19	233.28
758.51	233.21
758.84	233.08
759.17	233.00
759.49	232.93
759.82	232.94
760.15	232.89
760.47	232.81
760.80	232.72
761.13	232.67
761.45	232.61
761.78	232.55
762.11	232.50
762.43	232.37
762.76	232.32
763.08	232.29
763.41	232.24
763.74	232.19
764.06	232.13
764.39	232.08
764.71	232.02
765.04	231.96
765.37	231.89
765.69	231.85
766.02	231.79
766.34	231.74
766.67	231.63
767.00	231.60
767.32	231.62
767.65	231.65
767.97	231.59
768.30	231.54
768.62	231.49
768.95	231.44
769.27	231.40
769.60	231.37
769.92	231.30
770.25	231.23
770.57	231.16
770.90	231.11
771.22	231.06
771.55	231.02
771.87	230.99
772.20	230.94
772.52	231.00
772.85	231.12
773.17	231.08
773.50	231.03
773.82	230.98
774.15	230.87
774.47	230.74
774.80	230.69
775.12	230.66
775.45	230.62
775.77	230.59
776.09	230.55
776.42	230.52
776.74	230.52
777.07	230.49
777.39	230.47
777.72	230.43
778.04	230.42
778.36	230.38
778.69	230.35
779.01	230.34
779.33	230.21
779.66	230.03
779.98	229.98
780.31	229.96
780.63	229.98
780.95	229.98
781.28	229.96
781.60	229.91
781.92	229.89
782.25	229.86
782.57	229.83
782.89	229.80
783.22	229.76
783.54	229.72
783.86	229.71
784.19	229.67
784.51	229.69
784.83	229.64
785.16	229.61
785.48	229.58
785.80	229.56
786.12	229.54
786.45	229.51
786.77	229.50
787.09	229.47
787.42	229.40
787.74	229.38
788.06	229.35
788.38	229.33
788.71	229.30
789.03	229.28
789.35	229.29
789.67	229.25
789.99	229.23
790.32	229.19
790.64	229.18
790.96	229.28
791.28	229.22
791.61	229.19
791.93	229.18
792.25	229.16
792.57	229.23
792.89	229.18
793.21	229.19
793.54	229.16
793.86	229.12
794.18	229.11
794.50	229.08
794.82	229.07
795.14	229.07
795.47	229.08
795.79	229.07
796.11	229.02
796.43	229.00
796.75	228.98
797.07	228.98
797.39	228.95
797.71	228.84
798.04	228.84
798.36	228.83
798.68	228.81
799.00	228.81
799.32	228.74
799.64	228.75
799.96	228.72
800.28	228.74
800.60	228.72
800.92	228.72
801.24	228.71
801.56	228.69
801.89	228.66
802.21	228.64
802.53	228.61
802.85	228.63
803.17	228.68
803.49	228.65
803.81	228.61
804.13	228.60
804.45	228.57
804.77	228.56
805.09	228.54
805.41	228.53
805.73	228.48
806.05	228.43
806.37	228.40
806.69	228.38
807.01	228.35
807.33	228.35
807.65	228.29
807.97	228.32
808.28	228.30
808.60	228.29
808.92	228.26
809.24	228.33
809.56	228.29
809.88	228.23
810.20	228.23
810.52	228.25
810.84	228.23
811.16	228.20
811.48	228.18
811.80	228.22
812.12	228.20
812.43	228.22
812.75	228.23
813.07	228.22
813.39	228.22
813.71	228.19
814.03	228.16
814.35	228.17
814.67	228.12
814.98	228.10
815.30	228.08
815.62	228.06
815.94	227.96
816.26	227.97
816.58	227.94
816.89	227.94
817.21	227.90
817.53	227.90
817.85	227.90
818.17	227.88
818.48	227.82
818.80	227.84
819.12	227.82
819.44	227.78
819.76	227.76
820.07	227.75
820.39	227.74
820.71	227.75
821.03	227.74
821.34	227.71
821.66	227.71
821.98	227.73
822.30	227.73
822.61	227.80
822.93	227.78
823.25	227.77
823.57	227.76
823.88	227.77
824.20	227.76
824.52	227.77
824.83	227.76
825.15	227.74
825.47	227.72
825.79	227.73
826.10	227.73
826.42	227.72
826.74	227.72
827.05	227.72
827.37	227.72
827.69	227.71
828.00	227.70
828.32	227.69
828.64	227.65
828.95	227.71
829.27	227.67
829.58	227.66
829.90	227.68
830.22	227.68
830.53	227.65
830.85	227.64
831.17	227.61
831.48	227.60
831.80	227.61
832.11	227.60
832.43	227.57
832.75	227.56
833.06	227.62
833.38	227.58
833.69	227.57
834.01	227.57
834.32	227.56
834.64	227.56
834.96	227.55
835.27	227.55
835.59	227.51
835.90	227.48
836.22	227.47
836.53	227.44
836.85	227.42
837.16	227.54
837.48	227.54
837.79	227.57
838.11	227.57
838.42	227.56
838.74	227.56
839.05	227.56
839.37	227.55
839.68	227.48
840.00	227.47
840.31	227.48
840.63	227.47
840.94	227.45
841.26	227.44
841.57	227.44
841.88	227.45
842.20	227.42
842.51	227.40
842.83	227.40
843.14	227.51
843.46	227.51
843.77	227.42
844.08	227.42
844.40	227.38
844.71	227.36
845.03	227.36
845.34	227.34
845.65	227.32
845.97	227.32
846.28	227.32
846.60	227.34
846.91	227.31
847.22	227.31
847.54	227.33
847.85	227.33
848.16	227.32
848.48	227.29
848.79	227.34
849.10	227.35
849.42	227.36
849.73	227.24
850.04	227.24
850.36	227.20
850.67	227.21
850.98	227.21
851.30	227.23
851.61	227.23
851.92	227.23
852.23	227.27
852.55	227.27
852.86	227.27
853.17	227.27
853.49	227.30
853.80	227.33
854.11	227.34
854.42	227.34
854.74	227.33
855.05	227.34
855.36	227.27
855.67	227.29
855.99	227.28
856.30	227.42
856.61	227.42
856.92	227.41
857.23	227.41
857.55	227.40
857.86	227.38
858.17	227.39
858.48	227.37
858.79	227.33
859.11	227.34
859.42	227.34
859.73	227.32
860.04	227.31
860.35	227.26
860.66	227.22
860.98	227.21
861.29	227.23
861.60	227.21
861.91	227.23
862.22	227.21
862.53	227.19
862.84	227.05
863.16	227.07
863.47	227.05
863.78	227.03
864.09	227.04
864.40	227.05
864.71	227.04
865.02	227.05
865.33	227.04
865.64	227.01
865.95	227.00
866.27	227.07
866.58	227.06
866.89	227.08
867.20	227.08
867.51	227.06
867.82	227.05
868.13	227.09
868.44	227.07
868.75	227.09
869.06	227.09
869.37	227.09
869.68	227.05
869.99	227.08
870.30	227.09
870.61	227.10
870.92	227.08
871.23	227.08
871.54	227.09
871.85	227.13
872.16	227.15
872.47	227.15
872.78	227.08
873.09	227.08
873.40	227.07
873.71	227.08
874.02	227.08
874.33	227.07
874.64	227.04
874.95	227.07
875.26	227.05
875.56	227.05
875.87	227.04
876.18	227.04
876.49	227.16
876.80	227.14
877.11	227.11
877.42	227.12
877.73	227.11
878.04	227.09
878.35	227.09
878.66	227.09
878.96	227.08
879.27	227.07
879.58	227.07
879.89	227.06
880.20	227.09
880.51	227.09
880.82	227.10
881.12	227.11
881.43	227.07
881.74	227.05
882.05	227.05
882.36	227.06
882.67	227.07
882.97	226.95
883.28	226.94
883.59	226.95
883.90	226.96
884.21	226.98
884.51	226.98
884.82	226.96
885.13	226.96
885.44	226.96
885.74	226.97
886.05	226.97
886.36	226.98
886.67	226.94
886.98	226.99
887.28	227.00
887.59	227.00
887.90	227.01
888.20	227.01
888.51	227.03
888.82	227.01
889.13	227.03
889.43	227.13
889.74	227.14
890.05	227.13
890.35	227.11
890.66	227.10
890.97	227.09
891.28	227.07
891.58	227.07
891.89	227.07
892.20	227.06
892.50	227.04
892.81	227.04
893.12	227.05
893.42	226.99
893.73	226.99
894.04	226.99
894.34	227.00
894.65	226.99
894.95	226.98
895.26	226.98
895.57	227.02
895.87	226.90
896.18	226.91
896.48	226.92
896.79	226.92
897.10	226.94
897.40	226.94
897.71	226.95
898.01	226.94
898.32	226.95
898.63	226.94
898.93	226.95
899.24	226.95
899.54	226.94
899.85	226.93
900.15	226.91
900.46	226.91
900.76	226.91
901.07	226.92
901.38	226.91
901.68	226.92
901.99	226.87
902.29	226.87
902.60	226.85
902.90	226.84
903.21	226.84
903.51	226.82
903.82	226.85
904.12	226.85
904.43	226.86
904.73	226.86
905.03	226.87
905.34	226.98
905.64	226.97
905.95	226.98
906.25	226.98
906.56	226.97
906.86	226.96
907.17	226.95
907.47	226.95
907.77	226.94
908.08	226.91
908.38	226.92
908.69	226.93
908.99	226.96
909.30	226.96
909.60	226.95
909.90	226.96
910.21	226.93
910.51	226.91
910.81	226.90
911.12	226.91
911.42	226.91
911.73	226.79
912.03	226.80
912.33	226.82
912.64	226.81
912.94	226.81
913.24	226.80
913.55	226.79
913.85	226.78
914.15	226.80
914.46	226.82
914.76	226.80
915.06	226.80
915.37	226.76
915.67	226.76
915.97	226.76
916.27	226.73
916.58	226.74
916.88	226.74
917.18	226.73
917.49	226.82
917.79	226.80
918.09	226.81
918.39	226.84
918.70	226.83
919.00	226.83
919.30	226.89
919.60	226.88
919.91	226.87
920.21	226.88
920.51	226.86
920.81	226.86
921.12	226.88
921.42	226.88
921.72	226.90
922.02	226.90
922.32	226.92
922.63	226.92
922.93	227.00
923.23	227.01
923.53	227.00
923.83	226.91
924.13	226.92
924.44	226.92
924.74	226.93
925.04	226.97
925.34	226.96
925.64	226.91
925.94	226.91
926.24	226.98
926.55	226.97
926.85	226.99
927.15	226.98
927.45	226.98
927.75	226.98
928.05	226.98
928.35	226.98
928.65	227.00
928.95	227.01
929.26	226.94
929.56	226.96
929.86	226.98
930.16	226.98
930.46	226.96
930.76	226.97
931.06	226.91
931.36	226.88
931.66	226.90
931.96	226.91
932.26	226.91
932.56	226.86
932.86	226.86
933.16	226.86
933.46	226.84
933.76	226.81
934.06	226.83
934.36	226.88
934.66	226.88
934.96	226.86
935.26	226.85
935.56	226.87
935.86	226.83
936.16	226.81
936.46	226.79
936.76	226.78
937.06	226.76
937.36	226.78
937.66	226.78
937.96	226.76
938.26	226.74
938.56	226.74
938.86	226.74
939.16	226.77
939.46	226.79
939.76	226.80
940.06	226.80
940.35	226.78
940.65	226.71
940.95	226.71
941.25	226.68
941.55	226.67
941.85	226.67
942.15	226.70
942.45	226.75
942.75	226.75
943.04	226.76
943.34	226.79
943.64	226.78
943.94	226.76
944.24	226.76
944.54	226.79
944.84	226.79
945.13	226.77
945.43	226.74
945.73	226.74
946.03	226.72
946.33	226.71
946.62	226.69
946.92	226.69
947.22	226.70
947.52	226.71
947.82	226.73
948.11	226.71
948.41	226.67
948.71	226.63
949.01	226.64
949.31	226.63
949.60	226.61
949.90	226.63
950.20	226.63
950.50	226.62
950.79	226.61
951.09	226.62
951.39	226.61
951.69	226.60
951.98	226.61
952.28	226.63
952.58	226.62
952.87	226.62
953.17	226.64
953.47	226.63
953.76	226.64
954.06	226.60
954.36	226.59
954.66	226.60
954.95	226.64
955.25	226.65
955.55	226.66
955.84	226.65
956.14	226.65
956.44	226.67
956.73	226.64
957.03	226.65
957.32	226.66
957.62	226.66
957.92	226.69
958.21	226.68
958.51	226.82
958.81	226.85
959.10	226.86
959.40	226.89
959.69	226.89
959.99	226.90
960.29	226.91
960.58	226.91
960.88	226.96
961.17	226.94
961.47	226.94
961.76	226.94
962.06	226.96
962.36	226.95
962.65	226.96
962.95	226.97
963.24	226.96
963.54	226.96
963.83	226.96
964.13	226.96
964.42	226.94
964.72	226.85
965.01	226.85
965.31	226.84
965.60	226.81
965.90	226.89
966.19	226.86
966.49	226.87
966.78	226.88
967.08	226.87
967.37	226.87
967.67	226.86
967.96	226.88
968.26	226.87
968.55	226.89
968.85	226.87
969.14	226.86
969.43	226.86
969.73	226.85
970.02	226.85
970.32	226.84
970.61	226.82
970.91	226.78
971.20	226.76
971.49	226.76
971.79	226.77
972.08	226.68
972.38	226.70
972.67	226.69
972.96	226.71
973.26	226.67
973.55	226.71
973.85	226.70
974.14	226.68
974.43	226.69
974.73	226.66
975.02	226.66
975.31	226.66
975.61	226.67
975.90	226.66
976.19	226.65
976.49	226.66
976.78	226.67
977.07	226.67
977.37	226.68
977.66	226.69
977.95	226.67
978.24	226.68
978.54	226.70
978.83	226.68
979.12	226.67
979.42	226.67
979.71	226.64
980.00	226.64
980.29	226.65
980.59	226.62
980.88	226.65
981.17	226.64
981.46	226.63
981.76	226.62
982.05	226.65
982.34	226.65
982.63	226.64
982.93	226.64
983.22	226.66
983.51	226.66
983.80	226.68
984.09	226.69
984.39	226.68
984.68	226.66
984.97	226.67
985.26	226.66
985.55	226.67
985.85	226.64
986.14	226.66
986.43	226.67
986.72	226.66
987.01	226.62
987.30	226.63
987.59	226.63
987.89	226.64
988.18	226.60
988.47	226.59
988.76	226.58
989.05	226.57
989.34	226.57
989.63	226.60
989.92	226.58
990.22	226.57
990.51	226.57
990.80	226.58
991.09	226.58
991.38	226.60
991.67	226.60
991.96	226.58
992.25	226.58
992.54	226.55
992.83	226.56
993.12	226.55
993.41	226.56
993.70	226.61
993.99	226.63
994.28	226.65
994.58	226.67
994.87	226.66
995.16	226.67
995.45	226.64
995.74	226.59
996.03	226.62
996.32	226.63
996.61	226.65
996.90	226.64
997.19	226.63
997.48	226.62
997.77	226.61
998.06	226.63
998.34	226.62
998.63	226.62
998.92	226.63
999.21	226.65
999.50	226.65
999.79	226.62
1000.08	226.61
1000.37	226.60
1000.66	226.58
1000.95	226.61
1001.24	226.62
1001.53	226.64
1001.82	226.63
1002.11	226.60
1002.40	226.61
1002.68	226.64
1002.97	226.73
1003.26	226.72
1003.55	226.71
1003.84	226.73
1004.13	226.77
1004.42	226.77
1004.71	226.77
1004.99	226.76
1005.28	226.78
1005.57	226.77
1005.86	226.76
1006.15	226.75
1006.44	226.73
1006.72	226.76
1007.01	226.74
1007.30	226.73
1007.59	226.71
1007.88	226.73
1008.17	226.74
1008.45	226.71
1008.74	226.66
1009.03	226.60
1009.32	226.60
1009.60	226.60
1009.89	226.58
1010.18	226.53
1010.47	226.53
1010.76	226.53
1011.04	226.52
1011.33	226.52
1011.62	226.54
1011.91	226.54
1012.19	226.54
1012.48	226.55
1012.77	226.54
1013.05	226.57
1013.34	226.57
1013.63	226.57
1013.92	226.57
1014.20	226.56
1014.49	226.56
1014.78	226.58
1015.06	226.53
1015.35	226.53
1015.64	226.55
1015.92	226.57
1016.21	226.57
1016.50	226.57
1016.78	226.59
1017.07	226.60
1017.36	226.57
1017.64	226.56
1017.93	226.57
1018.22	226.56
1018.50	226.55
1018.79	226.56
1019.08	226.52
1019.36	226.53
1019.65	226.52
1019.93	226.55
1020.22	226.57
1020.51	226.64
1020.79	226.61
1021.08	226.30
1021.36	226.46
1021.65	226.58
1021.94	226.50
1022.22	226.59
1022.51	226.30
1022.79	227.23
1023.08	226.61
1023.36	228.10
1023.65	226.15
>>>>>End Processed Spectral Data<<<<<
