SpectraSuite Data File
++++++++++++++++++++++++++++++++++++
Date: Fri Oct 02 17:08:30 EDT 2015
User: lab3
Dark Spectrum Present: No
Reference Spectrum Present: No
Number of Sampled Component Spectra: 1
Spectrometers: USB2E7196
Integration Time (usec): 46000 (USB2E7196)
Spectra Averaged: 1200 (USB2E7196)
Boxcar Smoothing: 10 (USB2E7196)
Correct for Electrical Dark: No (USB2E7196)
Strobe/Lamp Enabled: No (USB2E7196)
Correct for Detector Non-linearity: No (USB2E7196)
Correct for Stray Light: No (USB2E7196)
Number of Pixels in Processed Spectrum: 2048
>>>>>Begin Processed Spectral Data<<<<<
339.09	0.00
339.48	214.81
339.86	216.19
340.24	217.82
340.63	218.95
341.01	222.40
341.39	221.66
341.78	223.09
342.16	224.33
342.54	224.73
342.93	213.19
343.31	223.96
343.69	224.50
344.07	224.96
344.46	225.38
344.84	225.77
345.22	225.99
345.60	226.25
345.99	226.45
346.37	226.58
346.75	226.69
347.13	226.77
347.52	226.85
347.90	226.94
348.28	226.97
348.66	227.02
349.05	227.02
349.43	227.08
349.81	227.13
350.19	227.19
350.57	227.25
350.96	227.33
351.34	227.43
351.72	227.52
352.10	227.63
352.48	227.70
352.87	227.76
353.25	227.82
353.63	227.88
354.01	227.94
354.39	228.01
354.77	228.09
355.15	228.19
355.54	228.23
355.92	228.25
356.30	228.32
356.68	228.46
357.06	228.52
357.44	228.57
357.82	228.62
358.20	228.74
358.58	228.80
358.97	228.86
359.35	228.94
359.73	229.02
360.11	229.06
360.49	229.11
360.87	229.15
361.25	229.21
361.63	229.29
362.01	229.34
362.39	229.36
362.77	229.41
363.15	229.42
363.53	229.46
363.91	229.49
364.29	229.51
364.67	229.41
365.05	229.44
365.43	229.46
365.81	229.49
366.19	229.50
366.57	229.56
366.95	229.55
367.33	229.51
367.71	229.50
368.09	229.53
368.47	229.52
368.85	229.51
369.23	229.51
369.61	229.46
369.99	229.48
370.37	229.48
370.75	229.55
371.13	229.52
371.51	229.47
371.89	229.45
372.27	229.42
372.65	229.40
373.03	229.37
373.41	229.33
373.78	229.29
374.16	229.18
374.54	229.10
374.92	229.05
375.30	229.03
375.68	228.95
376.06	228.89
376.44	228.84
376.82	228.80
377.19	228.76
377.57	228.71
377.95	228.62
378.33	228.56
378.71	228.38
379.09	228.34
379.47	228.32
379.84	228.25
380.22	228.20
380.60	228.13
380.98	228.07
381.36	228.01
381.73	227.95
382.11	227.93
382.49	227.89
382.87	227.83
383.25	227.79
383.62	227.90
384.00	227.85
384.38	227.80
384.76	227.79
385.13	227.78
385.51	227.75
385.89	227.69
386.27	227.66
386.64	227.66
387.02	227.62
387.40	227.57
387.78	227.55
388.15	227.53
388.53	227.48
388.91	227.45
389.29	227.42
389.66	227.42
390.04	227.38
390.42	227.37
390.79	227.37
391.17	227.34
391.55	227.20
391.92	227.18
392.30	227.19
392.68	227.15
393.05	227.13
393.43	227.13
393.81	227.14
394.18	227.12
394.56	227.12
394.94	227.15
395.31	227.15
395.69	227.21
396.06	227.23
396.44	227.27
396.82	227.28
397.19	227.38
397.57	227.39
397.95	227.44
398.32	227.44
398.70	227.47
399.07	227.54
399.45	227.58
399.82	227.62
400.20	227.67
400.58	227.73
400.95	227.74
401.33	227.83
401.70	227.98
402.08	228.08
402.45	228.17
402.83	228.28
403.20	228.39
403.58	228.47
403.95	228.62
404.33	228.77
404.71	228.92
405.08	229.13
405.46	229.29
405.83	229.48
406.21	229.67
406.58	229.88
406.96	230.10
407.33	230.34
407.70	230.63
408.08	231.01
408.45	231.34
408.83	231.70
409.20	232.03
409.58	232.34
409.95	232.74
410.33	233.19
410.70	233.61
411.08	234.10
411.45	234.63
411.82	235.15
412.20	235.76
412.57	236.47
412.95	237.03
413.32	237.77
413.69	238.52
414.07	239.33
414.44	240.20
414.82	241.08
415.19	242.13
415.56	243.18
415.94	244.27
416.31	245.51
416.68	246.74
417.06	248.16
417.43	249.50
417.81	251.03
418.18	252.60
418.55	254.31
418.93	256.08
419.30	257.93
419.67	259.91
420.04	261.93
420.42	264.05
420.79	266.49
421.16	268.95
421.54	271.46
421.91	274.09
422.28	276.81
422.66	279.74
423.03	282.54
423.40	285.46
423.77	288.61
424.15	291.83
424.52	295.19
424.89	298.81
425.26	302.43
425.64	305.81
426.01	309.58
426.38	313.44
426.75	317.44
427.13	321.52
427.50	325.81
427.87	330.27
428.24	334.77
428.61	339.11
428.99	343.79
429.36	348.92
429.73	353.84
430.10	358.76
430.47	363.81
430.85	369.01
431.22	374.58
431.59	380.31
431.96	385.91
432.33	392.14
432.70	398.06
433.08	405.05
433.45	411.66
433.82	418.20
434.19	425.50
434.56	432.67
434.93	439.62
435.30	446.50
435.68	454.27
436.05	461.88
436.42	469.43
436.79	476.35
437.16	483.81
437.53	491.79
437.90	499.79
438.27	507.61
438.64	516.05
439.01	523.69
439.38	530.70
439.75	537.42
440.13	545.01
440.50	552.23
440.87	557.95
441.24	564.21
441.61	571.02
441.98	575.97
442.35	581.83
442.72	587.79
443.09	593.45
443.46	596.98
443.83	599.54
444.20	601.65
444.57	604.86
444.94	606.59
445.31	608.38
445.68	609.85
446.05	610.86
446.42	610.26
446.79	609.50
447.16	608.75
447.53	608.08
447.90	605.40
448.27	602.83
448.64	599.06
449.01	596.35
449.37	591.25
449.74	586.61
450.11	580.70
450.48	574.29
450.85	567.87
451.22	562.37
451.59	557.02
451.96	552.15
452.33	545.17
452.70	539.00
453.07	531.50
453.43	524.05
453.80	516.80
454.17	509.90
454.54	503.54
454.91	496.40
455.28	489.69
455.65	483.38
456.02	476.73
456.38	471.40
456.75	464.55
457.12	459.01
457.49	453.43
457.86	448.21
458.23	443.65
458.59	438.60
458.96	433.41
459.33	428.86
459.70	424.24
460.07	420.74
460.43	416.62
460.80	412.78
461.17	409.43
461.54	405.83
461.91	402.45
462.27	399.02
462.64	396.26
463.01	393.06
463.38	389.86
463.74	386.97
464.11	384.42
464.48	382.13
464.85	379.64
465.21	377.77
465.58	375.67
465.95	373.24
466.32	371.33
466.68	369.44
467.05	367.55
467.42	365.69
467.78	363.68
468.15	361.83
468.52	360.50
468.88	358.69
469.25	357.02
469.62	355.72
469.98	354.30
470.35	353.03
470.72	351.88
471.08	350.71
471.45	349.74
471.82	348.63
472.18	347.47
472.55	346.74
472.92	345.79
473.28	345.06
473.65	344.26
474.02	343.51
474.38	342.89
474.75	342.52
475.11	342.00
475.48	341.77
475.85	341.51
476.21	341.38
476.58	341.30
476.94	341.46
477.31	341.54
477.67	341.63
478.04	341.86
478.41	342.17
478.77	342.60
479.14	342.86
479.50	343.39
479.87	344.06
480.23	344.73
480.60	345.39
480.96	346.06
481.33	347.07
481.69	348.06
482.06	349.05
482.42	349.96
482.79	351.08
483.15	352.39
483.52	353.86
483.88	355.27
484.25	356.79
484.61	358.37
484.98	360.06
485.34	361.99
485.71	364.00
486.07	366.13
486.44	368.28
486.80	370.67
487.17	373.17
487.53	375.90
487.90	378.75
488.26	381.87
488.62	385.15
488.99	388.41
489.35	391.84
489.72	395.58
490.08	399.52
490.44	403.60
490.81	407.82
491.17	412.16
491.54	416.81
491.90	421.62
492.26	426.74
492.63	432.12
492.99	437.71
493.36	443.49
493.72	449.59
494.08	455.84
494.45	462.49
494.81	469.38
495.17	476.44
495.54	483.88
495.90	491.63
496.26	499.57
496.63	507.74
496.99	516.23
497.35	525.11
497.72	534.25
498.08	543.61
498.44	553.31
498.80	563.60
499.17	574.12
499.53	584.96
499.89	596.18
500.26	607.59
500.62	619.29
500.98	631.63
501.34	644.13
501.71	657.16
502.07	670.35
502.43	684.10
502.79	698.07
503.16	712.48
503.52	727.06
503.88	742.07
504.24	757.55
504.60	773.21
504.97	789.36
505.33	805.92
505.69	823.37
506.05	841.09
506.41	858.75
506.78	876.60
507.14	894.95
507.50	913.75
507.86	932.92
508.22	952.28
508.59	971.45
508.95	991.40
509.31	1012.09
509.67	1033.46
510.03	1054.73
510.39	1076.12
510.75	1097.68
511.12	1119.50
511.48	1141.45
511.84	1163.50
512.20	1185.88
512.56	1209.08
512.92	1232.27
513.28	1255.12
513.64	1278.19
514.00	1301.59
514.37	1325.34
514.73	1349.06
515.09	1372.60
515.45	1396.48
515.81	1420.48
516.17	1444.64
516.53	1468.29
516.89	1491.77
517.25	1515.42
517.61	1539.00
517.97	1562.96
518.33	1586.39
518.69	1609.73
519.05	1633.58
519.41	1657.57
519.77	1681.71
520.13	1705.16
520.49	1728.52
520.85	1752.13
521.21	1775.32
521.57	1798.96
521.93	1821.98
522.29	1845.47
522.65	1868.44
523.01	1891.31
523.37	1913.81
523.73	1936.96
524.09	1959.88
524.45	1982.54
524.81	2004.77
525.17	2026.78
525.53	2048.19
525.89	2070.00
526.25	2091.78
526.61	2112.51
526.97	2133.42
527.33	2154.27
527.68	2174.80
528.04	2194.55
528.40	2213.25
528.76	2232.28
529.12	2250.77
529.48	2268.94
529.84	2285.34
530.20	2302.34
530.56	2318.72
530.91	2335.23
531.27	2351.40
531.63	2366.73
531.99	2381.64
532.35	2395.81
532.71	2410.14
533.07	2425.09
533.42	2438.30
533.78	2452.34
534.14	2466.62
534.50	2479.94
534.86	2493.10
535.21	2504.35
535.57	2516.03
535.93	2527.61
536.29	2537.92
536.65	2548.17
537.00	2557.75
537.36	2568.25
537.72	2577.25
538.08	2585.83
538.44	2593.71
538.79	2601.20
539.15	2607.88
539.51	2614.15
539.87	2619.89
540.22	2623.76
540.58	2627.71
540.94	2632.86
541.29	2636.47
541.65	2638.38
542.01	2639.65
542.37	2640.22
542.72	2642.04
543.08	2642.36
543.44	2643.16
543.79	2643.00
544.15	2641.94
544.51	2641.25
544.87	2639.45
545.22	2637.10
545.58	2634.10
545.94	2631.12
546.29	2626.76
546.65	2622.53
547.01	2618.22
547.36	2614.57
547.72	2610.92
548.07	2605.73
548.43	2599.04
548.79	2591.59
549.14	2585.32
549.50	2579.29
549.86	2572.30
550.21	2564.34
550.57	2557.18
550.92	2547.93
551.28	2539.29
551.64	2530.92
551.99	2522.21
552.35	2512.93
552.70	2503.87
553.06	2495.12
553.41	2485.81
553.77	2476.43
554.13	2466.84
554.48	2456.50
554.84	2445.01
555.19	2434.04
555.55	2423.10
555.90	2412.29
556.26	2401.93
556.61	2390.56
556.97	2377.63
557.32	2365.26
557.68	2352.84
558.03	2340.27
558.39	2328.83
558.74	2317.58
559.10	2304.80
559.45	2292.14
559.81	2280.14
560.16	2267.54
560.52	2255.15
560.87	2243.02
561.23	2230.16
561.58	2217.49
561.94	2204.54
562.29	2191.00
562.64	2178.23
563.00	2165.13
563.35	2152.45
563.71	2139.56
564.06	2126.59
564.42	2114.32
564.77	2101.54
565.12	2088.67
565.48	2075.75
565.83	2062.83
566.19	2050.02
566.54	2037.21
566.89	2023.38
567.25	2009.74
567.60	1997.31
567.96	1984.07
568.31	1969.59
568.66	1955.83
569.02	1943.12
569.37	1930.39
569.72	1918.26
570.08	1904.83
570.43	1891.07
570.78	1877.14
571.14	1862.68
571.49	1848.81
571.84	1835.54
572.20	1821.12
572.55	1806.99
572.90	1792.70
573.26	1778.45
573.61	1763.76
573.96	1749.52
574.31	1735.50
574.67	1721.45
575.02	1706.54
575.37	1691.75
575.72	1677.82
576.08	1664.14
576.43	1649.40
576.78	1635.03
577.13	1620.92
577.49	1607.23
577.84	1594.12
578.19	1580.17
578.54	1566.41
578.90	1552.19
579.25	1537.85
579.60	1525.00
579.95	1512.03
580.30	1498.95
580.66	1485.67
581.01	1472.34
581.36	1458.99
581.71	1446.61
582.06	1434.10
582.42	1421.79
582.77	1409.55
583.12	1397.23
583.47	1384.85
583.82	1372.56
584.17	1359.97
584.53	1347.06
584.88	1334.54
585.23	1321.60
585.58	1309.46
585.93	1297.49
586.28	1286.24
586.63	1274.96
586.98	1263.26
587.34	1251.61
587.69	1239.77
588.04	1228.20
588.39	1217.02
588.74	1205.95
589.09	1194.70
589.44	1183.05
589.79	1172.04
590.14	1161.12
590.49	1150.17
590.84	1139.29
591.19	1128.82
591.54	1118.21
591.89	1107.78
592.25	1097.49
592.60	1086.95
592.95	1076.74
593.30	1066.70
593.65	1056.41
594.00	1046.26
594.35	1036.64
594.70	1026.58
595.05	1017.35
595.40	1008.01
595.75	998.55
596.10	989.56
596.45	980.33
596.80	971.48
597.15	962.40
597.50	953.41
597.85	944.80
598.19	936.09
598.54	927.43
598.89	919.19
599.24	911.20
599.59	903.02
599.94	895.67
600.29	888.18
600.64	880.46
600.99	872.41
601.34	864.67
601.69	856.60
602.04	849.22
602.39	841.64
602.74	834.17
603.08	826.66
603.43	819.09
603.78	811.72
604.13	804.46
604.48	797.17
604.83	790.09
605.18	782.92
605.53	775.89
605.87	768.69
606.22	761.78
606.57	754.84
606.92	747.82
607.27	740.72
607.62	733.91
607.96	727.47
608.31	721.42
608.66	715.22
609.01	709.27
609.36	703.43
609.70	697.38
610.05	691.30
610.40	685.48
610.75	679.64
611.10	674.08
611.44	668.39
611.79	662.80
612.14	657.15
612.49	651.61
612.83	646.33
613.18	641.19
613.53	635.96
613.88	630.74
614.22	625.92
614.57	621.01
614.92	615.97
615.27	611.02
615.61	606.16
615.96	601.33
616.31	596.51
616.65	591.72
617.00	587.13
617.35	582.64
617.70	578.20
618.04	573.82
618.39	569.37
618.74	565.14
619.08	560.96
619.43	556.91
619.78	552.84
620.12	548.76
620.47	544.81
620.82	540.95
621.16	537.11
621.51	533.18
621.85	529.29
622.20	525.56
622.55	521.86
622.89	518.21
623.24	514.58
623.59	511.01
623.93	507.58
624.28	504.22
624.62	500.97
624.97	497.74
625.32	494.48
625.66	491.18
626.01	487.86
626.35	484.59
626.70	481.35
627.04	478.28
627.39	475.15
627.73	472.18
628.08	469.28
628.43	466.37
628.77	463.53
629.12	460.79
629.46	458.07
629.81	455.28
630.15	452.49
630.50	449.78
630.84	447.12
631.19	444.49
631.53	441.98
631.88	439.41
632.22	436.88
632.57	434.59
632.91	432.35
633.26	430.17
633.60	428.02
633.95	425.92
634.29	423.74
634.64	421.64
634.98	419.35
635.32	417.20
635.67	415.24
636.01	413.20
636.36	411.20
636.70	409.33
637.05	407.45
637.39	405.60
637.73	403.78
638.08	402.05
638.42	400.30
638.77	398.44
639.11	396.53
639.45	394.68
639.80	392.79
640.14	390.99
640.49	389.19
640.83	387.36
641.17	385.60
641.52	383.88
641.86	382.18
642.20	380.66
642.55	379.00
642.89	377.35
643.23	375.78
643.58	374.38
643.92	372.85
644.26	371.36
644.61	369.95
644.95	368.48
645.29	366.95
645.64	365.44
645.98	363.98
646.32	362.65
646.66	361.30
647.01	359.98
647.35	358.70
647.69	357.39
648.04	356.21
648.38	354.94
648.72	353.71
649.06	352.48
649.41	351.25
649.75	350.06
650.09	348.89
650.43	347.74
650.78	346.52
651.12	345.34
651.46	344.22
651.80	343.09
652.14	342.00
652.49	340.95
652.83	339.88
653.17	338.86
653.51	337.86
653.85	336.90
654.20	335.88
654.54	334.80
654.88	333.81
655.22	332.84
655.56	331.85
655.90	330.91
656.25	330.00
656.59	329.08
656.93	328.22
657.27	327.36
657.61	326.43
657.95	325.56
658.29	324.68
658.64	323.84
658.98	323.01
659.32	322.19
659.66	321.41
660.00	320.65
660.34	319.89
660.68	319.10
661.02	318.27
661.36	317.48
661.70	316.72
662.05	315.97
662.39	315.24
662.73	314.59
663.07	313.93
663.41	313.24
663.75	312.54
664.09	311.83
664.43	311.10
664.77	310.45
665.11	309.74
665.45	309.10
665.79	308.45
666.13	307.77
666.47	307.08
666.81	306.38
667.15	305.65
667.49	305.00
667.83	304.41
668.17	303.81
668.51	303.24
668.85	302.70
669.19	302.18
669.53	301.57
669.87	300.93
670.21	300.32
670.55	299.75
670.89	299.25
671.23	298.70
671.57	298.18
671.91	297.70
672.25	297.23
672.58	296.76
672.92	296.21
673.26	295.76
673.60	295.30
673.94	294.84
674.28	294.43
674.62	293.98
674.96	293.48
675.30	293.04
675.64	292.54
675.97	292.03
676.31	291.50
676.65	291.03
676.99	290.63
677.33	290.14
677.67	289.69
678.01	289.16
678.34	288.71
678.68	288.28
679.02	287.79
679.36	287.33
679.70	286.85
680.04	286.41
680.37	285.96
680.71	285.54
681.05	285.12
681.39	284.66
681.73	284.17
682.06	283.71
682.40	283.27
682.74	282.89
683.08	282.54
683.42	282.15
683.75	281.77
684.09	281.31
684.43	280.92
684.77	280.51
685.10	280.16
685.44	279.77
685.78	279.39
686.12	279.01
686.45	278.61
686.79	278.20
687.13	277.84
687.46	277.44
687.80	277.04
688.14	276.61
688.48	276.25
688.81	275.88
689.15	275.54
689.49	275.14
689.82	274.74
690.16	274.29
690.50	273.91
690.83	273.52
691.17	273.14
691.51	272.77
691.84	272.41
692.18	272.02
692.52	271.63
692.85	271.25
693.19	270.92
693.52	270.55
693.86	270.18
694.20	269.81
694.53	269.47
694.87	269.09
695.21	268.73
695.54	268.38
695.88	268.00
696.21	267.61
696.55	267.27
696.88	266.93
697.22	266.59
697.56	266.25
697.89	265.86
698.23	265.52
698.56	265.16
698.90	264.81
699.23	264.45
699.57	264.10
699.90	263.74
700.24	263.36
700.58	263.05
700.91	262.77
701.25	262.55
701.58	262.28
701.92	262.00
702.25	261.69
702.59	261.35
702.92	261.05
703.26	260.73
703.59	260.40
703.93	260.18
704.26	259.88
704.60	259.54
704.93	259.23
705.26	258.91
705.60	258.65
705.93	258.33
706.27	258.07
706.60	257.82
706.94	257.57
707.27	257.26
707.61	256.95
707.94	256.62
708.27	256.21
708.61	255.86
708.94	255.55
709.28	255.27
709.61	254.99
709.94	254.72
710.28	254.48
710.61	254.24
710.95	253.88
711.28	253.70
711.61	253.45
711.95	253.23
712.28	252.96
712.61	252.67
712.95	252.49
713.28	252.30
713.61	252.01
713.95	251.72
714.28	251.49
714.61	251.24
714.95	251.01
715.28	250.78
715.61	250.55
715.95	250.34
716.28	250.12
716.61	249.94
716.95	249.70
717.28	249.48
717.61	249.25
717.94	249.03
718.28	248.73
718.61	248.51
718.94	248.27
719.27	248.08
719.61	247.90
719.94	247.67
720.27	247.38
720.60	247.18
720.94	246.98
721.27	246.79
721.60	246.62
721.93	246.42
722.27	246.26
722.60	246.09
722.93	245.87
723.26	245.68
723.59	245.46
723.93	245.28
724.26	245.10
724.59	244.91
724.92	244.75
725.25	244.62
725.59	244.45
725.92	244.31
726.25	244.13
726.58	243.97
726.91	243.79
727.24	243.66
727.57	243.50
727.91	243.32
728.24	243.17
728.57	242.99
728.90	242.85
729.23	242.66
729.56	242.55
729.89	242.40
730.22	242.23
730.55	242.09
730.89	241.93
731.22	241.77
731.55	241.62
731.88	241.47
732.21	241.30
732.54	241.16
732.87	241.00
733.20	240.88
733.53	240.73
733.86	240.60
734.19	240.45
734.52	240.34
734.85	240.30
735.18	240.14
735.51	240.06
735.84	239.94
736.17	239.84
736.50	239.65
736.83	239.68
737.16	239.56
737.49	239.45
737.82	239.32
738.15	239.23
738.48	239.12
738.81	238.98
739.14	238.85
739.47	238.73
739.80	238.60
740.13	238.49
740.46	238.36
740.79	238.22
741.12	238.10
741.45	237.96
741.78	237.78
742.11	237.70
742.44	237.56
742.77	237.45
743.10	237.33
743.43	237.22
743.75	236.98
744.08	237.07
744.41	236.95
744.74	236.86
745.07	236.72
745.40	236.65
745.73	236.61
746.06	236.51
746.39	236.43
746.71	236.32
747.04	236.20
747.37	236.11
747.70	236.04
748.03	235.95
748.36	235.89
748.68	235.80
749.01	235.67
749.34	235.59
749.67	235.51
750.00	235.43
750.33	235.44
750.65	235.36
750.98	235.09
751.31	235.01
751.64	234.92
751.97	234.90
752.29	234.81
752.62	234.67
752.95	234.58
753.28	234.48
753.60	234.40
753.93	234.36
754.26	234.29
754.59	234.17
754.91	234.07
755.24	233.98
755.57	233.95
755.90	233.86
756.22	233.77
756.55	233.67
756.88	233.57
757.20	233.41
757.53	233.29
757.86	233.21
758.19	233.14
758.51	233.07
758.84	232.95
759.17	232.85
759.49	232.78
759.82	232.78
760.15	232.73
760.47	232.66
760.80	232.55
761.13	232.51
761.45	232.45
761.78	232.39
762.11	232.33
762.43	232.21
762.76	232.15
763.08	232.10
763.41	232.04
763.74	232.00
764.06	231.94
764.39	231.89
764.71	231.85
765.04	231.79
765.37	231.72
765.69	231.67
766.02	231.62
766.34	231.57
766.67	231.47
767.00	231.43
767.32	231.46
767.65	231.49
767.97	231.42
768.30	231.39
768.62	231.35
768.95	231.29
769.27	231.24
769.60	231.21
769.92	231.14
770.25	231.08
770.57	231.01
770.90	230.97
771.22	230.93
771.55	230.88
771.87	230.85
772.20	230.80
772.52	230.86
772.85	230.97
773.17	230.93
773.50	230.88
773.82	230.82
774.15	230.72
774.47	230.60
774.80	230.55
775.12	230.51
775.45	230.47
775.77	230.44
776.09	230.42
776.42	230.39
776.74	230.40
777.07	230.37
777.39	230.34
777.72	230.30
778.04	230.29
778.36	230.24
778.69	230.22
779.01	230.20
779.33	230.06
779.66	229.89
779.98	229.85
780.31	229.84
780.63	229.86
780.95	229.85
781.28	229.83
781.60	229.80
781.92	229.77
782.25	229.74
782.57	229.71
782.89	229.67
783.22	229.64
783.54	229.59
783.86	229.57
784.19	229.54
784.51	229.55
784.83	229.50
785.16	229.48
785.48	229.45
785.80	229.42
786.12	229.40
786.45	229.38
786.77	229.37
787.09	229.32
787.42	229.25
787.74	229.23
788.06	229.22
788.38	229.19
788.71	229.15
789.03	229.14
789.35	229.13
789.67	229.09
789.99	229.07
790.32	229.04
790.64	229.04
790.96	229.13
791.28	229.06
791.61	229.03
791.93	229.02
792.25	228.99
792.57	229.06
792.89	229.02
793.21	229.01
793.54	228.99
793.86	228.97
794.18	228.96
794.50	228.91
794.82	228.89
795.14	228.89
795.47	228.89
795.79	228.88
796.11	228.84
796.43	228.83
796.75	228.81
797.07	228.80
797.39	228.77
797.71	228.64
798.04	228.64
798.36	228.64
798.68	228.62
799.00	228.62
799.32	228.55
799.64	228.56
799.96	228.54
800.28	228.54
800.60	228.52
800.92	228.52
801.24	228.50
801.56	228.49
801.89	228.47
802.21	228.46
802.53	228.42
802.85	228.44
803.17	228.48
803.49	228.44
803.81	228.42
804.13	228.40
804.45	228.38
804.77	228.36
805.09	228.35
805.41	228.33
805.73	228.29
806.05	228.24
806.37	228.22
806.69	228.20
807.01	228.18
807.33	228.17
807.65	228.12
807.97	228.17
808.28	228.14
808.60	228.13
808.92	228.10
809.24	228.18
809.56	228.15
809.88	228.09
810.20	228.10
810.52	228.10
810.84	228.07
811.16	228.07
811.48	228.05
811.80	228.09
812.12	228.08
812.43	228.11
812.75	228.11
813.07	228.09
813.39	228.08
813.71	228.06
814.03	228.04
814.35	228.04
814.67	227.97
814.98	227.95
815.30	227.94
815.62	227.90
815.94	227.81
816.26	227.82
816.58	227.79
816.89	227.79
817.21	227.76
817.53	227.77
817.85	227.76
818.17	227.75
818.48	227.69
818.80	227.70
819.12	227.67
819.44	227.65
819.76	227.62
820.07	227.62
820.39	227.61
820.71	227.63
821.03	227.62
821.34	227.60
821.66	227.61
821.98	227.64
822.30	227.64
822.61	227.70
822.93	227.67
823.25	227.67
823.57	227.65
823.88	227.66
824.20	227.66
824.52	227.66
824.83	227.65
825.15	227.63
825.47	227.62
825.79	227.62
826.10	227.60
826.42	227.61
826.74	227.61
827.05	227.58
827.37	227.58
827.69	227.56
828.00	227.57
828.32	227.56
828.64	227.52
828.95	227.58
829.27	227.54
829.58	227.55
829.90	227.55
830.22	227.55
830.53	227.52
830.85	227.51
831.17	227.46
831.48	227.45
831.80	227.45
832.11	227.44
832.43	227.41
832.75	227.40
833.06	227.46
833.38	227.42
833.69	227.42
834.01	227.42
834.32	227.41
834.64	227.39
834.96	227.38
835.27	227.37
835.59	227.31
835.90	227.28
836.22	227.27
836.53	227.25
836.85	227.22
837.16	227.34
837.48	227.33
837.79	227.38
838.11	227.38
838.42	227.38
838.74	227.39
839.05	227.38
839.37	227.37
839.68	227.30
840.00	227.29
840.31	227.30
840.63	227.27
840.94	227.27
841.26	227.26
841.57	227.25
841.88	227.26
842.20	227.25
842.51	227.23
842.83	227.21
843.14	227.32
843.46	227.32
843.77	227.24
844.08	227.24
844.40	227.19
844.71	227.17
845.03	227.17
845.34	227.15
845.65	227.14
845.97	227.15
846.28	227.15
846.60	227.16
846.91	227.14
847.22	227.14
847.54	227.16
847.85	227.17
848.16	227.15
848.48	227.13
848.79	227.17
849.10	227.18
849.42	227.20
849.73	227.08
850.04	227.08
850.36	227.05
850.67	227.06
850.98	227.07
851.30	227.07
851.61	227.06
851.92	227.06
852.23	227.10
852.55	227.11
852.86	227.11
853.17	227.11
853.49	227.13
853.80	227.16
854.11	227.17
854.42	227.17
854.74	227.16
855.05	227.16
855.36	227.10
855.67	227.11
855.99	227.09
856.30	227.23
856.61	227.23
856.92	227.23
857.23	227.24
857.55	227.22
857.86	227.21
858.17	227.23
858.48	227.20
858.79	227.17
859.11	227.17
859.42	227.17
859.73	227.15
860.04	227.15
860.35	227.10
860.66	227.06
860.98	227.05
861.29	227.07
861.60	227.07
861.91	227.10
862.22	227.08
862.53	227.07
862.84	226.92
863.16	226.95
863.47	226.92
863.78	226.90
864.09	226.91
864.40	226.92
864.71	226.90
865.02	226.93
865.33	226.90
865.64	226.88
865.95	226.88
866.27	226.96
866.58	226.94
866.89	226.96
867.20	226.95
867.51	226.94
867.82	226.92
868.13	226.95
868.44	226.92
868.75	226.94
869.06	226.94
869.37	226.95
869.68	226.91
869.99	226.94
870.30	226.94
870.61	226.95
870.92	226.93
871.23	226.93
871.54	226.94
871.85	226.98
872.16	226.99
872.47	226.98
872.78	226.92
873.09	226.93
873.40	226.91
873.71	226.94
874.02	226.95
874.33	226.94
874.64	226.91
874.95	226.93
875.26	226.90
875.56	226.91
875.87	226.90
876.18	226.91
876.49	227.04
876.80	227.02
877.11	227.00
877.42	227.00
877.73	227.00
878.04	226.98
878.35	226.97
878.66	226.97
878.96	226.97
879.27	226.96
879.58	226.95
879.89	226.94
880.20	226.97
880.51	226.96
880.82	226.97
881.12	226.97
881.43	226.95
881.74	226.94
882.05	226.94
882.36	226.94
882.67	226.94
882.97	226.80
883.28	226.79
883.59	226.79
883.90	226.80
884.21	226.82
884.51	226.80
884.82	226.78
885.13	226.77
885.44	226.77
885.74	226.77
886.05	226.77
886.36	226.77
886.67	226.72
886.98	226.79
887.28	226.79
887.59	226.79
887.90	226.79
888.20	226.78
888.51	226.80
888.82	226.78
889.13	226.79
889.43	226.89
889.74	226.89
890.05	226.89
890.35	226.87
890.66	226.85
890.97	226.85
891.28	226.84
891.58	226.84
891.89	226.85
892.20	226.82
892.50	226.80
892.81	226.79
893.12	226.80
893.42	226.72
893.73	226.72
894.04	226.73
894.34	226.74
894.65	226.74
894.95	226.72
895.26	226.74
895.57	226.79
895.87	226.66
896.18	226.68
896.48	226.69
896.79	226.70
897.10	226.71
897.40	226.72
897.71	226.74
898.01	226.73
898.32	226.73
898.63	226.73
898.93	226.76
899.24	226.76
899.54	226.75
899.85	226.75
900.15	226.75
900.46	226.75
900.76	226.75
901.07	226.74
901.38	226.73
901.68	226.74
901.99	226.67
902.29	226.69
902.60	226.67
902.90	226.66
903.21	226.65
903.51	226.64
903.82	226.66
904.12	226.66
904.43	226.67
904.73	226.67
905.03	226.68
905.34	226.80
905.64	226.80
905.95	226.79
906.25	226.80
906.56	226.79
906.86	226.79
907.17	226.78
907.47	226.79
907.77	226.79
908.08	226.78
908.38	226.78
908.69	226.79
908.99	226.81
909.30	226.82
909.60	226.82
909.90	226.84
910.21	226.80
910.51	226.78
910.81	226.77
911.12	226.77
911.42	226.78
911.73	226.64
912.03	226.65
912.33	226.68
912.64	226.66
912.94	226.64
913.24	226.62
913.55	226.62
913.85	226.61
914.15	226.63
914.46	226.64
914.76	226.63
915.06	226.62
915.37	226.60
915.67	226.58
915.97	226.58
916.27	226.55
916.58	226.55
916.88	226.55
917.18	226.54
917.49	226.62
917.79	226.61
918.09	226.63
918.39	226.66
918.70	226.65
919.00	226.67
919.30	226.74
919.60	226.73
919.91	226.71
920.21	226.72
920.51	226.68
920.81	226.68
921.12	226.70
921.42	226.71
921.72	226.71
922.02	226.72
922.32	226.74
922.63	226.74
922.93	226.81
923.23	226.82
923.53	226.81
923.83	226.72
924.13	226.74
924.44	226.72
924.74	226.74
925.04	226.76
925.34	226.75
925.64	226.69
925.94	226.70
926.24	226.77
926.55	226.76
926.85	226.78
927.15	226.78
927.45	226.76
927.75	226.75
928.05	226.75
928.35	226.74
928.65	226.75
928.95	226.76
929.26	226.71
929.56	226.73
929.86	226.75
930.16	226.74
930.46	226.73
930.76	226.75
931.06	226.69
931.36	226.66
931.66	226.68
931.96	226.68
932.26	226.68
932.56	226.63
932.86	226.64
933.16	226.64
933.46	226.64
933.76	226.63
934.06	226.65
934.36	226.69
934.66	226.69
934.96	226.68
935.26	226.68
935.56	226.68
935.86	226.64
936.16	226.63
936.46	226.62
936.76	226.61
937.06	226.58
937.36	226.59
937.66	226.59
937.96	226.58
938.26	226.56
938.56	226.56
938.86	226.57
939.16	226.59
939.46	226.61
939.76	226.61
940.06	226.61
940.35	226.59
940.65	226.53
940.95	226.54
941.25	226.51
941.55	226.50
941.85	226.49
942.15	226.52
942.45	226.54
942.75	226.54
943.04	226.55
943.34	226.57
943.64	226.55
943.94	226.54
944.24	226.55
944.54	226.55
944.84	226.55
945.13	226.52
945.43	226.49
945.73	226.48
946.03	226.47
946.33	226.46
946.62	226.45
946.92	226.45
947.22	226.45
947.52	226.46
947.82	226.47
948.11	226.45
948.41	226.43
948.71	226.40
949.01	226.41
949.31	226.40
949.60	226.40
949.90	226.42
950.20	226.42
950.50	226.40
950.79	226.40
951.09	226.42
951.39	226.42
951.69	226.41
951.98	226.42
952.28	226.42
952.58	226.42
952.87	226.41
953.17	226.43
953.47	226.40
953.76	226.40
954.06	226.38
954.36	226.37
954.66	226.37
954.95	226.40
955.25	226.41
955.55	226.42
955.84	226.39
956.14	226.40
956.44	226.40
956.73	226.39
957.03	226.39
957.32	226.39
957.62	226.38
957.92	226.42
958.21	226.41
958.51	226.56
958.81	226.57
959.10	226.59
959.40	226.61
959.69	226.64
959.99	226.66
960.29	226.66
960.58	226.66
960.88	226.71
961.17	226.70
961.47	226.71
961.76	226.70
962.06	226.71
962.36	226.70
962.65	226.71
962.95	226.72
963.24	226.71
963.54	226.71
963.83	226.72
964.13	226.72
964.42	226.71
964.72	226.60
965.01	226.61
965.31	226.60
965.60	226.58
965.90	226.66
966.19	226.62
966.49	226.63
966.78	226.64
967.08	226.63
967.37	226.63
967.67	226.60
967.96	226.63
968.26	226.63
968.55	226.64
968.85	226.63
969.14	226.63
969.43	226.63
969.73	226.63
970.02	226.62
970.32	226.60
970.61	226.58
970.91	226.55
971.20	226.52
971.49	226.51
971.79	226.52
972.08	226.44
972.38	226.45
972.67	226.44
972.96	226.45
973.26	226.42
973.55	226.45
973.85	226.45
974.14	226.44
974.43	226.45
974.73	226.44
975.02	226.43
975.31	226.43
975.61	226.43
975.90	226.42
976.19	226.41
976.49	226.43
976.78	226.44
977.07	226.44
977.37	226.44
977.66	226.46
977.95	226.44
978.24	226.45
978.54	226.48
978.83	226.46
979.12	226.45
979.42	226.46
979.71	226.44
980.00	226.44
980.29	226.43
980.59	226.41
980.88	226.44
981.17	226.43
981.46	226.42
981.76	226.42
982.05	226.45
982.34	226.47
982.63	226.46
982.93	226.47
983.22	226.50
983.51	226.50
983.80	226.51
984.09	226.53
984.39	226.52
984.68	226.50
984.97	226.51
985.26	226.49
985.55	226.49
985.85	226.47
986.14	226.48
986.43	226.49
986.72	226.47
987.01	226.44
987.30	226.44
987.59	226.44
987.89	226.45
988.18	226.42
988.47	226.41
988.76	226.41
989.05	226.39
989.34	226.38
989.63	226.41
989.92	226.39
990.22	226.36
990.51	226.36
990.80	226.35
991.09	226.36
991.38	226.38
991.67	226.37
991.96	226.37
992.25	226.36
992.54	226.35
992.83	226.35
993.12	226.36
993.41	226.37
993.70	226.41
993.99	226.43
994.28	226.44
994.58	226.46
994.87	226.44
995.16	226.44
995.45	226.42
995.74	226.38
996.03	226.40
996.32	226.43
996.61	226.45
996.90	226.46
997.19	226.45
997.48	226.46
997.77	226.44
998.06	226.45
998.34	226.44
998.63	226.45
998.92	226.46
999.21	226.47
999.50	226.48
999.79	226.44
1000.08	226.43
1000.37	226.44
1000.66	226.42
1000.95	226.46
1001.24	226.47
1001.53	226.50
1001.82	226.50
1002.11	226.47
1002.40	226.47
1002.68	226.51
1002.97	226.58
1003.26	226.58
1003.55	226.56
1003.84	226.58
1004.13	226.62
1004.42	226.61
1004.71	226.62
1004.99	226.60
1005.28	226.64
1005.57	226.62
1005.86	226.60
1006.15	226.60
1006.44	226.57
1006.72	226.60
1007.01	226.57
1007.30	226.57
1007.59	226.55
1007.88	226.54
1008.17	226.55
1008.45	226.53
1008.74	226.47
1009.03	226.42
1009.32	226.41
1009.60	226.40
1009.89	226.39
1010.18	226.34
1010.47	226.34
1010.76	226.34
1011.04	226.34
1011.33	226.33
1011.62	226.33
1011.91	226.35
1012.19	226.35
1012.48	226.36
1012.77	226.35
1013.05	226.39
1013.34	226.39
1013.63	226.39
1013.92	226.41
1014.20	226.40
1014.49	226.42
1014.78	226.44
1015.06	226.40
1015.35	226.41
1015.64	226.43
1015.92	226.45
1016.21	226.46
1016.50	226.46
1016.78	226.47
1017.07	226.48
1017.36	226.46
1017.64	226.45
1017.93	226.45
1018.22	226.44
1018.50	226.44
1018.79	226.43
1019.08	226.39
1019.36	226.39
1019.65	226.38
1019.93	226.41
1020.22	226.42
1020.51	226.49
1020.79	226.47
1021.08	226.07
1021.36	226.26
1021.65	226.35
1021.94	226.37
1022.22	226.46
1022.51	226.13
1022.79	227.05
1023.08	226.56
1023.36	228.05
1023.65	226.11
>>>>>End Processed Spectral Data<<<<<
