SpectraSuite Data File
++++++++++++++++++++++++++++++++++++
Date: Sun Oct 04 10:48:18 EDT 2015
User: lab3
Dark Spectrum Present: No
Reference Spectrum Present: No
Number of Sampled Component Spectra: 1
Spectrometers: USB2E7196
Integration Time (usec): 46000 (USB2E7196)
Spectra Averaged: 24000 (USB2E7196)
Boxcar Smoothing: 10 (USB2E7196)
Correct for Electrical Dark: No (USB2E7196)
Strobe/Lamp Enabled: No (USB2E7196)
Correct for Detector Non-linearity: No (USB2E7196)
Correct for Stray Light: No (USB2E7196)
Number of Pixels in Processed Spectrum: 2048
>>>>>Begin Processed Spectral Data<<<<<
339.09	0.00
339.48	214.45
339.86	215.92
340.24	217.25
340.63	218.68
341.01	221.94
341.39	221.39
341.78	222.79
342.16	223.98
342.54	224.40
342.93	212.84
343.31	223.60
343.69	224.13
344.07	224.59
344.46	225.03
344.84	225.42
345.22	225.64
345.60	225.91
345.99	226.10
346.37	226.24
346.75	226.36
347.13	226.44
347.52	226.52
347.90	226.61
348.28	226.65
348.66	226.71
349.05	226.71
349.43	226.77
349.81	226.83
350.19	226.89
350.57	226.96
350.96	227.05
351.34	227.15
351.72	227.25
352.10	227.36
352.48	227.43
352.87	227.48
353.25	227.55
353.63	227.61
354.01	227.67
354.39	227.75
354.77	227.82
355.15	227.93
355.54	227.98
355.92	228.01
356.30	228.09
356.68	228.24
357.06	228.31
357.44	228.36
357.82	228.42
358.20	228.54
358.58	228.59
358.97	228.66
359.35	228.74
359.73	228.83
360.11	228.87
360.49	228.93
360.87	228.99
361.25	229.05
361.63	229.14
362.01	229.19
362.39	229.22
362.77	229.27
363.15	229.29
363.53	229.32
363.91	229.36
364.29	229.38
364.67	229.28
365.05	229.30
365.43	229.34
365.81	229.37
366.19	229.38
366.57	229.44
366.95	229.44
367.33	229.41
367.71	229.40
368.09	229.42
368.47	229.42
368.85	229.41
369.23	229.42
369.61	229.36
369.99	229.38
370.37	229.38
370.75	229.45
371.13	229.42
371.51	229.38
371.89	229.36
372.27	229.34
372.65	229.32
373.03	229.28
373.41	229.23
373.78	229.18
374.16	229.08
374.54	229.00
374.92	228.95
375.30	228.91
375.68	228.84
376.06	228.80
376.44	228.74
376.82	228.70
377.19	228.65
377.57	228.60
377.95	228.51
378.33	228.45
378.71	228.28
379.09	228.24
379.47	228.21
379.84	228.15
380.22	228.08
380.60	228.01
380.98	227.96
381.36	227.91
381.73	227.85
382.11	227.83
382.49	227.79
382.87	227.73
383.25	227.68
383.62	227.79
384.00	227.72
384.38	227.68
384.76	227.67
385.13	227.67
385.51	227.63
385.89	227.58
386.27	227.55
386.64	227.53
387.02	227.48
387.40	227.44
387.78	227.42
388.15	227.39
388.53	227.36
388.91	227.33
389.29	227.30
389.66	227.30
390.04	227.26
390.42	227.26
390.79	227.25
391.17	227.24
391.55	227.08
391.92	227.07
392.30	227.08
392.68	227.04
393.05	227.02
393.43	227.02
393.81	227.03
394.18	227.01
394.56	227.02
394.94	227.05
395.31	227.06
395.69	227.10
396.06	227.14
396.44	227.16
396.82	227.18
397.19	227.27
397.57	227.29
397.95	227.34
398.32	227.33
398.70	227.39
399.07	227.46
399.45	227.50
399.82	227.55
400.20	227.59
400.58	227.66
400.95	227.68
401.33	227.77
401.70	227.94
402.08	228.05
402.45	228.14
402.83	228.27
403.20	228.40
403.58	228.50
403.95	228.66
404.33	228.83
404.71	228.99
405.08	229.22
405.46	229.40
405.83	229.61
406.21	229.83
406.58	230.07
406.96	230.31
407.33	230.59
407.70	230.91
408.08	231.33
408.45	231.70
408.83	232.10
409.20	232.47
409.58	232.81
409.95	233.26
410.33	233.76
410.70	234.22
411.08	234.77
411.45	235.35
411.82	235.94
412.20	236.61
412.57	237.41
412.95	238.04
413.32	238.86
413.69	239.71
414.07	240.61
414.44	241.58
414.82	242.57
415.19	243.73
415.56	244.91
415.94	246.14
416.31	247.51
416.68	248.88
417.06	250.47
417.43	251.96
417.81	253.67
418.18	255.43
418.55	257.34
418.93	259.33
419.30	261.40
419.67	263.61
420.04	265.87
420.42	268.23
420.79	270.95
421.16	273.70
421.54	276.50
421.91	279.42
422.28	282.46
422.66	285.74
423.03	288.86
423.40	292.14
423.77	295.66
424.15	299.26
424.52	303.01
424.89	307.07
425.26	311.11
425.64	314.86
426.01	319.08
426.38	323.40
426.75	327.84
427.13	332.40
427.50	337.18
427.87	342.15
428.24	347.17
428.61	352.00
428.99	357.22
429.36	362.95
429.73	368.41
430.10	373.89
430.47	379.48
430.85	385.25
431.22	391.43
431.59	397.76
431.96	403.96
432.33	410.85
432.70	417.39
433.08	425.12
433.45	432.44
433.82	439.65
434.19	447.69
434.56	455.63
434.93	463.30
435.30	470.87
435.68	479.44
436.05	487.84
436.42	496.20
436.79	503.82
437.16	512.06
437.53	520.89
437.90	529.71
438.27	538.35
438.64	547.69
439.01	556.14
439.38	563.88
439.75	571.32
440.13	579.72
440.50	587.70
440.87	594.03
441.24	600.95
441.61	608.49
441.98	613.96
442.35	620.49
442.72	627.12
443.09	633.44
443.46	637.41
443.83	640.29
444.20	642.68
444.57	646.29
444.94	648.26
445.31	650.32
445.68	652.03
446.05	653.26
446.42	652.71
446.79	651.94
447.16	651.24
447.53	650.59
447.90	647.77
448.27	645.05
448.64	641.00
449.01	638.14
449.37	632.59
449.74	627.59
450.11	621.13
450.48	614.10
450.85	607.09
451.22	601.10
451.59	595.26
451.96	589.96
452.33	582.30
452.70	575.53
453.07	567.26
453.43	559.05
453.80	551.07
454.17	543.44
454.54	536.44
454.91	528.51
455.28	521.10
455.65	514.11
456.02	506.71
456.38	500.78
456.75	493.15
457.12	487.03
457.49	480.83
457.86	475.03
458.23	469.94
458.59	464.28
458.96	458.47
459.33	453.37
459.70	448.17
460.07	444.23
460.43	439.59
460.80	435.26
461.17	431.51
461.54	427.40
461.91	423.58
462.27	419.68
462.64	416.55
463.01	412.93
463.38	409.28
463.74	406.02
464.11	403.12
464.48	400.52
464.85	397.67
465.21	395.52
465.58	393.11
465.95	390.35
466.32	388.15
466.68	386.00
467.05	383.83
467.42	381.71
467.78	379.42
468.15	377.30
468.52	375.75
468.88	373.67
469.25	371.77
469.62	370.25
469.98	368.60
470.35	367.12
470.72	365.78
471.08	364.42
471.45	363.26
471.82	361.98
472.18	360.61
472.55	359.72
472.92	358.60
473.28	357.72
473.65	356.77
474.02	355.87
474.38	355.10
474.75	354.62
475.11	353.98
475.48	353.66
475.85	353.31
476.21	353.11
476.58	352.94
476.94	353.04
477.31	353.07
477.67	353.12
478.04	353.29
478.41	353.56
478.77	353.97
479.14	354.21
479.50	354.73
479.87	355.42
480.23	356.12
480.60	356.80
480.96	357.49
481.33	358.52
481.69	359.55
482.06	360.58
482.42	361.52
482.79	362.70
483.15	364.07
483.52	365.62
483.88	367.12
484.25	368.73
484.61	370.40
484.98	372.20
485.34	374.24
485.71	376.38
486.07	378.66
486.44	380.95
486.80	383.50
487.17	386.15
487.53	389.04
487.90	392.07
488.26	395.37
488.62	398.86
488.99	402.35
489.35	406.03
489.72	410.03
490.08	414.24
490.44	418.59
490.81	423.10
491.17	427.72
491.54	432.68
491.90	437.80
492.26	443.27
492.63	449.01
492.99	454.99
493.36	461.19
493.72	467.70
494.08	474.38
494.45	481.48
494.81	488.84
495.17	496.42
495.54	504.43
495.90	512.74
496.26	521.24
496.63	530.00
496.99	539.08
497.35	548.58
497.72	558.37
498.08	568.39
498.44	578.75
498.80	589.74
499.17	601.01
499.53	612.62
499.89	624.61
500.26	636.84
500.62	649.39
500.98	662.60
501.34	676.01
501.71	689.97
502.07	704.11
502.43	718.81
502.79	733.74
503.16	749.14
503.52	764.74
503.88	780.81
504.24	797.38
504.60	814.16
504.97	831.44
505.33	849.18
505.69	867.85
506.05	886.90
506.41	905.85
506.78	924.99
507.14	944.65
507.50	964.77
507.86	985.25
508.22	1005.94
508.59	1026.42
508.95	1047.79
509.31	1069.96
509.67	1092.85
510.03	1115.73
510.39	1138.63
510.75	1161.69
511.12	1185.05
511.48	1208.53
511.84	1232.01
512.20	1255.98
512.56	1280.87
512.92	1305.74
513.28	1330.14
513.64	1354.79
514.00	1379.95
514.37	1405.41
514.73	1430.85
515.09	1456.14
515.45	1481.76
515.81	1507.51
516.17	1533.40
516.53	1558.70
516.89	1583.84
517.25	1609.20
517.61	1634.42
517.97	1660.11
518.33	1685.29
518.69	1710.38
519.05	1735.97
519.41	1761.86
519.77	1787.84
520.13	1813.02
520.49	1838.10
520.85	1863.62
521.21	1888.64
521.57	1914.07
521.93	1938.88
522.29	1964.22
522.65	1989.00
523.01	2013.77
523.37	2038.08
523.73	2063.15
524.09	2087.88
524.45	2112.33
524.81	2136.37
525.17	2160.23
525.53	2183.41
525.89	2207.08
526.25	2230.86
526.61	2253.62
526.97	2276.48
527.33	2299.32
527.68	2321.79
528.04	2343.39
528.40	2363.98
528.76	2384.81
529.12	2405.01
529.48	2424.93
529.84	2442.96
530.20	2461.69
530.56	2479.67
530.91	2497.84
531.27	2515.68
531.63	2532.57
531.99	2549.08
532.35	2564.76
532.71	2580.61
533.07	2597.19
533.42	2611.78
533.78	2627.40
534.14	2643.20
534.50	2657.96
534.86	2672.44
535.21	2684.89
535.57	2697.99
535.93	2710.85
536.29	2722.52
536.65	2734.03
537.00	2744.78
537.36	2756.52
537.72	2766.75
538.08	2776.56
538.44	2785.60
538.79	2794.09
539.15	2801.87
539.51	2809.22
539.87	2815.93
540.22	2820.62
540.58	2825.42
540.94	2831.54
541.29	2835.85
541.65	2838.27
542.01	2840.04
542.37	2841.18
542.72	2843.74
543.08	2844.42
543.44	2845.70
543.79	2845.95
544.15	2845.31
544.51	2845.08
544.87	2843.68
545.22	2841.46
545.58	2838.53
545.94	2835.71
546.29	2831.58
546.65	2827.41
547.01	2823.22
547.36	2819.86
547.72	2816.51
548.07	2811.37
548.43	2804.68
548.79	2797.05
549.14	2790.82
549.50	2784.82
549.86	2777.84
550.21	2769.71
550.57	2762.61
550.92	2753.10
551.28	2744.21
551.64	2735.76
551.99	2726.90
552.35	2717.31
552.70	2708.10
553.06	2699.20
553.41	2689.62
553.77	2679.84
554.13	2669.97
554.48	2659.18
554.84	2647.13
555.19	2635.60
555.55	2624.15
555.90	2612.82
556.26	2602.07
556.61	2590.14
556.97	2576.52
557.32	2563.39
557.68	2550.22
558.03	2536.87
558.39	2524.84
558.74	2513.04
559.10	2499.42
559.45	2486.03
559.81	2473.37
560.16	2460.05
560.52	2447.00
560.87	2434.33
561.23	2420.87
561.58	2407.52
561.94	2393.83
562.29	2379.51
562.64	2366.01
563.00	2352.17
563.35	2338.79
563.71	2325.19
564.06	2311.45
564.42	2298.62
564.77	2285.24
565.12	2271.72
565.48	2258.18
565.83	2244.61
566.19	2231.14
566.54	2217.56
566.89	2202.84
567.25	2188.39
567.60	2175.28
567.96	2161.25
568.31	2145.86
568.66	2131.22
569.02	2117.72
569.37	2104.22
569.72	2091.31
570.08	2077.06
570.43	2062.44
570.78	2047.60
571.14	2032.07
571.49	2017.33
571.84	2003.10
572.20	1987.55
572.55	1972.35
572.90	1957.00
573.26	1941.70
573.61	1925.88
573.96	1910.57
574.31	1895.58
574.67	1880.52
575.02	1864.43
575.37	1848.44
575.72	1833.37
576.08	1818.58
576.43	1802.73
576.78	1787.31
577.13	1772.14
577.49	1757.33
577.84	1743.18
578.19	1728.05
578.54	1713.16
578.90	1697.70
579.25	1682.14
579.60	1668.24
579.95	1654.17
580.30	1639.90
580.66	1625.37
581.01	1610.82
581.36	1596.29
581.71	1582.77
582.06	1569.11
582.42	1555.66
582.77	1542.28
583.12	1528.85
583.47	1515.34
583.82	1501.91
584.17	1488.15
584.53	1474.06
584.88	1460.36
585.23	1446.22
585.58	1432.95
585.93	1419.87
586.28	1407.51
586.63	1395.13
586.98	1382.25
587.34	1369.45
587.69	1356.47
588.04	1343.80
588.39	1331.50
588.74	1319.31
589.09	1306.87
589.44	1294.07
589.79	1281.98
590.14	1269.95
590.49	1257.82
590.84	1245.82
591.19	1234.23
591.54	1222.45
591.89	1210.81
592.25	1199.36
592.60	1187.57
592.95	1176.20
593.30	1165.04
593.65	1153.61
594.00	1142.30
594.35	1131.62
594.70	1120.51
595.05	1110.26
595.40	1099.88
595.75	1089.34
596.10	1079.35
596.45	1069.09
596.80	1059.16
597.15	1048.96
597.50	1038.94
597.85	1029.30
598.19	1019.53
598.54	1009.83
598.89	1000.57
599.24	991.65
599.59	982.51
599.94	974.30
600.29	965.88
600.64	957.18
600.99	948.11
601.34	939.42
601.69	930.38
602.04	922.04
602.39	913.51
602.74	905.05
603.08	896.54
603.43	888.03
603.78	879.68
604.13	871.49
604.48	863.27
604.83	855.26
605.18	847.19
605.53	839.29
605.87	831.20
606.22	823.42
606.57	815.56
606.92	807.63
607.27	799.63
607.62	791.95
607.96	784.67
608.31	777.84
608.66	770.80
609.01	764.04
609.36	757.39
609.70	750.51
610.05	743.64
610.40	737.02
610.75	730.39
611.10	724.12
611.44	717.68
611.79	711.36
612.14	704.95
612.49	698.65
612.83	692.62
613.18	686.74
613.53	680.77
613.88	674.84
614.22	669.30
614.57	663.71
614.92	657.94
615.27	652.29
615.61	646.70
615.96	641.17
616.31	635.63
616.65	630.15
617.00	624.90
617.35	619.72
617.70	614.61
618.04	609.55
618.39	604.42
618.74	599.53
619.08	594.68
619.43	589.94
619.78	585.22
620.12	580.46
620.47	575.86
620.82	571.36
621.16	566.89
621.51	562.33
621.85	557.81
622.20	553.48
622.55	549.19
622.89	544.96
623.24	540.73
623.59	536.55
623.93	532.52
624.28	528.59
624.62	524.75
624.97	520.95
625.32	517.12
625.66	513.25
626.01	509.36
626.35	505.53
626.70	501.75
627.04	498.15
627.39	494.48
627.73	490.98
628.08	487.56
628.43	484.14
628.77	480.80
629.12	477.57
629.46	474.35
629.81	471.05
630.15	467.76
630.50	464.57
630.84	461.44
631.19	458.36
631.53	455.38
631.88	452.35
632.22	449.37
632.57	446.65
632.91	443.96
633.26	441.36
633.60	438.76
633.95	436.23
634.29	433.62
634.64	431.08
634.98	428.35
635.32	425.76
635.67	423.37
636.01	420.91
636.36	418.50
636.70	416.22
637.05	413.94
637.39	411.69
637.73	409.46
638.08	407.34
638.42	405.19
638.77	402.92
639.11	400.61
639.45	398.38
639.80	396.10
640.14	393.93
640.49	391.74
640.83	389.54
641.17	387.43
641.52	385.36
641.86	383.32
642.20	381.49
642.55	379.50
642.89	377.54
643.23	375.67
643.58	373.96
643.92	372.12
644.26	370.34
644.61	368.61
644.95	366.86
645.29	365.03
645.64	363.24
645.98	361.53
646.32	359.94
646.66	358.34
647.01	356.76
647.35	355.21
647.69	353.67
648.04	352.25
648.38	350.74
648.72	349.27
649.06	347.81
649.41	346.34
649.75	344.93
650.09	343.54
650.43	342.17
650.78	340.73
651.12	339.35
651.46	338.01
651.80	336.70
652.14	335.42
652.49	334.19
652.83	332.93
653.17	331.72
653.51	330.53
653.85	329.40
654.20	328.23
654.54	326.99
654.88	325.84
655.22	324.72
655.56	323.60
655.90	322.53
656.25	321.50
656.59	320.44
656.93	319.46
657.27	318.48
657.61	317.46
657.95	316.48
658.29	315.50
658.64	314.57
658.98	313.64
659.32	312.74
659.66	311.88
660.00	311.05
660.34	310.22
660.68	309.35
661.02	308.46
661.36	307.61
661.70	306.80
662.05	306.01
662.39	305.22
662.73	304.51
663.07	303.80
663.41	303.05
663.75	302.31
664.09	301.58
664.43	300.81
664.77	300.11
665.11	299.37
665.45	298.70
665.79	298.04
666.13	297.33
666.47	296.62
666.81	295.90
667.15	295.16
667.49	294.52
667.83	293.94
668.17	293.32
668.51	292.75
668.85	292.21
669.19	291.69
669.53	291.08
669.87	290.46
670.21	289.87
670.55	289.32
670.89	288.84
671.23	288.32
671.57	287.81
671.91	287.35
672.25	286.91
672.58	286.47
672.92	285.95
673.26	285.52
673.60	285.09
673.94	284.68
674.28	284.30
674.62	283.88
674.96	283.40
675.30	283.00
675.64	282.56
675.97	282.10
676.31	281.63
676.65	281.21
676.99	280.85
677.33	280.41
677.67	280.01
678.01	279.54
678.34	279.15
678.68	278.77
679.02	278.34
679.36	277.93
679.70	277.51
680.04	277.14
680.37	276.75
680.71	276.39
681.05	276.04
681.39	275.65
681.73	275.24
682.06	274.86
682.40	274.49
682.74	274.17
683.08	273.89
683.42	273.55
683.75	273.24
684.09	272.86
684.43	272.55
684.77	272.21
685.10	271.93
685.44	271.62
685.78	271.30
686.12	271.01
686.45	270.69
686.79	270.36
687.13	270.06
687.46	269.74
687.80	269.44
688.14	269.09
688.48	268.80
688.81	268.50
689.15	268.24
689.49	267.92
689.82	267.61
690.16	267.23
690.50	266.94
690.83	266.64
691.17	266.33
691.51	266.04
691.84	265.76
692.18	265.45
692.52	265.13
692.85	264.83
693.19	264.58
693.52	264.29
693.86	264.00
694.20	263.72
694.53	263.45
694.87	263.14
695.21	262.86
695.54	262.57
695.88	262.28
696.21	261.97
696.55	261.70
696.88	261.42
697.22	261.15
697.56	260.88
697.89	260.57
698.23	260.31
698.56	260.01
698.90	259.74
699.23	259.45
699.57	259.17
699.90	258.89
700.24	258.59
700.58	258.34
700.91	258.12
701.25	257.98
701.58	257.77
701.92	257.55
702.25	257.32
702.59	257.06
702.92	256.81
703.26	256.56
703.59	256.29
703.93	256.14
704.26	255.90
704.60	255.65
704.93	255.40
705.26	255.15
705.60	254.94
705.93	254.67
706.27	254.47
706.60	254.28
706.94	254.10
707.27	253.84
707.61	253.58
707.94	253.31
708.27	252.95
708.61	252.66
708.94	252.39
709.28	252.16
709.61	251.92
709.94	251.72
710.28	251.51
710.61	251.32
710.95	251.00
711.28	250.86
711.61	250.64
711.95	250.46
712.28	250.24
712.61	250.01
712.95	249.87
713.28	249.72
713.61	249.48
713.95	249.23
714.28	249.04
714.61	248.83
714.95	248.63
715.28	248.44
715.61	248.25
715.95	248.08
716.28	247.89
716.61	247.74
716.95	247.53
717.28	247.34
717.61	247.14
717.94	246.96
718.28	246.69
718.61	246.49
718.94	246.29
719.27	246.11
719.61	245.95
719.94	245.74
720.27	245.48
720.60	245.30
720.94	245.13
721.27	244.96
721.60	244.81
721.93	244.64
722.27	244.51
722.60	244.35
722.93	244.16
723.26	244.00
723.59	243.80
723.93	243.64
724.26	243.48
724.59	243.31
724.92	243.17
725.25	243.06
725.59	242.90
725.92	242.78
726.25	242.63
726.58	242.47
726.91	242.32
727.24	242.19
727.57	242.04
727.91	241.88
728.24	241.75
728.57	241.60
728.90	241.47
729.23	241.29
729.56	241.20
729.89	241.06
730.22	240.90
730.55	240.77
730.89	240.63
731.22	240.49
731.55	240.36
731.88	240.22
732.21	240.06
732.54	239.92
732.87	239.79
733.20	239.67
733.53	239.55
733.86	239.43
734.19	239.29
734.52	239.19
734.85	239.16
735.18	239.00
735.51	238.92
735.84	238.80
736.17	238.72
736.50	238.55
736.83	238.58
737.16	238.48
737.49	238.38
737.82	238.27
738.15	238.18
738.48	238.07
738.81	237.96
739.14	237.84
739.47	237.72
739.80	237.61
740.13	237.51
740.46	237.38
740.79	237.26
741.12	237.16
741.45	237.03
741.78	236.85
742.11	236.79
742.44	236.65
742.77	236.57
743.10	236.44
743.43	236.34
743.75	236.11
744.08	236.20
744.41	236.09
744.74	235.99
745.07	235.86
745.40	235.80
745.73	235.76
746.06	235.67
746.39	235.60
746.71	235.51
747.04	235.40
747.37	235.32
747.70	235.26
748.03	235.18
748.36	235.12
748.68	235.03
749.01	234.91
749.34	234.84
749.67	234.76
750.00	234.69
750.33	234.71
750.65	234.64
750.98	234.37
751.31	234.30
751.64	234.23
751.97	234.23
752.29	234.14
752.62	234.00
752.95	233.92
753.28	233.82
753.60	233.75
753.93	233.70
754.26	233.64
754.59	233.52
754.91	233.43
755.24	233.35
755.57	233.33
755.90	233.26
756.22	233.17
756.55	233.08
756.88	232.98
757.20	232.82
757.53	232.71
757.86	232.64
758.19	232.58
758.51	232.51
758.84	232.37
759.17	232.29
759.49	232.23
759.82	232.23
760.15	232.19
760.47	232.12
760.80	232.02
761.13	231.98
761.45	231.93
761.78	231.87
762.11	231.82
762.43	231.70
762.76	231.64
763.08	231.60
763.41	231.55
763.74	231.51
764.06	231.45
764.39	231.41
764.71	231.36
765.04	231.29
765.37	231.23
765.69	231.19
766.02	231.14
766.34	231.08
766.67	230.98
767.00	230.95
767.32	230.97
767.65	231.00
767.97	230.94
768.30	230.91
768.62	230.86
768.95	230.80
769.27	230.75
769.60	230.72
769.92	230.66
770.25	230.60
770.57	230.53
770.90	230.49
771.22	230.43
771.55	230.39
771.87	230.36
772.20	230.31
772.52	230.38
772.85	230.49
773.17	230.46
773.50	230.41
773.82	230.36
774.15	230.26
774.47	230.14
774.80	230.09
775.12	230.05
775.45	230.02
775.77	229.99
776.09	229.97
776.42	229.94
776.74	229.95
777.07	229.92
777.39	229.90
777.72	229.86
778.04	229.85
778.36	229.81
778.69	229.78
779.01	229.77
779.33	229.63
779.66	229.45
779.98	229.42
780.31	229.40
780.63	229.42
780.95	229.42
781.28	229.39
781.60	229.36
781.92	229.33
782.25	229.31
782.57	229.29
782.89	229.26
783.22	229.22
783.54	229.17
783.86	229.16
784.19	229.13
784.51	229.14
784.83	229.10
785.16	229.08
785.48	229.06
785.80	229.03
786.12	229.02
786.45	229.00
786.77	228.99
787.09	228.96
787.42	228.89
787.74	228.87
788.06	228.86
788.38	228.84
788.71	228.81
789.03	228.79
789.35	228.79
789.67	228.75
789.99	228.74
790.32	228.71
790.64	228.70
790.96	228.80
791.28	228.74
791.61	228.72
791.93	228.71
792.25	228.68
792.57	228.75
792.89	228.71
793.21	228.70
793.54	228.67
793.86	228.64
794.18	228.63
794.50	228.59
794.82	228.57
795.14	228.57
795.47	228.57
795.79	228.56
796.11	228.51
796.43	228.49
796.75	228.47
797.07	228.47
797.39	228.45
797.71	228.32
798.04	228.32
798.36	228.31
798.68	228.29
799.00	228.28
799.32	228.21
799.64	228.22
799.96	228.20
800.28	228.21
800.60	228.19
800.92	228.19
801.24	228.17
801.56	228.17
801.89	228.14
802.21	228.13
802.53	228.10
802.85	228.12
803.17	228.16
803.49	228.13
803.81	228.10
804.13	228.08
804.45	228.05
804.77	228.04
805.09	228.03
805.41	228.01
805.73	227.97
806.05	227.93
806.37	227.90
806.69	227.88
807.01	227.86
807.33	227.85
807.65	227.80
807.97	227.84
808.28	227.81
808.60	227.80
808.92	227.77
809.24	227.85
809.56	227.81
809.88	227.75
810.20	227.75
810.52	227.77
810.84	227.74
811.16	227.72
811.48	227.70
811.80	227.73
812.12	227.72
812.43	227.74
812.75	227.74
813.07	227.72
813.39	227.72
813.71	227.69
814.03	227.67
814.35	227.67
814.67	227.61
814.98	227.59
815.30	227.58
815.62	227.55
815.94	227.46
816.26	227.46
816.58	227.43
816.89	227.43
817.21	227.40
817.53	227.40
817.85	227.40
818.17	227.39
818.48	227.33
818.80	227.35
819.12	227.32
819.44	227.29
819.76	227.27
820.07	227.26
820.39	227.25
820.71	227.25
821.03	227.25
821.34	227.23
821.66	227.24
821.98	227.25
822.30	227.24
822.61	227.31
822.93	227.29
823.25	227.28
823.57	227.26
823.88	227.27
824.20	227.26
824.52	227.27
824.83	227.26
825.15	227.25
825.47	227.23
825.79	227.24
826.10	227.23
826.42	227.22
826.74	227.22
827.05	227.22
827.37	227.21
827.69	227.20
828.00	227.20
828.32	227.19
828.64	227.17
828.95	227.23
829.27	227.19
829.58	227.19
829.90	227.20
830.22	227.21
830.53	227.18
830.85	227.16
831.17	227.12
831.48	227.11
831.80	227.12
832.11	227.11
832.43	227.08
832.75	227.08
833.06	227.15
833.38	227.11
833.69	227.10
834.01	227.10
834.32	227.09
834.64	227.08
834.96	227.07
835.27	227.07
835.59	227.02
835.90	227.00
836.22	226.99
836.53	226.96
836.85	226.94
837.16	227.07
837.48	227.07
837.79	227.11
838.11	227.11
838.42	227.11
838.74	227.12
839.05	227.11
839.37	227.10
839.68	227.02
840.00	227.01
840.31	227.03
840.63	227.01
840.94	227.00
841.26	226.98
841.57	226.98
841.88	226.98
842.20	226.96
842.51	226.94
842.83	226.94
843.14	227.05
843.46	227.05
843.77	226.97
844.08	226.96
844.40	226.91
844.71	226.90
845.03	226.88
845.34	226.87
845.65	226.86
845.97	226.86
846.28	226.87
846.60	226.88
846.91	226.85
847.22	226.85
847.54	226.87
847.85	226.88
848.16	226.87
848.48	226.84
848.79	226.89
849.10	226.90
849.42	226.91
849.73	226.78
850.04	226.78
850.36	226.74
850.67	226.75
850.98	226.76
851.30	226.77
851.61	226.76
851.92	226.76
852.23	226.80
852.55	226.80
852.86	226.80
853.17	226.81
853.49	226.83
853.80	226.85
854.11	226.86
854.42	226.87
854.74	226.86
855.05	226.86
855.36	226.80
855.67	226.80
855.99	226.80
856.30	226.94
856.61	226.94
856.92	226.94
857.23	226.94
857.55	226.93
857.86	226.92
858.17	226.94
858.48	226.91
858.79	226.88
859.11	226.89
859.42	226.88
859.73	226.87
860.04	226.86
860.35	226.82
860.66	226.78
860.98	226.77
861.29	226.78
861.60	226.77
861.91	226.80
862.22	226.78
862.53	226.76
862.84	226.61
863.16	226.63
863.47	226.61
863.78	226.59
864.09	226.60
864.40	226.61
864.71	226.60
865.02	226.62
865.33	226.60
865.64	226.58
865.95	226.58
866.27	226.65
866.58	226.64
866.89	226.66
867.20	226.66
867.51	226.64
867.82	226.62
868.13	226.66
868.44	226.63
868.75	226.66
869.06	226.66
869.37	226.67
869.68	226.64
869.99	226.67
870.30	226.67
870.61	226.68
870.92	226.66
871.23	226.65
871.54	226.67
871.85	226.70
872.16	226.71
872.47	226.71
872.78	226.63
873.09	226.64
873.40	226.63
873.71	226.64
874.02	226.65
874.33	226.64
874.64	226.61
874.95	226.63
875.26	226.60
875.56	226.60
875.87	226.59
876.18	226.58
876.49	226.70
876.80	226.69
877.11	226.67
877.42	226.67
877.73	226.67
878.04	226.65
878.35	226.64
878.66	226.64
878.96	226.64
879.27	226.64
879.58	226.63
879.89	226.62
880.20	226.65
880.51	226.65
880.82	226.65
881.12	226.66
881.43	226.63
881.74	226.62
882.05	226.62
882.36	226.62
882.67	226.63
882.97	226.50
883.28	226.49
883.59	226.48
883.90	226.49
884.21	226.51
884.51	226.50
884.82	226.48
885.13	226.48
885.44	226.48
885.74	226.47
886.05	226.47
886.36	226.47
886.67	226.42
886.98	226.49
887.28	226.50
887.59	226.49
887.90	226.50
888.20	226.50
888.51	226.52
888.82	226.50
889.13	226.51
889.43	226.62
889.74	226.61
890.05	226.61
890.35	226.60
890.66	226.57
890.97	226.56
891.28	226.55
891.58	226.55
891.89	226.55
892.20	226.54
892.50	226.53
892.81	226.52
893.12	226.52
893.42	226.46
893.73	226.46
894.04	226.45
894.34	226.46
894.65	226.46
894.95	226.45
895.26	226.45
895.57	226.51
895.87	226.38
896.18	226.40
896.48	226.41
896.79	226.41
897.10	226.43
897.40	226.44
897.71	226.45
898.01	226.44
898.32	226.45
898.63	226.45
898.93	226.46
899.24	226.46
899.54	226.46
899.85	226.45
900.15	226.44
900.46	226.44
900.76	226.45
901.07	226.45
901.38	226.44
901.68	226.45
901.99	226.38
902.29	226.40
902.60	226.38
902.90	226.37
903.21	226.37
903.51	226.36
903.82	226.38
904.12	226.38
904.43	226.39
904.73	226.38
905.03	226.38
905.34	226.50
905.64	226.49
905.95	226.50
906.25	226.49
906.56	226.49
906.86	226.49
907.17	226.48
907.47	226.48
907.77	226.47
908.08	226.44
908.38	226.45
908.69	226.46
908.99	226.48
909.30	226.49
909.60	226.48
909.90	226.48
910.21	226.44
910.51	226.42
910.81	226.42
911.12	226.43
911.42	226.43
911.73	226.30
912.03	226.31
912.33	226.33
912.64	226.32
912.94	226.31
913.24	226.29
913.55	226.28
913.85	226.27
914.15	226.29
914.46	226.31
914.76	226.30
915.06	226.29
915.37	226.27
915.67	226.26
915.97	226.26
916.27	226.24
916.58	226.25
916.88	226.24
917.18	226.23
917.49	226.31
917.79	226.31
918.09	226.33
918.39	226.36
918.70	226.35
919.00	226.36
919.30	226.42
919.60	226.41
919.91	226.40
920.21	226.41
920.51	226.38
920.81	226.37
921.12	226.39
921.42	226.38
921.72	226.39
922.02	226.40
922.32	226.41
922.63	226.42
922.93	226.49
923.23	226.50
923.53	226.49
923.83	226.40
924.13	226.42
924.44	226.41
924.74	226.43
925.04	226.45
925.34	226.45
925.64	226.39
925.94	226.40
926.24	226.47
926.55	226.46
926.85	226.48
927.15	226.48
927.45	226.47
927.75	226.47
928.05	226.47
928.35	226.46
928.65	226.48
928.95	226.49
929.26	226.43
929.56	226.45
929.86	226.46
930.16	226.45
930.46	226.44
930.76	226.45
931.06	226.39
931.36	226.35
931.66	226.37
931.96	226.39
932.26	226.39
932.56	226.34
932.86	226.35
933.16	226.34
933.46	226.33
933.76	226.31
934.06	226.33
934.36	226.37
934.66	226.37
934.96	226.35
935.26	226.35
935.56	226.37
935.86	226.34
936.16	226.31
936.46	226.31
936.76	226.30
937.06	226.28
937.36	226.29
937.66	226.30
937.96	226.29
938.26	226.26
938.56	226.25
938.86	226.25
939.16	226.28
939.46	226.29
939.76	226.30
940.06	226.30
940.35	226.28
940.65	226.22
940.95	226.23
941.25	226.20
941.55	226.19
941.85	226.18
942.15	226.21
942.45	226.24
942.75	226.24
943.04	226.25
943.34	226.27
943.64	226.26
943.94	226.24
944.24	226.24
944.54	226.25
944.84	226.25
945.13	226.23
945.43	226.21
945.73	226.20
946.03	226.19
946.33	226.18
946.62	226.16
946.92	226.16
947.22	226.16
947.52	226.18
947.82	226.19
948.11	226.17
948.41	226.14
948.71	226.11
949.01	226.12
949.31	226.11
949.60	226.09
949.90	226.11
950.20	226.11
950.50	226.11
950.79	226.10
951.09	226.12
951.39	226.12
951.69	226.10
951.98	226.13
952.28	226.14
952.58	226.14
952.87	226.14
953.17	226.16
953.47	226.14
953.76	226.14
954.06	226.12
954.36	226.11
954.66	226.11
954.95	226.14
955.25	226.15
955.55	226.16
955.84	226.14
956.14	226.15
956.44	226.16
956.73	226.14
957.03	226.15
957.32	226.15
957.62	226.14
957.92	226.17
958.21	226.16
958.51	226.30
958.81	226.32
959.10	226.33
959.40	226.36
959.69	226.37
959.99	226.38
960.29	226.39
960.58	226.38
960.88	226.43
961.17	226.42
961.47	226.43
961.76	226.41
962.06	226.44
962.36	226.42
962.65	226.43
962.95	226.44
963.24	226.42
963.54	226.43
963.83	226.44
964.13	226.43
964.42	226.41
964.72	226.30
965.01	226.30
965.31	226.29
965.60	226.26
965.90	226.34
966.19	226.31
966.49	226.32
966.78	226.31
967.08	226.30
967.37	226.30
967.67	226.27
967.96	226.30
968.26	226.29
968.55	226.31
968.85	226.30
969.14	226.30
969.43	226.30
969.73	226.28
970.02	226.27
970.32	226.26
970.61	226.24
970.91	226.21
971.20	226.19
971.49	226.18
971.79	226.20
972.08	226.11
972.38	226.12
972.67	226.11
972.96	226.13
973.26	226.11
973.55	226.14
973.85	226.14
974.14	226.12
974.43	226.13
974.73	226.11
975.02	226.10
975.31	226.10
975.61	226.10
975.90	226.09
976.19	226.08
976.49	226.09
976.78	226.11
977.07	226.11
977.37	226.12
977.66	226.13
977.95	226.11
978.24	226.13
978.54	226.15
978.83	226.14
979.12	226.13
979.42	226.14
979.71	226.11
980.00	226.11
980.29	226.11
980.59	226.09
980.88	226.12
981.17	226.12
981.46	226.12
981.76	226.12
982.05	226.16
982.34	226.17
982.63	226.17
982.93	226.17
983.22	226.20
983.51	226.20
983.80	226.21
984.09	226.23
984.39	226.22
984.68	226.20
984.97	226.21
985.26	226.20
985.55	226.21
985.85	226.19
986.14	226.21
986.43	226.22
986.72	226.21
987.01	226.17
987.30	226.18
987.59	226.17
987.89	226.17
988.18	226.13
988.47	226.12
988.76	226.11
989.05	226.10
989.34	226.08
989.63	226.11
989.92	226.09
990.22	226.07
990.51	226.07
990.80	226.06
991.09	226.07
991.38	226.09
991.67	226.08
991.96	226.06
992.25	226.07
992.54	226.04
992.83	226.05
993.12	226.05
993.41	226.06
993.70	226.12
993.99	226.14
994.28	226.16
994.58	226.18
994.87	226.17
995.16	226.17
995.45	226.16
995.74	226.11
996.03	226.13
996.32	226.15
996.61	226.18
996.90	226.18
997.19	226.17
997.48	226.17
997.77	226.15
998.06	226.16
998.34	226.15
998.63	226.15
998.92	226.15
999.21	226.18
999.50	226.17
999.79	226.13
1000.08	226.12
1000.37	226.12
1000.66	226.11
1000.95	226.14
1001.24	226.15
1001.53	226.17
1001.82	226.17
1002.11	226.14
1002.40	226.15
1002.68	226.17
1002.97	226.26
1003.26	226.25
1003.55	226.23
1003.84	226.24
1004.13	226.28
1004.42	226.28
1004.71	226.28
1004.99	226.27
1005.28	226.29
1005.57	226.29
1005.86	226.27
1006.15	226.26
1006.44	226.24
1006.72	226.26
1007.01	226.23
1007.30	226.23
1007.59	226.22
1007.88	226.22
1008.17	226.22
1008.45	226.20
1008.74	226.14
1009.03	226.08
1009.32	226.08
1009.60	226.09
1009.89	226.08
1010.18	226.03
1010.47	226.02
1010.76	226.02
1011.04	226.02
1011.33	226.01
1011.62	226.02
1011.91	226.03
1012.19	226.04
1012.48	226.04
1012.77	226.04
1013.05	226.08
1013.34	226.08
1013.63	226.07
1013.92	226.08
1014.20	226.08
1014.49	226.08
1014.78	226.10
1015.06	226.06
1015.35	226.06
1015.64	226.08
1015.92	226.10
1016.21	226.11
1016.50	226.11
1016.78	226.13
1017.07	226.14
1017.36	226.11
1017.64	226.09
1017.93	226.10
1018.22	226.09
1018.50	226.09
1018.79	226.08
1019.08	226.04
1019.36	226.04
1019.65	226.03
1019.93	226.06
1020.22	226.08
1020.51	226.15
1020.79	226.13
1021.08	225.89
1021.36	225.88
1021.65	226.07
1021.94	226.00
1022.22	226.17
1022.51	225.82
1022.79	226.65
1023.08	226.22
1023.36	227.57
1023.65	225.80
>>>>>End Processed Spectral Data<<<<<
