SpectraSuite Data File
++++++++++++++++++++++++++++++++++++
Date: Fri Oct 02 16:15:43 EDT 2015
User: lab3
Dark Spectrum Present: No
Reference Spectrum Present: No
Number of Sampled Component Spectra: 1
Spectrometers: USB2E7196
Integration Time (usec): 46000 (USB2E7196)
Spectra Averaged: 1200 (USB2E7196)
Boxcar Smoothing: 10 (USB2E7196)
Correct for Electrical Dark: No (USB2E7196)
Strobe/Lamp Enabled: No (USB2E7196)
Correct for Detector Non-linearity: No (USB2E7196)
Correct for Stray Light: No (USB2E7196)
Number of Pixels in Processed Spectrum: 2048
>>>>>Begin Processed Spectral Data<<<<<
339.09	0.00
339.48	215.04
339.86	216.28
340.24	217.71
340.63	219.07
341.01	222.44
341.39	222.02
341.78	223.24
342.16	224.53
342.54	224.84
342.93	213.31
343.31	224.09
343.69	224.62
344.07	225.08
344.46	225.52
344.84	225.91
345.22	226.13
345.60	226.38
345.99	226.56
346.37	226.69
346.75	226.81
347.13	226.88
347.52	226.95
347.90	227.03
348.28	227.07
348.66	227.12
349.05	227.11
349.43	227.17
349.81	227.22
350.19	227.27
350.57	227.33
350.96	227.42
351.34	227.51
351.72	227.60
352.10	227.72
352.48	227.79
352.87	227.86
353.25	227.92
353.63	227.99
354.01	228.06
354.39	228.14
354.77	228.22
355.15	228.34
355.54	228.39
355.92	228.44
356.30	228.51
356.68	228.66
357.06	228.74
357.44	228.79
357.82	228.85
358.20	228.98
358.58	229.03
358.97	229.10
359.35	229.19
359.73	229.27
360.11	229.32
360.49	229.38
360.87	229.41
361.25	229.48
361.63	229.56
362.01	229.62
362.39	229.65
362.77	229.69
363.15	229.70
363.53	229.73
363.91	229.76
364.29	229.78
364.67	229.68
365.05	229.71
365.43	229.74
365.81	229.77
366.19	229.78
366.57	229.85
366.95	229.84
367.33	229.81
367.71	229.81
368.09	229.82
368.47	229.82
368.85	229.81
369.23	229.82
369.61	229.76
369.99	229.78
370.37	229.77
370.75	229.84
371.13	229.81
371.51	229.77
371.89	229.75
372.27	229.73
372.65	229.72
373.03	229.67
373.41	229.63
373.78	229.58
374.16	229.47
374.54	229.40
374.92	229.35
375.30	229.30
375.68	229.23
376.06	229.19
376.44	229.12
376.82	229.08
377.19	229.02
377.57	228.98
377.95	228.89
378.33	228.83
378.71	228.67
379.09	228.62
379.47	228.59
379.84	228.53
380.22	228.46
380.60	228.39
380.98	228.35
381.36	228.29
381.73	228.22
382.11	228.20
382.49	228.15
382.87	228.10
383.25	228.05
383.62	228.15
384.00	228.09
384.38	228.06
384.76	228.04
385.13	228.05
385.51	228.00
385.89	227.95
386.27	227.91
386.64	227.91
387.02	227.86
387.40	227.81
387.78	227.79
388.15	227.76
388.53	227.73
388.91	227.69
389.29	227.66
389.66	227.66
390.04	227.61
390.42	227.61
390.79	227.59
391.17	227.58
391.55	227.42
391.92	227.41
392.30	227.41
392.68	227.37
393.05	227.35
393.43	227.34
393.81	227.36
394.18	227.34
394.56	227.34
394.94	227.36
395.31	227.36
395.69	227.41
396.06	227.44
396.44	227.47
396.82	227.49
397.19	227.57
397.57	227.58
397.95	227.65
398.32	227.64
398.70	227.69
399.07	227.75
399.45	227.79
399.82	227.84
400.20	227.87
400.58	227.92
400.95	227.93
401.33	228.03
401.70	228.18
402.08	228.29
402.45	228.37
402.83	228.49
403.20	228.61
403.58	228.70
403.95	228.85
404.33	229.00
404.71	229.15
405.08	229.37
405.46	229.54
405.83	229.70
406.21	229.89
406.58	230.11
406.96	230.34
407.33	230.60
407.70	230.88
408.08	231.27
408.45	231.61
408.83	231.96
409.20	232.28
409.58	232.59
409.95	232.99
410.33	233.43
410.70	233.85
411.08	234.35
411.45	234.87
411.82	235.39
412.20	235.98
412.57	236.69
412.95	237.24
413.32	237.98
413.69	238.74
414.07	239.54
414.44	240.41
414.82	241.28
415.19	242.33
415.56	243.38
415.94	244.48
416.31	245.70
416.68	246.94
417.06	248.35
417.43	249.68
417.81	251.21
418.18	252.76
418.55	254.47
418.93	256.23
419.30	258.09
419.67	260.05
420.04	262.07
420.42	264.17
420.79	266.61
421.16	269.07
421.54	271.56
421.91	274.17
422.28	276.87
422.66	279.78
423.03	282.57
423.40	285.48
423.77	288.61
424.15	291.82
424.52	295.15
424.89	298.76
425.26	302.35
425.64	305.71
426.01	309.47
426.38	313.30
426.75	317.26
427.13	321.32
427.50	325.59
427.87	330.01
428.24	334.48
428.61	338.78
428.99	343.40
429.36	348.50
429.73	353.36
430.10	358.25
430.47	363.24
430.85	368.39
431.22	373.92
431.59	379.58
431.96	385.11
432.33	391.27
432.70	397.14
433.08	404.04
433.45	410.58
433.82	417.03
434.19	424.25
434.56	431.36
434.93	438.22
435.30	445.00
435.68	452.69
436.05	460.22
436.42	467.70
436.79	474.54
437.16	481.92
437.53	489.84
437.90	497.77
438.27	505.52
438.64	513.86
439.01	521.43
439.38	528.39
439.75	535.06
440.13	542.58
440.50	549.74
440.87	555.43
441.24	561.64
441.61	568.40
441.98	573.29
442.35	579.11
442.72	585.04
443.09	590.69
443.46	594.22
443.83	596.79
444.20	598.91
444.57	602.13
444.94	603.88
445.31	605.71
445.68	607.21
446.05	608.25
446.42	607.71
446.79	606.97
447.16	606.27
447.53	605.63
447.90	603.03
448.27	600.51
448.64	596.83
449.01	594.19
449.37	589.16
449.74	584.61
450.11	578.81
450.48	572.49
450.85	566.15
451.22	560.73
451.59	555.43
451.96	550.66
452.33	543.76
452.70	537.63
453.07	530.19
453.43	522.81
453.80	515.63
454.17	508.79
454.54	502.48
454.91	495.39
455.28	488.76
455.65	482.52
456.02	475.93
456.38	470.63
456.75	463.83
457.12	458.37
457.49	452.86
457.86	447.66
458.23	443.13
458.59	438.10
458.96	432.97
459.33	428.46
459.70	423.85
460.07	420.36
460.43	416.26
460.80	412.45
461.17	409.14
461.54	405.54
461.91	402.20
462.27	398.79
462.64	396.06
463.01	392.87
463.38	389.67
463.74	386.79
464.11	384.25
464.48	381.96
464.85	379.47
465.21	377.60
465.58	375.52
465.95	373.11
466.32	371.21
466.68	369.32
467.05	367.43
467.42	365.58
467.78	363.59
468.15	361.75
468.52	360.42
468.88	358.61
469.25	356.96
469.62	355.67
469.98	354.25
470.35	352.96
470.72	351.83
471.08	350.66
471.45	349.68
471.82	348.61
472.18	347.46
472.55	346.74
472.92	345.80
473.28	345.05
473.65	344.25
474.02	343.50
474.38	342.88
474.75	342.54
475.11	342.02
475.48	341.78
475.85	341.55
476.21	341.42
476.58	341.34
476.94	341.49
477.31	341.56
477.67	341.65
478.04	341.87
478.41	342.16
478.77	342.59
479.14	342.86
479.50	343.37
479.87	344.06
480.23	344.73
480.60	345.40
480.96	346.07
481.33	347.07
481.69	348.06
482.06	349.04
482.42	349.95
482.79	351.07
483.15	352.40
483.52	353.85
483.88	355.28
484.25	356.79
484.61	358.37
484.98	360.08
485.34	362.00
485.71	364.04
486.07	366.20
486.44	368.33
486.80	370.73
487.17	373.21
487.53	375.92
487.90	378.75
488.26	381.85
488.62	385.11
488.99	388.37
489.35	391.79
489.72	395.51
490.08	399.41
490.44	403.47
490.81	407.67
491.17	411.98
491.54	416.60
491.90	421.38
492.26	426.50
492.63	431.86
492.99	437.44
493.36	443.20
493.72	449.27
494.08	455.51
494.45	462.12
494.81	468.98
495.17	476.01
495.54	483.42
495.90	491.16
496.26	499.09
496.63	507.27
496.99	515.77
497.35	524.63
497.72	533.80
498.08	543.16
498.44	552.84
498.80	563.07
499.17	573.61
499.53	584.46
499.89	595.67
500.26	607.07
500.62	618.74
500.98	631.07
501.34	643.56
501.71	656.58
502.07	669.75
502.43	683.43
502.79	697.41
503.16	711.82
503.52	726.41
503.88	741.43
504.24	756.90
504.60	772.56
504.97	788.71
505.33	805.21
505.69	822.62
506.05	840.31
506.41	857.98
506.78	875.77
507.14	894.10
507.50	912.84
507.86	931.90
508.22	951.23
508.59	970.39
508.95	990.44
509.31	1011.11
509.67	1032.52
510.03	1053.85
510.39	1075.17
510.75	1096.77
511.12	1118.60
511.48	1140.50
511.84	1162.47
512.20	1184.84
512.56	1207.99
512.92	1231.15
513.28	1253.89
513.64	1276.85
514.00	1300.18
514.37	1323.87
514.73	1347.56
515.09	1371.09
515.45	1394.99
515.81	1419.02
516.17	1443.06
516.53	1466.58
516.89	1490.06
517.25	1513.67
517.61	1537.26
517.97	1561.19
518.33	1584.39
518.69	1607.59
519.05	1631.35
519.41	1655.23
519.77	1679.29
520.13	1702.68
520.49	1725.98
520.85	1749.59
521.21	1772.84
521.57	1796.55
521.93	1819.60
522.29	1843.06
522.65	1866.00
523.01	1888.85
523.37	1911.32
523.73	1934.53
524.09	1957.31
524.45	1979.94
524.81	2002.04
525.17	2023.83
525.53	2045.23
525.89	2067.19
526.25	2089.12
526.61	2110.01
526.97	2130.97
527.33	2151.72
527.68	2172.22
528.04	2192.02
528.40	2210.78
528.76	2229.70
529.12	2247.92
529.48	2266.05
529.84	2282.35
530.20	2299.32
530.56	2315.65
530.91	2332.06
531.27	2348.13
531.63	2363.35
531.99	2378.11
532.35	2392.32
532.71	2406.66
533.07	2421.36
533.42	2434.15
533.78	2447.99
534.14	2462.08
534.50	2475.20
534.86	2488.16
535.21	2499.26
535.57	2510.81
535.93	2522.25
536.29	2532.48
536.65	2542.74
537.00	2552.14
537.36	2562.56
537.72	2571.58
538.08	2580.00
538.44	2587.88
538.79	2595.33
539.15	2602.05
539.51	2608.32
539.87	2613.85
540.22	2617.68
540.58	2621.55
540.94	2626.88
541.29	2630.40
541.65	2632.14
542.01	2633.45
542.37	2634.10
542.72	2635.84
543.08	2636.02
543.44	2636.79
543.79	2636.61
544.15	2635.62
544.51	2634.86
544.87	2633.00
545.22	2630.36
545.58	2627.16
545.94	2623.86
546.29	2619.35
546.65	2615.00
547.01	2610.53
547.36	2606.81
547.72	2602.90
548.07	2597.71
548.43	2591.06
548.79	2583.54
549.14	2577.19
549.50	2571.07
549.86	2563.94
550.21	2556.05
550.57	2548.74
550.92	2539.27
551.28	2530.54
551.64	2522.00
551.99	2513.14
552.35	2503.70
552.70	2494.55
553.06	2485.96
553.41	2476.85
553.77	2467.47
554.13	2457.74
554.48	2447.42
554.84	2435.88
555.19	2425.06
555.55	2414.07
555.90	2403.06
556.26	2392.49
556.61	2381.05
556.97	2368.22
557.32	2355.99
557.68	2343.37
558.03	2330.78
558.39	2319.37
558.74	2307.98
559.10	2295.18
559.45	2282.53
559.81	2270.54
560.16	2258.10
560.52	2245.63
560.87	2233.34
561.23	2220.36
561.58	2207.73
561.94	2194.64
562.29	2181.19
562.64	2168.32
563.00	2155.15
563.35	2142.53
563.71	2129.74
564.06	2116.81
564.42	2104.34
564.77	2091.41
565.12	2078.64
565.48	2065.84
565.83	2052.96
566.19	2040.34
566.54	2027.48
566.89	2013.80
567.25	2000.20
567.60	1987.70
567.96	1974.56
568.31	1960.17
568.66	1946.51
569.02	1933.88
569.37	1921.17
569.72	1908.98
570.08	1895.60
570.43	1881.88
570.78	1867.82
571.14	1853.39
571.49	1839.64
571.84	1826.46
572.20	1812.15
572.55	1798.04
572.90	1783.78
573.26	1769.50
573.61	1754.69
573.96	1740.42
574.31	1726.23
574.67	1712.15
575.02	1697.20
575.37	1682.19
575.72	1668.15
576.08	1654.45
576.43	1639.70
576.78	1625.46
577.13	1611.42
577.49	1597.89
577.84	1584.85
578.19	1571.06
578.54	1557.40
578.90	1543.24
579.25	1528.98
579.60	1516.12
579.95	1503.18
580.30	1490.06
580.66	1476.74
581.01	1463.43
581.36	1450.14
581.71	1437.82
582.06	1425.32
582.42	1413.05
582.77	1400.93
583.12	1388.73
583.47	1376.28
583.82	1364.13
584.17	1351.60
584.53	1338.76
584.88	1326.12
585.23	1313.25
585.58	1301.17
585.93	1289.25
586.28	1277.92
586.63	1266.58
586.98	1254.90
587.34	1243.28
587.69	1231.52
588.04	1220.09
588.39	1209.03
588.74	1198.12
589.09	1187.00
589.44	1175.52
589.79	1164.56
590.14	1153.73
590.49	1142.84
590.84	1132.14
591.19	1121.58
591.54	1110.96
591.89	1100.55
592.25	1090.36
592.60	1079.83
592.95	1069.58
593.30	1059.56
593.65	1049.39
594.00	1039.24
594.35	1029.69
594.70	1019.72
595.05	1010.54
595.40	1001.33
595.75	991.91
596.10	982.91
596.45	973.71
596.80	964.81
597.15	955.83
597.50	946.93
597.85	938.41
598.19	929.73
598.54	921.16
598.89	912.88
599.24	904.90
599.59	896.78
599.94	889.51
600.29	882.02
600.64	874.29
600.99	866.23
601.34	858.58
601.69	850.56
602.04	843.14
602.39	835.62
602.74	828.11
603.08	820.61
603.43	813.12
603.78	805.79
604.13	798.63
604.48	791.33
604.83	784.27
605.18	777.05
605.53	770.13
605.87	763.03
606.22	756.26
606.57	749.40
606.92	742.41
607.27	735.42
607.62	728.79
607.96	722.47
608.31	716.51
608.66	710.38
609.01	704.50
609.36	698.76
609.70	692.76
610.05	686.75
610.40	681.01
610.75	675.26
611.10	669.80
611.44	664.20
611.79	658.73
612.14	653.21
612.49	647.77
612.83	642.52
613.18	637.42
613.53	632.24
613.88	627.10
614.22	622.36
614.57	617.51
614.92	612.48
615.27	607.56
615.61	602.71
615.96	597.92
616.31	593.13
616.65	588.42
617.00	583.91
617.35	579.46
617.70	575.10
618.04	570.79
618.39	566.40
618.74	562.26
619.08	558.13
619.43	554.08
619.78	550.11
620.12	546.10
620.47	542.21
620.82	538.41
621.16	534.62
621.51	530.78
621.85	526.99
622.20	523.38
622.55	519.75
622.89	516.16
623.24	512.64
623.59	509.12
623.93	505.71
624.28	502.38
624.62	499.17
624.97	495.98
625.32	492.75
625.66	489.49
626.01	486.20
626.35	482.97
626.70	479.78
627.04	476.74
627.39	473.66
627.73	470.71
628.08	467.85
628.43	464.98
628.77	462.18
629.12	459.48
629.46	456.79
629.81	454.08
630.15	451.37
630.50	448.71
630.84	446.11
631.19	443.58
631.53	441.15
631.88	438.66
632.22	436.17
632.57	433.97
632.91	431.77
633.26	429.64
633.60	427.54
633.95	425.53
634.29	423.41
634.64	421.33
634.98	419.10
635.32	417.03
635.67	415.09
636.01	413.08
636.36	411.12
636.70	409.28
637.05	407.42
637.39	405.63
637.73	403.86
638.08	402.18
638.42	400.47
638.77	398.66
639.11	396.79
639.45	395.01
639.80	393.16
640.14	391.41
640.49	389.66
640.83	387.86
641.17	386.12
641.52	384.43
641.86	382.76
642.20	381.30
642.55	379.66
642.89	378.07
643.23	376.55
643.58	375.18
643.92	373.68
644.26	372.22
644.61	370.80
644.95	369.34
645.29	367.82
645.64	366.31
645.98	364.89
646.32	363.58
646.66	362.23
647.01	360.89
647.35	359.61
647.69	358.32
648.04	357.18
648.38	355.95
648.72	354.73
649.06	353.51
649.41	352.28
649.75	351.11
650.09	349.95
650.43	348.80
650.78	347.58
651.12	346.42
651.46	345.30
651.80	344.20
652.14	343.13
652.49	342.13
652.83	341.09
653.17	340.08
653.51	339.10
653.85	338.18
654.20	337.21
654.54	336.16
654.88	335.19
655.22	334.20
655.56	333.23
655.90	332.29
656.25	331.44
656.59	330.55
656.93	329.72
657.27	328.87
657.61	327.97
657.95	327.12
658.29	326.25
658.64	325.42
658.98	324.58
659.32	323.76
659.66	322.98
660.00	322.24
660.34	321.49
660.68	320.69
661.02	319.88
661.36	319.10
661.70	318.35
662.05	317.61
662.39	316.91
662.73	316.26
663.07	315.62
663.41	314.90
663.75	314.20
664.09	313.49
664.43	312.75
664.77	312.08
665.11	311.39
665.45	310.77
665.79	310.13
666.13	309.46
666.47	308.78
666.81	308.08
667.15	307.34
667.49	306.70
667.83	306.11
668.17	305.48
668.51	304.89
668.85	304.34
669.19	303.83
669.53	303.21
669.87	302.56
670.21	301.94
670.55	301.36
670.89	300.85
671.23	300.30
671.57	299.78
671.91	299.28
672.25	298.81
672.58	298.33
672.92	297.77
673.26	297.30
673.60	296.82
673.94	296.38
674.28	295.96
674.62	295.50
674.96	294.98
675.30	294.53
675.64	294.05
675.97	293.54
676.31	293.00
676.65	292.51
676.99	292.10
677.33	291.61
677.67	291.16
678.01	290.62
678.34	290.16
678.68	289.72
679.02	289.22
679.36	288.73
679.70	288.25
680.04	287.81
680.37	287.36
680.71	286.93
681.05	286.50
681.39	286.03
681.73	285.54
682.06	285.09
682.40	284.65
682.74	284.25
683.08	283.90
683.42	283.47
683.75	283.10
684.09	282.64
684.43	282.24
684.77	281.82
685.10	281.45
685.44	281.07
685.78	280.66
686.12	280.27
686.45	279.86
686.79	279.43
687.13	279.05
687.46	278.63
687.80	278.25
688.14	277.79
688.48	277.40
688.81	276.99
689.15	276.63
689.49	276.22
689.82	275.81
690.16	275.34
690.50	274.97
690.83	274.57
691.17	274.17
691.51	273.78
691.84	273.41
692.18	273.02
692.52	272.60
692.85	272.23
693.19	271.88
693.52	271.52
693.86	271.15
694.20	270.78
694.53	270.42
694.87	270.02
695.21	269.65
695.54	269.29
695.88	268.92
696.21	268.51
696.55	268.15
696.88	267.80
697.22	267.45
697.56	267.09
697.89	266.68
698.23	266.31
698.56	265.93
698.90	265.59
699.23	265.21
699.57	264.85
699.90	264.48
700.24	264.10
700.58	263.76
700.91	263.46
701.25	263.23
701.58	262.95
701.92	262.65
702.25	262.35
702.59	262.01
702.92	261.70
703.26	261.37
703.59	261.03
703.93	260.80
704.26	260.50
704.60	260.16
704.93	259.85
705.26	259.54
705.60	259.27
705.93	258.93
706.27	258.67
706.60	258.41
706.94	258.15
707.27	257.82
707.61	257.51
707.94	257.18
708.27	256.76
708.61	256.41
708.94	256.10
709.28	255.81
709.61	255.52
709.94	255.25
710.28	255.00
710.61	254.76
710.95	254.39
711.28	254.20
711.61	253.93
711.95	253.71
712.28	253.44
712.61	253.18
712.95	253.00
713.28	252.81
713.61	252.52
713.95	252.24
714.28	252.02
714.61	251.76
714.95	251.52
715.28	251.28
715.61	251.06
715.95	250.84
716.28	250.61
716.61	250.42
716.95	250.18
717.28	249.96
717.61	249.73
717.94	249.50
718.28	249.19
718.61	248.97
718.94	248.73
719.27	248.52
719.61	248.32
719.94	248.06
720.27	247.77
720.60	247.57
720.94	247.37
721.27	247.17
721.60	247.00
721.93	246.80
722.27	246.64
722.60	246.45
722.93	246.23
723.26	246.04
723.59	245.82
723.93	245.65
724.26	245.46
724.59	245.27
724.92	245.10
725.25	244.95
725.59	244.79
725.92	244.63
726.25	244.47
726.58	244.28
726.91	244.12
727.24	243.97
727.57	243.81
727.91	243.63
728.24	243.49
728.57	243.32
728.90	243.16
729.23	242.96
729.56	242.86
729.89	242.70
730.22	242.54
730.55	242.39
730.89	242.24
731.22	242.08
731.55	241.93
731.88	241.79
732.21	241.64
732.54	241.48
732.87	241.35
733.20	241.22
733.53	241.08
733.86	240.94
734.19	240.78
734.52	240.66
734.85	240.61
735.18	240.44
735.51	240.35
735.84	240.23
736.17	240.14
736.50	239.94
736.83	239.97
737.16	239.85
737.49	239.73
737.82	239.61
738.15	239.51
738.48	239.38
738.81	239.24
739.14	239.10
739.47	238.98
739.80	238.86
740.13	238.74
740.46	238.60
740.79	238.46
741.12	238.35
741.45	238.20
741.78	238.02
742.11	237.93
742.44	237.78
742.77	237.69
743.10	237.57
743.43	237.46
743.75	237.21
744.08	237.30
744.41	237.18
744.74	237.07
745.07	236.92
745.40	236.85
745.73	236.81
746.06	236.71
746.39	236.63
746.71	236.53
747.04	236.43
747.37	236.34
747.70	236.27
748.03	236.18
748.36	236.12
748.68	236.02
749.01	235.90
749.34	235.81
749.67	235.72
750.00	235.64
750.33	235.63
750.65	235.56
750.98	235.29
751.31	235.21
751.64	235.14
751.97	235.13
752.29	235.02
752.62	234.88
752.95	234.80
753.28	234.70
753.60	234.61
753.93	234.56
754.26	234.48
754.59	234.36
754.91	234.28
755.24	234.18
755.57	234.16
755.90	234.09
756.22	234.00
756.55	233.90
756.88	233.80
757.20	233.64
757.53	233.53
757.86	233.45
758.19	233.38
758.51	233.30
758.84	233.17
759.17	233.08
759.49	233.01
759.82	232.99
760.15	232.94
760.47	232.87
760.80	232.76
761.13	232.72
761.45	232.66
761.78	232.59
762.11	232.54
762.43	232.41
762.76	232.35
763.08	232.31
763.41	232.25
763.74	232.20
764.06	232.14
764.39	232.09
764.71	232.04
765.04	231.97
765.37	231.91
765.69	231.86
766.02	231.82
766.34	231.76
766.67	231.66
767.00	231.63
767.32	231.65
767.65	231.68
767.97	231.62
768.30	231.58
768.62	231.53
768.95	231.47
769.27	231.41
769.60	231.38
769.92	231.30
770.25	231.24
770.57	231.18
770.90	231.13
771.22	231.07
771.55	231.02
771.87	230.98
772.20	230.94
772.52	231.00
772.85	231.11
773.17	231.08
773.50	231.03
773.82	230.96
774.15	230.86
774.47	230.74
774.80	230.68
775.12	230.64
775.45	230.61
775.77	230.58
776.09	230.55
776.42	230.52
776.74	230.52
777.07	230.48
777.39	230.46
777.72	230.42
778.04	230.41
778.36	230.38
778.69	230.36
779.01	230.33
779.33	230.19
779.66	230.02
779.98	229.99
780.31	229.97
780.63	230.00
780.95	230.00
781.28	229.97
781.60	229.94
781.92	229.92
782.25	229.90
782.57	229.87
782.89	229.84
783.22	229.81
783.54	229.77
783.86	229.77
784.19	229.73
784.51	229.76
784.83	229.71
785.16	229.68
785.48	229.66
785.80	229.63
786.12	229.62
786.45	229.60
786.77	229.58
787.09	229.54
787.42	229.48
787.74	229.46
788.06	229.45
788.38	229.42
788.71	229.39
789.03	229.37
789.35	229.37
789.67	229.35
789.99	229.33
790.32	229.30
790.64	229.29
790.96	229.39
791.28	229.32
791.61	229.30
791.93	229.30
792.25	229.27
792.57	229.34
792.89	229.30
793.21	229.29
793.54	229.26
793.86	229.25
794.18	229.23
794.50	229.18
794.82	229.16
795.14	229.17
795.47	229.17
795.79	229.16
796.11	229.12
796.43	229.09
796.75	229.08
797.07	229.07
797.39	229.04
797.71	228.92
798.04	228.92
798.36	228.92
798.68	228.89
799.00	228.89
799.32	228.81
799.64	228.82
799.96	228.80
800.28	228.80
800.60	228.77
800.92	228.76
801.24	228.74
801.56	228.73
801.89	228.70
802.21	228.69
802.53	228.66
802.85	228.66
803.17	228.71
803.49	228.66
803.81	228.64
804.13	228.62
804.45	228.58
804.77	228.57
805.09	228.56
805.41	228.53
805.73	228.50
806.05	228.45
806.37	228.43
806.69	228.41
807.01	228.39
807.33	228.39
807.65	228.33
807.97	228.39
808.28	228.36
808.60	228.35
808.92	228.32
809.24	228.38
809.56	228.35
809.88	228.29
810.20	228.29
810.52	228.31
810.84	228.29
811.16	228.27
811.48	228.24
811.80	228.27
812.12	228.26
812.43	228.26
812.75	228.27
813.07	228.25
813.39	228.24
813.71	228.22
814.03	228.19
814.35	228.19
814.67	228.13
814.98	228.10
815.30	228.10
815.62	228.07
815.94	227.98
816.26	227.99
816.58	227.96
816.89	227.96
817.21	227.91
817.53	227.92
817.85	227.91
818.17	227.90
818.48	227.85
818.80	227.86
819.12	227.84
819.44	227.81
819.76	227.79
820.07	227.78
820.39	227.77
820.71	227.78
821.03	227.78
821.34	227.76
821.66	227.77
821.98	227.78
822.30	227.78
822.61	227.85
822.93	227.83
823.25	227.82
823.57	227.80
823.88	227.82
824.20	227.80
824.52	227.82
824.83	227.81
825.15	227.80
825.47	227.79
825.79	227.80
826.10	227.79
826.42	227.78
826.74	227.78
827.05	227.77
827.37	227.78
827.69	227.77
828.00	227.77
828.32	227.75
828.64	227.73
828.95	227.78
829.27	227.73
829.58	227.72
829.90	227.74
830.22	227.74
830.53	227.72
830.85	227.70
831.17	227.67
831.48	227.68
831.80	227.68
832.11	227.67
832.43	227.64
832.75	227.63
833.06	227.70
833.38	227.66
833.69	227.66
834.01	227.65
834.32	227.65
834.64	227.63
834.96	227.63
835.27	227.63
835.59	227.58
835.90	227.55
836.22	227.53
836.53	227.49
836.85	227.48
837.16	227.59
837.48	227.60
837.79	227.63
838.11	227.63
838.42	227.61
838.74	227.62
839.05	227.60
839.37	227.59
839.68	227.51
840.00	227.50
840.31	227.52
840.63	227.51
840.94	227.50
841.26	227.49
841.57	227.48
841.88	227.49
842.20	227.47
842.51	227.45
842.83	227.46
843.14	227.58
843.46	227.59
843.77	227.52
844.08	227.50
844.40	227.45
844.71	227.43
845.03	227.42
845.34	227.41
845.65	227.40
845.97	227.40
846.28	227.41
846.60	227.42
846.91	227.38
847.22	227.37
847.54	227.38
847.85	227.39
848.16	227.37
848.48	227.35
848.79	227.39
849.10	227.41
849.42	227.40
849.73	227.27
850.04	227.26
850.36	227.22
850.67	227.24
850.98	227.24
851.30	227.26
851.61	227.25
851.92	227.25
852.23	227.30
852.55	227.31
852.86	227.32
853.17	227.33
853.49	227.37
853.80	227.39
854.11	227.40
854.42	227.41
854.74	227.40
855.05	227.40
855.36	227.34
855.67	227.34
855.99	227.34
856.30	227.49
856.61	227.48
856.92	227.48
857.23	227.48
857.55	227.47
857.86	227.45
858.17	227.47
858.48	227.45
858.79	227.41
859.11	227.42
859.42	227.40
859.73	227.37
860.04	227.35
860.35	227.31
860.66	227.27
860.98	227.27
861.29	227.29
861.60	227.28
861.91	227.31
862.22	227.28
862.53	227.25
862.84	227.10
863.16	227.13
863.47	227.12
863.78	227.10
864.09	227.11
864.40	227.11
864.71	227.11
865.02	227.13
865.33	227.12
865.64	227.10
865.95	227.09
866.27	227.18
866.58	227.17
866.89	227.20
867.20	227.19
867.51	227.17
867.82	227.15
868.13	227.19
868.44	227.16
868.75	227.20
869.06	227.22
869.37	227.24
869.68	227.20
869.99	227.22
870.30	227.23
870.61	227.24
870.92	227.22
871.23	227.21
871.54	227.21
871.85	227.24
872.16	227.26
872.47	227.25
872.78	227.19
873.09	227.20
873.40	227.18
873.71	227.19
874.02	227.19
874.33	227.19
874.64	227.15
874.95	227.17
875.26	227.13
875.56	227.12
875.87	227.11
876.18	227.11
876.49	227.22
876.80	227.20
877.11	227.18
877.42	227.19
877.73	227.19
878.04	227.17
878.35	227.17
878.66	227.17
878.96	227.18
879.27	227.17
879.58	227.15
879.89	227.14
880.20	227.18
880.51	227.17
880.82	227.17
881.12	227.18
881.43	227.14
881.74	227.13
882.05	227.12
882.36	227.13
882.67	227.13
882.97	227.00
883.28	227.00
883.59	226.99
883.90	226.99
884.21	227.00
884.51	227.00
884.82	226.98
885.13	226.98
885.44	226.96
885.74	226.96
886.05	226.95
886.36	226.94
886.67	226.89
886.98	226.96
887.28	226.96
887.59	226.96
887.90	226.97
888.20	226.97
888.51	226.99
888.82	226.97
889.13	226.98
889.43	227.09
889.74	227.08
890.05	227.09
890.35	227.07
890.66	227.05
890.97	227.03
891.28	227.01
891.58	227.00
891.89	227.01
892.20	226.99
892.50	226.98
892.81	226.99
893.12	226.99
893.42	226.92
893.73	226.93
894.04	226.93
894.34	226.94
894.65	226.93
894.95	226.91
895.26	226.91
895.57	226.96
895.87	226.84
896.18	226.85
896.48	226.85
896.79	226.85
897.10	226.88
897.40	226.89
897.71	226.92
898.01	226.91
898.32	226.92
898.63	226.92
898.93	226.94
899.24	226.94
899.54	226.94
899.85	226.94
900.15	226.93
900.46	226.93
900.76	226.93
901.07	226.94
901.38	226.94
901.68	226.94
901.99	226.88
902.29	226.88
902.60	226.87
902.90	226.86
903.21	226.86
903.51	226.84
903.82	226.88
904.12	226.87
904.43	226.88
904.73	226.88
905.03	226.90
905.34	227.01
905.64	227.00
905.95	227.00
906.25	226.99
906.56	226.98
906.86	226.97
907.17	226.96
907.47	226.97
907.77	226.95
908.08	226.93
908.38	226.94
908.69	226.95
908.99	226.98
909.30	226.99
909.60	226.98
909.90	226.99
910.21	226.95
910.51	226.92
910.81	226.91
911.12	226.91
911.42	226.90
911.73	226.77
912.03	226.78
912.33	226.79
912.64	226.79
912.94	226.78
913.24	226.77
913.55	226.76
913.85	226.76
914.15	226.78
914.46	226.80
914.76	226.79
915.06	226.79
915.37	226.75
915.67	226.74
915.97	226.74
916.27	226.72
916.58	226.73
916.88	226.73
917.18	226.72
917.49	226.81
917.79	226.80
918.09	226.83
918.39	226.86
918.70	226.86
919.00	226.86
919.30	226.93
919.60	226.92
919.91	226.91
920.21	226.92
920.51	226.90
920.81	226.89
921.12	226.91
921.42	226.91
921.72	226.92
922.02	226.94
922.32	226.96
922.63	226.95
922.93	227.01
923.23	227.03
923.53	227.01
923.83	226.92
924.13	226.93
924.44	226.93
924.74	226.94
925.04	226.97
925.34	226.97
925.64	226.91
925.94	226.91
926.24	226.98
926.55	226.97
926.85	226.98
927.15	226.99
927.45	226.99
927.75	226.98
928.05	226.98
928.35	226.98
928.65	226.99
928.95	227.01
929.26	226.96
929.56	226.97
929.86	226.99
930.16	226.99
930.46	226.98
930.76	226.98
931.06	226.93
931.36	226.89
931.66	226.91
931.96	226.93
932.26	226.95
932.56	226.89
932.86	226.91
933.16	226.92
933.46	226.90
933.76	226.87
934.06	226.90
934.36	226.93
934.66	226.92
934.96	226.90
935.26	226.91
935.56	226.92
935.86	226.88
936.16	226.86
936.46	226.84
936.76	226.84
937.06	226.81
937.36	226.82
937.66	226.83
937.96	226.82
938.26	226.79
938.56	226.78
938.86	226.79
939.16	226.81
939.46	226.82
939.76	226.82
940.06	226.82
940.35	226.80
940.65	226.74
940.95	226.74
941.25	226.72
941.55	226.71
941.85	226.70
942.15	226.74
942.45	226.78
942.75	226.79
943.04	226.78
943.34	226.82
943.64	226.81
943.94	226.80
944.24	226.80
944.54	226.81
944.84	226.81
945.13	226.79
945.43	226.76
945.73	226.74
946.03	226.74
946.33	226.73
946.62	226.71
946.92	226.71
947.22	226.72
947.52	226.74
947.82	226.74
948.11	226.73
948.41	226.69
948.71	226.65
949.01	226.66
949.31	226.65
949.60	226.63
949.90	226.65
950.20	226.64
950.50	226.63
950.79	226.63
951.09	226.64
951.39	226.64
951.69	226.63
951.98	226.67
952.28	226.67
952.58	226.66
952.87	226.67
953.17	226.69
953.47	226.67
953.76	226.66
954.06	226.65
954.36	226.63
954.66	226.64
954.95	226.68
955.25	226.68
955.55	226.71
955.84	226.68
956.14	226.69
956.44	226.70
956.73	226.69
957.03	226.70
957.32	226.70
957.62	226.69
957.92	226.71
958.21	226.69
958.51	226.83
958.81	226.84
959.10	226.86
959.40	226.89
959.69	226.91
959.99	226.93
960.29	226.92
960.58	226.92
960.88	226.97
961.17	226.96
961.47	226.97
961.76	226.95
962.06	226.97
962.36	226.96
962.65	226.96
962.95	226.97
963.24	226.96
963.54	226.98
963.83	226.99
964.13	226.98
964.42	226.97
964.72	226.87
965.01	226.88
965.31	226.86
965.60	226.83
965.90	226.91
966.19	226.88
966.49	226.89
966.78	226.88
967.08	226.86
967.37	226.85
967.67	226.82
967.96	226.85
968.26	226.85
968.55	226.86
968.85	226.86
969.14	226.86
969.43	226.85
969.73	226.83
970.02	226.83
970.32	226.82
970.61	226.80
970.91	226.76
971.20	226.74
971.49	226.73
971.79	226.75
972.08	226.65
972.38	226.67
972.67	226.67
972.96	226.69
973.26	226.67
973.55	226.71
973.85	226.72
974.14	226.69
974.43	226.70
974.73	226.68
975.02	226.66
975.31	226.66
975.61	226.66
975.90	226.65
976.19	226.64
976.49	226.64
976.78	226.65
977.07	226.66
977.37	226.67
977.66	226.68
977.95	226.65
978.24	226.67
978.54	226.69
978.83	226.68
979.12	226.66
979.42	226.66
979.71	226.65
980.00	226.64
980.29	226.65
980.59	226.62
980.88	226.66
981.17	226.66
981.46	226.66
981.76	226.66
982.05	226.69
982.34	226.70
982.63	226.70
982.93	226.70
983.22	226.72
983.51	226.74
983.80	226.75
984.09	226.76
984.39	226.74
984.68	226.73
984.97	226.73
985.26	226.73
985.55	226.74
985.85	226.71
986.14	226.73
986.43	226.75
986.72	226.74
987.01	226.70
987.30	226.71
987.59	226.70
987.89	226.70
988.18	226.68
988.47	226.66
988.76	226.65
989.05	226.65
989.34	226.64
989.63	226.66
989.92	226.64
990.22	226.62
990.51	226.62
990.80	226.61
991.09	226.62
991.38	226.64
991.67	226.63
991.96	226.61
992.25	226.62
992.54	226.58
992.83	226.59
993.12	226.59
993.41	226.60
993.70	226.65
993.99	226.67
994.28	226.68
994.58	226.71
994.87	226.70
995.16	226.70
995.45	226.68
995.74	226.64
996.03	226.67
996.32	226.69
996.61	226.71
996.90	226.72
997.19	226.72
997.48	226.71
997.77	226.70
998.06	226.70
998.34	226.69
998.63	226.70
998.92	226.69
999.21	226.71
999.50	226.70
999.79	226.66
1000.08	226.65
1000.37	226.65
1000.66	226.63
1000.95	226.66
1001.24	226.67
1001.53	226.68
1001.82	226.68
1002.11	226.65
1002.40	226.66
1002.68	226.69
1002.97	226.77
1003.26	226.75
1003.55	226.72
1003.84	226.74
1004.13	226.79
1004.42	226.78
1004.71	226.78
1004.99	226.78
1005.28	226.81
1005.57	226.80
1005.86	226.80
1006.15	226.79
1006.44	226.78
1006.72	226.79
1007.01	226.76
1007.30	226.76
1007.59	226.75
1007.88	226.75
1008.17	226.77
1008.45	226.73
1008.74	226.68
1009.03	226.61
1009.32	226.62
1009.60	226.63
1009.89	226.61
1010.18	226.56
1010.47	226.55
1010.76	226.55
1011.04	226.55
1011.33	226.54
1011.62	226.55
1011.91	226.56
1012.19	226.56
1012.48	226.56
1012.77	226.57
1013.05	226.62
1013.34	226.62
1013.63	226.61
1013.92	226.62
1014.20	226.60
1014.49	226.61
1014.78	226.63
1015.06	226.59
1015.35	226.59
1015.64	226.61
1015.92	226.63
1016.21	226.64
1016.50	226.64
1016.78	226.66
1017.07	226.67
1017.36	226.65
1017.64	226.64
1017.93	226.64
1018.22	226.63
1018.50	226.63
1018.79	226.62
1019.08	226.58
1019.36	226.58
1019.65	226.57
1019.93	226.61
1020.22	226.63
1020.51	226.69
1020.79	226.67
1021.08	226.45
1021.36	226.43
1021.65	226.56
1021.94	226.59
1022.22	226.61
1022.51	226.38
1022.79	227.20
1023.08	226.84
1023.36	227.90
1023.65	226.32
>>>>>End Processed Spectral Data<<<<<
