SpectraSuite Data File
++++++++++++++++++++++++++++++++++++
Date: Fri Oct 02 16:19:29 EDT 2015
User: lab3
Dark Spectrum Present: No
Reference Spectrum Present: No
Number of Sampled Component Spectra: 1
Spectrometers: USB2E7196
Integration Time (usec): 46000 (USB2E7196)
Spectra Averaged: 1200 (USB2E7196)
Boxcar Smoothing: 10 (USB2E7196)
Correct for Electrical Dark: No (USB2E7196)
Strobe/Lamp Enabled: No (USB2E7196)
Correct for Detector Non-linearity: No (USB2E7196)
Correct for Stray Light: No (USB2E7196)
Number of Pixels in Processed Spectrum: 2048
>>>>>Begin Processed Spectral Data<<<<<
339.09	0.00
339.48	214.73
339.86	216.50
340.24	217.67
340.63	219.31
341.01	222.40
341.39	221.82
341.78	223.08
342.16	224.31
342.54	224.76
342.93	213.27
343.31	224.04
343.69	224.59
344.07	225.05
344.46	225.49
344.84	225.87
345.22	226.09
345.60	226.35
345.99	226.55
346.37	226.69
346.75	226.80
347.13	226.87
347.52	226.94
347.90	227.04
348.28	227.08
348.66	227.14
349.05	227.14
349.43	227.21
349.81	227.27
350.19	227.32
350.57	227.39
350.96	227.48
351.34	227.57
351.72	227.67
352.10	227.77
352.48	227.84
352.87	227.89
353.25	227.96
353.63	228.03
354.01	228.11
354.39	228.19
354.77	228.28
355.15	228.39
355.54	228.45
355.92	228.48
356.30	228.55
356.68	228.70
357.06	228.77
357.44	228.83
357.82	228.89
358.20	229.01
358.58	229.07
358.97	229.13
359.35	229.22
359.73	229.29
360.11	229.35
360.49	229.42
360.87	229.47
361.25	229.53
361.63	229.61
362.01	229.67
362.39	229.70
362.77	229.74
363.15	229.76
363.53	229.79
363.91	229.83
364.29	229.86
364.67	229.76
365.05	229.79
365.43	229.82
365.81	229.84
366.19	229.87
366.57	229.93
366.95	229.93
367.33	229.90
367.71	229.90
368.09	229.91
368.47	229.90
368.85	229.89
369.23	229.91
369.61	229.85
369.99	229.87
370.37	229.86
370.75	229.93
371.13	229.90
371.51	229.85
371.89	229.83
372.27	229.80
372.65	229.78
373.03	229.74
373.41	229.69
373.78	229.64
374.16	229.53
374.54	229.44
374.92	229.39
375.30	229.35
375.68	229.28
376.06	229.24
376.44	229.18
376.82	229.14
377.19	229.08
377.57	229.02
377.95	228.93
378.33	228.87
378.71	228.72
379.09	228.67
379.47	228.65
379.84	228.58
380.22	228.53
380.60	228.44
380.98	228.39
381.36	228.34
381.73	228.27
382.11	228.25
382.49	228.20
382.87	228.13
383.25	228.08
383.62	228.19
384.00	228.12
384.38	228.08
384.76	228.07
385.13	228.07
385.51	228.02
385.89	227.97
386.27	227.93
386.64	227.90
387.02	227.85
387.40	227.80
387.78	227.77
388.15	227.74
388.53	227.71
388.91	227.68
389.29	227.64
389.66	227.64
390.04	227.59
390.42	227.61
390.79	227.60
391.17	227.58
391.55	227.42
391.92	227.41
392.30	227.40
392.68	227.36
393.05	227.34
393.43	227.36
393.81	227.36
394.18	227.33
394.56	227.34
394.94	227.37
395.31	227.37
395.69	227.42
396.06	227.45
396.44	227.48
396.82	227.48
397.19	227.57
397.57	227.58
397.95	227.64
398.32	227.62
398.70	227.67
399.07	227.73
399.45	227.77
399.82	227.81
400.20	227.85
400.58	227.90
400.95	227.91
401.33	228.00
401.70	228.15
402.08	228.26
402.45	228.34
402.83	228.46
403.20	228.56
403.58	228.66
403.95	228.80
404.33	228.95
404.71	229.10
405.08	229.31
405.46	229.47
405.83	229.65
406.21	229.84
406.58	230.06
406.96	230.28
407.33	230.53
407.70	230.81
408.08	231.19
408.45	231.53
408.83	231.89
409.20	232.20
409.58	232.49
409.95	232.89
410.33	233.35
410.70	233.76
411.08	234.26
411.45	234.77
411.82	235.29
412.20	235.88
412.57	236.58
412.95	237.14
413.32	237.88
413.69	238.64
414.07	239.44
414.44	240.32
414.82	241.20
415.19	242.24
415.56	243.30
415.94	244.38
416.31	245.60
416.68	246.83
417.06	248.27
417.43	249.60
417.81	251.13
418.18	252.68
418.55	254.39
418.93	256.16
419.30	258.01
419.67	259.98
420.04	262.00
420.42	264.10
420.79	266.52
421.16	268.97
421.54	271.46
421.91	274.06
422.28	276.75
422.66	279.66
423.03	282.45
423.40	285.35
423.77	288.48
424.15	291.68
424.52	295.01
424.89	298.59
425.26	302.19
425.64	305.52
426.01	309.27
426.38	313.11
426.75	317.05
427.13	321.10
427.50	325.35
427.87	329.77
428.24	334.22
428.61	338.51
428.99	343.14
429.36	348.22
429.73	353.08
430.10	357.96
430.47	362.92
430.85	368.03
431.22	373.54
431.59	379.20
431.96	384.74
432.33	390.87
432.70	396.72
433.08	403.61
433.45	410.13
433.82	416.57
434.19	423.75
434.56	430.83
434.93	437.67
435.30	444.42
435.68	452.07
436.05	459.58
436.42	467.06
436.79	473.87
437.16	481.22
437.53	489.08
437.90	496.97
438.27	504.69
438.64	513.02
439.01	520.57
439.38	527.47
439.75	534.10
440.13	541.59
440.50	548.72
440.87	554.38
441.24	560.58
441.61	567.33
441.98	572.22
442.35	578.04
442.72	583.98
443.09	589.61
443.46	593.14
443.83	595.70
444.20	597.81
444.57	601.04
444.94	602.83
445.31	604.69
445.68	606.23
446.05	607.30
446.42	606.79
446.79	606.07
447.16	605.42
447.53	604.81
447.90	602.27
448.27	599.80
448.64	596.16
449.01	593.56
449.37	588.58
449.74	584.07
450.11	578.31
450.48	572.01
450.85	565.74
451.22	560.36
451.59	555.12
451.96	550.37
452.33	543.50
452.70	537.40
453.07	530.00
453.43	522.64
453.80	515.51
454.17	508.71
454.54	502.45
454.91	495.36
455.28	488.75
455.65	482.52
456.02	475.96
456.38	470.67
456.75	463.88
457.12	458.41
457.49	452.92
457.86	447.72
458.23	443.22
458.59	438.21
458.96	433.08
459.33	428.56
459.70	423.98
460.07	420.50
460.43	416.40
460.80	412.59
461.17	409.27
461.54	405.67
461.91	402.31
462.27	398.90
462.64	396.17
463.01	393.00
463.38	389.80
463.74	386.92
464.11	384.38
464.48	382.11
464.85	379.63
465.21	377.76
465.58	375.67
465.95	373.24
466.32	371.32
466.68	369.44
467.05	367.57
467.42	365.71
467.78	363.72
468.15	361.89
468.52	360.56
468.88	358.76
469.25	357.12
469.62	355.83
469.98	354.41
470.35	353.15
470.72	352.00
471.08	350.84
471.45	349.85
471.82	348.76
472.18	347.60
472.55	346.87
472.92	345.92
473.28	345.19
473.65	344.40
474.02	343.66
474.38	343.03
474.75	342.68
475.11	342.17
475.48	341.95
475.85	341.70
476.21	341.57
476.58	341.48
476.94	341.63
477.31	341.71
477.67	341.80
478.04	342.02
478.41	342.32
478.77	342.74
479.14	343.02
479.50	343.54
479.87	344.22
480.23	344.90
480.60	345.56
480.96	346.23
481.33	347.22
481.69	348.19
482.06	349.18
482.42	350.06
482.79	351.18
483.15	352.48
483.52	353.95
483.88	355.36
484.25	356.87
484.61	358.45
484.98	360.15
485.34	362.06
485.71	364.05
486.07	366.20
486.44	368.35
486.80	370.75
487.17	373.23
487.53	375.95
487.90	378.78
488.26	381.89
488.62	385.14
488.99	388.40
489.35	391.83
489.72	395.56
490.08	399.49
490.44	403.54
490.81	407.73
491.17	412.04
491.54	416.64
491.90	421.40
492.26	426.52
492.63	431.86
492.99	437.45
493.36	443.22
493.72	449.29
494.08	455.51
494.45	462.10
494.81	468.96
495.17	475.98
495.54	483.39
495.90	491.10
496.26	498.99
496.63	507.15
496.99	515.62
497.35	524.46
497.72	533.59
498.08	542.94
498.44	552.61
498.80	562.82
499.17	573.34
499.53	584.16
499.89	595.33
500.26	606.71
500.62	618.35
500.98	630.66
501.34	643.11
501.71	656.12
502.07	669.25
502.43	682.91
502.79	696.84
503.16	711.21
503.52	725.77
503.88	740.74
504.24	756.18
504.60	771.83
504.97	787.92
505.33	804.38
505.69	821.75
506.05	839.40
506.41	857.04
506.78	874.82
507.14	893.09
507.50	911.82
507.86	930.86
508.22	950.16
508.59	969.29
508.95	989.28
509.31	1009.87
509.67	1031.20
510.03	1052.50
510.39	1073.80
510.75	1095.34
511.12	1117.12
511.48	1139.03
511.84	1160.94
512.20	1183.24
512.56	1206.37
512.92	1229.52
513.28	1252.27
513.64	1275.17
514.00	1298.45
514.37	1322.05
514.73	1345.73
515.09	1369.26
515.45	1393.08
515.81	1417.10
516.17	1441.07
516.53	1464.60
516.89	1488.06
517.25	1511.69
517.61	1535.23
517.97	1559.09
518.33	1582.28
518.69	1605.42
519.05	1629.12
519.41	1653.01
519.77	1677.05
520.13	1700.40
520.49	1723.64
520.85	1747.14
521.21	1770.36
521.57	1793.99
521.93	1817.07
522.29	1840.53
522.65	1863.41
523.01	1886.25
523.37	1908.61
523.73	1931.83
524.09	1954.57
524.45	1977.14
524.81	1999.18
525.17	2020.95
525.53	2042.35
525.89	2064.33
526.25	2086.31
526.61	2107.19
526.97	2128.09
527.33	2148.81
527.68	2169.27
528.04	2189.02
528.40	2207.78
528.76	2226.69
529.12	2244.94
529.48	2263.03
529.84	2279.26
530.20	2296.12
530.56	2312.44
530.91	2328.87
531.27	2344.91
531.63	2360.12
531.99	2374.93
532.35	2389.14
532.71	2403.46
533.07	2418.09
533.42	2430.85
533.78	2444.66
534.14	2458.71
534.50	2471.85
534.86	2484.81
535.21	2495.94
535.57	2507.54
535.93	2518.92
536.29	2529.13
536.65	2539.38
537.00	2548.76
537.36	2559.21
537.72	2568.28
538.08	2576.71
538.44	2584.59
538.79	2591.98
539.15	2598.73
539.51	2604.97
539.87	2610.53
540.22	2614.38
540.58	2618.27
540.94	2623.58
541.29	2627.06
541.65	2628.83
542.01	2630.09
542.37	2630.71
542.72	2632.45
543.08	2632.69
543.44	2633.50
543.79	2633.32
544.15	2632.29
544.51	2631.57
544.87	2629.69
545.22	2627.06
545.58	2623.79
545.94	2620.48
546.29	2616.00
546.65	2611.60
547.01	2607.11
547.36	2603.39
547.72	2599.46
548.07	2594.28
548.43	2587.65
548.79	2580.18
549.14	2573.85
549.50	2567.76
549.86	2560.66
550.21	2552.74
550.57	2545.38
550.92	2535.97
551.28	2527.28
551.64	2518.80
551.99	2509.95
552.35	2500.54
552.70	2491.44
553.06	2482.98
553.41	2473.86
553.77	2464.47
554.13	2454.77
554.48	2444.48
554.84	2432.96
555.19	2422.16
555.55	2411.17
555.90	2400.15
556.26	2389.61
556.61	2378.23
556.97	2365.40
557.32	2353.19
557.68	2340.58
558.03	2328.02
558.39	2316.59
558.74	2305.22
559.10	2292.43
559.45	2279.81
559.81	2267.80
560.16	2255.40
560.52	2242.88
560.87	2230.67
561.23	2217.77
561.58	2205.18
561.94	2192.09
562.29	2178.67
562.64	2165.85
563.00	2152.72
563.35	2140.13
563.71	2127.36
564.06	2114.39
564.42	2101.99
564.77	2089.09
565.12	2076.33
565.48	2063.55
565.83	2050.70
566.19	2038.11
566.54	2025.23
566.89	2011.54
567.25	1998.02
567.60	1985.51
567.96	1972.43
568.31	1958.03
568.66	1944.37
569.02	1931.73
569.37	1919.04
569.72	1906.88
570.08	1893.51
570.43	1879.82
570.78	1865.80
571.14	1851.36
571.49	1837.60
571.84	1824.42
572.20	1810.12
572.55	1796.04
572.90	1781.76
573.26	1767.47
573.61	1752.68
573.96	1738.44
574.31	1724.30
574.67	1710.24
575.02	1695.31
575.37	1680.27
575.72	1666.30
576.08	1652.62
576.43	1637.91
576.78	1623.69
577.13	1609.66
577.49	1596.14
577.84	1583.15
578.19	1569.38
578.54	1555.71
578.90	1541.58
579.25	1527.38
579.60	1514.54
579.95	1501.68
580.30	1488.61
580.66	1475.31
581.01	1461.98
581.36	1448.72
581.71	1436.42
582.06	1423.89
582.42	1411.61
582.77	1399.49
583.12	1387.30
583.47	1374.90
583.82	1362.75
584.17	1350.24
584.53	1337.39
584.88	1324.79
585.23	1311.89
585.58	1299.83
585.93	1287.95
586.28	1276.66
586.63	1265.32
586.98	1253.61
587.34	1241.96
587.69	1230.21
588.04	1218.79
588.39	1207.78
588.74	1196.87
589.09	1185.76
589.44	1174.33
589.79	1163.40
590.14	1152.61
590.49	1141.72
590.84	1130.96
591.19	1120.44
591.54	1109.87
591.89	1099.43
592.25	1089.22
592.60	1078.71
592.95	1068.44
593.30	1058.44
593.65	1048.24
594.00	1038.11
594.35	1028.59
594.70	1018.66
595.05	1009.49
595.40	1000.31
595.75	990.91
596.10	981.89
596.45	972.71
596.80	963.81
597.15	954.85
597.50	945.95
597.85	937.42
598.19	928.79
598.54	920.21
598.89	911.94
599.24	904.00
599.59	895.92
599.94	888.64
600.29	881.18
600.64	873.45
600.99	865.43
601.34	857.78
601.69	849.75
602.04	842.34
602.39	834.85
602.74	827.35
603.08	819.85
603.43	812.39
603.78	805.05
604.13	797.88
604.48	790.60
604.83	783.55
605.18	776.37
605.53	769.46
605.87	762.40
606.22	755.61
606.57	748.77
606.92	741.78
607.27	734.80
607.62	728.18
607.96	721.86
608.31	715.91
608.66	709.77
609.01	703.93
609.36	698.19
609.70	692.19
610.05	686.19
610.40	680.44
610.75	674.70
611.10	669.24
611.44	663.65
611.79	658.18
612.14	652.64
612.49	647.20
612.83	641.93
613.18	636.82
613.53	631.63
613.88	626.49
614.22	621.74
614.57	616.91
614.92	611.88
615.27	606.98
615.61	602.14
615.96	597.37
616.31	592.56
616.65	587.87
617.00	583.37
617.35	578.92
617.70	574.56
618.04	570.27
618.39	565.94
618.74	561.79
619.08	557.68
619.43	553.65
619.78	549.65
620.12	545.67
620.47	541.79
620.82	538.01
621.16	534.25
621.51	530.43
621.85	526.64
622.20	523.03
622.55	519.42
622.89	515.86
623.24	512.33
623.59	508.83
623.93	505.41
624.28	502.09
624.62	498.91
624.97	495.73
625.32	492.48
625.66	489.19
626.01	485.90
626.35	482.68
626.70	479.49
627.04	476.49
627.39	473.41
627.73	470.47
628.08	467.61
628.43	464.74
628.77	461.94
629.12	459.24
629.46	456.56
629.81	453.84
630.15	451.10
630.50	448.45
630.84	445.86
631.19	443.34
631.53	440.90
631.88	438.40
632.22	435.92
632.57	433.73
632.91	431.56
633.26	429.44
633.60	427.34
633.95	425.33
634.29	423.20
634.64	421.14
634.98	418.90
635.32	416.84
635.67	414.92
636.01	412.91
636.36	410.96
636.70	409.12
637.05	407.28
637.39	405.51
637.73	403.71
638.08	402.04
638.42	400.33
638.77	398.52
639.11	396.65
639.45	394.87
639.80	393.01
640.14	391.25
640.49	389.49
640.83	387.70
641.17	385.96
641.52	384.28
641.86	382.62
642.20	381.15
642.55	379.51
642.89	377.92
643.23	376.39
643.58	375.00
643.92	373.50
644.26	372.04
644.61	370.61
644.95	369.17
645.29	367.64
645.64	366.13
645.98	364.70
646.32	363.39
646.66	362.06
647.01	360.74
647.35	359.48
647.69	358.20
648.04	357.05
648.38	355.81
648.72	354.58
649.06	353.33
649.41	352.13
649.75	350.96
650.09	349.80
650.43	348.65
650.78	347.45
651.12	346.28
651.46	345.17
651.80	344.08
652.14	343.00
652.49	341.98
652.83	340.95
653.17	339.95
653.51	338.96
653.85	338.02
654.20	337.04
654.54	335.98
654.88	335.01
655.22	334.05
655.56	333.08
655.90	332.17
656.25	331.30
656.59	330.38
656.93	329.53
657.27	328.67
657.61	327.77
657.95	326.91
658.29	326.04
658.64	325.22
658.98	324.40
659.32	323.59
659.66	322.84
660.00	322.06
660.34	321.32
660.68	320.52
661.02	319.71
661.36	318.92
661.70	318.17
662.05	317.42
662.39	316.69
662.73	316.05
663.07	315.40
663.41	314.70
663.75	314.00
664.09	313.31
664.43	312.57
664.77	311.92
665.11	311.21
665.45	310.57
665.79	309.93
666.13	309.24
666.47	308.56
666.81	307.83
667.15	307.10
667.49	306.46
667.83	305.88
668.17	305.26
668.51	304.68
668.85	304.14
669.19	303.62
669.53	302.99
669.87	302.34
670.21	301.73
670.55	301.15
670.89	300.63
671.23	300.08
671.57	299.56
671.91	299.07
672.25	298.61
672.58	298.13
672.92	297.57
673.26	297.10
673.60	296.63
673.94	296.19
674.28	295.78
674.62	295.31
674.96	294.81
675.30	294.37
675.64	293.89
675.97	293.37
676.31	292.85
676.65	292.37
676.99	291.95
677.33	291.44
677.67	291.00
678.01	290.47
678.34	290.01
678.68	289.57
679.02	289.07
679.36	288.60
679.70	288.12
680.04	287.69
680.37	287.24
680.71	286.81
681.05	286.38
681.39	285.91
681.73	285.43
682.06	284.97
682.40	284.52
682.74	284.12
683.08	283.76
683.42	283.34
683.75	282.96
684.09	282.51
684.43	282.10
684.77	281.67
685.10	281.31
685.44	280.93
685.78	280.52
686.12	280.15
686.45	279.74
686.79	279.31
687.13	278.92
687.46	278.50
687.80	278.11
688.14	277.67
688.48	277.28
688.81	276.89
689.15	276.52
689.49	276.11
689.82	275.70
690.16	275.25
690.50	274.86
690.83	274.47
691.17	274.06
691.51	273.70
691.84	273.33
692.18	272.93
692.52	272.52
692.85	272.13
693.19	271.77
693.52	271.40
693.86	271.02
694.20	270.64
694.53	270.28
694.87	269.87
695.21	269.50
695.54	269.13
695.88	268.74
696.21	268.34
696.55	267.98
696.88	267.63
697.22	267.26
697.56	266.90
697.89	266.51
698.23	266.16
698.56	265.77
698.90	265.41
699.23	265.04
699.57	264.68
699.90	264.32
700.24	263.93
700.58	263.62
700.91	263.32
701.25	263.10
701.58	262.84
701.92	262.55
702.25	262.24
702.59	261.90
702.92	261.59
703.26	261.27
703.59	260.93
703.93	260.70
704.26	260.41
704.60	260.08
704.93	259.77
705.26	259.44
705.60	259.19
705.93	258.86
706.27	258.61
706.60	258.36
706.94	258.11
707.27	257.79
707.61	257.48
707.94	257.16
708.27	256.73
708.61	256.38
708.94	256.07
709.28	255.78
709.61	255.49
709.94	255.24
710.28	254.98
710.61	254.75
710.95	254.38
711.28	254.18
711.61	253.92
711.95	253.69
712.28	253.43
712.61	253.14
712.95	252.96
713.28	252.77
713.61	252.48
713.95	252.20
714.28	251.97
714.61	251.72
714.95	251.47
715.28	251.24
715.61	251.02
715.95	250.80
716.28	250.57
716.61	250.39
716.95	250.14
717.28	249.92
717.61	249.66
717.94	249.44
718.28	249.13
718.61	248.92
718.94	248.68
719.27	248.47
719.61	248.27
719.94	248.03
720.27	247.73
720.60	247.52
720.94	247.32
721.27	247.11
721.60	246.92
721.93	246.71
722.27	246.54
722.60	246.35
722.93	246.14
723.26	245.95
723.59	245.72
723.93	245.54
724.26	245.36
724.59	245.18
724.92	245.01
725.25	244.88
725.59	244.71
725.92	244.57
726.25	244.38
726.58	244.21
726.91	244.02
727.24	243.88
727.57	243.72
727.91	243.54
728.24	243.41
728.57	243.24
728.90	243.11
729.23	242.92
729.56	242.81
729.89	242.65
730.22	242.49
730.55	242.34
730.89	242.20
731.22	242.04
731.55	241.89
731.88	241.73
732.21	241.56
732.54	241.40
732.87	241.26
733.20	241.13
733.53	240.99
733.86	240.87
734.19	240.71
734.52	240.60
734.85	240.56
735.18	240.39
735.51	240.30
735.84	240.16
736.17	240.07
736.50	239.88
736.83	239.91
737.16	239.79
737.49	239.67
737.82	239.54
738.15	239.44
738.48	239.32
738.81	239.20
739.14	239.07
739.47	238.95
739.80	238.83
740.13	238.72
740.46	238.59
740.79	238.45
741.12	238.34
741.45	238.21
741.78	238.02
742.11	237.93
742.44	237.79
742.77	237.70
743.10	237.56
743.43	237.45
743.75	237.20
744.08	237.28
744.41	237.17
744.74	237.06
745.07	236.93
745.40	236.86
745.73	236.81
746.06	236.72
746.39	236.64
746.71	236.53
747.04	236.43
747.37	236.34
747.70	236.27
748.03	236.18
748.36	236.10
748.68	236.01
749.01	235.89
749.34	235.80
749.67	235.71
750.00	235.64
750.33	235.65
750.65	235.59
750.98	235.32
751.31	235.24
751.64	235.16
751.97	235.15
752.29	235.05
752.62	234.91
752.95	234.83
753.28	234.73
753.60	234.65
753.93	234.60
754.26	234.53
754.59	234.40
754.91	234.32
755.24	234.23
755.57	234.21
755.90	234.14
756.22	234.06
756.55	233.96
756.88	233.87
757.20	233.70
757.53	233.60
757.86	233.53
758.19	233.46
758.51	233.39
758.84	233.26
759.17	233.18
759.49	233.11
759.82	233.10
760.15	233.04
760.47	232.98
760.80	232.87
761.13	232.83
761.45	232.77
761.78	232.70
762.11	232.65
762.43	232.52
762.76	232.45
763.08	232.40
763.41	232.35
763.74	232.29
764.06	232.23
764.39	232.18
764.71	232.12
765.04	232.05
765.37	231.97
765.69	231.92
766.02	231.87
766.34	231.80
766.67	231.70
767.00	231.66
767.32	231.68
767.65	231.71
767.97	231.64
768.30	231.59
768.62	231.55
768.95	231.48
769.27	231.43
769.60	231.40
769.92	231.33
770.25	231.27
770.57	231.20
770.90	231.15
771.22	231.09
771.55	231.05
771.87	231.01
772.20	230.97
772.52	231.04
772.85	231.15
773.17	231.11
773.50	231.05
773.82	230.99
774.15	230.88
774.47	230.75
774.80	230.69
775.12	230.64
775.45	230.61
775.77	230.58
776.09	230.56
776.42	230.52
776.74	230.53
777.07	230.49
777.39	230.46
777.72	230.42
778.04	230.40
778.36	230.36
778.69	230.32
779.01	230.29
779.33	230.15
779.66	229.97
779.98	229.93
780.31	229.92
780.63	229.94
780.95	229.93
781.28	229.91
781.60	229.89
781.92	229.87
782.25	229.83
782.57	229.81
782.89	229.77
783.22	229.74
783.54	229.68
783.86	229.66
784.19	229.64
784.51	229.65
784.83	229.62
785.16	229.59
785.48	229.58
785.80	229.56
786.12	229.56
786.45	229.53
786.77	229.52
787.09	229.48
787.42	229.42
787.74	229.40
788.06	229.38
788.38	229.34
788.71	229.32
789.03	229.30
789.35	229.29
789.67	229.26
789.99	229.25
790.32	229.22
790.64	229.20
790.96	229.30
791.28	229.25
791.61	229.22
791.93	229.21
792.25	229.18
792.57	229.25
792.89	229.21
793.21	229.21
793.54	229.18
793.86	229.15
794.18	229.13
794.50	229.10
794.82	229.09
795.14	229.10
795.47	229.10
795.79	229.09
796.11	229.03
796.43	229.02
796.75	229.00
797.07	229.00
797.39	228.98
797.71	228.86
798.04	228.85
798.36	228.84
798.68	228.83
799.00	228.82
799.32	228.73
799.64	228.74
799.96	228.72
800.28	228.74
800.60	228.72
800.92	228.73
801.24	228.70
801.56	228.70
801.89	228.68
802.21	228.67
802.53	228.63
802.85	228.65
803.17	228.70
803.49	228.66
803.81	228.63
804.13	228.61
804.45	228.58
804.77	228.57
805.09	228.56
805.41	228.54
805.73	228.51
806.05	228.47
806.37	228.44
806.69	228.42
807.01	228.39
807.33	228.39
807.65	228.33
807.97	228.38
808.28	228.33
808.60	228.33
808.92	228.30
809.24	228.37
809.56	228.34
809.88	228.28
810.20	228.28
810.52	228.30
810.84	228.28
811.16	228.25
811.48	228.23
811.80	228.27
812.12	228.24
812.43	228.25
812.75	228.25
813.07	228.23
813.39	228.22
813.71	228.20
814.03	228.18
814.35	228.18
814.67	228.12
814.98	228.10
815.30	228.08
815.62	228.05
815.94	227.96
816.26	227.96
816.58	227.93
816.89	227.93
817.21	227.88
817.53	227.89
817.85	227.90
818.17	227.89
818.48	227.83
818.80	227.86
819.12	227.83
819.44	227.79
819.76	227.77
820.07	227.77
820.39	227.75
820.71	227.76
821.03	227.76
821.34	227.74
821.66	227.75
821.98	227.75
822.30	227.74
822.61	227.80
822.93	227.77
823.25	227.77
823.57	227.75
823.88	227.76
824.20	227.73
824.52	227.74
824.83	227.73
825.15	227.71
825.47	227.69
825.79	227.70
826.10	227.70
826.42	227.69
826.74	227.68
827.05	227.68
827.37	227.67
827.69	227.65
828.00	227.66
828.32	227.65
828.64	227.63
828.95	227.69
829.27	227.65
829.58	227.64
829.90	227.66
830.22	227.66
830.53	227.65
830.85	227.65
831.17	227.60
831.48	227.60
831.80	227.59
832.11	227.59
832.43	227.57
832.75	227.56
833.06	227.64
833.38	227.61
833.69	227.61
834.01	227.61
834.32	227.62
834.64	227.60
834.96	227.59
835.27	227.58
835.59	227.54
835.90	227.53
836.22	227.53
836.53	227.49
836.85	227.47
837.16	227.60
837.48	227.58
837.79	227.62
838.11	227.62
838.42	227.62
838.74	227.63
839.05	227.61
839.37	227.60
839.68	227.52
840.00	227.51
840.31	227.52
840.63	227.49
840.94	227.48
841.26	227.46
841.57	227.45
841.88	227.46
842.20	227.44
842.51	227.42
842.83	227.42
843.14	227.52
843.46	227.52
843.77	227.45
844.08	227.45
844.40	227.40
844.71	227.38
845.03	227.36
845.34	227.36
845.65	227.35
845.97	227.35
846.28	227.36
846.60	227.36
846.91	227.34
847.22	227.33
847.54	227.35
847.85	227.37
848.16	227.34
848.48	227.32
848.79	227.36
849.10	227.37
849.42	227.37
849.73	227.25
850.04	227.25
850.36	227.20
850.67	227.22
850.98	227.22
851.30	227.23
851.61	227.22
851.92	227.21
852.23	227.24
852.55	227.25
852.86	227.25
853.17	227.26
853.49	227.28
853.80	227.31
854.11	227.31
854.42	227.32
854.74	227.32
855.05	227.32
855.36	227.25
855.67	227.25
855.99	227.24
856.30	227.39
856.61	227.37
856.92	227.37
857.23	227.37
857.55	227.36
857.86	227.36
858.17	227.38
858.48	227.36
858.79	227.32
859.11	227.33
859.42	227.32
859.73	227.30
860.04	227.29
860.35	227.25
860.66	227.21
860.98	227.21
861.29	227.22
861.60	227.20
861.91	227.23
862.22	227.21
862.53	227.20
862.84	227.05
863.16	227.07
863.47	227.05
863.78	227.03
864.09	227.03
864.40	227.03
864.71	227.03
865.02	227.04
865.33	227.03
865.64	227.01
865.95	227.01
866.27	227.09
866.58	227.09
866.89	227.10
867.20	227.10
867.51	227.07
867.82	227.06
868.13	227.10
868.44	227.06
868.75	227.09
869.06	227.10
869.37	227.11
869.68	227.09
869.99	227.11
870.30	227.12
870.61	227.13
870.92	227.11
871.23	227.10
871.54	227.11
871.85	227.14
872.16	227.15
872.47	227.13
872.78	227.06
873.09	227.06
873.40	227.05
873.71	227.06
874.02	227.07
874.33	227.07
874.64	227.04
874.95	227.07
875.26	227.04
875.56	227.03
875.87	227.03
876.18	227.02
876.49	227.14
876.80	227.13
877.11	227.10
877.42	227.11
877.73	227.12
878.04	227.10
878.35	227.09
878.66	227.10
878.96	227.10
879.27	227.09
879.58	227.07
879.89	227.06
880.20	227.10
880.51	227.09
880.82	227.09
881.12	227.10
881.43	227.08
881.74	227.06
882.05	227.06
882.36	227.06
882.67	227.06
882.97	226.93
883.28	226.92
883.59	226.93
883.90	226.95
884.21	226.97
884.51	226.96
884.82	226.95
885.13	226.95
885.44	226.95
885.74	226.96
886.05	226.96
886.36	226.96
886.67	226.91
886.98	226.97
887.28	226.99
887.59	226.98
887.90	226.99
888.20	226.99
888.51	227.02
888.82	227.00
889.13	227.01
889.43	227.12
889.74	227.11
890.05	227.10
890.35	227.08
890.66	227.05
890.97	227.05
891.28	227.04
891.58	227.04
891.89	227.04
892.20	227.03
892.50	227.03
892.81	227.02
893.12	227.03
893.42	226.96
893.73	226.96
894.04	226.96
894.34	226.98
894.65	226.98
894.95	226.96
895.26	226.96
895.57	227.01
895.87	226.89
896.18	226.91
896.48	226.92
896.79	226.92
897.10	226.94
897.40	226.95
897.71	226.96
898.01	226.94
898.32	226.96
898.63	226.95
898.93	226.95
899.24	226.95
899.54	226.94
899.85	226.94
900.15	226.93
900.46	226.91
900.76	226.91
901.07	226.90
901.38	226.89
901.68	226.90
901.99	226.83
902.29	226.83
902.60	226.83
902.90	226.81
903.21	226.80
903.51	226.80
903.82	226.81
904.12	226.81
904.43	226.82
904.73	226.81
905.03	226.81
905.34	226.93
905.64	226.93
905.95	226.93
906.25	226.93
906.56	226.92
906.86	226.93
907.17	226.92
907.47	226.93
907.77	226.93
908.08	226.90
908.38	226.93
908.69	226.94
908.99	226.95
909.30	226.96
909.60	226.96
909.90	226.97
910.21	226.94
910.51	226.91
910.81	226.92
911.12	226.92
911.42	226.94
911.73	226.80
912.03	226.80
912.33	226.82
912.64	226.82
912.94	226.81
913.24	226.80
913.55	226.79
913.85	226.78
914.15	226.80
914.46	226.82
914.76	226.80
915.06	226.79
915.37	226.77
915.67	226.76
915.97	226.76
916.27	226.73
916.58	226.74
916.88	226.75
917.18	226.73
917.49	226.81
917.79	226.80
918.09	226.82
918.39	226.86
918.70	226.85
919.00	226.85
919.30	226.91
919.60	226.90
919.91	226.90
920.21	226.91
920.51	226.89
920.81	226.87
921.12	226.90
921.42	226.91
921.72	226.92
922.02	226.93
922.32	226.95
922.63	226.95
922.93	227.01
923.23	227.02
923.53	227.02
923.83	226.94
924.13	226.95
924.44	226.95
924.74	226.97
925.04	227.00
925.34	226.99
925.64	226.93
925.94	226.93
926.24	226.99
926.55	226.98
926.85	227.01
927.15	227.00
927.45	227.00
927.75	226.99
928.05	226.99
928.35	226.97
928.65	226.98
928.95	226.99
929.26	226.94
929.56	226.95
929.86	226.97
930.16	226.96
930.46	226.95
930.76	226.96
931.06	226.91
931.36	226.88
931.66	226.89
931.96	226.91
932.26	226.93
932.56	226.89
932.86	226.90
933.16	226.89
933.46	226.88
933.76	226.85
934.06	226.87
934.36	226.91
934.66	226.91
934.96	226.89
935.26	226.90
935.56	226.92
935.86	226.88
936.16	226.85
936.46	226.85
936.76	226.84
937.06	226.83
937.36	226.83
937.66	226.84
937.96	226.83
938.26	226.80
938.56	226.79
938.86	226.78
939.16	226.80
939.46	226.80
939.76	226.81
940.06	226.82
940.35	226.80
940.65	226.74
940.95	226.75
941.25	226.73
941.55	226.70
941.85	226.69
942.15	226.71
942.45	226.74
942.75	226.73
943.04	226.74
943.34	226.76
943.64	226.74
943.94	226.73
944.24	226.72
944.54	226.73
944.84	226.73
945.13	226.71
945.43	226.69
945.73	226.69
946.03	226.68
946.33	226.66
946.62	226.65
946.92	226.65
947.22	226.65
947.52	226.66
947.82	226.68
948.11	226.67
948.41	226.64
948.71	226.61
949.01	226.63
949.31	226.61
949.60	226.61
949.90	226.62
950.20	226.61
950.50	226.61
950.79	226.60
951.09	226.62
951.39	226.62
951.69	226.61
951.98	226.63
952.28	226.65
952.58	226.64
952.87	226.64
953.17	226.66
953.47	226.65
953.76	226.63
954.06	226.61
954.36	226.60
954.66	226.61
954.95	226.64
955.25	226.64
955.55	226.65
955.84	226.63
956.14	226.64
956.44	226.66
956.73	226.65
957.03	226.66
957.32	226.64
957.62	226.64
957.92	226.67
958.21	226.64
958.51	226.79
958.81	226.80
959.10	226.81
959.40	226.83
959.69	226.84
959.99	226.88
960.29	226.88
960.58	226.86
960.88	226.92
961.17	226.90
961.47	226.91
961.76	226.89
962.06	226.92
962.36	226.89
962.65	226.89
962.95	226.89
963.24	226.88
963.54	226.89
963.83	226.90
964.13	226.89
964.42	226.89
964.72	226.78
965.01	226.78
965.31	226.78
965.60	226.76
965.90	226.83
966.19	226.80
966.49	226.81
966.78	226.82
967.08	226.80
967.37	226.80
967.67	226.78
967.96	226.81
968.26	226.80
968.55	226.83
968.85	226.83
969.14	226.82
969.43	226.82
969.73	226.81
970.02	226.80
970.32	226.79
970.61	226.76
970.91	226.71
971.20	226.69
971.49	226.68
971.79	226.69
972.08	226.60
972.38	226.61
972.67	226.59
972.96	226.61
973.26	226.58
973.55	226.61
973.85	226.61
974.14	226.59
974.43	226.60
974.73	226.58
975.02	226.57
975.31	226.57
975.61	226.57
975.90	226.56
976.19	226.55
976.49	226.57
976.78	226.57
977.07	226.58
977.37	226.59
977.66	226.59
977.95	226.58
978.24	226.59
978.54	226.61
978.83	226.60
979.12	226.59
979.42	226.60
979.71	226.58
980.00	226.58
980.29	226.59
980.59	226.56
980.88	226.59
981.17	226.60
981.46	226.59
981.76	226.60
982.05	226.64
982.34	226.65
982.63	226.65
982.93	226.65
983.22	226.68
983.51	226.69
983.80	226.72
984.09	226.74
984.39	226.73
984.68	226.70
984.97	226.71
985.26	226.71
985.55	226.70
985.85	226.68
986.14	226.69
986.43	226.71
986.72	226.71
987.01	226.66
987.30	226.66
987.59	226.65
987.89	226.65
988.18	226.62
988.47	226.60
988.76	226.58
989.05	226.57
989.34	226.54
989.63	226.58
989.92	226.55
990.22	226.53
990.51	226.54
990.80	226.53
991.09	226.55
991.38	226.56
991.67	226.57
991.96	226.55
992.25	226.56
992.54	226.54
992.83	226.53
993.12	226.53
993.41	226.55
993.70	226.61
993.99	226.63
994.28	226.65
994.58	226.68
994.87	226.68
995.16	226.67
995.45	226.67
995.74	226.62
996.03	226.64
996.32	226.66
996.61	226.68
996.90	226.69
997.19	226.69
997.48	226.68
997.77	226.66
998.06	226.67
998.34	226.65
998.63	226.66
998.92	226.68
999.21	226.71
999.50	226.71
999.79	226.66
1000.08	226.65
1000.37	226.65
1000.66	226.62
1000.95	226.66
1001.24	226.67
1001.53	226.70
1001.82	226.70
1002.11	226.69
1002.40	226.70
1002.68	226.73
1002.97	226.81
1003.26	226.78
1003.55	226.77
1003.84	226.78
1004.13	226.82
1004.42	226.82
1004.71	226.82
1004.99	226.81
1005.28	226.83
1005.57	226.82
1005.86	226.81
1006.15	226.80
1006.44	226.78
1006.72	226.80
1007.01	226.78
1007.30	226.78
1007.59	226.76
1007.88	226.75
1008.17	226.75
1008.45	226.72
1008.74	226.67
1009.03	226.62
1009.32	226.63
1009.60	226.63
1009.89	226.62
1010.18	226.58
1010.47	226.56
1010.76	226.56
1011.04	226.56
1011.33	226.55
1011.62	226.56
1011.91	226.57
1012.19	226.57
1012.48	226.57
1012.77	226.57
1013.05	226.61
1013.34	226.61
1013.63	226.61
1013.92	226.63
1014.20	226.62
1014.49	226.63
1014.78	226.64
1015.06	226.60
1015.35	226.59
1015.64	226.61
1015.92	226.62
1016.21	226.64
1016.50	226.64
1016.78	226.66
1017.07	226.67
1017.36	226.65
1017.64	226.64
1017.93	226.65
1018.22	226.64
1018.50	226.64
1018.79	226.65
1019.08	226.60
1019.36	226.61
1019.65	226.60
1019.93	226.63
1020.22	226.64
1020.51	226.71
1020.79	226.69
1021.08	226.51
1021.36	226.32
1021.65	226.81
1021.94	226.55
1022.22	226.76
1022.51	226.37
1022.79	227.27
1023.08	226.73
1023.36	228.19
1023.65	226.22
>>>>>End Processed Spectral Data<<<<<
