SpectraSuite Data File
++++++++++++++++++++++++++++++++++++
Date: Fri Oct 02 17:11:48 EDT 2015
User: lab3
Dark Spectrum Present: No
Reference Spectrum Present: No
Number of Sampled Component Spectra: 1
Spectrometers: USB2E7196
Integration Time (usec): 46000 (USB2E7196)
Spectra Averaged: 600 (USB2E7196)
Boxcar Smoothing: 10 (USB2E7196)
Correct for Electrical Dark: No (USB2E7196)
Strobe/Lamp Enabled: No (USB2E7196)
Correct for Detector Non-linearity: No (USB2E7196)
Correct for Stray Light: No (USB2E7196)
Number of Pixels in Processed Spectrum: 2048
>>>>>Begin Processed Spectral Data<<<<<
339.09	0.00
339.48	214.88
339.86	216.39
340.24	217.98
340.63	219.18
341.01	222.46
341.39	221.95
341.78	223.35
342.16	224.31
342.54	224.80
342.93	213.29
343.31	224.08
343.69	224.61
344.07	225.07
344.46	225.49
344.84	225.89
345.22	226.11
345.60	226.36
345.99	226.55
346.37	226.69
346.75	226.79
347.13	226.86
347.52	226.94
347.90	227.04
348.28	227.07
348.66	227.12
349.05	227.11
349.43	227.16
349.81	227.21
350.19	227.27
350.57	227.32
350.96	227.41
351.34	227.49
351.72	227.59
352.10	227.71
352.48	227.77
352.87	227.81
353.25	227.86
353.63	227.91
354.01	227.97
354.39	228.05
354.77	228.13
355.15	228.26
355.54	228.29
355.92	228.31
356.30	228.40
356.68	228.53
357.06	228.61
357.44	228.66
357.82	228.72
358.20	228.83
358.58	228.89
358.97	228.96
359.35	229.04
359.73	229.10
360.11	229.14
360.49	229.21
360.87	229.26
361.25	229.32
361.63	229.41
362.01	229.46
362.39	229.47
362.77	229.52
363.15	229.53
363.53	229.57
363.91	229.59
364.29	229.62
364.67	229.52
365.05	229.53
365.43	229.57
365.81	229.59
366.19	229.60
366.57	229.66
366.95	229.64
367.33	229.61
367.71	229.61
368.09	229.63
368.47	229.63
368.85	229.62
369.23	229.62
369.61	229.55
369.99	229.57
370.37	229.59
370.75	229.65
371.13	229.62
371.51	229.57
371.89	229.56
372.27	229.53
372.65	229.52
373.03	229.50
373.41	229.45
373.78	229.40
374.16	229.31
374.54	229.23
374.92	229.18
375.30	229.14
375.68	229.07
376.06	229.02
376.44	228.97
376.82	228.94
377.19	228.89
377.57	228.86
377.95	228.78
378.33	228.72
378.71	228.55
379.09	228.51
379.47	228.49
379.84	228.42
380.22	228.35
380.60	228.27
380.98	228.21
381.36	228.16
381.73	228.09
382.11	228.07
382.49	228.04
382.87	227.98
383.25	227.95
383.62	228.05
384.00	227.99
384.38	227.94
384.76	227.92
385.13	227.92
385.51	227.87
385.89	227.82
386.27	227.78
386.64	227.77
387.02	227.72
387.40	227.68
387.78	227.68
388.15	227.66
388.53	227.64
388.91	227.62
389.29	227.58
389.66	227.60
390.04	227.56
390.42	227.56
390.79	227.55
391.17	227.52
391.55	227.37
391.92	227.37
392.30	227.38
392.68	227.34
393.05	227.33
393.43	227.33
393.81	227.34
394.18	227.32
394.56	227.32
394.94	227.37
395.31	227.35
395.69	227.39
396.06	227.42
396.44	227.45
396.82	227.45
397.19	227.54
397.57	227.54
397.95	227.59
398.32	227.57
398.70	227.61
399.07	227.69
399.45	227.72
399.82	227.76
400.20	227.79
400.58	227.87
400.95	227.87
401.33	227.94
401.70	228.09
402.08	228.19
402.45	228.29
402.83	228.39
403.20	228.53
403.58	228.61
403.95	228.75
404.33	228.89
404.71	229.04
405.08	229.25
405.46	229.42
405.83	229.59
406.21	229.79
406.58	230.02
406.96	230.24
407.33	230.50
407.70	230.78
408.08	231.16
408.45	231.48
408.83	231.85
409.20	232.19
409.58	232.49
409.95	232.90
410.33	233.33
410.70	233.74
411.08	234.22
411.45	234.75
411.82	235.26
412.20	235.86
412.57	236.58
412.95	237.14
413.32	237.84
413.69	238.59
414.07	239.39
414.44	240.25
414.82	241.14
415.19	242.17
415.56	243.21
415.94	244.28
416.31	245.49
416.68	246.69
417.06	248.10
417.43	249.42
417.81	250.94
418.18	252.49
418.55	254.18
418.93	255.95
419.30	257.78
419.67	259.74
420.04	261.74
420.42	263.81
420.79	266.23
421.16	268.69
421.54	271.18
421.91	273.76
422.28	276.43
422.66	279.31
423.03	282.08
423.40	284.99
423.77	288.09
424.15	291.28
424.52	294.61
424.89	298.20
425.26	301.77
425.64	305.06
426.01	308.79
426.38	312.62
426.75	316.55
427.13	320.59
427.50	324.81
427.87	329.20
428.24	333.64
428.61	337.90
428.99	342.52
429.36	347.54
429.73	352.39
430.10	357.24
430.47	362.21
430.85	367.30
431.22	372.79
431.59	378.45
431.96	383.94
432.33	390.07
432.70	395.89
433.08	402.75
433.45	409.29
433.82	415.72
434.19	422.88
434.56	429.93
434.93	436.75
435.30	443.49
435.68	451.15
436.05	458.65
436.42	466.12
436.79	472.91
437.16	480.31
437.53	488.17
437.90	496.05
438.27	503.74
438.64	512.07
439.01	519.59
439.38	526.48
439.75	533.10
440.13	540.54
440.50	547.66
440.87	553.32
441.24	559.44
441.61	566.15
441.98	571.03
442.35	576.81
442.72	582.70
443.09	588.30
443.46	591.79
443.83	594.32
444.20	596.41
444.57	599.57
444.94	601.26
445.31	603.05
445.68	604.51
446.05	605.56
446.42	604.99
446.79	604.22
447.16	603.51
447.53	602.87
447.90	600.28
448.27	597.75
448.64	594.06
449.01	591.48
449.37	586.46
449.74	581.95
450.11	576.14
450.48	569.86
450.85	563.58
451.22	558.17
451.59	552.90
451.96	548.14
452.33	541.30
452.70	535.22
453.07	527.84
453.43	520.49
453.80	513.35
454.17	506.56
454.54	500.32
454.91	493.28
455.28	486.69
455.65	480.47
456.02	473.96
456.38	468.70
456.75	461.94
457.12	456.51
457.49	451.02
457.86	445.87
458.23	441.36
458.59	436.35
458.96	431.27
459.33	426.78
459.70	422.22
460.07	418.76
460.43	414.68
460.80	410.89
461.17	407.61
461.54	404.04
461.91	400.71
462.27	397.31
462.64	394.61
463.01	391.44
463.38	388.29
463.74	385.40
464.11	382.90
464.48	380.62
464.85	378.15
465.21	376.29
465.58	374.21
465.95	371.83
466.32	369.96
466.68	368.10
467.05	366.22
467.42	364.38
467.78	362.38
468.15	360.57
468.52	359.28
468.88	357.50
469.25	355.85
469.62	354.56
469.98	353.16
470.35	351.89
470.72	350.76
471.08	349.62
471.45	348.66
471.82	347.56
472.18	346.42
472.55	345.70
472.92	344.78
473.28	344.07
473.65	343.27
474.02	342.52
474.38	341.89
474.75	341.53
475.11	341.03
475.48	340.81
475.85	340.57
476.21	340.44
476.58	340.36
476.94	340.50
477.31	340.57
477.67	340.64
478.04	340.86
478.41	341.14
478.77	341.56
479.14	341.85
479.50	342.36
479.87	343.00
480.23	343.66
480.60	344.31
480.96	344.97
481.33	345.98
481.69	346.96
482.06	347.93
482.42	348.83
482.79	349.93
483.15	351.21
483.52	352.68
483.88	354.07
484.25	355.57
484.61	357.15
484.98	358.83
485.34	360.76
485.71	362.77
486.07	364.91
486.44	367.04
486.80	369.38
487.17	371.83
487.53	374.53
487.90	377.35
488.26	380.41
488.62	383.63
488.99	386.87
489.35	390.27
489.72	393.97
490.08	397.85
490.44	401.87
490.81	406.04
491.17	410.30
491.54	414.90
491.90	419.65
492.26	424.73
492.63	430.06
492.99	435.60
493.36	441.33
493.72	447.37
494.08	453.56
494.45	460.13
494.81	466.98
495.17	473.99
495.54	481.41
495.90	489.11
496.26	496.97
496.63	505.08
496.99	513.49
497.35	522.32
497.72	531.41
498.08	540.69
498.44	550.33
498.80	560.51
499.17	570.92
499.53	581.66
499.89	592.81
500.26	604.17
500.62	615.80
500.98	628.03
501.34	640.42
501.71	653.34
502.07	666.47
502.43	680.12
502.79	693.98
503.16	708.28
503.52	722.80
503.88	737.74
504.24	753.13
504.60	768.73
504.97	784.81
505.33	801.29
505.69	818.69
506.05	836.36
506.41	853.96
506.78	871.75
507.14	890.08
507.50	908.79
507.86	927.83
508.22	947.10
508.59	966.21
508.95	986.18
509.31	1006.82
509.67	1028.09
510.03	1049.36
510.39	1070.70
510.75	1092.27
511.12	1114.04
511.48	1135.97
511.84	1157.94
512.20	1180.29
512.56	1203.46
512.92	1226.65
513.28	1249.43
513.64	1272.48
514.00	1295.98
514.37	1319.77
514.73	1343.49
515.09	1367.11
515.45	1391.06
515.81	1415.12
516.17	1439.37
516.53	1463.01
516.89	1486.59
517.25	1510.36
517.61	1534.02
517.97	1558.10
518.33	1581.60
518.69	1605.10
519.05	1629.08
519.41	1653.25
519.77	1677.59
520.13	1701.19
520.49	1724.73
520.85	1748.62
521.21	1772.00
521.57	1795.76
521.93	1819.01
522.29	1842.71
522.65	1865.91
523.01	1889.02
523.37	1911.78
523.73	1935.21
524.09	1958.42
524.45	1981.30
524.81	2003.73
525.17	2026.01
525.53	2047.69
525.89	2069.85
526.25	2091.98
526.61	2113.06
526.97	2134.32
527.33	2155.56
527.68	2176.46
528.04	2196.59
528.40	2215.74
528.76	2235.21
529.12	2254.10
529.48	2272.58
529.84	2289.42
530.20	2306.82
530.56	2323.70
530.91	2340.61
531.27	2357.23
531.63	2372.95
531.99	2388.37
532.35	2403.05
532.71	2417.81
533.07	2433.23
533.42	2446.87
533.78	2461.44
534.14	2476.19
534.50	2489.94
534.86	2503.51
535.21	2515.17
535.57	2527.34
535.93	2539.33
536.29	2550.18
536.65	2560.95
537.00	2571.06
537.36	2581.95
537.72	2591.41
538.08	2600.39
538.44	2608.79
538.79	2616.68
539.15	2623.86
539.51	2630.57
539.87	2636.76
540.22	2641.04
540.58	2645.42
540.94	2650.99
541.29	2654.96
541.65	2657.19
542.01	2658.84
542.37	2659.73
542.72	2661.99
543.08	2662.60
543.44	2663.74
543.79	2663.88
544.15	2663.15
544.51	2662.94
544.87	2661.65
545.22	2659.68
545.58	2656.99
545.94	2654.39
546.29	2650.49
546.65	2646.53
547.01	2642.62
547.36	2639.38
547.72	2636.21
548.07	2631.32
548.43	2624.95
548.79	2617.74
549.14	2611.90
549.50	2606.21
549.86	2599.65
550.21	2592.05
550.57	2585.32
550.92	2576.39
551.28	2568.06
551.64	2559.93
551.99	2551.35
552.35	2542.23
552.70	2533.40
553.06	2524.85
553.41	2515.68
553.77	2506.33
554.13	2497.04
554.48	2486.83
554.84	2475.48
555.19	2464.71
555.55	2454.00
555.90	2443.33
556.26	2433.16
556.61	2421.84
556.97	2408.99
557.32	2396.72
557.68	2384.40
558.03	2371.85
558.39	2360.46
558.74	2349.33
559.10	2336.61
559.45	2324.15
559.81	2312.28
560.16	2299.74
560.52	2287.47
560.87	2275.46
561.23	2262.72
561.58	2250.09
561.94	2237.14
562.29	2223.70
562.64	2210.84
563.00	2197.75
563.35	2185.11
563.71	2172.27
564.06	2159.36
564.42	2147.24
564.77	2134.40
565.12	2121.47
565.48	2108.57
565.83	2095.66
566.19	2082.83
566.54	2070.10
566.89	2056.21
567.25	2042.47
567.60	2030.00
567.96	2016.79
568.31	2002.34
568.66	1988.53
569.02	1975.78
569.37	1963.08
569.72	1950.80
570.08	1937.38
570.43	1923.59
570.78	1909.62
571.14	1895.08
571.49	1881.18
571.84	1867.74
572.20	1853.28
572.55	1839.00
572.90	1824.61
573.26	1810.27
573.61	1795.44
573.96	1781.04
574.31	1766.91
574.67	1752.78
575.02	1737.80
575.37	1722.77
575.72	1708.62
576.08	1694.83
576.43	1679.94
576.78	1665.40
577.13	1651.19
577.49	1637.30
577.84	1624.00
578.19	1609.83
578.54	1595.84
578.90	1581.41
579.25	1566.89
579.60	1553.85
579.95	1540.70
580.30	1527.45
580.66	1513.92
581.01	1500.34
581.36	1486.72
581.71	1474.14
582.06	1461.42
582.42	1448.88
582.77	1436.42
583.12	1423.90
583.47	1411.29
583.82	1398.77
584.17	1385.99
584.53	1372.89
584.88	1360.17
585.23	1347.05
585.58	1334.72
585.93	1322.60
586.28	1311.18
586.63	1299.76
586.98	1287.81
587.34	1276.02
587.69	1263.95
588.04	1252.22
588.39	1240.83
588.74	1229.61
589.09	1218.11
589.44	1206.25
589.79	1195.04
590.14	1183.94
590.49	1172.80
590.84	1161.78
591.19	1151.13
591.54	1140.32
591.89	1129.65
592.25	1119.18
592.60	1108.35
592.95	1097.93
593.30	1087.66
593.65	1077.13
594.00	1066.71
594.35	1056.91
594.70	1046.65
595.05	1037.21
595.40	1027.67
595.75	1018.05
596.10	1008.88
596.45	999.44
596.80	990.34
597.15	981.00
597.50	971.85
597.85	963.02
598.19	954.05
598.54	945.17
598.89	936.67
599.24	928.46
599.59	920.08
599.94	912.60
600.29	904.88
600.64	896.98
600.99	888.73
601.34	880.84
601.69	872.58
602.04	865.01
602.39	857.30
602.74	849.58
603.08	841.84
603.43	834.09
603.78	826.54
604.13	819.15
604.48	811.75
604.83	804.49
605.18	797.12
605.53	789.93
605.87	782.56
606.22	775.53
606.57	768.44
606.92	761.21
607.27	753.92
607.62	746.95
607.96	740.34
608.31	734.13
608.66	727.74
609.01	721.65
609.36	715.64
609.70	709.40
610.05	703.19
610.40	697.24
610.75	691.28
611.10	685.57
611.44	679.70
611.79	673.98
612.14	668.17
612.49	662.51
612.83	657.10
613.18	651.83
613.53	646.42
613.88	641.06
614.22	636.12
614.57	631.10
614.92	625.93
615.27	620.87
615.61	615.87
615.96	610.90
616.31	605.95
616.65	601.03
617.00	596.32
617.35	591.77
617.70	587.23
618.04	582.70
618.39	578.15
618.74	573.83
619.08	569.52
619.43	565.33
619.78	561.15
620.12	556.92
620.47	552.86
620.82	548.90
621.16	544.94
621.51	540.89
621.85	536.89
622.20	533.06
622.55	529.23
622.89	525.47
623.24	521.74
623.59	518.05
623.93	514.52
624.28	511.05
624.62	507.65
624.97	504.26
625.32	500.89
625.66	497.46
626.01	494.01
626.35	490.63
626.70	487.29
627.04	484.10
627.39	480.88
627.73	477.82
628.08	474.85
628.43	471.84
628.77	468.92
629.12	466.07
629.46	463.26
629.81	460.40
630.15	457.52
630.50	454.72
630.84	451.95
631.19	449.22
631.53	446.63
631.88	443.98
632.22	441.39
632.57	439.05
632.91	436.75
633.26	434.54
633.60	432.32
633.95	430.17
634.29	427.91
634.64	425.74
634.98	423.37
635.32	421.14
635.67	419.11
636.01	417.00
636.36	414.97
636.70	413.05
637.05	411.11
637.39	409.21
637.73	407.34
638.08	405.56
638.42	403.75
638.77	401.83
639.11	399.86
639.45	397.96
639.80	396.00
640.14	394.14
640.49	392.26
640.83	390.34
641.17	388.53
641.52	386.77
641.86	385.02
642.20	383.44
642.55	381.76
642.89	380.05
643.23	378.46
643.58	377.00
643.92	375.41
644.26	373.87
644.61	372.39
644.95	370.88
645.29	369.32
645.64	367.77
645.98	366.29
646.32	364.91
646.66	363.52
647.01	362.15
647.35	360.83
647.69	359.48
648.04	358.29
648.38	356.98
648.72	355.70
649.06	354.43
649.41	353.17
649.75	351.94
650.09	350.76
650.43	349.54
650.78	348.29
651.12	347.07
651.46	345.91
651.80	344.76
652.14	343.64
652.49	342.57
652.83	341.49
653.17	340.43
653.51	339.42
653.85	338.44
654.20	337.40
654.54	336.29
654.88	335.27
655.22	334.27
655.56	333.28
655.90	332.33
656.25	331.39
656.59	330.47
656.93	329.56
657.27	328.68
657.61	327.75
657.95	326.87
658.29	325.96
658.64	325.12
658.98	324.25
659.32	323.43
659.66	322.62
660.00	321.85
660.34	321.08
660.68	320.27
661.02	319.43
661.36	318.64
661.70	317.88
662.05	317.14
662.39	316.38
662.73	315.70
663.07	315.03
663.41	314.31
663.75	313.57
664.09	312.86
664.43	312.12
664.77	311.45
665.11	310.74
665.45	310.09
665.79	309.42
666.13	308.74
666.47	308.03
666.81	307.32
667.15	306.57
667.49	305.94
667.83	305.35
668.17	304.72
668.51	304.14
668.85	303.58
669.19	303.05
669.53	302.42
669.87	301.78
670.21	301.17
670.55	300.59
670.89	300.10
671.23	299.57
671.57	299.04
671.91	298.53
672.25	298.05
672.58	297.58
672.92	297.03
673.26	296.56
673.60	296.08
673.94	295.63
674.28	295.21
674.62	294.72
674.96	294.20
675.30	293.74
675.64	293.24
675.97	292.74
676.31	292.20
676.65	291.73
676.99	291.32
677.33	290.82
677.67	290.37
678.01	289.82
678.34	289.38
678.68	288.94
679.02	288.44
679.36	287.96
679.70	287.48
680.04	287.05
680.37	286.61
680.71	286.19
681.05	285.77
681.39	285.30
681.73	284.82
682.06	284.35
682.40	283.91
682.74	283.52
683.08	283.18
683.42	282.77
683.75	282.39
684.09	281.93
684.43	281.52
684.77	281.12
685.10	280.76
685.44	280.37
685.78	279.97
686.12	279.62
686.45	279.24
686.79	278.83
687.13	278.45
687.46	278.02
687.80	277.65
688.14	277.22
688.48	276.85
688.81	276.47
689.15	276.14
689.49	275.74
689.82	275.34
690.16	274.89
690.50	274.51
690.83	274.12
691.17	273.73
691.51	273.37
691.84	273.01
692.18	272.62
692.52	272.20
692.85	271.82
693.19	271.47
693.52	271.09
693.86	270.71
694.20	270.36
694.53	270.02
694.87	269.63
695.21	269.26
695.54	268.90
695.88	268.53
696.21	268.12
696.55	267.80
696.88	267.45
697.22	267.10
697.56	266.75
697.89	266.35
698.23	266.00
698.56	265.61
698.90	265.26
699.23	264.89
699.57	264.55
699.90	264.18
700.24	263.82
700.58	263.49
700.91	263.21
701.25	262.98
701.58	262.71
701.92	262.42
702.25	262.11
702.59	261.79
702.92	261.49
703.26	261.17
703.59	260.82
703.93	260.59
704.26	260.29
704.60	259.96
704.93	259.66
705.26	259.34
705.60	259.09
705.93	258.75
706.27	258.49
706.60	258.25
706.94	258.00
707.27	257.67
707.61	257.37
707.94	257.04
708.27	256.62
708.61	256.27
708.94	255.95
709.28	255.66
709.61	255.36
709.94	255.10
710.28	254.86
710.61	254.64
710.95	254.28
711.28	254.10
711.61	253.85
711.95	253.62
712.28	253.36
712.61	253.10
712.95	252.93
713.28	252.74
713.61	252.45
713.95	252.16
714.28	251.95
714.61	251.69
714.95	251.45
715.28	251.22
715.61	250.99
715.95	250.77
716.28	250.56
716.61	250.39
716.95	250.14
717.28	249.89
717.61	249.66
717.94	249.43
718.28	249.13
718.61	248.90
718.94	248.67
719.27	248.45
719.61	248.23
719.94	248.00
720.27	247.71
720.60	247.52
720.94	247.33
721.27	247.13
721.60	246.97
721.93	246.77
722.27	246.62
722.60	246.44
722.93	246.22
723.26	246.03
723.59	245.80
723.93	245.62
724.26	245.45
724.59	245.24
724.92	245.08
725.25	244.95
725.59	244.79
725.92	244.64
726.25	244.48
726.58	244.32
726.91	244.13
727.24	243.99
727.57	243.83
727.91	243.66
728.24	243.50
728.57	243.34
728.90	243.19
729.23	242.99
729.56	242.89
729.89	242.74
730.22	242.57
730.55	242.42
730.89	242.27
731.22	242.11
731.55	241.96
731.88	241.80
732.21	241.62
732.54	241.46
732.87	241.31
733.20	241.16
733.53	241.03
733.86	240.90
734.19	240.75
734.52	240.61
734.85	240.56
735.18	240.40
735.51	240.29
735.84	240.16
736.17	240.07
736.50	239.89
736.83	239.91
737.16	239.79
737.49	239.68
737.82	239.56
738.15	239.46
738.48	239.36
738.81	239.24
739.14	239.11
739.47	238.98
739.80	238.86
740.13	238.76
740.46	238.63
740.79	238.51
741.12	238.38
741.45	238.26
741.78	238.06
742.11	237.99
742.44	237.84
742.77	237.75
743.10	237.62
743.43	237.50
743.75	237.26
744.08	237.35
744.41	237.24
744.74	237.12
745.07	236.99
745.40	236.90
745.73	236.85
746.06	236.76
746.39	236.68
746.71	236.58
747.04	236.47
747.37	236.38
747.70	236.32
748.03	236.24
748.36	236.17
748.68	236.09
749.01	235.97
749.34	235.88
749.67	235.79
750.00	235.72
750.33	235.73
750.65	235.65
750.98	235.38
751.31	235.31
751.64	235.24
751.97	235.23
752.29	235.14
752.62	235.00
752.95	234.91
753.28	234.82
753.60	234.73
753.93	234.68
754.26	234.61
754.59	234.47
754.91	234.36
755.24	234.28
755.57	234.25
755.90	234.17
756.22	234.09
756.55	233.99
756.88	233.89
757.20	233.71
757.53	233.59
757.86	233.50
758.19	233.42
758.51	233.34
758.84	233.22
759.17	233.12
759.49	233.05
759.82	233.05
760.15	232.99
760.47	232.92
760.80	232.82
761.13	232.76
761.45	232.70
761.78	232.66
762.11	232.59
762.43	232.46
762.76	232.40
763.08	232.35
763.41	232.30
763.74	232.25
764.06	232.19
764.39	232.15
764.71	232.09
765.04	232.03
765.37	231.97
765.69	231.90
766.02	231.84
766.34	231.79
766.67	231.68
767.00	231.64
767.32	231.66
767.65	231.69
767.97	231.63
768.30	231.60
768.62	231.55
768.95	231.48
769.27	231.44
769.60	231.41
769.92	231.33
770.25	231.26
770.57	231.19
770.90	231.15
771.22	231.09
771.55	231.05
771.87	231.02
772.20	230.97
772.52	231.04
772.85	231.16
773.17	231.11
773.50	231.05
773.82	231.00
774.15	230.90
774.47	230.76
774.80	230.71
775.12	230.66
775.45	230.63
775.77	230.59
776.09	230.57
776.42	230.52
776.74	230.53
777.07	230.51
777.39	230.49
777.72	230.43
778.04	230.41
778.36	230.37
778.69	230.33
779.01	230.31
779.33	230.15
779.66	229.97
779.98	229.94
780.31	229.92
780.63	229.93
780.95	229.92
781.28	229.90
781.60	229.86
781.92	229.83
782.25	229.80
782.57	229.77
782.89	229.73
783.22	229.69
783.54	229.64
783.86	229.62
784.19	229.59
784.51	229.62
784.83	229.58
785.16	229.55
785.48	229.53
785.80	229.50
786.12	229.51
786.45	229.48
786.77	229.47
787.09	229.44
787.42	229.37
787.74	229.36
788.06	229.33
788.38	229.32
788.71	229.29
789.03	229.28
789.35	229.27
789.67	229.24
789.99	229.23
790.32	229.20
790.64	229.18
790.96	229.28
791.28	229.21
791.61	229.20
791.93	229.18
792.25	229.17
792.57	229.25
792.89	229.21
793.21	229.20
793.54	229.16
793.86	229.14
794.18	229.12
794.50	229.08
794.82	229.06
795.14	229.05
795.47	229.06
795.79	229.03
796.11	228.99
796.43	228.98
796.75	228.96
797.07	228.96
797.39	228.96
797.71	228.84
798.04	228.83
798.36	228.81
798.68	228.79
799.00	228.78
799.32	228.71
799.64	228.70
799.96	228.69
800.28	228.71
800.60	228.69
800.92	228.69
801.24	228.69
801.56	228.68
801.89	228.66
802.21	228.65
802.53	228.62
802.85	228.63
803.17	228.69
803.49	228.66
803.81	228.62
804.13	228.60
804.45	228.56
804.77	228.57
805.09	228.55
805.41	228.52
805.73	228.48
806.05	228.43
806.37	228.41
806.69	228.39
807.01	228.36
807.33	228.35
807.65	228.29
807.97	228.33
808.28	228.31
808.60	228.30
808.92	228.27
809.24	228.35
809.56	228.32
809.88	228.25
810.20	228.23
810.52	228.25
810.84	228.22
811.16	228.21
811.48	228.19
811.80	228.23
812.12	228.21
812.43	228.24
812.75	228.22
813.07	228.21
813.39	228.21
813.71	228.19
814.03	228.18
814.35	228.19
814.67	228.12
814.98	228.10
815.30	228.09
815.62	228.06
815.94	227.96
816.26	227.96
816.58	227.93
816.89	227.95
817.21	227.91
817.53	227.93
817.85	227.93
818.17	227.91
818.48	227.84
818.80	227.86
819.12	227.83
819.44	227.81
819.76	227.79
820.07	227.78
820.39	227.76
820.71	227.76
821.03	227.75
821.34	227.72
821.66	227.74
821.98	227.75
822.30	227.74
822.61	227.80
822.93	227.78
823.25	227.77
823.57	227.76
823.88	227.76
824.20	227.74
824.52	227.75
824.83	227.74
825.15	227.73
825.47	227.72
825.79	227.72
826.10	227.71
826.42	227.71
826.74	227.71
827.05	227.71
827.37	227.70
827.69	227.69
828.00	227.70
828.32	227.68
828.64	227.65
828.95	227.71
829.27	227.67
829.58	227.65
829.90	227.66
830.22	227.65
830.53	227.63
830.85	227.60
831.17	227.56
831.48	227.55
831.80	227.55
832.11	227.53
832.43	227.50
832.75	227.52
833.06	227.58
833.38	227.53
833.69	227.52
834.01	227.53
834.32	227.51
834.64	227.50
834.96	227.51
835.27	227.52
835.59	227.47
835.90	227.45
836.22	227.44
836.53	227.41
836.85	227.38
837.16	227.51
837.48	227.51
837.79	227.56
838.11	227.55
838.42	227.54
838.74	227.56
839.05	227.54
839.37	227.52
839.68	227.43
840.00	227.43
840.31	227.44
840.63	227.41
840.94	227.41
841.26	227.39
841.57	227.38
841.88	227.39
842.20	227.37
842.51	227.35
842.83	227.35
843.14	227.47
843.46	227.47
843.77	227.39
844.08	227.39
844.40	227.34
844.71	227.32
845.03	227.32
845.34	227.29
845.65	227.29
845.97	227.29
846.28	227.31
846.60	227.32
846.91	227.29
847.22	227.27
847.54	227.29
847.85	227.29
848.16	227.27
848.48	227.24
848.79	227.29
849.10	227.31
849.42	227.31
849.73	227.20
850.04	227.20
850.36	227.16
850.67	227.17
850.98	227.18
851.30	227.19
851.61	227.19
851.92	227.19
852.23	227.23
852.55	227.24
852.86	227.23
853.17	227.23
853.49	227.26
853.80	227.30
854.11	227.31
854.42	227.32
854.74	227.30
855.05	227.31
855.36	227.23
855.67	227.22
855.99	227.21
856.30	227.36
856.61	227.36
856.92	227.36
857.23	227.36
857.55	227.34
857.86	227.33
858.17	227.35
858.48	227.31
858.79	227.27
859.11	227.28
859.42	227.26
859.73	227.25
860.04	227.25
860.35	227.20
860.66	227.17
860.98	227.16
861.29	227.18
861.60	227.17
861.91	227.20
862.22	227.18
862.53	227.16
862.84	227.00
863.16	227.03
863.47	227.00
863.78	226.98
864.09	226.99
864.40	227.01
864.71	227.01
865.02	227.03
865.33	227.02
865.64	227.00
865.95	227.00
866.27	227.08
866.58	227.05
866.89	227.08
867.20	227.08
867.51	227.06
867.82	227.06
868.13	227.08
868.44	227.06
868.75	227.10
869.06	227.12
869.37	227.13
869.68	227.08
869.99	227.11
870.30	227.11
870.61	227.13
870.92	227.11
871.23	227.10
871.54	227.12
871.85	227.15
872.16	227.17
872.47	227.16
872.78	227.10
873.09	227.11
873.40	227.09
873.71	227.10
874.02	227.11
874.33	227.08
874.64	227.07
874.95	227.08
875.26	227.05
875.56	227.05
875.87	227.04
876.18	227.04
876.49	227.16
876.80	227.14
877.11	227.11
877.42	227.12
877.73	227.11
878.04	227.08
878.35	227.07
878.66	227.07
878.96	227.07
879.27	227.06
879.58	227.07
879.89	227.04
880.20	227.08
880.51	227.06
880.82	227.07
881.12	227.07
881.43	227.04
881.74	227.04
882.05	227.02
882.36	227.02
882.67	227.04
882.97	226.90
883.28	226.90
883.59	226.90
883.90	226.90
884.21	226.91
884.51	226.91
884.82	226.89
885.13	226.89
885.44	226.89
885.74	226.90
886.05	226.88
886.36	226.89
886.67	226.83
886.98	226.92
887.28	226.93
887.59	226.94
887.90	226.95
888.20	226.94
888.51	226.96
888.82	226.95
889.13	226.96
889.43	227.08
889.74	227.07
890.05	227.07
890.35	227.06
890.66	227.04
890.97	227.04
891.28	227.03
891.58	227.02
891.89	227.02
892.20	226.99
892.50	226.97
892.81	226.97
893.12	226.98
893.42	226.89
893.73	226.90
894.04	226.90
894.34	226.89
894.65	226.88
894.95	226.87
895.26	226.87
895.57	226.91
895.87	226.77
896.18	226.80
896.48	226.80
896.79	226.78
897.10	226.80
897.40	226.79
897.71	226.80
898.01	226.79
898.32	226.80
898.63	226.80
898.93	226.81
899.24	226.83
899.54	226.81
899.85	226.82
900.15	226.80
900.46	226.80
900.76	226.81
901.07	226.81
901.38	226.81
901.68	226.84
901.99	226.77
902.29	226.79
902.60	226.78
902.90	226.76
903.21	226.79
903.51	226.78
903.82	226.80
904.12	226.81
904.43	226.81
904.73	226.81
905.03	226.83
905.34	226.95
905.64	226.94
905.95	226.94
906.25	226.94
906.56	226.93
906.86	226.93
907.17	226.92
907.47	226.94
907.77	226.90
908.08	226.86
908.38	226.87
908.69	226.87
908.99	226.88
909.30	226.88
909.60	226.87
909.90	226.88
910.21	226.86
910.51	226.82
910.81	226.84
911.12	226.84
911.42	226.85
911.73	226.71
912.03	226.70
912.33	226.73
912.64	226.72
912.94	226.71
913.24	226.68
913.55	226.68
913.85	226.66
914.15	226.70
914.46	226.72
914.76	226.71
915.06	226.70
915.37	226.68
915.67	226.68
915.97	226.68
916.27	226.65
916.58	226.65
916.88	226.66
917.18	226.65
917.49	226.73
917.79	226.71
918.09	226.73
918.39	226.76
918.70	226.76
919.00	226.77
919.30	226.82
919.60	226.83
919.91	226.81
920.21	226.82
920.51	226.80
920.81	226.79
921.12	226.83
921.42	226.83
921.72	226.84
922.02	226.85
922.32	226.87
922.63	226.88
922.93	226.94
923.23	226.94
923.53	226.92
923.83	226.84
924.13	226.86
924.44	226.86
924.74	226.89
925.04	226.90
925.34	226.91
925.64	226.86
925.94	226.87
926.24	226.94
926.55	226.91
926.85	226.93
927.15	226.93
927.45	226.91
927.75	226.92
928.05	226.91
928.35	226.91
928.65	226.92
928.95	226.93
929.26	226.89
929.56	226.91
929.86	226.94
930.16	226.92
930.46	226.91
930.76	226.92
931.06	226.84
931.36	226.82
931.66	226.83
931.96	226.84
932.26	226.85
932.56	226.82
932.86	226.84
933.16	226.84
933.46	226.82
933.76	226.79
934.06	226.81
934.36	226.85
934.66	226.84
934.96	226.83
935.26	226.83
935.56	226.83
935.86	226.79
936.16	226.78
936.46	226.77
936.76	226.76
937.06	226.74
937.36	226.76
937.66	226.76
937.96	226.75
938.26	226.71
938.56	226.72
938.86	226.70
939.16	226.73
939.46	226.74
939.76	226.74
940.06	226.75
940.35	226.72
940.65	226.67
940.95	226.69
941.25	226.66
941.55	226.65
941.85	226.64
942.15	226.68
942.45	226.72
942.75	226.72
943.04	226.73
943.34	226.75
943.64	226.74
943.94	226.72
944.24	226.71
944.54	226.73
944.84	226.73
945.13	226.71
945.43	226.68
945.73	226.70
946.03	226.68
946.33	226.66
946.62	226.66
946.92	226.65
947.22	226.65
947.52	226.67
947.82	226.68
948.11	226.67
948.41	226.64
948.71	226.59
949.01	226.60
949.31	226.60
949.60	226.57
949.90	226.59
950.20	226.59
950.50	226.58
950.79	226.56
951.09	226.57
951.39	226.57
951.69	226.55
951.98	226.55
952.28	226.56
952.58	226.56
952.87	226.56
953.17	226.58
953.47	226.55
953.76	226.54
954.06	226.51
954.36	226.49
954.66	226.48
954.95	226.53
955.25	226.54
955.55	226.53
955.84	226.52
956.14	226.53
956.44	226.54
956.73	226.53
957.03	226.54
957.32	226.55
957.62	226.54
957.92	226.57
958.21	226.54
958.51	226.69
958.81	226.71
959.10	226.71
959.40	226.74
959.69	226.76
959.99	226.80
960.29	226.81
960.58	226.80
960.88	226.85
961.17	226.82
961.47	226.83
961.76	226.83
962.06	226.86
962.36	226.83
962.65	226.84
962.95	226.85
963.24	226.84
963.54	226.84
963.83	226.85
964.13	226.86
964.42	226.85
964.72	226.75
965.01	226.75
965.31	226.75
965.60	226.70
965.90	226.78
966.19	226.73
966.49	226.73
966.78	226.75
967.08	226.73
967.37	226.74
967.67	226.72
967.96	226.74
968.26	226.73
968.55	226.75
968.85	226.73
969.14	226.73
969.43	226.73
969.73	226.72
970.02	226.70
970.32	226.70
970.61	226.67
970.91	226.63
971.20	226.62
971.49	226.60
971.79	226.62
972.08	226.53
972.38	226.56
972.67	226.56
972.96	226.56
973.26	226.53
973.55	226.56
973.85	226.55
974.14	226.54
974.43	226.55
974.73	226.53
975.02	226.53
975.31	226.54
975.61	226.54
975.90	226.53
976.19	226.52
976.49	226.51
976.78	226.52
977.07	226.52
977.37	226.53
977.66	226.55
977.95	226.53
978.24	226.54
978.54	226.55
978.83	226.53
979.12	226.52
979.42	226.52
979.71	226.50
980.00	226.50
980.29	226.49
980.59	226.47
980.88	226.50
981.17	226.49
981.46	226.48
981.76	226.49
982.05	226.53
982.34	226.53
982.63	226.55
982.93	226.55
983.22	226.58
983.51	226.58
983.80	226.59
984.09	226.61
984.39	226.61
984.68	226.59
984.97	226.61
985.26	226.59
985.55	226.60
985.85	226.57
986.14	226.59
986.43	226.62
986.72	226.61
987.01	226.57
987.30	226.57
987.59	226.58
987.89	226.58
988.18	226.53
988.47	226.53
988.76	226.52
989.05	226.50
989.34	226.47
989.63	226.50
989.92	226.47
990.22	226.46
990.51	226.46
990.80	226.44
991.09	226.45
991.38	226.47
991.67	226.46
991.96	226.45
992.25	226.46
992.54	226.42
992.83	226.43
993.12	226.44
993.41	226.47
993.70	226.50
993.99	226.52
994.28	226.54
994.58	226.57
994.87	226.56
995.16	226.55
995.45	226.56
995.74	226.52
996.03	226.55
996.32	226.58
996.61	226.60
996.90	226.61
997.19	226.60
997.48	226.59
997.77	226.58
998.06	226.59
998.34	226.57
998.63	226.58
998.92	226.59
999.21	226.61
999.50	226.60
999.79	226.58
1000.08	226.57
1000.37	226.58
1000.66	226.54
1000.95	226.57
1001.24	226.60
1001.53	226.61
1001.82	226.61
1002.11	226.58
1002.40	226.58
1002.68	226.61
1002.97	226.70
1003.26	226.68
1003.55	226.66
1003.84	226.68
1004.13	226.71
1004.42	226.71
1004.71	226.71
1004.99	226.69
1005.28	226.72
1005.57	226.72
1005.86	226.70
1006.15	226.69
1006.44	226.65
1006.72	226.68
1007.01	226.66
1007.30	226.65
1007.59	226.64
1007.88	226.65
1008.17	226.66
1008.45	226.64
1008.74	226.60
1009.03	226.54
1009.32	226.54
1009.60	226.56
1009.89	226.56
1010.18	226.51
1010.47	226.52
1010.76	226.52
1011.04	226.52
1011.33	226.52
1011.62	226.52
1011.91	226.53
1012.19	226.55
1012.48	226.56
1012.77	226.55
1013.05	226.59
1013.34	226.59
1013.63	226.60
1013.92	226.60
1014.20	226.60
1014.49	226.60
1014.78	226.62
1015.06	226.58
1015.35	226.59
1015.64	226.58
1015.92	226.61
1016.21	226.62
1016.50	226.62
1016.78	226.64
1017.07	226.65
1017.36	226.62
1017.64	226.61
1017.93	226.63
1018.22	226.61
1018.50	226.59
1018.79	226.59
1019.08	226.56
1019.36	226.56
1019.65	226.54
1019.93	226.59
1020.22	226.60
1020.51	226.66
1020.79	226.63
1021.08	226.15
1021.36	226.14
1021.65	226.59
1021.94	226.59
1022.22	226.59
1022.51	226.38
1022.79	227.28
1023.08	226.78
1023.36	228.02
1023.65	226.23
>>>>>End Processed Spectral Data<<<<<
