SpectraSuite Data File
++++++++++++++++++++++++++++++++++++
Date: Fri Oct 02 16:50:36 EDT 2015
User: lab3
Dark Spectrum Present: No
Reference Spectrum Present: No
Number of Sampled Component Spectra: 1
Spectrometers: USB2E7196
Integration Time (usec): 46000 (USB2E7196)
Spectra Averaged: 1200 (USB2E7196)
Boxcar Smoothing: 10 (USB2E7196)
Correct for Electrical Dark: No (USB2E7196)
Strobe/Lamp Enabled: No (USB2E7196)
Correct for Detector Non-linearity: No (USB2E7196)
Correct for Stray Light: No (USB2E7196)
Number of Pixels in Processed Spectrum: 2048
>>>>>Begin Processed Spectral Data<<<<<
339.09	0.00
339.48	214.32
339.86	215.80
340.24	217.36
340.63	218.63
341.01	221.92
341.39	221.29
341.78	222.70
342.16	223.96
342.54	224.35
342.93	212.80
343.31	223.55
343.69	224.09
344.07	224.55
344.46	224.98
344.84	225.37
345.22	225.59
345.60	225.85
345.99	226.04
346.37	226.17
346.75	226.28
347.13	226.36
347.52	226.44
347.90	226.54
348.28	226.58
348.66	226.65
349.05	226.63
349.43	226.68
349.81	226.75
350.19	226.79
350.57	226.86
350.96	226.94
351.34	227.03
351.72	227.12
352.10	227.24
352.48	227.31
352.87	227.36
353.25	227.43
353.63	227.50
354.01	227.56
354.39	227.64
354.77	227.73
355.15	227.83
355.54	227.88
355.92	227.91
356.30	227.98
356.68	228.13
357.06	228.22
357.44	228.26
357.82	228.32
358.20	228.44
358.58	228.50
358.97	228.57
359.35	228.65
359.73	228.73
360.11	228.78
360.49	228.84
360.87	228.89
361.25	228.96
361.63	229.03
362.01	229.08
362.39	229.10
362.77	229.14
363.15	229.16
363.53	229.19
363.91	229.23
364.29	229.24
364.67	229.14
365.05	229.15
365.43	229.19
365.81	229.21
366.19	229.22
366.57	229.28
366.95	229.27
367.33	229.24
367.71	229.23
368.09	229.25
368.47	229.24
368.85	229.22
369.23	229.22
369.61	229.16
369.99	229.18
370.37	229.18
370.75	229.25
371.13	229.22
371.51	229.17
371.89	229.15
372.27	229.13
372.65	229.10
373.03	229.07
373.41	229.02
373.78	228.98
374.16	228.87
374.54	228.79
374.92	228.75
375.30	228.71
375.68	228.64
376.06	228.60
376.44	228.55
376.82	228.51
377.19	228.47
377.57	228.43
377.95	228.34
378.33	228.28
378.71	228.12
379.09	228.08
379.47	228.06
379.84	227.99
380.22	227.93
380.60	227.85
380.98	227.80
381.36	227.76
381.73	227.69
382.11	227.66
382.49	227.62
382.87	227.56
383.25	227.51
383.62	227.61
384.00	227.54
384.38	227.50
384.76	227.49
385.13	227.48
385.51	227.43
385.89	227.39
386.27	227.35
386.64	227.33
387.02	227.28
387.40	227.23
387.78	227.19
388.15	227.18
388.53	227.15
388.91	227.12
389.29	227.09
389.66	227.11
390.04	227.07
390.42	227.07
390.79	227.06
391.17	227.03
391.55	226.88
391.92	226.88
392.30	226.88
392.68	226.84
393.05	226.81
393.43	226.81
393.81	226.81
394.18	226.79
394.56	226.80
394.94	226.83
395.31	226.83
395.69	226.89
396.06	226.91
396.44	226.94
396.82	226.95
397.19	227.04
397.57	227.03
397.95	227.08
398.32	227.07
398.70	227.11
399.07	227.18
399.45	227.21
399.82	227.24
400.20	227.29
400.58	227.35
400.95	227.36
401.33	227.46
401.70	227.63
402.08	227.72
402.45	227.80
402.83	227.91
403.20	228.02
403.58	228.11
403.95	228.24
404.33	228.39
404.71	228.54
405.08	228.74
405.46	228.91
405.83	229.09
406.21	229.29
406.58	229.51
406.96	229.72
407.33	229.97
407.70	230.25
408.08	230.63
408.45	230.96
408.83	231.32
409.20	231.64
409.58	231.93
409.95	232.33
410.33	232.78
410.70	233.19
411.08	233.70
411.45	234.22
411.82	234.74
412.20	235.34
412.57	236.05
412.95	236.62
413.32	237.36
413.69	238.11
414.07	238.91
414.44	239.78
414.82	240.67
415.19	241.71
415.56	242.78
415.94	243.86
416.31	245.10
416.68	246.33
417.06	247.76
417.43	249.09
417.81	250.63
418.18	252.20
418.55	253.92
418.93	255.68
419.30	257.52
419.67	259.49
420.04	261.52
420.42	263.62
420.79	266.05
421.16	268.52
421.54	271.01
421.91	273.63
422.28	276.34
422.66	279.27
423.03	282.06
423.40	284.98
423.77	288.11
424.15	291.32
424.52	294.66
424.89	298.29
425.26	301.90
425.64	305.25
426.01	309.01
426.38	312.86
426.75	316.85
427.13	320.93
427.50	325.20
427.87	329.64
428.24	334.15
428.61	338.48
428.99	343.14
429.36	348.25
429.73	353.16
430.10	358.06
430.47	363.09
430.85	368.26
431.22	373.81
431.59	379.51
431.96	385.08
432.33	391.28
432.70	397.17
433.08	404.12
433.45	410.70
433.82	417.19
434.19	424.44
434.56	431.59
434.93	438.50
435.30	445.35
435.68	453.06
436.05	460.62
436.42	468.14
436.79	475.01
437.16	482.44
437.53	490.37
437.90	498.32
438.27	506.10
438.64	514.48
439.01	522.09
439.38	529.06
439.75	535.75
440.13	543.31
440.50	550.48
440.87	556.17
441.24	562.38
441.61	569.17
441.98	574.09
442.35	579.92
442.72	585.85
443.09	591.47
443.46	595.02
443.83	597.57
444.20	599.70
444.57	602.89
444.94	604.65
445.31	606.45
445.68	607.95
446.05	608.99
446.42	608.46
446.79	607.71
447.16	607.01
447.53	606.35
447.90	603.69
448.27	601.16
448.64	597.48
449.01	594.85
449.37	589.77
449.74	585.18
450.11	579.36
450.48	572.98
450.85	566.65
451.22	561.17
451.59	555.85
451.96	551.02
452.33	544.12
452.70	537.97
453.07	530.51
453.43	523.08
453.80	515.87
454.17	508.99
454.54	502.66
454.91	495.54
455.28	488.87
455.65	482.61
456.02	476.00
456.38	470.67
456.75	463.81
457.12	458.32
457.49	452.78
457.86	447.56
458.23	443.03
458.59	437.97
458.96	432.81
459.33	428.27
459.70	423.66
460.07	420.14
460.43	416.02
460.80	412.19
461.17	408.87
461.54	405.28
461.91	401.90
462.27	398.49
462.64	395.74
463.01	392.56
463.38	389.35
463.74	386.45
464.11	383.90
464.48	381.63
464.85	379.14
465.21	377.28
465.58	375.18
465.95	372.76
466.32	370.85
466.68	368.98
467.05	367.10
467.42	365.24
467.78	363.26
468.15	361.42
468.52	360.10
468.88	358.29
469.25	356.63
469.62	355.33
469.98	353.90
470.35	352.63
470.72	351.47
471.08	350.31
471.45	349.34
471.82	348.25
472.18	347.09
472.55	346.35
472.92	345.40
473.28	344.66
473.65	343.87
474.02	343.12
474.38	342.49
474.75	342.12
475.11	341.61
475.48	341.37
475.85	341.11
476.21	340.99
476.58	340.91
476.94	341.06
477.31	341.14
477.67	341.25
478.04	341.46
478.41	341.76
478.77	342.19
479.14	342.47
479.50	342.99
479.87	343.68
480.23	344.36
480.60	345.02
480.96	345.70
481.33	346.71
481.69	347.72
482.06	348.72
482.42	349.62
482.79	350.75
483.15	352.06
483.52	353.54
483.88	354.97
484.25	356.48
484.61	358.05
484.98	359.75
485.34	361.67
485.71	363.69
486.07	365.84
486.44	368.00
486.80	370.39
487.17	372.87
487.53	375.59
487.90	378.44
488.26	381.54
488.62	384.79
488.99	388.05
489.35	391.48
489.72	395.20
490.08	399.12
490.44	403.16
490.81	407.39
491.17	411.69
491.54	416.31
491.90	421.08
492.26	426.20
492.63	431.57
492.99	437.13
493.36	442.92
493.72	449.01
494.08	455.23
494.45	461.86
494.81	468.74
495.17	475.79
495.54	483.21
495.90	490.96
496.26	498.91
496.63	507.06
496.99	515.54
497.35	524.42
497.72	533.59
498.08	542.97
498.44	552.65
498.80	562.92
499.17	573.44
499.53	584.30
499.89	595.50
500.26	606.91
500.62	618.63
500.98	630.96
501.34	643.46
501.71	656.49
502.07	669.69
502.43	683.41
502.79	697.37
503.16	711.78
503.52	726.38
503.88	741.38
504.24	756.84
504.60	772.52
504.97	788.67
505.33	805.19
505.69	822.63
506.05	840.39
506.41	858.10
506.78	875.96
507.14	894.31
507.50	913.12
507.86	932.23
508.22	951.58
508.59	970.75
508.95	990.70
509.31	1011.39
509.67	1032.75
510.03	1054.09
510.39	1075.47
510.75	1097.02
511.12	1118.84
511.48	1140.82
511.84	1162.86
512.20	1185.22
512.56	1208.41
512.92	1231.64
513.28	1254.41
513.64	1277.41
514.00	1300.77
514.37	1324.48
514.73	1348.17
515.09	1371.69
515.45	1395.58
515.81	1419.59
516.17	1443.72
516.53	1467.34
516.89	1490.74
517.25	1514.33
517.61	1537.84
517.97	1561.77
518.33	1585.15
518.69	1608.43
519.05	1632.21
519.41	1656.13
519.77	1680.30
520.13	1703.71
520.49	1726.99
520.85	1750.63
521.21	1773.82
521.57	1797.43
521.93	1820.47
522.29	1843.96
522.65	1866.93
523.01	1889.79
523.37	1912.23
523.73	1935.36
524.09	1958.23
524.45	1980.87
524.81	2003.07
525.17	2024.99
525.53	2046.37
525.89	2068.17
526.25	2089.95
526.61	2110.69
526.97	2131.59
527.33	2152.34
527.68	2172.76
528.04	2192.49
528.40	2211.24
528.76	2230.16
529.12	2248.50
529.48	2266.56
529.84	2282.91
530.20	2299.79
530.56	2316.11
530.91	2332.56
531.27	2348.65
531.63	2363.85
531.99	2378.69
532.35	2392.90
532.71	2407.21
533.07	2422.04
533.42	2435.11
533.78	2449.04
534.14	2463.21
534.50	2476.47
534.86	2489.56
535.21	2500.76
535.57	2512.36
535.93	2523.75
536.29	2534.05
536.65	2544.21
537.00	2553.76
537.36	2564.11
537.72	2573.11
538.08	2581.56
538.44	2589.41
538.79	2596.82
539.15	2603.52
539.51	2609.74
539.87	2615.33
540.22	2619.11
540.58	2622.98
540.94	2628.02
541.29	2631.60
541.65	2633.40
542.01	2634.61
542.37	2635.00
542.72	2636.79
543.08	2637.00
543.44	2637.78
543.79	2637.56
544.15	2636.50
544.51	2635.71
544.87	2633.89
545.22	2631.35
545.58	2628.22
545.94	2625.06
546.29	2620.68
546.65	2616.31
547.01	2611.85
547.36	2608.06
547.72	2604.37
548.07	2599.10
548.43	2592.39
548.79	2584.83
549.14	2578.45
549.50	2572.31
549.86	2565.38
550.21	2557.41
550.57	2550.26
550.92	2540.92
551.28	2532.11
551.64	2523.67
551.99	2514.88
552.35	2505.51
552.70	2496.47
553.06	2487.72
553.41	2478.43
553.77	2468.88
554.13	2459.20
554.48	2448.86
554.84	2437.39
555.19	2426.36
555.55	2415.43
555.90	2404.61
556.26	2394.21
556.61	2382.82
556.97	2369.85
557.32	2357.47
557.68	2344.98
558.03	2332.33
558.39	2320.80
558.74	2309.57
559.10	2296.72
559.45	2284.05
559.81	2272.02
560.16	2259.44
560.52	2247.02
560.87	2234.86
561.23	2221.99
561.58	2209.36
561.94	2196.39
562.29	2182.91
562.64	2170.12
563.00	2156.98
563.35	2144.29
563.71	2131.40
564.06	2118.44
564.42	2106.22
564.77	2093.38
565.12	2080.48
565.48	2067.59
565.83	2054.69
566.19	2041.98
566.54	2029.25
566.89	2015.47
567.25	2001.81
567.60	1989.36
567.96	1976.19
568.31	1961.78
568.66	1948.10
569.02	1935.36
569.37	1922.65
569.72	1910.45
570.08	1896.99
570.43	1883.25
570.78	1869.32
571.14	1854.88
571.49	1841.04
571.84	1827.73
572.20	1813.32
572.55	1799.17
572.90	1784.90
573.26	1770.70
573.61	1755.97
573.96	1741.74
574.31	1727.70
574.67	1713.74
575.02	1698.86
575.37	1684.00
575.72	1670.02
576.08	1656.36
576.43	1641.69
576.78	1627.40
577.13	1613.35
577.49	1599.73
577.84	1586.63
578.19	1572.73
578.54	1558.99
578.90	1544.81
579.25	1530.49
579.60	1517.68
579.95	1504.77
580.30	1491.70
580.66	1478.39
581.01	1465.06
581.36	1451.69
581.71	1439.32
582.06	1426.80
582.42	1414.52
582.77	1402.34
583.12	1390.08
583.47	1377.72
583.82	1365.51
584.17	1352.94
584.53	1340.10
584.88	1327.60
585.23	1314.74
585.58	1302.66
585.93	1290.77
586.28	1279.55
586.63	1268.36
586.98	1256.70
587.34	1245.11
587.69	1233.34
588.04	1221.91
588.39	1210.81
588.74	1199.82
589.09	1188.60
589.44	1177.04
589.79	1166.07
590.14	1155.24
590.49	1144.34
590.84	1133.53
591.19	1123.08
591.54	1112.54
591.89	1102.12
592.25	1091.87
592.60	1081.34
592.95	1071.17
593.30	1061.14
593.65	1050.90
594.00	1040.73
594.35	1031.14
594.70	1021.14
595.05	1011.93
595.40	1002.60
595.75	993.16
596.10	984.22
596.45	975.03
596.80	966.18
597.15	957.11
597.50	948.16
597.85	939.62
598.19	930.90
598.54	922.26
598.89	913.98
599.24	906.02
599.59	897.92
599.94	890.64
600.29	883.16
600.64	875.49
600.99	867.48
601.34	859.81
601.69	851.81
602.04	844.43
602.39	836.91
602.74	829.44
603.08	821.98
603.43	814.47
603.78	807.14
604.13	799.95
604.48	792.73
604.83	785.69
605.18	778.55
605.53	771.60
605.87	764.47
606.22	757.67
606.57	750.77
606.92	743.77
607.27	736.71
607.62	729.98
607.96	723.57
608.31	717.56
608.66	711.39
609.01	705.50
609.36	699.72
609.70	693.74
610.05	687.71
610.40	681.94
610.75	676.18
611.10	670.70
611.44	665.08
611.79	659.55
612.14	653.93
612.49	648.41
612.83	643.17
613.18	638.07
613.53	632.85
613.88	627.68
614.22	622.91
614.57	618.06
614.92	613.04
615.27	608.15
615.61	603.30
615.96	598.52
616.31	593.74
616.65	589.02
617.00	584.46
617.35	580.02
617.70	575.61
618.04	571.24
618.39	566.82
618.74	562.62
619.08	558.46
619.43	554.43
619.78	550.42
620.12	546.34
620.47	542.44
620.82	538.61
621.16	534.83
621.51	530.92
621.85	527.09
622.20	523.43
622.55	519.77
622.89	516.16
623.24	512.57
623.59	509.00
623.93	505.56
624.28	502.21
624.62	498.98
624.97	495.76
625.32	492.54
625.66	489.26
626.01	485.95
626.35	482.73
626.70	479.52
627.04	476.46
627.39	473.37
627.73	470.42
628.08	467.53
628.43	464.65
628.77	461.83
629.12	459.13
629.46	456.44
629.81	453.69
630.15	450.93
630.50	448.26
630.84	445.64
631.19	443.08
631.53	440.61
631.88	438.08
632.22	435.56
632.57	433.31
632.91	431.12
633.26	428.99
633.60	426.87
633.95	424.81
634.29	422.68
634.64	420.62
634.98	418.35
635.32	416.27
635.67	414.33
636.01	412.33
636.36	410.34
636.70	408.48
637.05	406.62
637.39	404.79
637.73	402.98
638.08	401.29
638.42	399.56
638.77	397.72
639.11	395.81
639.45	394.01
639.80	392.13
640.14	390.34
640.49	388.54
640.83	386.72
641.17	384.98
641.52	383.28
641.86	381.60
642.20	380.11
642.55	378.46
642.89	376.82
643.23	375.28
643.58	373.90
643.92	372.38
644.26	370.93
644.61	369.53
644.95	368.07
645.29	366.54
645.64	365.03
645.98	363.60
646.32	362.30
646.66	360.97
647.01	359.64
647.35	358.37
647.69	357.08
648.04	355.91
648.38	354.66
648.72	353.43
649.06	352.20
649.41	350.97
649.75	349.81
650.09	348.66
650.43	347.50
650.78	346.29
651.12	345.12
651.46	343.98
651.80	342.86
652.14	341.79
652.49	340.75
652.83	339.69
653.17	338.67
653.51	337.66
653.85	336.72
654.20	335.73
654.54	334.66
654.88	333.67
655.22	332.69
655.56	331.71
655.90	330.80
656.25	329.90
656.59	328.99
656.93	328.13
657.27	327.27
657.61	326.37
657.95	325.50
658.29	324.63
658.64	323.79
658.98	322.95
659.32	322.13
659.66	321.35
660.00	320.61
660.34	319.86
660.68	319.08
661.02	318.24
661.36	317.45
661.70	316.73
662.05	315.99
662.39	315.27
662.73	314.62
663.07	313.96
663.41	313.26
663.75	312.56
664.09	311.84
664.43	311.09
664.77	310.44
665.11	309.73
665.45	309.09
665.79	308.48
666.13	307.80
666.47	307.09
666.81	306.40
667.15	305.66
667.49	305.02
667.83	304.44
668.17	303.84
668.51	303.29
668.85	302.74
669.19	302.23
669.53	301.61
669.87	300.99
670.21	300.38
670.55	299.82
670.89	299.31
671.23	298.78
671.57	298.26
671.91	297.78
672.25	297.31
672.58	296.84
672.92	296.28
673.26	295.81
673.60	295.36
673.94	294.90
674.28	294.49
674.62	294.03
674.96	293.51
675.30	293.06
675.64	292.56
675.97	292.06
676.31	291.52
676.65	291.04
676.99	290.61
677.33	290.11
677.67	289.65
678.01	289.13
678.34	288.66
678.68	288.24
679.02	287.73
679.36	287.26
679.70	286.77
680.04	286.33
680.37	285.89
680.71	285.46
681.05	285.05
681.39	284.58
681.73	284.10
682.06	283.64
682.40	283.19
682.74	282.81
683.08	282.45
683.42	282.05
683.75	281.67
684.09	281.23
684.43	280.83
684.77	280.41
685.10	280.05
685.44	279.68
685.78	279.27
686.12	278.91
686.45	278.52
686.79	278.12
687.13	277.74
687.46	277.32
687.80	276.93
688.14	276.50
688.48	276.13
688.81	275.75
689.15	275.41
689.49	275.02
689.82	274.63
690.16	274.18
690.50	273.80
690.83	273.42
691.17	273.03
691.51	272.65
691.84	272.31
692.18	271.92
692.52	271.51
692.85	271.14
693.19	270.79
693.52	270.42
693.86	270.06
694.20	269.69
694.53	269.35
694.87	268.97
695.21	268.59
695.54	268.22
695.88	267.86
696.21	267.47
696.55	267.12
696.88	266.75
697.22	266.40
697.56	266.05
697.89	265.65
698.23	265.30
698.56	264.93
698.90	264.58
699.23	264.21
699.57	263.85
699.90	263.48
700.24	263.11
700.58	262.80
700.91	262.51
701.25	262.29
701.58	262.02
701.92	261.73
702.25	261.43
702.59	261.11
702.92	260.79
703.26	260.47
703.59	260.14
703.93	259.92
704.26	259.61
704.60	259.30
704.93	258.99
705.26	258.68
705.60	258.42
705.93	258.10
706.27	257.84
706.60	257.60
706.94	257.37
707.27	257.05
707.61	256.74
707.94	256.42
708.27	256.00
708.61	255.65
708.94	255.34
709.28	255.06
709.61	254.77
709.94	254.51
710.28	254.25
710.61	254.02
710.95	253.66
711.28	253.47
711.61	253.21
711.95	252.99
712.28	252.72
712.61	252.44
712.95	252.27
713.28	252.07
713.61	251.78
713.95	251.48
714.28	251.25
714.61	250.99
714.95	250.76
715.28	250.53
715.61	250.30
715.95	250.08
716.28	249.87
716.61	249.68
716.95	249.44
717.28	249.22
717.61	248.98
717.94	248.76
718.28	248.46
718.61	248.25
718.94	248.01
719.27	247.80
719.61	247.62
719.94	247.38
720.27	247.09
720.60	246.88
720.94	246.69
721.27	246.50
721.60	246.32
721.93	246.12
722.27	245.96
722.60	245.79
722.93	245.58
723.26	245.38
723.59	245.15
723.93	244.97
724.26	244.79
724.59	244.59
724.92	244.43
725.25	244.30
725.59	244.13
725.92	243.99
726.25	243.81
726.58	243.62
726.91	243.45
727.24	243.31
727.57	243.16
727.91	242.98
728.24	242.83
728.57	242.66
728.90	242.52
729.23	242.32
729.56	242.22
729.89	242.07
730.22	241.90
730.55	241.76
730.89	241.62
731.22	241.47
731.55	241.34
731.88	241.19
732.21	241.00
732.54	240.85
732.87	240.70
733.20	240.57
733.53	240.44
733.86	240.30
734.19	240.15
734.52	240.03
734.85	239.99
735.18	239.83
735.51	239.74
735.84	239.61
736.17	239.53
736.50	239.34
736.83	239.36
737.16	239.25
737.49	239.14
737.82	239.01
738.15	238.90
738.48	238.77
738.81	238.64
739.14	238.53
739.47	238.41
739.80	238.28
740.13	238.17
740.46	238.04
740.79	237.91
741.12	237.79
741.45	237.65
741.78	237.46
742.11	237.39
742.44	237.25
742.77	237.16
743.10	237.03
743.43	236.91
743.75	236.67
744.08	236.76
744.41	236.64
744.74	236.53
745.07	236.40
745.40	236.33
745.73	236.29
746.06	236.19
746.39	236.11
746.71	236.00
747.04	235.89
747.37	235.79
747.70	235.72
748.03	235.63
748.36	235.57
748.68	235.48
749.01	235.35
749.34	235.26
749.67	235.17
750.00	235.09
750.33	235.10
750.65	235.03
750.98	234.74
751.31	234.66
751.64	234.58
751.97	234.57
752.29	234.47
752.62	234.32
752.95	234.23
753.28	234.14
753.60	234.06
753.93	234.00
754.26	233.93
754.59	233.81
754.91	233.72
755.24	233.62
755.57	233.60
755.90	233.53
756.22	233.44
756.55	233.34
756.88	233.24
757.20	233.07
757.53	232.95
757.86	232.88
758.19	232.82
758.51	232.74
758.84	232.61
759.17	232.53
759.49	232.47
759.82	232.45
760.15	232.40
760.47	232.33
760.80	232.24
761.13	232.18
761.45	232.12
761.78	232.07
762.11	232.01
762.43	231.88
762.76	231.82
763.08	231.77
763.41	231.71
763.74	231.66
764.06	231.60
764.39	231.55
764.71	231.50
765.04	231.43
765.37	231.36
765.69	231.31
766.02	231.25
766.34	231.19
766.67	231.10
767.00	231.06
767.32	231.08
767.65	231.10
767.97	231.05
768.30	231.02
768.62	230.96
768.95	230.89
769.27	230.84
769.60	230.81
769.92	230.74
770.25	230.67
770.57	230.61
770.90	230.57
771.22	230.52
771.55	230.48
771.87	230.44
772.20	230.40
772.52	230.46
772.85	230.56
773.17	230.53
773.50	230.47
773.82	230.42
774.15	230.32
774.47	230.21
774.80	230.15
775.12	230.12
775.45	230.08
775.77	230.07
776.09	230.04
776.42	230.01
776.74	230.02
777.07	229.99
777.39	229.96
777.72	229.92
778.04	229.91
778.36	229.86
778.69	229.82
779.01	229.80
779.33	229.66
779.66	229.48
779.98	229.46
780.31	229.43
780.63	229.46
780.95	229.45
781.28	229.42
781.60	229.39
781.92	229.35
782.25	229.32
782.57	229.28
782.89	229.25
783.22	229.21
783.54	229.15
783.86	229.15
784.19	229.11
784.51	229.13
784.83	229.09
785.16	229.05
785.48	229.04
785.80	229.02
786.12	229.02
786.45	229.00
786.77	228.98
787.09	228.95
787.42	228.89
787.74	228.87
788.06	228.86
788.38	228.83
788.71	228.81
789.03	228.80
789.35	228.80
789.67	228.77
789.99	228.75
790.32	228.72
790.64	228.70
790.96	228.81
791.28	228.74
791.61	228.72
791.93	228.72
792.25	228.69
792.57	228.76
792.89	228.71
793.21	228.69
793.54	228.67
793.86	228.63
794.18	228.61
794.50	228.56
794.82	228.54
795.14	228.54
795.47	228.54
795.79	228.54
796.11	228.48
796.43	228.46
796.75	228.45
797.07	228.44
797.39	228.42
797.71	228.30
798.04	228.28
798.36	228.28
798.68	228.26
799.00	228.26
799.32	228.18
799.64	228.19
799.96	228.18
800.28	228.18
800.60	228.17
800.92	228.15
801.24	228.13
801.56	228.13
801.89	228.11
802.21	228.10
802.53	228.06
802.85	228.07
803.17	228.12
803.49	228.08
803.81	228.05
804.13	228.02
804.45	228.00
804.77	228.01
805.09	228.00
805.41	227.97
805.73	227.94
806.05	227.89
806.37	227.88
806.69	227.84
807.01	227.82
807.33	227.83
807.65	227.77
807.97	227.82
808.28	227.78
808.60	227.76
808.92	227.72
809.24	227.78
809.56	227.74
809.88	227.69
810.20	227.69
810.52	227.70
810.84	227.68
811.16	227.65
811.48	227.62
811.80	227.65
812.12	227.64
812.43	227.65
812.75	227.65
813.07	227.62
813.39	227.63
813.71	227.60
814.03	227.58
814.35	227.58
814.67	227.53
814.98	227.51
815.30	227.50
815.62	227.48
815.94	227.39
816.26	227.41
816.58	227.37
816.89	227.38
817.21	227.34
817.53	227.34
817.85	227.35
818.17	227.34
818.48	227.29
818.80	227.29
819.12	227.25
819.44	227.23
819.76	227.21
820.07	227.20
820.39	227.19
820.71	227.19
821.03	227.19
821.34	227.17
821.66	227.18
821.98	227.19
822.30	227.17
822.61	227.24
822.93	227.21
823.25	227.21
823.57	227.18
823.88	227.21
824.20	227.20
824.52	227.20
824.83	227.19
825.15	227.18
825.47	227.17
825.79	227.18
826.10	227.17
826.42	227.17
826.74	227.17
827.05	227.17
827.37	227.17
827.69	227.16
828.00	227.15
828.32	227.15
828.64	227.12
828.95	227.19
829.27	227.14
829.58	227.13
829.90	227.16
830.22	227.18
830.53	227.15
830.85	227.12
831.17	227.08
831.48	227.07
831.80	227.08
832.11	227.07
832.43	227.05
832.75	227.04
833.06	227.11
833.38	227.07
833.69	227.06
834.01	227.06
834.32	227.05
834.64	227.04
834.96	227.03
835.27	227.02
835.59	226.99
835.90	226.97
836.22	226.98
836.53	226.93
836.85	226.90
837.16	227.03
837.48	227.02
837.79	227.08
838.11	227.08
838.42	227.08
838.74	227.09
839.05	227.09
839.37	227.08
839.68	227.00
840.00	226.99
840.31	227.00
840.63	226.99
840.94	226.97
841.26	226.95
841.57	226.94
841.88	226.95
842.20	226.92
842.51	226.89
842.83	226.89
843.14	227.01
843.46	227.00
843.77	226.92
844.08	226.93
844.40	226.88
844.71	226.86
845.03	226.84
845.34	226.82
845.65	226.82
845.97	226.82
846.28	226.82
846.60	226.82
846.91	226.81
847.22	226.80
847.54	226.82
847.85	226.84
848.16	226.82
848.48	226.79
848.79	226.83
849.10	226.85
849.42	226.84
849.73	226.71
850.04	226.71
850.36	226.66
850.67	226.68
850.98	226.68
851.30	226.70
851.61	226.69
851.92	226.68
852.23	226.71
852.55	226.70
852.86	226.70
853.17	226.72
853.49	226.73
853.80	226.75
854.11	226.76
854.42	226.78
854.74	226.77
855.05	226.77
855.36	226.71
855.67	226.72
855.99	226.73
856.30	226.88
856.61	226.87
856.92	226.87
857.23	226.87
857.55	226.86
857.86	226.84
858.17	226.85
858.48	226.83
858.79	226.82
859.11	226.83
859.42	226.81
859.73	226.79
860.04	226.79
860.35	226.76
860.66	226.71
860.98	226.69
861.29	226.70
861.60	226.69
861.91	226.72
862.22	226.69
862.53	226.68
862.84	226.53
863.16	226.56
863.47	226.54
863.78	226.52
864.09	226.53
864.40	226.53
864.71	226.53
865.02	226.55
865.33	226.53
865.64	226.52
865.95	226.52
866.27	226.60
866.58	226.58
866.89	226.61
867.20	226.61
867.51	226.59
867.82	226.59
868.13	226.63
868.44	226.60
868.75	226.63
869.06	226.64
869.37	226.66
869.68	226.63
869.99	226.65
870.30	226.66
870.61	226.68
870.92	226.66
871.23	226.66
871.54	226.68
871.85	226.71
872.16	226.72
872.47	226.70
872.78	226.64
873.09	226.65
873.40	226.62
873.71	226.64
874.02	226.65
874.33	226.64
874.64	226.61
874.95	226.63
875.26	226.60
875.56	226.59
875.87	226.58
876.18	226.58
876.49	226.70
876.80	226.69
877.11	226.66
877.42	226.67
877.73	226.66
878.04	226.64
878.35	226.64
878.66	226.64
878.96	226.63
879.27	226.62
879.58	226.61
879.89	226.61
880.20	226.65
880.51	226.63
880.82	226.63
881.12	226.64
881.43	226.62
881.74	226.61
882.05	226.60
882.36	226.61
882.67	226.61
882.97	226.47
883.28	226.45
883.59	226.45
883.90	226.46
884.21	226.47
884.51	226.47
884.82	226.45
885.13	226.45
885.44	226.45
885.74	226.45
886.05	226.43
886.36	226.43
886.67	226.38
886.98	226.45
887.28	226.46
887.59	226.45
887.90	226.46
888.20	226.46
888.51	226.48
888.82	226.45
889.13	226.46
889.43	226.57
889.74	226.56
890.05	226.56
890.35	226.54
890.66	226.52
890.97	226.51
891.28	226.50
891.58	226.50
891.89	226.51
892.20	226.50
892.50	226.48
892.81	226.47
893.12	226.47
893.42	226.39
893.73	226.39
894.04	226.40
894.34	226.40
894.65	226.39
894.95	226.38
895.26	226.39
895.57	226.44
895.87	226.32
896.18	226.35
896.48	226.36
896.79	226.35
897.10	226.36
897.40	226.36
897.71	226.38
898.01	226.36
898.32	226.37
898.63	226.38
898.93	226.40
899.24	226.41
899.54	226.40
899.85	226.40
900.15	226.38
900.46	226.37
900.76	226.40
901.07	226.40
901.38	226.40
901.68	226.41
901.99	226.34
902.29	226.35
902.60	226.34
902.90	226.32
903.21	226.33
903.51	226.32
903.82	226.35
904.12	226.34
904.43	226.35
904.73	226.34
905.03	226.34
905.34	226.45
905.64	226.43
905.95	226.43
906.25	226.44
906.56	226.44
906.86	226.44
907.17	226.42
907.47	226.43
907.77	226.43
908.08	226.40
908.38	226.41
908.69	226.41
908.99	226.43
909.30	226.44
909.60	226.44
909.90	226.44
910.21	226.41
910.51	226.39
910.81	226.40
911.12	226.41
911.42	226.42
911.73	226.29
912.03	226.32
912.33	226.34
912.64	226.32
912.94	226.31
913.24	226.30
913.55	226.30
913.85	226.28
914.15	226.29
914.46	226.31
914.76	226.30
915.06	226.31
915.37	226.29
915.67	226.27
915.97	226.28
916.27	226.25
916.58	226.25
916.88	226.26
917.18	226.24
917.49	226.32
917.79	226.31
918.09	226.33
918.39	226.36
918.70	226.35
919.00	226.36
919.30	226.42
919.60	226.40
919.91	226.39
920.21	226.40
920.51	226.38
920.81	226.38
921.12	226.41
921.42	226.41
921.72	226.41
922.02	226.42
922.32	226.44
922.63	226.45
922.93	226.52
923.23	226.52
923.53	226.51
923.83	226.43
924.13	226.44
924.44	226.44
924.74	226.46
925.04	226.48
925.34	226.48
925.64	226.43
925.94	226.44
926.24	226.51
926.55	226.49
926.85	226.51
927.15	226.51
927.45	226.50
927.75	226.49
928.05	226.50
928.35	226.49
928.65	226.51
928.95	226.51
929.26	226.46
929.56	226.48
929.86	226.49
930.16	226.48
930.46	226.47
930.76	226.47
931.06	226.41
931.36	226.37
931.66	226.38
931.96	226.40
932.26	226.41
932.56	226.35
932.86	226.36
933.16	226.36
933.46	226.34
933.76	226.32
934.06	226.35
934.36	226.39
934.66	226.37
934.96	226.34
935.26	226.35
935.56	226.36
935.86	226.33
936.16	226.31
936.46	226.30
936.76	226.30
937.06	226.28
937.36	226.29
937.66	226.30
937.96	226.29
938.26	226.25
938.56	226.23
938.86	226.24
939.16	226.28
939.46	226.30
939.76	226.31
940.06	226.30
940.35	226.29
940.65	226.23
940.95	226.26
941.25	226.23
941.55	226.21
941.85	226.20
942.15	226.22
942.45	226.27
942.75	226.26
943.04	226.26
943.34	226.28
943.64	226.28
943.94	226.26
944.24	226.26
944.54	226.28
944.84	226.27
945.13	226.25
945.43	226.22
945.73	226.20
946.03	226.20
946.33	226.18
946.62	226.15
946.92	226.15
947.22	226.15
947.52	226.16
947.82	226.18
948.11	226.16
948.41	226.13
948.71	226.09
949.01	226.10
949.31	226.09
949.60	226.07
949.90	226.09
950.20	226.09
950.50	226.08
950.79	226.07
951.09	226.10
951.39	226.10
951.69	226.09
951.98	226.11
952.28	226.10
952.58	226.09
952.87	226.11
953.17	226.12
953.47	226.11
953.76	226.11
954.06	226.08
954.36	226.06
954.66	226.06
954.95	226.10
955.25	226.10
955.55	226.11
955.84	226.09
956.14	226.10
956.44	226.11
956.73	226.10
957.03	226.11
957.32	226.11
957.62	226.10
957.92	226.13
958.21	226.11
958.51	226.25
958.81	226.28
959.10	226.29
959.40	226.32
959.69	226.32
959.99	226.34
960.29	226.34
960.58	226.35
960.88	226.39
961.17	226.38
961.47	226.39
961.76	226.38
962.06	226.41
962.36	226.40
962.65	226.41
962.95	226.41
963.24	226.39
963.54	226.38
963.83	226.40
964.13	226.39
964.42	226.39
964.72	226.29
965.01	226.30
965.31	226.29
965.60	226.26
965.90	226.34
966.19	226.30
966.49	226.31
966.78	226.31
967.08	226.31
967.37	226.31
967.67	226.29
967.96	226.32
968.26	226.30
968.55	226.31
968.85	226.30
969.14	226.30
969.43	226.30
969.73	226.29
970.02	226.29
970.32	226.28
970.61	226.25
970.91	226.21
971.20	226.18
971.49	226.18
971.79	226.19
972.08	226.10
972.38	226.12
972.67	226.11
972.96	226.13
973.26	226.10
973.55	226.13
973.85	226.13
974.14	226.11
974.43	226.13
974.73	226.11
975.02	226.10
975.31	226.09
975.61	226.09
975.90	226.09
976.19	226.07
976.49	226.09
976.78	226.10
977.07	226.10
977.37	226.11
977.66	226.12
977.95	226.10
978.24	226.10
978.54	226.12
978.83	226.11
979.12	226.10
979.42	226.10
979.71	226.08
980.00	226.07
980.29	226.08
980.59	226.06
980.88	226.08
981.17	226.08
981.46	226.09
981.76	226.09
982.05	226.12
982.34	226.12
982.63	226.11
982.93	226.11
983.22	226.14
983.51	226.14
983.80	226.16
984.09	226.16
984.39	226.16
984.68	226.14
984.97	226.15
985.26	226.14
985.55	226.14
985.85	226.11
986.14	226.13
986.43	226.15
986.72	226.13
987.01	226.09
987.30	226.09
987.59	226.09
987.89	226.10
988.18	226.06
988.47	226.06
988.76	226.05
989.05	226.05
989.34	226.03
989.63	226.06
989.92	226.04
990.22	226.04
990.51	226.04
990.80	226.02
991.09	226.03
991.38	226.06
991.67	226.05
991.96	226.04
992.25	226.04
992.54	226.01
992.83	226.01
993.12	226.01
993.41	226.03
993.70	226.08
993.99	226.10
994.28	226.12
994.58	226.14
994.87	226.12
995.16	226.11
995.45	226.10
995.74	226.05
996.03	226.06
996.32	226.08
996.61	226.10
996.90	226.10
997.19	226.09
997.48	226.08
997.77	226.08
998.06	226.09
998.34	226.08
998.63	226.08
998.92	226.09
999.21	226.11
999.50	226.11
999.79	226.06
1000.08	226.05
1000.37	226.05
1000.66	226.02
1000.95	226.06
1001.24	226.07
1001.53	226.10
1001.82	226.10
1002.11	226.08
1002.40	226.08
1002.68	226.11
1002.97	226.20
1003.26	226.19
1003.55	226.17
1003.84	226.17
1004.13	226.21
1004.42	226.21
1004.71	226.21
1004.99	226.20
1005.28	226.23
1005.57	226.21
1005.86	226.21
1006.15	226.20
1006.44	226.18
1006.72	226.20
1007.01	226.19
1007.30	226.19
1007.59	226.17
1007.88	226.16
1008.17	226.17
1008.45	226.14
1008.74	226.09
1009.03	226.03
1009.32	226.03
1009.60	226.04
1009.89	226.02
1010.18	225.97
1010.47	225.96
1010.76	225.96
1011.04	225.97
1011.33	225.96
1011.62	225.97
1011.91	225.98
1012.19	225.97
1012.48	225.97
1012.77	225.97
1013.05	226.01
1013.34	226.01
1013.63	226.01
1013.92	226.02
1014.20	226.01
1014.49	226.02
1014.78	226.04
1015.06	226.01
1015.35	226.01
1015.64	226.02
1015.92	226.05
1016.21	226.07
1016.50	226.07
1016.78	226.09
1017.07	226.10
1017.36	226.08
1017.64	226.07
1017.93	226.08
1018.22	226.08
1018.50	226.08
1018.79	226.08
1019.08	226.03
1019.36	226.04
1019.65	226.03
1019.93	226.07
1020.22	226.09
1020.51	226.16
1020.79	226.15
1021.08	225.84
1021.36	225.96
1021.65	226.07
1021.94	226.01
1022.22	226.11
1022.51	225.83
1022.79	226.80
1023.08	226.24
1023.36	227.73
1023.65	225.73
>>>>>End Processed Spectral Data<<<<<
