SpectraSuite Data File
++++++++++++++++++++++++++++++++++++
Date: Sat Oct 03 14:04:52 EDT 2015
User: lab3
Dark Spectrum Present: No
Reference Spectrum Present: No
Number of Sampled Component Spectra: 1
Spectrometers: USB2E7196
Integration Time (usec): 46000 (USB2E7196)
Spectra Averaged: 24000 (USB2E7196)
Boxcar Smoothing: 10 (USB2E7196)
Correct for Electrical Dark: No (USB2E7196)
Strobe/Lamp Enabled: No (USB2E7196)
Correct for Detector Non-linearity: No (USB2E7196)
Correct for Stray Light: No (USB2E7196)
Number of Pixels in Processed Spectrum: 2048
>>>>>Begin Processed Spectral Data<<<<<
339.09	0.00
339.48	214.39
339.86	215.84
340.24	217.23
340.63	218.66
341.01	221.88
341.39	221.36
341.78	222.76
342.16	223.93
342.54	224.34
342.93	212.81
343.31	223.56
343.69	224.10
344.07	224.56
344.46	225.00
344.84	225.39
345.22	225.61
345.60	225.87
345.99	226.07
346.37	226.20
346.75	226.31
347.13	226.39
347.52	226.46
347.90	226.56
348.28	226.59
348.66	226.66
349.05	226.65
349.43	226.71
349.81	226.77
350.19	226.82
350.57	226.89
350.96	226.98
351.34	227.07
351.72	227.16
352.10	227.27
352.48	227.34
352.87	227.39
353.25	227.46
353.63	227.52
354.01	227.58
354.39	227.66
354.77	227.74
355.15	227.85
355.54	227.89
355.92	227.92
356.30	228.00
356.68	228.15
357.06	228.23
357.44	228.28
357.82	228.33
358.20	228.46
358.58	228.52
358.97	228.58
359.35	228.66
359.73	228.75
360.11	228.80
360.49	228.86
360.87	228.91
361.25	228.97
361.63	229.06
362.01	229.11
362.39	229.14
362.77	229.19
363.15	229.21
363.53	229.24
363.91	229.28
364.29	229.30
364.67	229.20
365.05	229.23
365.43	229.26
365.81	229.29
366.19	229.30
366.57	229.36
366.95	229.36
367.33	229.33
367.71	229.32
368.09	229.34
368.47	229.33
368.85	229.32
369.23	229.33
369.61	229.28
369.99	229.29
370.37	229.29
370.75	229.36
371.13	229.33
371.51	229.29
371.89	229.27
372.27	229.25
372.65	229.23
373.03	229.19
373.41	229.14
373.78	229.10
374.16	228.99
374.54	228.91
374.92	228.86
375.30	228.82
375.68	228.75
376.06	228.71
376.44	228.65
376.82	228.61
377.19	228.56
377.57	228.51
377.95	228.42
378.33	228.36
378.71	228.20
379.09	228.15
379.47	228.12
379.84	228.06
380.22	227.99
380.60	227.92
380.98	227.87
381.36	227.82
381.73	227.76
382.11	227.74
382.49	227.70
382.87	227.64
383.25	227.59
383.62	227.70
384.00	227.63
384.38	227.59
384.76	227.58
385.13	227.58
385.51	227.54
385.89	227.49
386.27	227.46
386.64	227.44
387.02	227.39
387.40	227.35
387.78	227.33
388.15	227.30
388.53	227.28
388.91	227.25
389.29	227.21
389.66	227.21
390.04	227.17
390.42	227.17
390.79	227.16
391.17	227.14
391.55	226.99
391.92	226.98
392.30	226.98
392.68	226.94
393.05	226.92
393.43	226.92
393.81	226.93
394.18	226.91
394.56	226.91
394.94	226.94
395.31	226.95
395.69	226.99
396.06	227.02
396.44	227.05
396.82	227.06
397.19	227.15
397.57	227.16
397.95	227.21
398.32	227.21
398.70	227.25
399.07	227.32
399.45	227.36
399.82	227.40
400.20	227.44
400.58	227.50
400.95	227.52
401.33	227.60
401.70	227.76
402.08	227.87
402.45	227.96
402.83	228.07
403.20	228.19
403.58	228.28
403.95	228.43
404.33	228.58
404.71	228.73
405.08	228.94
405.46	229.11
405.83	229.30
406.21	229.50
406.58	229.73
406.96	229.95
407.33	230.20
407.70	230.49
408.08	230.89
408.45	231.23
408.83	231.60
409.20	231.94
409.58	232.24
409.95	232.66
410.33	233.12
410.70	233.54
411.08	234.05
411.45	234.59
411.82	235.13
412.20	235.75
412.57	236.48
412.95	237.06
413.32	237.82
413.69	238.60
414.07	239.43
414.44	240.32
414.82	241.24
415.19	242.31
415.56	243.40
415.94	244.52
416.31	245.78
416.68	247.05
417.06	248.52
417.43	249.90
417.81	251.48
418.18	253.10
418.55	254.86
418.93	256.69
419.30	258.60
419.67	260.63
420.04	262.72
420.42	264.89
420.79	267.41
421.16	269.94
421.54	272.52
421.91	275.22
422.28	278.02
422.66	281.04
423.03	283.92
423.40	286.94
423.77	290.18
424.15	293.50
424.52	296.97
424.89	300.71
425.26	304.43
425.64	307.89
426.01	311.78
426.38	315.77
426.75	319.87
427.13	324.08
427.50	328.49
427.87	333.07
428.24	337.70
428.61	342.16
428.99	346.97
429.36	352.25
429.73	357.30
430.10	362.36
430.47	367.53
430.85	372.86
431.22	378.58
431.59	384.45
431.96	390.19
432.33	396.56
432.70	402.62
433.08	409.79
433.45	416.56
433.82	423.24
434.19	430.69
434.56	438.04
434.93	445.14
435.30	452.16
435.68	460.11
436.05	467.89
436.42	475.63
436.79	482.69
437.16	490.33
437.53	498.50
437.90	506.67
438.27	514.67
438.64	523.31
439.01	531.13
439.38	538.27
439.75	545.15
440.13	552.90
440.50	560.26
440.87	566.09
441.24	572.48
441.61	579.43
441.98	584.47
442.35	590.48
442.72	596.58
443.09	602.38
443.46	606.01
443.83	608.64
444.20	610.80
444.57	614.09
444.94	615.87
445.31	617.72
445.68	619.25
446.05	620.31
446.42	619.74
446.79	618.97
447.16	618.28
447.53	617.61
447.90	614.92
448.27	612.34
448.64	608.54
449.01	605.84
449.37	600.66
449.74	595.98
450.11	589.97
450.48	583.43
450.85	576.91
451.22	571.32
451.59	565.87
451.96	560.92
452.33	553.83
452.70	547.53
453.07	539.86
453.43	532.25
453.80	524.86
454.17	517.79
454.54	511.29
454.91	503.95
455.28	497.09
455.65	490.63
456.02	483.82
456.38	478.34
456.75	471.30
457.12	465.64
457.49	459.93
457.86	454.57
458.23	449.88
458.59	444.68
458.96	439.35
459.33	434.67
459.70	429.90
460.07	426.29
460.43	422.03
460.80	418.06
461.17	414.62
461.54	410.86
461.91	407.36
462.27	403.81
462.64	400.96
463.01	397.65
463.38	394.33
463.74	391.34
464.11	388.69
464.48	386.32
464.85	383.72
465.21	381.77
465.58	379.58
465.95	377.06
466.32	375.06
466.68	373.10
467.05	371.13
467.42	369.20
467.78	367.11
468.15	365.18
468.52	363.79
468.88	361.90
469.25	360.18
469.62	358.82
469.98	357.32
470.35	355.98
470.72	354.78
471.08	353.55
471.45	352.51
471.82	351.36
472.18	350.13
472.55	349.34
472.92	348.34
473.28	347.55
473.65	346.70
474.02	345.89
474.38	345.22
474.75	344.81
475.11	344.25
475.48	343.98
475.85	343.69
476.21	343.52
476.58	343.40
476.94	343.52
477.31	343.57
477.67	343.65
478.04	343.84
478.41	344.12
478.77	344.54
479.14	344.79
479.50	345.30
479.87	345.97
480.23	346.64
480.60	347.30
480.96	347.97
481.33	348.96
481.69	349.95
482.06	350.93
482.42	351.84
482.79	352.97
483.15	354.28
483.52	355.76
483.88	357.19
484.25	358.73
484.61	360.33
484.98	362.05
485.34	363.99
485.71	366.02
486.07	368.19
486.44	370.36
486.80	372.79
487.17	375.31
487.53	378.06
487.90	380.94
488.26	384.07
488.62	387.38
488.99	390.70
489.35	394.19
489.72	397.98
490.08	401.97
490.44	406.08
490.81	410.36
491.17	414.74
491.54	419.44
491.90	424.31
492.26	429.50
492.63	434.95
492.99	440.63
493.36	446.51
493.72	452.70
494.08	459.05
494.45	465.78
494.81	472.77
495.17	479.98
495.54	487.57
495.90	495.47
496.26	503.54
496.63	511.88
496.99	520.54
497.35	529.59
497.72	538.92
498.08	548.47
498.44	558.35
498.80	568.82
499.17	579.55
499.53	590.60
499.89	602.04
500.26	613.70
500.62	625.67
500.98	638.27
501.34	651.05
501.71	664.37
502.07	677.90
502.43	691.95
502.79	706.22
503.16	720.95
503.52	735.86
503.88	751.24
504.24	767.07
504.60	783.11
504.97	799.65
505.33	816.65
505.69	834.56
506.05	852.79
506.41	870.93
506.78	889.30
507.14	908.20
507.50	927.51
507.86	947.18
508.22	967.06
508.59	986.76
508.95	1007.32
509.31	1028.65
509.67	1050.64
510.03	1072.62
510.39	1094.67
510.75	1116.93
511.12	1139.48
511.48	1162.16
511.84	1184.89
512.20	1208.06
512.56	1232.08
512.92	1256.11
513.28	1279.72
513.64	1303.62
514.00	1327.98
514.37	1352.63
514.73	1377.28
515.09	1401.82
515.45	1426.70
515.81	1451.68
516.17	1476.84
516.53	1501.44
516.89	1525.90
517.25	1550.57
517.61	1575.13
517.97	1600.14
518.33	1624.67
518.69	1649.13
519.05	1674.12
519.41	1699.40
519.77	1724.75
520.13	1749.42
520.49	1773.99
520.85	1798.97
521.21	1823.39
521.57	1848.25
521.93	1872.55
522.29	1897.32
522.65	1921.64
523.01	1945.92
523.37	1969.84
523.73	1994.48
524.09	2018.80
524.45	2042.84
524.81	2066.55
525.17	2090.12
525.53	2113.08
525.89	2136.44
526.25	2159.84
526.61	2182.24
526.97	2204.73
527.33	2227.27
527.68	2249.43
528.04	2270.75
528.40	2291.09
528.76	2311.85
529.12	2331.98
529.48	2351.76
529.84	2369.75
530.20	2388.40
530.56	2406.40
530.91	2424.56
531.27	2442.33
531.63	2459.23
531.99	2475.83
532.35	2491.62
532.71	2507.49
533.07	2524.06
533.42	2538.87
533.78	2554.63
534.14	2570.54
534.50	2585.41
534.86	2600.01
535.21	2612.70
535.57	2625.99
535.93	2639.05
536.29	2650.87
536.65	2662.52
537.00	2673.53
537.36	2685.47
537.72	2695.92
538.08	2705.91
538.44	2715.21
538.79	2724.08
539.15	2732.20
539.51	2739.81
539.87	2746.79
540.22	2751.88
540.58	2757.08
540.94	2763.49
541.29	2768.14
541.65	2771.00
542.01	2773.32
542.37	2775.00
542.72	2777.98
543.08	2779.20
543.44	2781.04
543.79	2781.85
544.15	2781.80
544.51	2782.11
544.87	2781.36
545.22	2779.75
545.58	2777.46
545.94	2775.24
546.29	2771.71
546.65	2768.20
547.01	2764.70
547.36	2761.98
547.72	2759.22
548.07	2754.74
548.43	2748.68
548.79	2741.75
549.14	2736.19
549.50	2730.77
549.86	2724.36
550.21	2716.86
550.57	2710.37
550.92	2701.54
551.28	2693.37
551.64	2685.55
551.99	2677.27
552.35	2668.27
552.70	2659.67
553.06	2651.34
553.41	2642.28
553.77	2633.12
554.13	2623.83
554.48	2613.61
554.84	2602.24
555.19	2591.42
555.55	2580.59
555.90	2569.90
556.26	2559.79
556.61	2548.48
556.97	2535.54
557.32	2523.15
557.68	2510.70
558.03	2498.05
558.39	2486.59
558.74	2475.36
559.10	2462.39
559.45	2449.76
559.81	2437.77
560.16	2425.02
560.52	2412.56
560.87	2400.51
561.23	2387.56
561.58	2374.77
561.94	2361.63
562.29	2347.86
562.64	2334.89
563.00	2321.61
563.35	2308.75
563.71	2295.67
564.06	2282.49
564.42	2270.12
564.77	2257.14
565.12	2244.07
565.48	2230.93
565.83	2217.84
566.19	2204.77
566.54	2191.70
566.89	2177.45
567.25	2163.40
567.60	2150.71
567.96	2137.15
568.31	2122.26
568.66	2108.19
569.02	2095.18
569.37	2082.11
569.72	2069.61
570.08	2055.78
570.43	2041.61
570.78	2027.24
571.14	2012.19
571.49	1997.90
571.84	1984.11
572.20	1969.08
572.55	1954.41
572.90	1939.50
573.26	1924.64
573.61	1909.28
573.96	1894.35
574.31	1879.71
574.67	1865.07
575.02	1849.45
575.37	1833.94
575.72	1819.24
576.08	1804.77
576.43	1789.22
576.78	1774.15
577.13	1759.34
577.49	1744.85
577.84	1730.98
578.19	1716.11
578.54	1701.50
578.90	1686.37
579.25	1671.16
579.60	1657.58
579.95	1643.74
580.30	1629.77
580.66	1615.50
581.01	1601.24
581.36	1587.03
581.71	1573.81
582.06	1560.42
582.42	1547.28
582.77	1534.14
583.12	1520.98
583.47	1507.77
583.82	1494.64
584.17	1481.12
584.53	1467.26
584.88	1453.83
585.23	1439.93
585.58	1426.91
585.93	1414.09
586.28	1401.96
586.63	1389.81
586.98	1377.13
587.34	1364.57
587.69	1351.81
588.04	1339.37
588.39	1327.28
588.74	1315.27
589.09	1303.02
589.44	1290.40
589.79	1278.45
590.14	1266.55
590.49	1254.60
590.84	1242.79
591.19	1231.42
591.54	1219.85
591.89	1208.42
592.25	1197.17
592.60	1185.61
592.95	1174.41
593.30	1163.42
593.65	1152.15
594.00	1141.01
594.35	1130.50
594.70	1119.56
595.05	1109.46
595.40	1099.23
595.75	1088.84
596.10	1079.03
596.45	1068.91
596.80	1059.11
597.15	1049.10
597.50	1039.25
597.85	1029.75
598.19	1020.10
598.54	1010.50
598.89	1001.34
599.24	992.53
599.59	983.52
599.94	975.41
600.29	967.09
600.64	958.48
600.99	949.50
601.34	940.88
601.69	931.94
602.04	923.65
602.39	915.19
602.74	906.79
603.08	898.37
603.43	889.92
603.78	881.65
604.13	873.54
604.48	865.38
604.83	857.43
605.18	849.43
605.53	841.56
605.87	833.48
606.22	825.76
606.57	817.98
606.92	810.08
607.27	802.10
607.62	794.49
607.96	787.28
608.31	780.51
608.66	773.54
609.01	766.84
609.36	760.27
609.70	753.44
610.05	746.63
610.40	740.04
610.75	733.46
611.10	727.20
611.44	720.82
611.79	714.54
612.14	708.18
612.49	701.90
612.83	695.93
613.18	690.10
613.53	684.16
613.88	678.23
614.22	672.73
614.57	667.17
614.92	661.42
615.27	655.79
615.61	650.24
615.96	644.71
616.31	639.20
616.65	633.72
617.00	628.50
617.35	623.37
617.70	618.31
618.04	613.26
618.39	608.14
618.74	603.29
619.08	598.47
619.43	593.76
619.78	589.07
620.12	584.34
620.47	579.79
620.82	575.33
621.16	570.87
621.51	566.31
621.85	561.81
622.20	557.51
622.55	553.23
622.89	549.01
623.24	544.80
623.59	540.63
623.93	536.64
624.28	532.73
624.62	528.90
624.97	525.12
625.32	521.32
625.66	517.47
626.01	513.58
626.35	509.76
626.70	506.00
627.04	502.38
627.39	498.73
627.73	495.24
628.08	491.84
628.43	488.45
628.77	485.14
629.12	481.94
629.46	478.73
629.81	475.45
630.15	472.17
630.50	468.99
630.84	465.87
631.19	462.80
631.53	459.83
631.88	456.82
632.22	453.84
632.57	451.15
632.91	448.47
633.26	445.90
633.60	443.33
633.95	440.82
634.29	438.24
634.64	435.72
634.98	433.00
635.32	430.44
635.67	428.06
636.01	425.61
636.36	423.21
636.70	420.96
637.05	418.70
637.39	416.47
637.73	414.27
638.08	412.17
638.42	410.05
638.77	407.80
639.11	405.51
639.45	403.30
639.80	401.03
640.14	398.87
640.49	396.69
640.83	394.50
641.17	392.41
641.52	390.35
641.86	388.32
642.20	386.51
642.55	384.52
642.89	382.58
643.23	380.72
643.58	379.02
643.92	377.19
644.26	375.42
644.61	373.71
644.95	371.96
645.29	370.15
645.64	368.36
645.98	366.66
646.32	365.08
646.66	363.48
647.01	361.91
647.35	360.38
647.69	358.84
648.04	357.44
648.38	355.93
648.72	354.47
649.06	353.01
649.41	351.55
649.75	350.14
650.09	348.76
650.43	347.39
650.78	345.96
651.12	344.58
651.46	343.24
651.80	341.94
652.14	340.66
652.49	339.43
652.83	338.17
653.17	336.96
653.51	335.77
653.85	334.64
654.20	333.47
654.54	332.23
654.88	331.08
655.22	329.96
655.56	328.83
655.90	327.76
656.25	326.71
656.59	325.65
656.93	324.66
657.27	323.68
657.61	322.64
657.95	321.64
658.29	320.65
658.64	319.72
658.98	318.78
659.32	317.85
659.66	316.98
660.00	316.13
660.34	315.28
660.68	314.40
661.02	313.49
661.36	312.62
661.70	311.79
662.05	310.99
662.39	310.19
662.73	309.46
663.07	308.73
663.41	307.97
663.75	307.21
664.09	306.45
664.43	305.66
664.77	304.95
665.11	304.20
665.45	303.51
665.79	302.82
666.13	302.09
666.47	301.36
666.81	300.62
667.15	299.86
667.49	299.20
667.83	298.60
668.17	297.96
668.51	297.38
668.85	296.81
669.19	296.27
669.53	295.64
669.87	295.00
670.21	294.39
670.55	293.82
670.89	293.33
671.23	292.79
671.57	292.27
671.91	291.78
672.25	291.32
672.58	290.85
672.92	290.31
673.26	289.86
673.60	289.41
673.94	288.97
674.28	288.57
674.62	288.13
674.96	287.63
675.30	287.20
675.64	286.73
675.97	286.26
676.31	285.75
676.65	285.31
676.99	284.93
677.33	284.46
677.67	284.03
678.01	283.54
678.34	283.12
678.68	282.72
679.02	282.26
679.36	281.82
679.70	281.37
680.04	280.98
680.37	280.57
680.71	280.18
681.05	279.80
681.39	279.38
681.73	278.94
682.06	278.53
682.40	278.14
682.74	277.80
683.08	277.49
683.42	277.13
683.75	276.80
684.09	276.39
684.43	276.05
684.77	275.70
685.10	275.39
685.44	275.05
685.78	274.71
686.12	274.39
686.45	274.05
686.79	273.70
687.13	273.38
687.46	273.03
687.80	272.69
688.14	272.32
688.48	272.01
688.81	271.68
689.15	271.40
689.49	271.06
689.82	270.72
690.16	270.31
690.50	269.99
690.83	269.66
691.17	269.32
691.51	269.00
691.84	268.69
692.18	268.35
692.52	268.00
692.85	267.67
693.19	267.38
693.52	267.06
693.86	266.74
694.20	266.43
694.53	266.13
694.87	265.80
695.21	265.49
695.54	265.18
695.88	264.86
696.21	264.52
696.55	264.22
696.88	263.92
697.22	263.62
697.56	263.32
697.89	262.98
698.23	262.69
698.56	262.36
698.90	262.07
699.23	261.75
699.57	261.44
699.90	261.14
700.24	260.81
700.58	260.54
700.91	260.29
701.25	260.12
701.58	259.89
701.92	259.65
702.25	259.39
702.59	259.10
702.92	258.83
703.26	258.55
703.59	258.26
703.93	258.08
704.26	257.82
704.60	257.54
704.93	257.27
705.26	257.00
705.60	256.77
705.93	256.47
706.27	256.26
706.60	256.05
706.94	255.84
707.27	255.55
707.61	255.28
707.94	254.99
708.27	254.61
708.61	254.30
708.94	254.01
709.28	253.76
709.61	253.50
709.94	253.28
710.28	253.05
710.61	252.85
710.95	252.51
711.28	252.35
711.61	252.12
711.95	251.92
712.28	251.68
712.61	251.43
712.95	251.28
713.28	251.12
713.61	250.86
713.95	250.59
714.28	250.39
714.61	250.16
714.95	249.95
715.28	249.74
715.61	249.54
715.95	249.35
716.28	249.15
716.61	248.98
716.95	248.76
717.28	248.55
717.61	248.34
717.94	248.14
718.28	247.85
718.61	247.65
718.94	247.43
719.27	247.24
719.61	247.07
719.94	246.84
720.27	246.57
720.60	246.38
720.94	246.20
721.27	246.02
721.60	245.86
721.93	245.67
722.27	245.52
722.60	245.36
722.93	245.16
723.26	244.98
723.59	244.77
723.93	244.61
724.26	244.44
724.59	244.26
724.92	244.10
725.25	243.98
725.59	243.82
725.92	243.68
726.25	243.53
726.58	243.36
726.91	243.19
727.24	243.06
727.57	242.90
727.91	242.73
728.24	242.60
728.57	242.44
728.90	242.30
729.23	242.11
729.56	242.01
729.89	241.86
730.22	241.71
730.55	241.56
730.89	241.42
731.22	241.26
731.55	241.12
731.88	240.98
732.21	240.81
732.54	240.67
732.87	240.53
733.20	240.40
733.53	240.27
733.86	240.14
734.19	239.99
734.52	239.88
734.85	239.84
735.18	239.67
735.51	239.58
735.84	239.46
736.17	239.37
736.50	239.19
736.83	239.21
737.16	239.10
737.49	238.99
737.82	238.87
738.15	238.78
738.48	238.66
738.81	238.54
739.14	238.41
739.47	238.29
739.80	238.16
740.13	238.06
740.46	237.93
740.79	237.80
741.12	237.69
741.45	237.55
741.78	237.37
742.11	237.30
742.44	237.16
742.77	237.06
743.10	236.93
743.43	236.82
743.75	236.58
744.08	236.67
744.41	236.56
744.74	236.45
745.07	236.32
745.40	236.25
745.73	236.20
746.06	236.11
746.39	236.04
746.71	235.94
747.04	235.83
747.37	235.74
747.70	235.67
748.03	235.59
748.36	235.52
748.68	235.43
749.01	235.31
749.34	235.22
749.67	235.14
750.00	235.07
750.33	235.08
750.65	235.01
750.98	234.74
751.31	234.66
751.64	234.58
751.97	234.57
752.29	234.48
752.62	234.33
752.95	234.25
753.28	234.15
753.60	234.06
753.93	234.01
754.26	233.94
754.59	233.82
754.91	233.72
755.24	233.63
755.57	233.61
755.90	233.53
756.22	233.44
756.55	233.34
756.88	233.24
757.20	233.07
757.53	232.96
757.86	232.89
758.19	232.82
758.51	232.75
758.84	232.61
759.17	232.53
759.49	232.47
759.82	232.46
760.15	232.41
760.47	232.35
760.80	232.25
761.13	232.20
761.45	232.14
761.78	232.08
762.11	232.03
762.43	231.90
762.76	231.84
763.08	231.80
763.41	231.75
763.74	231.70
764.06	231.65
764.39	231.60
764.71	231.54
765.04	231.48
765.37	231.41
765.69	231.36
766.02	231.31
766.34	231.24
766.67	231.14
767.00	231.11
767.32	231.13
767.65	231.16
767.97	231.09
768.30	231.05
768.62	231.01
768.95	230.94
769.27	230.89
769.60	230.86
769.92	230.79
770.25	230.73
770.57	230.67
770.90	230.62
771.22	230.57
771.55	230.52
771.87	230.49
772.20	230.45
772.52	230.51
772.85	230.62
773.17	230.59
773.50	230.54
773.82	230.48
774.15	230.38
774.47	230.26
774.80	230.21
775.12	230.17
775.45	230.13
775.77	230.11
776.09	230.08
776.42	230.05
776.74	230.05
777.07	230.02
777.39	229.99
777.72	229.95
778.04	229.94
778.36	229.90
778.69	229.87
779.01	229.85
779.33	229.71
779.66	229.53
779.98	229.49
780.31	229.47
780.63	229.50
780.95	229.49
781.28	229.47
781.60	229.43
781.92	229.41
782.25	229.38
782.57	229.35
782.89	229.32
783.22	229.28
783.54	229.23
783.86	229.22
784.19	229.19
784.51	229.21
784.83	229.17
785.16	229.14
785.48	229.12
785.80	229.09
786.12	229.08
786.45	229.06
786.77	229.05
787.09	229.01
787.42	228.94
787.74	228.92
788.06	228.91
788.38	228.88
788.71	228.86
789.03	228.84
789.35	228.83
789.67	228.80
789.99	228.79
790.32	228.75
790.64	228.74
790.96	228.84
791.28	228.77
791.61	228.75
791.93	228.74
792.25	228.71
792.57	228.78
792.89	228.75
793.21	228.74
793.54	228.71
793.86	228.68
794.18	228.66
794.50	228.62
794.82	228.61
795.14	228.61
795.47	228.61
795.79	228.59
796.11	228.55
796.43	228.53
796.75	228.51
797.07	228.50
797.39	228.48
797.71	228.36
798.04	228.35
798.36	228.34
798.68	228.32
799.00	228.32
799.32	228.24
799.64	228.24
799.96	228.22
800.28	228.23
800.60	228.22
800.92	228.21
801.24	228.19
801.56	228.19
801.89	228.16
802.21	228.15
802.53	228.11
802.85	228.12
803.17	228.17
803.49	228.13
803.81	228.11
804.13	228.09
804.45	228.06
804.77	228.06
805.09	228.04
805.41	228.02
805.73	227.99
806.05	227.94
806.37	227.92
806.69	227.89
807.01	227.87
807.33	227.86
807.65	227.81
807.97	227.85
808.28	227.83
808.60	227.81
808.92	227.78
809.24	227.85
809.56	227.82
809.88	227.76
810.20	227.76
810.52	227.77
810.84	227.75
811.16	227.72
811.48	227.70
811.80	227.74
812.12	227.72
812.43	227.74
812.75	227.74
813.07	227.72
813.39	227.71
813.71	227.69
814.03	227.67
814.35	227.66
814.67	227.60
814.98	227.58
815.30	227.57
815.62	227.54
815.94	227.45
816.26	227.45
816.58	227.42
816.89	227.42
817.21	227.38
817.53	227.38
817.85	227.38
818.17	227.37
818.48	227.31
818.80	227.33
819.12	227.30
819.44	227.27
819.76	227.25
820.07	227.24
820.39	227.23
820.71	227.23
821.03	227.23
821.34	227.22
821.66	227.23
821.98	227.23
822.30	227.23
822.61	227.29
822.93	227.27
823.25	227.26
823.57	227.24
823.88	227.25
824.20	227.24
824.52	227.25
824.83	227.24
825.15	227.23
825.47	227.21
825.79	227.21
826.10	227.20
826.42	227.20
826.74	227.20
827.05	227.19
827.37	227.19
827.69	227.17
828.00	227.17
828.32	227.16
828.64	227.14
828.95	227.20
829.27	227.16
829.58	227.15
829.90	227.17
830.22	227.17
830.53	227.15
830.85	227.13
831.17	227.09
831.48	227.09
831.80	227.09
832.11	227.08
832.43	227.06
832.75	227.05
833.06	227.13
833.38	227.09
833.69	227.08
834.01	227.08
834.32	227.07
834.64	227.05
834.96	227.05
835.27	227.04
835.59	227.00
835.90	226.97
836.22	226.97
836.53	226.94
836.85	226.92
837.16	227.04
837.48	227.04
837.79	227.08
838.11	227.08
838.42	227.08
838.74	227.08
839.05	227.08
839.37	227.07
839.68	226.98
840.00	226.98
840.31	226.99
840.63	226.98
840.94	226.96
841.26	226.95
841.57	226.94
841.88	226.95
842.20	226.93
842.51	226.91
842.83	226.91
843.14	227.02
843.46	227.01
843.77	226.94
844.08	226.93
844.40	226.88
844.71	226.87
845.03	226.86
845.34	226.84
845.65	226.84
845.97	226.84
846.28	226.84
846.60	226.85
846.91	226.82
847.22	226.82
847.54	226.84
847.85	226.85
848.16	226.83
848.48	226.81
848.79	226.86
849.10	226.87
849.42	226.87
849.73	226.75
850.04	226.75
850.36	226.71
850.67	226.73
850.98	226.73
851.30	226.74
851.61	226.73
851.92	226.73
852.23	226.76
852.55	226.77
852.86	226.77
853.17	226.77
853.49	226.80
853.80	226.83
854.11	226.83
854.42	226.84
854.74	226.83
855.05	226.83
855.36	226.76
855.67	226.76
855.99	226.76
856.30	226.91
856.61	226.91
856.92	226.90
857.23	226.91
857.55	226.89
857.86	226.88
858.17	226.90
858.48	226.87
858.79	226.85
859.11	226.85
859.42	226.85
859.73	226.83
860.04	226.82
860.35	226.78
860.66	226.74
860.98	226.73
861.29	226.75
861.60	226.74
861.91	226.77
862.22	226.74
862.53	226.72
862.84	226.57
863.16	226.59
863.47	226.57
863.78	226.55
864.09	226.56
864.40	226.57
864.71	226.57
865.02	226.58
865.33	226.57
865.64	226.54
865.95	226.54
866.27	226.62
866.58	226.61
866.89	226.63
867.20	226.62
867.51	226.60
867.82	226.59
868.13	226.63
868.44	226.60
868.75	226.62
869.06	226.63
869.37	226.65
869.68	226.61
869.99	226.64
870.30	226.64
870.61	226.65
870.92	226.63
871.23	226.62
871.54	226.63
871.85	226.66
872.16	226.68
872.47	226.67
872.78	226.60
873.09	226.60
873.40	226.59
873.71	226.60
874.02	226.61
874.33	226.60
874.64	226.57
874.95	226.59
875.26	226.57
875.56	226.56
875.87	226.55
876.18	226.55
876.49	226.67
876.80	226.66
877.11	226.64
877.42	226.64
877.73	226.65
878.04	226.62
878.35	226.62
878.66	226.62
878.96	226.62
879.27	226.61
879.58	226.60
879.89	226.60
880.20	226.63
880.51	226.62
880.82	226.62
881.12	226.63
881.43	226.60
881.74	226.59
882.05	226.59
882.36	226.59
882.67	226.60
882.97	226.46
883.28	226.45
883.59	226.45
883.90	226.46
884.21	226.48
884.51	226.47
884.82	226.45
885.13	226.45
885.44	226.45
885.74	226.45
886.05	226.44
886.36	226.44
886.67	226.40
886.98	226.46
887.28	226.47
887.59	226.47
887.90	226.47
888.20	226.47
888.51	226.49
888.82	226.47
889.13	226.47
889.43	226.59
889.74	226.58
890.05	226.58
890.35	226.56
890.66	226.54
890.97	226.52
891.28	226.51
891.58	226.51
891.89	226.51
892.20	226.50
892.50	226.49
892.81	226.48
893.12	226.48
893.42	226.41
893.73	226.41
894.04	226.41
894.34	226.42
894.65	226.41
894.95	226.40
895.26	226.40
895.57	226.46
895.87	226.33
896.18	226.36
896.48	226.36
896.79	226.36
897.10	226.38
897.40	226.38
897.71	226.40
898.01	226.39
898.32	226.40
898.63	226.40
898.93	226.41
899.24	226.42
899.54	226.41
899.85	226.40
900.15	226.40
900.46	226.39
900.76	226.40
901.07	226.41
901.38	226.40
901.68	226.41
901.99	226.35
902.29	226.36
902.60	226.34
902.90	226.33
903.21	226.33
903.51	226.32
903.82	226.34
904.12	226.34
904.43	226.35
904.73	226.34
905.03	226.34
905.34	226.46
905.64	226.45
905.95	226.45
906.25	226.45
906.56	226.45
906.86	226.45
907.17	226.44
907.47	226.44
907.77	226.43
908.08	226.40
908.38	226.41
908.69	226.42
908.99	226.44
909.30	226.45
909.60	226.45
909.90	226.46
910.21	226.42
910.51	226.40
910.81	226.40
911.12	226.40
911.42	226.40
911.73	226.27
912.03	226.28
912.33	226.31
912.64	226.30
912.94	226.28
913.24	226.27
913.55	226.26
913.85	226.25
914.15	226.27
914.46	226.29
914.76	226.28
915.06	226.27
915.37	226.25
915.67	226.24
915.97	226.24
916.27	226.21
916.58	226.22
916.88	226.22
917.18	226.21
917.49	226.29
917.79	226.29
918.09	226.31
918.39	226.33
918.70	226.32
919.00	226.33
919.30	226.39
919.60	226.38
919.91	226.37
920.21	226.38
920.51	226.35
920.81	226.34
921.12	226.36
921.42	226.36
921.72	226.36
922.02	226.37
922.32	226.39
922.63	226.39
922.93	226.46
923.23	226.47
923.53	226.46
923.83	226.37
924.13	226.38
924.44	226.38
924.74	226.40
925.04	226.42
925.34	226.42
925.64	226.37
925.94	226.37
926.24	226.44
926.55	226.43
926.85	226.44
927.15	226.44
927.45	226.44
927.75	226.44
928.05	226.44
928.35	226.43
928.65	226.44
928.95	226.45
929.26	226.39
929.56	226.41
929.86	226.43
930.16	226.42
930.46	226.40
930.76	226.41
931.06	226.35
931.36	226.31
931.66	226.33
931.96	226.35
932.26	226.35
932.56	226.30
932.86	226.30
933.16	226.30
933.46	226.29
933.76	226.27
934.06	226.29
934.36	226.33
934.66	226.33
934.96	226.31
935.26	226.31
935.56	226.33
935.86	226.30
936.16	226.28
936.46	226.27
936.76	226.27
937.06	226.25
937.36	226.26
937.66	226.26
937.96	226.25
938.26	226.22
938.56	226.22
938.86	226.23
939.16	226.25
939.46	226.26
939.76	226.27
940.06	226.27
940.35	226.25
940.65	226.19
940.95	226.20
941.25	226.17
941.55	226.15
941.85	226.14
942.15	226.17
942.45	226.21
942.75	226.20
943.04	226.21
943.34	226.23
943.64	226.22
943.94	226.20
944.24	226.20
944.54	226.21
944.84	226.21
945.13	226.19
945.43	226.16
945.73	226.16
946.03	226.14
946.33	226.13
946.62	226.12
946.92	226.12
947.22	226.12
947.52	226.14
947.82	226.15
948.11	226.14
948.41	226.11
948.71	226.08
949.01	226.09
949.31	226.08
949.60	226.06
949.90	226.08
950.20	226.08
950.50	226.08
950.79	226.07
951.09	226.09
951.39	226.09
951.69	226.07
951.98	226.09
952.28	226.10
952.58	226.10
952.87	226.10
953.17	226.12
953.47	226.11
953.76	226.10
954.06	226.08
954.36	226.07
954.66	226.07
954.95	226.10
955.25	226.11
955.55	226.12
955.84	226.11
956.14	226.11
956.44	226.12
956.73	226.11
957.03	226.12
957.32	226.12
957.62	226.11
957.92	226.14
958.21	226.13
958.51	226.27
958.81	226.29
959.10	226.30
959.40	226.33
959.69	226.34
959.99	226.36
960.29	226.36
960.58	226.36
960.88	226.40
961.17	226.39
961.47	226.40
961.76	226.38
962.06	226.40
962.36	226.39
962.65	226.39
962.95	226.40
963.24	226.39
963.54	226.39
963.83	226.40
964.13	226.39
964.42	226.38
964.72	226.27
965.01	226.27
965.31	226.26
965.60	226.23
965.90	226.30
966.19	226.27
966.49	226.28
966.78	226.28
967.08	226.26
967.37	226.26
967.67	226.24
967.96	226.26
968.26	226.26
968.55	226.27
968.85	226.27
969.14	226.27
969.43	226.27
969.73	226.26
970.02	226.25
970.32	226.24
970.61	226.22
970.91	226.19
971.20	226.17
971.49	226.16
971.79	226.17
972.08	226.08
972.38	226.10
972.67	226.09
972.96	226.11
973.26	226.08
973.55	226.12
973.85	226.12
974.14	226.10
974.43	226.11
974.73	226.09
975.02	226.08
975.31	226.08
975.61	226.08
975.90	226.07
976.19	226.05
976.49	226.07
976.78	226.08
977.07	226.08
977.37	226.09
977.66	226.10
977.95	226.08
978.24	226.09
978.54	226.11
978.83	226.11
979.12	226.10
979.42	226.10
979.71	226.07
980.00	226.07
980.29	226.07
980.59	226.05
980.88	226.08
981.17	226.08
981.46	226.08
981.76	226.08
982.05	226.12
982.34	226.13
982.63	226.13
982.93	226.13
983.22	226.16
983.51	226.16
983.80	226.18
984.09	226.20
984.39	226.19
984.68	226.17
984.97	226.18
985.26	226.17
985.55	226.18
985.85	226.16
986.14	226.18
986.43	226.19
986.72	226.18
987.01	226.14
987.30	226.14
987.59	226.14
987.89	226.14
988.18	226.10
988.47	226.09
988.76	226.07
989.05	226.06
989.34	226.04
989.63	226.07
989.92	226.05
990.22	226.03
990.51	226.03
990.80	226.02
991.09	226.03
991.38	226.05
991.67	226.03
991.96	226.03
992.25	226.03
992.54	226.00
992.83	226.01
993.12	226.01
993.41	226.03
993.70	226.08
993.99	226.11
994.28	226.12
994.58	226.15
994.87	226.14
995.16	226.14
995.45	226.13
995.74	226.08
996.03	226.10
996.32	226.12
996.61	226.15
996.90	226.15
997.19	226.14
997.48	226.14
997.77	226.13
998.06	226.14
998.34	226.12
998.63	226.13
998.92	226.13
999.21	226.15
999.50	226.15
999.79	226.10
1000.08	226.10
1000.37	226.10
1000.66	226.08
1000.95	226.11
1001.24	226.12
1001.53	226.13
1001.82	226.13
1002.11	226.11
1002.40	226.11
1002.68	226.14
1002.97	226.23
1003.26	226.22
1003.55	226.20
1003.84	226.21
1004.13	226.25
1004.42	226.25
1004.71	226.25
1004.99	226.24
1005.28	226.26
1005.57	226.25
1005.86	226.24
1006.15	226.23
1006.44	226.20
1006.72	226.22
1007.01	226.20
1007.30	226.20
1007.59	226.18
1007.88	226.18
1008.17	226.19
1008.45	226.16
1008.74	226.11
1009.03	226.05
1009.32	226.05
1009.60	226.05
1009.89	226.04
1010.18	225.99
1010.47	225.98
1010.76	225.98
1011.04	225.98
1011.33	225.98
1011.62	225.99
1011.91	225.99
1012.19	226.00
1012.48	226.01
1012.77	226.00
1013.05	226.05
1013.34	226.05
1013.63	226.04
1013.92	226.05
1014.20	226.04
1014.49	226.05
1014.78	226.06
1015.06	226.02
1015.35	226.02
1015.64	226.04
1015.92	226.06
1016.21	226.06
1016.50	226.07
1016.78	226.08
1017.07	226.09
1017.36	226.07
1017.64	226.05
1017.93	226.06
1018.22	226.05
1018.50	226.04
1018.79	226.03
1019.08	225.99
1019.36	226.00
1019.65	225.98
1019.93	226.02
1020.22	226.04
1020.51	226.10
1020.79	226.08
1021.08	225.85
1021.36	225.82
1021.65	226.01
1021.94	225.99
1022.22	226.11
1022.51	225.76
1022.79	226.60
1023.08	226.22
1023.36	227.49
1023.65	225.77
>>>>>End Processed Spectral Data<<<<<
