SpectraSuite Data File
++++++++++++++++++++++++++++++++++++
Date: Fri Oct 02 18:47:10 EDT 2015
User: lab3
Dark Spectrum Present: No
Reference Spectrum Present: No
Number of Sampled Component Spectra: 1
Spectrometers: USB2E7196
Integration Time (usec): 46000 (USB2E7196)
Spectra Averaged: 1500 (USB2E7196)
Boxcar Smoothing: 10 (USB2E7196)
Correct for Electrical Dark: No (USB2E7196)
Strobe/Lamp Enabled: No (USB2E7196)
Correct for Detector Non-linearity: No (USB2E7196)
Correct for Stray Light: No (USB2E7196)
Number of Pixels in Processed Spectrum: 2048
>>>>>Begin Processed Spectral Data<<<<<
339.09	0.00
339.48	215.51
339.86	216.88
340.24	218.44
340.63	219.51
341.01	222.90
341.39	222.40
341.78	223.96
342.16	225.12
342.54	225.49
342.93	213.83
343.31	224.63
343.69	225.16
344.07	225.63
344.46	226.05
344.84	226.45
345.22	226.68
345.60	226.94
345.99	227.14
346.37	227.27
346.75	227.38
347.13	227.46
347.52	227.54
347.90	227.63
348.28	227.67
348.66	227.73
349.05	227.73
349.43	227.78
349.81	227.84
350.19	227.90
350.57	227.97
350.96	228.05
351.34	228.14
351.72	228.24
352.10	228.34
352.48	228.42
352.87	228.47
353.25	228.54
353.63	228.60
354.01	228.66
354.39	228.74
354.77	228.80
355.15	228.91
355.54	228.96
355.92	228.98
356.30	229.05
356.68	229.20
357.06	229.27
357.44	229.33
357.82	229.38
358.20	229.50
358.58	229.56
358.97	229.61
359.35	229.70
359.73	229.79
360.11	229.84
360.49	229.90
360.87	229.95
361.25	230.01
361.63	230.09
362.01	230.15
362.39	230.17
362.77	230.22
363.15	230.24
363.53	230.28
363.91	230.32
364.29	230.35
364.67	230.25
365.05	230.27
365.43	230.29
365.81	230.33
366.19	230.35
366.57	230.40
366.95	230.40
367.33	230.37
367.71	230.36
368.09	230.38
368.47	230.37
368.85	230.35
369.23	230.36
369.61	230.30
369.99	230.32
370.37	230.32
370.75	230.39
371.13	230.37
371.51	230.31
371.89	230.30
372.27	230.27
372.65	230.25
373.03	230.21
373.41	230.17
373.78	230.12
374.16	230.02
374.54	229.93
374.92	229.88
375.30	229.85
375.68	229.78
376.06	229.74
376.44	229.69
376.82	229.65
377.19	229.60
377.57	229.55
377.95	229.46
378.33	229.41
378.71	229.25
379.09	229.20
379.47	229.17
379.84	229.10
380.22	229.04
380.60	228.96
380.98	228.92
381.36	228.87
381.73	228.80
382.11	228.77
382.49	228.73
382.87	228.67
383.25	228.63
383.62	228.73
384.00	228.65
384.38	228.61
384.76	228.60
385.13	228.60
385.51	228.56
385.89	228.51
386.27	228.47
386.64	228.45
387.02	228.40
387.40	228.35
387.78	228.34
388.15	228.32
388.53	228.30
388.91	228.26
389.29	228.23
389.66	228.24
390.04	228.20
390.42	228.20
390.79	228.19
391.17	228.16
391.55	228.01
391.92	228.02
392.30	228.02
392.68	227.98
393.05	227.97
393.43	227.97
393.81	227.99
394.18	227.97
394.56	227.97
394.94	228.00
395.31	228.00
395.69	228.04
396.06	228.06
396.44	228.09
396.82	228.11
397.19	228.20
397.57	228.21
397.95	228.25
398.32	228.25
398.70	228.29
399.07	228.35
399.45	228.39
399.82	228.41
400.20	228.44
400.58	228.49
400.95	228.51
401.33	228.59
401.70	228.74
402.08	228.83
402.45	228.91
402.83	229.01
403.20	229.12
403.58	229.20
403.95	229.34
404.33	229.48
404.71	229.61
405.08	229.80
405.46	229.95
405.83	230.14
406.21	230.32
406.58	230.53
406.96	230.74
407.33	230.98
407.70	231.25
408.08	231.62
408.45	231.93
408.83	232.26
409.20	232.57
409.58	232.85
409.95	233.24
410.33	233.66
410.70	234.06
411.08	234.53
411.45	235.02
411.82	235.52
412.20	236.09
412.57	236.77
412.95	237.31
413.32	238.00
413.69	238.71
414.07	239.47
414.44	240.31
414.82	241.15
415.19	242.14
415.56	243.15
415.94	244.19
416.31	245.36
416.68	246.53
417.06	247.88
417.43	249.15
417.81	250.61
418.18	252.10
418.55	253.71
418.93	255.40
419.30	257.17
419.67	259.04
420.04	260.96
420.42	262.96
420.79	265.29
421.16	267.63
421.54	270.02
421.91	272.52
422.28	275.10
422.66	277.89
423.03	280.56
423.40	283.34
423.77	286.32
424.15	289.39
424.52	292.58
424.89	296.03
425.26	299.47
425.64	302.66
426.01	306.25
426.38	309.92
426.75	313.71
427.13	317.59
427.50	321.67
427.87	325.90
428.24	330.18
428.61	334.29
428.99	338.73
429.36	343.59
429.73	348.25
430.10	352.91
430.47	357.69
430.85	362.60
431.22	367.89
431.59	373.32
431.96	378.61
432.33	384.49
432.70	390.11
433.08	396.73
433.45	403.00
433.82	409.18
434.19	416.09
434.56	422.89
434.93	429.45
435.30	435.95
435.68	443.29
436.05	450.48
436.42	457.63
436.79	464.16
437.16	471.21
437.53	478.73
437.90	486.25
438.27	493.62
438.64	501.56
439.01	508.74
439.38	515.31
439.75	521.63
440.13	528.75
440.50	535.52
440.87	540.85
441.24	546.69
441.61	553.06
441.98	557.66
442.35	563.13
442.72	568.71
443.09	574.00
443.46	577.29
443.83	579.65
444.20	581.57
444.57	584.52
444.94	586.10
445.31	587.74
445.68	589.12
446.05	590.00
446.42	589.39
446.79	588.63
447.16	587.91
447.53	587.21
447.90	584.68
448.27	582.21
448.64	578.66
449.01	576.13
449.37	571.29
449.74	566.91
450.11	561.34
450.48	555.27
450.85	549.21
451.22	544.00
451.59	538.93
451.96	534.35
452.33	527.77
452.70	521.92
453.07	514.85
453.43	507.80
453.80	500.98
454.17	494.48
454.54	488.47
454.91	481.72
455.28	475.43
455.65	469.47
456.02	463.25
456.38	458.20
456.75	451.73
457.12	446.54
457.49	441.29
457.86	436.33
458.23	432.02
458.59	427.25
458.96	422.36
459.33	418.09
459.70	413.73
460.07	410.43
460.43	406.55
460.80	402.94
461.17	399.80
461.54	396.38
461.91	393.19
462.27	389.95
462.64	387.35
463.01	384.33
463.38	381.31
463.74	378.54
464.11	376.12
464.48	373.96
464.85	371.59
465.21	369.82
465.58	367.85
465.95	365.56
466.32	363.74
466.68	361.97
467.05	360.17
467.42	358.41
467.78	356.51
468.15	354.76
468.52	353.49
468.88	351.78
469.25	350.23
469.62	348.99
469.98	347.63
470.35	346.44
470.72	345.36
471.08	344.24
471.45	343.33
471.82	342.30
472.18	341.19
472.55	340.49
472.92	339.59
473.28	338.88
473.65	338.13
474.02	337.40
474.38	336.80
474.75	336.46
475.11	335.97
475.48	335.75
475.85	335.50
476.21	335.37
476.58	335.29
476.94	335.43
477.31	335.50
477.67	335.60
478.04	335.80
478.41	336.08
478.77	336.49
479.14	336.75
479.50	337.23
479.87	337.88
480.23	338.52
480.60	339.16
480.96	339.81
481.33	340.76
481.69	341.72
482.06	342.64
482.42	343.51
482.79	344.58
483.15	345.82
483.52	347.22
483.88	348.58
484.25	350.02
484.61	351.51
484.98	353.15
485.34	354.98
485.71	356.89
486.07	358.94
486.44	360.96
486.80	363.25
487.17	365.62
487.53	368.21
487.90	370.92
488.26	373.86
488.62	376.98
488.99	380.08
489.35	383.36
489.72	386.93
490.08	390.68
490.44	394.54
490.81	398.56
491.17	402.69
491.54	407.13
491.90	411.74
492.26	416.65
492.63	421.78
492.99	427.15
493.36	432.69
493.72	438.54
494.08	444.54
494.45	450.90
494.81	457.51
495.17	464.31
495.54	471.48
495.90	478.95
496.26	486.59
496.63	494.49
496.99	502.69
497.35	511.27
497.72	520.11
498.08	529.19
498.44	538.58
498.80	548.52
499.17	558.69
499.53	569.14
499.89	580.01
500.26	591.10
500.62	602.49
500.98	614.48
501.34	626.63
501.71	639.28
502.07	652.18
502.43	665.59
502.79	679.21
503.16	693.28
503.52	707.55
503.88	722.27
504.24	737.41
504.60	752.76
504.97	768.61
505.33	784.89
505.69	802.05
506.05	819.50
506.41	836.89
506.78	854.53
507.14	872.72
507.50	891.30
507.86	910.24
508.22	929.41
508.59	948.43
508.95	968.33
509.31	988.96
509.67	1010.17
510.03	1031.38
510.39	1052.73
510.75	1074.33
511.12	1096.18
511.48	1118.15
511.84	1140.27
512.20	1162.83
512.56	1186.19
512.92	1209.55
513.28	1232.58
513.64	1255.93
514.00	1279.74
514.37	1303.76
514.73	1327.83
515.09	1351.85
515.45	1376.25
515.81	1400.72
516.17	1425.45
516.53	1449.60
516.89	1473.68
517.25	1498.02
517.61	1522.32
517.97	1547.10
518.33	1571.35
518.69	1595.58
519.05	1620.34
519.41	1645.38
519.77	1670.49
520.13	1695.01
520.49	1719.49
520.85	1744.41
521.21	1768.73
521.57	1793.50
521.93	1817.86
522.29	1842.67
522.65	1867.05
523.01	1891.34
523.37	1915.35
523.73	1940.02
524.09	1964.46
524.45	1988.72
524.81	2012.60
525.17	2036.31
525.53	2059.39
525.89	2082.93
526.25	2106.51
526.61	2129.09
526.97	2151.84
527.33	2174.67
527.68	2197.11
528.04	2218.80
528.40	2239.46
528.76	2260.64
529.12	2281.23
529.48	2301.43
529.84	2319.97
530.20	2339.18
530.56	2357.79
530.91	2376.56
531.27	2394.93
531.63	2412.54
531.99	2429.76
532.35	2446.30
532.71	2462.84
533.07	2480.12
533.42	2495.69
533.78	2512.23
534.14	2528.92
534.50	2544.55
534.86	2560.05
535.21	2573.65
535.57	2587.74
535.93	2601.68
536.29	2614.38
536.65	2627.05
537.00	2639.12
537.36	2652.02
537.72	2663.25
538.08	2674.18
538.44	2684.47
538.79	2694.36
539.15	2703.40
539.51	2712.03
539.87	2719.92
540.22	2726.12
540.58	2732.36
540.94	2739.81
541.29	2745.48
541.65	2749.44
542.01	2752.91
542.37	2755.58
542.72	2759.58
543.08	2761.95
543.44	2764.77
543.79	2766.55
544.15	2767.49
544.51	2768.84
544.87	2769.05
545.22	2768.52
545.58	2767.30
545.94	2766.17
546.29	2763.64
546.65	2761.15
547.01	2758.64
547.36	2756.90
547.72	2754.97
548.07	2751.39
548.43	2746.23
548.79	2740.40
549.14	2735.82
549.50	2731.25
549.86	2725.85
550.21	2719.34
550.57	2713.71
550.92	2705.87
551.28	2698.68
551.64	2691.71
551.99	2684.15
552.35	2676.05
552.70	2668.28
553.06	2660.77
553.41	2652.49
553.77	2644.07
554.13	2635.47
554.48	2625.96
554.84	2615.32
555.19	2605.41
555.55	2595.39
555.90	2585.35
556.26	2575.77
556.61	2565.10
556.97	2552.85
557.32	2541.19
557.68	2529.30
558.03	2517.32
558.39	2506.40
558.74	2495.71
559.10	2483.27
559.45	2471.27
559.81	2459.82
560.16	2447.61
560.52	2435.61
560.87	2423.96
561.23	2411.44
561.58	2399.26
561.94	2386.60
562.29	2373.34
562.64	2360.72
563.00	2347.78
563.35	2335.45
563.71	2322.82
564.06	2309.99
564.42	2297.92
564.77	2285.13
565.12	2272.37
565.48	2259.48
565.83	2246.69
566.19	2233.94
566.54	2221.14
566.89	2207.07
567.25	2193.25
567.60	2180.73
567.96	2167.34
568.31	2152.58
568.66	2138.74
569.02	2125.77
569.37	2112.84
569.72	2100.45
570.08	2086.75
570.43	2072.75
570.78	2058.34
571.14	2043.39
571.49	2029.18
571.84	2015.51
572.20	2000.49
572.55	1985.85
572.90	1970.91
573.26	1955.97
573.61	1940.53
573.96	1925.58
574.31	1910.96
574.67	1896.24
575.02	1880.58
575.37	1864.98
575.72	1850.31
576.08	1835.79
576.43	1820.20
576.78	1804.99
577.13	1790.10
577.49	1775.55
577.84	1761.58
578.19	1746.71
578.54	1731.99
578.90	1716.78
579.25	1701.43
579.60	1687.76
579.95	1673.81
580.30	1659.83
580.66	1645.60
581.01	1631.23
581.36	1616.87
581.71	1603.54
582.06	1589.97
582.42	1576.74
582.77	1563.50
583.12	1550.09
583.47	1536.66
583.82	1523.32
584.17	1509.68
584.53	1495.63
584.88	1481.96
585.23	1467.78
585.58	1454.59
585.93	1441.63
586.28	1429.37
586.63	1417.14
586.98	1404.31
587.34	1391.56
587.69	1378.55
588.04	1365.85
588.39	1353.61
588.74	1341.46
589.09	1329.05
589.44	1316.32
589.79	1304.18
590.14	1292.16
590.49	1280.12
590.84	1268.18
591.19	1256.66
591.54	1244.95
591.89	1233.39
592.25	1221.99
592.60	1210.30
592.95	1198.92
593.30	1187.70
593.65	1176.21
594.00	1164.76
594.35	1154.00
594.70	1142.86
595.05	1132.62
595.40	1122.24
595.75	1111.68
596.10	1101.69
596.45	1091.36
596.80	1081.34
597.15	1071.14
597.50	1061.08
597.85	1051.40
598.19	1041.59
598.54	1031.82
598.89	1022.46
599.24	1013.44
599.59	1004.29
599.94	996.08
600.29	987.63
600.64	978.87
600.99	969.72
601.34	961.02
601.69	951.96
602.04	943.56
602.39	934.98
602.74	926.41
603.08	917.88
603.43	909.29
603.78	900.88
604.13	892.70
604.48	884.43
604.83	876.36
605.18	868.19
605.53	860.16
605.87	851.93
606.22	844.11
606.57	836.22
606.92	828.18
607.27	820.03
607.62	812.29
607.96	804.97
608.31	798.08
608.66	791.01
609.01	784.22
609.36	777.55
609.70	770.57
610.05	763.65
610.40	756.93
610.75	750.24
611.10	743.87
611.44	737.34
611.79	730.95
612.14	724.46
612.49	718.10
612.83	712.04
613.18	706.11
613.53	700.05
613.88	694.04
614.22	688.48
614.57	682.84
614.92	676.99
615.27	671.30
615.61	665.65
615.96	660.08
616.31	654.48
616.65	648.94
617.00	643.69
617.35	638.51
617.70	633.43
618.04	628.32
618.39	623.18
618.74	618.31
619.08	613.45
619.43	608.74
619.78	604.04
620.12	599.25
620.47	594.69
620.82	590.22
621.16	585.73
621.51	581.11
621.85	576.56
622.20	572.23
622.55	567.89
622.89	563.62
623.24	559.34
623.59	555.14
623.93	551.11
624.28	547.13
624.62	543.27
624.97	539.42
625.32	535.61
625.66	531.71
626.01	527.75
626.35	523.90
626.70	520.09
627.04	516.45
627.39	512.80
627.73	509.29
628.08	505.88
628.43	502.46
628.77	499.17
629.12	495.96
629.46	492.73
629.81	489.45
630.15	486.20
630.50	483.03
630.84	479.88
631.19	476.83
631.53	473.88
631.88	470.89
632.22	467.93
632.57	465.24
632.91	462.60
633.26	460.06
633.60	457.52
633.95	455.06
634.29	452.50
634.64	450.01
634.98	447.30
635.32	444.75
635.67	442.42
636.01	439.98
636.36	437.61
636.70	435.42
637.05	433.19
637.39	430.97
637.73	428.81
638.08	426.77
638.42	424.66
638.77	422.44
639.11	420.15
639.45	417.96
639.80	415.72
640.14	413.60
640.49	411.45
640.83	409.28
641.17	407.19
641.52	405.13
641.86	403.11
642.20	401.31
642.55	399.36
642.89	397.43
643.23	395.59
643.58	393.93
643.92	392.10
644.26	390.36
644.61	388.66
644.95	386.92
645.29	385.12
645.64	383.33
645.98	381.63
646.32	380.08
646.66	378.49
647.01	376.92
647.35	375.41
647.69	373.88
648.04	372.50
648.38	371.02
648.72	369.58
649.06	368.13
649.41	366.70
649.75	365.31
650.09	363.93
650.43	362.57
650.78	361.15
651.12	359.76
651.46	358.42
651.80	357.12
652.14	355.86
652.49	354.63
652.83	353.39
653.17	352.19
653.51	351.02
653.85	349.91
654.20	348.74
654.54	347.51
654.88	346.35
655.22	345.22
655.56	344.07
655.90	342.98
656.25	341.94
656.59	340.87
656.93	339.87
657.27	338.89
657.61	337.83
657.95	336.81
658.29	335.81
658.64	334.87
658.98	333.92
659.32	332.98
659.66	332.09
660.00	331.21
660.34	330.34
660.68	329.41
661.02	328.44
661.36	327.52
661.70	326.64
662.05	325.77
662.39	324.90
662.73	324.13
663.07	323.35
663.41	322.53
663.75	321.69
664.09	320.88
664.43	320.02
664.77	319.26
665.11	318.44
665.45	317.70
665.79	316.95
666.13	316.14
666.47	315.33
666.81	314.53
667.15	313.70
667.49	312.97
667.83	312.33
668.17	311.64
668.51	311.01
668.85	310.39
669.19	309.81
669.53	309.13
669.87	308.43
670.21	307.77
670.55	307.14
670.89	306.59
671.23	305.99
671.57	305.40
671.91	304.85
672.25	304.32
672.58	303.78
672.92	303.16
673.26	302.65
673.60	302.14
673.94	301.64
674.28	301.18
674.62	300.66
674.96	300.08
675.30	299.58
675.64	299.03
675.97	298.48
676.31	297.90
676.65	297.37
676.99	296.91
677.33	296.36
677.67	295.86
678.01	295.27
678.34	294.78
678.68	294.31
679.02	293.78
679.36	293.26
679.70	292.75
680.04	292.28
680.37	291.78
680.71	291.32
681.05	290.85
681.39	290.34
681.73	289.82
682.06	289.31
682.40	288.83
682.74	288.41
683.08	288.02
683.42	287.59
683.75	287.19
684.09	286.68
684.43	286.25
684.77	285.81
685.10	285.43
685.44	285.01
685.78	284.59
686.12	284.20
686.45	283.78
686.79	283.34
687.13	282.93
687.46	282.49
687.80	282.08
688.14	281.64
688.48	281.24
688.81	280.83
689.15	280.47
689.49	280.05
689.82	279.63
690.16	279.14
690.50	278.74
690.83	278.32
691.17	277.91
691.51	277.51
691.84	277.13
692.18	276.69
692.52	276.26
692.85	275.84
693.19	275.45
693.52	275.05
693.86	274.66
694.20	274.28
694.53	273.91
694.87	273.50
695.21	273.10
695.54	272.72
695.88	272.32
696.21	271.91
696.55	271.54
696.88	271.16
697.22	270.79
697.56	270.41
697.89	269.99
698.23	269.62
698.56	269.22
698.90	268.86
699.23	268.48
699.57	268.10
699.90	267.72
700.24	267.33
700.58	266.98
700.91	266.67
701.25	266.42
701.58	266.13
701.92	265.81
702.25	265.48
702.59	265.13
702.92	264.79
703.26	264.44
703.59	264.08
703.93	263.85
704.26	263.52
704.60	263.19
704.93	262.85
705.26	262.53
705.60	262.25
705.93	261.88
706.27	261.59
706.60	261.33
706.94	261.06
707.27	260.72
707.61	260.41
707.94	260.05
708.27	259.61
708.61	259.24
708.94	258.91
709.28	258.61
709.61	258.30
709.94	258.03
710.28	257.75
710.61	257.51
710.95	257.11
711.28	256.90
711.61	256.63
711.95	256.38
712.28	256.08
712.61	255.78
712.95	255.59
713.28	255.37
713.61	255.07
713.95	254.76
714.28	254.51
714.61	254.24
714.95	253.98
715.28	253.74
715.61	253.49
715.95	253.26
716.28	253.03
716.61	252.83
716.95	252.56
717.28	252.31
717.61	252.05
717.94	251.82
718.28	251.50
718.61	251.25
718.94	251.00
719.27	250.78
719.61	250.58
719.94	250.32
720.27	250.03
720.60	249.82
720.94	249.60
721.27	249.39
721.60	249.20
721.93	248.99
722.27	248.82
722.60	248.63
722.93	248.41
723.26	248.19
723.59	247.95
723.93	247.76
724.26	247.57
724.59	247.37
724.92	247.19
725.25	247.05
725.59	246.86
725.92	246.71
726.25	246.52
726.58	246.34
726.91	246.14
727.24	245.98
727.57	245.80
727.91	245.62
728.24	245.47
728.57	245.28
728.90	245.12
729.23	244.91
729.56	244.80
729.89	244.63
730.22	244.46
730.55	244.30
730.89	244.14
731.22	243.97
731.55	243.81
731.88	243.65
732.21	243.46
732.54	243.31
732.87	243.17
733.20	243.02
733.53	242.86
733.86	242.72
734.19	242.55
734.52	242.43
734.85	242.37
735.18	242.19
735.51	242.08
735.84	241.94
736.17	241.84
736.50	241.63
736.83	241.65
737.16	241.51
737.49	241.39
737.82	241.25
738.15	241.14
738.48	241.02
738.81	240.89
739.14	240.75
739.47	240.60
739.80	240.47
740.13	240.36
740.46	240.22
740.79	240.08
741.12	239.95
741.45	239.80
741.78	239.60
742.11	239.50
742.44	239.34
742.77	239.23
743.10	239.10
743.43	238.97
743.75	238.72
744.08	238.80
744.41	238.68
744.74	238.56
745.07	238.41
745.40	238.32
745.73	238.27
746.06	238.17
746.39	238.08
746.71	237.96
747.04	237.83
747.37	237.73
747.70	237.66
748.03	237.57
748.36	237.49
748.68	237.40
749.01	237.27
749.34	237.18
749.67	237.08
750.00	236.99
750.33	236.99
750.65	236.90
750.98	236.61
751.31	236.51
751.64	236.43
751.97	236.39
752.29	236.30
752.62	236.14
752.95	236.04
753.28	235.93
753.60	235.84
753.93	235.77
754.26	235.69
754.59	235.55
754.91	235.45
755.24	235.35
755.57	235.30
755.90	235.21
756.22	235.11
756.55	235.00
756.88	234.89
757.20	234.72
757.53	234.61
757.86	234.53
758.19	234.45
758.51	234.36
758.84	234.22
759.17	234.13
759.49	234.06
759.82	234.05
760.15	233.99
760.47	233.91
760.80	233.80
761.13	233.75
761.45	233.69
761.78	233.63
762.11	233.57
762.43	233.45
762.76	233.38
763.08	233.34
763.41	233.29
763.74	233.24
764.06	233.17
764.39	233.12
764.71	233.06
765.04	233.00
765.37	232.93
765.69	232.88
766.02	232.82
766.34	232.75
766.67	232.64
767.00	232.60
767.32	232.62
767.65	232.65
767.97	232.58
768.30	232.53
768.62	232.47
768.95	232.40
769.27	232.35
769.60	232.32
769.92	232.24
770.25	232.17
770.57	232.09
770.90	232.05
771.22	231.99
771.55	231.95
771.87	231.91
772.20	231.87
772.52	231.93
772.85	232.03
773.17	231.99
773.50	231.94
773.82	231.88
774.15	231.78
774.47	231.65
774.80	231.60
775.12	231.55
775.45	231.51
775.77	231.48
776.09	231.46
776.42	231.42
776.74	231.42
777.07	231.39
777.39	231.36
777.72	231.31
778.04	231.29
778.36	231.25
778.69	231.21
779.01	231.19
779.33	231.05
779.66	230.87
779.98	230.83
780.31	230.80
780.63	230.82
780.95	230.81
781.28	230.79
781.60	230.74
781.92	230.72
782.25	230.70
782.57	230.65
782.89	230.61
783.22	230.56
783.54	230.52
783.86	230.50
784.19	230.47
784.51	230.48
784.83	230.44
785.16	230.41
785.48	230.39
785.80	230.36
786.12	230.35
786.45	230.32
786.77	230.31
787.09	230.28
787.42	230.21
787.74	230.20
788.06	230.18
788.38	230.16
788.71	230.13
789.03	230.11
789.35	230.13
789.67	230.09
789.99	230.08
790.32	230.04
790.64	230.03
790.96	230.12
791.28	230.06
791.61	230.04
791.93	230.03
792.25	230.00
792.57	230.06
792.89	230.02
793.21	230.02
793.54	229.98
793.86	229.96
794.18	229.94
794.50	229.89
794.82	229.87
795.14	229.87
795.47	229.86
795.79	229.84
796.11	229.79
796.43	229.77
796.75	229.75
797.07	229.74
797.39	229.72
797.71	229.60
798.04	229.59
798.36	229.59
798.68	229.55
799.00	229.55
799.32	229.48
799.64	229.49
799.96	229.45
800.28	229.47
800.60	229.45
800.92	229.45
801.24	229.42
801.56	229.41
801.89	229.38
802.21	229.38
802.53	229.34
802.85	229.35
803.17	229.40
803.49	229.36
803.81	229.33
804.13	229.31
804.45	229.29
804.77	229.28
805.09	229.26
805.41	229.25
805.73	229.20
806.05	229.16
806.37	229.12
806.69	229.11
807.01	229.08
807.33	229.07
807.65	229.02
807.97	229.06
808.28	229.03
808.60	229.02
808.92	229.00
809.24	229.07
809.56	229.03
809.88	228.97
810.20	228.96
810.52	228.97
810.84	228.95
811.16	228.93
811.48	228.91
811.80	228.94
812.12	228.92
812.43	228.94
812.75	228.94
813.07	228.94
813.39	228.93
813.71	228.90
814.03	228.88
814.35	228.87
814.67	228.81
814.98	228.79
815.30	228.78
815.62	228.75
815.94	228.65
816.26	228.65
816.58	228.63
816.89	228.63
817.21	228.59
817.53	228.57
817.85	228.57
818.17	228.56
818.48	228.51
818.80	228.52
819.12	228.49
819.44	228.45
819.76	228.42
820.07	228.41
820.39	228.40
820.71	228.41
821.03	228.40
821.34	228.39
821.66	228.40
821.98	228.41
822.30	228.40
822.61	228.47
822.93	228.44
823.25	228.43
823.57	228.40
823.88	228.41
824.20	228.41
824.52	228.43
824.83	228.41
825.15	228.38
825.47	228.36
825.79	228.37
826.10	228.36
826.42	228.35
826.74	228.34
827.05	228.34
827.37	228.34
827.69	228.32
828.00	228.31
828.32	228.30
828.64	228.27
828.95	228.33
829.27	228.28
829.58	228.27
829.90	228.29
830.22	228.30
830.53	228.28
830.85	228.25
831.17	228.21
831.48	228.21
831.80	228.21
832.11	228.20
832.43	228.18
832.75	228.17
833.06	228.25
833.38	228.21
833.69	228.19
834.01	228.18
834.32	228.18
834.64	228.17
834.96	228.15
835.27	228.15
835.59	228.10
835.90	228.08
836.22	228.08
836.53	228.05
836.85	228.02
837.16	228.15
837.48	228.15
837.79	228.20
838.11	228.20
838.42	228.18
838.74	228.20
839.05	228.19
839.37	228.18
839.68	228.10
840.00	228.11
840.31	228.12
840.63	228.10
840.94	228.09
841.26	228.08
841.57	228.08
841.88	228.08
842.20	228.06
842.51	228.04
842.83	228.03
843.14	228.15
843.46	228.15
843.77	228.06
844.08	228.05
844.40	228.00
844.71	227.98
845.03	227.98
845.34	227.96
845.65	227.95
845.97	227.95
846.28	227.96
846.60	227.96
846.91	227.93
847.22	227.93
847.54	227.96
847.85	227.96
848.16	227.95
848.48	227.92
848.79	227.97
849.10	227.99
849.42	227.99
849.73	227.86
850.04	227.86
850.36	227.82
850.67	227.84
850.98	227.84
851.30	227.85
851.61	227.84
851.92	227.84
852.23	227.88
852.55	227.89
852.86	227.89
853.17	227.89
853.49	227.92
853.80	227.94
854.11	227.95
854.42	227.96
854.74	227.94
855.05	227.95
855.36	227.89
855.67	227.89
855.99	227.89
856.30	228.04
856.61	228.03
856.92	228.03
857.23	228.03
857.55	228.02
857.86	228.02
858.17	228.04
858.48	228.01
858.79	227.98
859.11	227.99
859.42	227.98
859.73	227.96
860.04	227.95
860.35	227.91
860.66	227.87
860.98	227.86
861.29	227.89
861.60	227.88
861.91	227.90
862.22	227.88
862.53	227.87
862.84	227.72
863.16	227.74
863.47	227.72
863.78	227.70
864.09	227.70
864.40	227.71
864.71	227.71
865.02	227.72
865.33	227.71
865.64	227.69
865.95	227.68
866.27	227.75
866.58	227.74
866.89	227.75
867.20	227.75
867.51	227.72
867.82	227.71
868.13	227.74
868.44	227.72
868.75	227.74
869.06	227.74
869.37	227.76
869.68	227.73
869.99	227.75
870.30	227.76
870.61	227.78
870.92	227.75
871.23	227.73
871.54	227.75
871.85	227.77
872.16	227.78
872.47	227.77
872.78	227.70
873.09	227.71
873.40	227.70
873.71	227.71
874.02	227.72
874.33	227.70
874.64	227.67
874.95	227.70
875.26	227.66
875.56	227.66
875.87	227.65
876.18	227.65
876.49	227.76
876.80	227.75
877.11	227.71
877.42	227.72
877.73	227.73
878.04	227.71
878.35	227.71
878.66	227.71
878.96	227.72
879.27	227.71
879.58	227.70
879.89	227.70
880.20	227.74
880.51	227.73
880.82	227.74
881.12	227.74
881.43	227.72
881.74	227.71
882.05	227.70
882.36	227.71
882.67	227.71
882.97	227.58
883.28	227.57
883.59	227.57
883.90	227.58
884.21	227.60
884.51	227.60
884.82	227.57
885.13	227.56
885.44	227.55
885.74	227.56
886.05	227.55
886.36	227.54
886.67	227.49
886.98	227.56
887.28	227.57
887.59	227.56
887.90	227.57
888.20	227.56
888.51	227.57
888.82	227.55
889.13	227.57
889.43	227.68
889.74	227.67
890.05	227.69
890.35	227.67
890.66	227.64
890.97	227.62
891.28	227.62
891.58	227.63
891.89	227.63
892.20	227.61
892.50	227.60
892.81	227.59
893.12	227.59
893.42	227.52
893.73	227.52
894.04	227.53
894.34	227.53
894.65	227.53
894.95	227.52
895.26	227.52
895.57	227.56
895.87	227.44
896.18	227.46
896.48	227.46
896.79	227.46
897.10	227.49
897.40	227.49
897.71	227.50
898.01	227.49
898.32	227.51
898.63	227.50
898.93	227.51
899.24	227.51
899.54	227.50
899.85	227.50
900.15	227.49
900.46	227.49
900.76	227.49
901.07	227.49
901.38	227.49
901.68	227.51
901.99	227.44
902.29	227.46
902.60	227.43
902.90	227.42
903.21	227.42
903.51	227.40
903.82	227.42
904.12	227.43
904.43	227.42
904.73	227.41
905.03	227.42
905.34	227.53
905.64	227.53
905.95	227.53
906.25	227.53
906.56	227.53
906.86	227.52
907.17	227.51
907.47	227.52
907.77	227.50
908.08	227.47
908.38	227.48
908.69	227.48
908.99	227.50
909.30	227.52
909.60	227.51
909.90	227.51
910.21	227.48
910.51	227.45
910.81	227.45
911.12	227.47
911.42	227.47
911.73	227.35
912.03	227.36
912.33	227.38
912.64	227.37
912.94	227.36
913.24	227.34
913.55	227.33
913.85	227.32
914.15	227.35
914.46	227.37
914.76	227.36
915.06	227.35
915.37	227.33
915.67	227.31
915.97	227.32
916.27	227.29
916.58	227.30
916.88	227.31
917.18	227.29
917.49	227.37
917.79	227.37
918.09	227.39
918.39	227.42
918.70	227.42
919.00	227.43
919.30	227.49
919.60	227.49
919.91	227.47
920.21	227.48
920.51	227.45
920.81	227.44
921.12	227.46
921.42	227.46
921.72	227.47
922.02	227.48
922.32	227.50
922.63	227.51
922.93	227.58
923.23	227.58
923.53	227.57
923.83	227.49
924.13	227.50
924.44	227.50
924.74	227.51
925.04	227.53
925.34	227.53
925.64	227.47
925.94	227.48
926.24	227.56
926.55	227.55
926.85	227.58
927.15	227.58
927.45	227.57
927.75	227.56
928.05	227.57
928.35	227.55
928.65	227.57
928.95	227.58
929.26	227.52
929.56	227.54
929.86	227.57
930.16	227.56
930.46	227.54
930.76	227.55
931.06	227.48
931.36	227.45
931.66	227.47
931.96	227.48
932.26	227.49
932.56	227.43
932.86	227.44
933.16	227.43
933.46	227.41
933.76	227.40
934.06	227.42
934.36	227.45
934.66	227.45
934.96	227.42
935.26	227.42
935.56	227.44
935.86	227.40
936.16	227.38
936.46	227.37
936.76	227.37
937.06	227.35
937.36	227.36
937.66	227.37
937.96	227.35
938.26	227.33
938.56	227.33
938.86	227.33
939.16	227.35
939.46	227.36
939.76	227.37
940.06	227.37
940.35	227.36
940.65	227.30
940.95	227.32
941.25	227.29
941.55	227.27
941.85	227.26
942.15	227.29
942.45	227.32
942.75	227.31
943.04	227.32
943.34	227.34
943.64	227.33
943.94	227.32
944.24	227.33
944.54	227.34
944.84	227.33
945.13	227.32
945.43	227.28
945.73	227.28
946.03	227.26
946.33	227.24
946.62	227.23
946.92	227.22
947.22	227.22
947.52	227.24
947.82	227.25
948.11	227.24
948.41	227.21
948.71	227.18
949.01	227.18
949.31	227.17
949.60	227.16
949.90	227.18
950.20	227.17
950.50	227.16
950.79	227.15
951.09	227.17
951.39	227.16
951.69	227.15
951.98	227.18
952.28	227.20
952.58	227.19
952.87	227.20
953.17	227.23
953.47	227.21
953.76	227.20
954.06	227.17
954.36	227.15
954.66	227.15
954.95	227.18
955.25	227.20
955.55	227.21
955.84	227.19
956.14	227.19
956.44	227.20
956.73	227.17
957.03	227.18
957.32	227.17
957.62	227.15
957.92	227.18
958.21	227.17
958.51	227.31
958.81	227.32
959.10	227.33
959.40	227.35
959.69	227.36
959.99	227.38
960.29	227.40
960.58	227.39
960.88	227.44
961.17	227.42
961.47	227.42
961.76	227.41
962.06	227.43
962.36	227.42
962.65	227.43
962.95	227.44
963.24	227.43
963.54	227.44
963.83	227.46
964.13	227.45
964.42	227.44
964.72	227.33
965.01	227.33
965.31	227.31
965.60	227.28
965.90	227.37
966.19	227.34
966.49	227.34
966.78	227.35
967.08	227.33
967.37	227.33
967.67	227.31
967.96	227.33
968.26	227.33
968.55	227.34
968.85	227.34
969.14	227.34
969.43	227.34
969.73	227.32
970.02	227.31
970.32	227.30
970.61	227.28
970.91	227.24
971.20	227.23
971.49	227.22
971.79	227.24
972.08	227.14
972.38	227.16
972.67	227.15
972.96	227.16
973.26	227.14
973.55	227.18
973.85	227.17
974.14	227.16
974.43	227.15
974.73	227.13
975.02	227.12
975.31	227.12
975.61	227.13
975.90	227.12
976.19	227.11
976.49	227.13
976.78	227.14
977.07	227.14
977.37	227.16
977.66	227.18
977.95	227.16
978.24	227.18
978.54	227.20
978.83	227.18
979.12	227.18
979.42	227.19
979.71	227.16
980.00	227.16
980.29	227.17
980.59	227.16
980.88	227.20
981.17	227.20
981.46	227.20
981.76	227.20
982.05	227.25
982.34	227.26
982.63	227.26
982.93	227.25
983.22	227.28
983.51	227.29
983.80	227.29
984.09	227.31
984.39	227.29
984.68	227.28
984.97	227.30
985.26	227.29
985.55	227.29
985.85	227.27
986.14	227.30
986.43	227.31
986.72	227.30
987.01	227.25
987.30	227.26
987.59	227.25
987.89	227.25
988.18	227.20
988.47	227.19
988.76	227.17
989.05	227.17
989.34	227.16
989.63	227.18
989.92	227.18
990.22	227.16
990.51	227.17
990.80	227.15
991.09	227.16
991.38	227.18
991.67	227.16
991.96	227.15
992.25	227.16
992.54	227.13
992.83	227.13
993.12	227.14
993.41	227.15
993.70	227.20
993.99	227.23
994.28	227.26
994.58	227.28
994.87	227.27
995.16	227.26
995.45	227.25
995.74	227.21
996.03	227.22
996.32	227.24
996.61	227.25
996.90	227.26
997.19	227.25
997.48	227.25
997.77	227.23
998.06	227.25
998.34	227.23
998.63	227.24
998.92	227.25
999.21	227.26
999.50	227.26
999.79	227.21
1000.08	227.21
1000.37	227.21
1000.66	227.19
1000.95	227.22
1001.24	227.24
1001.53	227.25
1001.82	227.24
1002.11	227.21
1002.40	227.23
1002.68	227.25
1002.97	227.34
1003.26	227.32
1003.55	227.30
1003.84	227.32
1004.13	227.36
1004.42	227.35
1004.71	227.35
1004.99	227.34
1005.28	227.38
1005.57	227.38
1005.86	227.36
1006.15	227.34
1006.44	227.32
1006.72	227.33
1007.01	227.31
1007.30	227.31
1007.59	227.29
1007.88	227.29
1008.17	227.30
1008.45	227.27
1008.74	227.22
1009.03	227.16
1009.32	227.17
1009.60	227.17
1009.89	227.16
1010.18	227.10
1010.47	227.10
1010.76	227.09
1011.04	227.09
1011.33	227.08
1011.62	227.07
1011.91	227.08
1012.19	227.10
1012.48	227.10
1012.77	227.09
1013.05	227.14
1013.34	227.14
1013.63	227.13
1013.92	227.14
1014.20	227.14
1014.49	227.15
1014.78	227.17
1015.06	227.13
1015.35	227.13
1015.64	227.15
1015.92	227.16
1016.21	227.18
1016.50	227.17
1016.78	227.18
1017.07	227.20
1017.36	227.17
1017.64	227.16
1017.93	227.17
1018.22	227.16
1018.50	227.16
1018.79	227.16
1019.08	227.12
1019.36	227.13
1019.65	227.12
1019.93	227.15
1020.22	227.18
1020.51	227.24
1020.79	227.22
1021.08	226.98
1021.36	227.03
1021.65	227.22
1021.94	227.12
1022.22	227.28
1022.51	226.92
1022.79	227.81
1023.08	227.48
1023.36	228.74
1023.65	226.89
>>>>>End Processed Spectral Data<<<<<
