SpectraSuite Data File
++++++++++++++++++++++++++++++++++++
Date: Fri Oct 02 19:54:19 EDT 2015
User: lab3
Dark Spectrum Present: No
Reference Spectrum Present: No
Number of Sampled Component Spectra: 1
Spectrometers: USB2E7196
Integration Time (usec): 46000 (USB2E7196)
Spectra Averaged: 4500 (USB2E7196)
Boxcar Smoothing: 10 (USB2E7196)
Correct for Electrical Dark: No (USB2E7196)
Strobe/Lamp Enabled: No (USB2E7196)
Correct for Detector Non-linearity: No (USB2E7196)
Correct for Stray Light: No (USB2E7196)
Number of Pixels in Processed Spectrum: 2048
>>>>>Begin Processed Spectral Data<<<<<
339.09	0.00
339.48	215.97
339.86	217.41
340.24	218.88
340.63	220.17
341.01	223.52
341.39	222.99
341.78	224.32
342.16	225.52
342.54	225.89
342.93	214.31
343.31	225.14
343.69	225.67
344.07	226.13
344.46	226.56
344.84	226.95
345.22	227.17
345.60	227.42
345.99	227.61
346.37	227.75
346.75	227.86
347.13	227.94
347.52	228.01
347.90	228.10
348.28	228.14
348.66	228.20
349.05	228.19
349.43	228.24
349.81	228.29
350.19	228.35
350.57	228.42
350.96	228.50
351.34	228.60
351.72	228.69
352.10	228.80
352.48	228.87
352.87	228.92
353.25	228.98
353.63	229.04
354.01	229.10
354.39	229.17
354.77	229.25
355.15	229.35
355.54	229.40
355.92	229.43
356.30	229.50
356.68	229.65
357.06	229.73
357.44	229.77
357.82	229.83
358.20	229.94
358.58	230.00
358.97	230.06
359.35	230.14
359.73	230.22
360.11	230.27
360.49	230.33
360.87	230.38
361.25	230.44
361.63	230.53
362.01	230.59
362.39	230.62
362.77	230.66
363.15	230.68
363.53	230.71
363.91	230.75
364.29	230.77
364.67	230.68
365.05	230.70
365.43	230.74
365.81	230.77
366.19	230.79
366.57	230.85
366.95	230.84
367.33	230.81
367.71	230.81
368.09	230.83
368.47	230.83
368.85	230.82
369.23	230.83
369.61	230.77
369.99	230.79
370.37	230.79
370.75	230.87
371.13	230.84
371.51	230.80
371.89	230.78
372.27	230.76
372.65	230.74
373.03	230.70
373.41	230.66
373.78	230.60
374.16	230.50
374.54	230.42
374.92	230.36
375.30	230.32
375.68	230.26
376.06	230.21
376.44	230.16
376.82	230.12
377.19	230.07
377.57	230.02
377.95	229.93
378.33	229.87
378.71	229.71
379.09	229.66
379.47	229.64
379.84	229.57
380.22	229.51
380.60	229.44
380.98	229.39
381.36	229.35
381.73	229.29
382.11	229.26
382.49	229.22
382.87	229.16
383.25	229.12
383.62	229.22
384.00	229.15
384.38	229.12
384.76	229.10
385.13	229.09
385.51	229.06
385.89	229.02
386.27	228.98
386.64	228.97
387.02	228.92
387.40	228.87
387.78	228.84
388.15	228.82
388.53	228.79
388.91	228.76
389.29	228.72
389.66	228.72
390.04	228.69
390.42	228.68
390.79	228.68
391.17	228.66
391.55	228.50
391.92	228.49
392.30	228.50
392.68	228.46
393.05	228.43
393.43	228.43
393.81	228.44
394.18	228.42
394.56	228.42
394.94	228.45
395.31	228.45
395.69	228.50
396.06	228.52
396.44	228.54
396.82	228.55
397.19	228.64
397.57	228.65
397.95	228.69
398.32	228.68
398.70	228.73
399.07	228.79
399.45	228.83
399.82	228.87
400.20	228.90
400.58	228.96
400.95	228.97
401.33	229.05
401.70	229.20
402.08	229.30
402.45	229.38
402.83	229.49
403.20	229.60
403.58	229.69
403.95	229.83
404.33	229.98
404.71	230.12
405.08	230.32
405.46	230.48
405.83	230.66
406.21	230.85
406.58	231.06
406.96	231.26
407.33	231.50
407.70	231.78
408.08	232.15
408.45	232.47
408.83	232.81
409.20	233.13
409.58	233.41
409.95	233.80
410.33	234.23
410.70	234.63
411.08	235.11
411.45	235.61
411.82	236.11
412.20	236.69
412.57	237.38
412.95	237.92
413.32	238.63
413.69	239.36
414.07	240.13
414.44	240.96
414.82	241.82
415.19	242.82
415.56	243.83
415.94	244.88
416.31	246.06
416.68	247.25
417.06	248.61
417.43	249.89
417.81	251.37
418.18	252.87
418.55	254.51
418.93	256.22
419.30	258.00
419.67	259.88
420.04	261.82
420.42	263.84
420.79	266.18
421.16	268.54
421.54	270.94
421.91	273.45
422.28	276.05
422.66	278.84
423.03	281.52
423.40	284.33
423.77	287.33
424.15	290.42
424.52	293.62
424.89	297.10
425.26	300.55
425.64	303.76
426.01	307.37
426.38	311.05
426.75	314.85
427.13	318.75
427.50	322.84
427.87	327.09
428.24	331.38
428.61	335.51
428.99	339.97
429.36	344.85
429.73	349.52
430.10	354.21
430.47	359.00
430.85	363.92
431.22	369.23
431.59	374.68
431.96	379.99
432.33	385.89
432.70	391.52
433.08	398.17
433.45	404.46
433.82	410.65
434.19	417.57
434.56	424.40
434.93	430.99
435.30	437.50
435.68	444.86
436.05	452.07
436.42	459.23
436.79	465.79
437.16	472.86
437.53	480.44
437.90	488.01
438.27	495.42
438.64	503.40
439.01	510.63
439.38	517.24
439.75	523.60
440.13	530.76
440.50	537.56
440.87	542.94
441.24	548.84
441.61	555.26
441.98	559.91
442.35	565.43
442.72	571.06
443.09	576.41
443.46	579.75
443.83	582.16
444.20	584.15
444.57	587.17
444.94	588.79
445.31	590.47
445.68	591.87
446.05	592.83
446.42	592.26
446.79	591.52
447.16	590.84
447.53	590.20
447.90	587.69
448.27	585.27
448.64	581.73
449.01	579.21
449.37	574.39
449.74	570.02
450.11	564.44
450.48	558.37
450.85	552.32
451.22	547.11
451.59	542.04
451.96	537.43
452.33	530.83
452.70	524.98
453.07	517.87
453.43	510.79
453.80	503.93
454.17	497.38
454.54	491.35
454.91	484.55
455.28	478.20
455.65	472.21
456.02	465.92
456.38	460.84
456.75	454.31
457.12	449.06
457.49	443.78
457.86	438.81
458.23	434.46
458.59	429.65
458.96	424.72
459.33	420.40
459.70	416.01
460.07	412.69
460.43	408.76
460.80	405.11
461.17	401.95
461.54	398.50
461.91	395.29
462.27	392.02
462.64	389.40
463.01	386.35
463.38	383.29
463.74	380.52
464.11	378.09
464.48	375.91
464.85	373.53
465.21	371.75
465.58	369.74
465.95	367.43
466.32	365.60
466.68	363.80
467.05	361.98
467.42	360.20
467.78	358.28
468.15	356.52
468.52	355.25
468.88	353.52
469.25	351.93
469.62	350.70
469.98	349.33
470.35	348.11
470.72	347.03
471.08	345.91
471.45	344.97
471.82	343.93
472.18	342.82
472.55	342.10
472.92	341.19
473.28	340.49
473.65	339.72
474.02	339.00
474.38	338.39
474.75	338.04
475.11	337.56
475.48	337.32
475.85	337.08
476.21	336.95
476.58	336.86
476.94	337.01
477.31	337.08
477.67	337.16
478.04	337.36
478.41	337.65
478.77	338.06
479.14	338.33
479.50	338.81
479.87	339.45
480.23	340.09
480.60	340.73
480.96	341.37
481.33	342.31
481.69	343.25
482.06	344.20
482.42	345.06
482.79	346.13
483.15	347.37
483.52	348.79
483.88	350.15
484.25	351.60
484.61	353.10
484.98	354.74
485.34	356.59
485.71	358.51
486.07	360.58
486.44	362.63
486.80	364.92
487.17	367.31
487.53	369.91
487.90	372.64
488.26	375.60
488.62	378.74
488.99	381.88
489.35	385.19
489.72	388.77
490.08	392.54
490.44	396.43
490.81	400.47
491.17	404.61
491.54	409.07
491.90	413.69
492.26	418.62
492.63	423.77
492.99	429.15
493.36	434.73
493.72	440.59
494.08	446.61
494.45	453.00
494.81	459.64
495.17	466.47
495.54	473.67
495.90	481.16
496.26	488.82
496.63	496.72
496.99	504.96
497.35	513.59
497.72	522.47
498.08	531.56
498.44	540.98
498.80	550.96
499.17	561.18
499.53	571.69
499.89	582.59
500.26	593.71
500.62	605.15
500.98	617.17
501.34	629.37
501.71	642.09
502.07	655.02
502.43	668.47
502.79	682.13
503.16	696.24
503.52	710.58
503.88	725.33
504.24	740.53
504.60	755.92
504.97	771.80
505.33	788.12
505.69	805.32
506.05	822.82
506.41	840.24
506.78	857.91
507.14	876.12
507.50	894.73
507.86	913.72
508.22	932.90
508.59	951.96
508.95	971.85
509.31	992.50
509.67	1013.75
510.03	1034.99
510.39	1056.36
510.75	1077.94
511.12	1099.78
511.48	1121.75
511.84	1143.86
512.20	1166.41
512.56	1189.72
512.92	1213.06
513.28	1236.11
513.64	1259.44
514.00	1283.20
514.37	1307.19
514.73	1331.24
515.09	1355.23
515.45	1379.58
515.81	1404.00
516.17	1428.67
516.53	1452.75
516.89	1476.77
517.25	1501.03
517.61	1525.23
517.97	1549.89
518.33	1574.03
518.69	1598.12
519.05	1622.81
519.41	1647.74
519.77	1672.72
520.13	1697.14
520.49	1721.47
520.85	1746.17
521.21	1770.27
521.57	1794.92
521.93	1819.12
522.29	1843.74
522.65	1867.93
523.01	1892.04
523.37	1915.86
523.73	1940.34
524.09	1964.63
524.45	1988.66
524.81	2012.30
525.17	2035.83
525.53	2058.75
525.89	2082.13
526.25	2105.55
526.61	2127.97
526.97	2150.56
527.33	2173.19
527.68	2195.40
528.04	2216.89
528.40	2237.41
528.76	2258.50
529.12	2278.89
529.48	2298.88
529.84	2317.23
530.20	2336.21
530.56	2354.56
530.91	2373.14
531.27	2391.31
531.63	2408.68
531.99	2425.70
532.35	2442.06
532.71	2458.39
533.07	2475.44
533.42	2490.75
533.78	2507.06
534.14	2523.49
534.50	2538.79
534.86	2554.03
535.21	2567.42
535.57	2581.29
535.93	2594.97
536.29	2607.36
536.65	2619.79
537.00	2631.62
537.36	2644.27
537.72	2655.30
538.08	2666.07
538.44	2676.15
538.79	2685.82
539.15	2694.60
539.51	2702.97
539.87	2710.60
540.22	2716.56
540.58	2722.57
540.94	2729.83
541.29	2735.23
541.65	2738.92
542.01	2742.19
542.37	2744.65
542.72	2748.43
543.08	2750.57
543.44	2753.19
543.79	2754.80
544.15	2755.52
544.51	2756.64
544.87	2756.66
545.22	2755.97
545.58	2754.54
545.94	2753.18
546.29	2750.47
546.65	2747.87
547.01	2745.23
547.36	2743.35
547.72	2741.25
548.07	2737.54
548.43	2732.23
548.79	2726.25
549.14	2721.57
549.50	2716.89
549.86	2711.38
550.21	2704.76
550.57	2699.02
550.92	2691.10
551.28	2683.86
551.64	2676.77
551.99	2669.14
552.35	2660.90
552.70	2652.99
553.06	2645.38
553.41	2637.04
553.77	2628.50
554.13	2619.76
554.48	2610.15
554.84	2599.46
555.19	2589.48
555.55	2579.33
555.90	2569.24
556.26	2559.63
556.61	2548.89
556.97	2536.63
557.32	2524.89
557.68	2512.96
558.03	2500.92
558.39	2489.97
558.74	2479.22
559.10	2466.81
559.45	2454.76
559.81	2443.32
560.16	2431.14
560.52	2419.14
560.87	2407.49
561.23	2395.02
561.58	2382.85
561.94	2370.18
562.29	2356.94
562.64	2344.35
563.00	2331.46
563.35	2319.15
563.71	2306.56
564.06	2293.77
564.42	2281.69
564.77	2268.93
565.12	2256.18
565.48	2243.34
565.83	2230.57
566.19	2217.80
566.54	2205.00
566.89	2190.97
567.25	2177.23
567.60	2164.71
567.96	2151.35
568.31	2136.67
568.66	2122.85
569.02	2109.96
569.37	2097.08
569.72	2084.72
570.08	2071.06
570.43	2057.13
570.78	2042.83
571.14	2027.92
571.49	2013.81
571.84	2000.20
572.20	1985.28
572.55	1970.76
572.90	1955.94
573.26	1941.07
573.61	1925.76
573.96	1910.87
574.31	1896.33
574.67	1881.61
575.02	1866.07
575.37	1850.57
575.72	1835.95
576.08	1821.51
576.43	1805.99
576.78	1790.90
577.13	1776.12
577.49	1761.68
577.84	1747.77
578.19	1732.92
578.54	1718.30
578.90	1703.20
579.25	1687.97
579.60	1674.37
579.95	1660.46
580.30	1646.52
580.66	1632.36
581.01	1618.07
581.36	1603.85
581.71	1590.64
582.06	1577.26
582.42	1564.07
582.77	1550.91
583.12	1537.63
583.47	1524.31
583.82	1511.09
584.17	1497.54
584.53	1483.57
584.88	1469.98
585.23	1455.93
585.58	1442.85
585.93	1429.99
586.28	1417.81
586.63	1405.66
586.98	1392.94
587.34	1380.31
587.69	1367.42
588.04	1354.88
588.39	1342.77
588.74	1330.70
589.09	1318.38
589.44	1305.71
589.79	1293.75
590.14	1281.84
590.49	1269.91
590.84	1258.07
591.19	1246.67
591.54	1235.07
591.89	1223.65
592.25	1212.35
592.60	1200.77
592.95	1189.52
593.30	1178.42
593.65	1167.01
594.00	1155.71
594.35	1145.07
594.70	1134.05
595.05	1123.92
595.40	1113.66
595.75	1103.18
596.10	1093.30
596.45	1083.05
596.80	1073.14
597.15	1063.02
597.50	1053.06
597.85	1043.44
598.19	1033.71
598.54	1024.06
598.89	1014.79
599.24	1005.87
599.59	996.82
599.94	988.71
600.29	980.32
600.64	971.65
600.99	962.62
601.34	954.00
601.69	945.03
602.04	936.72
602.39	928.24
602.74	919.74
603.08	911.28
603.43	902.79
603.78	894.49
604.13	886.38
604.48	878.20
604.83	870.21
605.18	862.14
605.53	854.21
605.87	846.06
606.22	838.33
606.57	830.48
606.92	822.48
607.27	814.42
607.62	806.78
607.96	799.52
608.31	792.72
608.66	785.71
609.01	778.97
609.36	772.33
609.70	765.40
610.05	758.53
610.40	751.89
610.75	745.26
611.10	738.95
611.44	732.50
611.79	726.17
612.14	719.75
612.49	713.45
612.83	707.44
613.18	701.56
613.53	695.53
613.88	689.60
614.22	684.13
614.57	678.51
614.92	672.70
615.27	667.06
615.61	661.44
615.96	655.89
616.31	650.35
616.65	644.88
617.00	639.69
617.35	634.55
617.70	629.50
618.04	624.43
618.39	619.34
618.74	614.50
619.08	609.67
619.43	604.97
619.78	600.31
620.12	595.58
620.47	591.07
620.82	586.63
621.16	582.17
621.51	577.56
621.85	573.08
622.20	568.79
622.55	564.50
622.89	560.28
623.24	556.05
623.59	551.89
623.93	547.89
624.28	543.95
624.62	540.12
624.97	536.32
625.32	532.54
625.66	528.66
626.01	524.76
626.35	520.95
626.70	517.19
627.04	513.57
627.39	509.94
627.73	506.45
628.08	503.06
628.43	499.68
628.77	496.41
629.12	493.22
629.46	490.00
629.81	486.72
630.15	483.48
630.50	480.34
630.84	477.23
631.19	474.18
631.53	471.26
631.88	468.28
632.22	465.33
632.57	462.67
632.91	460.05
633.26	457.51
633.60	454.97
633.95	452.52
634.29	449.97
634.64	447.50
634.98	444.80
635.32	442.29
635.67	439.96
636.01	437.55
636.36	435.19
636.70	433.02
637.05	430.81
637.39	428.62
637.73	426.46
638.08	424.42
638.42	422.32
638.77	420.10
639.11	417.85
639.45	415.68
639.80	413.45
640.14	411.33
640.49	409.19
640.83	407.04
641.17	404.96
641.52	402.94
641.86	400.94
642.20	399.16
642.55	397.21
642.89	395.29
643.23	393.46
643.58	391.79
643.92	389.97
644.26	388.24
644.61	386.56
644.95	384.82
645.29	383.03
645.64	381.27
645.98	379.59
646.32	378.04
646.66	376.46
647.01	374.91
647.35	373.40
647.69	371.88
648.04	370.50
648.38	369.03
648.72	367.58
649.06	366.14
649.41	364.71
649.75	363.32
650.09	361.94
650.43	360.59
650.78	359.17
651.12	357.79
651.46	356.46
651.80	355.16
652.14	353.90
652.49	352.68
652.83	351.45
653.17	350.25
653.51	349.09
653.85	347.99
654.20	346.82
654.54	345.59
654.88	344.45
655.22	343.33
655.56	342.19
655.90	341.12
656.25	340.09
656.59	339.03
656.93	338.04
657.27	337.07
657.61	336.03
657.95	335.03
658.29	334.05
658.64	333.11
658.98	332.17
659.32	331.24
659.66	330.36
660.00	329.50
660.34	328.63
660.68	327.71
661.02	326.76
661.36	325.86
661.70	325.00
662.05	324.14
662.39	323.29
662.73	322.54
663.07	321.78
663.41	320.98
663.75	320.17
664.09	319.38
664.43	318.53
664.77	317.78
665.11	316.99
665.45	316.27
665.79	315.54
666.13	314.75
666.47	313.97
666.81	313.18
667.15	312.36
667.49	311.65
667.83	311.02
668.17	310.35
668.51	309.73
668.85	309.13
669.19	308.55
669.53	307.89
669.87	307.19
670.21	306.53
670.55	305.90
670.89	305.35
671.23	304.76
671.57	304.19
671.91	303.65
672.25	303.13
672.58	302.59
672.92	302.00
673.26	301.51
673.60	301.01
673.94	300.52
674.28	300.07
674.62	299.56
674.96	299.01
675.30	298.52
675.64	297.98
675.97	297.45
676.31	296.89
676.65	296.38
676.99	295.94
677.33	295.41
677.67	294.92
678.01	294.37
678.34	293.89
678.68	293.43
679.02	292.91
679.36	292.40
679.70	291.89
680.04	291.42
680.37	290.94
680.71	290.48
681.05	290.04
681.39	289.54
681.73	289.04
682.06	288.54
682.40	288.08
682.74	287.67
683.08	287.29
683.42	286.86
683.75	286.45
684.09	285.97
684.43	285.55
684.77	285.12
685.10	284.75
685.44	284.34
685.78	283.94
686.12	283.55
686.45	283.15
686.79	282.74
687.13	282.34
687.46	281.91
687.80	281.51
688.14	281.07
688.48	280.68
688.81	280.28
689.15	279.93
689.49	279.52
689.82	279.10
690.16	278.63
690.50	278.24
690.83	277.83
691.17	277.43
691.51	277.05
691.84	276.68
692.18	276.26
692.52	275.83
692.85	275.42
693.19	275.06
693.52	274.67
693.86	274.28
694.20	273.91
694.53	273.55
694.87	273.15
695.21	272.76
695.54	272.38
695.88	272.00
696.21	271.59
696.55	271.23
696.88	270.86
697.22	270.49
697.56	270.13
697.89	269.71
698.23	269.35
698.56	268.95
698.90	268.59
699.23	268.21
699.57	267.84
699.90	267.47
700.24	267.09
700.58	266.76
700.91	266.45
701.25	266.21
701.58	265.92
701.92	265.63
702.25	265.30
702.59	264.96
702.92	264.62
703.26	264.29
703.59	263.93
703.93	263.70
704.26	263.39
704.60	263.05
704.93	262.73
705.26	262.40
705.60	262.13
705.93	261.77
706.27	261.50
706.60	261.24
706.94	260.98
707.27	260.64
707.61	260.32
707.94	259.97
708.27	259.54
708.61	259.18
708.94	258.85
709.28	258.55
709.61	258.25
709.94	257.98
710.28	257.72
710.61	257.47
710.95	257.09
711.28	256.88
711.61	256.62
711.95	256.38
712.28	256.10
712.61	255.81
712.95	255.62
713.28	255.41
713.61	255.11
713.95	254.81
714.28	254.57
714.61	254.30
714.95	254.06
715.28	253.82
715.61	253.58
715.95	253.35
716.28	253.12
716.61	252.92
716.95	252.67
717.28	252.42
717.61	252.18
717.94	251.95
718.28	251.63
718.61	251.40
718.94	251.15
719.27	250.94
719.61	250.74
719.94	250.49
720.27	250.19
720.60	249.99
720.94	249.78
721.27	249.57
721.60	249.39
721.93	249.17
722.27	248.99
722.60	248.80
722.93	248.58
723.26	248.37
723.59	248.14
723.93	247.96
724.26	247.78
724.59	247.57
724.92	247.40
725.25	247.26
725.59	247.08
725.92	246.92
726.25	246.74
726.58	246.56
726.91	246.37
727.24	246.21
727.57	246.03
727.91	245.84
728.24	245.70
728.57	245.52
728.90	245.36
729.23	245.16
729.56	245.05
729.89	244.88
730.22	244.71
730.55	244.55
730.89	244.39
731.22	244.22
731.55	244.06
731.88	243.90
732.21	243.72
732.54	243.56
732.87	243.41
733.20	243.27
733.53	243.12
733.86	242.98
734.19	242.82
734.52	242.70
734.85	242.63
735.18	242.46
735.51	242.35
735.84	242.21
736.17	242.11
736.50	241.91
736.83	241.92
737.16	241.79
737.49	241.67
737.82	241.53
738.15	241.41
738.48	241.28
738.81	241.15
739.14	241.01
739.47	240.87
739.80	240.73
740.13	240.61
740.46	240.47
740.79	240.32
741.12	240.20
741.45	240.05
741.78	239.85
742.11	239.76
742.44	239.61
742.77	239.50
743.10	239.36
743.43	239.24
743.75	238.99
744.08	239.06
744.41	238.93
744.74	238.81
745.07	238.67
745.40	238.58
745.73	238.52
746.06	238.42
746.39	238.33
746.71	238.22
747.04	238.10
747.37	238.00
747.70	237.93
748.03	237.84
748.36	237.76
748.68	237.66
749.01	237.53
749.34	237.44
749.67	237.35
750.00	237.26
750.33	237.26
750.65	237.18
750.98	236.90
751.31	236.81
751.64	236.74
751.97	236.72
752.29	236.62
752.62	236.47
752.95	236.37
753.28	236.26
753.60	236.17
753.93	236.11
754.26	236.04
754.59	235.90
754.91	235.80
755.24	235.70
755.57	235.67
755.90	235.58
756.22	235.48
756.55	235.38
756.88	235.27
757.20	235.10
757.53	234.99
757.86	234.90
758.19	234.84
758.51	234.74
758.84	234.61
759.17	234.52
759.49	234.45
759.82	234.44
760.15	234.38
760.47	234.31
760.80	234.20
761.13	234.15
761.45	234.09
761.78	234.03
762.11	233.97
762.43	233.84
762.76	233.78
763.08	233.73
763.41	233.68
763.74	233.63
764.06	233.56
764.39	233.51
764.71	233.45
765.04	233.38
765.37	233.31
765.69	233.26
766.02	233.21
766.34	233.15
766.67	233.04
767.00	233.01
767.32	233.02
767.65	233.05
767.97	232.98
768.30	232.94
768.62	232.89
768.95	232.82
769.27	232.77
769.60	232.73
769.92	232.66
770.25	232.60
770.57	232.53
770.90	232.48
771.22	232.42
771.55	232.38
771.87	232.34
772.20	232.29
772.52	232.35
772.85	232.46
773.17	232.42
773.50	232.36
773.82	232.30
774.15	232.19
774.47	232.07
774.80	232.01
775.12	231.97
775.45	231.93
775.77	231.90
776.09	231.87
776.42	231.83
776.74	231.84
777.07	231.80
777.39	231.77
777.72	231.73
778.04	231.71
778.36	231.67
778.69	231.64
779.01	231.62
779.33	231.48
779.66	231.30
779.98	231.27
780.31	231.25
780.63	231.26
780.95	231.26
781.28	231.23
781.60	231.20
781.92	231.17
782.25	231.14
782.57	231.12
782.89	231.08
783.22	231.04
783.54	230.98
783.86	230.96
784.19	230.93
784.51	230.95
784.83	230.91
785.16	230.87
785.48	230.85
785.80	230.82
786.12	230.81
786.45	230.78
786.77	230.77
787.09	230.73
787.42	230.66
787.74	230.64
788.06	230.62
788.38	230.59
788.71	230.56
789.03	230.54
789.35	230.53
789.67	230.50
789.99	230.49
790.32	230.45
790.64	230.44
790.96	230.53
791.28	230.47
791.61	230.44
791.93	230.43
792.25	230.40
792.57	230.47
792.89	230.42
793.21	230.41
793.54	230.38
793.86	230.35
794.18	230.34
794.50	230.29
794.82	230.27
795.14	230.27
795.47	230.27
795.79	230.26
796.11	230.21
796.43	230.18
796.75	230.16
797.07	230.16
797.39	230.13
797.71	230.02
798.04	230.01
798.36	230.00
798.68	229.98
799.00	229.98
799.32	229.90
799.64	229.91
799.96	229.89
800.28	229.90
800.60	229.88
800.92	229.87
801.24	229.85
801.56	229.84
801.89	229.82
802.21	229.81
802.53	229.77
802.85	229.78
803.17	229.83
803.49	229.79
803.81	229.75
804.13	229.73
804.45	229.70
804.77	229.70
805.09	229.68
805.41	229.65
805.73	229.62
806.05	229.57
806.37	229.54
806.69	229.51
807.01	229.49
807.33	229.48
807.65	229.43
807.97	229.47
808.28	229.45
808.60	229.43
808.92	229.40
809.24	229.46
809.56	229.43
809.88	229.38
810.20	229.38
810.52	229.40
810.84	229.38
811.16	229.35
811.48	229.33
811.80	229.37
812.12	229.36
812.43	229.37
812.75	229.37
813.07	229.35
813.39	229.35
813.71	229.33
814.03	229.31
814.35	229.31
814.67	229.25
814.98	229.23
815.30	229.22
815.62	229.20
815.94	229.11
816.26	229.12
816.58	229.09
816.89	229.09
817.21	229.05
817.53	229.06
817.85	229.05
818.17	229.04
818.48	228.98
818.80	229.01
819.12	228.98
819.44	228.95
819.76	228.93
820.07	228.92
820.39	228.91
820.71	228.91
821.03	228.90
821.34	228.88
821.66	228.89
821.98	228.90
822.30	228.89
822.61	228.96
822.93	228.93
823.25	228.92
823.57	228.90
823.88	228.91
824.20	228.90
824.52	228.91
824.83	228.90
825.15	228.88
825.47	228.86
825.79	228.86
826.10	228.86
826.42	228.85
826.74	228.85
827.05	228.85
827.37	228.85
827.69	228.83
828.00	228.84
828.32	228.83
828.64	228.80
828.95	228.86
829.27	228.81
829.58	228.80
829.90	228.82
830.22	228.82
830.53	228.79
830.85	228.77
831.17	228.73
831.48	228.73
831.80	228.73
832.11	228.71
832.43	228.69
832.75	228.68
833.06	228.74
833.38	228.70
833.69	228.70
834.01	228.69
834.32	228.68
834.64	228.67
834.96	228.66
835.27	228.65
835.59	228.60
835.90	228.59
836.22	228.57
836.53	228.54
836.85	228.52
837.16	228.64
837.48	228.63
837.79	228.68
838.11	228.68
838.42	228.67
838.74	228.69
839.05	228.67
839.37	228.66
839.68	228.58
840.00	228.58
840.31	228.58
840.63	228.57
840.94	228.56
841.26	228.54
841.57	228.53
841.88	228.54
842.20	228.52
842.51	228.49
842.83	228.48
843.14	228.59
843.46	228.58
843.77	228.51
844.08	228.50
844.40	228.46
844.71	228.44
845.03	228.43
845.34	228.41
845.65	228.41
845.97	228.41
846.28	228.42
846.60	228.42
846.91	228.39
847.22	228.38
847.54	228.40
847.85	228.41
848.16	228.40
848.48	228.37
848.79	228.42
849.10	228.44
849.42	228.44
849.73	228.32
850.04	228.33
850.36	228.28
850.67	228.30
850.98	228.30
851.30	228.30
851.61	228.30
851.92	228.29
852.23	228.33
852.55	228.33
852.86	228.32
853.17	228.33
853.49	228.35
853.80	228.38
854.11	228.38
854.42	228.39
854.74	228.38
855.05	228.38
855.36	228.32
855.67	228.32
855.99	228.32
856.30	228.46
856.61	228.46
856.92	228.46
857.23	228.46
857.55	228.44
857.86	228.43
858.17	228.45
858.48	228.44
858.79	228.40
859.11	228.41
859.42	228.41
859.73	228.39
860.04	228.38
860.35	228.34
860.66	228.31
860.98	228.30
861.29	228.31
861.60	228.30
861.91	228.34
862.22	228.31
862.53	228.30
862.84	228.15
863.16	228.17
863.47	228.15
863.78	228.13
864.09	228.14
864.40	228.15
864.71	228.15
865.02	228.16
865.33	228.14
865.64	228.11
865.95	228.11
866.27	228.18
866.58	228.16
866.89	228.18
867.20	228.18
867.51	228.16
867.82	228.15
868.13	228.18
868.44	228.16
868.75	228.17
869.06	228.18
869.37	228.19
869.68	228.16
869.99	228.18
870.30	228.19
870.61	228.20
870.92	228.17
871.23	228.16
871.54	228.17
871.85	228.21
872.16	228.22
872.47	228.21
872.78	228.15
873.09	228.16
873.40	228.14
873.71	228.15
874.02	228.16
874.33	228.15
874.64	228.12
874.95	228.14
875.26	228.11
875.56	228.10
875.87	228.10
876.18	228.09
876.49	228.20
876.80	228.19
877.11	228.16
877.42	228.17
877.73	228.18
878.04	228.15
878.35	228.14
878.66	228.15
878.96	228.14
879.27	228.14
879.58	228.13
879.89	228.12
880.20	228.15
880.51	228.15
880.82	228.15
881.12	228.16
881.43	228.13
881.74	228.12
882.05	228.12
882.36	228.12
882.67	228.13
882.97	228.00
883.28	227.99
883.59	227.99
883.90	228.00
884.21	228.01
884.51	228.01
884.82	227.99
885.13	227.98
885.44	227.98
885.74	227.99
886.05	227.98
886.36	227.98
886.67	227.94
886.98	228.00
887.28	228.01
887.59	228.01
887.90	228.02
888.20	228.01
888.51	228.04
888.82	228.02
889.13	228.02
889.43	228.13
889.74	228.13
890.05	228.13
890.35	228.12
890.66	228.10
890.97	228.09
891.28	228.09
891.58	228.09
891.89	228.08
892.20	228.07
892.50	228.06
892.81	228.05
893.12	228.05
893.42	227.98
893.73	227.98
894.04	227.98
894.34	227.98
894.65	227.98
894.95	227.96
895.26	227.97
895.57	228.02
895.87	227.90
896.18	227.92
896.48	227.92
896.79	227.92
897.10	227.94
897.40	227.94
897.71	227.95
898.01	227.95
898.32	227.96
898.63	227.96
898.93	227.97
899.24	227.97
899.54	227.96
899.85	227.95
900.15	227.95
900.46	227.95
900.76	227.96
901.07	227.96
901.38	227.95
901.68	227.96
901.99	227.90
902.29	227.91
902.60	227.89
902.90	227.89
903.21	227.88
903.51	227.87
903.82	227.89
904.12	227.90
904.43	227.90
904.73	227.90
905.03	227.91
905.34	228.02
905.64	228.02
905.95	228.02
906.25	228.03
906.56	228.02
906.86	228.03
907.17	228.01
907.47	228.01
907.77	228.00
908.08	227.97
908.38	227.99
908.69	228.00
908.99	228.02
909.30	228.03
909.60	228.03
909.90	228.03
910.21	228.00
910.51	227.97
910.81	227.97
911.12	227.97
911.42	227.97
911.73	227.84
912.03	227.85
912.33	227.87
912.64	227.86
912.94	227.85
913.24	227.82
913.55	227.81
913.85	227.81
914.15	227.83
914.46	227.85
914.76	227.84
915.06	227.83
915.37	227.81
915.67	227.80
915.97	227.80
916.27	227.77
916.58	227.78
916.88	227.78
917.18	227.77
917.49	227.86
917.79	227.85
918.09	227.87
918.39	227.89
918.70	227.89
919.00	227.89
919.30	227.96
919.60	227.95
919.91	227.94
920.21	227.94
920.51	227.92
920.81	227.91
921.12	227.92
921.42	227.92
921.72	227.93
922.02	227.93
922.32	227.95
922.63	227.96
922.93	228.03
923.23	228.03
923.53	228.02
923.83	227.93
924.13	227.95
924.44	227.94
924.74	227.96
925.04	227.98
925.34	227.97
925.64	227.92
925.94	227.92
926.24	228.00
926.55	227.99
926.85	228.01
927.15	228.01
927.45	228.01
927.75	228.00
928.05	228.00
928.35	227.98
928.65	228.00
928.95	228.00
929.26	227.94
929.56	227.97
929.86	227.98
930.16	227.97
930.46	227.97
930.76	227.97
931.06	227.91
931.36	227.88
931.66	227.90
931.96	227.92
932.26	227.92
932.56	227.87
932.86	227.87
933.16	227.87
933.46	227.86
933.76	227.84
934.06	227.86
934.36	227.90
934.66	227.90
934.96	227.88
935.26	227.89
935.56	227.90
935.86	227.87
936.16	227.85
936.46	227.84
936.76	227.83
937.06	227.82
937.36	227.83
937.66	227.83
937.96	227.82
938.26	227.79
938.56	227.79
938.86	227.80
939.16	227.82
939.46	227.83
939.76	227.85
940.06	227.85
940.35	227.82
940.65	227.76
940.95	227.77
941.25	227.74
941.55	227.73
941.85	227.72
942.15	227.75
942.45	227.78
942.75	227.78
943.04	227.79
943.34	227.81
943.64	227.80
943.94	227.78
944.24	227.78
944.54	227.79
944.84	227.78
945.13	227.76
945.43	227.74
945.73	227.73
946.03	227.72
946.33	227.70
946.62	227.70
946.92	227.70
947.22	227.71
947.52	227.72
947.82	227.73
948.11	227.72
948.41	227.70
948.71	227.66
949.01	227.67
949.31	227.67
949.60	227.65
949.90	227.67
950.20	227.67
950.50	227.66
950.79	227.66
951.09	227.68
951.39	227.68
951.69	227.67
951.98	227.69
952.28	227.70
952.58	227.70
952.87	227.70
953.17	227.71
953.47	227.69
953.76	227.69
954.06	227.67
954.36	227.65
954.66	227.65
954.95	227.68
955.25	227.69
955.55	227.69
955.84	227.67
956.14	227.67
956.44	227.69
956.73	227.67
957.03	227.67
957.32	227.67
957.62	227.67
957.92	227.69
958.21	227.67
958.51	227.81
958.81	227.83
959.10	227.84
959.40	227.87
959.69	227.88
959.99	227.89
960.29	227.89
960.58	227.89
960.88	227.94
961.17	227.93
961.47	227.94
961.76	227.92
962.06	227.95
962.36	227.93
962.65	227.93
962.95	227.94
963.24	227.94
963.54	227.94
963.83	227.95
964.13	227.94
964.42	227.93
964.72	227.83
965.01	227.83
965.31	227.82
965.60	227.79
965.90	227.87
966.19	227.84
966.49	227.85
966.78	227.84
967.08	227.83
967.37	227.84
967.67	227.81
967.96	227.83
968.26	227.83
968.55	227.85
968.85	227.84
969.14	227.84
969.43	227.83
969.73	227.82
970.02	227.82
970.32	227.81
970.61	227.79
970.91	227.75
971.20	227.74
971.49	227.73
971.79	227.74
972.08	227.65
972.38	227.66
972.67	227.66
972.96	227.67
973.26	227.64
973.55	227.67
973.85	227.66
974.14	227.65
974.43	227.66
974.73	227.64
975.02	227.62
975.31	227.63
975.61	227.63
975.90	227.62
976.19	227.61
976.49	227.62
976.78	227.63
977.07	227.62
977.37	227.63
977.66	227.64
977.95	227.62
978.24	227.63
978.54	227.65
978.83	227.64
979.12	227.64
979.42	227.65
979.71	227.62
980.00	227.63
980.29	227.63
980.59	227.61
980.88	227.64
981.17	227.64
981.46	227.64
981.76	227.64
982.05	227.69
982.34	227.69
982.63	227.69
982.93	227.69
983.22	227.73
983.51	227.73
983.80	227.75
984.09	227.77
984.39	227.77
984.68	227.75
984.97	227.76
985.26	227.75
985.55	227.76
985.85	227.73
986.14	227.76
986.43	227.77
986.72	227.77
987.01	227.73
987.30	227.73
987.59	227.73
987.89	227.73
988.18	227.69
988.47	227.68
988.76	227.67
989.05	227.66
989.34	227.63
989.63	227.67
989.92	227.65
990.22	227.63
990.51	227.62
990.80	227.61
991.09	227.63
991.38	227.64
991.67	227.63
991.96	227.62
992.25	227.62
992.54	227.60
992.83	227.60
993.12	227.60
993.41	227.62
993.70	227.67
993.99	227.69
994.28	227.71
994.58	227.73
994.87	227.72
995.16	227.72
995.45	227.71
995.74	227.66
996.03	227.68
996.32	227.70
996.61	227.73
996.90	227.73
997.19	227.72
997.48	227.73
997.77	227.71
998.06	227.72
998.34	227.71
998.63	227.71
998.92	227.72
999.21	227.74
999.50	227.73
999.79	227.69
1000.08	227.68
1000.37	227.68
1000.66	227.67
1000.95	227.70
1001.24	227.72
1001.53	227.74
1001.82	227.74
1002.11	227.72
1002.40	227.72
1002.68	227.74
1002.97	227.83
1003.26	227.81
1003.55	227.80
1003.84	227.81
1004.13	227.85
1004.42	227.84
1004.71	227.84
1004.99	227.84
1005.28	227.86
1005.57	227.85
1005.86	227.84
1006.15	227.83
1006.44	227.81
1006.72	227.82
1007.01	227.80
1007.30	227.79
1007.59	227.77
1007.88	227.78
1008.17	227.78
1008.45	227.75
1008.74	227.70
1009.03	227.64
1009.32	227.64
1009.60	227.64
1009.89	227.63
1010.18	227.57
1010.47	227.57
1010.76	227.57
1011.04	227.56
1011.33	227.56
1011.62	227.57
1011.91	227.58
1012.19	227.58
1012.48	227.59
1012.77	227.59
1013.05	227.63
1013.34	227.63
1013.63	227.62
1013.92	227.63
1014.20	227.62
1014.49	227.63
1014.78	227.64
1015.06	227.60
1015.35	227.60
1015.64	227.62
1015.92	227.64
1016.21	227.65
1016.50	227.65
1016.78	227.67
1017.07	227.68
1017.36	227.65
1017.64	227.64
1017.93	227.65
1018.22	227.64
1018.50	227.63
1018.79	227.63
1019.08	227.58
1019.36	227.59
1019.65	227.58
1019.93	227.61
1020.22	227.63
1020.51	227.70
1020.79	227.69
1021.08	227.46
1021.36	227.44
1021.65	227.61
1021.94	227.53
1022.22	227.74
1022.51	227.35
1022.79	228.22
1023.08	227.76
1023.36	229.25
1023.65	227.35
>>>>>End Processed Spectral Data<<<<<
