SpectraSuite Data File
++++++++++++++++++++++++++++++++++++
Date: Sat Oct 03 00:44:00 EDT 2015
User: lab3
Dark Spectrum Present: No
Reference Spectrum Present: No
Number of Sampled Component Spectra: 1
Spectrometers: USB2E7196
Integration Time (usec): 46000 (USB2E7196)
Spectra Averaged: 12000 (USB2E7196)
Boxcar Smoothing: 10 (USB2E7196)
Correct for Electrical Dark: No (USB2E7196)
Strobe/Lamp Enabled: No (USB2E7196)
Correct for Detector Non-linearity: No (USB2E7196)
Correct for Stray Light: No (USB2E7196)
Number of Pixels in Processed Spectrum: 2048
>>>>>Begin Processed Spectral Data<<<<<
339.09	0.00
339.48	214.63
339.86	216.13
340.24	217.46
340.63	218.89
341.01	222.14
341.39	221.59
341.78	223.00
342.16	224.22
342.54	224.64
342.93	213.04
343.31	223.80
343.69	224.34
344.07	224.80
344.46	225.24
344.84	225.63
345.22	225.85
345.60	226.10
345.99	226.30
346.37	226.43
346.75	226.54
347.13	226.61
347.52	226.68
347.90	226.77
348.28	226.81
348.66	226.87
349.05	226.87
349.43	226.92
349.81	226.98
350.19	227.03
350.57	227.10
350.96	227.18
351.34	227.27
351.72	227.36
352.10	227.47
352.48	227.54
352.87	227.59
353.25	227.66
353.63	227.72
354.01	227.78
354.39	227.86
354.77	227.94
355.15	228.04
355.54	228.09
355.92	228.11
356.30	228.19
356.68	228.33
357.06	228.41
357.44	228.45
357.82	228.51
358.20	228.63
358.58	228.69
358.97	228.75
359.35	228.84
359.73	228.92
360.11	228.97
360.49	229.03
360.87	229.07
361.25	229.13
361.63	229.22
362.01	229.27
362.39	229.30
362.77	229.35
363.15	229.37
363.53	229.41
363.91	229.44
364.29	229.46
364.67	229.37
365.05	229.39
365.43	229.42
365.81	229.45
366.19	229.47
366.57	229.53
366.95	229.52
367.33	229.49
367.71	229.49
368.09	229.51
368.47	229.50
368.85	229.50
369.23	229.51
369.61	229.45
369.99	229.47
370.37	229.46
370.75	229.54
371.13	229.50
371.51	229.46
371.89	229.44
372.27	229.42
372.65	229.39
373.03	229.35
373.41	229.31
373.78	229.26
374.16	229.16
374.54	229.07
374.92	229.03
375.30	228.99
375.68	228.92
376.06	228.88
376.44	228.82
376.82	228.78
377.19	228.73
377.57	228.68
377.95	228.59
378.33	228.53
378.71	228.37
379.09	228.32
379.47	228.29
379.84	228.23
380.22	228.16
380.60	228.09
380.98	228.05
381.36	227.99
381.73	227.93
382.11	227.91
382.49	227.87
382.87	227.81
383.25	227.76
383.62	227.87
384.00	227.80
384.38	227.76
384.76	227.74
385.13	227.74
385.51	227.70
385.89	227.64
386.27	227.61
386.64	227.60
387.02	227.55
387.40	227.51
387.78	227.48
388.15	227.46
388.53	227.43
388.91	227.40
389.29	227.37
389.66	227.36
390.04	227.32
390.42	227.32
390.79	227.30
391.17	227.28
391.55	227.13
391.92	227.11
392.30	227.12
392.68	227.08
393.05	227.06
393.43	227.06
393.81	227.07
394.18	227.05
394.56	227.05
394.94	227.08
395.31	227.08
395.69	227.13
396.06	227.15
396.44	227.18
396.82	227.19
397.19	227.28
397.57	227.29
397.95	227.34
398.32	227.33
398.70	227.38
399.07	227.45
399.45	227.49
399.82	227.54
400.20	227.57
400.58	227.63
400.95	227.65
401.33	227.73
401.70	227.88
402.08	227.98
402.45	228.06
402.83	228.18
403.20	228.29
403.58	228.38
403.95	228.52
404.33	228.67
404.71	228.81
405.08	229.02
405.46	229.18
405.83	229.37
406.21	229.56
406.58	229.78
406.96	229.99
407.33	230.23
407.70	230.51
408.08	230.89
408.45	231.21
408.83	231.57
409.20	231.90
409.58	232.18
409.95	232.59
410.33	233.03
410.70	233.43
411.08	233.92
411.45	234.43
411.82	234.94
412.20	235.54
412.57	236.25
412.95	236.79
413.32	237.51
413.69	238.25
414.07	239.04
414.44	239.89
414.82	240.76
415.19	241.79
415.56	242.82
415.94	243.89
416.31	245.09
416.68	246.30
417.06	247.69
417.43	249.00
417.81	250.50
418.18	252.03
418.55	253.70
418.93	255.44
419.30	257.26
419.67	259.18
420.04	261.16
420.42	263.21
420.79	265.61
421.16	268.01
421.54	270.46
421.91	273.01
422.28	275.66
422.66	278.52
423.03	281.25
423.40	284.10
423.77	287.17
424.15	290.30
424.52	293.57
424.89	297.11
425.26	300.62
425.64	303.89
426.01	307.57
426.38	311.33
426.75	315.20
427.13	319.17
427.50	323.33
427.87	327.65
428.24	332.02
428.61	336.20
428.99	340.74
429.36	345.71
429.73	350.46
430.10	355.22
430.47	360.09
430.85	365.10
431.22	370.48
431.59	376.02
431.96	381.42
432.33	387.42
432.70	393.13
433.08	399.87
433.45	406.24
433.82	412.52
434.19	419.54
434.56	426.45
434.93	433.13
435.30	439.73
435.68	447.20
436.05	454.51
436.42	461.79
436.79	468.44
437.16	475.61
437.53	483.28
437.90	490.98
438.27	498.49
438.64	506.61
439.01	513.96
439.38	520.68
439.75	527.16
440.13	534.46
440.50	541.39
440.87	546.89
441.24	552.90
441.61	559.47
441.98	564.24
442.35	569.90
442.72	575.67
443.09	581.17
443.46	584.62
443.83	587.13
444.20	589.20
444.57	592.33
444.94	594.06
445.31	595.86
445.68	597.36
446.05	598.42
446.42	597.94
446.79	597.27
447.16	596.66
447.53	596.08
447.90	593.61
448.27	591.23
448.64	587.71
449.01	585.22
449.37	580.39
449.74	576.02
450.11	570.41
450.48	564.30
450.85	558.19
451.22	552.96
451.59	547.86
451.96	543.24
452.33	536.58
452.70	530.67
453.07	523.47
453.43	516.30
453.80	509.34
454.17	502.68
454.54	496.56
454.91	489.66
455.28	483.21
455.65	477.12
456.02	470.71
456.38	465.54
456.75	458.89
457.12	453.54
457.49	448.15
457.86	443.07
458.23	438.65
458.59	433.73
458.96	428.70
459.33	424.28
459.70	419.77
460.07	416.36
460.43	412.34
460.80	408.59
461.17	405.34
461.54	401.80
461.91	398.51
462.27	395.16
462.64	392.47
463.01	389.34
463.38	386.20
463.74	383.36
464.11	380.87
464.48	378.63
464.85	376.19
465.21	374.36
465.58	372.30
465.95	369.91
466.32	368.04
466.68	366.19
467.05	364.32
467.42	362.51
467.78	360.54
468.15	358.73
468.52	357.42
468.88	355.64
469.25	354.02
469.62	352.74
469.98	351.33
470.35	350.07
470.72	348.95
471.08	347.79
471.45	346.83
471.82	345.75
472.18	344.59
472.55	343.86
472.92	342.92
473.28	342.18
473.65	341.39
474.02	340.64
474.38	340.00
474.75	339.63
475.11	339.11
475.48	338.87
475.85	338.60
476.21	338.46
476.58	338.36
476.94	338.49
477.31	338.55
477.67	338.63
478.04	338.83
478.41	339.11
478.77	339.52
479.14	339.77
479.50	340.26
479.87	340.91
480.23	341.55
480.60	342.19
480.96	342.83
481.33	343.80
481.69	344.76
482.06	345.72
482.42	346.59
482.79	347.67
483.15	348.93
483.52	350.36
483.88	351.73
484.25	353.21
484.61	354.73
484.98	356.39
485.34	358.25
485.71	360.20
486.07	362.28
486.44	364.36
486.80	366.68
487.17	369.10
487.53	371.74
487.90	374.50
488.26	377.51
488.62	380.69
488.99	383.86
489.35	387.21
489.72	390.83
490.08	394.65
490.44	398.60
490.81	402.70
491.17	406.91
491.54	411.44
491.90	416.10
492.26	421.10
492.63	426.32
492.99	431.77
493.36	437.42
493.72	443.37
494.08	449.45
494.45	455.92
494.81	462.64
495.17	469.54
495.54	476.82
495.90	484.40
496.26	492.17
496.63	500.17
496.99	508.48
497.35	517.19
497.72	526.18
498.08	535.37
498.44	544.88
498.80	554.95
499.17	565.28
499.53	575.92
499.89	586.93
500.26	598.17
500.62	609.72
500.98	621.87
501.34	634.22
501.71	647.08
502.07	660.14
502.43	673.72
502.79	687.52
503.16	701.77
503.52	716.23
503.88	731.10
504.24	746.43
504.60	761.97
504.97	777.98
505.33	794.43
505.69	811.77
506.05	829.44
506.41	847.05
506.78	864.84
507.14	883.16
507.50	901.92
507.86	921.03
508.22	940.36
508.59	959.54
508.95	979.53
509.31	1000.25
509.67	1021.64
510.03	1043.04
510.39	1064.53
510.75	1086.22
511.12	1108.17
511.48	1130.28
511.84	1152.47
512.20	1175.08
512.56	1198.52
512.92	1221.98
513.28	1245.08
513.64	1268.47
514.00	1292.30
514.37	1316.42
514.73	1340.56
515.09	1364.59
515.45	1388.95
515.81	1413.47
516.17	1438.18
516.53	1462.38
516.89	1486.48
517.25	1510.77
517.61	1534.98
517.97	1559.65
518.33	1583.83
518.69	1607.93
519.05	1632.52
519.41	1657.40
519.77	1682.50
520.13	1706.88
520.49	1731.18
520.85	1755.83
521.21	1780.04
521.57	1804.64
521.93	1828.77
522.29	1853.40
522.65	1877.50
523.01	1901.58
523.37	1925.29
523.73	1949.65
524.09	1973.80
524.45	1997.76
524.81	2021.30
525.17	2044.72
525.53	2067.58
525.89	2090.88
526.25	2114.18
526.61	2136.48
526.97	2158.94
527.33	2181.31
527.68	2203.42
528.04	2224.76
528.40	2245.17
528.76	2265.87
529.12	2286.08
529.48	2305.98
529.84	2324.09
530.20	2342.84
530.56	2360.98
530.91	2379.29
531.27	2397.29
531.63	2414.39
531.99	2431.04
532.35	2447.10
532.71	2463.25
533.07	2480.06
533.42	2495.07
533.78	2511.09
534.14	2527.28
534.50	2542.52
534.86	2557.52
535.21	2570.67
535.57	2584.32
535.93	2597.72
536.29	2609.97
536.65	2622.09
537.00	2633.52
537.36	2645.88
537.72	2656.78
538.08	2667.24
538.44	2677.04
538.79	2686.40
539.15	2694.97
539.51	2703.19
539.87	2710.74
540.22	2716.33
540.58	2721.95
540.94	2728.84
541.29	2734.07
541.65	2737.64
542.01	2740.40
542.37	2742.57
542.72	2746.04
543.08	2747.81
543.44	2750.20
543.79	2751.49
544.15	2751.94
544.51	2752.82
544.87	2752.55
545.22	2751.60
545.58	2749.97
545.94	2748.32
546.29	2745.39
546.65	2742.44
547.01	2739.42
547.36	2737.12
547.72	2734.93
548.07	2730.97
548.43	2725.57
548.79	2719.24
549.14	2714.19
549.50	2709.42
549.86	2703.70
550.21	2696.83
550.57	2690.92
550.92	2682.73
551.28	2675.18
551.64	2667.92
551.99	2660.13
552.35	2651.72
552.70	2643.55
553.06	2635.69
553.41	2627.21
553.77	2618.47
554.13	2609.68
554.48	2600.08
554.84	2589.24
555.19	2578.89
555.55	2568.61
555.90	2558.32
556.26	2548.58
556.61	2537.79
556.97	2525.34
557.32	2513.44
557.68	2501.44
558.03	2489.21
558.39	2478.14
558.74	2467.34
559.10	2454.78
559.45	2442.50
559.81	2430.88
560.16	2418.60
560.52	2406.55
560.87	2394.82
561.23	2382.31
561.58	2369.88
561.94	2357.10
562.29	2343.76
562.64	2331.15
563.00	2318.19
563.35	2305.71
563.71	2293.05
564.06	2280.19
564.42	2268.11
564.77	2255.37
565.12	2242.55
565.48	2229.70
565.83	2216.82
566.19	2204.04
566.54	2191.26
566.89	2177.31
567.25	2163.52
567.60	2151.07
567.96	2137.69
568.31	2122.97
568.66	2109.00
569.02	2096.21
569.37	2083.30
569.72	2070.94
570.08	2057.29
570.43	2043.35
570.78	2029.18
571.14	2014.29
571.49	2000.08
571.84	1986.41
572.20	1971.52
572.55	1956.89
572.90	1942.16
573.26	1927.42
573.61	1912.18
573.96	1897.38
574.31	1882.82
574.67	1868.30
575.02	1852.74
575.37	1837.29
575.72	1822.70
576.08	1808.42
576.43	1792.96
576.78	1777.93
577.13	1763.19
577.49	1748.77
577.84	1734.96
578.19	1720.21
578.54	1705.66
578.90	1690.64
579.25	1675.47
579.60	1661.89
579.95	1648.19
580.30	1634.33
580.66	1620.24
581.01	1606.02
581.36	1591.78
581.71	1578.58
582.06	1565.26
582.42	1552.15
582.77	1539.09
583.12	1525.95
583.47	1512.70
583.82	1499.57
584.17	1486.12
584.53	1472.32
584.88	1458.90
585.23	1445.00
585.58	1431.95
585.93	1419.11
586.28	1407.04
586.63	1394.95
586.98	1382.40
587.34	1369.89
587.69	1357.05
588.04	1344.57
588.39	1332.50
588.74	1320.57
589.09	1308.38
589.44	1295.78
589.79	1283.84
590.14	1272.01
590.49	1260.10
590.84	1248.36
591.19	1237.01
591.54	1225.45
591.89	1214.04
592.25	1202.80
592.60	1191.23
592.95	1180.07
593.30	1169.11
593.65	1157.82
594.00	1146.66
594.35	1136.07
594.70	1125.05
595.05	1114.95
595.40	1104.72
595.75	1094.33
596.10	1084.49
596.45	1074.35
596.80	1064.55
597.15	1054.50
597.50	1044.60
597.85	1035.12
598.19	1025.45
598.54	1015.84
598.89	1006.68
599.24	997.85
599.59	988.82
599.94	980.75
600.29	972.42
600.64	963.81
600.99	954.83
601.34	946.23
601.69	937.29
602.04	929.04
602.39	920.62
602.74	912.24
603.08	903.83
603.43	895.36
603.78	887.10
604.13	879.00
604.48	870.90
604.83	862.96
605.18	854.92
605.53	847.06
605.87	839.00
606.22	831.30
606.57	823.49
606.92	815.61
607.27	807.63
607.62	799.98
607.96	792.78
608.31	786.02
608.66	779.04
609.01	772.34
609.36	765.73
609.70	758.88
610.05	752.03
610.40	745.45
610.75	738.87
611.10	732.62
611.44	726.20
611.79	719.89
612.14	713.51
612.49	707.24
612.83	701.25
613.18	695.40
613.53	689.42
613.88	683.51
614.22	678.01
614.57	672.43
614.92	666.70
615.27	661.08
615.61	655.50
615.96	649.99
616.31	644.47
616.65	639.02
617.00	633.80
617.35	628.69
617.70	623.62
618.04	618.59
618.39	613.50
618.74	608.67
619.08	603.87
619.43	599.19
619.78	594.52
620.12	589.80
620.47	585.25
620.82	580.83
621.16	576.40
621.51	571.86
621.85	567.38
622.20	563.07
622.55	558.77
622.89	554.57
623.24	550.36
623.59	546.20
623.93	542.21
624.28	538.28
624.62	534.46
624.97	530.67
625.32	526.86
625.66	522.99
626.01	519.09
626.35	515.27
626.70	511.51
627.04	507.93
627.39	504.28
627.73	500.80
628.08	497.40
628.43	494.00
628.77	490.69
629.12	487.50
629.46	484.31
629.81	481.05
630.15	477.77
630.50	474.60
630.84	471.48
631.19	468.44
631.53	465.49
631.88	462.52
632.22	459.56
632.57	456.89
632.91	454.27
633.26	451.72
633.60	449.18
633.95	446.71
634.29	444.14
634.64	441.65
634.98	438.97
635.32	436.44
635.67	434.10
636.01	431.69
636.36	429.33
636.70	427.12
637.05	424.89
637.39	422.70
637.73	420.55
638.08	418.50
638.42	416.40
638.77	414.19
639.11	411.91
639.45	409.73
639.80	407.48
640.14	405.35
640.49	403.21
640.83	401.03
641.17	398.95
641.52	396.92
641.86	394.90
642.20	393.11
642.55	391.15
642.89	389.21
643.23	387.37
643.58	385.68
643.92	383.86
644.26	382.12
644.61	380.42
644.95	378.69
645.29	376.88
645.64	375.11
645.98	373.42
646.32	371.86
646.66	370.27
647.01	368.71
647.35	367.18
647.69	365.64
648.04	364.25
648.38	362.77
648.72	361.31
649.06	359.86
649.41	358.41
649.75	357.03
650.09	355.66
650.43	354.29
650.78	352.87
651.12	351.48
651.46	350.15
651.80	348.84
652.14	347.57
652.49	346.35
652.83	345.11
653.17	343.91
653.51	342.73
653.85	341.62
654.20	340.46
654.54	339.24
654.88	338.10
655.22	336.98
655.56	335.84
655.90	334.77
656.25	333.73
656.59	332.68
656.93	331.68
657.27	330.70
657.61	329.66
657.95	328.66
658.29	327.67
658.64	326.72
658.98	325.77
659.32	324.84
659.66	323.96
660.00	323.10
660.34	322.24
660.68	321.34
661.02	320.41
661.36	319.52
661.70	318.67
662.05	317.83
662.39	317.00
662.73	316.26
663.07	315.51
663.41	314.73
663.75	313.95
664.09	313.17
664.43	312.36
664.77	311.62
665.11	310.85
665.45	310.15
665.79	309.44
666.13	308.70
666.47	307.96
666.81	307.19
667.15	306.40
667.49	305.72
667.83	305.09
668.17	304.44
668.51	303.83
668.85	303.25
669.19	302.70
669.53	302.05
669.87	301.39
670.21	300.75
670.55	300.15
670.89	299.62
671.23	299.05
671.57	298.50
671.91	297.99
672.25	297.50
672.58	297.00
672.92	296.42
673.26	295.94
673.60	295.46
673.94	294.99
674.28	294.55
674.62	294.08
674.96	293.55
675.30	293.08
675.64	292.58
675.97	292.06
676.31	291.51
676.65	291.03
676.99	290.60
677.33	290.11
677.67	289.65
678.01	289.12
678.34	288.66
678.68	288.23
679.02	287.74
679.36	287.26
679.70	286.79
680.04	286.35
680.37	285.90
680.71	285.47
681.05	285.06
681.39	284.61
681.73	284.14
682.06	283.68
682.40	283.24
682.74	282.87
683.08	282.53
683.42	282.13
683.75	281.76
684.09	281.32
684.43	280.94
684.77	280.54
685.10	280.20
685.44	279.82
685.78	279.44
686.12	279.09
686.45	278.71
686.79	278.31
687.13	277.95
687.46	277.55
687.80	277.18
688.14	276.76
688.48	276.41
688.81	276.04
689.15	275.71
689.49	275.33
689.82	274.94
690.16	274.49
690.50	274.13
690.83	273.75
691.17	273.38
691.51	273.01
691.84	272.67
692.18	272.28
692.52	271.89
692.85	271.52
693.19	271.19
693.52	270.83
693.86	270.47
694.20	270.12
694.53	269.79
694.87	269.42
695.21	269.06
695.54	268.71
695.88	268.36
696.21	267.98
696.55	267.64
696.88	267.29
697.22	266.96
697.56	266.62
697.89	266.24
698.23	265.91
698.56	265.55
698.90	265.22
699.23	264.86
699.57	264.52
699.90	264.18
700.24	263.82
700.58	263.51
700.91	263.23
701.25	263.02
701.58	262.76
701.92	262.49
702.25	262.19
702.59	261.87
702.92	261.57
703.26	261.26
703.59	260.94
703.93	260.73
704.26	260.44
704.60	260.13
704.93	259.83
705.26	259.52
705.60	259.27
705.93	258.94
706.27	258.69
706.60	258.45
706.94	258.21
707.27	257.89
707.61	257.59
707.94	257.27
708.27	256.86
708.61	256.52
708.94	256.21
709.28	255.93
709.61	255.65
709.94	255.40
710.28	255.15
710.61	254.93
710.95	254.56
711.28	254.39
711.61	254.13
711.95	253.91
712.28	253.65
712.61	253.38
712.95	253.21
713.28	253.02
713.61	252.74
713.95	252.45
714.28	252.22
714.61	251.98
714.95	251.74
715.28	251.51
715.61	251.29
715.95	251.08
716.28	250.85
716.61	250.67
716.95	250.42
717.28	250.20
717.61	249.97
717.94	249.75
718.28	249.44
718.61	249.22
718.94	248.98
719.27	248.77
719.61	248.59
719.94	248.34
720.27	248.06
720.60	247.85
720.94	247.65
721.27	247.46
721.60	247.28
721.93	247.08
722.27	246.93
722.60	246.75
722.93	246.54
723.26	246.35
723.59	246.11
723.93	245.94
724.26	245.75
724.59	245.56
724.92	245.39
725.25	245.26
725.59	245.09
725.92	244.94
726.25	244.77
726.58	244.60
726.91	244.42
727.24	244.27
727.57	244.10
727.91	243.93
728.24	243.79
728.57	243.61
728.90	243.47
729.23	243.27
729.56	243.16
729.89	243.00
730.22	242.83
730.55	242.68
730.89	242.53
731.22	242.37
731.55	242.22
731.88	242.06
732.21	241.88
732.54	241.73
732.87	241.59
733.20	241.45
733.53	241.31
733.86	241.17
734.19	241.01
734.52	240.89
734.85	240.84
735.18	240.67
735.51	240.57
735.84	240.43
736.17	240.33
736.50	240.14
736.83	240.15
737.16	240.03
737.49	239.91
737.82	239.78
738.15	239.68
738.48	239.55
738.81	239.42
739.14	239.29
739.47	239.15
739.80	239.02
740.13	238.91
740.46	238.76
740.79	238.63
741.12	238.51
741.45	238.36
741.78	238.17
742.11	238.09
742.44	237.94
742.77	237.84
743.10	237.70
743.43	237.58
743.75	237.34
744.08	237.42
744.41	237.30
744.74	237.19
745.07	237.05
745.40	236.97
745.73	236.92
746.06	236.83
746.39	236.74
746.71	236.64
747.04	236.52
747.37	236.43
747.70	236.36
748.03	236.27
748.36	236.20
748.68	236.10
749.01	235.97
749.34	235.88
749.67	235.79
750.00	235.72
750.33	235.72
750.65	235.64
750.98	235.35
751.31	235.27
751.64	235.19
751.97	235.17
752.29	235.07
752.62	234.92
752.95	234.83
753.28	234.72
753.60	234.63
753.93	234.57
754.26	234.50
754.59	234.37
754.91	234.27
755.24	234.17
755.57	234.15
755.90	234.07
756.22	233.98
756.55	233.87
756.88	233.77
757.20	233.60
757.53	233.49
757.86	233.41
758.19	233.34
758.51	233.26
758.84	233.12
759.17	233.03
759.49	232.97
759.82	232.96
760.15	232.90
760.47	232.83
760.80	232.73
761.13	232.68
761.45	232.61
761.78	232.55
762.11	232.49
762.43	232.36
762.76	232.30
763.08	232.25
763.41	232.20
763.74	232.14
764.06	232.08
764.39	232.03
764.71	231.97
765.04	231.90
765.37	231.84
765.69	231.78
766.02	231.73
766.34	231.66
766.67	231.56
767.00	231.53
767.32	231.55
767.65	231.58
767.97	231.51
768.30	231.47
768.62	231.42
768.95	231.35
769.27	231.30
769.60	231.27
769.92	231.20
770.25	231.13
770.57	231.06
770.90	231.01
771.22	230.96
771.55	230.91
771.87	230.87
772.20	230.82
772.52	230.89
772.85	231.00
773.17	230.96
773.50	230.91
773.82	230.84
774.15	230.74
774.47	230.62
774.80	230.56
775.12	230.52
775.45	230.48
775.77	230.45
776.09	230.43
776.42	230.39
776.74	230.39
777.07	230.36
777.39	230.33
777.72	230.29
778.04	230.28
778.36	230.24
778.69	230.21
779.01	230.19
779.33	230.05
779.66	229.87
779.98	229.83
780.31	229.81
780.63	229.84
780.95	229.83
781.28	229.80
781.60	229.76
781.92	229.74
782.25	229.71
782.57	229.68
782.89	229.65
783.22	229.61
783.54	229.56
783.86	229.54
784.19	229.51
784.51	229.52
784.83	229.48
785.16	229.46
785.48	229.43
785.80	229.41
786.12	229.39
786.45	229.36
786.77	229.35
787.09	229.32
787.42	229.25
787.74	229.22
788.06	229.21
788.38	229.18
788.71	229.15
789.03	229.13
789.35	229.13
789.67	229.09
789.99	229.08
790.32	229.05
790.64	229.04
790.96	229.13
791.28	229.07
791.61	229.05
791.93	229.04
792.25	229.01
792.57	229.08
792.89	229.04
793.21	229.03
793.54	229.00
793.86	228.97
794.18	228.96
794.50	228.92
794.82	228.90
795.14	228.90
795.47	228.90
795.79	228.89
796.11	228.84
796.43	228.82
796.75	228.80
797.07	228.79
797.39	228.77
797.71	228.65
798.04	228.64
798.36	228.63
798.68	228.61
799.00	228.61
799.32	228.53
799.64	228.53
799.96	228.51
800.28	228.52
800.60	228.50
800.92	228.50
801.24	228.48
801.56	228.47
801.89	228.45
802.21	228.43
802.53	228.40
802.85	228.41
803.17	228.46
803.49	228.42
803.81	228.39
804.13	228.36
804.45	228.34
804.77	228.33
805.09	228.32
805.41	228.29
805.73	228.25
806.05	228.20
806.37	228.18
806.69	228.15
807.01	228.12
807.33	228.12
807.65	228.06
807.97	228.11
808.28	228.08
808.60	228.07
808.92	228.04
809.24	228.10
809.56	228.07
809.88	228.02
810.20	228.01
810.52	228.03
810.84	228.00
811.16	227.98
811.48	227.96
811.80	227.99
812.12	227.98
812.43	228.00
812.75	228.00
813.07	227.98
813.39	227.98
813.71	227.96
814.03	227.93
814.35	227.93
814.67	227.87
814.98	227.85
815.30	227.84
815.62	227.81
815.94	227.72
816.26	227.72
816.58	227.69
816.89	227.69
817.21	227.65
817.53	227.65
817.85	227.65
818.17	227.64
818.48	227.58
818.80	227.59
819.12	227.56
819.44	227.53
819.76	227.51
820.07	227.50
820.39	227.49
820.71	227.49
821.03	227.48
821.34	227.46
821.66	227.47
821.98	227.48
822.30	227.47
822.61	227.54
822.93	227.51
823.25	227.50
823.57	227.48
823.88	227.49
824.20	227.48
824.52	227.49
824.83	227.48
825.15	227.46
825.47	227.44
825.79	227.45
826.10	227.43
826.42	227.42
826.74	227.43
827.05	227.42
827.37	227.42
827.69	227.41
828.00	227.41
828.32	227.40
828.64	227.38
828.95	227.44
829.27	227.40
829.58	227.40
829.90	227.41
830.22	227.42
830.53	227.39
830.85	227.38
831.17	227.34
831.48	227.34
831.80	227.34
832.11	227.33
832.43	227.30
832.75	227.30
833.06	227.37
833.38	227.33
833.69	227.33
834.01	227.33
834.32	227.32
834.64	227.31
834.96	227.30
835.27	227.29
835.59	227.25
835.90	227.22
836.22	227.22
836.53	227.18
836.85	227.16
837.16	227.29
837.48	227.28
837.79	227.32
838.11	227.32
838.42	227.32
838.74	227.33
839.05	227.32
839.37	227.31
839.68	227.22
840.00	227.22
840.31	227.23
840.63	227.21
840.94	227.20
841.26	227.18
841.57	227.18
841.88	227.18
842.20	227.16
842.51	227.14
842.83	227.14
843.14	227.25
843.46	227.25
843.77	227.17
844.08	227.17
844.40	227.12
844.71	227.11
845.03	227.09
845.34	227.08
845.65	227.07
845.97	227.07
846.28	227.08
846.60	227.08
846.91	227.06
847.22	227.06
847.54	227.08
847.85	227.09
848.16	227.07
848.48	227.05
848.79	227.09
849.10	227.11
849.42	227.11
849.73	226.98
850.04	226.98
850.36	226.93
850.67	226.95
850.98	226.95
851.30	226.95
851.61	226.95
851.92	226.94
852.23	226.98
852.55	226.98
852.86	226.98
853.17	226.98
853.49	227.00
853.80	227.02
854.11	227.02
854.42	227.04
854.74	227.03
855.05	227.03
855.36	226.97
855.67	226.97
855.99	226.96
856.30	227.12
856.61	227.11
856.92	227.11
857.23	227.12
857.55	227.10
857.86	227.09
858.17	227.11
858.48	227.09
858.79	227.06
859.11	227.07
859.42	227.06
859.73	227.04
860.04	227.04
860.35	227.00
860.66	226.96
860.98	226.95
861.29	226.97
861.60	226.95
861.91	226.98
862.22	226.96
862.53	226.94
862.84	226.79
863.16	226.81
863.47	226.79
863.78	226.77
864.09	226.78
864.40	226.79
864.71	226.79
865.02	226.81
865.33	226.79
865.64	226.77
865.95	226.77
866.27	226.84
866.58	226.83
866.89	226.84
867.20	226.84
867.51	226.82
867.82	226.81
868.13	226.85
868.44	226.82
868.75	226.84
869.06	226.85
869.37	226.87
869.68	226.83
869.99	226.85
870.30	226.86
870.61	226.87
870.92	226.85
871.23	226.83
871.54	226.84
871.85	226.87
872.16	226.89
872.47	226.88
872.78	226.81
873.09	226.82
873.40	226.81
873.71	226.81
874.02	226.82
874.33	226.81
874.64	226.78
874.95	226.81
875.26	226.77
875.56	226.77
875.87	226.76
876.18	226.76
876.49	226.88
876.80	226.86
877.11	226.84
877.42	226.85
877.73	226.85
878.04	226.83
878.35	226.82
878.66	226.83
878.96	226.82
879.27	226.82
879.58	226.81
879.89	226.81
880.20	226.84
880.51	226.83
880.82	226.83
881.12	226.84
881.43	226.81
881.74	226.80
882.05	226.79
882.36	226.80
882.67	226.81
882.97	226.67
883.28	226.66
883.59	226.66
883.90	226.67
884.21	226.69
884.51	226.68
884.82	226.66
885.13	226.66
885.44	226.66
885.74	226.66
886.05	226.65
886.36	226.65
886.67	226.60
886.98	226.67
887.28	226.68
887.59	226.68
887.90	226.68
888.20	226.68
888.51	226.70
888.82	226.68
889.13	226.69
889.43	226.80
889.74	226.79
890.05	226.79
890.35	226.78
890.66	226.75
890.97	226.74
891.28	226.73
891.58	226.73
891.89	226.73
892.20	226.72
892.50	226.70
892.81	226.70
893.12	226.70
893.42	226.63
893.73	226.63
894.04	226.63
894.34	226.64
894.65	226.63
894.95	226.62
895.26	226.63
895.57	226.68
895.87	226.55
896.18	226.57
896.48	226.58
896.79	226.57
897.10	226.59
897.40	226.60
897.71	226.61
898.01	226.60
898.32	226.61
898.63	226.61
898.93	226.62
899.24	226.62
899.54	226.61
899.85	226.61
900.15	226.60
900.46	226.61
900.76	226.61
901.07	226.62
901.38	226.61
901.68	226.62
901.99	226.56
902.29	226.57
902.60	226.56
902.90	226.55
903.21	226.55
903.51	226.54
903.82	226.56
904.12	226.56
904.43	226.57
904.73	226.56
905.03	226.57
905.34	226.68
905.64	226.68
905.95	226.67
906.25	226.67
906.56	226.67
906.86	226.67
907.17	226.65
907.47	226.66
907.77	226.64
908.08	226.62
908.38	226.62
908.69	226.63
908.99	226.65
909.30	226.66
909.60	226.65
909.90	226.66
910.21	226.62
910.51	226.60
910.81	226.60
911.12	226.61
911.42	226.61
911.73	226.48
912.03	226.49
912.33	226.51
912.64	226.50
912.94	226.49
913.24	226.47
913.55	226.46
913.85	226.45
914.15	226.48
914.46	226.49
914.76	226.48
915.06	226.47
915.37	226.45
915.67	226.44
915.97	226.44
916.27	226.42
916.58	226.42
916.88	226.42
917.18	226.41
917.49	226.49
917.79	226.48
918.09	226.50
918.39	226.54
918.70	226.53
919.00	226.54
919.30	226.60
919.60	226.60
919.91	226.58
920.21	226.59
920.51	226.57
920.81	226.56
921.12	226.58
921.42	226.57
921.72	226.58
922.02	226.59
922.32	226.60
922.63	226.61
922.93	226.68
923.23	226.69
923.53	226.68
923.83	226.60
924.13	226.61
924.44	226.61
924.74	226.62
925.04	226.65
925.34	226.64
925.64	226.59
925.94	226.59
926.24	226.66
926.55	226.65
926.85	226.66
927.15	226.66
927.45	226.66
927.75	226.66
928.05	226.66
928.35	226.65
928.65	226.67
928.95	226.68
929.26	226.62
929.56	226.64
929.86	226.66
930.16	226.65
930.46	226.64
930.76	226.64
931.06	226.59
931.36	226.55
931.66	226.57
931.96	226.59
932.26	226.59
932.56	226.54
932.86	226.55
933.16	226.55
933.46	226.54
933.76	226.52
934.06	226.55
934.36	226.59
934.66	226.58
934.96	226.56
935.26	226.56
935.56	226.58
935.86	226.55
936.16	226.53
936.46	226.53
936.76	226.52
937.06	226.50
937.36	226.51
937.66	226.52
937.96	226.51
938.26	226.48
938.56	226.47
938.86	226.48
939.16	226.50
939.46	226.51
939.76	226.52
940.06	226.52
940.35	226.50
940.65	226.44
940.95	226.45
941.25	226.42
941.55	226.40
941.85	226.39
942.15	226.42
942.45	226.45
942.75	226.44
943.04	226.45
943.34	226.47
943.64	226.46
943.94	226.44
944.24	226.44
944.54	226.45
944.84	226.45
945.13	226.43
945.43	226.40
945.73	226.40
946.03	226.38
946.33	226.37
946.62	226.36
946.92	226.36
947.22	226.36
947.52	226.38
947.82	226.39
948.11	226.38
948.41	226.35
948.71	226.31
949.01	226.32
949.31	226.32
949.60	226.30
949.90	226.32
950.20	226.31
950.50	226.31
950.79	226.30
951.09	226.32
951.39	226.31
951.69	226.30
951.98	226.32
952.28	226.33
952.58	226.32
952.87	226.33
953.17	226.35
953.47	226.33
953.76	226.32
954.06	226.30
954.36	226.29
954.66	226.29
954.95	226.32
955.25	226.33
955.55	226.34
955.84	226.32
956.14	226.33
956.44	226.34
956.73	226.33
957.03	226.33
957.32	226.33
957.62	226.33
957.92	226.35
958.21	226.34
958.51	226.48
958.81	226.49
959.10	226.51
959.40	226.53
959.69	226.54
959.99	226.56
960.29	226.56
960.58	226.55
960.88	226.60
961.17	226.58
961.47	226.59
961.76	226.57
962.06	226.60
962.36	226.58
962.65	226.59
962.95	226.60
963.24	226.59
963.54	226.59
963.83	226.60
964.13	226.59
964.42	226.58
964.72	226.47
965.01	226.47
965.31	226.46
965.60	226.43
965.90	226.51
966.19	226.48
966.49	226.49
966.78	226.49
967.08	226.48
967.37	226.48
967.67	226.46
967.96	226.48
968.26	226.47
968.55	226.49
968.85	226.48
969.14	226.48
969.43	226.48
969.73	226.47
970.02	226.46
970.32	226.45
970.61	226.43
970.91	226.40
971.20	226.38
971.49	226.37
971.79	226.39
972.08	226.29
972.38	226.31
972.67	226.30
972.96	226.32
973.26	226.30
973.55	226.33
973.85	226.33
974.14	226.31
974.43	226.32
974.73	226.30
975.02	226.29
975.31	226.29
975.61	226.29
975.90	226.28
976.19	226.27
976.49	226.28
976.78	226.29
977.07	226.30
977.37	226.31
977.66	226.32
977.95	226.30
978.24	226.32
978.54	226.34
978.83	226.33
979.12	226.32
979.42	226.32
979.71	226.29
980.00	226.29
980.29	226.30
980.59	226.27
980.88	226.30
981.17	226.30
981.46	226.30
981.76	226.30
982.05	226.35
982.34	226.35
982.63	226.35
982.93	226.35
983.22	226.38
983.51	226.39
983.80	226.41
984.09	226.42
984.39	226.41
984.68	226.39
984.97	226.40
985.26	226.39
985.55	226.40
985.85	226.37
986.14	226.39
986.43	226.41
986.72	226.40
987.01	226.37
987.30	226.37
987.59	226.36
987.89	226.36
988.18	226.32
988.47	226.31
988.76	226.30
989.05	226.29
989.34	226.27
989.63	226.30
989.92	226.28
990.22	226.26
990.51	226.26
990.80	226.25
991.09	226.26
991.38	226.27
991.67	226.26
991.96	226.25
992.25	226.25
992.54	226.23
992.83	226.23
993.12	226.23
993.41	226.25
993.70	226.30
993.99	226.32
994.28	226.34
994.58	226.36
994.87	226.35
995.16	226.35
995.45	226.34
995.74	226.29
996.03	226.31
996.32	226.33
996.61	226.35
996.90	226.35
997.19	226.34
997.48	226.34
997.77	226.33
998.06	226.34
998.34	226.33
998.63	226.33
998.92	226.33
999.21	226.35
999.50	226.35
999.79	226.30
1000.08	226.30
1000.37	226.29
1000.66	226.27
1000.95	226.31
1001.24	226.32
1001.53	226.33
1001.82	226.33
1002.11	226.30
1002.40	226.31
1002.68	226.34
1002.97	226.43
1003.26	226.41
1003.55	226.39
1003.84	226.41
1004.13	226.45
1004.42	226.44
1004.71	226.44
1004.99	226.43
1005.28	226.46
1005.57	226.45
1005.86	226.44
1006.15	226.43
1006.44	226.41
1006.72	226.43
1007.01	226.41
1007.30	226.41
1007.59	226.39
1007.88	226.39
1008.17	226.40
1008.45	226.38
1008.74	226.33
1009.03	226.27
1009.32	226.27
1009.60	226.27
1009.89	226.26
1010.18	226.21
1010.47	226.20
1010.76	226.20
1011.04	226.20
1011.33	226.19
1011.62	226.20
1011.91	226.21
1012.19	226.22
1012.48	226.23
1012.77	226.22
1013.05	226.26
1013.34	226.26
1013.63	226.26
1013.92	226.27
1014.20	226.26
1014.49	226.26
1014.78	226.27
1015.06	226.23
1015.35	226.24
1015.64	226.25
1015.92	226.27
1016.21	226.28
1016.50	226.28
1016.78	226.30
1017.07	226.31
1017.36	226.29
1017.64	226.27
1017.93	226.27
1018.22	226.26
1018.50	226.26
1018.79	226.26
1019.08	226.21
1019.36	226.22
1019.65	226.21
1019.93	226.24
1020.22	226.26
1020.51	226.33
1020.79	226.31
1021.08	226.10
1021.36	226.11
1021.65	226.23
1021.94	226.23
1022.22	226.33
1022.51	225.98
1022.79	226.89
1023.08	226.47
1023.36	227.80
1023.65	225.94
>>>>>End Processed Spectral Data<<<<<
