SpectraSuite Data File
++++++++++++++++++++++++++++++++++++
Date: Sun Oct 04 12:03:42 EDT 2015
User: lab3
Dark Spectrum Present: No
Reference Spectrum Present: No
Number of Sampled Component Spectra: 1
Spectrometers: USB2E7196
Integration Time (usec): 46000 (USB2E7196)
Spectra Averaged: 24000 (USB2E7196)
Boxcar Smoothing: 10 (USB2E7196)
Correct for Electrical Dark: No (USB2E7196)
Strobe/Lamp Enabled: No (USB2E7196)
Correct for Detector Non-linearity: No (USB2E7196)
Correct for Stray Light: No (USB2E7196)
Number of Pixels in Processed Spectrum: 2048
>>>>>Begin Processed Spectral Data<<<<<
339.09	0.00
339.48	213.72
339.86	215.18
340.24	216.54
340.63	217.98
341.01	221.25
341.39	220.67
341.78	222.08
342.16	223.30
342.54	223.70
342.93	212.17
343.31	222.89
343.69	223.42
344.07	223.88
344.46	224.32
344.84	224.71
345.22	224.94
345.60	225.20
345.99	225.39
346.37	225.53
346.75	225.64
347.13	225.72
347.52	225.80
347.90	225.90
348.28	225.94
348.66	226.00
349.05	226.00
349.43	226.06
349.81	226.12
350.19	226.18
350.57	226.25
350.96	226.34
351.34	226.43
351.72	226.53
352.10	226.64
352.48	226.71
352.87	226.77
353.25	226.83
353.63	226.89
354.01	226.96
354.39	227.03
354.77	227.11
355.15	227.22
355.54	227.27
355.92	227.29
356.30	227.37
356.68	227.52
357.06	227.60
357.44	227.64
357.82	227.70
358.20	227.82
358.58	227.87
358.97	227.94
359.35	228.02
359.73	228.10
360.11	228.15
360.49	228.22
360.87	228.27
361.25	228.33
361.63	228.41
362.01	228.47
362.39	228.50
362.77	228.55
363.15	228.57
363.53	228.60
363.91	228.64
364.29	228.66
364.67	228.56
365.05	228.59
365.43	228.62
365.81	228.65
366.19	228.67
366.57	228.72
366.95	228.72
367.33	228.70
367.71	228.69
368.09	228.71
368.47	228.70
368.85	228.69
369.23	228.71
369.61	228.65
369.99	228.67
370.37	228.67
370.75	228.74
371.13	228.71
371.51	228.67
371.89	228.65
372.27	228.63
372.65	228.61
373.03	228.56
373.41	228.52
373.78	228.47
374.16	228.37
374.54	228.28
374.92	228.23
375.30	228.19
375.68	228.12
376.06	228.08
376.44	228.02
376.82	227.98
377.19	227.93
377.57	227.89
377.95	227.80
378.33	227.74
378.71	227.57
379.09	227.53
379.47	227.50
379.84	227.44
380.22	227.37
380.60	227.30
380.98	227.26
381.36	227.21
381.73	227.14
382.11	227.12
382.49	227.08
382.87	227.02
383.25	226.98
383.62	227.08
384.00	227.02
384.38	226.98
384.76	226.96
385.13	226.96
385.51	226.92
385.89	226.87
386.27	226.83
386.64	226.82
387.02	226.77
387.40	226.73
387.78	226.71
388.15	226.69
388.53	226.66
388.91	226.63
389.29	226.59
389.66	226.59
390.04	226.55
390.42	226.55
390.79	226.54
391.17	226.53
391.55	226.37
391.92	226.36
392.30	226.37
392.68	226.33
393.05	226.31
393.43	226.31
393.81	226.33
394.18	226.31
394.56	226.31
394.94	226.35
395.31	226.35
395.69	226.39
396.06	226.42
396.44	226.45
396.82	226.47
397.19	226.56
397.57	226.58
397.95	226.63
398.32	226.62
398.70	226.68
399.07	226.75
399.45	226.79
399.82	226.85
400.20	226.89
400.58	226.96
400.95	226.98
401.33	227.07
401.70	227.24
402.08	227.35
402.45	227.45
402.83	227.58
403.20	227.71
403.58	227.81
403.95	227.97
404.33	228.13
404.71	228.30
405.08	228.52
405.46	228.71
405.83	228.92
406.21	229.14
406.58	229.38
406.96	229.63
407.33	229.91
407.70	230.22
408.08	230.64
408.45	231.02
408.83	231.43
409.20	231.80
409.58	232.14
409.95	232.59
410.33	233.09
410.70	233.56
411.08	234.11
411.45	234.69
411.82	235.28
412.20	235.96
412.57	236.76
412.95	237.40
413.32	238.22
413.69	239.07
414.07	239.97
414.44	240.95
414.82	241.94
415.19	243.11
415.56	244.29
415.94	245.52
416.31	246.90
416.68	248.27
417.06	249.87
417.43	251.36
417.81	253.08
418.18	254.84
418.55	256.76
418.93	258.75
419.30	260.83
419.67	263.04
420.04	265.31
420.42	267.68
420.79	270.40
421.16	273.16
421.54	275.96
421.91	278.89
422.28	281.93
422.66	285.21
423.03	288.34
423.40	291.63
423.77	295.15
424.15	298.76
424.52	302.52
424.89	306.59
425.26	310.64
425.64	314.40
426.01	318.63
426.38	322.95
426.75	327.40
427.13	331.97
427.50	336.75
427.87	341.72
428.24	346.75
428.61	351.58
428.99	356.80
429.36	362.54
429.73	368.01
430.10	373.49
430.47	379.08
430.85	384.84
431.22	391.01
431.59	397.35
431.96	403.54
432.33	410.42
432.70	416.96
433.08	424.67
433.45	431.99
433.82	439.19
434.19	447.22
434.56	455.14
434.93	462.80
435.30	470.37
435.68	478.92
436.05	487.30
436.42	495.66
436.79	503.27
437.16	511.50
437.53	520.32
437.90	529.14
438.27	537.77
438.64	547.12
439.01	555.56
439.38	563.31
439.75	570.75
440.13	579.16
440.50	587.15
440.87	593.49
441.24	600.43
441.61	607.99
441.98	613.49
442.35	620.03
442.72	626.71
443.09	633.07
443.46	637.08
443.83	640.00
444.20	642.42
444.57	646.09
444.94	648.11
445.31	650.23
445.68	651.98
446.05	653.28
446.42	652.80
446.79	652.10
447.16	651.47
447.53	650.88
447.90	648.12
448.27	645.47
448.64	641.47
449.01	638.67
449.37	633.18
449.74	628.24
450.11	621.83
450.48	614.84
450.85	607.87
451.22	601.93
451.59	596.13
451.96	590.87
452.33	583.24
452.70	576.49
453.07	568.24
453.43	560.05
453.80	552.08
454.17	544.44
454.54	537.44
454.91	529.51
455.28	522.10
455.65	515.10
456.02	507.69
456.38	501.76
456.75	494.11
457.12	487.97
457.49	481.76
457.86	475.94
458.23	470.83
458.59	465.15
458.96	459.32
459.33	454.20
459.70	448.97
460.07	445.01
460.43	440.35
460.80	436.00
461.17	432.23
461.54	428.10
461.91	424.25
462.27	420.33
462.64	417.18
463.01	413.54
463.38	409.88
463.74	406.60
464.11	403.68
464.48	401.07
464.85	398.20
465.21	396.04
465.58	393.61
465.95	390.83
466.32	388.62
466.68	386.46
467.05	384.28
467.42	382.15
467.78	379.83
468.15	377.70
468.52	376.15
468.88	374.05
469.25	372.13
469.62	370.61
469.98	368.94
470.35	367.44
470.72	366.09
471.08	364.71
471.45	363.55
471.82	362.25
472.18	360.87
472.55	359.97
472.92	358.84
473.28	357.95
473.65	357.00
474.02	356.08
474.38	355.30
474.75	354.82
475.11	354.16
475.48	353.83
475.85	353.47
476.21	353.25
476.58	353.08
476.94	353.18
477.31	353.19
477.67	353.24
478.04	353.41
478.41	353.68
478.77	354.08
479.14	354.31
479.50	354.83
479.87	355.52
480.23	356.21
480.60	356.88
480.96	357.57
481.33	358.61
481.69	359.64
482.06	360.67
482.42	361.59
482.79	362.77
483.15	364.14
483.52	365.71
483.88	367.20
484.25	368.82
484.61	370.49
484.98	372.29
485.34	374.33
485.71	376.47
486.07	378.76
486.44	381.05
486.80	383.60
487.17	386.25
487.53	389.15
487.90	392.17
488.26	395.48
488.62	398.97
488.99	402.46
489.35	406.14
489.72	410.14
490.08	414.36
490.44	418.71
490.81	423.23
491.17	427.85
491.54	432.81
491.90	437.92
492.26	443.40
492.63	449.14
492.99	455.12
493.36	461.33
493.72	467.84
494.08	474.52
494.45	481.62
494.81	488.99
495.17	496.56
495.54	504.57
495.90	512.88
496.26	521.38
496.63	530.13
496.99	539.22
497.35	548.71
497.72	558.52
498.08	568.53
498.44	578.89
498.80	589.88
499.17	601.15
499.53	612.77
499.89	624.76
500.26	637.00
500.62	649.55
500.98	662.77
501.34	676.19
501.71	690.14
502.07	704.28
502.43	718.98
502.79	733.92
503.16	749.34
503.52	764.95
503.88	781.03
504.24	797.60
504.60	814.36
504.97	831.65
505.33	849.37
505.69	868.04
506.05	887.09
506.41	906.08
506.78	925.24
507.14	944.90
507.50	965.02
507.86	985.50
508.22	1006.23
508.59	1026.73
508.95	1048.08
509.31	1070.22
509.67	1093.13
510.03	1116.05
510.39	1138.96
510.75	1162.00
511.12	1185.34
511.48	1208.83
511.84	1232.31
512.20	1256.26
512.56	1281.15
512.92	1306.05
513.28	1330.46
513.64	1355.10
514.00	1380.24
514.37	1405.72
514.73	1431.15
515.09	1456.41
515.45	1481.99
515.81	1507.75
516.17	1533.60
516.53	1558.96
516.89	1584.14
517.25	1609.50
517.61	1634.68
517.97	1660.33
518.33	1685.51
518.69	1710.61
519.05	1736.17
519.41	1761.99
519.77	1788.05
520.13	1813.23
520.49	1838.33
520.85	1863.81
521.21	1888.92
521.57	1914.34
521.93	1939.16
522.29	1964.54
522.65	1989.30
523.01	2014.05
523.37	2038.34
523.73	2063.41
524.09	2088.07
524.45	2112.51
524.81	2136.54
525.17	2160.41
525.53	2183.64
525.89	2207.34
526.25	2231.11
526.61	2253.86
526.97	2276.74
527.33	2299.50
527.68	2321.99
528.04	2343.56
528.40	2364.20
528.76	2384.90
529.12	2405.09
529.48	2425.06
529.84	2443.04
530.20	2461.76
530.56	2479.76
530.91	2497.91
531.27	2515.73
531.63	2532.64
531.99	2549.05
532.35	2564.66
532.71	2580.51
533.07	2597.06
533.42	2611.63
533.78	2627.18
534.14	2643.00
534.50	2657.83
534.86	2672.35
535.21	2684.78
535.57	2697.89
535.93	2710.76
536.29	2722.50
536.65	2734.00
537.00	2744.65
537.36	2756.38
537.72	2766.70
538.08	2776.46
538.44	2785.46
538.79	2793.94
539.15	2801.73
539.51	2809.18
539.87	2816.00
540.22	2820.65
540.58	2825.41
540.94	2831.43
541.29	2835.83
541.65	2838.33
542.01	2840.02
542.37	2841.07
542.72	2843.65
543.08	2844.31
543.44	2845.57
543.79	2845.79
544.15	2845.16
544.51	2844.97
544.87	2843.58
545.22	2841.36
545.58	2838.45
545.94	2835.58
546.29	2831.44
546.65	2827.25
547.01	2822.95
547.36	2819.48
547.72	2816.24
548.07	2811.10
548.43	2804.51
548.79	2796.82
549.14	2790.52
549.50	2784.59
549.86	2777.63
550.21	2769.48
550.57	2762.35
550.92	2752.81
551.28	2743.82
551.64	2735.32
551.99	2726.42
552.35	2716.83
552.70	2707.55
553.06	2698.64
553.41	2689.10
553.77	2679.34
554.13	2669.52
554.48	2658.81
554.84	2646.75
555.19	2635.09
555.55	2623.61
555.90	2612.21
556.26	2601.45
556.61	2589.52
556.97	2575.88
557.32	2562.69
557.68	2549.53
558.03	2536.10
558.39	2524.06
558.74	2512.32
559.10	2498.73
559.45	2485.26
559.81	2472.50
560.16	2459.12
560.52	2446.09
560.87	2433.44
561.23	2420.00
561.58	2406.55
561.94	2392.85
562.29	2378.52
562.64	2365.01
563.00	2351.18
563.35	2337.72
563.71	2324.10
564.06	2310.37
564.42	2297.51
564.77	2284.17
565.12	2270.68
565.48	2257.14
565.83	2243.49
566.19	2230.01
566.54	2216.43
566.89	2201.73
567.25	2187.28
567.60	2174.24
567.96	2160.18
568.31	2144.72
568.66	2129.95
569.02	2116.45
569.37	2102.91
569.72	2089.96
570.08	2075.71
570.43	2061.05
570.78	2046.28
571.14	2030.75
571.49	2015.91
571.84	2001.61
572.20	1986.05
572.55	1970.72
572.90	1955.38
573.26	1940.13
573.61	1924.33
573.96	1909.04
574.31	1894.03
574.67	1879.03
575.02	1862.89
575.37	1846.91
575.72	1831.84
576.08	1817.08
576.43	1801.23
576.78	1785.78
577.13	1770.58
577.49	1755.76
577.84	1741.60
578.19	1726.49
578.54	1711.54
578.90	1696.07
579.25	1680.50
579.60	1666.57
579.95	1652.55
580.30	1638.31
580.66	1623.77
581.01	1609.21
581.36	1594.64
581.71	1581.05
582.06	1567.37
582.42	1553.91
582.77	1540.53
583.12	1527.13
583.47	1513.61
583.82	1500.20
584.17	1486.46
584.53	1472.42
584.88	1458.74
585.23	1444.67
585.58	1431.37
585.93	1418.27
586.28	1405.95
586.63	1393.57
586.98	1380.74
587.34	1367.98
587.69	1354.98
588.04	1342.30
588.39	1329.97
588.74	1317.80
589.09	1305.41
589.44	1292.63
589.79	1280.51
590.14	1268.47
590.49	1256.33
590.84	1244.33
591.19	1232.73
591.54	1220.92
591.89	1209.25
592.25	1197.81
592.60	1185.97
592.95	1174.58
593.30	1163.47
593.65	1152.03
594.00	1140.75
594.35	1130.04
594.70	1118.89
595.05	1108.60
595.40	1098.21
595.75	1087.64
596.10	1077.62
596.45	1067.37
596.80	1057.45
597.15	1047.24
597.50	1037.21
597.85	1027.59
598.19	1017.83
598.54	1008.12
598.89	998.90
599.24	989.98
599.59	980.83
599.94	972.60
600.29	964.19
600.64	955.49
600.99	946.44
601.34	937.74
601.69	928.69
602.04	920.36
602.39	911.84
602.74	903.38
603.08	894.89
603.43	886.37
603.78	878.02
604.13	869.80
604.48	861.61
604.83	853.60
605.18	845.53
605.53	837.65
605.87	829.60
606.22	821.80
606.57	813.95
606.92	806.06
607.27	798.10
607.62	790.42
607.96	783.15
608.31	776.32
608.66	769.27
609.01	762.52
609.36	755.85
609.70	749.02
610.05	742.16
610.40	735.57
610.75	728.95
611.10	722.69
611.44	716.27
611.79	709.96
612.14	703.57
612.49	697.26
612.83	691.23
613.18	685.34
613.53	679.38
613.88	673.43
614.22	667.87
614.57	662.27
614.92	656.52
615.27	650.87
615.61	645.29
615.96	639.78
616.31	634.26
616.65	628.78
617.00	623.51
617.35	618.35
617.70	613.22
618.04	608.18
618.39	603.04
618.74	598.13
619.08	593.27
619.43	588.55
619.78	583.82
620.12	579.06
620.47	574.45
620.82	569.95
621.16	565.51
621.51	560.98
621.85	556.48
622.20	552.14
622.55	547.85
622.89	543.63
623.24	539.42
623.59	535.23
623.93	531.22
624.28	527.30
624.62	523.46
624.97	519.68
625.32	515.84
625.66	511.98
626.01	508.10
626.35	504.28
626.70	500.50
627.04	496.92
627.39	493.25
627.73	489.76
628.08	486.35
628.43	482.93
628.77	479.58
629.12	476.36
629.46	473.17
629.81	469.88
630.15	466.58
630.50	463.39
630.84	460.26
631.19	457.19
631.53	454.21
631.88	451.19
632.22	448.20
632.57	445.49
632.91	442.80
633.26	440.20
633.60	437.62
633.95	435.09
634.29	432.47
634.64	429.94
634.98	427.22
635.32	424.64
635.67	422.24
636.01	419.79
636.36	417.37
636.70	415.07
637.05	412.79
637.39	410.55
637.73	408.33
638.08	406.22
638.42	404.09
638.77	401.83
639.11	399.52
639.45	397.29
639.80	395.01
640.14	392.84
640.49	390.65
640.83	388.44
641.17	386.34
641.52	384.28
641.86	382.24
642.20	380.41
642.55	378.43
642.89	376.47
643.23	374.60
643.58	372.89
643.92	371.06
644.26	369.29
644.61	367.56
644.95	365.81
645.29	363.98
645.64	362.18
645.98	360.48
646.32	358.89
646.66	357.29
647.01	355.72
647.35	354.18
647.69	352.63
648.04	351.21
648.38	349.71
648.72	348.22
649.06	346.76
649.41	345.29
649.75	343.87
650.09	342.49
650.43	341.10
650.78	339.67
651.12	338.29
651.46	336.96
651.80	335.65
652.14	334.36
652.49	333.14
652.83	331.87
653.17	330.66
653.51	329.48
653.85	328.35
654.20	327.18
654.54	325.94
654.88	324.79
655.22	323.67
655.56	322.55
655.90	321.49
656.25	320.46
656.59	319.41
656.93	318.43
657.27	317.46
657.61	316.44
657.95	315.46
658.29	314.48
658.64	313.55
658.98	312.61
659.32	311.71
659.66	310.85
660.00	310.02
660.34	309.18
660.68	308.32
661.02	307.43
661.36	306.58
661.70	305.78
662.05	304.99
662.39	304.21
662.73	303.50
663.07	302.80
663.41	302.05
663.75	301.31
664.09	300.57
664.43	299.79
664.77	299.10
665.11	298.36
665.45	297.69
665.79	297.03
666.13	296.34
666.47	295.63
666.81	294.92
667.15	294.18
667.49	293.54
667.83	292.95
668.17	292.34
668.51	291.76
668.85	291.22
669.19	290.72
669.53	290.10
669.87	289.49
670.21	288.89
670.55	288.35
670.89	287.88
671.23	287.35
671.57	286.85
671.91	286.39
672.25	285.95
672.58	285.52
672.92	285.00
673.26	284.57
673.60	284.14
673.94	283.72
674.28	283.34
674.62	282.92
674.96	282.45
675.30	282.05
675.64	281.61
675.97	281.16
676.31	280.68
676.65	280.25
676.99	279.90
677.33	279.46
677.67	279.06
678.01	278.59
678.34	278.20
678.68	277.83
679.02	277.39
679.36	276.98
679.70	276.56
680.04	276.18
680.37	275.81
680.71	275.44
681.05	275.09
681.39	274.71
681.73	274.30
682.06	273.92
682.40	273.55
682.74	273.24
683.08	272.96
683.42	272.62
683.75	272.32
684.09	271.94
684.43	271.62
684.77	271.29
685.10	271.01
685.44	270.70
685.78	270.38
686.12	270.10
686.45	269.78
686.79	269.45
687.13	269.16
687.46	268.84
687.80	268.54
688.14	268.19
688.48	267.90
688.81	267.60
689.15	267.34
689.49	267.02
689.82	266.71
690.16	266.33
690.50	266.04
690.83	265.74
691.17	265.44
691.51	265.14
691.84	264.86
692.18	264.55
692.52	264.24
692.85	263.94
693.19	263.69
693.52	263.40
693.86	263.11
694.20	262.83
694.53	262.56
694.87	262.26
695.21	261.98
695.54	261.70
695.88	261.40
696.21	261.09
696.55	260.82
696.88	260.55
697.22	260.28
697.56	260.01
697.89	259.70
698.23	259.44
698.56	259.14
698.90	258.88
699.23	258.59
699.57	258.32
699.90	258.04
700.24	257.74
700.58	257.49
700.91	257.27
701.25	257.12
701.58	256.92
701.92	256.71
702.25	256.47
702.59	256.22
702.92	255.98
703.26	255.73
703.59	255.47
703.93	255.32
704.26	255.09
704.60	254.84
704.93	254.59
705.26	254.33
705.60	254.13
705.93	253.86
706.27	253.66
706.60	253.47
706.94	253.28
707.27	253.02
707.61	252.77
707.94	252.51
708.27	252.15
708.61	251.85
708.94	251.59
709.28	251.35
709.61	251.12
709.94	250.91
710.28	250.70
710.61	250.51
710.95	250.19
711.28	250.05
711.61	249.84
711.95	249.66
712.28	249.45
712.61	249.21
712.95	249.08
713.28	248.93
713.61	248.69
713.95	248.44
714.28	248.26
714.61	248.05
714.95	247.85
715.28	247.66
715.61	247.47
715.95	247.30
716.28	247.11
716.61	246.95
716.95	246.75
717.28	246.56
717.61	246.36
717.94	246.18
718.28	245.91
718.61	245.72
718.94	245.51
719.27	245.33
719.61	245.17
719.94	244.96
720.27	244.70
720.60	244.52
720.94	244.35
721.27	244.18
721.60	244.03
721.93	243.85
722.27	243.72
722.60	243.57
722.93	243.39
723.26	243.23
723.59	243.03
723.93	242.87
724.26	242.71
724.59	242.55
724.92	242.40
725.25	242.29
725.59	242.14
725.92	242.01
726.25	241.86
726.58	241.71
726.91	241.55
727.24	241.43
727.57	241.28
727.91	241.12
728.24	241.00
728.57	240.85
728.90	240.73
729.23	240.54
729.56	240.45
729.89	240.31
730.22	240.16
730.55	240.03
730.89	239.89
731.22	239.75
731.55	239.62
731.88	239.48
732.21	239.32
732.54	239.18
732.87	239.05
733.20	238.93
733.53	238.81
733.86	238.70
734.19	238.55
734.52	238.45
734.85	238.42
735.18	238.27
735.51	238.18
735.84	238.07
736.17	237.99
736.50	237.81
736.83	237.85
737.16	237.74
737.49	237.64
737.82	237.53
738.15	237.44
738.48	237.33
738.81	237.22
739.14	237.10
739.47	236.99
739.80	236.87
740.13	236.77
740.46	236.65
740.79	236.52
741.12	236.42
741.45	236.29
741.78	236.11
742.11	236.05
742.44	235.91
742.77	235.83
743.10	235.70
743.43	235.60
743.75	235.36
744.08	235.46
744.41	235.36
744.74	235.26
745.07	235.13
745.40	235.06
745.73	235.02
746.06	234.94
746.39	234.87
746.71	234.78
747.04	234.67
747.37	234.59
747.70	234.53
748.03	234.46
748.36	234.39
748.68	234.31
749.01	234.19
749.34	234.11
749.67	234.03
750.00	233.97
750.33	233.98
750.65	233.91
750.98	233.64
751.31	233.57
751.64	233.50
751.97	233.49
752.29	233.40
752.62	233.27
752.95	233.18
753.28	233.08
753.60	233.00
753.93	232.96
754.26	232.89
754.59	232.78
754.91	232.69
755.24	232.60
755.57	232.58
755.90	232.51
756.22	232.42
756.55	232.33
756.88	232.23
757.20	232.08
757.53	231.97
757.86	231.89
758.19	231.84
758.51	231.76
758.84	231.63
759.17	231.55
759.49	231.49
759.82	231.50
760.15	231.45
760.47	231.38
760.80	231.29
761.13	231.24
761.45	231.19
761.78	231.14
762.11	231.08
762.43	230.96
762.76	230.90
763.08	230.87
763.41	230.82
763.74	230.77
764.06	230.72
764.39	230.68
764.71	230.63
765.04	230.56
765.37	230.50
765.69	230.45
766.02	230.41
766.34	230.35
766.67	230.25
767.00	230.22
767.32	230.24
767.65	230.28
767.97	230.22
768.30	230.18
768.62	230.13
768.95	230.07
769.27	230.03
769.60	230.00
769.92	229.93
770.25	229.87
770.57	229.81
770.90	229.76
771.22	229.71
771.55	229.67
771.87	229.64
772.20	229.60
772.52	229.67
772.85	229.78
773.17	229.75
773.50	229.70
773.82	229.64
774.15	229.54
774.47	229.43
774.80	229.38
775.12	229.34
775.45	229.30
775.77	229.27
776.09	229.25
776.42	229.22
776.74	229.23
777.07	229.20
777.39	229.18
777.72	229.14
778.04	229.13
778.36	229.09
778.69	229.06
779.01	229.04
779.33	228.90
779.66	228.73
779.98	228.69
780.31	228.67
780.63	228.70
780.95	228.70
781.28	228.67
781.60	228.64
781.92	228.62
782.25	228.59
782.57	228.57
782.89	228.54
783.22	228.50
783.54	228.45
783.86	228.44
784.19	228.40
784.51	228.42
784.83	228.38
785.16	228.36
785.48	228.34
785.80	228.31
786.12	228.30
786.45	228.28
786.77	228.27
787.09	228.24
787.42	228.17
787.74	228.15
788.06	228.13
788.38	228.11
788.71	228.08
789.03	228.07
789.35	228.07
789.67	228.03
789.99	228.02
790.32	227.98
790.64	227.98
790.96	228.08
791.28	228.02
791.61	228.00
791.93	227.99
792.25	227.96
792.57	228.04
792.89	228.00
793.21	227.99
793.54	227.96
793.86	227.93
794.18	227.92
794.50	227.88
794.82	227.86
795.14	227.86
795.47	227.86
795.79	227.85
796.11	227.80
796.43	227.79
796.75	227.77
797.07	227.77
797.39	227.74
797.71	227.62
798.04	227.61
798.36	227.60
798.68	227.58
799.00	227.57
799.32	227.49
799.64	227.50
799.96	227.48
800.28	227.50
800.60	227.48
800.92	227.47
801.24	227.45
801.56	227.45
801.89	227.43
802.21	227.42
802.53	227.38
802.85	227.40
803.17	227.44
803.49	227.41
803.81	227.38
804.13	227.36
804.45	227.33
804.77	227.33
805.09	227.32
805.41	227.30
805.73	227.26
806.05	227.22
806.37	227.20
806.69	227.17
807.01	227.14
807.33	227.14
807.65	227.09
807.97	227.13
808.28	227.10
808.60	227.09
808.92	227.06
809.24	227.13
809.56	227.09
809.88	227.04
810.20	227.04
810.52	227.05
810.84	227.02
811.16	227.00
811.48	226.98
811.80	227.02
812.12	227.00
812.43	227.02
812.75	227.02
813.07	226.99
813.39	226.99
813.71	226.97
814.03	226.95
814.35	226.95
814.67	226.89
814.98	226.87
815.30	226.86
815.62	226.83
815.94	226.74
816.26	226.75
816.58	226.72
816.89	226.72
817.21	226.68
817.53	226.68
817.85	226.68
818.17	226.67
818.48	226.61
818.80	226.63
819.12	226.60
819.44	226.58
819.76	226.56
820.07	226.55
820.39	226.54
820.71	226.54
821.03	226.54
821.34	226.52
821.66	226.53
821.98	226.54
822.30	226.53
822.61	226.60
822.93	226.57
823.25	226.57
823.57	226.55
823.88	226.56
824.20	226.55
824.52	226.56
824.83	226.55
825.15	226.53
825.47	226.51
825.79	226.52
826.10	226.51
826.42	226.50
826.74	226.50
827.05	226.49
827.37	226.49
827.69	226.48
828.00	226.48
828.32	226.47
828.64	226.45
828.95	226.51
829.27	226.47
829.58	226.46
829.90	226.48
830.22	226.49
830.53	226.46
830.85	226.45
831.17	226.41
831.48	226.40
831.80	226.40
832.11	226.39
832.43	226.37
832.75	226.36
833.06	226.44
833.38	226.40
833.69	226.39
834.01	226.39
834.32	226.38
834.64	226.37
834.96	226.36
835.27	226.36
835.59	226.31
835.90	226.29
836.22	226.28
836.53	226.25
836.85	226.23
837.16	226.35
837.48	226.35
837.79	226.39
838.11	226.39
838.42	226.38
838.74	226.40
839.05	226.39
839.37	226.38
839.68	226.30
840.00	226.29
840.31	226.31
840.63	226.29
840.94	226.28
841.26	226.26
841.57	226.26
841.88	226.26
842.20	226.25
842.51	226.22
842.83	226.22
843.14	226.33
843.46	226.33
843.77	226.25
844.08	226.24
844.40	226.20
844.71	226.18
845.03	226.17
845.34	226.16
845.65	226.15
845.97	226.15
846.28	226.15
846.60	226.16
846.91	226.14
847.22	226.13
847.54	226.16
847.85	226.16
848.16	226.15
848.48	226.12
848.79	226.17
849.10	226.18
849.42	226.19
849.73	226.07
850.04	226.07
850.36	226.02
850.67	226.04
850.98	226.04
851.30	226.05
851.61	226.04
851.92	226.04
852.23	226.08
852.55	226.08
852.86	226.08
853.17	226.09
853.49	226.11
853.80	226.14
854.11	226.14
854.42	226.15
854.74	226.14
855.05	226.15
855.36	226.08
855.67	226.08
855.99	226.08
856.30	226.23
856.61	226.22
856.92	226.23
857.23	226.23
857.55	226.21
857.86	226.20
858.17	226.22
858.48	226.20
858.79	226.17
859.11	226.18
859.42	226.17
859.73	226.15
860.04	226.14
860.35	226.10
860.66	226.06
860.98	226.05
861.29	226.07
861.60	226.06
861.91	226.09
862.22	226.06
862.53	226.04
862.84	225.89
863.16	225.92
863.47	225.89
863.78	225.87
864.09	225.88
864.40	225.89
864.71	225.89
865.02	225.91
865.33	225.89
865.64	225.87
865.95	225.87
866.27	225.95
866.58	225.93
866.89	225.95
867.20	225.95
867.51	225.92
867.82	225.91
868.13	225.95
868.44	225.92
868.75	225.95
869.06	225.95
869.37	225.97
869.68	225.93
869.99	225.96
870.30	225.96
870.61	225.97
870.92	225.95
871.23	225.94
871.54	225.95
871.85	225.98
872.16	226.00
872.47	225.98
872.78	225.91
873.09	225.92
873.40	225.91
873.71	225.91
874.02	225.93
874.33	225.91
874.64	225.88
874.95	225.91
875.26	225.88
875.56	225.87
875.87	225.87
876.18	225.86
876.49	225.98
876.80	225.97
877.11	225.95
877.42	225.95
877.73	225.96
878.04	225.94
878.35	225.93
878.66	225.93
878.96	225.93
879.27	225.93
879.58	225.92
879.89	225.92
880.20	225.95
880.51	225.95
880.82	225.95
881.12	225.95
881.43	225.92
881.74	225.91
882.05	225.90
882.36	225.91
882.67	225.92
882.97	225.78
883.28	225.77
883.59	225.77
883.90	225.78
884.21	225.80
884.51	225.79
884.82	225.77
885.13	225.76
885.44	225.76
885.74	225.76
886.05	225.75
886.36	225.75
886.67	225.70
886.98	225.77
887.28	225.78
887.59	225.77
887.90	225.78
888.20	225.78
888.51	225.81
888.82	225.78
889.13	225.79
889.43	225.90
889.74	225.90
890.05	225.90
890.35	225.88
890.66	225.86
890.97	225.84
891.28	225.83
891.58	225.83
891.89	225.83
892.20	225.82
892.50	225.81
892.81	225.80
893.12	225.80
893.42	225.73
893.73	225.73
894.04	225.73
894.34	225.74
894.65	225.74
894.95	225.72
895.26	225.73
895.57	225.78
895.87	225.65
896.18	225.68
896.48	225.68
896.79	225.68
897.10	225.70
897.40	225.71
897.71	225.72
898.01	225.71
898.32	225.72
898.63	225.72
898.93	225.73
899.24	225.74
899.54	225.73
899.85	225.72
900.15	225.72
900.46	225.71
900.76	225.72
901.07	225.72
901.38	225.71
901.68	225.73
901.99	225.66
902.29	225.67
902.60	225.66
902.90	225.65
903.21	225.65
903.51	225.63
903.82	225.66
904.12	225.66
904.43	225.66
904.73	225.66
905.03	225.66
905.34	225.78
905.64	225.77
905.95	225.77
906.25	225.77
906.56	225.77
906.86	225.77
907.17	225.75
907.47	225.76
907.77	225.75
908.08	225.72
908.38	225.73
908.69	225.73
908.99	225.75
909.30	225.76
909.60	225.76
909.90	225.76
910.21	225.72
910.51	225.70
910.81	225.70
911.12	225.71
911.42	225.71
911.73	225.57
912.03	225.58
912.33	225.61
912.64	225.60
912.94	225.59
913.24	225.57
913.55	225.56
913.85	225.55
914.15	225.57
914.46	225.59
914.76	225.58
915.06	225.57
915.37	225.54
915.67	225.53
915.97	225.54
916.27	225.52
916.58	225.52
916.88	225.52
917.18	225.51
917.49	225.59
917.79	225.59
918.09	225.61
918.39	225.64
918.70	225.63
919.00	225.64
919.30	225.70
919.60	225.70
919.91	225.69
920.21	225.69
920.51	225.67
920.81	225.66
921.12	225.68
921.42	225.68
921.72	225.68
922.02	225.69
922.32	225.70
922.63	225.71
922.93	225.78
923.23	225.78
923.53	225.77
923.83	225.69
924.13	225.70
924.44	225.69
924.74	225.71
925.04	225.74
925.34	225.73
925.64	225.68
925.94	225.68
926.24	225.75
926.55	225.74
926.85	225.76
927.15	225.76
927.45	225.75
927.75	225.75
928.05	225.75
928.35	225.74
928.65	225.76
928.95	225.77
929.26	225.70
929.56	225.73
929.86	225.74
930.16	225.73
930.46	225.72
930.76	225.73
931.06	225.67
931.36	225.63
931.66	225.65
931.96	225.66
932.26	225.67
932.56	225.61
932.86	225.62
933.16	225.62
933.46	225.61
933.76	225.60
934.06	225.62
934.36	225.66
934.66	225.66
934.96	225.64
935.26	225.64
935.56	225.66
935.86	225.63
936.16	225.61
936.46	225.60
936.76	225.60
937.06	225.58
937.36	225.59
937.66	225.60
937.96	225.58
938.26	225.56
938.56	225.55
938.86	225.56
939.16	225.59
939.46	225.60
939.76	225.61
940.06	225.61
940.35	225.58
940.65	225.52
940.95	225.53
941.25	225.50
941.55	225.49
941.85	225.48
942.15	225.50
942.45	225.54
942.75	225.54
943.04	225.54
943.34	225.57
943.64	225.56
943.94	225.54
944.24	225.54
944.54	225.55
944.84	225.55
945.13	225.53
945.43	225.50
945.73	225.50
946.03	225.48
946.33	225.47
946.62	225.46
946.92	225.45
947.22	225.46
947.52	225.47
947.82	225.49
948.11	225.48
948.41	225.45
948.71	225.41
949.01	225.42
949.31	225.41
949.60	225.39
949.90	225.41
950.20	225.41
950.50	225.41
950.79	225.40
951.09	225.42
951.39	225.42
951.69	225.41
951.98	225.43
952.28	225.44
952.58	225.44
952.87	225.44
953.17	225.46
953.47	225.44
953.76	225.43
954.06	225.41
954.36	225.40
954.66	225.40
954.95	225.43
955.25	225.44
955.55	225.45
955.84	225.43
956.14	225.44
956.44	225.45
956.73	225.43
957.03	225.44
957.32	225.44
957.62	225.43
957.92	225.46
958.21	225.44
958.51	225.58
958.81	225.60
959.10	225.62
959.40	225.64
959.69	225.65
959.99	225.67
960.29	225.68
960.58	225.68
960.88	225.72
961.17	225.70
961.47	225.71
961.76	225.70
962.06	225.73
962.36	225.71
962.65	225.71
962.95	225.72
963.24	225.71
963.54	225.71
963.83	225.72
964.13	225.71
964.42	225.70
964.72	225.59
965.01	225.59
965.31	225.58
965.60	225.55
965.90	225.63
966.19	225.60
966.49	225.60
966.78	225.60
967.08	225.58
967.37	225.58
967.67	225.56
967.96	225.58
968.26	225.57
968.55	225.59
968.85	225.59
969.14	225.58
969.43	225.58
969.73	225.57
970.02	225.56
970.32	225.55
970.61	225.54
970.91	225.50
971.20	225.48
971.49	225.47
971.79	225.49
972.08	225.39
972.38	225.41
972.67	225.40
972.96	225.42
973.26	225.40
973.55	225.43
973.85	225.43
974.14	225.41
974.43	225.42
974.73	225.39
975.02	225.39
975.31	225.39
975.61	225.38
975.90	225.37
976.19	225.36
976.49	225.37
976.78	225.38
977.07	225.38
977.37	225.39
977.66	225.40
977.95	225.38
978.24	225.40
978.54	225.42
978.83	225.41
979.12	225.40
979.42	225.41
979.71	225.38
980.00	225.38
980.29	225.39
980.59	225.36
980.88	225.40
981.17	225.39
981.46	225.40
981.76	225.40
982.05	225.44
982.34	225.45
982.63	225.44
982.93	225.44
983.22	225.47
983.51	225.48
983.80	225.50
984.09	225.51
984.39	225.50
984.68	225.48
984.97	225.49
985.26	225.48
985.55	225.49
985.85	225.46
986.14	225.48
986.43	225.50
986.72	225.49
987.01	225.45
987.30	225.45
987.59	225.44
987.89	225.45
988.18	225.41
988.47	225.40
988.76	225.39
989.05	225.37
989.34	225.35
989.63	225.38
989.92	225.36
990.22	225.35
990.51	225.35
990.80	225.34
991.09	225.35
991.38	225.36
991.67	225.35
991.96	225.34
992.25	225.34
992.54	225.32
992.83	225.32
993.12	225.32
993.41	225.34
993.70	225.39
993.99	225.41
994.28	225.43
994.58	225.45
994.87	225.44
995.16	225.44
995.45	225.43
995.74	225.39
996.03	225.41
996.32	225.43
996.61	225.45
996.90	225.45
997.19	225.44
997.48	225.44
997.77	225.43
998.06	225.44
998.34	225.43
998.63	225.43
998.92	225.43
999.21	225.45
999.50	225.45
999.79	225.40
1000.08	225.40
1000.37	225.40
1000.66	225.38
1000.95	225.41
1001.24	225.42
1001.53	225.44
1001.82	225.44
1002.11	225.41
1002.40	225.42
1002.68	225.44
1002.97	225.53
1003.26	225.52
1003.55	225.50
1003.84	225.51
1004.13	225.55
1004.42	225.54
1004.71	225.54
1004.99	225.54
1005.28	225.56
1005.57	225.55
1005.86	225.54
1006.15	225.53
1006.44	225.51
1006.72	225.53
1007.01	225.50
1007.30	225.50
1007.59	225.49
1007.88	225.49
1008.17	225.50
1008.45	225.47
1008.74	225.42
1009.03	225.36
1009.32	225.36
1009.60	225.36
1009.89	225.35
1010.18	225.30
1010.47	225.29
1010.76	225.29
1011.04	225.29
1011.33	225.29
1011.62	225.30
1011.91	225.30
1012.19	225.31
1012.48	225.32
1012.77	225.31
1013.05	225.35
1013.34	225.35
1013.63	225.35
1013.92	225.35
1014.20	225.35
1014.49	225.36
1014.78	225.37
1015.06	225.33
1015.35	225.33
1015.64	225.35
1015.92	225.37
1016.21	225.38
1016.50	225.38
1016.78	225.40
1017.07	225.41
1017.36	225.38
1017.64	225.37
1017.93	225.38
1018.22	225.36
1018.50	225.36
1018.79	225.36
1019.08	225.32
1019.36	225.32
1019.65	225.31
1019.93	225.35
1020.22	225.37
1020.51	225.43
1020.79	225.41
1021.08	225.17
1021.36	225.14
1021.65	225.39
1021.94	225.27
1022.22	225.44
1022.51	225.10
1022.79	226.01
1023.08	225.52
1023.36	226.88
1023.65	225.08
>>>>>End Processed Spectral Data<<<<<
