SpectraSuite Data File
++++++++++++++++++++++++++++++++++++
Date: Fri Oct 02 16:28:55 EDT 2015
User: lab3
Dark Spectrum Present: No
Reference Spectrum Present: No
Number of Sampled Component Spectra: 1
Spectrometers: USB2E7196
Integration Time (usec): 46000 (USB2E7196)
Spectra Averaged: 1200 (USB2E7196)
Boxcar Smoothing: 10 (USB2E7196)
Correct for Electrical Dark: No (USB2E7196)
Strobe/Lamp Enabled: No (USB2E7196)
Correct for Detector Non-linearity: No (USB2E7196)
Correct for Stray Light: No (USB2E7196)
Number of Pixels in Processed Spectrum: 2048
>>>>>Begin Processed Spectral Data<<<<<
339.09	0.00
339.48	214.81
339.86	216.23
340.24	217.42
340.63	218.91
341.01	222.34
341.39	221.67
341.78	223.12
342.16	224.36
342.54	224.68
342.93	213.12
343.31	223.88
343.69	224.41
344.07	224.86
344.46	225.30
344.84	225.69
345.22	225.90
345.60	226.16
345.99	226.35
346.37	226.48
346.75	226.58
347.13	226.65
347.52	226.72
347.90	226.81
348.28	226.84
348.66	226.90
349.05	226.89
349.43	226.94
349.81	227.00
350.19	227.05
350.57	227.12
350.96	227.21
351.34	227.30
351.72	227.40
352.10	227.51
352.48	227.57
352.87	227.64
353.25	227.70
353.63	227.77
354.01	227.83
354.39	227.91
354.77	228.00
355.15	228.11
355.54	228.16
355.92	228.18
356.30	228.25
356.68	228.40
357.06	228.49
357.44	228.53
357.82	228.59
358.20	228.72
358.58	228.78
358.97	228.84
359.35	228.93
359.73	229.02
360.11	229.07
360.49	229.13
360.87	229.17
361.25	229.24
361.63	229.33
362.01	229.38
362.39	229.41
362.77	229.45
363.15	229.47
363.53	229.50
363.91	229.55
364.29	229.57
364.67	229.48
365.05	229.50
365.43	229.53
365.81	229.57
366.19	229.59
366.57	229.64
366.95	229.65
367.33	229.62
367.71	229.62
368.09	229.64
368.47	229.65
368.85	229.65
369.23	229.66
369.61	229.60
369.99	229.63
370.37	229.62
370.75	229.69
371.13	229.66
371.51	229.63
371.89	229.61
372.27	229.59
372.65	229.57
373.03	229.52
373.41	229.49
373.78	229.44
374.16	229.34
374.54	229.27
374.92	229.22
375.30	229.16
375.68	229.09
376.06	229.06
376.44	229.00
376.82	228.94
377.19	228.90
377.57	228.84
377.95	228.75
378.33	228.69
378.71	228.53
379.09	228.49
379.47	228.46
379.84	228.39
380.22	228.32
380.60	228.25
380.98	228.22
381.36	228.16
381.73	228.10
382.11	228.07
382.49	228.04
382.87	227.97
383.25	227.94
383.62	228.05
384.00	227.97
384.38	227.92
384.76	227.90
385.13	227.90
385.51	227.86
385.89	227.80
386.27	227.76
386.64	227.75
387.02	227.70
387.40	227.65
387.78	227.62
388.15	227.60
388.53	227.57
388.91	227.55
389.29	227.51
389.66	227.50
390.04	227.45
390.42	227.44
390.79	227.43
391.17	227.41
391.55	227.25
391.92	227.25
392.30	227.26
392.68	227.22
393.05	227.20
393.43	227.19
393.81	227.20
394.18	227.18
394.56	227.18
394.94	227.21
395.31	227.21
395.69	227.26
396.06	227.29
396.44	227.31
396.82	227.31
397.19	227.39
397.57	227.40
397.95	227.46
398.32	227.45
398.70	227.50
399.07	227.57
399.45	227.60
399.82	227.64
400.20	227.68
400.58	227.74
400.95	227.75
401.33	227.84
401.70	228.00
402.08	228.11
402.45	228.20
402.83	228.33
403.20	228.45
403.58	228.53
403.95	228.68
404.33	228.82
404.71	228.97
405.08	229.19
405.46	229.36
405.83	229.55
406.21	229.74
406.58	229.96
406.96	230.17
407.33	230.43
407.70	230.71
408.08	231.09
408.45	231.42
408.83	231.78
409.20	232.10
409.58	232.40
409.95	232.80
410.33	233.24
410.70	233.65
411.08	234.15
411.45	234.68
411.82	235.21
412.20	235.80
412.57	236.53
412.95	237.08
413.32	237.81
413.69	238.55
414.07	239.34
414.44	240.22
414.82	241.11
415.19	242.14
415.56	243.20
415.94	244.28
416.31	245.51
416.68	246.75
417.06	248.18
417.43	249.50
417.81	251.03
418.18	252.59
418.55	254.30
418.93	256.06
419.30	257.91
419.67	259.86
420.04	261.88
420.42	263.97
420.79	266.40
421.16	268.84
421.54	271.34
421.91	273.94
422.28	276.64
422.66	279.55
423.03	282.32
423.40	285.23
423.77	288.35
424.15	291.55
424.52	294.87
424.89	298.47
425.26	302.05
425.64	305.38
426.01	309.12
426.38	312.94
426.75	316.88
427.13	320.93
427.50	325.19
427.87	329.60
428.24	334.06
428.61	338.34
428.99	342.98
429.36	348.07
429.73	352.91
430.10	357.78
430.47	362.73
430.85	367.86
431.22	373.35
431.59	378.98
431.96	384.48
432.33	390.61
432.70	396.44
433.08	403.33
433.45	409.83
433.82	416.27
434.19	423.45
434.56	430.52
434.93	437.34
435.30	444.07
435.68	451.70
436.05	459.17
436.42	466.63
436.79	473.43
437.16	480.76
437.53	488.63
437.90	496.49
438.27	504.21
438.64	512.52
439.01	520.06
439.38	526.97
439.75	533.61
440.13	541.09
440.50	548.24
440.87	553.89
441.24	560.09
441.61	566.83
441.98	571.72
442.35	577.54
442.72	583.47
443.09	589.15
443.46	592.71
443.83	595.30
444.20	597.44
444.57	600.66
444.94	602.47
445.31	604.32
445.68	605.89
446.05	606.99
446.42	606.51
446.79	605.82
447.16	605.18
447.53	604.61
447.90	602.07
448.27	599.62
448.64	596.00
449.01	593.43
449.37	588.46
449.74	584.00
450.11	578.28
450.48	572.00
450.85	565.72
451.22	560.37
451.59	555.16
451.96	550.41
452.33	543.57
452.70	537.48
453.07	530.10
453.43	522.76
453.80	515.66
454.17	508.84
454.54	502.58
454.91	495.53
455.28	488.93
455.65	482.71
456.02	476.16
456.38	470.87
456.75	464.10
457.12	458.65
457.49	453.12
457.86	447.93
458.23	443.43
458.59	438.40
458.96	433.25
459.33	428.72
459.70	424.13
460.07	420.65
460.43	416.56
460.80	412.74
461.17	409.41
461.54	405.79
461.91	402.44
462.27	399.03
462.64	396.31
463.01	393.13
463.38	389.94
463.74	387.05
464.11	384.51
464.48	382.22
464.85	379.74
465.21	377.89
465.58	375.80
465.95	373.38
466.32	371.49
466.68	369.62
467.05	367.76
467.42	365.91
467.78	363.92
468.15	362.08
468.52	360.75
468.88	358.94
469.25	357.30
469.62	356.01
469.98	354.58
470.35	353.31
470.72	352.16
471.08	351.00
471.45	350.02
471.82	348.94
472.18	347.78
472.55	347.03
472.92	346.07
473.28	345.32
473.65	344.52
474.02	343.77
474.38	343.14
474.75	342.77
475.11	342.27
475.48	342.02
475.85	341.77
476.21	341.65
476.58	341.56
476.94	341.69
477.31	341.75
477.67	341.85
478.04	342.05
478.41	342.34
478.77	342.76
479.14	343.02
479.50	343.54
479.87	344.21
480.23	344.89
480.60	345.57
480.96	346.25
481.33	347.24
481.69	348.22
482.06	349.20
482.42	350.09
482.79	351.20
483.15	352.50
483.52	353.97
483.88	355.38
484.25	356.90
484.61	358.47
484.98	360.18
485.34	362.10
485.71	364.10
486.07	366.24
486.44	368.39
486.80	370.79
487.17	373.25
487.53	375.97
487.90	378.78
488.26	381.87
488.62	385.11
488.99	388.35
489.35	391.77
489.72	395.49
490.08	399.39
490.44	403.43
490.81	407.63
491.17	411.91
491.54	416.50
491.90	421.26
492.26	426.38
492.63	431.71
492.99	437.26
493.36	443.00
493.72	449.06
494.08	455.26
494.45	461.85
494.81	468.71
495.17	475.71
495.54	483.09
495.90	490.78
496.26	498.67
496.63	506.83
496.99	515.28
497.35	524.10
497.72	533.22
498.08	542.55
498.44	552.19
498.80	562.42
499.17	572.89
499.53	583.69
499.89	594.83
500.26	606.19
500.62	617.82
500.98	630.11
501.34	642.54
501.71	655.53
502.07	668.63
502.43	682.25
502.79	696.19
503.16	710.54
503.52	725.09
503.88	740.04
504.24	755.42
504.60	771.01
504.97	787.07
505.33	803.45
505.69	820.76
506.05	838.38
506.41	855.94
506.78	873.67
507.14	891.91
507.50	910.58
507.86	929.56
508.22	948.80
508.59	967.90
508.95	987.85
509.31	1008.39
509.67	1029.70
510.03	1050.94
510.39	1072.15
510.75	1093.61
511.12	1115.29
511.48	1137.14
511.84	1159.02
512.20	1181.28
512.56	1204.37
512.92	1227.52
513.28	1250.23
513.64	1273.06
514.00	1296.34
514.37	1319.96
514.73	1343.53
515.09	1366.99
515.45	1390.78
515.81	1414.72
516.17	1438.65
516.53	1462.12
516.89	1485.53
517.25	1509.06
517.61	1532.55
517.97	1556.39
518.33	1579.58
518.69	1602.75
519.05	1626.39
519.41	1650.25
519.77	1674.34
520.13	1697.66
520.49	1720.85
520.85	1744.30
521.21	1767.54
521.57	1791.12
521.93	1814.14
522.29	1837.63
522.65	1860.44
523.01	1883.26
523.37	1905.63
523.73	1928.82
524.09	1951.57
524.45	1974.18
524.81	1996.18
525.17	2017.92
525.53	2039.25
525.89	2061.18
526.25	2083.08
526.61	2103.85
526.97	2124.65
527.33	2145.25
527.68	2165.62
528.04	2185.40
528.40	2204.19
528.76	2222.98
529.12	2241.19
529.48	2259.34
529.84	2275.52
530.20	2292.45
530.56	2308.71
530.91	2325.11
531.27	2341.13
531.63	2356.33
531.99	2370.99
532.35	2385.26
532.71	2399.61
533.07	2414.29
533.42	2427.01
533.78	2440.75
534.14	2454.86
534.50	2468.13
534.86	2481.16
535.21	2492.39
535.57	2503.99
535.93	2515.40
536.29	2525.63
536.65	2535.84
537.00	2545.04
537.36	2555.50
537.72	2564.51
538.08	2572.94
538.44	2580.84
538.79	2588.23
539.15	2594.85
539.51	2601.10
539.87	2606.56
540.22	2610.29
540.58	2614.15
540.94	2619.40
541.29	2622.97
541.65	2624.88
542.01	2626.15
542.37	2626.78
542.72	2628.42
543.08	2628.61
543.44	2629.37
543.79	2629.25
544.15	2628.34
544.51	2627.71
544.87	2625.88
545.22	2623.36
545.58	2620.15
545.94	2616.88
546.29	2612.40
546.65	2608.16
547.01	2603.82
547.36	2600.13
547.72	2596.37
548.07	2591.22
548.43	2584.70
548.79	2577.29
549.14	2570.95
549.50	2564.87
549.86	2557.72
550.21	2549.91
550.57	2542.61
550.92	2533.24
551.28	2524.56
551.64	2516.01
551.99	2507.25
552.35	2497.91
552.70	2488.85
553.06	2480.47
553.41	2471.42
553.77	2462.12
554.13	2452.43
554.48	2442.18
554.84	2430.74
555.19	2419.89
555.55	2408.92
555.90	2397.95
556.26	2387.47
556.61	2376.04
556.97	2363.27
557.32	2351.09
557.68	2338.53
558.03	2325.93
558.39	2314.52
558.74	2303.17
559.10	2290.49
559.45	2277.82
559.81	2265.70
560.16	2253.31
560.52	2240.81
560.87	2228.63
561.23	2215.73
561.58	2203.10
561.94	2190.04
562.29	2176.61
562.64	2163.75
563.00	2150.59
563.35	2137.99
563.71	2125.14
564.06	2112.20
564.42	2099.76
564.77	2086.93
565.12	2074.18
565.48	2061.46
565.83	2048.60
566.19	2036.05
566.54	2023.11
566.89	2009.53
567.25	1996.11
567.60	1983.63
567.96	1970.49
568.31	1956.02
568.66	1942.34
569.02	1929.80
569.37	1917.10
569.72	1904.99
570.08	1891.77
570.43	1878.18
570.78	1864.19
571.14	1849.89
571.49	1836.15
571.84	1822.93
572.20	1808.64
572.55	1794.53
572.90	1780.29
573.26	1766.08
573.61	1751.30
573.96	1737.10
574.31	1722.87
574.67	1708.80
575.02	1693.84
575.37	1678.88
575.72	1664.90
576.08	1651.25
576.43	1636.48
576.78	1622.25
577.13	1608.20
577.49	1594.63
577.84	1581.61
578.19	1567.89
578.54	1554.18
578.90	1540.09
579.25	1525.88
579.60	1513.04
579.95	1500.17
580.30	1487.14
580.66	1473.83
581.01	1460.54
581.36	1447.33
581.71	1435.07
582.06	1422.57
582.42	1410.30
582.77	1398.19
583.12	1386.09
583.47	1373.69
583.82	1361.60
584.17	1349.11
584.53	1336.28
584.88	1323.70
585.23	1310.88
585.58	1298.80
585.93	1286.90
586.28	1275.56
586.63	1264.25
586.98	1252.55
587.34	1240.93
587.69	1229.17
588.04	1217.80
588.39	1206.78
588.74	1195.89
589.09	1184.80
589.44	1173.35
589.79	1162.42
590.14	1151.63
590.49	1140.71
590.84	1129.97
591.19	1119.42
591.54	1108.81
591.89	1098.44
592.25	1088.24
592.60	1077.75
592.95	1067.52
593.30	1057.56
593.65	1047.43
594.00	1037.33
594.35	1027.80
594.70	1017.83
595.05	1008.60
595.40	999.36
595.75	989.94
596.10	980.93
596.45	971.77
596.80	962.94
597.15	953.97
597.50	945.08
597.85	936.57
598.19	927.95
598.54	919.38
598.89	911.16
599.24	903.18
599.59	895.08
599.94	887.78
600.29	880.32
600.64	872.58
600.99	864.53
601.34	856.86
601.69	848.84
602.04	841.49
602.39	834.01
602.74	826.59
603.08	819.18
603.43	811.71
603.78	804.36
604.13	797.13
604.48	789.89
604.83	782.84
605.18	775.67
605.53	768.76
605.87	761.73
606.22	754.96
606.57	748.15
606.92	741.19
607.27	734.24
607.62	727.61
607.96	721.30
608.31	715.35
608.66	709.24
609.01	703.39
609.36	697.66
609.70	691.70
610.05	685.67
610.40	679.93
610.75	674.18
611.10	668.74
611.44	663.18
611.79	657.72
612.14	652.19
612.49	646.76
612.83	641.51
613.18	636.36
613.53	631.19
613.88	626.04
614.22	621.30
614.57	616.45
614.92	611.44
615.27	606.55
615.61	601.72
615.96	596.95
616.31	592.18
616.65	587.50
617.00	583.00
617.35	578.56
617.70	574.17
618.04	569.90
618.39	565.57
618.74	561.42
619.08	557.31
619.43	553.27
619.78	549.28
620.12	545.28
620.47	541.43
620.82	537.64
621.16	533.91
621.51	530.07
621.85	526.30
622.20	522.68
622.55	519.08
622.89	515.52
623.24	512.00
623.59	508.53
623.93	505.10
624.28	501.78
624.62	498.60
624.97	495.43
625.32	492.20
625.66	488.92
626.01	485.65
626.35	482.42
626.70	479.24
627.04	476.26
627.39	473.19
627.73	470.25
628.08	467.38
628.43	464.49
628.77	461.67
629.12	458.99
629.46	456.33
629.81	453.60
630.15	450.89
630.50	448.23
630.84	445.62
631.19	443.10
631.53	440.68
631.88	438.18
632.22	435.68
632.57	433.48
632.91	431.31
633.26	429.18
633.60	427.08
633.95	425.06
634.29	422.92
634.64	420.85
634.98	418.62
635.32	416.56
635.67	414.64
636.01	412.65
636.36	410.68
636.70	408.83
637.05	406.99
637.39	405.19
637.73	403.43
638.08	401.76
638.42	400.06
638.77	398.24
639.11	396.37
639.45	394.61
639.80	392.75
640.14	390.98
640.49	389.23
640.83	387.43
641.17	385.72
641.52	384.04
641.86	382.40
642.20	380.93
642.55	379.31
642.89	377.72
643.23	376.20
643.58	374.82
643.92	373.33
644.26	371.87
644.61	370.43
644.95	368.98
645.29	367.45
645.64	365.95
645.98	364.52
646.32	363.23
646.66	361.88
647.01	360.54
647.35	359.27
647.69	357.98
648.04	356.82
648.38	355.56
648.72	354.34
649.06	353.10
649.41	351.88
649.75	350.70
650.09	349.53
650.43	348.38
650.78	347.17
651.12	346.00
651.46	344.88
651.80	343.80
652.14	342.74
652.49	341.71
652.83	340.67
653.17	339.65
653.51	338.67
653.85	337.74
654.20	336.77
654.54	335.71
654.88	334.74
655.22	333.78
655.56	332.81
655.90	331.90
656.25	331.02
656.59	330.12
656.93	329.27
657.27	328.42
657.61	327.51
657.95	326.67
658.29	325.82
658.64	325.01
658.98	324.16
659.32	323.32
659.66	322.56
660.00	321.81
660.34	321.07
660.68	320.28
661.02	319.47
661.36	318.69
661.70	317.94
662.05	317.20
662.39	316.46
662.73	315.82
663.07	315.16
663.41	314.48
663.75	313.77
664.09	313.08
664.43	312.34
664.77	311.69
665.11	310.97
665.45	310.33
665.79	309.68
666.13	309.01
666.47	308.34
666.81	307.62
667.15	306.88
667.49	306.25
667.83	305.67
668.17	305.05
668.51	304.47
668.85	303.92
669.19	303.41
669.53	302.79
669.87	302.15
670.21	301.52
670.55	300.94
670.89	300.43
671.23	299.88
671.57	299.35
671.91	298.86
672.25	298.39
672.58	297.93
672.92	297.38
673.26	296.90
673.60	296.43
673.94	295.99
674.28	295.59
674.62	295.10
674.96	294.59
675.30	294.14
675.64	293.65
675.97	293.14
676.31	292.63
676.65	292.17
676.99	291.76
677.33	291.28
677.67	290.83
678.01	290.30
678.34	289.83
678.68	289.41
679.02	288.93
679.36	288.45
679.70	287.97
680.04	287.52
680.37	287.07
680.71	286.63
681.05	286.19
681.39	285.71
681.73	285.24
682.06	284.78
682.40	284.33
682.74	283.93
683.08	283.58
683.42	283.15
683.75	282.76
684.09	282.29
684.43	281.89
684.77	281.46
685.10	281.09
685.44	280.70
685.78	280.31
686.12	279.93
686.45	279.53
686.79	279.10
687.13	278.73
687.46	278.31
687.80	277.93
688.14	277.49
688.48	277.10
688.81	276.70
689.15	276.34
689.49	275.94
689.82	275.53
690.16	275.06
690.50	274.67
690.83	274.28
691.17	273.87
691.51	273.49
691.84	273.14
692.18	272.73
692.52	272.32
692.85	271.92
693.19	271.57
693.52	271.18
693.86	270.80
694.20	270.42
694.53	270.05
694.87	269.64
695.21	269.27
695.54	268.89
695.88	268.51
696.21	268.11
696.55	267.75
696.88	267.39
697.22	267.04
697.56	266.69
697.89	266.28
698.23	265.93
698.56	265.54
698.90	265.18
699.23	264.79
699.57	264.42
699.90	264.06
700.24	263.66
700.58	263.34
700.91	263.05
701.25	262.83
701.58	262.56
701.92	262.28
702.25	261.97
702.59	261.65
702.92	261.34
703.26	261.01
703.59	260.67
703.93	260.46
704.26	260.14
704.60	259.82
704.93	259.51
705.26	259.19
705.60	258.93
705.93	258.60
706.27	258.35
706.60	258.10
706.94	257.85
707.27	257.53
707.61	257.24
707.94	256.90
708.27	256.49
708.61	256.14
708.94	255.82
709.28	255.53
709.61	255.24
709.94	254.97
710.28	254.71
710.61	254.46
710.95	254.09
711.28	253.90
711.61	253.64
711.95	253.41
712.28	253.14
712.61	252.86
712.95	252.68
713.28	252.50
713.61	252.23
713.95	251.94
714.28	251.70
714.61	251.43
714.95	251.20
715.28	250.97
715.61	250.75
715.95	250.53
716.28	250.30
716.61	250.12
716.95	249.89
717.28	249.65
717.61	249.42
717.94	249.21
718.28	248.89
718.61	248.67
718.94	248.44
719.27	248.23
719.61	248.05
719.94	247.80
720.27	247.50
720.60	247.30
720.94	247.11
721.27	246.92
721.60	246.74
721.93	246.54
722.27	246.38
722.60	246.19
722.93	245.97
723.26	245.78
723.59	245.54
723.93	245.37
724.26	245.21
724.59	245.03
724.92	244.86
725.25	244.73
725.59	244.56
725.92	244.41
726.25	244.24
726.58	244.06
726.91	243.88
727.24	243.73
727.57	243.57
727.91	243.38
728.24	243.24
728.57	243.07
728.90	242.94
729.23	242.73
729.56	242.63
729.89	242.49
730.22	242.32
730.55	242.18
730.89	242.03
731.22	241.88
731.55	241.73
731.88	241.57
732.21	241.39
732.54	241.25
732.87	241.10
733.20	240.96
733.53	240.82
733.86	240.69
734.19	240.54
734.52	240.42
734.85	240.37
735.18	240.20
735.51	240.11
735.84	239.98
736.17	239.90
736.50	239.70
736.83	239.72
737.16	239.61
737.49	239.50
737.82	239.38
738.15	239.28
738.48	239.15
738.81	239.05
739.14	238.91
739.47	238.77
739.80	238.66
740.13	238.55
740.46	238.42
740.79	238.28
741.12	238.17
741.45	238.02
741.78	237.83
742.11	237.75
742.44	237.60
742.77	237.50
743.10	237.37
743.43	237.26
743.75	237.03
744.08	237.11
744.41	236.99
744.74	236.87
745.07	236.73
745.40	236.66
745.73	236.60
746.06	236.51
746.39	236.44
746.71	236.33
747.04	236.23
747.37	236.14
747.70	236.07
748.03	235.99
748.36	235.93
748.68	235.83
749.01	235.70
749.34	235.61
749.67	235.53
750.00	235.45
750.33	235.46
750.65	235.37
750.98	235.10
751.31	235.02
751.64	234.94
751.97	234.93
752.29	234.83
752.62	234.68
752.95	234.59
753.28	234.49
753.60	234.41
753.93	234.35
754.26	234.28
754.59	234.17
754.91	234.07
755.24	233.97
755.57	233.96
755.90	233.88
756.22	233.79
756.55	233.69
756.88	233.59
757.20	233.43
757.53	233.32
757.86	233.24
758.19	233.18
758.51	233.11
758.84	232.98
759.17	232.90
759.49	232.84
759.82	232.83
760.15	232.78
760.47	232.72
760.80	232.61
761.13	232.56
761.45	232.50
761.78	232.45
762.11	232.40
762.43	232.27
762.76	232.22
763.08	232.18
763.41	232.13
763.74	232.09
764.06	232.03
764.39	231.97
764.71	231.91
765.04	231.85
765.37	231.77
765.69	231.71
766.02	231.64
766.34	231.59
766.67	231.49
767.00	231.46
767.32	231.47
767.65	231.50
767.97	231.44
768.30	231.40
768.62	231.34
768.95	231.27
769.27	231.23
769.60	231.19
769.92	231.11
770.25	231.04
770.57	230.97
770.90	230.93
771.22	230.88
771.55	230.83
771.87	230.81
772.20	230.77
772.52	230.84
772.85	230.96
773.17	230.91
773.50	230.85
773.82	230.79
774.15	230.69
774.47	230.57
774.80	230.52
775.12	230.48
775.45	230.43
775.77	230.41
776.09	230.39
776.42	230.35
776.74	230.36
777.07	230.33
777.39	230.31
777.72	230.27
778.04	230.26
778.36	230.20
778.69	230.16
779.01	230.16
779.33	230.01
779.66	229.84
779.98	229.81
780.31	229.79
780.63	229.81
780.95	229.80
781.28	229.77
781.60	229.74
781.92	229.71
782.25	229.70
782.57	229.66
782.89	229.63
783.22	229.59
783.54	229.54
783.86	229.53
784.19	229.50
784.51	229.51
784.83	229.47
785.16	229.46
785.48	229.44
785.80	229.40
786.12	229.40
786.45	229.37
786.77	229.36
787.09	229.33
787.42	229.26
787.74	229.25
788.06	229.24
788.38	229.22
788.71	229.19
789.03	229.17
789.35	229.17
789.67	229.15
789.99	229.14
790.32	229.10
790.64	229.09
790.96	229.18
791.28	229.13
791.61	229.10
791.93	229.08
792.25	229.06
792.57	229.14
792.89	229.10
793.21	229.10
793.54	229.07
793.86	229.04
794.18	229.04
794.50	229.00
794.82	228.98
795.14	228.97
795.47	228.97
795.79	228.95
796.11	228.90
796.43	228.88
796.75	228.85
797.07	228.84
797.39	228.82
797.71	228.70
798.04	228.69
798.36	228.69
798.68	228.67
799.00	228.66
799.32	228.57
799.64	228.58
799.96	228.57
800.28	228.57
800.60	228.55
800.92	228.53
801.24	228.51
801.56	228.50
801.89	228.48
802.21	228.47
802.53	228.44
802.85	228.45
803.17	228.49
803.49	228.45
803.81	228.43
804.13	228.41
804.45	228.39
804.77	228.40
805.09	228.39
805.41	228.37
805.73	228.33
806.05	228.28
806.37	228.25
806.69	228.21
807.01	228.18
807.33	228.18
807.65	228.13
807.97	228.18
808.28	228.14
808.60	228.13
808.92	228.10
809.24	228.17
809.56	228.14
809.88	228.09
810.20	228.08
810.52	228.10
810.84	228.07
811.16	228.05
811.48	228.02
811.80	228.05
812.12	228.02
812.43	228.05
812.75	228.06
813.07	228.04
813.39	228.05
813.71	228.03
814.03	228.00
814.35	228.01
814.67	227.94
814.98	227.92
815.30	227.90
815.62	227.88
815.94	227.78
816.26	227.80
816.58	227.77
816.89	227.78
817.21	227.74
817.53	227.74
817.85	227.74
818.17	227.73
818.48	227.66
818.80	227.68
819.12	227.65
819.44	227.62
819.76	227.60
820.07	227.59
820.39	227.58
820.71	227.58
821.03	227.58
821.34	227.57
821.66	227.58
821.98	227.59
822.30	227.58
822.61	227.65
822.93	227.61
823.25	227.61
823.57	227.59
823.88	227.59
824.20	227.58
824.52	227.58
824.83	227.58
825.15	227.56
825.47	227.55
825.79	227.56
826.10	227.55
826.42	227.54
826.74	227.54
827.05	227.53
827.37	227.53
827.69	227.51
828.00	227.52
828.32	227.52
828.64	227.49
828.95	227.55
829.27	227.51
829.58	227.50
829.90	227.51
830.22	227.52
830.53	227.49
830.85	227.48
831.17	227.44
831.48	227.44
831.80	227.43
832.11	227.42
832.43	227.40
832.75	227.39
833.06	227.46
833.38	227.42
833.69	227.41
834.01	227.42
834.32	227.41
834.64	227.39
834.96	227.38
835.27	227.38
835.59	227.33
835.90	227.30
836.22	227.29
836.53	227.26
836.85	227.23
837.16	227.36
837.48	227.37
837.79	227.41
838.11	227.41
838.42	227.40
838.74	227.41
839.05	227.39
839.37	227.39
839.68	227.30
840.00	227.30
840.31	227.32
840.63	227.29
840.94	227.27
841.26	227.25
841.57	227.23
841.88	227.24
842.20	227.22
842.51	227.21
842.83	227.20
843.14	227.32
843.46	227.31
843.77	227.23
844.08	227.22
844.40	227.17
844.71	227.15
845.03	227.15
845.34	227.13
845.65	227.13
845.97	227.13
846.28	227.14
846.60	227.14
846.91	227.11
847.22	227.11
847.54	227.14
847.85	227.15
848.16	227.14
848.48	227.10
848.79	227.15
849.10	227.16
849.42	227.17
849.73	227.03
850.04	227.04
850.36	226.99
850.67	227.00
850.98	227.00
851.30	227.01
851.61	227.00
851.92	227.00
852.23	227.04
852.55	227.04
852.86	227.05
853.17	227.04
853.49	227.08
853.80	227.09
854.11	227.10
854.42	227.12
854.74	227.11
855.05	227.12
855.36	227.06
855.67	227.06
855.99	227.06
856.30	227.21
856.61	227.20
856.92	227.20
857.23	227.20
857.55	227.19
857.86	227.18
858.17	227.20
858.48	227.19
858.79	227.16
859.11	227.17
859.42	227.15
859.73	227.15
860.04	227.12
860.35	227.10
860.66	227.05
860.98	227.04
861.29	227.05
861.60	227.04
861.91	227.06
862.22	227.04
862.53	227.02
862.84	226.88
863.16	226.91
863.47	226.88
863.78	226.86
864.09	226.87
864.40	226.88
864.71	226.87
865.02	226.88
865.33	226.87
865.64	226.85
865.95	226.86
866.27	226.94
866.58	226.93
866.89	226.94
867.20	226.94
867.51	226.92
867.82	226.91
868.13	226.95
868.44	226.93
868.75	226.95
869.06	226.96
869.37	226.96
869.68	226.93
869.99	226.96
870.30	226.96
870.61	226.98
870.92	226.96
871.23	226.95
871.54	226.96
871.85	226.99
872.16	227.00
872.47	226.99
872.78	226.92
873.09	226.93
873.40	226.92
873.71	226.93
874.02	226.95
874.33	226.94
874.64	226.92
874.95	226.94
875.26	226.92
875.56	226.92
875.87	226.92
876.18	226.92
876.49	227.05
876.80	227.03
877.11	227.00
877.42	227.01
877.73	227.00
878.04	226.98
878.35	226.97
878.66	226.97
878.96	226.96
879.27	226.95
879.58	226.94
879.89	226.94
880.20	226.96
880.51	226.95
880.82	226.94
881.12	226.94
881.43	226.91
881.74	226.89
882.05	226.88
882.36	226.88
882.67	226.88
882.97	226.75
883.28	226.75
883.59	226.75
883.90	226.76
884.21	226.78
884.51	226.77
884.82	226.75
885.13	226.74
885.44	226.74
885.74	226.74
886.05	226.74
886.36	226.74
886.67	226.71
886.98	226.77
887.28	226.79
887.59	226.78
887.90	226.79
888.20	226.78
888.51	226.80
888.82	226.78
889.13	226.80
889.43	226.91
889.74	226.90
890.05	226.90
890.35	226.88
890.66	226.86
890.97	226.84
891.28	226.84
891.58	226.85
891.89	226.85
892.20	226.84
892.50	226.84
892.81	226.82
893.12	226.81
893.42	226.75
893.73	226.73
894.04	226.74
894.34	226.74
894.65	226.74
894.95	226.72
895.26	226.73
895.57	226.78
895.87	226.65
896.18	226.68
896.48	226.68
896.79	226.68
897.10	226.70
897.40	226.71
897.71	226.72
898.01	226.71
898.32	226.73
898.63	226.73
898.93	226.73
899.24	226.75
899.54	226.75
899.85	226.75
900.15	226.75
900.46	226.75
900.76	226.76
901.07	226.77
901.38	226.77
901.68	226.78
901.99	226.71
902.29	226.72
902.60	226.71
902.90	226.70
903.21	226.70
903.51	226.70
903.82	226.74
904.12	226.74
904.43	226.74
904.73	226.72
905.03	226.73
905.34	226.84
905.64	226.83
905.95	226.83
906.25	226.83
906.56	226.82
906.86	226.83
907.17	226.81
907.47	226.82
907.77	226.80
908.08	226.77
908.38	226.79
908.69	226.80
908.99	226.82
909.30	226.83
909.60	226.82
909.90	226.81
910.21	226.77
910.51	226.75
910.81	226.77
911.12	226.78
911.42	226.78
911.73	226.64
912.03	226.66
912.33	226.69
912.64	226.68
912.94	226.67
913.24	226.64
913.55	226.64
913.85	226.62
914.15	226.65
914.46	226.67
914.76	226.65
915.06	226.63
915.37	226.60
915.67	226.60
915.97	226.60
916.27	226.58
916.58	226.58
916.88	226.56
917.18	226.55
917.49	226.63
917.79	226.62
918.09	226.64
918.39	226.67
918.70	226.66
919.00	226.67
919.30	226.73
919.60	226.73
919.91	226.71
920.21	226.72
920.51	226.70
920.81	226.69
921.12	226.70
921.42	226.70
921.72	226.72
922.02	226.72
922.32	226.75
922.63	226.75
922.93	226.83
923.23	226.84
923.53	226.83
923.83	226.75
924.13	226.75
924.44	226.74
924.74	226.75
925.04	226.77
925.34	226.76
925.64	226.70
925.94	226.70
926.24	226.78
926.55	226.77
926.85	226.78
927.15	226.77
927.45	226.77
927.75	226.77
928.05	226.77
928.35	226.76
928.65	226.76
928.95	226.77
929.26	226.71
929.56	226.74
929.86	226.77
930.16	226.75
930.46	226.74
930.76	226.75
931.06	226.69
931.36	226.66
931.66	226.67
931.96	226.69
932.26	226.70
932.56	226.66
932.86	226.66
933.16	226.66
933.46	226.66
933.76	226.64
934.06	226.66
934.36	226.71
934.66	226.71
934.96	226.70
935.26	226.70
935.56	226.72
935.86	226.68
936.16	226.64
936.46	226.64
936.76	226.63
937.06	226.61
937.36	226.62
937.66	226.63
937.96	226.62
938.26	226.60
938.56	226.58
938.86	226.57
939.16	226.60
939.46	226.61
939.76	226.61
940.06	226.62
940.35	226.60
940.65	226.54
940.95	226.55
941.25	226.51
941.55	226.50
941.85	226.49
942.15	226.51
942.45	226.55
942.75	226.56
943.04	226.57
943.34	226.61
943.64	226.60
943.94	226.59
944.24	226.59
944.54	226.60
944.84	226.60
945.13	226.59
945.43	226.57
945.73	226.56
946.03	226.55
946.33	226.54
946.62	226.52
946.92	226.52
947.22	226.53
947.52	226.54
947.82	226.55
948.11	226.54
948.41	226.51
948.71	226.48
949.01	226.49
949.31	226.48
949.60	226.46
949.90	226.48
950.20	226.48
950.50	226.47
950.79	226.47
951.09	226.50
951.39	226.50
951.69	226.48
951.98	226.52
952.28	226.53
952.58	226.53
952.87	226.53
953.17	226.54
953.47	226.52
953.76	226.52
954.06	226.51
954.36	226.49
954.66	226.49
954.95	226.52
955.25	226.53
955.55	226.55
955.84	226.53
956.14	226.54
956.44	226.55
956.73	226.54
957.03	226.55
957.32	226.53
957.62	226.53
957.92	226.57
958.21	226.55
958.51	226.68
958.81	226.70
959.10	226.72
959.40	226.73
959.69	226.74
959.99	226.75
960.29	226.74
960.58	226.74
960.88	226.78
961.17	226.76
961.47	226.77
961.76	226.74
962.06	226.76
962.36	226.74
962.65	226.74
962.95	226.74
963.24	226.72
963.54	226.72
963.83	226.72
964.13	226.71
964.42	226.69
964.72	226.59
965.01	226.60
965.31	226.58
965.60	226.56
965.90	226.64
966.19	226.61
966.49	226.62
966.78	226.62
967.08	226.61
967.37	226.61
967.67	226.58
967.96	226.61
968.26	226.60
968.55	226.62
968.85	226.61
969.14	226.61
969.43	226.61
969.73	226.60
970.02	226.59
970.32	226.59
970.61	226.57
970.91	226.53
971.20	226.51
971.49	226.50
971.79	226.52
972.08	226.43
972.38	226.44
972.67	226.44
972.96	226.47
973.26	226.44
973.55	226.48
973.85	226.48
974.14	226.47
974.43	226.48
974.73	226.45
975.02	226.44
975.31	226.45
975.61	226.44
975.90	226.44
976.19	226.42
976.49	226.44
976.78	226.44
977.07	226.45
977.37	226.45
977.66	226.46
977.95	226.44
978.24	226.45
978.54	226.48
978.83	226.46
979.12	226.44
979.42	226.44
979.71	226.41
980.00	226.41
980.29	226.42
980.59	226.40
980.88	226.43
981.17	226.43
981.46	226.42
981.76	226.44
982.05	226.48
982.34	226.50
982.63	226.49
982.93	226.49
983.22	226.52
983.51	226.53
983.80	226.54
984.09	226.55
984.39	226.55
984.68	226.53
984.97	226.54
985.26	226.53
985.55	226.54
985.85	226.52
986.14	226.54
986.43	226.56
986.72	226.55
987.01	226.51
987.30	226.52
987.59	226.52
987.89	226.51
988.18	226.47
988.47	226.46
988.76	226.45
989.05	226.44
989.34	226.42
989.63	226.44
989.92	226.41
990.22	226.40
990.51	226.40
990.80	226.38
991.09	226.39
991.38	226.39
991.67	226.39
991.96	226.38
992.25	226.38
992.54	226.35
992.83	226.36
993.12	226.36
993.41	226.37
993.70	226.42
993.99	226.45
994.28	226.46
994.58	226.48
994.87	226.46
995.16	226.47
995.45	226.47
995.74	226.43
996.03	226.46
996.32	226.48
996.61	226.51
996.90	226.51
997.19	226.50
997.48	226.51
997.77	226.49
998.06	226.50
998.34	226.49
998.63	226.49
998.92	226.48
999.21	226.51
999.50	226.50
999.79	226.46
1000.08	226.45
1000.37	226.45
1000.66	226.44
1000.95	226.48
1001.24	226.48
1001.53	226.49
1001.82	226.48
1002.11	226.46
1002.40	226.47
1002.68	226.49
1002.97	226.57
1003.26	226.56
1003.55	226.54
1003.84	226.55
1004.13	226.58
1004.42	226.57
1004.71	226.57
1004.99	226.56
1005.28	226.59
1005.57	226.57
1005.86	226.56
1006.15	226.55
1006.44	226.53
1006.72	226.54
1007.01	226.52
1007.30	226.53
1007.59	226.50
1007.88	226.51
1008.17	226.51
1008.45	226.48
1008.74	226.44
1009.03	226.38
1009.32	226.39
1009.60	226.39
1009.89	226.39
1010.18	226.34
1010.47	226.34
1010.76	226.35
1011.04	226.34
1011.33	226.34
1011.62	226.36
1011.91	226.36
1012.19	226.37
1012.48	226.37
1012.77	226.36
1013.05	226.40
1013.34	226.38
1013.63	226.39
1013.92	226.40
1014.20	226.38
1014.49	226.39
1014.78	226.40
1015.06	226.35
1015.35	226.35
1015.64	226.36
1015.92	226.38
1016.21	226.39
1016.50	226.40
1016.78	226.41
1017.07	226.43
1017.36	226.41
1017.64	226.39
1017.93	226.40
1018.22	226.39
1018.50	226.39
1018.79	226.39
1019.08	226.35
1019.36	226.36
1019.65	226.34
1019.93	226.37
1020.22	226.40
1020.51	226.46
1020.79	226.44
1021.08	226.08
1021.36	226.14
1021.65	226.44
1021.94	226.41
1022.22	226.38
1022.51	225.98
1022.79	226.91
1023.08	226.55
1023.36	227.82
1023.65	226.16
>>>>>End Processed Spectral Data<<<<<
