SpectraSuite Data File
++++++++++++++++++++++++++++++++++++
Date: Sat Oct 03 20:02:50 EDT 2015
User: lab3
Dark Spectrum Present: No
Reference Spectrum Present: No
Number of Sampled Component Spectra: 1
Spectrometers: USB2E7196
Integration Time (usec): 46000 (USB2E7196)
Spectra Averaged: 24000 (USB2E7196)
Boxcar Smoothing: 10 (USB2E7196)
Correct for Electrical Dark: No (USB2E7196)
Strobe/Lamp Enabled: No (USB2E7196)
Correct for Detector Non-linearity: No (USB2E7196)
Correct for Stray Light: No (USB2E7196)
Number of Pixels in Processed Spectrum: 2048
>>>>>Begin Processed Spectral Data<<<<<
339.09	0.00
339.48	213.55
339.86	215.06
340.24	216.42
340.63	217.84
341.01	221.10
341.39	220.55
341.78	221.91
342.16	223.15
342.54	223.53
342.93	212.03
343.31	222.74
343.69	223.27
344.07	223.74
344.46	224.17
344.84	224.56
345.22	224.78
345.60	225.04
345.99	225.24
346.37	225.37
346.75	225.48
347.13	225.56
347.52	225.63
347.90	225.72
348.28	225.76
348.66	225.82
349.05	225.82
349.43	225.87
349.81	225.93
350.19	225.99
350.57	226.06
350.96	226.14
351.34	226.24
351.72	226.34
352.10	226.44
352.48	226.51
352.87	226.56
353.25	226.63
353.63	226.69
354.01	226.75
354.39	226.83
354.77	226.90
355.15	227.01
355.54	227.06
355.92	227.09
356.30	227.17
356.68	227.31
357.06	227.39
357.44	227.44
357.82	227.50
358.20	227.61
358.58	227.67
358.97	227.74
359.35	227.82
359.73	227.91
360.11	227.96
360.49	228.02
360.87	228.06
361.25	228.13
361.63	228.22
362.01	228.27
362.39	228.30
362.77	228.35
363.15	228.37
363.53	228.40
363.91	228.44
364.29	228.46
364.67	228.36
365.05	228.38
365.43	228.42
365.81	228.45
366.19	228.47
366.57	228.53
366.95	228.52
367.33	228.49
367.71	228.48
368.09	228.51
368.47	228.50
368.85	228.49
369.23	228.50
369.61	228.44
369.99	228.46
370.37	228.46
370.75	228.54
371.13	228.50
371.51	228.46
371.89	228.44
372.27	228.42
372.65	228.40
373.03	228.36
373.41	228.31
373.78	228.27
374.16	228.16
374.54	228.07
374.92	228.03
375.30	227.99
375.68	227.92
376.06	227.87
376.44	227.82
376.82	227.78
377.19	227.73
377.57	227.68
377.95	227.59
378.33	227.53
378.71	227.36
379.09	227.32
379.47	227.29
379.84	227.22
380.22	227.16
380.60	227.09
380.98	227.04
381.36	226.99
381.73	226.93
382.11	226.91
382.49	226.87
382.87	226.81
383.25	226.77
383.62	226.87
384.00	226.81
384.38	226.77
384.76	226.76
385.13	226.76
385.51	226.72
385.89	226.67
386.27	226.64
386.64	226.62
387.02	226.57
387.40	226.53
387.78	226.51
388.15	226.49
388.53	226.46
388.91	226.43
389.29	226.40
389.66	226.40
390.04	226.36
390.42	226.35
390.79	226.34
391.17	226.32
391.55	226.17
391.92	226.16
392.30	226.16
392.68	226.12
393.05	226.10
393.43	226.10
393.81	226.11
394.18	226.09
394.56	226.10
394.94	226.13
395.31	226.13
395.69	226.18
396.06	226.21
396.44	226.24
396.82	226.25
397.19	226.34
397.57	226.35
397.95	226.40
398.32	226.40
398.70	226.45
399.07	226.51
399.45	226.55
399.82	226.60
400.20	226.64
400.58	226.70
400.95	226.72
401.33	226.81
401.70	226.97
402.08	227.07
402.45	227.17
402.83	227.29
403.20	227.40
403.58	227.50
403.95	227.65
404.33	227.80
404.71	227.96
405.08	228.17
405.46	228.34
405.83	228.54
406.21	228.75
406.58	228.98
406.96	229.20
407.33	229.47
407.70	229.76
408.08	230.17
408.45	230.52
408.83	230.90
409.20	231.25
409.58	231.56
409.95	231.99
410.33	232.45
410.70	232.89
411.08	233.41
411.45	233.96
411.82	234.51
412.20	235.14
412.57	235.90
412.95	236.49
413.32	237.26
413.69	238.06
414.07	238.90
414.44	239.82
414.82	240.75
415.19	241.84
415.56	242.95
415.94	244.10
416.31	245.38
416.68	246.67
417.06	248.17
417.43	249.57
417.81	251.19
418.18	252.84
418.55	254.63
418.93	256.50
419.30	258.44
419.67	260.51
420.04	262.64
420.42	264.85
420.79	267.41
421.16	270.00
421.54	272.62
421.91	275.37
422.28	278.22
422.66	281.29
423.03	284.22
423.40	287.29
423.77	290.59
424.15	293.97
424.52	297.48
424.89	301.28
425.26	305.07
425.64	308.58
426.01	312.54
426.38	316.58
426.75	320.75
427.13	325.02
427.50	329.49
427.87	334.15
428.24	338.84
428.61	343.35
428.99	348.23
429.36	353.58
429.73	358.70
430.10	363.82
430.47	369.06
430.85	374.45
431.22	380.23
431.59	386.17
431.96	391.97
432.33	398.41
432.70	404.53
433.08	411.75
433.45	418.60
433.82	425.35
434.19	432.87
434.56	440.30
434.93	447.47
435.30	454.56
435.68	462.57
436.05	470.42
436.42	478.24
436.79	485.38
437.16	493.09
437.53	501.35
437.90	509.62
438.27	517.70
438.64	526.44
439.01	534.36
439.38	541.60
439.75	548.58
440.13	556.44
440.50	563.92
440.87	569.85
441.24	576.34
441.61	583.42
441.98	588.57
442.35	594.69
442.72	600.93
443.09	606.88
443.46	610.63
443.83	613.37
444.20	615.64
444.57	619.06
444.94	620.95
445.31	622.92
445.68	624.57
446.05	625.77
446.42	625.31
446.79	624.64
447.16	624.05
447.53	623.49
447.90	620.89
448.27	618.39
448.64	614.65
449.01	612.02
449.37	606.87
449.74	602.22
450.11	596.23
450.48	589.69
450.85	583.15
451.22	577.58
451.59	572.13
451.96	567.21
452.33	560.06
452.70	553.73
453.07	546.00
453.43	538.31
453.80	530.85
454.17	523.70
454.54	517.14
454.91	509.70
455.28	502.75
455.65	496.20
456.02	489.27
456.38	483.71
456.75	476.56
457.12	470.80
457.49	464.99
457.86	459.54
458.23	454.77
458.59	449.46
458.96	444.01
459.33	439.23
459.70	434.35
460.07	430.66
460.43	426.31
460.80	422.25
461.17	418.74
461.54	414.90
461.91	411.32
462.27	407.66
462.64	404.74
463.01	401.36
463.38	397.96
463.74	394.90
464.11	392.19
464.48	389.76
464.85	387.09
465.21	385.09
465.58	382.84
465.95	380.25
466.32	378.21
466.68	376.19
467.05	374.17
467.42	372.19
467.78	370.04
468.15	368.07
468.52	366.63
468.88	364.69
469.25	362.91
469.62	361.50
469.98	359.96
470.35	358.58
470.72	357.34
471.08	356.07
471.45	354.99
471.82	353.80
472.18	352.53
472.55	351.71
472.92	350.68
473.28	349.86
473.65	348.98
474.02	348.15
474.38	347.44
474.75	347.01
475.11	346.42
475.48	346.13
475.85	345.82
476.21	345.64
476.58	345.51
476.94	345.61
477.31	345.65
477.67	345.72
478.04	345.90
478.41	346.17
478.77	346.58
479.14	346.83
479.50	347.34
479.87	348.01
480.23	348.68
480.60	349.34
480.96	350.00
481.33	351.01
481.69	352.00
482.06	352.99
482.42	353.89
482.79	355.02
483.15	356.34
483.52	357.84
483.88	359.28
484.25	360.82
484.61	362.43
484.98	364.17
485.34	366.12
485.71	368.18
486.07	370.37
486.44	372.56
486.80	375.00
487.17	377.54
487.53	380.32
487.90	383.22
488.26	386.39
488.62	389.74
488.99	393.09
489.35	396.61
489.72	400.44
490.08	404.47
490.44	408.63
490.81	412.95
491.17	417.37
491.54	422.12
491.90	427.02
492.26	432.27
492.63	437.76
492.99	443.49
493.36	449.43
493.72	455.67
494.08	462.08
494.45	468.87
494.81	475.92
495.17	483.16
495.54	490.83
495.90	498.79
496.26	506.93
496.63	515.33
496.99	524.04
497.35	533.17
497.72	542.59
498.08	552.21
498.44	562.15
498.80	572.70
499.17	583.51
499.53	594.65
499.89	606.17
500.26	617.94
500.62	629.99
500.98	642.69
501.34	655.58
501.71	668.99
502.07	682.60
502.43	696.76
502.79	711.14
503.16	725.99
503.52	741.01
503.88	756.49
504.24	772.43
504.60	788.58
504.97	805.22
505.33	822.29
505.69	840.31
506.05	858.67
506.41	876.97
506.78	895.46
507.14	914.46
507.50	933.89
507.86	953.69
508.22	973.71
508.59	993.55
508.95	1014.18
509.31	1035.55
509.67	1057.67
510.03	1079.81
510.39	1101.99
510.75	1124.31
511.12	1146.95
511.48	1169.74
511.84	1192.52
512.20	1215.73
512.56	1239.87
512.92	1264.04
513.28	1287.73
513.64	1311.70
514.00	1336.14
514.37	1360.93
514.73	1385.62
515.09	1410.20
515.45	1435.10
515.81	1460.20
516.17	1485.33
516.53	1510.07
516.89	1534.66
517.25	1559.41
517.61	1583.95
517.97	1608.94
518.33	1633.51
518.69	1658.01
519.05	1682.94
519.41	1708.18
519.77	1733.67
520.13	1758.31
520.49	1782.92
520.85	1807.85
521.21	1832.43
521.57	1857.31
521.93	1881.59
522.29	1906.46
522.65	1930.74
523.01	1954.98
523.37	1978.80
523.73	2003.44
524.09	2027.65
524.45	2051.63
524.81	2075.27
525.17	2098.82
525.53	2121.76
525.89	2145.11
526.25	2168.51
526.61	2190.88
526.97	2213.35
527.33	2235.74
527.68	2257.92
528.04	2279.19
528.40	2299.55
528.76	2320.04
529.12	2340.06
529.48	2359.87
529.84	2377.69
530.20	2396.27
530.56	2414.19
530.91	2432.28
531.27	2449.98
531.63	2466.80
531.99	2483.19
532.35	2498.81
532.71	2514.60
533.07	2531.01
533.42	2545.63
533.78	2561.16
534.14	2576.99
534.50	2591.88
534.86	2606.46
535.21	2618.96
535.57	2632.09
535.93	2645.07
536.29	2656.86
536.65	2668.39
537.00	2679.09
537.36	2690.86
537.72	2701.32
538.08	2711.17
538.44	2720.27
538.79	2728.97
539.15	2736.98
539.51	2744.60
539.87	2751.64
540.22	2756.54
540.58	2761.61
540.94	2767.78
541.29	2772.45
541.65	2775.30
542.01	2777.36
542.37	2778.79
542.72	2781.67
543.08	2782.74
543.44	2784.40
543.79	2785.05
544.15	2784.89
544.51	2785.17
544.87	2784.32
545.22	2782.56
545.58	2780.15
545.94	2777.73
546.29	2774.03
546.65	2770.31
547.01	2766.55
547.36	2763.52
547.72	2760.77
548.07	2756.16
548.43	2750.14
548.79	2743.01
549.14	2737.20
549.50	2731.77
549.86	2725.28
550.21	2717.62
550.57	2711.00
550.92	2701.97
551.28	2693.47
551.64	2685.42
551.99	2676.95
552.35	2667.82
552.70	2659.01
553.06	2650.54
553.41	2641.45
553.77	2632.21
554.13	2622.93
554.48	2612.71
554.84	2601.21
555.19	2590.07
555.55	2579.09
555.90	2568.22
556.26	2558.01
556.61	2546.58
556.97	2533.49
557.32	2520.83
557.68	2508.27
558.03	2495.39
558.39	2483.86
558.74	2472.64
559.10	2459.62
559.45	2446.79
559.81	2434.57
560.16	2421.64
560.52	2409.11
560.87	2397.02
561.23	2384.02
561.58	2370.98
561.94	2357.74
562.29	2343.88
562.64	2330.83
563.00	2317.49
563.35	2304.45
563.71	2291.24
564.06	2278.00
564.42	2265.55
564.77	2252.63
565.12	2239.53
565.48	2226.36
565.83	2213.05
566.19	2199.94
566.54	2186.77
566.89	2172.53
567.25	2158.40
567.60	2145.78
567.96	2132.17
568.31	2117.09
568.66	2102.72
569.02	2089.62
569.37	2076.48
569.72	2063.89
570.08	2050.02
570.43	2035.73
570.78	2021.38
571.14	2006.29
571.49	1991.81
571.84	1977.90
572.20	1962.80
572.55	1947.89
572.90	1932.96
573.26	1918.17
573.61	1902.81
573.96	1887.87
574.31	1873.17
574.67	1858.63
575.02	1842.90
575.37	1827.33
575.72	1812.65
576.08	1798.25
576.43	1782.74
576.78	1767.63
577.13	1752.76
577.49	1738.24
577.84	1724.36
578.19	1709.54
578.54	1694.84
578.90	1679.68
579.25	1664.40
579.60	1650.77
579.95	1637.03
580.30	1623.09
580.66	1608.84
581.01	1594.56
581.36	1580.30
581.71	1566.98
582.06	1553.59
582.42	1540.43
582.77	1527.31
583.12	1514.21
583.47	1501.02
583.82	1487.92
584.17	1474.43
584.53	1460.67
584.88	1447.27
585.23	1433.50
585.58	1420.48
585.93	1407.65
586.28	1395.59
586.63	1383.46
586.98	1370.87
587.34	1358.36
587.69	1345.60
588.04	1333.15
588.39	1321.05
588.74	1309.08
589.09	1296.93
589.44	1284.34
589.79	1272.38
590.14	1260.51
590.49	1248.52
590.84	1236.71
591.19	1225.31
591.54	1213.72
591.89	1202.26
592.25	1191.04
592.60	1179.41
592.95	1168.20
593.30	1157.30
593.65	1146.08
594.00	1135.01
594.35	1124.47
594.70	1113.49
595.05	1103.36
595.40	1093.12
595.75	1082.71
596.10	1072.84
596.45	1062.75
596.80	1053.02
597.15	1043.00
597.50	1033.15
597.85	1023.73
598.19	1014.12
598.54	1004.53
598.89	995.46
599.24	986.68
599.59	977.66
599.94	969.55
600.29	961.25
600.64	952.66
600.99	943.72
601.34	935.11
601.69	926.19
602.04	917.95
602.39	909.50
602.74	901.17
603.08	892.79
603.43	884.37
603.78	876.12
604.13	867.99
604.48	859.89
604.83	851.95
605.18	843.98
605.53	836.17
605.87	828.21
606.22	820.47
606.57	812.72
606.92	804.90
607.27	797.01
607.62	789.41
607.96	782.20
608.31	775.44
608.66	768.50
609.01	761.82
609.36	755.23
609.70	748.50
610.05	741.70
610.40	735.19
610.75	728.63
611.10	722.42
611.44	716.07
611.79	709.82
612.14	703.50
612.49	697.24
612.83	691.27
613.18	685.43
613.53	679.53
613.88	673.62
614.22	668.10
614.57	662.54
614.92	656.85
615.27	651.25
615.61	645.72
615.96	640.24
616.31	634.78
616.65	629.35
617.00	624.10
617.35	619.01
617.70	613.92
618.04	608.93
618.39	603.81
618.74	598.95
619.08	594.13
619.43	589.44
619.78	584.75
620.12	580.04
620.47	575.47
620.82	571.01
621.16	566.62
621.51	562.12
621.85	557.65
622.20	553.33
622.55	549.08
622.89	544.89
623.24	540.72
623.59	536.56
623.93	532.57
624.28	528.71
624.62	524.91
624.97	521.16
625.32	517.37
625.66	513.54
626.01	509.68
626.35	505.88
626.70	502.13
627.04	498.58
627.39	494.93
627.73	491.47
628.08	488.10
628.43	484.71
628.77	481.40
629.12	478.21
629.46	475.07
629.81	471.81
630.15	468.53
630.50	465.36
630.84	462.25
631.19	459.19
631.53	456.22
631.88	453.21
632.22	450.24
632.57	447.55
632.91	444.88
633.26	442.31
633.60	439.77
633.95	437.26
634.29	434.67
634.64	432.16
634.98	429.47
635.32	426.90
635.67	424.53
636.01	422.11
636.36	419.70
636.70	417.42
637.05	415.17
637.39	412.96
637.73	410.75
638.08	408.67
638.42	406.58
638.77	404.34
639.11	402.06
639.45	399.86
639.80	397.60
640.14	395.45
640.49	393.29
640.83	391.10
641.17	389.01
641.52	386.97
641.86	384.96
642.20	383.14
642.55	381.17
642.89	379.23
643.23	377.38
643.58	375.69
643.92	373.88
644.26	372.13
644.61	370.42
644.95	368.69
645.29	366.88
645.64	365.08
645.98	363.40
646.32	361.82
646.66	360.23
647.01	358.67
647.35	357.15
647.69	355.62
648.04	354.20
648.38	352.72
648.72	351.24
649.06	349.78
649.41	348.32
649.75	346.92
650.09	345.55
650.43	344.17
650.78	342.75
651.12	341.38
651.46	340.05
651.80	338.75
652.14	337.48
652.49	336.25
652.83	334.99
653.17	333.79
653.51	332.62
653.85	331.50
654.20	330.33
654.54	329.09
654.88	327.95
655.22	326.83
655.56	325.71
655.90	324.65
656.25	323.61
656.59	322.56
656.93	321.58
657.27	320.61
657.61	319.58
657.95	318.61
658.29	317.62
658.64	316.68
658.98	315.74
659.32	314.83
659.66	313.97
660.00	313.13
660.34	312.28
660.68	311.42
661.02	310.52
661.36	309.67
661.70	308.86
662.05	308.07
662.39	307.28
662.73	306.56
663.07	305.85
663.41	305.10
663.75	304.36
664.09	303.61
664.43	302.82
664.77	302.12
665.11	301.38
665.45	300.70
665.79	300.02
666.13	299.32
666.47	298.61
666.81	297.88
667.15	297.13
667.49	296.47
667.83	295.88
668.17	295.26
668.51	294.67
668.85	294.12
669.19	293.60
669.53	292.98
669.87	292.35
670.21	291.75
670.55	291.19
670.89	290.71
671.23	290.18
671.57	289.66
671.91	289.19
672.25	288.74
672.58	288.30
672.92	287.77
673.26	287.32
673.60	286.87
673.94	286.45
674.28	286.06
674.62	285.63
674.96	285.14
675.30	284.72
675.64	284.26
675.97	283.79
676.31	283.29
676.65	282.85
676.99	282.48
677.33	282.03
677.67	281.61
678.01	281.12
678.34	280.72
678.68	280.33
679.02	279.88
679.36	279.45
679.70	279.01
680.04	278.62
680.37	278.23
680.71	277.85
681.05	277.48
681.39	277.08
681.73	276.65
682.06	276.25
682.40	275.87
682.74	275.53
683.08	275.25
683.42	274.89
683.75	274.58
684.09	274.17
684.43	273.84
684.77	273.50
685.10	273.20
685.44	272.87
685.78	272.53
686.12	272.23
686.45	271.90
686.79	271.56
687.13	271.25
687.46	270.91
687.80	270.59
688.14	270.22
688.48	269.92
688.81	269.61
689.15	269.33
689.49	269.00
689.82	268.66
690.16	268.27
690.50	267.96
690.83	267.64
691.17	267.32
691.51	267.01
691.84	266.71
692.18	266.38
692.52	266.05
692.85	265.73
693.19	265.46
693.52	265.15
693.86	264.85
694.20	264.54
694.53	264.26
694.87	263.94
695.21	263.64
695.54	263.34
695.88	263.04
696.21	262.70
696.55	262.42
696.88	262.13
697.22	261.84
697.56	261.55
697.89	261.22
698.23	260.94
698.56	260.63
698.90	260.35
699.23	260.04
699.57	259.75
699.90	259.44
700.24	259.12
700.58	258.86
700.91	258.62
701.25	258.46
701.58	258.24
701.92	258.01
702.25	257.76
702.59	257.48
702.92	257.22
703.26	256.96
703.59	256.69
703.93	256.52
704.26	256.27
704.60	256.00
704.93	255.74
705.26	255.47
705.60	255.25
705.93	254.97
706.27	254.76
706.60	254.55
706.94	254.35
707.27	254.08
707.61	253.82
707.94	253.54
708.27	253.17
708.61	252.85
708.94	252.57
709.28	252.33
709.61	252.08
709.94	251.86
710.28	251.64
710.61	251.43
710.95	251.10
711.28	250.95
711.61	250.72
711.95	250.54
712.28	250.31
712.61	250.06
712.95	249.91
713.28	249.76
713.61	249.51
713.95	249.25
714.28	249.05
714.61	248.83
714.95	248.62
715.28	248.41
715.61	248.22
715.95	248.03
716.28	247.84
716.61	247.67
716.95	247.46
717.28	247.26
717.61	247.05
717.94	246.86
718.28	246.57
718.61	246.37
718.94	246.15
719.27	245.97
719.61	245.80
719.94	245.58
720.27	245.31
720.60	245.12
720.94	244.94
721.27	244.76
721.60	244.61
721.93	244.43
722.27	244.29
722.60	244.13
722.93	243.94
723.26	243.77
723.59	243.55
723.93	243.39
724.26	243.23
724.59	243.06
724.92	242.90
725.25	242.79
725.59	242.63
725.92	242.49
726.25	242.34
726.58	242.18
726.91	242.02
727.24	241.89
727.57	241.74
727.91	241.57
728.24	241.45
728.57	241.29
728.90	241.16
729.23	240.96
729.56	240.87
729.89	240.72
730.22	240.57
730.55	240.43
730.89	240.29
731.22	240.14
731.55	240.00
731.88	239.86
732.21	239.69
732.54	239.55
732.87	239.42
733.20	239.29
733.53	239.16
733.86	239.04
734.19	238.89
734.52	238.79
734.85	238.75
735.18	238.60
735.51	238.51
735.84	238.39
736.17	238.31
736.50	238.12
736.83	238.15
737.16	238.04
737.49	237.93
737.82	237.81
738.15	237.72
738.48	237.61
738.81	237.49
739.14	237.37
739.47	237.25
739.80	237.12
740.13	237.02
740.46	236.89
740.79	236.76
741.12	236.65
741.45	236.52
741.78	236.34
742.11	236.26
742.44	236.12
742.77	236.03
743.10	235.90
743.43	235.79
743.75	235.55
744.08	235.65
744.41	235.53
744.74	235.43
745.07	235.31
745.40	235.23
745.73	235.19
746.06	235.11
746.39	235.03
746.71	234.93
747.04	234.83
747.37	234.74
747.70	234.68
748.03	234.60
748.36	234.53
748.68	234.44
749.01	234.32
749.34	234.24
749.67	234.15
750.00	234.09
750.33	234.10
750.65	234.03
750.98	233.76
751.31	233.68
751.64	233.60
751.97	233.59
752.29	233.50
752.62	233.36
752.95	233.27
753.28	233.17
753.60	233.09
753.93	233.05
754.26	232.98
754.59	232.86
754.91	232.77
755.24	232.68
755.57	232.66
755.90	232.59
756.22	232.50
756.55	232.41
756.88	232.30
757.20	232.14
757.53	232.04
757.86	231.96
758.19	231.90
758.51	231.83
758.84	231.69
759.17	231.61
759.49	231.55
759.82	231.55
760.15	231.50
760.47	231.43
760.80	231.33
761.13	231.28
761.45	231.22
761.78	231.17
762.11	231.11
762.43	230.98
762.76	230.93
763.08	230.88
763.41	230.83
763.74	230.79
764.06	230.73
764.39	230.69
764.71	230.63
765.04	230.56
765.37	230.50
765.69	230.45
766.02	230.40
766.34	230.34
766.67	230.25
767.00	230.22
767.32	230.24
767.65	230.27
767.97	230.21
768.30	230.17
768.62	230.12
768.95	230.06
769.27	230.01
769.60	229.98
769.92	229.92
770.25	229.85
770.57	229.79
770.90	229.74
771.22	229.69
771.55	229.65
771.87	229.61
772.20	229.57
772.52	229.64
772.85	229.75
773.17	229.72
773.50	229.67
773.82	229.61
774.15	229.51
774.47	229.39
774.80	229.34
775.12	229.30
775.45	229.26
775.77	229.24
776.09	229.22
776.42	229.18
776.74	229.19
777.07	229.16
777.39	229.13
777.72	229.09
778.04	229.08
778.36	229.04
778.69	229.01
779.01	228.99
779.33	228.85
779.66	228.67
779.98	228.64
780.31	228.61
780.63	228.64
780.95	228.64
781.28	228.61
781.60	228.58
781.92	228.55
782.25	228.53
782.57	228.50
782.89	228.46
783.22	228.43
783.54	228.38
783.86	228.36
784.19	228.33
784.51	228.35
784.83	228.31
785.16	228.29
785.48	228.26
785.80	228.24
786.12	228.23
786.45	228.21
786.77	228.19
787.09	228.16
787.42	228.09
787.74	228.07
788.06	228.06
788.38	228.04
788.71	228.01
789.03	227.99
789.35	227.99
789.67	227.95
789.99	227.94
790.32	227.91
790.64	227.90
790.96	228.00
791.28	227.94
791.61	227.91
791.93	227.90
792.25	227.88
792.57	227.95
792.89	227.91
793.21	227.90
793.54	227.87
793.86	227.84
794.18	227.83
794.50	227.78
794.82	227.76
795.14	227.76
795.47	227.77
795.79	227.75
796.11	227.70
796.43	227.68
796.75	227.67
797.07	227.66
797.39	227.64
797.71	227.52
798.04	227.50
798.36	227.50
798.68	227.48
799.00	227.48
799.32	227.40
799.64	227.41
799.96	227.39
800.28	227.40
800.60	227.38
800.92	227.37
801.24	227.35
801.56	227.35
801.89	227.32
802.21	227.31
802.53	227.28
802.85	227.30
803.17	227.34
803.49	227.30
803.81	227.28
804.13	227.25
804.45	227.23
804.77	227.23
805.09	227.21
805.41	227.19
805.73	227.15
806.05	227.10
806.37	227.08
806.69	227.05
807.01	227.03
807.33	227.03
807.65	226.97
807.97	227.02
808.28	226.99
808.60	226.98
808.92	226.95
809.24	227.02
809.56	226.98
809.88	226.92
810.20	226.92
810.52	226.94
810.84	226.91
811.16	226.89
811.48	226.86
811.80	226.90
812.12	226.89
812.43	226.90
812.75	226.90
813.07	226.88
813.39	226.87
813.71	226.85
814.03	226.82
814.35	226.82
814.67	226.76
814.98	226.74
815.30	226.73
815.62	226.70
815.94	226.61
816.26	226.62
816.58	226.58
816.89	226.59
817.21	226.54
817.53	226.55
817.85	226.55
818.17	226.54
818.48	226.47
818.80	226.49
819.12	226.46
819.44	226.44
819.76	226.41
820.07	226.40
820.39	226.39
820.71	226.40
821.03	226.39
821.34	226.38
821.66	226.39
821.98	226.39
822.30	226.38
822.61	226.45
822.93	226.43
823.25	226.42
823.57	226.40
823.88	226.41
824.20	226.40
824.52	226.41
824.83	226.40
825.15	226.38
825.47	226.36
825.79	226.37
826.10	226.36
826.42	226.35
826.74	226.35
827.05	226.34
827.37	226.34
827.69	226.33
828.00	226.33
828.32	226.32
828.64	226.30
828.95	226.36
829.27	226.32
829.58	226.32
829.90	226.33
830.22	226.34
830.53	226.31
830.85	226.30
831.17	226.26
831.48	226.26
831.80	226.26
832.11	226.25
832.43	226.22
832.75	226.22
833.06	226.29
833.38	226.26
833.69	226.25
834.01	226.24
834.32	226.24
834.64	226.22
834.96	226.21
835.27	226.21
835.59	226.16
835.90	226.13
836.22	226.12
836.53	226.10
836.85	226.07
837.16	226.20
837.48	226.20
837.79	226.24
838.11	226.24
838.42	226.23
838.74	226.24
839.05	226.23
839.37	226.22
839.68	226.14
840.00	226.13
840.31	226.15
840.63	226.13
840.94	226.12
841.26	226.11
841.57	226.10
841.88	226.11
842.20	226.09
842.51	226.07
842.83	226.06
843.14	226.18
843.46	226.17
843.77	226.09
844.08	226.09
844.40	226.05
844.71	226.03
845.03	226.02
845.34	226.00
845.65	226.00
845.97	226.00
846.28	226.01
846.60	226.01
846.91	225.99
847.22	225.98
847.54	226.01
847.85	226.02
848.16	226.00
848.48	225.97
848.79	226.02
849.10	226.04
849.42	226.04
849.73	225.92
850.04	225.91
850.36	225.87
850.67	225.89
850.98	225.89
851.30	225.90
851.61	225.89
851.92	225.89
852.23	225.93
852.55	225.93
852.86	225.93
853.17	225.94
853.49	225.97
853.80	225.99
854.11	225.99
854.42	226.00
854.74	225.99
855.05	226.00
855.36	225.93
855.67	225.93
855.99	225.93
856.30	226.08
856.61	226.07
856.92	226.08
857.23	226.08
857.55	226.06
857.86	226.05
858.17	226.08
858.48	226.05
858.79	226.02
859.11	226.03
859.42	226.02
859.73	226.00
860.04	225.99
860.35	225.95
860.66	225.91
860.98	225.90
861.29	225.92
861.60	225.91
861.91	225.94
862.22	225.92
862.53	225.90
862.84	225.75
863.16	225.77
863.47	225.75
863.78	225.73
864.09	225.74
864.40	225.74
864.71	225.74
865.02	225.75
865.33	225.74
865.64	225.71
865.95	225.71
866.27	225.79
866.58	225.77
866.89	225.79
867.20	225.79
867.51	225.76
867.82	225.76
868.13	225.79
868.44	225.77
868.75	225.79
869.06	225.79
869.37	225.81
869.68	225.77
869.99	225.80
870.30	225.80
870.61	225.81
870.92	225.79
871.23	225.78
871.54	225.79
871.85	225.83
872.16	225.84
872.47	225.83
872.78	225.76
873.09	225.77
873.40	225.75
873.71	225.76
874.02	225.77
874.33	225.76
874.64	225.73
874.95	225.75
875.26	225.72
875.56	225.72
875.87	225.71
876.18	225.70
876.49	225.83
876.80	225.81
877.11	225.79
877.42	225.80
877.73	225.80
878.04	225.78
878.35	225.77
878.66	225.77
878.96	225.77
879.27	225.76
879.58	225.76
879.89	225.75
880.20	225.78
880.51	225.78
880.82	225.78
881.12	225.79
881.43	225.76
881.74	225.75
882.05	225.74
882.36	225.75
882.67	225.76
882.97	225.63
883.28	225.62
883.59	225.61
883.90	225.62
884.21	225.64
884.51	225.63
884.82	225.61
885.13	225.61
885.44	225.61
885.74	225.61
886.05	225.60
886.36	225.60
886.67	225.55
886.98	225.62
887.28	225.63
887.59	225.62
887.90	225.63
888.20	225.63
888.51	225.65
888.82	225.63
889.13	225.64
889.43	225.75
889.74	225.74
890.05	225.74
890.35	225.72
890.66	225.70
890.97	225.69
891.28	225.68
891.58	225.68
891.89	225.68
892.20	225.66
892.50	225.65
892.81	225.64
893.12	225.64
893.42	225.58
893.73	225.58
894.04	225.57
894.34	225.58
894.65	225.58
894.95	225.56
895.26	225.57
895.57	225.62
895.87	225.49
896.18	225.52
896.48	225.52
896.79	225.52
897.10	225.54
897.40	225.54
897.71	225.56
898.01	225.55
898.32	225.56
898.63	225.56
898.93	225.57
899.24	225.58
899.54	225.57
899.85	225.57
900.15	225.56
900.46	225.56
900.76	225.57
901.07	225.57
901.38	225.56
901.68	225.58
901.99	225.51
902.29	225.52
902.60	225.51
902.90	225.50
903.21	225.50
903.51	225.49
903.82	225.51
904.12	225.51
904.43	225.51
904.73	225.51
905.03	225.51
905.34	225.63
905.64	225.62
905.95	225.63
906.25	225.63
906.56	225.62
906.86	225.62
907.17	225.61
907.47	225.62
907.77	225.61
908.08	225.58
908.38	225.58
908.69	225.59
908.99	225.61
909.30	225.62
909.60	225.62
909.90	225.62
910.21	225.59
910.51	225.57
910.81	225.57
911.12	225.58
911.42	225.58
911.73	225.45
912.03	225.45
912.33	225.48
912.64	225.47
912.94	225.46
913.24	225.44
913.55	225.43
913.85	225.42
914.15	225.45
914.46	225.46
914.76	225.45
915.06	225.44
915.37	225.42
915.67	225.41
915.97	225.41
916.27	225.39
916.58	225.39
916.88	225.39
917.18	225.38
917.49	225.46
917.79	225.46
918.09	225.48
918.39	225.50
918.70	225.50
919.00	225.50
919.30	225.57
919.60	225.56
919.91	225.55
920.21	225.56
920.51	225.53
920.81	225.52
921.12	225.54
921.42	225.54
921.72	225.55
922.02	225.56
922.32	225.58
922.63	225.58
922.93	225.65
923.23	225.66
923.53	225.65
923.83	225.56
924.13	225.57
924.44	225.57
924.74	225.59
925.04	225.61
925.34	225.61
925.64	225.55
925.94	225.56
926.24	225.63
926.55	225.61
926.85	225.63
927.15	225.63
927.45	225.63
927.75	225.62
928.05	225.62
928.35	225.61
928.65	225.63
928.95	225.64
929.26	225.58
929.56	225.60
929.86	225.62
930.16	225.60
930.46	225.59
930.76	225.60
931.06	225.54
931.36	225.50
931.66	225.52
931.96	225.53
932.26	225.54
932.56	225.48
932.86	225.49
933.16	225.49
933.46	225.48
933.76	225.46
934.06	225.48
934.36	225.52
934.66	225.52
934.96	225.50
935.26	225.50
935.56	225.52
935.86	225.48
936.16	225.46
936.46	225.45
936.76	225.45
937.06	225.43
937.36	225.44
937.66	225.45
937.96	225.44
938.26	225.41
938.56	225.40
938.86	225.41
939.16	225.43
939.46	225.44
939.76	225.45
940.06	225.45
940.35	225.43
940.65	225.37
940.95	225.38
941.25	225.35
941.55	225.33
941.85	225.32
942.15	225.35
942.45	225.39
942.75	225.39
943.04	225.39
943.34	225.42
943.64	225.40
943.94	225.38
944.24	225.38
944.54	225.39
944.84	225.39
945.13	225.37
945.43	225.34
945.73	225.34
946.03	225.33
946.33	225.31
946.62	225.30
946.92	225.30
947.22	225.30
947.52	225.31
947.82	225.33
948.11	225.32
948.41	225.29
948.71	225.25
949.01	225.26
949.31	225.25
949.60	225.23
949.90	225.25
950.20	225.25
950.50	225.25
950.79	225.24
951.09	225.26
951.39	225.25
951.69	225.24
951.98	225.26
952.28	225.27
952.58	225.27
952.87	225.27
953.17	225.29
953.47	225.28
953.76	225.27
954.06	225.25
954.36	225.23
954.66	225.23
954.95	225.27
955.25	225.28
955.55	225.29
955.84	225.27
956.14	225.27
956.44	225.28
956.73	225.27
957.03	225.28
957.32	225.27
957.62	225.27
957.92	225.30
958.21	225.28
958.51	225.42
958.81	225.44
959.10	225.46
959.40	225.48
959.69	225.49
959.99	225.51
960.29	225.51
960.58	225.51
960.88	225.56
961.17	225.54
961.47	225.55
961.76	225.54
962.06	225.56
962.36	225.55
962.65	225.55
962.95	225.56
963.24	225.55
963.54	225.55
963.83	225.56
964.13	225.55
964.42	225.54
964.72	225.43
965.01	225.43
965.31	225.42
965.60	225.39
965.90	225.47
966.19	225.44
966.49	225.45
966.78	225.45
967.08	225.43
967.37	225.43
967.67	225.41
967.96	225.43
968.26	225.43
968.55	225.44
968.85	225.44
969.14	225.43
969.43	225.43
969.73	225.42
970.02	225.41
970.32	225.40
970.61	225.39
970.91	225.35
971.20	225.33
971.49	225.32
971.79	225.34
972.08	225.25
972.38	225.26
972.67	225.25
972.96	225.27
973.26	225.24
973.55	225.28
973.85	225.27
974.14	225.26
974.43	225.27
974.73	225.25
975.02	225.24
975.31	225.24
975.61	225.24
975.90	225.23
976.19	225.22
976.49	225.23
976.78	225.24
977.07	225.24
977.37	225.25
977.66	225.26
977.95	225.24
978.24	225.26
978.54	225.28
978.83	225.27
979.12	225.26
979.42	225.26
979.71	225.24
980.00	225.24
980.29	225.24
980.59	225.22
980.88	225.25
981.17	225.25
981.46	225.25
981.76	225.25
982.05	225.29
982.34	225.30
982.63	225.29
982.93	225.30
983.22	225.33
983.51	225.33
983.80	225.35
984.09	225.37
984.39	225.36
984.68	225.34
984.97	225.35
985.26	225.34
985.55	225.35
985.85	225.32
986.14	225.34
986.43	225.36
986.72	225.35
987.01	225.31
987.30	225.31
987.59	225.30
987.89	225.31
988.18	225.27
988.47	225.26
988.76	225.25
989.05	225.24
989.34	225.22
989.63	225.25
989.92	225.23
990.22	225.21
990.51	225.21
990.80	225.20
991.09	225.21
991.38	225.22
991.67	225.21
991.96	225.20
992.25	225.21
992.54	225.18
992.83	225.19
993.12	225.18
993.41	225.20
993.70	225.25
993.99	225.27
994.28	225.29
994.58	225.31
994.87	225.30
995.16	225.30
995.45	225.29
995.74	225.24
996.03	225.26
996.32	225.28
996.61	225.30
996.90	225.30
997.19	225.29
997.48	225.29
997.77	225.28
998.06	225.29
998.34	225.28
998.63	225.28
998.92	225.29
999.21	225.31
999.50	225.30
999.79	225.26
1000.08	225.25
1000.37	225.25
1000.66	225.23
1000.95	225.27
1001.24	225.28
1001.53	225.29
1001.82	225.29
1002.11	225.26
1002.40	225.27
1002.68	225.30
1002.97	225.38
1003.26	225.37
1003.55	225.35
1003.84	225.36
1004.13	225.40
1004.42	225.40
1004.71	225.40
1004.99	225.39
1005.28	225.42
1005.57	225.41
1005.86	225.40
1006.15	225.38
1006.44	225.37
1006.72	225.38
1007.01	225.36
1007.30	225.36
1007.59	225.34
1007.88	225.34
1008.17	225.35
1008.45	225.33
1008.74	225.27
1009.03	225.21
1009.32	225.21
1009.60	225.22
1009.89	225.20
1010.18	225.15
1010.47	225.14
1010.76	225.14
1011.04	225.14
1011.33	225.14
1011.62	225.15
1011.91	225.16
1012.19	225.16
1012.48	225.17
1012.77	225.17
1013.05	225.21
1013.34	225.21
1013.63	225.21
1013.92	225.22
1014.20	225.21
1014.49	225.22
1014.78	225.23
1015.06	225.19
1015.35	225.19
1015.64	225.21
1015.92	225.23
1016.21	225.24
1016.50	225.24
1016.78	225.25
1017.07	225.27
1017.36	225.24
1017.64	225.22
1017.93	225.24
1018.22	225.22
1018.50	225.22
1018.79	225.22
1019.08	225.17
1019.36	225.18
1019.65	225.17
1019.93	225.20
1020.22	225.22
1020.51	225.29
1020.79	225.27
1021.08	225.05
1021.36	225.03
1021.65	225.24
1021.94	225.15
1022.22	225.28
1022.51	224.95
1022.79	225.81
1023.08	225.40
1023.36	226.76
1023.65	224.96
>>>>>End Processed Spectral Data<<<<<
