SpectraSuite Data File
++++++++++++++++++++++++++++++++++++
Date: Sun Oct 04 06:05:42 EDT 2015
User: lab3
Dark Spectrum Present: No
Reference Spectrum Present: No
Number of Sampled Component Spectra: 1
Spectrometers: USB2E7196
Integration Time (usec): 46000 (USB2E7196)
Spectra Averaged: 24000 (USB2E7196)
Boxcar Smoothing: 10 (USB2E7196)
Correct for Electrical Dark: No (USB2E7196)
Strobe/Lamp Enabled: No (USB2E7196)
Correct for Detector Non-linearity: No (USB2E7196)
Correct for Stray Light: No (USB2E7196)
Number of Pixels in Processed Spectrum: 2048
>>>>>Begin Processed Spectral Data<<<<<
339.09	0.00
339.48	213.03
339.86	214.46
340.24	215.82
340.63	217.26
341.01	220.54
341.39	219.98
341.78	221.35
342.16	222.58
342.54	222.96
342.93	211.48
343.31	222.17
343.69	222.70
344.07	223.16
344.46	223.60
344.84	223.99
345.22	224.21
345.60	224.47
345.99	224.67
346.37	224.81
346.75	224.92
347.13	225.00
347.52	225.07
347.90	225.17
348.28	225.21
348.66	225.27
349.05	225.27
349.43	225.32
349.81	225.39
350.19	225.45
350.57	225.52
350.96	225.60
351.34	225.70
351.72	225.80
352.10	225.91
352.48	225.98
352.87	226.03
353.25	226.10
353.63	226.16
354.01	226.23
354.39	226.30
354.77	226.38
355.15	226.49
355.54	226.54
355.92	226.57
356.30	226.64
356.68	226.79
357.06	226.87
357.44	226.92
357.82	226.98
358.20	227.09
358.58	227.15
358.97	227.22
359.35	227.30
359.73	227.38
360.11	227.43
360.49	227.49
360.87	227.54
361.25	227.61
361.63	227.70
362.01	227.75
362.39	227.78
362.77	227.82
363.15	227.85
363.53	227.88
363.91	227.91
364.29	227.93
364.67	227.83
365.05	227.86
365.43	227.89
365.81	227.92
366.19	227.94
366.57	227.99
366.95	227.99
367.33	227.96
367.71	227.96
368.09	227.98
368.47	227.97
368.85	227.96
369.23	227.97
369.61	227.91
369.99	227.93
370.37	227.93
370.75	228.01
371.13	227.98
371.51	227.93
371.89	227.92
372.27	227.89
372.65	227.87
373.03	227.83
373.41	227.79
373.78	227.74
374.16	227.63
374.54	227.55
374.92	227.50
375.30	227.47
375.68	227.40
376.06	227.35
376.44	227.29
376.82	227.25
377.19	227.20
377.57	227.15
377.95	227.06
378.33	227.00
378.71	226.83
379.09	226.79
379.47	226.76
379.84	226.69
380.22	226.63
380.60	226.56
380.98	226.51
381.36	226.46
381.73	226.40
382.11	226.38
382.49	226.33
382.87	226.27
383.25	226.23
383.62	226.34
384.00	226.27
384.38	226.23
384.76	226.22
385.13	226.22
385.51	226.18
385.89	226.13
386.27	226.10
386.64	226.08
387.02	226.04
387.40	225.99
387.78	225.97
388.15	225.95
388.53	225.92
388.91	225.90
389.29	225.86
389.66	225.86
390.04	225.82
390.42	225.82
390.79	225.82
391.17	225.80
391.55	225.64
391.92	225.63
392.30	225.64
392.68	225.60
393.05	225.58
393.43	225.58
393.81	225.59
394.18	225.57
394.56	225.58
394.94	225.61
395.31	225.61
395.69	225.66
396.06	225.69
396.44	225.72
396.82	225.73
397.19	225.83
397.57	225.84
397.95	225.89
398.32	225.88
398.70	225.93
399.07	226.01
399.45	226.05
399.82	226.10
400.20	226.14
400.58	226.21
400.95	226.22
401.33	226.32
401.70	226.48
402.08	226.59
402.45	226.69
402.83	226.81
403.20	226.94
403.58	227.04
403.95	227.19
404.33	227.35
404.71	227.51
405.08	227.73
405.46	227.91
405.83	228.12
406.21	228.33
406.58	228.57
406.96	228.81
407.33	229.08
407.70	229.39
408.08	229.80
408.45	230.17
408.83	230.56
409.20	230.92
409.58	231.25
409.95	231.69
410.33	232.18
410.70	232.63
411.08	233.16
411.45	233.74
411.82	234.31
412.20	234.97
412.57	235.75
412.95	236.37
413.32	237.17
413.69	238.00
414.07	238.87
414.44	239.82
414.82	240.78
415.19	241.92
415.56	243.07
415.94	244.27
416.31	245.61
416.68	246.95
417.06	248.50
417.43	249.96
417.81	251.64
418.18	253.34
418.55	255.22
418.93	257.16
419.30	259.18
419.67	261.34
420.04	263.54
420.42	265.84
420.79	268.51
421.16	271.20
421.54	273.92
421.91	276.79
422.28	279.75
422.66	282.94
423.03	285.99
423.40	289.19
423.77	292.62
424.15	296.13
424.52	299.79
424.89	303.75
425.26	307.69
425.64	311.35
426.01	315.47
426.38	319.68
426.75	324.02
427.13	328.47
427.50	333.12
427.87	337.96
428.24	342.86
428.61	347.56
428.99	352.64
429.36	358.22
429.73	363.55
430.10	368.88
430.47	374.34
430.85	379.95
431.22	385.97
431.59	392.15
431.96	398.18
432.33	404.89
432.70	411.27
433.08	418.79
433.45	425.92
433.82	432.94
434.19	440.77
434.56	448.49
434.93	455.96
435.30	463.34
435.68	471.68
436.05	479.85
436.42	488.00
436.79	495.43
437.16	503.45
437.53	512.05
437.90	520.66
438.27	529.07
438.64	538.18
439.01	546.42
439.38	553.97
439.75	561.24
440.13	569.43
440.50	577.23
440.87	583.42
441.24	590.19
441.61	597.57
441.98	602.95
442.35	609.33
442.72	615.85
443.09	622.06
443.46	625.98
443.83	628.84
444.20	631.21
444.57	634.79
444.94	636.78
445.31	638.84
445.68	640.58
446.05	641.84
446.42	641.38
446.79	640.71
447.16	640.10
447.53	639.53
447.90	636.83
448.27	634.24
448.64	630.36
449.01	627.63
449.37	622.26
449.74	617.42
450.11	611.18
450.48	604.37
450.85	597.57
451.22	591.76
451.59	586.10
451.96	580.97
452.33	573.53
452.70	566.94
453.07	558.90
453.43	550.89
453.80	543.12
454.17	535.67
454.54	528.83
454.91	521.10
455.28	513.86
455.65	507.04
456.02	499.81
456.38	494.02
456.75	486.57
457.12	480.58
457.49	474.53
457.86	468.85
458.23	463.87
458.59	458.33
458.96	452.65
459.33	447.67
459.70	442.57
460.07	438.72
460.43	434.18
460.80	429.94
461.17	426.27
461.54	422.26
461.91	418.51
462.27	414.70
462.64	411.64
463.01	408.10
463.38	404.54
463.74	401.35
464.11	398.52
464.48	395.97
464.85	393.18
465.21	391.09
465.58	388.73
465.95	386.02
466.32	383.88
466.68	381.77
467.05	379.65
467.42	377.58
467.78	375.33
468.15	373.26
468.52	371.76
468.88	369.72
469.25	367.86
469.62	366.38
469.98	364.75
470.35	363.30
470.72	361.99
471.08	360.65
471.45	359.52
471.82	358.26
472.18	356.93
472.55	356.06
472.92	354.97
473.28	354.10
473.65	353.18
474.02	352.29
474.38	351.54
474.75	351.08
475.11	350.45
475.48	350.13
475.85	349.79
476.21	349.59
476.58	349.43
476.94	349.52
477.31	349.55
477.67	349.60
478.04	349.78
478.41	350.05
478.77	350.45
479.14	350.69
479.50	351.20
479.87	351.88
480.23	352.56
480.60	353.23
480.96	353.91
481.33	354.94
481.69	355.95
482.06	356.96
482.42	357.89
482.79	359.04
483.15	360.39
483.52	361.93
483.88	363.40
484.25	364.99
484.61	366.63
484.98	368.41
485.34	370.41
485.71	372.51
486.07	374.76
486.44	377.01
486.80	379.52
487.17	382.13
487.53	384.98
487.90	387.96
488.26	391.21
488.62	394.64
488.99	398.07
489.35	401.69
489.72	405.62
490.08	409.76
490.44	414.03
490.81	418.47
491.17	423.01
491.54	427.89
491.90	432.92
492.26	438.31
492.63	443.95
492.99	449.83
493.36	455.94
493.72	462.35
494.08	468.92
494.45	475.90
494.81	483.14
495.17	490.58
495.54	498.45
495.90	506.63
496.26	514.99
496.63	523.59
496.99	532.53
497.35	541.88
497.72	551.53
498.08	561.39
498.44	571.58
498.80	582.40
499.17	593.48
499.53	604.92
499.89	616.72
500.26	628.78
500.62	641.12
500.98	654.14
501.34	667.34
501.71	681.08
502.07	695.01
502.43	709.48
502.79	724.21
503.16	739.41
503.52	754.78
503.88	770.62
504.24	786.94
504.60	803.46
504.97	820.49
505.33	837.95
505.69	856.35
506.05	875.11
506.41	893.85
506.78	912.74
507.14	932.13
507.50	951.99
507.86	972.19
508.22	992.65
508.59	1012.89
508.95	1033.95
509.31	1055.74
509.67	1078.33
510.03	1100.95
510.39	1123.57
510.75	1146.32
511.12	1169.37
511.48	1192.58
511.84	1215.78
512.20	1239.42
512.56	1264.01
512.92	1288.63
513.28	1312.76
513.64	1337.12
514.00	1361.96
514.37	1387.18
514.73	1412.30
515.09	1437.27
515.45	1462.56
515.81	1488.07
516.17	1513.60
516.53	1538.73
516.89	1563.69
517.25	1588.81
517.61	1613.73
517.97	1639.10
518.33	1664.01
518.69	1688.88
519.05	1714.14
519.41	1739.68
519.77	1765.51
520.13	1790.44
520.49	1815.33
520.85	1840.55
521.21	1865.45
521.57	1890.65
521.93	1915.21
522.29	1940.39
522.65	1964.93
523.01	1989.47
523.37	2013.53
523.73	2038.42
524.09	2062.87
524.45	2087.11
524.81	2110.97
525.17	2134.68
525.53	2157.77
525.89	2181.32
526.25	2204.92
526.61	2227.52
526.97	2250.23
527.33	2272.80
527.68	2295.19
528.04	2316.65
528.40	2337.19
528.76	2357.76
529.12	2377.83
529.48	2397.74
529.84	2415.62
530.20	2434.27
530.56	2452.23
530.91	2470.32
531.27	2488.05
531.63	2504.92
531.99	2521.28
532.35	2536.89
532.71	2552.71
533.07	2569.16
533.42	2583.73
533.78	2599.19
534.14	2615.00
534.50	2629.85
534.86	2644.42
535.21	2656.84
535.57	2669.88
535.93	2682.77
536.29	2694.55
536.65	2706.07
537.00	2716.69
537.36	2728.42
537.72	2738.80
538.08	2748.55
538.44	2757.53
538.79	2766.08
539.15	2773.92
539.51	2781.46
539.87	2788.37
540.22	2793.11
540.58	2797.99
540.94	2804.03
541.29	2808.59
541.65	2811.24
542.01	2813.11
542.37	2814.28
542.72	2816.96
543.08	2817.81
543.44	2819.20
543.79	2819.57
544.15	2819.10
544.51	2819.09
544.87	2817.92
545.22	2815.88
545.58	2813.17
545.94	2810.45
546.29	2806.48
546.65	2802.46
547.01	2798.30
547.36	2794.93
547.72	2791.89
548.07	2786.96
548.43	2780.62
548.79	2773.14
549.14	2766.94
549.50	2761.18
549.86	2754.42
550.21	2746.45
550.57	2739.52
550.92	2730.19
551.28	2721.32
551.64	2712.94
551.99	2704.22
552.35	2694.83
552.70	2685.71
553.06	2676.95
553.41	2667.64
553.77	2658.12
554.13	2648.53
554.48	2638.06
554.84	2626.23
555.19	2614.73
555.55	2603.42
555.90	2592.23
556.26	2581.69
556.61	2569.97
556.97	2556.55
557.32	2543.53
557.68	2530.63
558.03	2517.39
558.39	2505.52
558.74	2494.04
559.10	2480.72
559.45	2467.49
559.81	2454.90
560.16	2441.69
560.52	2428.85
560.87	2416.41
561.23	2403.14
561.58	2389.82
561.94	2376.28
562.29	2362.14
562.64	2348.82
563.00	2335.21
563.35	2321.89
563.71	2308.41
564.06	2294.91
564.42	2282.20
564.77	2269.04
565.12	2255.71
565.48	2242.33
565.83	2228.81
566.19	2215.48
566.54	2202.07
566.89	2187.57
567.25	2173.24
567.60	2160.39
567.96	2146.55
568.31	2131.26
568.66	2116.61
569.02	2103.26
569.37	2089.90
569.72	2077.08
570.08	2062.99
570.43	2048.44
570.78	2033.85
571.14	2018.53
571.49	2003.80
571.84	1989.64
572.20	1974.29
572.55	1959.08
572.90	1943.91
573.26	1928.85
573.61	1913.25
573.96	1898.08
574.31	1883.21
574.67	1868.42
575.02	1852.44
575.37	1836.60
575.72	1821.68
576.08	1807.07
576.43	1791.39
576.78	1776.09
577.13	1761.04
577.49	1746.35
577.84	1732.33
578.19	1717.37
578.54	1702.50
578.90	1687.17
579.25	1671.73
579.60	1657.91
579.95	1644.04
580.30	1629.93
580.66	1615.53
581.01	1601.08
581.36	1586.65
581.71	1573.15
582.06	1559.59
582.42	1546.26
582.77	1533.01
583.12	1519.77
583.47	1506.41
583.82	1493.13
584.17	1479.48
584.53	1465.59
584.88	1452.03
585.23	1438.13
585.58	1424.97
585.93	1411.99
586.28	1399.78
586.63	1387.49
586.98	1374.78
587.34	1362.14
587.69	1349.24
588.04	1336.66
588.39	1324.43
588.74	1312.35
589.09	1300.09
589.44	1287.39
589.79	1275.35
590.14	1263.39
590.49	1251.30
590.84	1239.39
591.19	1227.87
591.54	1216.17
591.89	1204.57
592.25	1193.22
592.60	1181.46
592.95	1170.12
593.30	1159.10
593.65	1147.77
594.00	1136.61
594.35	1125.97
594.70	1114.89
595.05	1104.65
595.40	1094.31
595.75	1083.83
596.10	1073.86
596.45	1063.69
596.80	1053.86
597.15	1043.73
597.50	1033.77
597.85	1024.25
598.19	1014.56
598.54	1004.90
598.89	995.77
599.24	986.91
599.59	977.81
599.94	969.63
600.29	961.27
600.64	952.65
600.99	943.67
601.34	935.01
601.69	926.02
602.04	917.74
602.39	909.25
602.74	900.88
603.08	892.44
603.43	883.97
603.78	875.66
604.13	867.47
604.48	859.34
604.83	851.37
605.18	843.35
605.53	835.51
605.87	827.52
606.22	819.74
606.57	811.96
606.92	804.11
607.27	796.20
607.62	788.55
607.96	781.29
608.31	774.49
608.66	767.49
609.01	760.77
609.36	754.14
609.70	747.37
610.05	740.53
610.40	733.98
610.75	727.40
611.10	721.18
611.44	714.80
611.79	708.53
612.14	702.18
612.49	695.89
612.83	689.89
613.18	684.02
613.53	678.10
613.88	672.17
614.22	666.62
614.57	661.04
614.92	655.33
615.27	649.71
615.61	644.15
615.96	638.67
616.31	633.18
616.65	627.74
617.00	622.48
617.35	617.36
617.70	612.25
618.04	607.24
618.39	602.12
618.74	597.24
619.08	592.39
619.43	587.69
619.78	582.98
620.12	578.25
620.47	573.66
620.82	569.17
621.16	564.77
621.51	560.27
621.85	555.79
622.20	551.46
622.55	547.20
622.89	543.01
623.24	538.82
623.59	534.65
623.93	530.65
624.28	526.77
624.62	522.95
624.97	519.20
625.32	515.39
625.66	511.54
626.01	507.68
626.35	503.88
626.70	500.11
627.04	496.54
627.39	492.88
627.73	489.41
628.08	486.02
628.43	482.62
628.77	479.28
629.12	476.08
629.46	472.93
629.81	469.65
630.15	466.35
630.50	463.17
630.84	460.06
631.19	456.99
631.53	454.01
631.88	451.00
632.22	448.01
632.57	445.30
632.91	442.62
633.26	440.03
633.60	437.47
633.95	434.95
634.29	432.35
634.64	429.83
634.98	427.14
635.32	424.56
635.67	422.17
636.01	419.74
636.36	417.32
636.70	415.02
637.05	412.75
637.39	410.53
637.73	408.31
638.08	406.21
638.42	404.11
638.77	401.85
639.11	399.56
639.45	397.35
639.80	395.08
640.14	392.91
640.49	390.74
640.83	388.54
641.17	386.45
641.52	384.39
641.86	382.37
642.20	380.54
642.55	378.57
642.89	376.61
643.23	374.75
643.58	373.05
643.92	371.23
644.26	369.47
644.61	367.75
644.95	366.01
645.29	364.19
645.64	362.39
645.98	360.70
646.32	359.12
646.66	357.52
647.01	355.95
647.35	354.42
647.69	352.88
648.04	351.45
648.38	349.95
648.72	348.47
649.06	347.01
649.41	345.54
649.75	344.14
650.09	342.76
650.43	341.38
650.78	339.95
651.12	338.57
651.46	337.24
651.80	335.94
652.14	334.65
652.49	333.43
652.83	332.16
653.17	330.95
653.51	329.77
653.85	328.64
654.20	327.48
654.54	326.24
654.88	325.09
655.22	323.97
655.56	322.85
655.90	321.79
656.25	320.75
656.59	319.71
656.93	318.72
657.27	317.75
657.61	316.72
657.95	315.75
658.29	314.77
658.64	313.84
658.98	312.90
659.32	311.99
659.66	311.14
660.00	310.31
660.34	309.47
660.68	308.61
661.02	307.72
661.36	306.87
661.70	306.07
662.05	305.28
662.39	304.50
662.73	303.79
663.07	303.09
663.41	302.34
663.75	301.59
664.09	300.85
664.43	300.08
664.77	299.38
665.11	298.64
665.45	297.97
665.79	297.30
666.13	296.61
666.47	295.90
666.81	295.18
667.15	294.44
667.49	293.79
667.83	293.20
668.17	292.59
668.51	292.01
668.85	291.47
669.19	290.96
669.53	290.34
669.87	289.72
670.21	289.12
670.55	288.58
670.89	288.10
671.23	287.58
671.57	287.07
671.91	286.60
672.25	286.17
672.58	285.73
672.92	285.22
673.26	284.77
673.60	284.34
673.94	283.92
674.28	283.53
674.62	283.11
674.96	282.64
675.30	282.22
675.64	281.78
675.97	281.32
676.31	280.83
676.65	280.40
676.99	280.04
677.33	279.60
677.67	279.19
678.01	278.71
678.34	278.31
678.68	277.94
679.02	277.50
679.36	277.08
679.70	276.66
680.04	276.28
680.37	275.89
680.71	275.53
681.05	275.17
681.39	274.78
681.73	274.37
682.06	273.99
682.40	273.61
682.74	273.30
683.08	273.02
683.42	272.68
683.75	272.37
684.09	271.98
684.43	271.66
684.77	271.33
685.10	271.04
685.44	270.73
685.78	270.40
686.12	270.11
686.45	269.79
686.79	269.45
687.13	269.16
687.46	268.83
687.80	268.53
688.14	268.17
688.48	267.88
688.81	267.57
689.15	267.30
689.49	266.99
689.82	266.66
690.16	266.29
690.50	265.99
690.83	265.68
691.17	265.37
691.51	265.07
691.84	264.78
692.18	264.46
692.52	264.14
692.85	263.84
693.19	263.58
693.52	263.28
693.86	263.00
694.20	262.71
694.53	262.43
694.87	262.12
695.21	261.84
695.54	261.55
695.88	261.25
696.21	260.93
696.55	260.66
696.88	260.37
697.22	260.10
697.56	259.83
697.89	259.51
698.23	259.25
698.56	258.95
698.90	258.68
699.23	258.39
699.57	258.11
699.90	257.82
700.24	257.51
700.58	257.27
700.91	257.04
701.25	256.89
701.58	256.68
701.92	256.47
702.25	256.22
702.59	255.96
702.92	255.72
703.26	255.47
703.59	255.20
703.93	255.05
704.26	254.81
704.60	254.55
704.93	254.30
705.26	254.04
705.60	253.83
705.93	253.56
706.27	253.36
706.60	253.15
706.94	252.97
707.27	252.70
707.61	252.44
707.94	252.17
708.27	251.81
708.61	251.51
708.94	251.24
709.28	251.01
709.61	250.77
709.94	250.55
710.28	250.34
710.61	250.14
710.95	249.82
711.28	249.68
711.61	249.46
711.95	249.29
712.28	249.06
712.61	248.82
712.95	248.69
713.28	248.53
713.61	248.29
713.95	248.04
714.28	247.85
714.61	247.63
714.95	247.43
715.28	247.23
715.61	247.04
715.95	246.86
716.28	246.67
716.61	246.51
716.95	246.31
717.28	246.12
717.61	245.92
717.94	245.73
718.28	245.45
718.61	245.26
718.94	245.04
719.27	244.86
719.61	244.70
719.94	244.49
720.27	244.22
720.60	244.04
720.94	243.87
721.27	243.70
721.60	243.55
721.93	243.37
722.27	243.24
722.60	243.09
722.93	242.90
723.26	242.73
723.59	242.53
723.93	242.38
724.26	242.21
724.59	242.04
724.92	241.89
725.25	241.78
725.59	241.63
725.92	241.50
726.25	241.35
726.58	241.20
726.91	241.04
727.24	240.91
727.57	240.76
727.91	240.60
728.24	240.48
728.57	240.33
728.90	240.20
729.23	240.01
729.56	239.92
729.89	239.78
730.22	239.63
730.55	239.49
730.89	239.35
731.22	239.21
731.55	239.08
731.88	238.94
732.21	238.78
732.54	238.64
732.87	238.51
733.20	238.39
733.53	238.26
733.86	238.15
734.19	238.00
734.52	237.90
734.85	237.87
735.18	237.71
735.51	237.63
735.84	237.51
736.17	237.43
736.50	237.25
736.83	237.28
737.16	237.18
737.49	237.08
737.82	236.96
738.15	236.87
738.48	236.76
738.81	236.64
739.14	236.52
739.47	236.41
739.80	236.29
740.13	236.19
740.46	236.06
740.79	235.94
741.12	235.83
741.45	235.70
741.78	235.53
742.11	235.46
742.44	235.32
742.77	235.24
743.10	235.11
743.43	235.01
743.75	234.77
744.08	234.87
744.41	234.76
744.74	234.66
745.07	234.53
745.40	234.46
745.73	234.42
746.06	234.34
746.39	234.28
746.71	234.18
747.04	234.08
747.37	233.99
747.70	233.93
748.03	233.85
748.36	233.79
748.68	233.70
749.01	233.58
749.34	233.50
749.67	233.42
750.00	233.36
750.33	233.37
750.65	233.30
750.98	233.03
751.31	232.95
751.64	232.88
751.97	232.87
752.29	232.78
752.62	232.64
752.95	232.55
753.28	232.46
753.60	232.38
753.93	232.33
754.26	232.27
754.59	232.15
754.91	232.05
755.24	231.96
755.57	231.95
755.90	231.87
756.22	231.79
756.55	231.69
756.88	231.59
757.20	231.44
757.53	231.33
757.86	231.25
758.19	231.20
758.51	231.12
758.84	230.99
759.17	230.91
759.49	230.85
759.82	230.85
760.15	230.80
760.47	230.74
760.80	230.64
761.13	230.59
761.45	230.54
761.78	230.48
762.11	230.43
762.43	230.30
762.76	230.25
763.08	230.21
763.41	230.16
763.74	230.12
764.06	230.06
764.39	230.01
764.71	229.96
765.04	229.90
765.37	229.84
765.69	229.79
766.02	229.74
766.34	229.68
766.67	229.58
767.00	229.55
767.32	229.58
767.65	229.61
767.97	229.55
768.30	229.51
768.62	229.47
768.95	229.40
769.27	229.35
769.60	229.33
769.92	229.26
770.25	229.19
770.57	229.13
770.90	229.09
771.22	229.04
771.55	228.99
771.87	228.96
772.20	228.92
772.52	228.99
772.85	229.10
773.17	229.07
773.50	229.02
773.82	228.96
774.15	228.86
774.47	228.74
774.80	228.69
775.12	228.65
775.45	228.62
775.77	228.60
776.09	228.58
776.42	228.54
776.74	228.55
777.07	228.52
777.39	228.50
777.72	228.46
778.04	228.45
778.36	228.41
778.69	228.38
779.01	228.37
779.33	228.23
779.66	228.05
779.98	228.02
780.31	228.00
780.63	228.02
780.95	228.02
781.28	227.99
781.60	227.96
781.92	227.93
782.25	227.90
782.57	227.88
782.89	227.84
783.22	227.81
783.54	227.76
783.86	227.74
784.19	227.71
784.51	227.73
784.83	227.69
785.16	227.66
785.48	227.64
785.80	227.61
786.12	227.60
786.45	227.58
786.77	227.57
787.09	227.54
787.42	227.47
787.74	227.45
788.06	227.44
788.38	227.42
788.71	227.39
789.03	227.38
789.35	227.37
789.67	227.34
789.99	227.33
790.32	227.30
790.64	227.29
790.96	227.39
791.28	227.33
791.61	227.31
791.93	227.30
792.25	227.27
792.57	227.34
792.89	227.30
793.21	227.29
793.54	227.26
793.86	227.24
794.18	227.23
794.50	227.18
794.82	227.16
795.14	227.16
795.47	227.17
795.79	227.15
796.11	227.11
796.43	227.09
796.75	227.07
797.07	227.07
797.39	227.04
797.71	226.92
798.04	226.91
798.36	226.90
798.68	226.88
799.00	226.88
799.32	226.80
799.64	226.81
799.96	226.79
800.28	226.80
800.60	226.78
800.92	226.78
801.24	226.76
801.56	226.75
801.89	226.73
802.21	226.72
802.53	226.68
802.85	226.70
803.17	226.75
803.49	226.71
803.81	226.68
804.13	226.66
804.45	226.64
804.77	226.63
805.09	226.62
805.41	226.60
805.73	226.56
806.05	226.51
806.37	226.49
806.69	226.46
807.01	226.44
807.33	226.43
807.65	226.38
807.97	226.43
808.28	226.40
808.60	226.39
808.92	226.36
809.24	226.42
809.56	226.39
809.88	226.33
810.20	226.33
810.52	226.35
810.84	226.32
811.16	226.30
811.48	226.28
811.80	226.31
812.12	226.30
812.43	226.31
812.75	226.32
813.07	226.29
813.39	226.29
813.71	226.27
814.03	226.25
814.35	226.25
814.67	226.18
814.98	226.17
815.30	226.15
815.62	226.13
815.94	226.04
816.26	226.04
816.58	226.01
816.89	226.01
817.21	225.97
817.53	225.98
817.85	225.98
818.17	225.97
818.48	225.91
818.80	225.92
819.12	225.89
819.44	225.86
819.76	225.84
820.07	225.83
820.39	225.82
820.71	225.83
821.03	225.82
821.34	225.80
821.66	225.82
821.98	225.82
822.30	225.81
822.61	225.88
822.93	225.85
823.25	225.85
823.57	225.83
823.88	225.84
824.20	225.83
824.52	225.84
824.83	225.83
825.15	225.81
825.47	225.79
825.79	225.80
826.10	225.79
826.42	225.78
826.74	225.78
827.05	225.78
827.37	225.77
827.69	225.75
828.00	225.76
828.32	225.75
828.64	225.73
828.95	225.79
829.27	225.75
829.58	225.75
829.90	225.76
830.22	225.77
830.53	225.75
830.85	225.73
831.17	225.69
831.48	225.69
831.80	225.69
832.11	225.68
832.43	225.66
832.75	225.65
833.06	225.73
833.38	225.69
833.69	225.68
834.01	225.68
834.32	225.68
834.64	225.66
834.96	225.65
835.27	225.65
835.59	225.60
835.90	225.58
836.22	225.57
836.53	225.54
836.85	225.52
837.16	225.64
837.48	225.64
837.79	225.68
838.11	225.68
838.42	225.68
838.74	225.69
839.05	225.68
839.37	225.67
839.68	225.59
840.00	225.58
840.31	225.60
840.63	225.58
840.94	225.57
841.26	225.55
841.57	225.55
841.88	225.56
842.20	225.54
842.51	225.52
842.83	225.51
843.14	225.63
843.46	225.62
843.77	225.54
844.08	225.54
844.40	225.49
844.71	225.48
845.03	225.46
845.34	225.45
845.65	225.44
845.97	225.44
846.28	225.45
846.60	225.46
846.91	225.43
847.22	225.43
847.54	225.45
847.85	225.46
848.16	225.44
848.48	225.42
848.79	225.46
849.10	225.47
849.42	225.48
849.73	225.35
850.04	225.35
850.36	225.30
850.67	225.32
850.98	225.33
851.30	225.33
851.61	225.33
851.92	225.32
852.23	225.36
852.55	225.36
852.86	225.36
853.17	225.37
853.49	225.39
853.80	225.42
854.11	225.42
854.42	225.43
854.74	225.42
855.05	225.43
855.36	225.37
855.67	225.37
855.99	225.36
856.30	225.52
856.61	225.51
856.92	225.52
857.23	225.52
857.55	225.50
857.86	225.49
858.17	225.51
858.48	225.49
858.79	225.46
859.11	225.47
859.42	225.46
859.73	225.44
860.04	225.43
860.35	225.39
860.66	225.35
860.98	225.34
861.29	225.36
861.60	225.35
861.91	225.37
862.22	225.35
862.53	225.33
862.84	225.18
863.16	225.20
863.47	225.18
863.78	225.16
864.09	225.17
864.40	225.18
864.71	225.18
865.02	225.19
865.33	225.17
865.64	225.15
865.95	225.15
866.27	225.23
866.58	225.21
866.89	225.23
867.20	225.23
867.51	225.21
867.82	225.20
868.13	225.23
868.44	225.21
868.75	225.23
869.06	225.23
869.37	225.25
869.68	225.22
869.99	225.24
870.30	225.25
870.61	225.26
870.92	225.24
871.23	225.22
871.54	225.24
871.85	225.27
872.16	225.28
872.47	225.27
872.78	225.20
873.09	225.21
873.40	225.20
873.71	225.21
874.02	225.22
874.33	225.21
874.64	225.18
874.95	225.20
875.26	225.17
875.56	225.17
875.87	225.16
876.18	225.15
876.49	225.27
876.80	225.26
877.11	225.23
877.42	225.24
877.73	225.24
878.04	225.22
878.35	225.22
878.66	225.22
878.96	225.22
879.27	225.21
879.58	225.20
879.89	225.20
880.20	225.23
880.51	225.22
880.82	225.22
881.12	225.23
881.43	225.19
881.74	225.18
882.05	225.18
882.36	225.18
882.67	225.19
882.97	225.05
883.28	225.04
883.59	225.04
883.90	225.05
884.21	225.07
884.51	225.06
884.82	225.04
885.13	225.04
885.44	225.03
885.74	225.03
886.05	225.02
886.36	225.02
886.67	224.98
886.98	225.04
887.28	225.05
887.59	225.05
887.90	225.06
888.20	225.05
888.51	225.07
888.82	225.05
889.13	225.06
889.43	225.17
889.74	225.16
890.05	225.16
890.35	225.14
890.66	225.12
890.97	225.11
891.28	225.10
891.58	225.09
891.89	225.10
892.20	225.08
892.50	225.07
892.81	225.07
893.12	225.07
893.42	225.00
893.73	225.00
894.04	225.00
894.34	225.01
894.65	225.00
894.95	224.99
895.26	225.00
895.57	225.05
895.87	224.93
896.18	224.95
896.48	224.96
896.79	224.96
897.10	224.98
897.40	224.99
897.71	225.00
898.01	224.99
898.32	225.00
898.63	225.00
898.93	225.01
899.24	225.01
899.54	225.00
899.85	225.00
900.15	224.99
900.46	224.99
900.76	225.00
901.07	225.00
901.38	225.00
901.68	225.01
901.99	224.94
902.29	224.96
902.60	224.94
902.90	224.93
903.21	224.93
903.51	224.92
903.82	224.94
904.12	224.94
904.43	224.94
904.73	224.94
905.03	224.95
905.34	225.07
905.64	225.06
905.95	225.06
906.25	225.06
906.56	225.06
906.86	225.05
907.17	225.04
907.47	225.05
907.77	225.03
908.08	225.01
908.38	225.01
908.69	225.02
908.99	225.04
909.30	225.05
909.60	225.05
909.90	225.05
910.21	225.01
910.51	224.99
910.81	224.99
911.12	225.00
911.42	225.00
911.73	224.87
912.03	224.88
912.33	224.91
912.64	224.90
912.94	224.89
913.24	224.87
913.55	224.86
913.85	224.85
914.15	224.88
914.46	224.89
914.76	224.87
915.06	224.86
915.37	224.84
915.67	224.83
915.97	224.83
916.27	224.81
916.58	224.82
916.88	224.82
917.18	224.80
917.49	224.89
917.79	224.88
918.09	224.90
918.39	224.93
918.70	224.92
919.00	224.92
919.30	224.98
919.60	224.98
919.91	224.96
920.21	224.97
920.51	224.94
920.81	224.94
921.12	224.96
921.42	224.96
921.72	224.96
922.02	224.97
922.32	224.99
922.63	224.99
922.93	225.06
923.23	225.07
923.53	225.06
923.83	224.98
924.13	224.99
924.44	224.98
924.74	225.00
925.04	225.03
925.34	225.02
925.64	224.97
925.94	224.97
926.24	225.04
926.55	225.03
926.85	225.04
927.15	225.05
927.45	225.04
927.75	225.04
928.05	225.04
928.35	225.03
928.65	225.05
928.95	225.06
929.26	224.99
929.56	225.02
929.86	225.03
930.16	225.02
930.46	225.01
930.76	225.02
931.06	224.96
931.36	224.92
931.66	224.95
931.96	224.96
932.26	224.97
932.56	224.91
932.86	224.92
933.16	224.92
933.46	224.91
933.76	224.89
934.06	224.91
934.36	224.95
934.66	224.95
934.96	224.93
935.26	224.93
935.56	224.95
935.86	224.91
936.16	224.90
936.46	224.89
936.76	224.88
937.06	224.86
937.36	224.87
937.66	224.87
937.96	224.86
938.26	224.84
938.56	224.83
938.86	224.83
939.16	224.86
939.46	224.87
939.76	224.88
940.06	224.88
940.35	224.86
940.65	224.79
940.95	224.80
941.25	224.77
941.55	224.76
941.85	224.75
942.15	224.78
942.45	224.81
942.75	224.81
943.04	224.81
943.34	224.84
943.64	224.83
943.94	224.81
944.24	224.81
944.54	224.82
944.84	224.82
945.13	224.80
945.43	224.78
945.73	224.77
946.03	224.76
946.33	224.75
946.62	224.73
946.92	224.73
947.22	224.74
947.52	224.75
947.82	224.77
948.11	224.75
948.41	224.72
948.71	224.69
949.01	224.70
949.31	224.69
949.60	224.67
949.90	224.69
950.20	224.69
950.50	224.68
950.79	224.67
951.09	224.69
951.39	224.69
951.69	224.68
951.98	224.70
952.28	224.71
952.58	224.70
952.87	224.71
953.17	224.72
953.47	224.71
953.76	224.70
954.06	224.68
954.36	224.67
954.66	224.66
954.95	224.70
955.25	224.71
955.55	224.71
955.84	224.69
956.14	224.70
956.44	224.71
956.73	224.69
957.03	224.70
957.32	224.70
957.62	224.70
957.92	224.72
958.21	224.71
958.51	224.85
958.81	224.87
959.10	224.89
959.40	224.91
959.69	224.92
959.99	224.94
960.29	224.95
960.58	224.95
960.88	225.00
961.17	224.98
961.47	224.99
961.76	224.98
962.06	225.00
962.36	224.98
962.65	224.99
962.95	225.00
963.24	224.99
963.54	224.99
963.83	225.00
964.13	224.99
964.42	224.98
964.72	224.87
965.01	224.87
965.31	224.86
965.60	224.82
965.90	224.90
966.19	224.87
966.49	224.88
966.78	224.88
967.08	224.86
967.37	224.87
967.67	224.85
967.96	224.87
968.26	224.86
968.55	224.88
968.85	224.87
969.14	224.87
969.43	224.87
969.73	224.86
970.02	224.85
970.32	224.84
970.61	224.83
970.91	224.79
971.20	224.77
971.49	224.76
971.79	224.78
972.08	224.69
972.38	224.70
972.67	224.69
972.96	224.71
973.26	224.69
973.55	224.72
973.85	224.72
974.14	224.70
974.43	224.71
974.73	224.69
975.02	224.68
975.31	224.68
975.61	224.68
975.90	224.67
976.19	224.66
976.49	224.67
976.78	224.68
977.07	224.68
977.37	224.69
977.66	224.71
977.95	224.69
978.24	224.70
978.54	224.72
978.83	224.72
979.12	224.70
979.42	224.71
979.71	224.68
980.00	224.68
980.29	224.68
980.59	224.66
980.88	224.70
981.17	224.69
981.46	224.70
981.76	224.69
982.05	224.73
982.34	224.74
982.63	224.74
982.93	224.74
983.22	224.77
983.51	224.77
983.80	224.79
984.09	224.81
984.39	224.79
984.68	224.78
984.97	224.79
985.26	224.78
985.55	224.79
985.85	224.76
986.14	224.78
986.43	224.80
986.72	224.79
987.01	224.75
987.30	224.75
987.59	224.74
987.89	224.75
988.18	224.71
988.47	224.70
988.76	224.69
989.05	224.68
989.34	224.66
989.63	224.69
989.92	224.67
990.22	224.65
990.51	224.65
990.80	224.64
991.09	224.64
991.38	224.66
991.67	224.65
991.96	224.64
992.25	224.64
992.54	224.61
992.83	224.62
993.12	224.61
993.41	224.64
993.70	224.69
993.99	224.71
994.28	224.73
994.58	224.75
994.87	224.73
995.16	224.73
995.45	224.72
995.74	224.68
996.03	224.69
996.32	224.72
996.61	224.74
996.90	224.74
997.19	224.73
997.48	224.73
997.77	224.73
998.06	224.74
998.34	224.72
998.63	224.72
998.92	224.73
999.21	224.75
999.50	224.75
999.79	224.70
1000.08	224.70
1000.37	224.70
1000.66	224.68
1000.95	224.72
1001.24	224.73
1001.53	224.75
1001.82	224.75
1002.11	224.72
1002.40	224.72
1002.68	224.75
1002.97	224.84
1003.26	224.83
1003.55	224.81
1003.84	224.82
1004.13	224.86
1004.42	224.85
1004.71	224.85
1004.99	224.85
1005.28	224.87
1005.57	224.86
1005.86	224.85
1006.15	224.84
1006.44	224.82
1006.72	224.83
1007.01	224.81
1007.30	224.81
1007.59	224.79
1007.88	224.79
1008.17	224.80
1008.45	224.77
1008.74	224.72
1009.03	224.66
1009.32	224.66
1009.60	224.66
1009.89	224.65
1010.18	224.60
1010.47	224.59
1010.76	224.59
1011.04	224.59
1011.33	224.58
1011.62	224.59
1011.91	224.61
1012.19	224.61
1012.48	224.62
1012.77	224.62
1013.05	224.66
1013.34	224.66
1013.63	224.65
1013.92	224.66
1014.20	224.65
1014.49	224.66
1014.78	224.68
1015.06	224.63
1015.35	224.64
1015.64	224.65
1015.92	224.68
1016.21	224.68
1016.50	224.69
1016.78	224.70
1017.07	224.71
1017.36	224.69
1017.64	224.67
1017.93	224.68
1018.22	224.66
1018.50	224.66
1018.79	224.65
1019.08	224.61
1019.36	224.62
1019.65	224.61
1019.93	224.64
1020.22	224.66
1020.51	224.72
1020.79	224.71
1021.08	224.46
1021.36	224.47
1021.65	224.60
1021.94	224.59
1022.22	224.77
1022.51	224.41
1022.79	225.24
1023.08	224.81
1023.36	226.17
1023.65	224.37
>>>>>End Processed Spectral Data<<<<<
