SpectraSuite Data File
++++++++++++++++++++++++++++++++++++
Date: Sat Oct 03 03:14:43 EDT 2015
User: lab3
Dark Spectrum Present: No
Reference Spectrum Present: No
Number of Sampled Component Spectra: 1
Spectrometers: USB2E7196
Integration Time (usec): 46000 (USB2E7196)
Spectra Averaged: 12000 (USB2E7196)
Boxcar Smoothing: 10 (USB2E7196)
Correct for Electrical Dark: No (USB2E7196)
Strobe/Lamp Enabled: No (USB2E7196)
Correct for Detector Non-linearity: No (USB2E7196)
Correct for Stray Light: No (USB2E7196)
Number of Pixels in Processed Spectrum: 2048
>>>>>Begin Processed Spectral Data<<<<<
339.09	0.00
339.48	213.69
339.86	215.15
340.24	216.50
340.63	217.92
341.01	221.24
341.39	220.62
341.78	222.04
342.16	223.25
342.54	223.67
342.93	212.14
343.31	222.86
343.69	223.40
344.07	223.86
344.46	224.30
344.84	224.69
345.22	224.91
345.60	225.17
345.99	225.37
346.37	225.50
346.75	225.61
347.13	225.69
347.52	225.76
347.90	225.85
348.28	225.89
348.66	225.95
349.05	225.94
349.43	226.00
349.81	226.06
350.19	226.11
350.57	226.18
350.96	226.27
351.34	226.36
351.72	226.46
352.10	226.57
352.48	226.64
352.87	226.69
353.25	226.76
353.63	226.82
354.01	226.88
354.39	226.96
354.77	227.04
355.15	227.15
355.54	227.20
355.92	227.22
356.30	227.30
356.68	227.46
357.06	227.53
357.44	227.58
357.82	227.64
358.20	227.76
358.58	227.82
358.97	227.88
359.35	227.97
359.73	228.05
360.11	228.10
360.49	228.16
360.87	228.22
361.25	228.28
361.63	228.37
362.01	228.43
362.39	228.45
362.77	228.50
363.15	228.53
363.53	228.56
363.91	228.60
364.29	228.62
364.67	228.52
365.05	228.55
365.43	228.58
365.81	228.61
366.19	228.63
366.57	228.69
366.95	228.69
367.33	228.66
367.71	228.65
368.09	228.67
368.47	228.66
368.85	228.65
369.23	228.66
369.61	228.60
369.99	228.62
370.37	228.63
370.75	228.70
371.13	228.66
371.51	228.62
371.89	228.60
372.27	228.57
372.65	228.55
373.03	228.51
373.41	228.46
373.78	228.41
374.16	228.31
374.54	228.22
374.92	228.17
375.30	228.13
375.68	228.06
376.06	228.01
376.44	227.95
376.82	227.92
377.19	227.87
377.57	227.81
377.95	227.72
378.33	227.66
378.71	227.50
379.09	227.45
379.47	227.42
379.84	227.35
380.22	227.29
380.60	227.22
380.98	227.17
381.36	227.12
381.73	227.06
382.11	227.03
382.49	226.99
382.87	226.93
383.25	226.89
383.62	226.99
384.00	226.92
384.38	226.88
384.76	226.87
385.13	226.86
385.51	226.83
385.89	226.77
386.27	226.74
386.64	226.72
387.02	226.67
387.40	226.63
387.78	226.60
388.15	226.58
388.53	226.55
388.91	226.52
389.29	226.49
389.66	226.49
390.04	226.44
390.42	226.45
390.79	226.43
391.17	226.41
391.55	226.26
391.92	226.25
392.30	226.25
392.68	226.21
393.05	226.19
393.43	226.18
393.81	226.19
394.18	226.18
394.56	226.18
394.94	226.21
395.31	226.20
395.69	226.25
396.06	226.28
396.44	226.30
396.82	226.31
397.19	226.40
397.57	226.41
397.95	226.46
398.32	226.45
398.70	226.49
399.07	226.56
399.45	226.60
399.82	226.64
400.20	226.68
400.58	226.74
400.95	226.75
401.33	226.84
401.70	226.99
402.08	227.10
402.45	227.18
402.83	227.30
403.20	227.41
403.58	227.50
403.95	227.65
404.33	227.80
404.71	227.94
405.08	228.15
405.46	228.32
405.83	228.50
406.21	228.70
406.58	228.92
406.96	229.14
407.33	229.39
407.70	229.67
408.08	230.06
408.45	230.39
408.83	230.75
409.20	231.07
409.58	231.36
409.95	231.77
410.33	232.21
410.70	232.62
411.08	233.11
411.45	233.62
411.82	234.14
412.20	234.74
412.57	235.46
412.95	236.01
413.32	236.74
413.69	237.48
414.07	238.28
414.44	239.14
414.82	240.02
415.19	241.05
415.56	242.09
415.94	243.17
416.31	244.38
416.68	245.60
417.06	247.01
417.43	248.33
417.81	249.85
418.18	251.40
418.55	253.09
418.93	254.84
419.30	256.68
419.67	258.63
420.04	260.62
420.42	262.70
420.79	265.12
421.16	267.55
421.54	270.02
421.91	272.61
422.28	275.28
422.66	278.17
423.03	280.93
423.40	283.82
423.77	286.91
424.15	290.08
424.52	293.38
424.89	296.96
425.26	300.51
425.64	303.82
426.01	307.53
426.38	311.34
426.75	315.25
427.13	319.26
427.50	323.47
427.87	327.84
428.24	332.26
428.61	336.50
428.99	341.08
429.36	346.11
429.73	350.92
430.10	355.73
430.47	360.67
430.85	365.74
431.22	371.18
431.59	376.77
431.96	382.23
432.33	388.30
432.70	394.08
433.08	400.90
433.45	407.34
433.82	413.70
434.19	420.79
434.56	427.78
434.93	434.53
435.30	441.21
435.68	448.76
436.05	456.16
436.42	463.53
436.79	470.25
437.16	477.50
437.53	485.26
437.90	493.04
438.27	500.64
438.64	508.85
439.01	516.30
439.38	523.11
439.75	529.67
440.13	537.05
440.50	544.07
440.87	549.63
441.24	555.73
441.61	562.39
441.98	567.23
442.35	572.97
442.72	578.82
443.09	584.39
443.46	587.89
443.83	590.44
444.20	592.54
444.57	595.72
444.94	597.49
445.31	599.32
445.68	600.86
446.05	601.95
446.42	601.49
446.79	600.82
447.16	600.22
447.53	599.65
447.90	597.16
448.27	594.77
448.64	591.22
449.01	588.71
449.37	583.82
449.74	579.40
450.11	573.74
450.48	567.57
450.85	561.39
451.22	556.12
451.59	550.97
451.96	546.31
452.33	539.57
452.70	533.59
453.07	526.32
453.43	519.06
453.80	512.02
454.17	505.29
454.54	499.10
454.91	492.11
455.28	485.57
455.65	479.41
456.02	472.93
456.38	467.70
456.75	460.98
457.12	455.57
457.49	450.11
457.86	444.98
458.23	440.50
458.59	435.52
458.96	430.42
459.33	425.94
459.70	421.37
460.07	417.91
460.43	413.84
460.80	410.04
461.17	406.75
461.54	403.16
461.91	399.82
462.27	396.43
462.64	393.70
463.01	390.54
463.38	387.36
463.74	384.47
464.11	381.94
464.48	379.67
464.85	377.19
465.21	375.33
465.58	373.24
465.95	370.82
466.32	368.91
466.68	367.04
467.05	365.15
467.42	363.32
467.78	361.32
468.15	359.48
468.52	358.16
468.88	356.35
469.25	354.70
469.62	353.40
469.98	351.97
470.35	350.69
470.72	349.55
471.08	348.37
471.45	347.39
471.82	346.29
472.18	345.13
472.55	344.38
472.92	343.42
473.28	342.67
473.65	341.87
474.02	341.10
474.38	340.45
474.75	340.07
475.11	339.53
475.48	339.28
475.85	339.01
476.21	338.85
476.58	338.75
476.94	338.88
477.31	338.93
477.67	339.00
478.04	339.19
478.41	339.47
478.77	339.88
479.14	340.13
479.50	340.62
479.87	341.27
480.23	341.92
480.60	342.56
480.96	343.21
481.33	344.18
481.69	345.14
482.06	346.10
482.42	346.98
482.79	348.07
483.15	349.34
483.52	350.78
483.88	352.16
484.25	353.65
484.61	355.18
484.98	356.85
485.34	358.73
485.71	360.70
486.07	362.79
486.44	364.89
486.80	367.23
487.17	369.66
487.53	372.32
487.90	375.10
488.26	378.14
488.62	381.34
488.99	384.53
489.35	387.90
489.72	391.55
490.08	395.40
490.44	399.37
490.81	403.51
491.17	407.75
491.54	412.31
491.90	417.01
492.26	422.04
492.63	427.30
492.99	432.80
493.36	438.49
493.72	444.49
494.08	450.63
494.45	457.15
494.81	463.92
495.17	470.86
495.54	478.21
495.90	485.85
496.26	493.67
496.63	501.74
496.99	510.10
497.35	518.87
497.72	527.93
498.08	537.19
498.44	546.76
498.80	556.90
499.17	567.30
499.53	578.02
499.89	589.12
500.26	600.46
500.62	612.07
500.98	624.32
501.34	636.75
501.71	649.70
502.07	662.84
502.43	676.49
502.79	690.39
503.16	704.74
503.52	719.30
503.88	734.27
504.24	749.71
504.60	765.35
504.97	781.47
505.33	798.02
505.69	815.47
506.05	833.26
506.41	850.99
506.78	868.91
507.14	887.32
507.50	906.20
507.86	925.42
508.22	944.88
508.59	964.17
508.95	984.24
509.31	1005.04
509.67	1026.56
510.03	1048.10
510.39	1069.69
510.75	1091.47
511.12	1113.53
511.48	1135.78
511.84	1158.07
512.20	1180.75
512.56	1204.29
512.92	1227.86
513.28	1251.09
513.64	1274.55
514.00	1298.47
514.37	1322.72
514.73	1346.95
515.09	1371.06
515.45	1395.48
515.81	1420.11
516.17	1444.88
516.53	1469.20
516.89	1493.42
517.25	1517.79
517.61	1542.05
517.97	1566.79
518.33	1591.04
518.69	1615.23
519.05	1639.85
519.41	1664.76
519.77	1689.97
520.13	1714.40
520.49	1738.76
520.85	1763.42
521.21	1787.73
521.57	1812.38
521.93	1836.53
522.29	1861.22
522.65	1885.35
523.01	1909.48
523.37	1933.21
523.73	1957.63
524.09	1981.79
524.45	2005.77
524.81	2029.36
525.17	2052.82
525.53	2075.70
525.89	2099.03
526.25	2122.33
526.61	2144.65
526.97	2167.13
527.33	2189.48
527.68	2211.62
528.04	2232.97
528.40	2253.45
528.76	2274.05
529.12	2294.25
529.48	2314.21
529.84	2332.28
530.20	2351.00
530.56	2369.13
530.91	2387.37
531.27	2405.30
531.63	2422.37
531.99	2438.91
532.35	2454.86
532.71	2470.96
533.07	2487.73
533.42	2502.69
533.78	2518.61
534.14	2534.74
534.50	2549.97
534.86	2564.94
535.21	2578.03
535.57	2591.58
535.93	2604.90
536.29	2617.17
536.65	2629.21
537.00	2640.47
537.36	2652.73
537.72	2663.60
538.08	2673.95
538.44	2683.65
538.79	2692.95
539.15	2701.44
539.51	2709.67
539.87	2717.23
540.22	2722.72
540.58	2728.24
540.94	2734.93
541.29	2740.14
541.65	2743.64
542.01	2746.29
542.37	2748.30
542.72	2751.63
543.08	2753.30
543.44	2755.54
543.79	2756.71
544.15	2757.04
544.51	2757.82
544.87	2757.43
545.22	2756.36
545.58	2754.62
545.94	2752.85
546.29	2749.78
546.65	2746.66
547.01	2743.40
547.36	2740.87
547.72	2738.60
548.07	2734.55
548.43	2729.10
548.79	2722.61
549.14	2717.37
549.50	2712.51
549.86	2706.70
550.21	2699.74
550.57	2693.73
550.92	2685.44
551.28	2677.69
551.64	2670.30
551.99	2662.41
552.35	2653.93
552.70	2645.64
553.06	2637.70
553.41	2629.15
553.77	2620.35
554.13	2611.52
554.48	2601.93
554.84	2591.01
555.19	2580.52
555.55	2570.10
555.90	2559.74
556.26	2549.94
556.61	2539.08
556.97	2526.55
557.32	2514.56
557.68	2502.51
558.03	2490.14
558.39	2479.01
558.74	2468.19
559.10	2455.58
559.45	2443.20
559.81	2431.44
560.16	2419.09
560.52	2406.95
560.87	2395.16
561.23	2382.58
561.58	2370.04
561.94	2357.16
562.29	2343.81
562.64	2331.13
563.00	2318.14
563.35	2305.53
563.71	2292.78
564.06	2279.90
564.42	2267.74
564.77	2254.96
565.12	2242.07
565.48	2229.21
565.83	2216.25
566.19	2203.43
566.54	2190.64
566.89	2176.69
567.25	2162.85
567.60	2150.38
567.96	2136.97
568.31	2122.24
568.66	2108.17
569.02	2095.34
569.37	2082.43
569.72	2069.99
570.08	2056.28
570.43	2042.28
570.78	2028.14
571.14	2013.25
571.49	1998.97
571.84	1985.24
572.20	1970.32
572.55	1955.61
572.90	1940.86
573.26	1926.11
573.61	1910.89
573.96	1896.08
574.31	1881.47
574.67	1866.99
575.02	1851.42
575.37	1835.96
575.72	1821.29
576.08	1807.01
576.43	1791.57
576.78	1776.52
577.13	1761.75
577.49	1747.34
577.84	1733.53
578.19	1718.78
578.54	1704.20
578.90	1689.15
579.25	1673.99
579.60	1660.36
579.95	1646.71
580.30	1632.84
580.66	1618.75
581.01	1604.49
581.36	1590.17
581.71	1576.90
582.06	1563.54
582.42	1550.41
582.77	1537.35
583.12	1524.26
583.47	1511.01
583.82	1497.87
584.17	1484.43
584.53	1470.66
584.88	1457.26
585.23	1443.40
585.58	1430.33
585.93	1417.48
586.28	1405.39
586.63	1393.29
586.98	1380.76
587.34	1368.26
587.69	1355.42
588.04	1342.93
588.39	1330.85
588.74	1318.94
589.09	1306.80
589.44	1294.20
589.79	1282.24
590.14	1270.40
590.49	1258.47
590.84	1246.74
591.19	1235.37
591.54	1223.79
591.89	1212.36
592.25	1201.12
592.60	1189.51
592.95	1178.34
593.30	1167.38
593.65	1156.09
594.00	1144.94
594.35	1134.32
594.70	1123.26
595.05	1113.13
595.40	1102.90
595.75	1092.52
596.10	1082.65
596.45	1072.51
596.80	1062.73
597.15	1052.66
597.50	1042.75
597.85	1033.30
598.19	1023.63
598.54	1014.00
598.89	1004.85
599.24	996.03
599.59	986.98
599.94	978.88
600.29	970.56
600.64	961.98
600.99	953.04
601.34	944.44
601.69	935.51
602.04	927.28
602.39	918.86
602.74	910.48
603.08	902.08
603.43	893.62
603.78	885.36
604.13	877.24
604.48	869.16
604.83	861.23
605.18	853.19
605.53	845.32
605.87	837.29
606.22	829.55
606.57	821.76
606.92	813.91
607.27	805.97
607.62	798.33
607.96	791.10
608.31	784.32
608.66	777.33
609.01	770.62
609.36	764.00
609.70	757.18
610.05	750.32
610.40	743.74
610.75	737.16
611.10	730.93
611.44	724.50
611.79	718.19
612.14	711.81
612.49	705.52
612.83	699.53
613.18	693.66
613.53	687.69
613.88	681.75
614.22	676.21
614.57	670.62
614.92	664.89
615.27	659.27
615.61	653.69
615.96	648.17
616.31	642.67
616.65	637.22
617.00	631.99
617.35	626.86
617.70	621.77
618.04	616.74
618.39	611.63
618.74	606.79
619.08	601.97
619.43	597.29
619.78	592.61
620.12	587.88
620.47	583.31
620.82	578.88
621.16	574.48
621.51	569.95
621.85	565.46
622.20	561.13
622.55	556.84
622.89	552.63
623.24	548.43
623.59	544.25
623.93	540.24
624.28	536.32
624.62	532.49
624.97	528.70
625.32	524.89
625.66	521.02
626.01	517.12
626.35	513.30
626.70	509.53
627.04	505.93
627.39	502.28
627.73	498.80
628.08	495.39
628.43	491.97
628.77	488.64
629.12	485.44
629.46	482.26
629.81	478.98
630.15	475.70
630.50	472.51
630.84	469.39
631.19	466.33
631.53	463.38
631.88	460.39
632.22	457.43
632.57	454.74
632.91	452.10
633.26	449.55
633.60	447.00
633.95	444.51
634.29	441.95
634.64	439.46
634.98	436.77
635.32	434.23
635.67	431.89
636.01	429.48
636.36	427.10
636.70	424.86
637.05	422.63
637.39	420.44
637.73	418.26
638.08	416.21
638.42	414.12
638.77	411.89
639.11	409.60
639.45	407.41
639.80	405.15
640.14	403.00
640.49	400.85
640.83	398.67
641.17	396.58
641.52	394.54
641.86	392.52
642.20	390.71
642.55	388.74
642.89	386.79
643.23	384.94
643.58	383.24
643.92	381.43
644.26	379.68
644.61	377.98
644.95	376.25
645.29	374.43
645.64	372.64
645.98	370.95
646.32	369.38
646.66	367.80
647.01	366.23
647.35	364.70
647.69	363.15
648.04	361.75
648.38	360.26
648.72	358.80
649.06	357.33
649.41	355.88
649.75	354.49
650.09	353.12
650.43	351.74
650.78	350.31
651.12	348.93
651.46	347.59
651.80	346.29
652.14	345.01
652.49	343.79
652.83	342.53
653.17	341.33
653.51	340.15
653.85	339.04
654.20	337.88
654.54	336.65
654.88	335.51
655.22	334.38
655.56	333.25
655.90	332.17
656.25	331.14
656.59	330.08
656.93	329.09
657.27	328.10
657.61	327.06
657.95	326.07
658.29	325.06
658.64	324.12
658.98	323.16
659.32	322.24
659.66	321.35
660.00	320.49
660.34	319.63
660.68	318.74
661.02	317.81
661.36	316.93
661.70	316.08
662.05	315.25
662.39	314.43
662.73	313.69
663.07	312.96
663.41	312.18
663.75	311.40
664.09	310.62
664.43	309.81
664.77	309.08
665.11	308.31
665.45	307.62
665.79	306.92
666.13	306.20
666.47	305.45
666.81	304.70
667.15	303.92
667.49	303.24
667.83	302.62
668.17	301.96
668.51	301.36
668.85	300.78
669.19	300.24
669.53	299.60
669.87	298.94
670.21	298.31
670.55	297.72
670.89	297.21
671.23	296.64
671.57	296.10
671.91	295.60
672.25	295.12
672.58	294.63
672.92	294.07
673.26	293.59
673.60	293.11
673.94	292.65
674.28	292.22
674.62	291.75
674.96	291.23
675.30	290.78
675.64	290.28
675.97	289.78
676.31	289.24
676.65	288.76
676.99	288.35
677.33	287.86
677.67	287.40
678.01	286.88
678.34	286.44
678.68	286.02
679.02	285.54
679.36	285.06
679.70	284.60
680.04	284.17
680.37	283.73
680.71	283.32
681.05	282.92
681.39	282.48
681.73	282.02
682.06	281.57
682.40	281.14
682.74	280.76
683.08	280.44
683.42	280.04
683.75	279.68
684.09	279.25
684.43	278.87
684.77	278.49
685.10	278.15
685.44	277.78
685.78	277.41
686.12	277.07
686.45	276.70
686.79	276.31
687.13	275.96
687.46	275.57
687.80	275.20
688.14	274.79
688.48	274.45
688.81	274.09
689.15	273.77
689.49	273.40
689.82	273.02
690.16	272.59
690.50	272.24
690.83	271.87
691.17	271.50
691.51	271.15
691.84	270.81
692.18	270.43
692.52	270.05
692.85	269.69
693.19	269.38
693.52	269.03
693.86	268.69
694.20	268.35
694.53	268.02
694.87	267.66
695.21	267.33
695.54	266.98
695.88	266.63
696.21	266.26
696.55	265.93
696.88	265.60
697.22	265.28
697.56	264.95
697.89	264.58
698.23	264.25
698.56	263.90
698.90	263.58
699.23	263.24
699.57	262.91
699.90	262.57
700.24	262.22
700.58	261.92
700.91	261.65
701.25	261.45
701.58	261.19
701.92	260.94
702.25	260.64
702.59	260.34
702.92	260.05
703.26	259.75
703.59	259.44
703.93	259.24
704.26	258.96
704.60	258.67
704.93	258.38
705.26	258.08
705.60	257.83
705.93	257.52
706.27	257.27
706.60	257.03
706.94	256.81
707.27	256.49
707.61	256.20
707.94	255.89
708.27	255.49
708.61	255.15
708.94	254.84
709.28	254.57
709.61	254.29
709.94	254.05
710.28	253.80
710.61	253.57
710.95	253.22
711.28	253.04
711.61	252.79
711.95	252.58
712.28	252.33
712.61	252.06
712.95	251.90
713.28	251.72
713.61	251.44
713.95	251.16
714.28	250.94
714.61	250.69
714.95	250.46
715.28	250.24
715.61	250.02
715.95	249.82
716.28	249.60
716.61	249.42
716.95	249.19
717.28	248.96
717.61	248.74
717.94	248.53
718.28	248.23
718.61	248.01
718.94	247.77
719.27	247.57
719.61	247.38
719.94	247.14
720.27	246.85
720.60	246.65
720.94	246.45
721.27	246.26
721.60	246.09
721.93	245.89
722.27	245.74
722.60	245.56
722.93	245.36
723.26	245.17
723.59	244.95
723.93	244.77
724.26	244.59
724.59	244.39
724.92	244.23
725.25	244.10
725.59	243.92
725.92	243.78
726.25	243.61
726.58	243.44
726.91	243.26
727.24	243.12
727.57	242.96
727.91	242.78
728.24	242.65
728.57	242.48
728.90	242.34
729.23	242.13
729.56	242.03
729.89	241.87
730.22	241.70
730.55	241.55
730.89	241.40
731.22	241.24
731.55	241.09
731.88	240.94
732.21	240.76
732.54	240.61
732.87	240.46
733.20	240.33
733.53	240.19
733.86	240.06
734.19	239.90
734.52	239.78
734.85	239.73
735.18	239.56
735.51	239.46
735.84	239.33
736.17	239.23
736.50	239.04
736.83	239.06
737.16	238.95
737.49	238.83
737.82	238.70
738.15	238.59
738.48	238.48
738.81	238.35
739.14	238.22
739.47	238.09
739.80	237.96
740.13	237.85
740.46	237.71
740.79	237.57
741.12	237.45
741.45	237.31
741.78	237.12
742.11	237.04
742.44	236.89
742.77	236.79
743.10	236.66
743.43	236.55
743.75	236.30
744.08	236.39
744.41	236.27
744.74	236.16
745.07	236.03
745.40	235.95
745.73	235.90
746.06	235.81
746.39	235.73
746.71	235.62
747.04	235.51
747.37	235.42
747.70	235.35
748.03	235.27
748.36	235.20
748.68	235.10
749.01	234.97
749.34	234.88
749.67	234.79
750.00	234.72
750.33	234.73
750.65	234.65
750.98	234.37
751.31	234.28
751.64	234.20
751.97	234.18
752.29	234.08
752.62	233.94
752.95	233.85
753.28	233.74
753.60	233.65
753.93	233.60
754.26	233.53
754.59	233.40
754.91	233.30
755.24	233.20
755.57	233.18
755.90	233.10
756.22	233.01
756.55	232.90
756.88	232.80
757.20	232.63
757.53	232.52
757.86	232.44
758.19	232.37
758.51	232.29
758.84	232.15
759.17	232.07
759.49	232.00
759.82	232.00
760.15	231.94
760.47	231.87
760.80	231.77
761.13	231.72
761.45	231.66
761.78	231.60
762.11	231.54
762.43	231.41
762.76	231.35
763.08	231.31
763.41	231.25
763.74	231.20
764.06	231.14
764.39	231.09
764.71	231.03
765.04	230.96
765.37	230.89
765.69	230.84
766.02	230.79
766.34	230.72
766.67	230.62
767.00	230.59
767.32	230.61
767.65	230.64
767.97	230.57
768.30	230.53
768.62	230.49
768.95	230.42
769.27	230.37
769.60	230.34
769.92	230.26
770.25	230.20
770.57	230.13
770.90	230.08
771.22	230.03
771.55	229.98
771.87	229.94
772.20	229.90
772.52	229.96
772.85	230.08
773.17	230.04
773.50	229.99
773.82	229.92
774.15	229.82
774.47	229.70
774.80	229.64
775.12	229.60
775.45	229.56
775.77	229.53
776.09	229.51
776.42	229.47
776.74	229.48
777.07	229.44
777.39	229.42
777.72	229.38
778.04	229.36
778.36	229.32
778.69	229.29
779.01	229.27
779.33	229.13
779.66	228.95
779.98	228.91
780.31	228.90
780.63	228.92
780.95	228.91
781.28	228.89
781.60	228.85
781.92	228.82
782.25	228.79
782.57	228.76
782.89	228.73
783.22	228.69
783.54	228.64
783.86	228.62
784.19	228.59
784.51	228.60
784.83	228.56
785.16	228.54
785.48	228.51
785.80	228.49
786.12	228.47
786.45	228.45
786.77	228.44
787.09	228.41
787.42	228.33
787.74	228.31
788.06	228.30
788.38	228.27
788.71	228.25
789.03	228.23
789.35	228.23
789.67	228.20
789.99	228.18
790.32	228.15
790.64	228.14
790.96	228.24
791.28	228.18
791.61	228.16
791.93	228.14
792.25	228.12
792.57	228.18
792.89	228.14
793.21	228.14
793.54	228.10
793.86	228.07
794.18	228.06
794.50	228.02
794.82	228.00
795.14	228.00
795.47	228.00
795.79	227.98
796.11	227.93
796.43	227.91
796.75	227.90
797.07	227.89
797.39	227.87
797.71	227.74
798.04	227.74
798.36	227.73
798.68	227.71
799.00	227.70
799.32	227.63
799.64	227.64
799.96	227.61
800.28	227.62
800.60	227.61
800.92	227.60
801.24	227.58
801.56	227.58
801.89	227.55
802.21	227.54
802.53	227.51
802.85	227.52
803.17	227.57
803.49	227.53
803.81	227.50
804.13	227.48
804.45	227.45
804.77	227.44
805.09	227.43
805.41	227.41
805.73	227.37
806.05	227.32
806.37	227.29
806.69	227.27
807.01	227.24
807.33	227.24
807.65	227.18
807.97	227.23
808.28	227.20
808.60	227.19
808.92	227.15
809.24	227.22
809.56	227.19
809.88	227.13
810.20	227.13
810.52	227.14
810.84	227.11
811.16	227.09
811.48	227.07
811.80	227.10
812.12	227.09
812.43	227.11
812.75	227.10
813.07	227.08
813.39	227.08
813.71	227.06
814.03	227.03
814.35	227.03
814.67	226.97
814.98	226.95
815.30	226.94
815.62	226.91
815.94	226.82
816.26	226.82
816.58	226.79
816.89	226.79
817.21	226.75
817.53	226.75
817.85	226.75
818.17	226.74
818.48	226.68
818.80	226.70
819.12	226.67
819.44	226.64
819.76	226.61
820.07	226.60
820.39	226.59
820.71	226.59
821.03	226.59
821.34	226.57
821.66	226.58
821.98	226.59
822.30	226.58
822.61	226.65
822.93	226.62
823.25	226.61
823.57	226.59
823.88	226.60
824.20	226.59
824.52	226.60
824.83	226.59
825.15	226.58
825.47	226.56
825.79	226.56
826.10	226.56
826.42	226.55
826.74	226.55
827.05	226.55
827.37	226.54
827.69	226.53
828.00	226.53
828.32	226.52
828.64	226.50
828.95	226.56
829.27	226.52
829.58	226.51
829.90	226.53
830.22	226.53
830.53	226.51
830.85	226.49
831.17	226.45
831.48	226.45
831.80	226.44
832.11	226.43
832.43	226.41
832.75	226.40
833.06	226.48
833.38	226.44
833.69	226.43
834.01	226.43
834.32	226.41
834.64	226.40
834.96	226.39
835.27	226.39
835.59	226.34
835.90	226.32
836.22	226.31
836.53	226.28
836.85	226.26
837.16	226.39
837.48	226.39
837.79	226.43
838.11	226.43
838.42	226.43
838.74	226.44
839.05	226.43
839.37	226.42
839.68	226.34
840.00	226.34
840.31	226.35
840.63	226.33
840.94	226.32
841.26	226.30
841.57	226.30
841.88	226.30
842.20	226.28
842.51	226.26
842.83	226.26
843.14	226.37
843.46	226.37
843.77	226.29
844.08	226.28
844.40	226.24
844.71	226.22
845.03	226.20
845.34	226.19
845.65	226.18
845.97	226.19
846.28	226.19
846.60	226.19
846.91	226.17
847.22	226.17
847.54	226.19
847.85	226.20
848.16	226.18
848.48	226.16
848.79	226.20
849.10	226.22
849.42	226.22
849.73	226.10
850.04	226.09
850.36	226.05
850.67	226.06
850.98	226.07
851.30	226.07
851.61	226.07
851.92	226.07
852.23	226.11
852.55	226.11
852.86	226.11
853.17	226.12
853.49	226.14
853.80	226.17
854.11	226.17
854.42	226.18
854.74	226.18
855.05	226.18
855.36	226.11
855.67	226.11
855.99	226.11
856.30	226.26
856.61	226.25
856.92	226.26
857.23	226.26
857.55	226.24
857.86	226.23
858.17	226.25
858.48	226.22
858.79	226.19
859.11	226.20
859.42	226.18
859.73	226.16
860.04	226.15
860.35	226.11
860.66	226.07
860.98	226.06
861.29	226.07
861.60	226.06
861.91	226.09
862.22	226.06
862.53	226.04
862.84	225.89
863.16	225.91
863.47	225.89
863.78	225.87
864.09	225.88
864.40	225.88
864.71	225.88
865.02	225.90
865.33	225.88
865.64	225.86
865.95	225.86
866.27	225.94
866.58	225.93
866.89	225.94
867.20	225.94
867.51	225.92
867.82	225.91
868.13	225.95
868.44	225.91
868.75	225.94
869.06	225.95
869.37	225.96
869.68	225.92
869.99	225.94
870.30	225.95
870.61	225.96
870.92	225.94
871.23	225.93
871.54	225.94
871.85	225.97
872.16	225.98
872.47	225.97
872.78	225.90
873.09	225.91
873.40	225.89
873.71	225.90
874.02	225.91
874.33	225.90
874.64	225.87
874.95	225.89
875.26	225.87
875.56	225.86
875.87	225.85
876.18	225.85
876.49	225.97
876.80	225.96
877.11	225.93
877.42	225.94
877.73	225.94
878.04	225.92
878.35	225.92
878.66	225.92
878.96	225.92
879.27	225.91
879.58	225.91
879.89	225.90
880.20	225.93
880.51	225.93
880.82	225.93
881.12	225.94
881.43	225.91
881.74	225.90
882.05	225.89
882.36	225.90
882.67	225.91
882.97	225.77
883.28	225.77
883.59	225.76
883.90	225.77
884.21	225.79
884.51	225.78
884.82	225.76
885.13	225.76
885.44	225.76
885.74	225.76
886.05	225.75
886.36	225.76
886.67	225.71
886.98	225.77
887.28	225.79
887.59	225.78
887.90	225.79
888.20	225.79
888.51	225.81
888.82	225.79
889.13	225.79
889.43	225.90
889.74	225.89
890.05	225.89
890.35	225.88
890.66	225.86
890.97	225.85
891.28	225.84
891.58	225.84
891.89	225.84
892.20	225.82
892.50	225.81
892.81	225.81
893.12	225.81
893.42	225.74
893.73	225.74
894.04	225.74
894.34	225.75
894.65	225.74
894.95	225.73
895.26	225.74
895.57	225.79
895.87	225.66
896.18	225.68
896.48	225.69
896.79	225.69
897.10	225.71
897.40	225.71
897.71	225.73
898.01	225.71
898.32	225.73
898.63	225.73
898.93	225.74
899.24	225.74
899.54	225.73
899.85	225.73
900.15	225.72
900.46	225.72
900.76	225.72
901.07	225.73
901.38	225.72
901.68	225.73
901.99	225.67
902.29	225.68
902.60	225.67
902.90	225.66
903.21	225.66
903.51	225.65
903.82	225.67
904.12	225.67
904.43	225.68
904.73	225.67
905.03	225.67
905.34	225.79
905.64	225.78
905.95	225.79
906.25	225.78
906.56	225.78
906.86	225.78
907.17	225.77
907.47	225.77
907.77	225.76
908.08	225.73
908.38	225.74
908.69	225.74
908.99	225.76
909.30	225.77
909.60	225.77
909.90	225.77
910.21	225.74
910.51	225.72
910.81	225.72
911.12	225.72
911.42	225.73
911.73	225.59
912.03	225.61
912.33	225.63
912.64	225.62
912.94	225.61
913.24	225.59
913.55	225.58
913.85	225.57
914.15	225.59
914.46	225.61
914.76	225.60
915.06	225.59
915.37	225.56
915.67	225.55
915.97	225.55
916.27	225.53
916.58	225.54
916.88	225.54
917.18	225.53
917.49	225.61
917.79	225.60
918.09	225.62
918.39	225.65
918.70	225.64
919.00	225.65
919.30	225.71
919.60	225.71
919.91	225.70
920.21	225.71
920.51	225.68
920.81	225.67
921.12	225.69
921.42	225.69
921.72	225.70
922.02	225.70
922.32	225.72
922.63	225.73
922.93	225.80
923.23	225.80
923.53	225.79
923.83	225.71
924.13	225.72
924.44	225.71
924.74	225.73
925.04	225.75
925.34	225.75
925.64	225.69
925.94	225.69
926.24	225.77
926.55	225.75
926.85	225.77
927.15	225.77
927.45	225.76
927.75	225.76
928.05	225.76
928.35	225.75
928.65	225.77
928.95	225.78
929.26	225.72
929.56	225.74
929.86	225.76
930.16	225.75
930.46	225.73
930.76	225.74
931.06	225.68
931.36	225.65
931.66	225.67
931.96	225.69
932.26	225.70
932.56	225.64
932.86	225.65
933.16	225.65
933.46	225.64
933.76	225.62
934.06	225.64
934.36	225.68
934.66	225.68
934.96	225.66
935.26	225.66
935.56	225.68
935.86	225.65
936.16	225.63
936.46	225.62
936.76	225.62
937.06	225.59
937.36	225.60
937.66	225.61
937.96	225.60
938.26	225.58
938.56	225.57
938.86	225.58
939.16	225.60
939.46	225.61
939.76	225.62
940.06	225.62
940.35	225.59
940.65	225.53
940.95	225.54
941.25	225.51
941.55	225.50
941.85	225.48
942.15	225.51
942.45	225.55
942.75	225.55
943.04	225.55
943.34	225.58
943.64	225.56
943.94	225.54
944.24	225.54
944.54	225.55
944.84	225.55
945.13	225.53
945.43	225.50
945.73	225.49
946.03	225.48
946.33	225.47
946.62	225.46
946.92	225.46
947.22	225.47
947.52	225.47
947.82	225.49
948.11	225.47
948.41	225.44
948.71	225.41
949.01	225.41
949.31	225.40
949.60	225.39
949.90	225.41
950.20	225.41
950.50	225.40
950.79	225.40
951.09	225.42
951.39	225.42
951.69	225.40
951.98	225.42
952.28	225.43
952.58	225.43
952.87	225.43
953.17	225.46
953.47	225.44
953.76	225.44
954.06	225.42
954.36	225.40
954.66	225.40
954.95	225.44
955.25	225.44
955.55	225.46
955.84	225.44
956.14	225.45
956.44	225.46
956.73	225.44
957.03	225.45
957.32	225.45
957.62	225.44
957.92	225.47
958.21	225.46
958.51	225.60
958.81	225.62
959.10	225.63
959.40	225.65
959.69	225.66
959.99	225.68
960.29	225.68
960.58	225.68
960.88	225.73
961.17	225.71
961.47	225.72
961.76	225.71
962.06	225.73
962.36	225.72
962.65	225.72
962.95	225.73
963.24	225.72
963.54	225.72
963.83	225.73
964.13	225.72
964.42	225.71
964.72	225.60
965.01	225.61
965.31	225.60
965.60	225.57
965.90	225.65
966.19	225.62
966.49	225.62
966.78	225.62
967.08	225.60
967.37	225.60
967.67	225.58
967.96	225.60
968.26	225.59
968.55	225.61
968.85	225.60
969.14	225.60
969.43	225.60
969.73	225.59
970.02	225.58
970.32	225.57
970.61	225.54
970.91	225.51
971.20	225.49
971.49	225.47
971.79	225.49
972.08	225.40
972.38	225.41
972.67	225.40
972.96	225.42
973.26	225.40
973.55	225.44
973.85	225.44
974.14	225.42
974.43	225.43
974.73	225.40
975.02	225.39
975.31	225.39
975.61	225.39
975.90	225.38
976.19	225.38
976.49	225.39
976.78	225.40
977.07	225.40
977.37	225.41
977.66	225.43
977.95	225.41
978.24	225.42
978.54	225.45
978.83	225.44
979.12	225.43
979.42	225.43
979.71	225.40
980.00	225.40
980.29	225.40
980.59	225.38
980.88	225.42
981.17	225.42
981.46	225.41
981.76	225.42
982.05	225.45
982.34	225.46
982.63	225.46
982.93	225.46
983.22	225.49
983.51	225.50
983.80	225.51
984.09	225.52
984.39	225.51
984.68	225.49
984.97	225.50
985.26	225.49
985.55	225.50
985.85	225.48
986.14	225.50
986.43	225.51
986.72	225.50
987.01	225.46
987.30	225.46
987.59	225.45
987.89	225.46
988.18	225.42
988.47	225.41
988.76	225.40
989.05	225.38
989.34	225.37
989.63	225.40
989.92	225.38
990.22	225.36
990.51	225.36
990.80	225.35
991.09	225.36
991.38	225.38
991.67	225.36
991.96	225.35
992.25	225.35
992.54	225.33
992.83	225.34
993.12	225.33
993.41	225.35
993.70	225.40
993.99	225.43
994.28	225.44
994.58	225.47
994.87	225.46
995.16	225.46
995.45	225.45
995.74	225.40
996.03	225.42
996.32	225.44
996.61	225.46
996.90	225.46
997.19	225.45
997.48	225.45
997.77	225.44
998.06	225.45
998.34	225.44
998.63	225.44
998.92	225.44
999.21	225.47
999.50	225.46
999.79	225.42
1000.08	225.41
1000.37	225.41
1000.66	225.39
1000.95	225.42
1001.24	225.43
1001.53	225.45
1001.82	225.44
1002.11	225.41
1002.40	225.42
1002.68	225.45
1002.97	225.54
1003.26	225.52
1003.55	225.50
1003.84	225.51
1004.13	225.56
1004.42	225.55
1004.71	225.55
1004.99	225.54
1005.28	225.57
1005.57	225.56
1005.86	225.55
1006.15	225.54
1006.44	225.52
1006.72	225.54
1007.01	225.52
1007.30	225.52
1007.59	225.50
1007.88	225.50
1008.17	225.51
1008.45	225.49
1008.74	225.43
1009.03	225.37
1009.32	225.38
1009.60	225.38
1009.89	225.36
1010.18	225.31
1010.47	225.31
1010.76	225.31
1011.04	225.31
1011.33	225.30
1011.62	225.31
1011.91	225.32
1012.19	225.32
1012.48	225.33
1012.77	225.33
1013.05	225.37
1013.34	225.37
1013.63	225.36
1013.92	225.37
1014.20	225.36
1014.49	225.37
1014.78	225.39
1015.06	225.35
1015.35	225.35
1015.64	225.37
1015.92	225.39
1016.21	225.40
1016.50	225.40
1016.78	225.41
1017.07	225.43
1017.36	225.40
1017.64	225.38
1017.93	225.40
1018.22	225.38
1018.50	225.38
1018.79	225.38
1019.08	225.33
1019.36	225.33
1019.65	225.32
1019.93	225.36
1020.22	225.38
1020.51	225.44
1020.79	225.42
1021.08	225.16
1021.36	225.20
1021.65	225.34
1021.94	225.28
1022.22	225.45
1022.51	225.11
1022.79	225.99
1023.08	225.52
1023.36	226.88
1023.65	225.05
>>>>>End Processed Spectral Data<<<<<
