SpectraSuite Data File
++++++++++++++++++++++++++++++++++++
Date: Sun Oct 04 11:25:59 EDT 2015
User: lab3
Dark Spectrum Present: No
Reference Spectrum Present: No
Number of Sampled Component Spectra: 1
Spectrometers: USB2E7196
Integration Time (usec): 46000 (USB2E7196)
Spectra Averaged: 24000 (USB2E7196)
Boxcar Smoothing: 10 (USB2E7196)
Correct for Electrical Dark: No (USB2E7196)
Strobe/Lamp Enabled: No (USB2E7196)
Correct for Detector Non-linearity: No (USB2E7196)
Correct for Stray Light: No (USB2E7196)
Number of Pixels in Processed Spectrum: 2048
>>>>>Begin Processed Spectral Data<<<<<
339.09	0.00
339.48	214.18
339.86	215.66
340.24	217.03
340.63	218.40
341.01	221.72
341.39	221.16
341.78	222.53
342.16	223.76
342.54	224.16
342.93	212.61
343.31	223.35
343.69	223.88
344.07	224.34
344.46	224.78
344.84	225.17
345.22	225.40
345.60	225.65
345.99	225.85
346.37	225.99
346.75	226.10
347.13	226.18
347.52	226.25
347.90	226.34
348.28	226.39
348.66	226.45
349.05	226.45
349.43	226.50
349.81	226.57
350.19	226.63
350.57	226.69
350.96	226.78
351.34	226.88
351.72	226.98
352.10	227.09
352.48	227.16
352.87	227.21
353.25	227.28
353.63	227.34
354.01	227.40
354.39	227.48
354.77	227.55
355.15	227.66
355.54	227.71
355.92	227.74
356.30	227.81
356.68	227.96
357.06	228.04
357.44	228.08
357.82	228.14
358.20	228.26
358.58	228.32
358.97	228.38
359.35	228.46
359.73	228.55
360.11	228.60
360.49	228.66
360.87	228.71
361.25	228.77
361.63	228.86
362.01	228.91
362.39	228.94
362.77	228.98
363.15	229.01
363.53	229.04
363.91	229.08
364.29	229.10
364.67	229.00
365.05	229.03
365.43	229.06
365.81	229.09
366.19	229.11
366.57	229.17
366.95	229.17
367.33	229.14
367.71	229.13
368.09	229.15
368.47	229.14
368.85	229.13
369.23	229.14
369.61	229.08
369.99	229.10
370.37	229.10
370.75	229.18
371.13	229.14
371.51	229.10
371.89	229.08
372.27	229.06
372.65	229.04
373.03	229.00
373.41	228.96
373.78	228.90
374.16	228.80
374.54	228.72
374.92	228.67
375.30	228.63
375.68	228.56
376.06	228.51
376.44	228.46
376.82	228.42
377.19	228.37
377.57	228.32
377.95	228.23
378.33	228.17
378.71	228.01
379.09	227.97
379.47	227.93
379.84	227.87
380.22	227.81
380.60	227.73
380.98	227.69
381.36	227.63
381.73	227.57
382.11	227.55
382.49	227.51
382.87	227.46
383.25	227.41
383.62	227.52
384.00	227.45
384.38	227.41
384.76	227.40
385.13	227.40
385.51	227.36
385.89	227.31
386.27	227.27
386.64	227.26
387.02	227.21
387.40	227.17
387.78	227.15
388.15	227.13
388.53	227.10
388.91	227.07
389.29	227.04
389.66	227.04
390.04	227.00
390.42	227.00
390.79	226.99
391.17	226.97
391.55	226.81
391.92	226.81
392.30	226.81
392.68	226.77
393.05	226.75
393.43	226.75
393.81	226.77
394.18	226.75
394.56	226.75
394.94	226.79
395.31	226.79
395.69	226.84
396.06	226.87
396.44	226.90
396.82	226.92
397.19	227.01
397.57	227.02
397.95	227.08
398.32	227.07
398.70	227.13
399.07	227.20
399.45	227.24
399.82	227.30
400.20	227.34
400.58	227.41
400.95	227.43
401.33	227.52
401.70	227.69
402.08	227.80
402.45	227.90
402.83	228.02
403.20	228.15
403.58	228.26
403.95	228.41
404.33	228.57
404.71	228.74
405.08	228.97
405.46	229.15
405.83	229.36
406.21	229.58
406.58	229.82
406.96	230.07
407.33	230.35
407.70	230.66
408.08	231.08
408.45	231.45
408.83	231.86
409.20	232.22
409.58	232.56
409.95	233.02
410.33	233.51
410.70	233.98
411.08	234.53
411.45	235.11
411.82	235.70
412.20	236.38
412.57	237.17
412.95	237.81
413.32	238.63
413.69	239.48
414.07	240.38
414.44	241.35
414.82	242.34
415.19	243.51
415.56	244.69
415.94	245.92
416.31	247.29
416.68	248.67
417.06	250.27
417.43	251.76
417.81	253.48
418.18	255.23
418.55	257.15
418.93	259.14
419.30	261.22
419.67	263.42
420.04	265.69
420.42	268.05
420.79	270.77
421.16	273.53
421.54	276.32
421.91	279.25
422.28	282.29
422.66	285.56
423.03	288.68
423.40	291.96
423.77	295.48
424.15	299.08
424.52	302.82
424.89	306.88
425.26	310.91
425.64	314.66
426.01	318.88
426.38	323.19
426.75	327.63
427.13	332.18
427.50	336.95
427.87	341.91
428.24	346.92
428.61	351.74
428.99	356.95
429.36	362.66
429.73	368.12
430.10	373.58
430.47	379.16
430.85	384.91
431.22	391.07
431.59	397.39
431.96	403.58
432.33	410.44
432.70	416.96
433.08	424.67
433.45	431.96
433.82	439.15
434.19	447.16
434.56	455.07
434.93	462.71
435.30	470.25
435.68	478.78
436.05	487.14
436.42	495.47
436.79	503.07
437.16	511.27
437.53	520.06
437.90	528.86
438.27	537.47
438.64	546.78
439.01	555.19
439.38	562.92
439.75	570.33
440.13	578.71
440.50	586.67
440.87	592.99
441.24	599.90
441.61	607.44
441.98	612.91
442.35	619.43
442.72	626.08
443.09	632.42
443.46	636.41
443.83	639.33
444.20	641.74
444.57	645.40
444.94	647.41
445.31	649.52
445.68	651.27
446.05	652.55
446.42	652.07
446.79	651.36
447.16	650.72
447.53	650.14
447.90	647.38
448.27	644.73
448.64	640.74
449.01	637.95
449.37	632.47
449.74	627.53
450.11	621.14
450.48	614.17
450.85	607.22
451.22	601.29
451.59	595.50
451.96	590.26
452.33	582.64
452.70	575.91
453.07	567.68
453.43	559.51
453.80	551.56
454.17	543.95
454.54	536.98
454.91	529.07
455.28	521.68
455.65	514.70
456.02	507.31
456.38	501.40
456.75	493.77
457.12	487.65
457.49	481.46
457.86	475.65
458.23	470.56
458.59	464.90
458.96	459.08
459.33	453.98
459.70	448.77
460.07	444.83
460.43	440.19
460.80	435.84
461.17	432.08
461.54	427.97
461.91	424.13
462.27	420.22
462.64	417.09
463.01	413.46
463.38	409.80
463.74	406.54
464.11	403.64
464.48	401.02
464.85	398.17
465.21	396.01
465.58	393.60
465.95	390.83
466.32	388.63
466.68	386.47
467.05	384.29
467.42	382.17
467.78	379.86
468.15	377.74
468.52	376.20
468.88	374.11
469.25	372.21
469.62	370.68
469.98	369.02
470.35	367.53
470.72	366.18
471.08	364.81
471.45	363.65
471.82	362.35
472.18	360.98
472.55	360.09
472.92	358.96
473.28	358.07
473.65	357.12
474.02	356.21
474.38	355.43
474.75	354.95
475.11	354.30
475.48	353.97
475.85	353.62
476.21	353.40
476.58	353.24
476.94	353.33
477.31	353.35
477.67	353.40
478.04	353.57
478.41	353.84
478.77	354.24
479.14	354.48
479.50	355.00
479.87	355.68
480.23	356.37
480.60	357.05
480.96	357.74
481.33	358.77
481.69	359.80
482.06	360.83
482.42	361.76
482.79	362.93
483.15	364.30
483.52	365.86
483.88	367.36
484.25	368.96
484.61	370.63
484.98	372.43
485.34	374.47
485.71	376.60
486.07	378.89
486.44	381.18
486.80	383.73
487.17	386.37
487.53	389.26
487.90	392.28
488.26	395.58
488.62	399.07
488.99	402.56
489.35	406.24
489.72	410.23
490.08	414.44
490.44	418.79
490.81	423.29
491.17	427.91
491.54	432.87
491.90	437.97
492.26	443.45
492.63	449.17
492.99	455.15
493.36	461.34
493.72	467.84
494.08	474.50
494.45	481.59
494.81	488.95
495.17	496.52
495.54	504.52
495.90	512.82
496.26	521.31
496.63	530.05
496.99	539.12
497.35	548.60
497.72	558.39
498.08	568.39
498.44	578.74
498.80	589.71
499.17	600.96
499.53	612.56
499.89	624.53
500.26	636.76
500.62	649.29
500.98	662.49
501.34	675.88
501.71	689.82
502.07	703.94
502.43	718.62
502.79	733.53
503.16	748.93
503.52	764.49
503.88	780.55
504.24	797.09
504.60	813.84
504.97	831.10
505.33	848.80
505.69	867.44
506.05	886.47
506.41	905.41
506.78	924.54
507.14	944.18
507.50	964.27
507.86	984.73
508.22	1005.40
508.59	1025.87
508.95	1047.20
509.31	1069.32
509.67	1092.18
510.03	1115.05
510.39	1137.93
510.75	1160.95
511.12	1184.26
511.48	1207.71
511.84	1231.16
512.20	1255.09
512.56	1279.94
512.92	1304.79
513.28	1329.16
513.64	1353.76
514.00	1378.89
514.37	1404.31
514.73	1429.69
515.09	1454.94
515.45	1480.50
515.81	1506.22
516.17	1532.04
516.53	1557.34
516.89	1582.47
517.25	1607.81
517.61	1632.96
517.97	1658.58
518.33	1683.72
518.69	1708.78
519.05	1734.32
519.41	1760.13
519.77	1786.10
520.13	1811.25
520.49	1836.31
520.85	1861.78
521.21	1886.81
521.57	1912.20
521.93	1937.01
522.29	1962.34
522.65	1987.07
523.01	2011.79
523.37	2036.06
523.73	2061.10
524.09	2085.75
524.45	2110.16
524.81	2134.15
525.17	2157.99
525.53	2181.19
525.89	2204.85
526.25	2228.60
526.61	2251.33
526.97	2274.18
527.33	2296.96
527.68	2319.41
528.04	2340.97
528.40	2361.55
528.76	2382.29
529.12	2402.46
529.48	2422.37
529.84	2440.34
530.20	2459.04
530.56	2477.02
530.91	2495.16
531.27	2512.97
531.63	2529.85
531.99	2546.28
532.35	2561.91
532.71	2577.74
533.07	2594.27
533.42	2608.84
533.78	2624.41
534.14	2640.21
534.50	2655.01
534.86	2669.49
535.21	2681.91
535.57	2694.99
535.93	2707.85
536.29	2719.54
536.65	2731.03
537.00	2741.71
537.36	2753.46
537.72	2763.72
538.08	2773.47
538.44	2782.48
538.79	2790.95
539.15	2798.74
539.51	2806.13
539.87	2812.90
540.22	2817.55
540.58	2822.33
540.94	2828.41
541.29	2832.74
541.65	2835.21
542.01	2836.92
542.37	2838.01
542.72	2840.59
543.08	2841.27
543.44	2842.54
543.79	2842.78
544.15	2842.15
544.51	2841.97
544.87	2840.57
545.22	2838.36
545.58	2835.44
545.94	2832.61
546.29	2828.48
546.65	2824.30
547.01	2820.09
547.36	2816.69
547.72	2813.42
548.07	2808.28
548.43	2801.64
548.79	2793.99
549.14	2787.73
549.50	2781.80
549.86	2774.85
550.21	2766.71
550.57	2759.61
550.92	2750.10
551.28	2741.17
551.64	2732.72
551.99	2723.83
552.35	2714.24
552.70	2705.01
553.06	2696.12
553.41	2686.56
553.77	2676.80
554.13	2666.98
554.48	2656.23
554.84	2644.20
555.19	2632.60
555.55	2621.14
555.90	2609.78
556.26	2599.03
556.61	2587.12
556.97	2573.48
557.32	2560.31
557.68	2547.17
558.03	2533.78
558.39	2521.76
558.74	2510.00
559.10	2496.40
559.45	2482.99
559.81	2470.29
560.16	2456.94
560.52	2443.93
560.87	2431.29
561.23	2417.86
561.58	2404.45
561.94	2390.77
562.29	2376.45
562.64	2362.97
563.00	2349.15
563.35	2335.74
563.71	2322.16
564.06	2308.43
564.42	2295.60
564.77	2282.26
565.12	2268.77
565.48	2255.24
565.83	2241.63
566.19	2228.17
566.54	2214.59
566.89	2199.89
567.25	2185.46
567.60	2172.42
567.96	2158.37
568.31	2142.95
568.66	2128.26
569.02	2114.79
569.37	2101.27
569.72	2088.35
570.08	2074.10
570.43	2059.48
570.78	2044.70
571.14	2029.18
571.49	2014.40
571.84	2000.15
572.20	1984.62
572.55	1969.36
572.90	1954.04
573.26	1938.79
573.61	1922.99
573.96	1907.70
574.31	1892.71
574.67	1877.70
575.02	1861.60
575.37	1845.64
575.72	1830.59
576.08	1815.84
576.43	1799.99
576.78	1784.58
577.13	1769.40
577.49	1754.59
577.84	1740.46
578.19	1725.35
578.54	1710.44
578.90	1694.98
579.25	1679.43
579.60	1665.54
579.95	1651.51
580.30	1637.27
580.66	1622.75
581.01	1608.22
581.36	1593.69
581.71	1580.15
582.06	1566.49
582.42	1553.06
582.77	1539.69
583.12	1526.29
583.47	1512.79
583.82	1499.40
584.17	1485.66
584.53	1471.63
584.88	1457.96
585.23	1443.87
585.58	1430.59
585.93	1417.52
586.28	1405.20
586.63	1392.83
586.98	1380.00
587.34	1367.23
587.69	1354.26
588.04	1341.61
588.39	1329.31
588.74	1317.16
589.09	1304.75
589.44	1291.98
589.79	1279.89
590.14	1267.86
590.49	1255.75
590.84	1243.76
591.19	1232.18
591.54	1220.40
591.89	1208.75
592.25	1197.33
592.60	1185.53
592.95	1174.17
593.30	1163.06
593.65	1151.65
594.00	1140.37
594.35	1129.69
594.70	1118.58
595.05	1108.32
595.40	1097.94
595.75	1087.40
596.10	1077.40
596.45	1067.16
596.80	1057.26
597.15	1047.07
597.50	1037.07
597.85	1027.45
598.19	1017.69
598.54	1008.00
598.89	998.78
599.24	989.87
599.59	980.73
599.94	972.52
600.29	964.10
600.64	955.41
600.99	946.36
601.34	937.67
601.69	928.63
602.04	920.31
602.39	911.79
602.74	903.33
603.08	894.84
603.43	886.33
603.78	878.00
604.13	869.79
604.48	861.60
604.83	853.60
605.18	845.54
605.53	837.67
605.87	829.61
606.22	821.82
606.57	813.98
606.92	806.09
607.27	798.12
607.62	790.46
607.96	783.20
608.31	776.38
608.66	769.34
609.01	762.59
609.36	755.94
609.70	749.10
610.05	742.24
610.40	735.65
610.75	729.04
611.10	722.78
611.44	716.37
611.79	710.06
612.14	703.68
612.49	697.37
612.83	691.36
613.18	685.47
613.53	679.53
613.88	673.59
614.22	668.04
614.57	662.45
614.92	656.70
615.27	651.06
615.61	645.48
615.96	639.97
616.31	634.45
616.65	628.98
617.00	623.72
617.35	618.57
617.70	613.46
618.04	608.41
618.39	603.28
618.74	598.39
619.08	593.55
619.43	588.82
619.78	584.10
620.12	579.35
620.47	574.76
620.82	570.26
621.16	565.82
621.51	561.28
621.85	556.78
622.20	552.45
622.55	548.16
622.89	543.95
623.24	539.74
623.59	535.56
623.93	531.56
624.28	527.64
624.62	523.81
624.97	520.03
625.32	516.20
625.66	512.34
626.01	508.46
626.35	504.64
626.70	500.87
627.04	497.27
627.39	493.60
627.73	490.11
628.08	486.71
628.43	483.30
628.77	479.95
629.12	476.73
629.46	473.53
629.81	470.25
630.15	466.95
630.50	463.77
630.84	460.64
631.19	457.56
631.53	454.58
631.88	451.56
632.22	448.58
632.57	445.87
632.91	443.19
633.26	440.59
633.60	438.01
633.95	435.49
634.29	432.88
634.64	430.35
634.98	427.64
635.32	425.06
635.67	422.67
636.01	420.21
636.36	417.80
636.70	415.52
637.05	413.24
637.39	411.00
637.73	408.78
638.08	406.67
638.42	404.54
638.77	402.28
639.11	399.98
639.45	397.75
639.80	395.47
640.14	393.30
640.49	391.11
640.83	388.91
641.17	386.81
641.52	384.75
641.86	382.71
642.20	380.88
642.55	378.90
642.89	376.94
643.23	375.08
643.58	373.37
643.92	371.53
644.26	369.76
644.61	368.04
644.95	366.29
645.29	364.47
645.64	362.67
645.98	360.97
646.32	359.38
646.66	357.78
647.01	356.21
647.35	354.67
647.69	353.12
648.04	351.70
648.38	350.20
648.72	348.72
649.06	347.26
649.41	345.79
649.75	344.38
650.09	343.00
650.43	341.62
650.78	340.19
651.12	338.81
651.46	337.48
651.80	336.18
652.14	334.89
652.49	333.66
652.83	332.41
653.17	331.20
653.51	330.02
653.85	328.89
654.20	327.72
654.54	326.48
654.88	325.34
655.22	324.22
655.56	323.10
655.90	322.04
656.25	321.01
656.59	319.96
656.93	318.97
657.27	318.00
657.61	316.98
657.95	316.00
658.29	315.02
658.64	314.09
658.98	313.16
659.32	312.25
659.66	311.39
660.00	310.56
660.34	309.73
660.68	308.86
661.02	307.98
661.36	307.13
661.70	306.32
662.05	305.54
662.39	304.75
662.73	304.04
663.07	303.33
663.41	302.59
663.75	301.84
664.09	301.11
664.43	300.33
664.77	299.64
665.11	298.90
665.45	298.23
665.79	297.57
666.13	296.87
666.47	296.17
666.81	295.45
667.15	294.71
667.49	294.07
667.83	293.48
668.17	292.87
668.51	292.30
668.85	291.75
669.19	291.24
669.53	290.63
669.87	290.02
670.21	289.43
670.55	288.88
670.89	288.41
671.23	287.89
671.57	287.38
671.91	286.92
672.25	286.49
672.58	286.05
672.92	285.53
673.26	285.09
673.60	284.67
673.94	284.25
674.28	283.87
674.62	283.45
674.96	282.98
675.30	282.57
675.64	282.14
675.97	281.68
676.31	281.20
676.65	280.77
676.99	280.41
677.33	279.98
677.67	279.58
678.01	279.11
678.34	278.71
678.68	278.34
679.02	277.90
679.36	277.49
679.70	277.07
680.04	276.70
680.37	276.32
680.71	275.96
681.05	275.61
681.39	275.23
681.73	274.82
682.06	274.44
682.40	274.07
682.74	273.75
683.08	273.48
683.42	273.14
683.75	272.83
684.09	272.45
684.43	272.14
684.77	271.81
685.10	271.53
685.44	271.21
685.78	270.90
686.12	270.61
686.45	270.29
686.79	269.96
687.13	269.67
687.46	269.35
687.80	269.05
688.14	268.70
688.48	268.41
688.81	268.11
689.15	267.85
689.49	267.54
689.82	267.22
690.16	266.85
690.50	266.56
690.83	266.25
691.17	265.95
691.51	265.65
691.84	265.38
692.18	265.06
692.52	264.75
692.85	264.46
693.19	264.20
693.52	263.92
693.86	263.63
694.20	263.35
694.53	263.08
694.87	262.77
695.21	262.49
695.54	262.21
695.88	261.92
696.21	261.60
696.55	261.33
696.88	261.05
697.22	260.79
697.56	260.52
697.89	260.21
698.23	259.94
698.56	259.64
698.90	259.38
699.23	259.09
699.57	258.81
699.90	258.53
700.24	258.23
700.58	257.98
700.91	257.76
701.25	257.61
701.58	257.41
701.92	257.20
702.25	256.96
702.59	256.70
702.92	256.46
703.26	256.21
703.59	255.94
703.93	255.79
704.26	255.55
704.60	255.30
704.93	255.05
705.26	254.80
705.60	254.60
705.93	254.32
706.27	254.13
706.60	253.93
706.94	253.75
707.27	253.48
707.61	253.23
707.94	252.97
708.27	252.61
708.61	252.32
708.94	252.05
709.28	251.82
709.61	251.59
709.94	251.38
710.28	251.17
710.61	250.98
710.95	250.67
711.28	250.53
711.61	250.31
711.95	250.14
712.28	249.91
712.61	249.68
712.95	249.55
713.28	249.40
713.61	249.16
713.95	248.91
714.28	248.72
714.61	248.51
714.95	248.31
715.28	248.12
715.61	247.93
715.95	247.76
716.28	247.57
716.61	247.42
716.95	247.21
717.28	247.02
717.61	246.82
717.94	246.64
718.28	246.36
718.61	246.17
718.94	245.97
719.27	245.79
719.61	245.63
719.94	245.41
720.27	245.15
720.60	244.98
720.94	244.80
721.27	244.64
721.60	244.49
721.93	244.31
722.27	244.19
722.60	244.03
722.93	243.84
723.26	243.68
723.59	243.48
723.93	243.32
724.26	243.17
724.59	243.00
724.92	242.85
725.25	242.74
725.59	242.59
725.92	242.46
726.25	242.32
726.58	242.17
726.91	242.01
727.24	241.89
727.57	241.75
727.91	241.59
728.24	241.47
728.57	241.31
728.90	241.19
729.23	241.01
729.56	240.92
729.89	240.78
730.22	240.63
730.55	240.49
730.89	240.36
731.22	240.21
731.55	240.08
731.88	239.95
732.21	239.79
732.54	239.65
732.87	239.52
733.20	239.40
733.53	239.28
733.86	239.17
734.19	239.02
734.52	238.92
734.85	238.89
735.18	238.74
735.51	238.65
735.84	238.54
736.17	238.45
736.50	238.28
736.83	238.32
737.16	238.21
737.49	238.11
737.82	237.99
738.15	237.90
738.48	237.80
738.81	237.68
739.14	237.57
739.47	237.45
739.80	237.34
740.13	237.24
740.46	237.11
740.79	236.99
741.12	236.88
741.45	236.76
741.78	236.58
742.11	236.51
742.44	236.38
742.77	236.29
743.10	236.17
743.43	236.07
743.75	235.83
744.08	235.93
744.41	235.82
744.74	235.73
745.07	235.60
745.40	235.53
745.73	235.49
746.06	235.41
746.39	235.34
746.71	235.24
747.04	235.14
747.37	235.06
747.70	235.00
748.03	234.92
748.36	234.86
748.68	234.77
749.01	234.65
749.34	234.57
749.67	234.49
750.00	234.43
750.33	234.44
750.65	234.37
750.98	234.10
751.31	234.03
751.64	233.96
751.97	233.95
752.29	233.86
752.62	233.73
752.95	233.64
753.28	233.55
753.60	233.47
753.93	233.43
754.26	233.36
754.59	233.24
754.91	233.15
755.24	233.07
755.57	233.05
755.90	232.98
756.22	232.89
756.55	232.80
756.88	232.70
757.20	232.55
757.53	232.44
757.86	232.37
758.19	232.31
758.51	232.24
758.84	232.11
759.17	232.03
759.49	231.97
759.82	231.97
760.15	231.92
760.47	231.85
760.80	231.75
761.13	231.71
761.45	231.65
761.78	231.60
762.11	231.55
762.43	231.42
762.76	231.37
763.08	231.33
763.41	231.28
763.74	231.24
764.06	231.18
764.39	231.14
764.71	231.09
765.04	231.02
765.37	230.96
765.69	230.91
766.02	230.86
766.34	230.80
766.67	230.71
767.00	230.68
767.32	230.70
767.65	230.74
767.97	230.68
768.30	230.64
768.62	230.59
768.95	230.53
769.27	230.48
769.60	230.46
769.92	230.39
770.25	230.33
770.57	230.26
770.90	230.22
771.22	230.17
771.55	230.12
771.87	230.09
772.20	230.05
772.52	230.12
772.85	230.23
773.17	230.20
773.50	230.15
773.82	230.10
774.15	230.00
774.47	229.88
774.80	229.83
775.12	229.80
775.45	229.76
775.77	229.74
776.09	229.71
776.42	229.69
776.74	229.70
777.07	229.66
777.39	229.64
777.72	229.60
778.04	229.59
778.36	229.55
778.69	229.53
779.01	229.51
779.33	229.37
779.66	229.19
779.98	229.16
780.31	229.14
780.63	229.16
780.95	229.16
781.28	229.13
781.60	229.10
781.92	229.08
782.25	229.05
782.57	229.03
782.89	228.99
783.22	228.96
783.54	228.90
783.86	228.89
784.19	228.86
784.51	228.88
784.83	228.84
785.16	228.82
785.48	228.80
785.80	228.77
786.12	228.76
786.45	228.74
786.77	228.73
787.09	228.70
787.42	228.63
787.74	228.61
788.06	228.60
788.38	228.57
788.71	228.55
789.03	228.53
789.35	228.53
789.67	228.49
789.99	228.48
790.32	228.45
790.64	228.44
790.96	228.54
791.28	228.48
791.61	228.45
791.93	228.44
792.25	228.42
792.57	228.49
792.89	228.45
793.21	228.44
793.54	228.41
793.86	228.38
794.18	228.37
794.50	228.33
794.82	228.31
795.14	228.31
795.47	228.32
795.79	228.30
796.11	228.26
796.43	228.24
796.75	228.22
797.07	228.21
797.39	228.19
797.71	228.07
798.04	228.07
798.36	228.06
798.68	228.04
799.00	228.04
799.32	227.96
799.64	227.97
799.96	227.95
800.28	227.96
800.60	227.94
800.92	227.94
801.24	227.92
801.56	227.91
801.89	227.89
802.21	227.88
802.53	227.84
802.85	227.86
803.17	227.91
803.49	227.87
803.81	227.84
804.13	227.82
804.45	227.80
804.77	227.79
805.09	227.78
805.41	227.76
805.73	227.72
806.05	227.67
806.37	227.65
806.69	227.62
807.01	227.60
807.33	227.60
807.65	227.54
807.97	227.59
808.28	227.57
808.60	227.55
808.92	227.52
809.24	227.59
809.56	227.56
809.88	227.50
810.20	227.50
810.52	227.51
810.84	227.49
811.16	227.46
811.48	227.44
811.80	227.48
812.12	227.46
812.43	227.48
812.75	227.48
813.07	227.46
813.39	227.45
813.71	227.43
814.03	227.41
814.35	227.41
814.67	227.34
814.98	227.32
815.30	227.31
815.62	227.28
815.94	227.19
816.26	227.20
816.58	227.17
816.89	227.17
817.21	227.13
817.53	227.13
817.85	227.13
818.17	227.13
818.48	227.07
818.80	227.08
819.12	227.05
819.44	227.03
819.76	227.01
820.07	227.00
820.39	226.99
820.71	227.00
821.03	226.99
821.34	226.97
821.66	226.98
821.98	226.99
822.30	226.98
822.61	227.05
822.93	227.02
823.25	227.02
823.57	227.00
823.88	227.01
824.20	227.00
824.52	227.01
824.83	227.00
825.15	226.98
825.47	226.96
825.79	226.97
826.10	226.96
826.42	226.95
826.74	226.95
827.05	226.94
827.37	226.94
827.69	226.93
828.00	226.93
828.32	226.92
828.64	226.90
828.95	226.96
829.27	226.91
829.58	226.91
829.90	226.93
830.22	226.94
830.53	226.91
830.85	226.90
831.17	226.86
831.48	226.85
831.80	226.86
832.11	226.85
832.43	226.83
832.75	226.82
833.06	226.90
833.38	226.86
833.69	226.85
834.01	226.85
834.32	226.84
834.64	226.83
834.96	226.82
835.27	226.82
835.59	226.77
835.90	226.75
836.22	226.74
836.53	226.70
836.85	226.68
837.16	226.81
837.48	226.80
837.79	226.84
838.11	226.84
838.42	226.84
838.74	226.85
839.05	226.84
839.37	226.83
839.68	226.75
840.00	226.74
840.31	226.76
840.63	226.74
840.94	226.73
841.26	226.71
841.57	226.71
841.88	226.72
842.20	226.70
842.51	226.68
842.83	226.67
843.14	226.79
843.46	226.78
843.77	226.71
844.08	226.70
844.40	226.66
844.71	226.64
845.03	226.63
845.34	226.61
845.65	226.61
845.97	226.61
846.28	226.62
846.60	226.62
846.91	226.60
847.22	226.59
847.54	226.62
847.85	226.63
848.16	226.61
848.48	226.59
848.79	226.63
849.10	226.65
849.42	226.65
849.73	226.53
850.04	226.53
850.36	226.48
850.67	226.50
850.98	226.50
851.30	226.51
851.61	226.51
851.92	226.50
852.23	226.54
852.55	226.54
852.86	226.54
853.17	226.55
853.49	226.57
853.80	226.59
854.11	226.59
854.42	226.60
854.74	226.59
855.05	226.60
855.36	226.53
855.67	226.53
855.99	226.52
856.30	226.67
856.61	226.67
856.92	226.67
857.23	226.67
857.55	226.66
857.86	226.65
858.17	226.67
858.48	226.65
858.79	226.62
859.11	226.63
859.42	226.62
859.73	226.60
860.04	226.59
860.35	226.55
860.66	226.51
860.98	226.51
861.29	226.52
861.60	226.51
861.91	226.54
862.22	226.52
862.53	226.50
862.84	226.35
863.16	226.37
863.47	226.35
863.78	226.33
864.09	226.34
864.40	226.34
864.71	226.34
865.02	226.35
865.33	226.34
865.64	226.31
865.95	226.31
866.27	226.39
866.58	226.38
866.89	226.39
867.20	226.39
867.51	226.37
867.82	226.36
868.13	226.40
868.44	226.37
868.75	226.39
869.06	226.40
869.37	226.41
869.68	226.38
869.99	226.40
870.30	226.41
870.61	226.42
870.92	226.40
871.23	226.38
871.54	226.40
871.85	226.43
872.16	226.44
872.47	226.43
872.78	226.36
873.09	226.37
873.40	226.36
873.71	226.37
874.02	226.38
874.33	226.37
874.64	226.34
874.95	226.36
875.26	226.33
875.56	226.33
875.87	226.32
876.18	226.31
876.49	226.43
876.80	226.42
877.11	226.39
877.42	226.40
877.73	226.40
878.04	226.38
878.35	226.37
878.66	226.38
878.96	226.37
879.27	226.37
879.58	226.36
879.89	226.36
880.20	226.39
880.51	226.38
880.82	226.38
881.12	226.39
881.43	226.36
881.74	226.35
882.05	226.34
882.36	226.35
882.67	226.36
882.97	226.22
883.28	226.21
883.59	226.21
883.90	226.22
884.21	226.24
884.51	226.23
884.82	226.21
885.13	226.21
885.44	226.21
885.74	226.21
886.05	226.20
886.36	226.20
886.67	226.15
886.98	226.22
887.28	226.23
887.59	226.23
887.90	226.23
888.20	226.23
888.51	226.25
888.82	226.23
889.13	226.23
889.43	226.34
889.74	226.34
890.05	226.34
890.35	226.32
890.66	226.30
890.97	226.29
891.28	226.28
891.58	226.28
891.89	226.28
892.20	226.26
892.50	226.25
892.81	226.25
893.12	226.25
893.42	226.18
893.73	226.18
894.04	226.18
894.34	226.19
894.65	226.19
894.95	226.17
895.26	226.18
895.57	226.23
895.87	226.10
896.18	226.13
896.48	226.13
896.79	226.13
897.10	226.15
897.40	226.16
897.71	226.18
898.01	226.16
898.32	226.18
898.63	226.18
898.93	226.18
899.24	226.19
899.54	226.18
899.85	226.18
900.15	226.17
900.46	226.17
900.76	226.18
901.07	226.18
901.38	226.17
901.68	226.19
901.99	226.12
902.29	226.13
902.60	226.12
902.90	226.11
903.21	226.11
903.51	226.09
903.82	226.12
904.12	226.11
904.43	226.12
904.73	226.11
905.03	226.12
905.34	226.23
905.64	226.22
905.95	226.23
906.25	226.22
906.56	226.22
906.86	226.22
907.17	226.20
907.47	226.21
907.77	226.20
908.08	226.17
908.38	226.18
908.69	226.18
908.99	226.21
909.30	226.21
909.60	226.21
909.90	226.21
910.21	226.17
910.51	226.15
910.81	226.15
911.12	226.16
911.42	226.16
911.73	226.03
912.03	226.04
912.33	226.06
912.64	226.06
912.94	226.04
913.24	226.02
913.55	226.01
913.85	226.00
914.15	226.03
914.46	226.05
914.76	226.04
915.06	226.03
915.37	226.00
915.67	225.99
915.97	225.99
916.27	225.97
916.58	225.98
916.88	225.98
917.18	225.97
917.49	226.05
917.79	226.05
918.09	226.07
918.39	226.10
918.70	226.09
919.00	226.10
919.30	226.16
919.60	226.15
919.91	226.14
920.21	226.15
920.51	226.12
920.81	226.11
921.12	226.13
921.42	226.13
921.72	226.14
922.02	226.15
922.32	226.16
922.63	226.17
922.93	226.24
923.23	226.25
923.53	226.24
923.83	226.15
924.13	226.16
924.44	226.16
924.74	226.17
925.04	226.20
925.34	226.19
925.64	226.14
925.94	226.14
926.24	226.21
926.55	226.20
926.85	226.22
927.15	226.22
927.45	226.22
927.75	226.22
928.05	226.21
928.35	226.20
928.65	226.22
928.95	226.23
929.26	226.17
929.56	226.19
929.86	226.20
930.16	226.20
930.46	226.18
930.76	226.19
931.06	226.13
931.36	226.10
931.66	226.12
931.96	226.13
932.26	226.14
932.56	226.08
932.86	226.09
933.16	226.09
933.46	226.07
933.76	226.06
934.06	226.08
934.36	226.12
934.66	226.11
934.96	226.09
935.26	226.10
935.56	226.12
935.86	226.08
936.16	226.06
936.46	226.05
936.76	226.05
937.06	226.03
937.36	226.04
937.66	226.04
937.96	226.03
938.26	226.00
938.56	225.99
938.86	226.00
939.16	226.03
939.46	226.04
939.76	226.05
940.06	226.05
940.35	226.03
940.65	225.96
940.95	225.98
941.25	225.95
941.55	225.93
941.85	225.92
942.15	225.95
942.45	225.98
942.75	225.98
943.04	225.98
943.34	226.01
943.64	226.00
943.94	225.98
944.24	225.98
944.54	225.99
944.84	225.98
945.13	225.96
945.43	225.94
945.73	225.93
946.03	225.92
946.33	225.91
946.62	225.90
946.92	225.90
947.22	225.90
947.52	225.91
947.82	225.93
948.11	225.91
948.41	225.88
948.71	225.85
949.01	225.86
949.31	225.85
949.60	225.84
949.90	225.86
950.20	225.86
950.50	225.86
950.79	225.85
951.09	225.87
951.39	225.87
951.69	225.86
951.98	225.88
952.28	225.89
952.58	225.88
952.87	225.89
953.17	225.90
953.47	225.89
953.76	225.88
954.06	225.86
954.36	225.85
954.66	225.85
954.95	225.88
955.25	225.89
955.55	225.90
955.84	225.88
956.14	225.89
956.44	225.90
956.73	225.88
957.03	225.89
957.32	225.89
957.62	225.88
957.92	225.91
958.21	225.90
958.51	226.04
958.81	226.06
959.10	226.07
959.40	226.10
959.69	226.11
959.99	226.13
960.29	226.13
960.58	226.13
960.88	226.18
961.17	226.16
961.47	226.17
961.76	226.15
962.06	226.18
962.36	226.16
962.65	226.17
962.95	226.18
963.24	226.16
963.54	226.17
963.83	226.18
964.13	226.17
964.42	226.15
964.72	226.05
965.01	226.05
965.31	226.04
965.60	226.01
965.90	226.08
966.19	226.05
966.49	226.06
966.78	226.06
967.08	226.05
967.37	226.05
967.67	226.03
967.96	226.05
968.26	226.05
968.55	226.06
968.85	226.06
969.14	226.05
969.43	226.05
969.73	226.04
970.02	226.03
970.32	226.02
970.61	226.00
970.91	225.97
971.20	225.95
971.49	225.94
971.79	225.95
972.08	225.86
972.38	225.88
972.67	225.87
972.96	225.88
973.26	225.86
973.55	225.90
973.85	225.89
974.14	225.88
974.43	225.88
974.73	225.86
975.02	225.85
975.31	225.86
975.61	225.85
975.90	225.85
976.19	225.84
976.49	225.85
976.78	225.86
977.07	225.86
977.37	225.87
977.66	225.88
977.95	225.86
978.24	225.87
978.54	225.90
978.83	225.89
979.12	225.88
979.42	225.88
979.71	225.85
980.00	225.85
980.29	225.85
980.59	225.83
980.88	225.87
981.17	225.86
981.46	225.86
981.76	225.86
982.05	225.90
982.34	225.91
982.63	225.91
982.93	225.91
983.22	225.94
983.51	225.94
983.80	225.96
984.09	225.98
984.39	225.96
984.68	225.95
984.97	225.96
985.26	225.95
985.55	225.96
985.85	225.93
986.14	225.95
986.43	225.96
986.72	225.96
987.01	225.91
987.30	225.92
987.59	225.91
987.89	225.92
988.18	225.88
988.47	225.86
988.76	225.85
989.05	225.84
989.34	225.82
989.63	225.85
989.92	225.83
990.22	225.81
990.51	225.81
990.80	225.79
991.09	225.80
991.38	225.82
991.67	225.81
991.96	225.79
992.25	225.80
992.54	225.77
992.83	225.78
993.12	225.78
993.41	225.79
993.70	225.84
993.99	225.86
994.28	225.88
994.58	225.90
994.87	225.89
995.16	225.89
995.45	225.88
995.74	225.83
996.03	225.85
996.32	225.87
996.61	225.90
996.90	225.90
997.19	225.89
997.48	225.89
997.77	225.88
998.06	225.89
998.34	225.88
998.63	225.88
998.92	225.88
999.21	225.90
999.50	225.90
999.79	225.85
1000.08	225.85
1000.37	225.85
1000.66	225.83
1000.95	225.86
1001.24	225.87
1001.53	225.89
1001.82	225.89
1002.11	225.86
1002.40	225.87
1002.68	225.89
1002.97	225.98
1003.26	225.97
1003.55	225.95
1003.84	225.96
1004.13	226.00
1004.42	225.99
1004.71	225.99
1004.99	225.98
1005.28	226.01
1005.57	226.00
1005.86	225.99
1006.15	225.98
1006.44	225.96
1006.72	225.98
1007.01	225.95
1007.30	225.95
1007.59	225.94
1007.88	225.94
1008.17	225.95
1008.45	225.92
1008.74	225.87
1009.03	225.81
1009.32	225.81
1009.60	225.82
1009.89	225.81
1010.18	225.75
1010.47	225.75
1010.76	225.75
1011.04	225.75
1011.33	225.74
1011.62	225.76
1011.91	225.77
1012.19	225.77
1012.48	225.78
1012.77	225.78
1013.05	225.82
1013.34	225.82
1013.63	225.82
1013.92	225.83
1014.20	225.82
1014.49	225.83
1014.78	225.84
1015.06	225.80
1015.35	225.80
1015.64	225.82
1015.92	225.84
1016.21	225.85
1016.50	225.86
1016.78	225.87
1017.07	225.88
1017.36	225.86
1017.64	225.84
1017.93	225.85
1018.22	225.83
1018.50	225.83
1018.79	225.83
1019.08	225.78
1019.36	225.79
1019.65	225.78
1019.93	225.81
1020.22	225.83
1020.51	225.89
1020.79	225.88
1021.08	225.64
1021.36	225.63
1021.65	225.84
1021.94	225.74
1022.22	225.91
1022.51	225.54
1022.79	226.41
1023.08	226.01
1023.36	227.32
1023.65	225.52
>>>>>End Processed Spectral Data<<<<<
