SpectraSuite Data File
++++++++++++++++++++++++++++++++++++
Date: Sun Oct 04 07:02:13 EDT 2015
User: lab3
Dark Spectrum Present: No
Reference Spectrum Present: No
Number of Sampled Component Spectra: 1
Spectrometers: USB2E7196
Integration Time (usec): 46000 (USB2E7196)
Spectra Averaged: 24000 (USB2E7196)
Boxcar Smoothing: 10 (USB2E7196)
Correct for Electrical Dark: No (USB2E7196)
Strobe/Lamp Enabled: No (USB2E7196)
Correct for Detector Non-linearity: No (USB2E7196)
Correct for Stray Light: No (USB2E7196)
Number of Pixels in Processed Spectrum: 2048
>>>>>Begin Processed Spectral Data<<<<<
339.09	0.00
339.48	213.14
339.86	214.61
340.24	215.95
340.63	217.41
341.01	220.73
341.39	220.11
341.78	221.51
342.16	222.71
342.54	223.11
342.93	211.62
343.31	222.31
343.69	222.85
344.07	223.31
344.46	223.75
344.84	224.14
345.22	224.36
345.60	224.62
345.99	224.82
346.37	224.96
346.75	225.07
347.13	225.15
347.52	225.22
347.90	225.32
348.28	225.36
348.66	225.42
349.05	225.42
349.43	225.48
349.81	225.54
350.19	225.60
350.57	225.67
350.96	225.75
351.34	225.85
351.72	225.95
352.10	226.06
352.48	226.13
352.87	226.18
353.25	226.25
353.63	226.31
354.01	226.37
354.39	226.45
354.77	226.53
355.15	226.64
355.54	226.69
355.92	226.71
356.30	226.79
356.68	226.94
357.06	227.02
357.44	227.07
357.82	227.12
358.20	227.24
358.58	227.30
358.97	227.37
359.35	227.46
359.73	227.54
360.11	227.59
360.49	227.65
360.87	227.71
361.25	227.77
361.63	227.86
362.01	227.91
362.39	227.94
362.77	227.99
363.15	228.01
363.53	228.05
363.91	228.09
364.29	228.11
364.67	228.01
365.05	228.03
365.43	228.07
365.81	228.10
366.19	228.11
366.57	228.17
366.95	228.17
367.33	228.14
367.71	228.14
368.09	228.16
368.47	228.15
368.85	228.14
369.23	228.15
369.61	228.09
369.99	228.11
370.37	228.11
370.75	228.19
371.13	228.15
371.51	228.11
371.89	228.09
372.27	228.07
372.65	228.05
373.03	228.01
373.41	227.96
373.78	227.91
374.16	227.81
374.54	227.73
374.92	227.68
375.30	227.63
375.68	227.56
376.06	227.52
376.44	227.46
376.82	227.42
377.19	227.37
377.57	227.32
377.95	227.23
378.33	227.17
378.71	227.00
379.09	226.96
379.47	226.93
379.84	226.86
380.22	226.80
380.60	226.73
380.98	226.68
381.36	226.63
381.73	226.57
382.11	226.54
382.49	226.50
382.87	226.44
383.25	226.40
383.62	226.51
384.00	226.44
384.38	226.40
384.76	226.39
385.13	226.38
385.51	226.35
385.89	226.29
386.27	226.26
386.64	226.25
387.02	226.20
387.40	226.15
387.78	226.13
388.15	226.11
388.53	226.08
388.91	226.05
389.29	226.02
389.66	226.02
390.04	225.98
390.42	225.98
390.79	225.97
391.17	225.95
391.55	225.79
391.92	225.78
392.30	225.79
392.68	225.75
393.05	225.73
393.43	225.73
393.81	225.74
394.18	225.72
394.56	225.73
394.94	225.76
395.31	225.76
395.69	225.81
396.06	225.85
396.44	225.87
396.82	225.89
397.19	225.98
397.57	226.00
397.95	226.05
398.32	226.04
398.70	226.10
399.07	226.17
399.45	226.21
399.82	226.27
400.20	226.30
400.58	226.37
400.95	226.39
401.33	226.48
401.70	226.65
402.08	226.75
402.45	226.85
402.83	226.98
403.20	227.10
403.58	227.20
403.95	227.35
404.33	227.52
404.71	227.67
405.08	227.89
405.46	228.08
405.83	228.28
406.21	228.49
406.58	228.73
406.96	228.97
407.33	229.25
407.70	229.56
408.08	229.97
408.45	230.34
408.83	230.73
409.20	231.09
409.58	231.42
409.95	231.87
410.33	232.35
410.70	232.81
411.08	233.35
411.45	233.92
411.82	234.50
412.20	235.16
412.57	235.94
412.95	236.57
413.32	237.38
413.69	238.20
414.07	239.08
414.44	240.03
414.82	241.01
415.19	242.15
415.56	243.30
415.94	244.51
416.31	245.85
416.68	247.20
417.06	248.76
417.43	250.22
417.81	251.91
418.18	253.63
418.55	255.50
418.93	257.45
419.30	259.49
419.67	261.65
420.04	263.87
420.42	266.18
420.79	268.85
421.16	271.55
421.54	274.29
421.91	277.16
422.28	280.14
422.66	283.34
423.03	286.40
423.40	289.61
423.77	293.06
424.15	296.59
424.52	300.27
424.89	304.25
425.26	308.21
425.64	311.89
426.01	316.03
426.38	320.26
426.75	324.62
427.13	329.08
427.50	333.76
427.87	338.63
428.24	343.54
428.61	348.27
428.99	353.38
429.36	358.99
429.73	364.34
430.10	369.70
430.47	375.18
430.85	380.82
431.22	386.87
431.59	393.08
431.96	399.15
432.33	405.89
432.70	412.29
433.08	419.85
433.45	427.01
433.82	434.07
434.19	441.93
434.56	449.70
434.93	457.21
435.30	464.62
435.68	473.00
436.05	481.21
436.42	489.40
436.79	496.87
437.16	504.93
437.53	513.57
437.90	522.23
438.27	530.68
438.64	539.84
439.01	548.12
439.38	555.70
439.75	563.00
440.13	571.24
440.50	579.07
440.87	585.29
441.24	592.09
441.61	599.50
441.98	604.90
442.35	611.30
442.72	617.84
443.09	624.08
443.46	628.00
443.83	630.87
444.20	633.24
444.57	636.83
444.94	638.82
445.31	640.88
445.68	642.61
446.05	643.87
446.42	643.40
446.79	642.70
447.16	642.08
447.53	641.50
447.90	638.78
448.27	636.17
448.64	632.25
449.01	629.50
449.37	624.10
449.74	619.23
450.11	612.96
450.48	606.10
450.85	599.26
451.22	593.42
451.59	587.72
451.96	582.57
452.33	575.08
452.70	568.45
453.07	560.37
453.43	552.33
453.80	544.51
454.17	537.03
454.54	530.17
454.91	522.39
455.28	515.12
455.65	508.27
456.02	501.01
456.38	495.19
456.75	487.70
457.12	481.68
457.49	475.60
457.86	469.90
458.23	464.90
458.59	459.35
458.96	453.64
459.33	448.63
459.70	443.52
460.07	439.64
460.43	435.09
460.80	430.83
461.17	427.14
461.54	423.12
461.91	419.35
462.27	415.52
462.64	412.45
463.01	408.90
463.38	405.32
463.74	402.12
464.11	399.27
464.48	396.71
464.85	393.91
465.21	391.81
465.58	389.44
465.95	386.72
466.32	384.57
466.68	382.46
467.05	380.33
467.42	378.26
467.78	376.00
468.15	373.92
468.52	372.40
468.88	370.36
469.25	368.49
469.62	367.00
469.98	365.37
470.35	363.91
470.72	362.59
471.08	361.25
471.45	360.11
471.82	358.84
472.18	357.51
472.55	356.63
472.92	355.53
473.28	354.66
473.65	353.73
474.02	352.84
474.38	352.08
474.75	351.61
475.11	350.98
475.48	350.66
475.85	350.31
476.21	350.11
476.58	349.95
476.94	350.04
477.31	350.07
477.67	350.13
478.04	350.30
478.41	350.56
478.77	350.97
479.14	351.20
479.50	351.72
479.87	352.40
480.23	353.09
480.60	353.76
480.96	354.43
481.33	355.46
481.69	356.48
482.06	357.50
482.42	358.42
482.79	359.58
483.15	360.93
483.52	362.48
483.88	363.96
484.25	365.55
484.61	367.20
484.98	368.98
485.34	370.99
485.71	373.10
486.07	375.35
486.44	377.61
486.80	380.13
487.17	382.74
487.53	385.60
487.90	388.58
488.26	391.84
488.62	395.28
488.99	398.73
489.35	402.35
489.72	406.30
490.08	410.46
490.44	414.74
490.81	419.19
491.17	423.75
491.54	428.64
491.90	433.68
492.26	439.08
492.63	444.74
492.99	450.64
493.36	456.77
493.72	463.20
494.08	469.79
494.45	476.78
494.81	484.05
495.17	491.51
495.54	499.40
495.90	507.61
496.26	515.99
496.63	524.62
496.99	533.58
497.35	542.96
497.72	552.64
498.08	562.52
498.44	572.74
498.80	583.59
499.17	594.71
499.53	606.18
499.89	618.01
500.26	630.10
500.62	642.47
500.98	655.53
501.34	668.76
501.71	682.53
502.07	696.50
502.43	711.01
502.79	725.77
503.16	741.01
503.52	756.42
503.88	772.30
504.24	788.67
504.60	805.24
504.97	822.32
505.33	839.82
505.69	858.27
506.05	877.09
506.41	895.87
506.78	914.81
507.14	934.26
507.50	954.16
507.86	974.42
508.22	994.93
508.59	1015.23
508.95	1036.33
509.31	1058.19
509.67	1080.83
510.03	1103.50
510.39	1126.19
510.75	1148.98
511.12	1172.09
511.48	1195.37
511.84	1218.61
512.20	1242.29
512.56	1266.93
512.92	1291.59
513.28	1315.76
513.64	1340.17
514.00	1365.07
514.37	1390.34
514.73	1415.52
515.09	1440.56
515.45	1465.89
515.81	1491.46
516.17	1517.03
516.53	1542.21
516.89	1567.21
517.25	1592.38
517.61	1617.34
517.97	1642.75
518.33	1667.72
518.69	1692.62
519.05	1717.93
519.41	1743.52
519.77	1769.39
520.13	1794.37
520.49	1819.29
520.85	1844.56
521.21	1869.50
521.57	1894.74
521.93	1919.34
522.29	1944.55
522.65	1969.13
523.01	1993.70
523.37	2017.79
523.73	2042.73
524.09	2067.21
524.45	2091.48
524.81	2115.36
525.17	2139.11
525.53	2162.24
525.89	2185.83
526.25	2209.47
526.61	2232.09
526.97	2254.81
527.33	2277.43
527.68	2299.85
528.04	2321.35
528.40	2341.90
528.76	2362.49
529.12	2382.60
529.48	2402.52
529.84	2420.41
530.20	2439.07
530.56	2457.05
530.91	2475.17
531.27	2492.91
531.63	2509.78
531.99	2526.16
532.35	2541.76
532.71	2557.57
533.07	2574.01
533.42	2588.57
533.78	2604.05
534.14	2619.88
534.50	2634.74
534.86	2649.31
535.21	2661.72
535.57	2674.76
535.93	2687.66
536.29	2699.44
536.65	2710.94
537.00	2721.54
537.36	2733.28
537.72	2743.65
538.08	2753.40
538.44	2762.35
538.79	2770.89
539.15	2778.74
539.51	2786.26
539.87	2793.18
540.22	2797.90
540.58	2802.77
540.94	2808.80
541.29	2813.33
541.65	2815.96
542.01	2817.81
542.37	2818.95
542.72	2821.64
543.08	2822.47
543.44	2823.85
543.79	2824.20
544.15	2823.73
544.51	2823.70
544.87	2822.50
545.22	2820.42
545.58	2817.67
545.94	2814.94
546.29	2810.95
546.65	2806.90
547.01	2802.73
547.36	2799.34
547.72	2796.29
548.07	2791.32
548.43	2784.96
548.79	2777.44
549.14	2771.23
549.50	2765.44
549.86	2758.66
550.21	2750.65
550.57	2743.67
550.92	2734.29
551.28	2725.37
551.64	2716.96
551.99	2708.19
552.35	2698.76
552.70	2689.61
553.06	2680.84
553.41	2671.47
553.77	2661.90
554.13	2652.28
554.48	2641.77
554.84	2629.92
555.19	2618.37
555.55	2607.04
555.90	2595.81
556.26	2585.25
556.61	2573.48
556.97	2560.01
557.32	2546.93
557.68	2534.00
558.03	2520.72
558.39	2508.84
558.74	2497.32
559.10	2483.97
559.45	2470.71
559.81	2458.07
560.16	2444.84
560.52	2431.98
560.87	2419.52
561.23	2406.22
561.58	2392.87
561.94	2379.30
562.29	2365.11
562.64	2351.75
563.00	2338.11
563.35	2324.75
563.71	2311.23
564.06	2297.69
564.42	2284.96
564.77	2271.79
565.12	2258.42
565.48	2245.00
565.83	2231.45
566.19	2218.08
566.54	2204.64
566.89	2190.11
567.25	2175.76
567.60	2162.88
567.96	2148.99
568.31	2133.66
568.66	2118.97
569.02	2105.58
569.37	2092.19
569.72	2079.35
570.08	2065.23
570.43	2050.66
570.78	2036.04
571.14	2020.69
571.49	2005.94
571.84	1991.76
572.20	1976.38
572.55	1961.14
572.90	1945.94
573.26	1930.86
573.61	1915.23
573.96	1900.05
574.31	1885.15
574.67	1870.34
575.02	1854.33
575.37	1838.47
575.72	1823.53
576.08	1808.91
576.43	1793.21
576.78	1777.87
577.13	1762.80
577.49	1748.10
577.84	1734.05
578.19	1719.06
578.54	1704.18
578.90	1688.82
579.25	1673.34
579.60	1659.49
579.95	1645.60
580.30	1631.48
580.66	1617.04
581.01	1602.58
581.36	1588.11
581.71	1574.59
582.06	1561.01
582.42	1547.66
582.77	1534.39
583.12	1521.12
583.47	1507.75
583.82	1494.47
584.17	1480.81
584.53	1466.90
584.88	1453.31
585.23	1439.39
585.58	1426.20
585.93	1413.21
586.28	1400.97
586.63	1388.68
586.98	1375.95
587.34	1363.30
587.69	1350.39
588.04	1337.79
588.39	1325.54
588.74	1313.45
589.09	1301.19
589.44	1288.47
589.79	1276.40
590.14	1264.42
590.49	1252.32
590.84	1240.38
591.19	1228.85
591.54	1217.12
591.89	1205.50
592.25	1194.14
592.60	1182.36
592.95	1171.02
593.30	1159.99
593.65	1148.65
594.00	1137.45
594.35	1126.79
594.70	1115.68
595.05	1105.43
595.40	1095.08
595.75	1084.58
596.10	1074.60
596.45	1064.41
596.80	1054.57
597.15	1044.43
597.50	1034.47
597.85	1024.93
598.19	1015.24
598.54	1005.56
598.89	996.41
599.24	987.55
599.59	978.44
599.94	970.24
600.29	961.87
600.64	953.22
600.99	944.24
601.34	935.58
601.69	926.60
602.04	918.31
602.39	909.82
602.74	901.43
603.08	892.98
603.43	884.49
603.78	876.17
604.13	867.98
604.48	859.84
604.83	851.85
605.18	843.82
605.53	835.97
605.87	827.98
606.22	820.20
606.57	812.40
606.92	804.54
607.27	796.64
607.62	788.99
607.96	781.72
608.31	774.91
608.66	767.90
609.01	761.17
609.36	754.53
609.70	747.75
610.05	740.91
610.40	734.35
610.75	727.76
611.10	721.53
611.44	715.14
611.79	708.86
612.14	702.50
612.49	696.21
612.83	690.20
613.18	684.32
613.53	678.39
613.88	672.45
614.22	666.90
614.57	661.32
614.92	655.60
615.27	649.98
615.61	644.42
615.96	638.93
616.31	633.44
616.65	627.99
617.00	622.73
617.35	617.61
617.70	612.50
618.04	607.49
618.39	602.36
618.74	597.47
619.08	592.62
619.43	587.91
619.78	583.19
620.12	578.46
620.47	573.86
620.82	569.37
621.16	564.97
621.51	560.46
621.85	555.97
622.20	551.63
622.55	547.36
622.89	543.16
623.24	538.97
623.59	534.80
623.93	530.79
624.28	526.91
624.62	523.08
624.97	519.32
625.32	515.50
625.66	511.66
626.01	507.79
626.35	503.98
626.70	500.21
627.04	496.65
627.39	492.98
627.73	489.51
628.08	486.12
628.43	482.72
628.77	479.38
629.12	476.18
629.46	473.02
629.81	469.74
630.15	466.45
630.50	463.27
630.84	460.14
631.19	457.07
631.53	454.09
631.88	451.07
632.22	448.08
632.57	445.37
632.91	442.69
633.26	440.10
633.60	437.54
633.95	435.02
634.29	432.42
634.64	429.90
634.98	427.20
635.32	424.62
635.67	422.23
636.01	419.79
636.36	417.37
636.70	415.07
637.05	412.79
637.39	410.57
637.73	408.35
638.08	406.25
638.42	404.14
638.77	401.89
639.11	399.60
639.45	397.38
639.80	395.11
640.14	392.95
640.49	390.77
640.83	388.57
641.17	386.47
641.52	384.41
641.86	382.38
642.20	380.55
642.55	378.58
642.89	376.63
643.23	374.77
643.58	373.06
643.92	371.25
644.26	369.48
644.61	367.77
644.95	366.03
645.29	364.20
645.64	362.40
645.98	360.71
646.32	359.12
646.66	357.52
647.01	355.96
647.35	354.43
647.69	352.89
648.04	351.46
648.38	349.97
648.72	348.48
649.06	347.02
649.41	345.55
649.75	344.14
650.09	342.76
650.43	341.38
650.78	339.95
651.12	338.58
651.46	337.24
651.80	335.93
652.14	334.65
652.49	333.42
652.83	332.16
653.17	330.95
653.51	329.77
653.85	328.64
654.20	327.47
654.54	326.24
654.88	325.08
655.22	323.96
655.56	322.84
655.90	321.78
656.25	320.75
656.59	319.71
656.93	318.72
657.27	317.75
657.61	316.72
657.95	315.75
658.29	314.77
658.64	313.84
658.98	312.90
659.32	311.99
659.66	311.14
660.00	310.31
660.34	309.47
660.68	308.61
661.02	307.73
661.36	306.88
661.70	306.07
662.05	305.29
662.39	304.50
662.73	303.79
663.07	303.09
663.41	302.34
663.75	301.59
664.09	300.85
664.43	300.07
664.77	299.38
665.11	298.64
665.45	297.97
665.79	297.30
666.13	296.61
666.47	295.91
666.81	295.18
667.15	294.44
667.49	293.79
667.83	293.20
668.17	292.59
668.51	292.01
668.85	291.46
669.19	290.96
669.53	290.34
669.87	289.73
670.21	289.13
670.55	288.58
670.89	288.11
671.23	287.59
671.57	287.08
671.91	286.61
672.25	286.17
672.58	285.74
672.92	285.22
673.26	284.77
673.60	284.34
673.94	283.92
674.28	283.54
674.62	283.11
674.96	282.64
675.30	282.23
675.64	281.79
675.97	281.32
676.31	280.83
676.65	280.40
676.99	280.04
677.33	279.61
677.67	279.20
678.01	278.72
678.34	278.33
678.68	277.96
679.02	277.52
679.36	277.10
679.70	276.67
680.04	276.29
680.37	275.92
680.71	275.55
681.05	275.20
681.39	274.81
681.73	274.40
682.06	274.02
682.40	273.64
682.74	273.32
683.08	273.05
683.42	272.71
683.75	272.40
684.09	272.01
684.43	271.69
684.77	271.37
685.10	271.08
685.44	270.76
685.78	270.44
686.12	270.15
686.45	269.83
686.79	269.50
687.13	269.20
687.46	268.87
687.80	268.56
688.14	268.21
688.48	267.92
688.81	267.62
689.15	267.35
689.49	267.03
689.82	266.71
690.16	266.33
690.50	266.04
690.83	265.73
691.17	265.42
691.51	265.13
691.84	264.84
692.18	264.52
692.52	264.20
692.85	263.90
693.19	263.64
693.52	263.35
693.86	263.06
694.20	262.77
694.53	262.51
694.87	262.20
695.21	261.92
695.54	261.63
695.88	261.34
696.21	261.02
696.55	260.75
696.88	260.47
697.22	260.20
697.56	259.92
697.89	259.61
698.23	259.34
698.56	259.04
698.90	258.77
699.23	258.48
699.57	258.21
699.90	257.91
700.24	257.61
700.58	257.36
700.91	257.13
701.25	256.98
701.58	256.77
701.92	256.56
702.25	256.31
702.59	256.05
702.92	255.80
703.26	255.55
703.59	255.29
703.93	255.14
704.26	254.90
704.60	254.65
704.93	254.39
705.26	254.13
705.60	253.93
705.93	253.65
706.27	253.45
706.60	253.25
706.94	253.07
707.27	252.80
707.61	252.55
707.94	252.29
708.27	251.92
708.61	251.62
708.94	251.35
709.28	251.12
709.61	250.88
709.94	250.67
710.28	250.46
710.61	250.26
710.95	249.94
711.28	249.80
711.61	249.58
711.95	249.41
712.28	249.18
712.61	248.94
712.95	248.81
713.28	248.66
713.61	248.41
713.95	248.16
714.28	247.97
714.61	247.75
714.95	247.55
715.28	247.35
715.61	247.16
715.95	246.99
716.28	246.80
716.61	246.64
716.95	246.44
717.28	246.24
717.61	246.04
717.94	245.85
718.28	245.57
718.61	245.38
718.94	245.17
719.27	244.99
719.61	244.83
719.94	244.61
720.27	244.35
720.60	244.17
720.94	244.00
721.27	243.83
721.60	243.67
721.93	243.50
722.27	243.37
722.60	243.22
722.93	243.03
723.26	242.86
723.59	242.66
723.93	242.51
724.26	242.35
724.59	242.18
724.92	242.03
725.25	241.92
725.59	241.77
725.92	241.64
726.25	241.49
726.58	241.33
726.91	241.18
727.24	241.05
727.57	240.90
727.91	240.74
728.24	240.62
728.57	240.47
728.90	240.34
729.23	240.15
729.56	240.06
729.89	239.92
730.22	239.77
730.55	239.63
730.89	239.49
731.22	239.35
731.55	239.21
731.88	239.08
732.21	238.91
732.54	238.78
732.87	238.64
733.20	238.53
733.53	238.40
733.86	238.29
734.19	238.14
734.52	238.04
734.85	238.01
735.18	237.86
735.51	237.77
735.84	237.65
736.17	237.58
736.50	237.39
736.83	237.43
737.16	237.32
737.49	237.22
737.82	237.10
738.15	237.01
738.48	236.90
738.81	236.79
739.14	236.67
739.47	236.55
739.80	236.44
740.13	236.33
740.46	236.21
740.79	236.08
741.12	235.98
741.45	235.85
741.78	235.67
742.11	235.60
742.44	235.47
742.77	235.38
743.10	235.25
743.43	235.15
743.75	234.91
744.08	235.01
744.41	234.90
744.74	234.81
745.07	234.68
745.40	234.61
745.73	234.57
746.06	234.49
746.39	234.42
746.71	234.32
747.04	234.22
747.37	234.13
747.70	234.07
748.03	233.99
748.36	233.93
748.68	233.84
749.01	233.72
749.34	233.64
749.67	233.56
750.00	233.50
750.33	233.51
750.65	233.44
750.98	233.17
751.31	233.09
751.64	233.02
751.97	233.01
752.29	232.92
752.62	232.79
752.95	232.70
753.28	232.60
753.60	232.52
753.93	232.48
754.26	232.42
754.59	232.30
754.91	232.21
755.24	232.12
755.57	232.10
755.90	232.03
756.22	231.94
756.55	231.85
756.88	231.75
757.20	231.59
757.53	231.48
757.86	231.41
758.19	231.35
758.51	231.27
758.84	231.15
759.17	231.06
759.49	231.00
759.82	231.00
760.15	230.95
760.47	230.89
760.80	230.79
761.13	230.75
761.45	230.69
761.78	230.64
762.11	230.58
762.43	230.46
762.76	230.40
763.08	230.36
763.41	230.31
763.74	230.27
764.06	230.21
764.39	230.17
764.71	230.12
765.04	230.05
765.37	229.99
765.69	229.94
766.02	229.89
766.34	229.83
766.67	229.74
767.00	229.71
767.32	229.73
767.65	229.76
767.97	229.70
768.30	229.67
768.62	229.62
768.95	229.56
769.27	229.51
769.60	229.49
769.92	229.42
770.25	229.36
770.57	229.29
770.90	229.25
771.22	229.20
771.55	229.16
771.87	229.12
772.20	229.08
772.52	229.15
772.85	229.27
773.17	229.24
773.50	229.19
773.82	229.13
774.15	229.03
774.47	228.91
774.80	228.86
775.12	228.82
775.45	228.79
775.77	228.77
776.09	228.74
776.42	228.71
776.74	228.73
777.07	228.69
777.39	228.67
777.72	228.63
778.04	228.62
778.36	228.58
778.69	228.55
779.01	228.54
779.33	228.39
779.66	228.22
779.98	228.18
780.31	228.16
780.63	228.19
780.95	228.18
781.28	228.16
781.60	228.12
781.92	228.10
782.25	228.07
782.57	228.04
782.89	228.01
783.22	227.98
783.54	227.92
783.86	227.91
784.19	227.88
784.51	227.89
784.83	227.85
785.16	227.83
785.48	227.80
785.80	227.78
786.12	227.77
786.45	227.75
786.77	227.74
787.09	227.71
787.42	227.64
787.74	227.62
788.06	227.61
788.38	227.59
788.71	227.56
789.03	227.55
789.35	227.55
789.67	227.51
789.99	227.50
790.32	227.47
790.64	227.46
790.96	227.57
791.28	227.50
791.61	227.48
791.93	227.47
792.25	227.44
792.57	227.52
792.89	227.48
793.21	227.46
793.54	227.43
793.86	227.40
794.18	227.39
794.50	227.35
794.82	227.33
795.14	227.34
795.47	227.34
795.79	227.33
796.11	227.28
796.43	227.26
796.75	227.24
797.07	227.24
797.39	227.21
797.71	227.09
798.04	227.08
798.36	227.08
798.68	227.06
799.00	227.05
799.32	226.97
799.64	226.98
799.96	226.96
800.28	226.97
800.60	226.95
800.92	226.95
801.24	226.93
801.56	226.92
801.89	226.89
802.21	226.88
802.53	226.85
802.85	226.86
803.17	226.91
803.49	226.87
803.81	226.85
804.13	226.83
804.45	226.80
804.77	226.79
805.09	226.78
805.41	226.76
805.73	226.72
806.05	226.67
806.37	226.65
806.69	226.62
807.01	226.60
807.33	226.60
807.65	226.54
807.97	226.59
808.28	226.56
808.60	226.55
808.92	226.52
809.24	226.59
809.56	226.56
809.88	226.50
810.20	226.50
810.52	226.52
810.84	226.49
811.16	226.47
811.48	226.45
811.80	226.49
812.12	226.47
812.43	226.49
812.75	226.49
813.07	226.47
813.39	226.47
813.71	226.44
814.03	226.42
814.35	226.42
814.67	226.36
814.98	226.34
815.30	226.33
815.62	226.30
815.94	226.21
816.26	226.21
816.58	226.18
816.89	226.18
817.21	226.14
817.53	226.15
817.85	226.15
818.17	226.14
818.48	226.07
818.80	226.09
819.12	226.06
819.44	226.03
819.76	226.01
820.07	226.00
820.39	225.99
820.71	226.00
821.03	225.99
821.34	225.97
821.66	225.98
821.98	225.99
822.30	225.98
822.61	226.05
822.93	226.02
823.25	226.02
823.57	226.00
823.88	226.01
824.20	226.00
824.52	226.01
824.83	226.00
825.15	225.98
825.47	225.97
825.79	225.97
826.10	225.96
826.42	225.95
826.74	225.96
827.05	225.95
827.37	225.95
827.69	225.93
828.00	225.93
828.32	225.93
828.64	225.90
828.95	225.96
829.27	225.92
829.58	225.92
829.90	225.94
830.22	225.94
830.53	225.91
830.85	225.89
831.17	225.86
831.48	225.85
831.80	225.85
832.11	225.84
832.43	225.82
832.75	225.81
833.06	225.89
833.38	225.85
833.69	225.83
834.01	225.83
834.32	225.82
834.64	225.81
834.96	225.80
835.27	225.80
835.59	225.75
835.90	225.73
836.22	225.72
836.53	225.69
836.85	225.67
837.16	225.79
837.48	225.79
837.79	225.84
838.11	225.83
838.42	225.83
838.74	225.84
839.05	225.83
839.37	225.82
839.68	225.74
840.00	225.74
840.31	225.76
840.63	225.74
840.94	225.73
841.26	225.71
841.57	225.70
841.88	225.71
842.20	225.69
842.51	225.67
842.83	225.66
843.14	225.78
843.46	225.77
843.77	225.69
844.08	225.69
844.40	225.64
844.71	225.63
845.03	225.61
845.34	225.59
845.65	225.59
845.97	225.59
846.28	225.59
846.60	225.60
846.91	225.57
847.22	225.57
847.54	225.59
847.85	225.60
848.16	225.59
848.48	225.56
848.79	225.60
849.10	225.62
849.42	225.62
849.73	225.50
850.04	225.50
850.36	225.45
850.67	225.47
850.98	225.47
851.30	225.48
851.61	225.48
851.92	225.47
852.23	225.51
852.55	225.52
852.86	225.52
853.17	225.53
853.49	225.55
853.80	225.58
854.11	225.58
854.42	225.59
854.74	225.58
855.05	225.59
855.36	225.52
855.67	225.52
855.99	225.52
856.30	225.67
856.61	225.66
856.92	225.66
857.23	225.66
857.55	225.65
857.86	225.64
858.17	225.66
858.48	225.64
858.79	225.61
859.11	225.62
859.42	225.61
859.73	225.59
860.04	225.58
860.35	225.54
860.66	225.50
860.98	225.49
861.29	225.51
861.60	225.50
861.91	225.53
862.22	225.50
862.53	225.49
862.84	225.33
863.16	225.36
863.47	225.34
863.78	225.32
864.09	225.33
864.40	225.34
864.71	225.33
865.02	225.35
865.33	225.33
865.64	225.31
865.95	225.31
866.27	225.39
866.58	225.37
866.89	225.39
867.20	225.39
867.51	225.37
867.82	225.36
868.13	225.40
868.44	225.37
868.75	225.40
869.06	225.40
869.37	225.42
869.68	225.39
869.99	225.41
870.30	225.41
870.61	225.42
870.92	225.40
871.23	225.39
871.54	225.41
871.85	225.44
872.16	225.45
872.47	225.44
872.78	225.37
873.09	225.38
873.40	225.36
873.71	225.37
874.02	225.38
874.33	225.37
874.64	225.34
874.95	225.36
875.26	225.33
875.56	225.33
875.87	225.32
876.18	225.31
876.49	225.44
876.80	225.42
877.11	225.40
877.42	225.41
877.73	225.41
878.04	225.39
878.35	225.38
878.66	225.38
878.96	225.38
879.27	225.37
879.58	225.37
879.89	225.36
880.20	225.40
880.51	225.39
880.82	225.39
881.12	225.40
881.43	225.37
881.74	225.35
882.05	225.35
882.36	225.36
882.67	225.37
882.97	225.23
883.28	225.22
883.59	225.22
883.90	225.23
884.21	225.24
884.51	225.23
884.82	225.21
885.13	225.21
885.44	225.21
885.74	225.21
886.05	225.20
886.36	225.20
886.67	225.15
886.98	225.21
887.28	225.22
887.59	225.22
887.90	225.22
888.20	225.22
888.51	225.24
888.82	225.22
889.13	225.22
889.43	225.33
889.74	225.32
890.05	225.32
890.35	225.31
890.66	225.29
890.97	225.28
891.28	225.27
891.58	225.26
891.89	225.27
892.20	225.25
892.50	225.24
892.81	225.23
893.12	225.23
893.42	225.17
893.73	225.17
894.04	225.16
894.34	225.17
894.65	225.17
894.95	225.16
895.26	225.16
895.57	225.22
895.87	225.09
896.18	225.11
896.48	225.12
896.79	225.12
897.10	225.13
897.40	225.14
897.71	225.16
898.01	225.14
898.32	225.16
898.63	225.16
898.93	225.17
899.24	225.17
899.54	225.16
899.85	225.16
900.15	225.15
900.46	225.15
900.76	225.16
901.07	225.16
901.38	225.15
901.68	225.17
901.99	225.10
902.29	225.12
902.60	225.10
902.90	225.09
903.21	225.09
903.51	225.08
903.82	225.10
904.12	225.10
904.43	225.11
904.73	225.10
905.03	225.10
905.34	225.22
905.64	225.21
905.95	225.21
906.25	225.21
906.56	225.21
906.86	225.21
907.17	225.19
907.47	225.20
907.77	225.19
908.08	225.16
908.38	225.17
908.69	225.18
908.99	225.20
909.30	225.20
909.60	225.20
909.90	225.20
910.21	225.16
910.51	225.14
910.81	225.14
911.12	225.15
911.42	225.15
911.73	225.01
912.03	225.03
912.33	225.05
912.64	225.04
912.94	225.03
913.24	225.01
913.55	225.00
913.85	224.99
914.15	225.02
914.46	225.04
914.76	225.02
915.06	225.01
915.37	224.99
915.67	224.98
915.97	224.98
916.27	224.96
916.58	224.97
916.88	224.97
917.18	224.96
917.49	225.04
917.79	225.04
918.09	225.06
918.39	225.09
918.70	225.08
919.00	225.09
919.30	225.15
919.60	225.14
919.91	225.13
920.21	225.14
920.51	225.11
920.81	225.10
921.12	225.13
921.42	225.12
921.72	225.13
922.02	225.14
922.32	225.16
922.63	225.16
922.93	225.23
923.23	225.24
923.53	225.23
923.83	225.14
924.13	225.16
924.44	225.15
924.74	225.17
925.04	225.20
925.34	225.19
925.64	225.14
925.94	225.14
926.24	225.21
926.55	225.20
926.85	225.21
927.15	225.21
927.45	225.21
927.75	225.20
928.05	225.21
928.35	225.19
928.65	225.21
928.95	225.22
929.26	225.16
929.56	225.18
929.86	225.20
930.16	225.19
930.46	225.18
930.76	225.18
931.06	225.12
931.36	225.08
931.66	225.10
931.96	225.12
932.26	225.13
932.56	225.07
932.86	225.08
933.16	225.08
933.46	225.07
933.76	225.05
934.06	225.08
934.36	225.12
934.66	225.11
934.96	225.09
935.26	225.09
935.56	225.11
935.86	225.08
936.16	225.06
936.46	225.05
936.76	225.05
937.06	225.03
937.36	225.04
937.66	225.04
937.96	225.03
938.26	225.01
938.56	225.00
938.86	225.00
939.16	225.03
939.46	225.04
939.76	225.05
940.06	225.05
940.35	225.02
940.65	224.96
940.95	224.97
941.25	224.94
941.55	224.93
941.85	224.91
942.15	224.94
942.45	224.97
942.75	224.97
943.04	224.98
943.34	225.01
943.64	224.99
943.94	224.98
944.24	224.98
944.54	224.99
944.84	224.98
945.13	224.97
945.43	224.94
945.73	224.94
946.03	224.93
946.33	224.91
946.62	224.90
946.92	224.90
947.22	224.90
947.52	224.91
947.82	224.93
948.11	224.92
948.41	224.89
948.71	224.86
949.01	224.86
949.31	224.86
949.60	224.84
949.90	224.86
950.20	224.86
950.50	224.86
950.79	224.85
951.09	224.87
951.39	224.86
951.69	224.85
951.98	224.87
952.28	224.88
952.58	224.88
952.87	224.88
953.17	224.90
953.47	224.89
953.76	224.88
954.06	224.86
954.36	224.84
954.66	224.84
954.95	224.87
955.25	224.88
955.55	224.89
955.84	224.87
956.14	224.88
956.44	224.89
956.73	224.87
957.03	224.88
957.32	224.88
957.62	224.88
957.92	224.90
958.21	224.88
958.51	225.03
958.81	225.05
959.10	225.06
959.40	225.09
959.69	225.10
959.99	225.12
960.29	225.12
960.58	225.12
960.88	225.17
961.17	225.16
961.47	225.16
961.76	225.15
962.06	225.18
962.36	225.16
962.65	225.16
962.95	225.17
963.24	225.16
963.54	225.16
963.83	225.17
964.13	225.16
964.42	225.15
964.72	225.04
965.01	225.03
965.31	225.03
965.60	224.99
965.90	225.07
966.19	225.04
966.49	225.05
966.78	225.04
967.08	225.03
967.37	225.03
967.67	225.01
967.96	225.03
968.26	225.02
968.55	225.04
968.85	225.03
969.14	225.03
969.43	225.03
969.73	225.02
970.02	225.01
970.32	225.01
970.61	224.99
970.91	224.95
971.20	224.94
971.49	224.92
971.79	224.94
972.08	224.85
972.38	224.86
972.67	224.85
972.96	224.87
973.26	224.84
973.55	224.88
973.85	224.88
974.14	224.86
974.43	224.87
974.73	224.85
975.02	224.84
975.31	224.84
975.61	224.84
975.90	224.83
976.19	224.82
976.49	224.83
976.78	224.84
977.07	224.84
977.37	224.85
977.66	224.86
977.95	224.84
978.24	224.86
978.54	224.89
978.83	224.88
979.12	224.87
979.42	224.87
979.71	224.84
980.00	224.84
980.29	224.84
980.59	224.82
980.88	224.86
981.17	224.86
981.46	224.86
981.76	224.86
982.05	224.90
982.34	224.91
982.63	224.91
982.93	224.91
983.22	224.94
983.51	224.94
983.80	224.96
984.09	224.98
984.39	224.96
984.68	224.94
984.97	224.95
985.26	224.94
985.55	224.95
985.85	224.93
986.14	224.95
986.43	224.96
986.72	224.96
987.01	224.91
987.30	224.91
987.59	224.91
987.89	224.91
988.18	224.87
988.47	224.86
988.76	224.85
989.05	224.84
989.34	224.82
989.63	224.85
989.92	224.83
990.22	224.81
990.51	224.81
990.80	224.80
991.09	224.81
991.38	224.83
991.67	224.81
991.96	224.81
992.25	224.81
992.54	224.78
992.83	224.79
993.12	224.79
993.41	224.80
993.70	224.85
993.99	224.87
994.28	224.89
994.58	224.91
994.87	224.90
995.16	224.90
995.45	224.89
995.74	224.85
996.03	224.87
996.32	224.89
996.61	224.91
996.90	224.91
997.19	224.90
997.48	224.90
997.77	224.89
998.06	224.90
998.34	224.88
998.63	224.88
998.92	224.89
999.21	224.91
999.50	224.90
999.79	224.86
1000.08	224.85
1000.37	224.85
1000.66	224.83
1000.95	224.87
1001.24	224.87
1001.53	224.89
1001.82	224.89
1002.11	224.86
1002.40	224.87
1002.68	224.90
1002.97	224.99
1003.26	224.97
1003.55	224.95
1003.84	224.96
1004.13	225.01
1004.42	225.00
1004.71	225.00
1004.99	224.99
1005.28	225.02
1005.57	225.01
1005.86	225.00
1006.15	224.99
1006.44	224.97
1006.72	224.99
1007.01	224.96
1007.30	224.96
1007.59	224.94
1007.88	224.94
1008.17	224.95
1008.45	224.92
1008.74	224.87
1009.03	224.81
1009.32	224.81
1009.60	224.81
1009.89	224.80
1010.18	224.75
1010.47	224.74
1010.76	224.74
1011.04	224.74
1011.33	224.73
1011.62	224.74
1011.91	224.75
1012.19	224.76
1012.48	224.76
1012.77	224.76
1013.05	224.80
1013.34	224.80
1013.63	224.80
1013.92	224.81
1014.20	224.80
1014.49	224.81
1014.78	224.82
1015.06	224.78
1015.35	224.78
1015.64	224.80
1015.92	224.82
1016.21	224.83
1016.50	224.83
1016.78	224.85
1017.07	224.86
1017.36	224.84
1017.64	224.82
1017.93	224.83
1018.22	224.82
1018.50	224.81
1018.79	224.81
1019.08	224.76
1019.36	224.77
1019.65	224.76
1019.93	224.79
1020.22	224.81
1020.51	224.88
1020.79	224.86
1021.08	224.58
1021.36	224.60
1021.65	224.80
1021.94	224.72
1022.22	224.91
1022.51	224.56
1022.79	225.40
1023.08	225.00
1023.36	226.32
1023.65	224.49
>>>>>End Processed Spectral Data<<<<<
