SpectraSuite Data File
++++++++++++++++++++++++++++++++++++
Date: Fri Oct 02 16:41:10 EDT 2015
User: lab3
Dark Spectrum Present: No
Reference Spectrum Present: No
Number of Sampled Component Spectra: 1
Spectrometers: USB2E7196
Integration Time (usec): 46000 (USB2E7196)
Spectra Averaged: 1200 (USB2E7196)
Boxcar Smoothing: 10 (USB2E7196)
Correct for Electrical Dark: No (USB2E7196)
Strobe/Lamp Enabled: No (USB2E7196)
Correct for Detector Non-linearity: No (USB2E7196)
Correct for Stray Light: No (USB2E7196)
Number of Pixels in Processed Spectrum: 2048
>>>>>Begin Processed Spectral Data<<<<<
339.09	0.00
339.48	214.59
339.86	215.90
340.24	217.44
340.63	218.89
341.01	222.15
341.39	221.40
341.78	222.82
342.16	224.01
342.54	224.58
342.93	212.95
343.31	223.70
343.69	224.24
344.07	224.71
344.46	225.15
344.84	225.53
345.22	225.74
345.60	226.00
345.99	226.20
346.37	226.35
346.75	226.45
347.13	226.53
347.52	226.60
347.90	226.69
348.28	226.73
348.66	226.78
349.05	226.78
349.43	226.83
349.81	226.88
350.19	226.93
350.57	227.00
350.96	227.08
351.34	227.18
351.72	227.27
352.10	227.36
352.48	227.42
352.87	227.48
353.25	227.54
353.63	227.60
354.01	227.66
354.39	227.73
354.77	227.80
355.15	227.91
355.54	227.96
355.92	227.98
356.30	228.06
356.68	228.21
357.06	228.28
357.44	228.32
357.82	228.38
358.20	228.50
358.58	228.56
358.97	228.62
359.35	228.70
359.73	228.79
360.11	228.84
360.49	228.90
360.87	228.94
361.25	229.01
361.63	229.09
362.01	229.14
362.39	229.17
362.77	229.20
363.15	229.22
363.53	229.25
363.91	229.28
364.29	229.30
364.67	229.19
365.05	229.21
365.43	229.24
365.81	229.26
366.19	229.27
366.57	229.33
366.95	229.33
367.33	229.29
367.71	229.28
368.09	229.29
368.47	229.28
368.85	229.27
369.23	229.28
369.61	229.22
369.99	229.23
370.37	229.22
370.75	229.30
371.13	229.26
371.51	229.21
371.89	229.20
372.27	229.17
372.65	229.15
373.03	229.10
373.41	229.06
373.78	229.02
374.16	228.92
374.54	228.84
374.92	228.79
375.30	228.75
375.68	228.68
376.06	228.64
376.44	228.59
376.82	228.54
377.19	228.50
377.57	228.45
377.95	228.37
378.33	228.31
378.71	228.15
379.09	228.11
379.47	228.09
379.84	228.02
380.22	227.96
380.60	227.90
380.98	227.85
381.36	227.80
381.73	227.73
382.11	227.71
382.49	227.66
382.87	227.60
383.25	227.55
383.62	227.66
384.00	227.58
384.38	227.54
384.76	227.53
385.13	227.53
385.51	227.49
385.89	227.44
386.27	227.40
386.64	227.39
387.02	227.33
387.40	227.28
387.78	227.24
388.15	227.22
388.53	227.17
388.91	227.14
389.29	227.11
389.66	227.10
390.04	227.07
390.42	227.06
390.79	227.04
391.17	227.03
391.55	226.86
391.92	226.86
392.30	226.86
392.68	226.82
393.05	226.79
393.43	226.79
393.81	226.80
394.18	226.79
394.56	226.79
394.94	226.82
395.31	226.82
395.69	226.88
396.06	226.90
396.44	226.94
396.82	226.95
397.19	227.04
397.57	227.05
397.95	227.10
398.32	227.09
398.70	227.13
399.07	227.20
399.45	227.24
399.82	227.29
400.20	227.33
400.58	227.39
400.95	227.39
401.33	227.47
401.70	227.63
402.08	227.72
402.45	227.80
402.83	227.91
403.20	228.03
403.58	228.12
403.95	228.26
404.33	228.41
404.71	228.56
405.08	228.76
405.46	228.93
405.83	229.12
406.21	229.32
406.58	229.55
406.96	229.76
407.33	230.02
407.70	230.30
408.08	230.68
408.45	231.02
408.83	231.38
409.20	231.72
409.58	232.01
409.95	232.41
410.33	232.86
410.70	233.27
411.08	233.77
411.45	234.28
411.82	234.80
412.20	235.40
412.57	236.11
412.95	236.68
413.32	237.41
413.69	238.16
414.07	238.96
414.44	239.83
414.82	240.71
415.19	241.75
415.56	242.80
415.94	243.89
416.31	245.11
416.68	246.33
417.06	247.75
417.43	249.08
417.81	250.62
418.18	252.18
418.55	253.89
418.93	255.67
419.30	257.51
419.67	259.48
420.04	261.49
420.42	263.58
420.79	266.02
421.16	268.47
421.54	270.96
421.91	273.59
422.28	276.30
422.66	279.22
423.03	281.99
423.40	284.93
423.77	288.06
424.15	291.27
424.52	294.63
424.89	298.25
425.26	301.85
425.64	305.20
426.01	308.94
426.38	312.78
426.75	316.74
427.13	320.82
427.50	325.08
427.87	329.52
428.24	334.02
428.61	338.32
428.99	342.98
429.36	348.08
429.73	352.96
430.10	357.84
430.47	362.83
430.85	368.00
431.22	373.52
431.59	379.20
431.96	384.75
432.33	390.92
432.70	396.80
433.08	403.75
433.45	410.33
433.82	416.82
434.19	424.05
434.56	431.19
434.93	438.09
435.30	444.90
435.68	452.62
436.05	460.14
436.42	467.67
436.79	474.54
437.16	481.95
437.53	489.88
437.90	497.82
438.27	505.61
438.64	513.99
439.01	521.57
439.38	528.53
439.75	535.23
440.13	542.77
440.50	549.93
440.87	555.63
441.24	561.84
441.61	568.61
441.98	573.55
442.35	579.38
442.72	585.34
443.09	591.00
443.46	594.54
443.83	597.13
444.20	599.24
444.57	602.44
444.94	604.20
445.31	606.01
445.68	607.55
446.05	608.58
446.42	608.05
446.79	607.34
447.16	606.67
447.53	606.02
447.90	603.40
448.27	600.90
448.64	597.18
449.01	594.53
449.37	589.50
449.74	584.92
450.11	579.09
450.48	572.72
450.85	566.37
451.22	560.92
451.59	555.61
451.96	550.80
452.33	543.88
452.70	537.74
453.07	530.29
453.43	522.88
453.80	515.71
454.17	508.84
454.54	502.50
454.91	495.37
455.28	488.72
455.65	482.44
456.02	475.83
456.38	470.52
456.75	463.70
457.12	458.20
457.49	452.66
457.86	447.46
458.23	442.92
458.59	437.87
458.96	432.72
459.33	428.19
459.70	423.59
460.07	420.11
460.43	416.00
460.80	412.17
461.17	408.84
461.54	405.22
461.91	401.85
462.27	398.43
462.64	395.71
463.01	392.54
463.38	389.35
463.74	386.47
464.11	383.92
464.48	381.66
464.85	379.18
465.21	377.33
465.58	375.23
465.95	372.81
466.32	370.91
466.68	369.03
467.05	367.14
467.42	365.30
467.78	363.30
468.15	361.46
468.52	360.14
468.88	358.33
469.25	356.69
469.62	355.39
469.98	353.97
470.35	352.68
470.72	351.53
471.08	350.35
471.45	349.37
471.82	348.28
472.18	347.11
472.55	346.36
472.92	345.40
473.28	344.66
473.65	343.87
474.02	343.11
474.38	342.47
474.75	342.11
475.11	341.59
475.48	341.35
475.85	341.11
476.21	340.98
476.58	340.89
476.94	341.02
477.31	341.08
477.67	341.18
478.04	341.40
478.41	341.70
478.77	342.14
479.14	342.41
479.50	342.93
479.87	343.61
480.23	344.29
480.60	344.96
480.96	345.64
481.33	346.63
481.69	347.62
482.06	348.61
482.42	349.50
482.79	350.64
483.15	351.95
483.52	353.41
483.88	354.82
484.25	356.34
484.61	357.93
484.98	359.64
485.34	361.56
485.71	363.56
486.07	365.69
486.44	367.81
486.80	370.21
487.17	372.70
487.53	375.39
487.90	378.24
488.26	381.34
488.62	384.58
488.99	387.83
489.35	391.27
489.72	395.00
490.08	398.90
490.44	402.95
490.81	407.14
491.17	411.47
491.54	416.08
491.90	420.85
492.26	425.97
492.63	431.33
492.99	436.89
493.36	442.68
493.72	448.76
494.08	455.00
494.45	461.59
494.81	468.47
495.17	475.49
495.54	482.90
495.90	490.64
496.26	498.57
496.63	506.73
496.99	515.21
497.35	524.05
497.72	533.20
498.08	542.55
498.44	552.22
498.80	562.47
499.17	572.96
499.53	583.79
499.89	594.97
500.26	606.37
500.62	618.05
500.98	630.34
501.34	642.83
501.71	655.86
502.07	669.02
502.43	682.69
502.79	696.69
503.16	711.08
503.52	725.65
503.88	740.67
504.24	756.13
504.60	771.76
504.97	787.89
505.33	804.35
505.69	821.75
506.05	839.46
506.41	857.11
506.78	874.92
507.14	893.24
507.50	911.98
507.86	931.06
508.22	950.38
508.59	969.56
508.95	989.52
509.31	1010.08
509.67	1031.45
510.03	1052.76
510.39	1074.04
510.75	1095.54
511.12	1117.31
511.48	1139.17
511.84	1161.10
512.20	1183.37
512.56	1206.46
512.92	1229.67
513.28	1252.40
513.64	1275.30
514.00	1298.61
514.37	1322.30
514.73	1345.93
515.09	1369.46
515.45	1393.25
515.81	1417.27
516.17	1441.23
516.53	1464.78
516.89	1488.27
517.25	1511.85
517.61	1535.31
517.97	1559.17
518.33	1582.40
518.69	1605.59
519.05	1629.26
519.41	1653.11
519.77	1677.28
520.13	1700.66
520.49	1723.92
520.85	1747.47
521.21	1770.74
521.57	1794.35
521.93	1817.33
522.29	1840.82
522.65	1863.63
523.01	1886.43
523.37	1908.83
523.73	1932.03
524.09	1954.79
524.45	1977.37
524.81	1999.43
525.17	2021.27
525.53	2042.67
525.89	2064.64
526.25	2086.53
526.61	2107.38
526.97	2128.27
527.33	2148.93
527.68	2169.38
528.04	2189.16
528.40	2207.93
528.76	2226.70
529.12	2245.00
529.48	2263.14
529.84	2279.31
530.20	2296.21
530.56	2312.53
530.91	2328.87
531.27	2344.83
531.63	2360.07
531.99	2374.80
532.35	2389.01
532.71	2403.39
533.07	2418.13
533.42	2430.99
533.78	2444.79
534.14	2458.86
534.50	2472.15
534.86	2485.20
535.21	2496.36
535.57	2507.94
535.93	2519.36
536.29	2529.72
536.65	2539.94
537.00	2549.28
537.36	2559.72
537.72	2568.86
538.08	2577.29
538.44	2585.14
538.79	2592.68
539.15	2599.32
539.51	2605.64
539.87	2611.19
540.22	2614.88
540.58	2618.68
540.94	2623.77
541.29	2627.41
541.65	2629.32
542.01	2630.43
542.37	2630.96
542.72	2632.68
543.08	2632.80
543.44	2633.51
543.79	2633.27
544.15	2632.24
544.51	2631.57
544.87	2629.75
545.22	2627.16
545.58	2623.93
545.94	2620.70
546.29	2616.20
546.65	2611.92
547.01	2607.43
547.36	2603.66
547.72	2600.00
548.07	2594.86
548.43	2588.38
548.79	2580.83
549.14	2574.45
549.50	2568.48
549.86	2561.46
550.21	2553.61
550.57	2546.43
550.92	2537.09
551.28	2528.37
551.64	2519.82
551.99	2510.99
552.35	2501.63
552.70	2492.55
553.06	2484.04
553.41	2474.91
553.77	2465.51
554.13	2455.84
554.48	2445.58
554.84	2434.12
555.19	2423.09
555.55	2412.10
555.90	2401.12
556.26	2390.71
556.61	2379.24
556.97	2366.37
557.32	2354.09
557.68	2341.57
558.03	2328.90
558.39	2317.47
558.74	2306.21
559.10	2293.47
559.45	2280.81
559.81	2268.72
560.16	2256.23
560.52	2243.85
560.87	2231.74
561.23	2218.89
561.58	2206.20
561.94	2193.21
562.29	2179.76
562.64	2166.97
563.00	2153.89
563.35	2141.22
563.71	2128.40
564.06	2115.55
564.42	2103.24
564.77	2090.40
565.12	2077.62
565.48	2064.83
565.83	2051.91
566.19	2039.28
566.54	2026.52
566.89	2012.86
567.25	1999.33
567.60	1986.91
567.96	1973.74
568.31	1959.27
568.66	1945.42
569.02	1932.82
569.37	1920.10
569.72	1907.90
570.08	1894.61
570.43	1880.85
570.78	1866.93
571.14	1852.51
571.49	1838.68
571.84	1825.37
572.20	1811.04
572.55	1796.77
572.90	1782.55
573.26	1768.37
573.61	1753.65
573.96	1739.38
574.31	1725.27
574.67	1711.32
575.02	1696.37
575.37	1681.46
575.72	1667.47
576.08	1653.94
576.43	1639.26
576.78	1625.01
577.13	1611.03
577.49	1597.39
577.84	1584.41
578.19	1570.61
578.54	1556.84
578.90	1542.67
579.25	1528.43
579.60	1515.59
579.95	1502.80
580.30	1489.76
580.66	1476.45
581.01	1463.09
581.36	1449.74
581.71	1437.32
582.06	1424.81
582.42	1412.56
582.77	1400.43
583.12	1388.31
583.47	1375.89
583.82	1363.76
584.17	1351.27
584.53	1338.46
584.88	1325.96
585.23	1313.15
585.58	1301.08
585.93	1289.21
586.28	1277.98
586.63	1266.69
586.98	1255.07
587.34	1243.53
587.69	1231.76
588.04	1220.34
588.39	1209.31
588.74	1198.41
589.09	1187.37
589.44	1175.92
589.79	1164.97
590.14	1154.14
590.49	1143.23
590.84	1132.50
591.19	1121.97
591.54	1111.34
591.89	1100.89
592.25	1090.64
592.60	1080.08
592.95	1069.86
593.30	1059.88
593.65	1049.71
594.00	1039.60
594.35	1029.99
594.70	1019.95
595.05	1010.69
595.40	1001.44
595.75	992.03
596.10	983.03
596.45	973.86
596.80	964.99
597.15	955.94
597.50	947.05
597.85	938.53
598.19	929.86
598.54	921.22
598.89	913.01
599.24	905.07
599.59	896.94
599.94	889.61
600.29	882.12
600.64	874.40
600.99	866.33
601.34	858.66
601.69	850.66
602.04	843.27
602.39	835.76
602.74	828.30
603.08	820.77
603.43	813.29
603.78	805.91
604.13	798.68
604.48	791.44
604.83	784.33
605.18	777.13
605.53	770.17
605.87	763.11
606.22	756.29
606.57	749.43
606.92	742.49
607.27	735.52
607.62	728.83
607.96	722.45
608.31	716.47
608.66	710.35
609.01	704.44
609.36	698.66
609.70	692.72
610.05	686.69
610.40	680.98
610.75	675.21
611.10	669.74
611.44	664.14
611.79	658.68
612.14	653.14
612.49	647.66
612.83	642.42
613.18	637.29
613.53	632.09
613.88	626.92
614.22	622.11
614.57	617.25
614.92	612.24
615.27	607.33
615.61	602.51
615.96	597.69
616.31	592.92
616.65	588.21
617.00	583.64
617.35	579.20
617.70	574.78
618.04	570.50
618.39	566.11
618.74	561.94
619.08	557.77
619.43	553.73
619.78	549.70
620.12	545.68
620.47	541.78
620.82	537.97
621.16	534.22
621.51	530.39
621.85	526.57
622.20	522.91
622.55	519.29
622.89	515.73
623.24	512.19
623.59	508.66
623.93	505.25
624.28	501.92
624.62	498.69
624.97	495.50
625.32	492.23
625.66	488.96
626.01	485.65
626.35	482.41
626.70	479.20
627.04	476.18
627.39	473.07
627.73	470.11
628.08	467.25
628.43	464.35
628.77	461.53
629.12	458.84
629.46	456.19
629.81	453.43
630.15	450.68
630.50	448.01
630.84	445.40
631.19	442.84
631.53	440.38
631.88	437.86
632.22	435.36
632.57	433.13
632.91	430.94
633.26	428.80
633.60	426.69
633.95	424.65
634.29	422.53
634.64	420.46
634.98	418.24
635.32	416.13
635.67	414.20
636.01	412.20
636.36	410.23
636.70	408.36
637.05	406.50
637.39	404.69
637.73	402.90
638.08	401.21
638.42	399.51
638.77	397.67
639.11	395.81
639.45	394.01
639.80	392.14
640.14	390.36
640.49	388.57
640.83	386.77
641.17	385.03
641.52	383.34
641.86	381.68
642.20	380.20
642.55	378.56
642.89	376.94
643.23	375.39
643.58	374.00
643.92	372.51
644.26	371.05
644.61	369.63
644.95	368.18
645.29	366.65
645.64	365.14
645.98	363.73
646.32	362.42
646.66	361.08
647.01	359.77
647.35	358.50
647.69	357.22
648.04	356.05
648.38	354.81
648.72	353.56
649.06	352.32
649.41	351.08
649.75	349.90
650.09	348.75
650.43	347.60
650.78	346.38
651.12	345.21
651.46	344.09
651.80	343.00
652.14	341.92
652.49	340.88
652.83	339.83
653.17	338.81
653.51	337.81
653.85	336.88
654.20	335.92
654.54	334.85
654.88	333.86
655.22	332.89
655.56	331.93
655.90	331.02
656.25	330.13
656.59	329.24
656.93	328.40
657.27	327.55
657.61	326.64
657.95	325.80
658.29	324.92
658.64	324.09
658.98	323.25
659.32	322.43
659.66	321.66
660.00	320.90
660.34	320.13
660.68	319.34
661.02	318.53
661.36	317.73
661.70	316.98
662.05	316.26
662.39	315.54
662.73	314.88
663.07	314.24
663.41	313.56
663.75	312.85
664.09	312.15
664.43	311.42
664.77	310.76
665.11	310.05
665.45	309.43
665.79	308.80
666.13	308.15
666.47	307.47
666.81	306.76
667.15	306.03
667.49	305.40
667.83	304.81
668.17	304.19
668.51	303.61
668.85	303.07
669.19	302.55
669.53	301.93
669.87	301.29
670.21	300.68
670.55	300.10
670.89	299.61
671.23	299.05
671.57	298.52
671.91	298.04
672.25	297.57
672.58	297.10
672.92	296.55
673.26	296.07
673.60	295.60
673.94	295.16
674.28	294.75
674.62	294.30
674.96	293.78
675.30	293.34
675.64	292.86
675.97	292.35
676.31	291.83
676.65	291.35
676.99	290.93
677.33	290.43
677.67	289.98
678.01	289.46
678.34	289.02
678.68	288.58
679.02	288.08
679.36	287.60
679.70	287.13
680.04	286.70
680.37	286.25
680.71	285.83
681.05	285.41
681.39	284.95
681.73	284.47
682.06	284.03
682.40	283.58
682.74	283.18
683.08	282.83
683.42	282.42
683.75	282.04
684.09	281.58
684.43	281.17
684.77	280.75
685.10	280.38
685.44	279.99
685.78	279.60
686.12	279.23
686.45	278.84
686.79	278.41
687.13	278.02
687.46	277.60
687.80	277.21
688.14	276.77
688.48	276.38
688.81	275.98
689.15	275.61
689.49	275.22
689.82	274.82
690.16	274.36
690.50	273.98
690.83	273.59
691.17	273.20
691.51	272.83
691.84	272.48
692.18	272.08
692.52	271.69
692.85	271.31
693.19	270.97
693.52	270.59
693.86	270.24
694.20	269.87
694.53	269.52
694.87	269.14
695.21	268.78
695.54	268.42
695.88	268.04
696.21	267.64
696.55	267.29
696.88	266.93
697.22	266.59
697.56	266.23
697.89	265.83
698.23	265.50
698.56	265.12
698.90	264.77
699.23	264.39
699.57	264.02
699.90	263.65
700.24	263.27
700.58	262.93
700.91	262.64
701.25	262.41
701.58	262.14
701.92	261.86
702.25	261.55
702.59	261.23
702.92	260.94
703.26	260.63
703.59	260.30
703.93	260.07
704.26	259.77
704.60	259.47
704.93	259.16
705.26	258.84
705.60	258.57
705.93	258.24
706.27	258.00
706.60	257.75
706.94	257.51
707.27	257.19
707.61	256.89
707.94	256.56
708.27	256.15
708.61	255.80
708.94	255.49
709.28	255.20
709.61	254.91
709.94	254.63
710.28	254.37
710.61	254.14
710.95	253.77
711.28	253.58
711.61	253.31
711.95	253.09
712.28	252.82
712.61	252.55
712.95	252.37
713.28	252.18
713.61	251.89
713.95	251.60
714.28	251.37
714.61	251.11
714.95	250.88
715.28	250.64
715.61	250.41
715.95	250.21
716.28	249.98
716.61	249.79
716.95	249.55
717.28	249.33
717.61	249.10
717.94	248.89
718.28	248.58
718.61	248.36
718.94	248.11
719.27	247.90
719.61	247.72
719.94	247.47
720.27	247.18
720.60	246.98
720.94	246.78
721.27	246.59
721.60	246.41
721.93	246.20
722.27	246.05
722.60	245.86
722.93	245.64
723.26	245.45
723.59	245.21
723.93	245.04
724.26	244.86
724.59	244.68
724.92	244.51
725.25	244.38
725.59	244.22
725.92	244.07
726.25	243.91
726.58	243.73
726.91	243.56
727.24	243.42
727.57	243.26
727.91	243.08
728.24	242.93
728.57	242.77
728.90	242.63
729.23	242.43
729.56	242.34
729.89	242.19
730.22	242.02
730.55	241.88
730.89	241.73
731.22	241.57
731.55	241.41
731.88	241.25
732.21	241.07
732.54	240.92
732.87	240.79
733.20	240.64
733.53	240.51
733.86	240.39
734.19	240.22
734.52	240.10
734.85	240.06
735.18	239.90
735.51	239.80
735.84	239.67
736.17	239.58
736.50	239.39
736.83	239.40
737.16	239.29
737.49	239.16
737.82	239.04
738.15	238.95
738.48	238.83
738.81	238.71
739.14	238.58
739.47	238.46
739.80	238.32
740.13	238.22
740.46	238.07
740.79	237.93
741.12	237.81
741.45	237.67
741.78	237.48
742.11	237.40
742.44	237.25
742.77	237.16
743.10	237.02
743.43	236.91
743.75	236.67
744.08	236.75
744.41	236.64
744.74	236.53
745.07	236.39
745.40	236.31
745.73	236.26
746.06	236.16
746.39	236.09
746.71	235.99
747.04	235.89
747.37	235.81
747.70	235.74
748.03	235.67
748.36	235.59
748.68	235.50
749.01	235.39
749.34	235.31
749.67	235.21
750.00	235.14
750.33	235.15
750.65	235.08
750.98	234.82
751.31	234.74
751.64	234.67
751.97	234.65
752.29	234.56
752.62	234.41
752.95	234.30
753.28	234.20
753.60	234.10
753.93	234.05
754.26	233.97
754.59	233.85
754.91	233.76
755.24	233.66
755.57	233.65
755.90	233.56
756.22	233.46
756.55	233.37
756.88	233.25
757.20	233.10
757.53	232.98
757.86	232.90
758.19	232.83
758.51	232.74
758.84	232.61
759.17	232.53
759.49	232.47
759.82	232.48
760.15	232.44
760.47	232.37
760.80	232.27
761.13	232.23
761.45	232.16
761.78	232.10
762.11	232.05
762.43	231.91
762.76	231.86
763.08	231.82
763.41	231.77
763.74	231.72
764.06	231.66
764.39	231.61
764.71	231.56
765.04	231.51
765.37	231.44
765.69	231.39
766.02	231.35
766.34	231.28
766.67	231.18
767.00	231.15
767.32	231.17
767.65	231.20
767.97	231.14
768.30	231.10
768.62	231.05
768.95	230.99
769.27	230.94
769.60	230.92
769.92	230.85
770.25	230.77
770.57	230.71
770.90	230.66
771.22	230.61
771.55	230.57
771.87	230.53
772.20	230.49
772.52	230.55
772.85	230.66
773.17	230.63
773.50	230.57
773.82	230.52
774.15	230.41
774.47	230.30
774.80	230.25
775.12	230.20
775.45	230.17
775.77	230.14
776.09	230.11
776.42	230.08
776.74	230.09
777.07	230.06
777.39	230.04
777.72	229.99
778.04	229.97
778.36	229.94
778.69	229.90
779.01	229.88
779.33	229.74
779.66	229.57
779.98	229.54
780.31	229.51
780.63	229.53
780.95	229.52
781.28	229.49
781.60	229.45
781.92	229.43
782.25	229.40
782.57	229.38
782.89	229.35
783.22	229.31
783.54	229.26
783.86	229.24
784.19	229.21
784.51	229.23
784.83	229.19
785.16	229.16
785.48	229.14
785.80	229.11
786.12	229.10
786.45	229.08
786.77	229.07
787.09	229.05
787.42	228.97
787.74	228.95
788.06	228.94
788.38	228.92
788.71	228.88
789.03	228.87
789.35	228.86
789.67	228.83
789.99	228.82
790.32	228.78
790.64	228.78
790.96	228.87
791.28	228.80
791.61	228.77
791.93	228.76
792.25	228.73
792.57	228.80
792.89	228.77
793.21	228.76
793.54	228.72
793.86	228.69
794.18	228.68
794.50	228.64
794.82	228.62
795.14	228.61
795.47	228.61
795.79	228.59
796.11	228.55
796.43	228.54
796.75	228.51
797.07	228.52
797.39	228.49
797.71	228.36
798.04	228.36
798.36	228.36
798.68	228.34
799.00	228.34
799.32	228.26
799.64	228.26
799.96	228.24
800.28	228.25
800.60	228.24
800.92	228.24
801.24	228.21
801.56	228.22
801.89	228.19
802.21	228.20
802.53	228.17
802.85	228.18
803.17	228.21
803.49	228.18
803.81	228.14
804.13	228.13
804.45	228.11
804.77	228.10
805.09	228.10
805.41	228.07
805.73	228.05
806.05	228.00
806.37	227.98
806.69	227.95
807.01	227.93
807.33	227.92
807.65	227.86
807.97	227.92
808.28	227.88
808.60	227.86
808.92	227.83
809.24	227.90
809.56	227.87
809.88	227.81
810.20	227.81
810.52	227.82
810.84	227.78
811.16	227.76
811.48	227.74
811.80	227.76
812.12	227.75
812.43	227.75
812.75	227.76
813.07	227.73
813.39	227.74
813.71	227.71
814.03	227.70
814.35	227.69
814.67	227.63
814.98	227.61
815.30	227.61
815.62	227.58
815.94	227.49
816.26	227.49
816.58	227.46
816.89	227.46
817.21	227.43
817.53	227.44
817.85	227.43
818.17	227.42
818.48	227.37
818.80	227.39
819.12	227.36
819.44	227.33
819.76	227.31
820.07	227.30
820.39	227.28
820.71	227.28
821.03	227.28
821.34	227.26
821.66	227.27
821.98	227.28
822.30	227.27
822.61	227.34
822.93	227.31
823.25	227.30
823.57	227.28
823.88	227.29
824.20	227.28
824.52	227.30
824.83	227.29
825.15	227.27
825.47	227.26
825.79	227.26
826.10	227.25
826.42	227.25
826.74	227.25
827.05	227.25
827.37	227.25
827.69	227.24
828.00	227.25
828.32	227.24
828.64	227.23
828.95	227.29
829.27	227.24
829.58	227.24
829.90	227.25
830.22	227.26
830.53	227.23
830.85	227.22
831.17	227.17
831.48	227.16
831.80	227.18
832.11	227.17
832.43	227.15
832.75	227.15
833.06	227.21
833.38	227.18
833.69	227.16
834.01	227.16
834.32	227.17
834.64	227.15
834.96	227.15
835.27	227.14
835.59	227.09
835.90	227.08
836.22	227.06
836.53	227.05
836.85	227.03
837.16	227.16
837.48	227.15
837.79	227.21
838.11	227.21
838.42	227.20
838.74	227.20
839.05	227.19
839.37	227.18
839.68	227.10
840.00	227.10
840.31	227.13
840.63	227.11
840.94	227.09
841.26	227.08
841.57	227.06
841.88	227.06
842.20	227.05
842.51	227.02
842.83	227.02
843.14	227.13
843.46	227.13
843.77	227.05
844.08	227.05
844.40	227.01
844.71	227.00
845.03	226.98
845.34	226.96
845.65	226.96
845.97	226.97
846.28	226.97
846.60	226.98
846.91	226.95
847.22	226.95
847.54	226.96
847.85	226.97
848.16	226.95
848.48	226.93
848.79	226.96
849.10	226.98
849.42	226.98
849.73	226.86
850.04	226.85
850.36	226.80
850.67	226.81
850.98	226.80
851.30	226.81
851.61	226.80
851.92	226.80
852.23	226.83
852.55	226.83
852.86	226.82
853.17	226.83
853.49	226.87
853.80	226.89
854.11	226.90
854.42	226.92
854.74	226.91
855.05	226.92
855.36	226.86
855.67	226.86
855.99	226.87
856.30	227.01
856.61	227.02
856.92	227.03
857.23	227.03
857.55	227.02
857.86	227.02
858.17	227.03
858.48	227.01
858.79	226.98
859.11	226.99
859.42	226.99
859.73	226.95
860.04	226.94
860.35	226.89
860.66	226.84
860.98	226.83
861.29	226.85
861.60	226.84
861.91	226.87
862.22	226.85
862.53	226.82
862.84	226.68
863.16	226.70
863.47	226.68
863.78	226.65
864.09	226.65
864.40	226.65
864.71	226.66
865.02	226.68
865.33	226.66
865.64	226.62
865.95	226.62
866.27	226.71
866.58	226.69
866.89	226.71
867.20	226.71
867.51	226.68
867.82	226.66
868.13	226.70
868.44	226.66
868.75	226.68
869.06	226.69
869.37	226.70
869.68	226.66
869.99	226.68
870.30	226.69
870.61	226.70
870.92	226.68
871.23	226.67
871.54	226.68
871.85	226.71
872.16	226.73
872.47	226.71
872.78	226.64
873.09	226.66
873.40	226.65
873.71	226.66
874.02	226.67
874.33	226.65
874.64	226.63
874.95	226.64
875.26	226.61
875.56	226.61
875.87	226.60
876.18	226.59
876.49	226.71
876.80	226.71
877.11	226.68
877.42	226.68
877.73	226.69
878.04	226.66
878.35	226.65
878.66	226.66
878.96	226.65
879.27	226.64
879.58	226.63
879.89	226.62
880.20	226.65
880.51	226.64
880.82	226.65
881.12	226.66
881.43	226.65
881.74	226.64
882.05	226.63
882.36	226.63
882.67	226.65
882.97	226.52
883.28	226.50
883.59	226.50
883.90	226.50
884.21	226.52
884.51	226.53
884.82	226.51
885.13	226.51
885.44	226.51
885.74	226.52
886.05	226.52
886.36	226.53
886.67	226.48
886.98	226.55
887.28	226.57
887.59	226.57
887.90	226.56
888.20	226.56
888.51	226.58
888.82	226.56
889.13	226.56
889.43	226.68
889.74	226.66
890.05	226.66
890.35	226.65
890.66	226.63
890.97	226.61
891.28	226.60
891.58	226.60
891.89	226.60
892.20	226.58
892.50	226.56
892.81	226.55
893.12	226.55
893.42	226.48
893.73	226.47
894.04	226.47
894.34	226.48
894.65	226.49
894.95	226.48
895.26	226.49
895.57	226.54
895.87	226.41
896.18	226.44
896.48	226.45
896.79	226.45
897.10	226.47
897.40	226.48
897.71	226.49
898.01	226.48
898.32	226.50
898.63	226.51
898.93	226.52
899.24	226.53
899.54	226.53
899.85	226.52
900.15	226.52
900.46	226.52
900.76	226.52
901.07	226.52
901.38	226.50
901.68	226.52
901.99	226.47
902.29	226.48
902.60	226.47
902.90	226.46
903.21	226.45
903.51	226.43
903.82	226.45
904.12	226.45
904.43	226.45
904.73	226.44
905.03	226.44
905.34	226.57
905.64	226.55
905.95	226.55
906.25	226.55
906.56	226.54
906.86	226.53
907.17	226.52
907.47	226.53
907.77	226.52
908.08	226.48
908.38	226.49
908.69	226.49
908.99	226.51
909.30	226.52
909.60	226.52
909.90	226.53
910.21	226.50
910.51	226.48
910.81	226.49
911.12	226.49
911.42	226.49
911.73	226.34
912.03	226.34
912.33	226.36
912.64	226.36
912.94	226.37
913.24	226.35
913.55	226.33
913.85	226.32
914.15	226.35
914.46	226.37
914.76	226.36
915.06	226.34
915.37	226.31
915.67	226.30
915.97	226.30
916.27	226.27
916.58	226.28
916.88	226.28
917.18	226.28
917.49	226.36
917.79	226.35
918.09	226.38
918.39	226.42
918.70	226.41
919.00	226.41
919.30	226.46
919.60	226.45
919.91	226.44
920.21	226.46
920.51	226.43
920.81	226.42
921.12	226.43
921.42	226.43
921.72	226.44
922.02	226.45
922.32	226.46
922.63	226.47
922.93	226.53
923.23	226.53
923.53	226.51
923.83	226.43
924.13	226.44
924.44	226.43
924.74	226.44
925.04	226.47
925.34	226.47
925.64	226.42
925.94	226.43
926.24	226.50
926.55	226.48
926.85	226.49
927.15	226.49
927.45	226.49
927.75	226.49
928.05	226.48
928.35	226.47
928.65	226.50
928.95	226.51
929.26	226.46
929.56	226.48
929.86	226.50
930.16	226.49
930.46	226.47
930.76	226.48
931.06	226.42
931.36	226.38
931.66	226.39
931.96	226.40
932.26	226.40
932.56	226.35
932.86	226.36
933.16	226.36
933.46	226.36
933.76	226.35
934.06	226.37
934.36	226.42
934.66	226.41
934.96	226.39
935.26	226.39
935.56	226.40
935.86	226.37
936.16	226.34
936.46	226.34
936.76	226.34
937.06	226.33
937.36	226.34
937.66	226.34
937.96	226.34
938.26	226.31
938.56	226.30
938.86	226.30
939.16	226.34
939.46	226.35
939.76	226.36
940.06	226.34
940.35	226.33
940.65	226.27
940.95	226.27
941.25	226.25
941.55	226.24
941.85	226.22
942.15	226.24
942.45	226.28
942.75	226.27
943.04	226.27
943.34	226.30
943.64	226.29
943.94	226.28
944.24	226.28
944.54	226.29
944.84	226.29
945.13	226.28
945.43	226.24
945.73	226.23
946.03	226.21
946.33	226.20
946.62	226.18
946.92	226.18
947.22	226.19
947.52	226.22
947.82	226.23
948.11	226.21
948.41	226.20
948.71	226.18
949.01	226.19
949.31	226.18
949.60	226.16
949.90	226.18
950.20	226.17
950.50	226.17
950.79	226.16
951.09	226.18
951.39	226.17
951.69	226.16
951.98	226.19
952.28	226.21
952.58	226.22
952.87	226.22
953.17	226.24
953.47	226.22
953.76	226.20
954.06	226.18
954.36	226.18
954.66	226.18
954.95	226.21
955.25	226.21
955.55	226.22
955.84	226.21
956.14	226.21
956.44	226.23
956.73	226.21
957.03	226.23
957.32	226.23
957.62	226.23
957.92	226.27
958.21	226.25
958.51	226.39
958.81	226.39
959.10	226.41
959.40	226.44
959.69	226.44
959.99	226.47
960.29	226.47
960.58	226.46
960.88	226.51
961.17	226.50
961.47	226.52
961.76	226.50
962.06	226.53
962.36	226.51
962.65	226.51
962.95	226.52
963.24	226.50
963.54	226.49
963.83	226.51
964.13	226.48
964.42	226.46
964.72	226.36
965.01	226.37
965.31	226.36
965.60	226.32
965.90	226.41
966.19	226.38
966.49	226.39
966.78	226.38
967.08	226.36
967.37	226.36
967.67	226.33
967.96	226.36
968.26	226.34
968.55	226.36
968.85	226.37
969.14	226.37
969.43	226.36
969.73	226.35
970.02	226.34
970.32	226.35
970.61	226.33
970.91	226.29
971.20	226.27
971.49	226.26
971.79	226.28
972.08	226.18
972.38	226.18
972.67	226.17
972.96	226.20
973.26	226.17
973.55	226.21
973.85	226.21
974.14	226.19
974.43	226.20
974.73	226.17
975.02	226.16
975.31	226.16
975.61	226.17
975.90	226.15
976.19	226.14
976.49	226.15
976.78	226.16
977.07	226.16
977.37	226.17
977.66	226.18
977.95	226.16
978.24	226.17
978.54	226.20
978.83	226.18
979.12	226.17
979.42	226.18
979.71	226.14
980.00	226.14
980.29	226.14
980.59	226.11
980.88	226.15
981.17	226.14
981.46	226.14
981.76	226.14
982.05	226.20
982.34	226.20
982.63	226.19
982.93	226.21
983.22	226.22
983.51	226.24
983.80	226.26
984.09	226.26
984.39	226.26
984.68	226.25
984.97	226.26
985.26	226.26
985.55	226.27
985.85	226.24
986.14	226.25
986.43	226.26
986.72	226.26
987.01	226.22
987.30	226.23
987.59	226.22
987.89	226.21
988.18	226.16
988.47	226.15
988.76	226.15
989.05	226.12
989.34	226.11
989.63	226.13
989.92	226.10
990.22	226.09
990.51	226.08
990.80	226.06
991.09	226.07
991.38	226.09
991.67	226.07
991.96	226.07
992.25	226.09
992.54	226.07
992.83	226.06
993.12	226.06
993.41	226.07
993.70	226.12
993.99	226.14
994.28	226.16
994.58	226.18
994.87	226.17
995.16	226.17
995.45	226.15
995.74	226.11
996.03	226.14
996.32	226.16
996.61	226.19
996.90	226.20
997.19	226.19
997.48	226.19
997.77	226.17
998.06	226.18
998.34	226.17
998.63	226.16
998.92	226.17
999.21	226.19
999.50	226.19
999.79	226.15
1000.08	226.14
1000.37	226.14
1000.66	226.13
1000.95	226.16
1001.24	226.17
1001.53	226.20
1001.82	226.19
1002.11	226.16
1002.40	226.16
1002.68	226.19
1002.97	226.27
1003.26	226.24
1003.55	226.22
1003.84	226.25
1004.13	226.28
1004.42	226.27
1004.71	226.27
1004.99	226.26
1005.28	226.29
1005.57	226.29
1005.86	226.28
1006.15	226.27
1006.44	226.25
1006.72	226.27
1007.01	226.24
1007.30	226.24
1007.59	226.23
1007.88	226.23
1008.17	226.25
1008.45	226.22
1008.74	226.17
1009.03	226.11
1009.32	226.12
1009.60	226.13
1009.89	226.11
1010.18	226.06
1010.47	226.06
1010.76	226.06
1011.04	226.06
1011.33	226.06
1011.62	226.07
1011.91	226.08
1012.19	226.09
1012.48	226.09
1012.77	226.08
1013.05	226.13
1013.34	226.13
1013.63	226.12
1013.92	226.13
1014.20	226.12
1014.49	226.13
1014.78	226.15
1015.06	226.11
1015.35	226.11
1015.64	226.12
1015.92	226.14
1016.21	226.15
1016.50	226.15
1016.78	226.17
1017.07	226.18
1017.36	226.15
1017.64	226.13
1017.93	226.13
1018.22	226.12
1018.50	226.12
1018.79	226.11
1019.08	226.06
1019.36	226.07
1019.65	226.05
1019.93	226.09
1020.22	226.11
1020.51	226.17
1020.79	226.16
1021.08	226.01
1021.36	225.80
1021.65	226.08
1021.94	226.03
1022.22	226.29
1022.51	225.73
1022.79	226.91
1023.08	226.18
1023.36	227.63
1023.65	225.94
>>>>>End Processed Spectral Data<<<<<
