SpectraSuite Data File
++++++++++++++++++++++++++++++++++++
Date: Sat Oct 03 09:03:22 EDT 2015
User: lab3
Dark Spectrum Present: No
Reference Spectrum Present: No
Number of Sampled Component Spectra: 1
Spectrometers: USB2E7196
Integration Time (usec): 46000 (USB2E7196)
Spectra Averaged: 12000 (USB2E7196)
Boxcar Smoothing: 10 (USB2E7196)
Correct for Electrical Dark: No (USB2E7196)
Strobe/Lamp Enabled: No (USB2E7196)
Correct for Detector Non-linearity: No (USB2E7196)
Correct for Stray Light: No (USB2E7196)
Number of Pixels in Processed Spectrum: 2048
>>>>>Begin Processed Spectral Data<<<<<
339.09	0.00
339.48	213.56
339.86	215.01
340.24	216.38
340.63	217.83
341.01	221.05
341.39	220.52
341.78	221.90
342.16	223.08
342.54	223.53
342.93	212.00
343.31	222.71
343.69	223.25
344.07	223.71
344.46	224.14
344.84	224.53
345.22	224.75
345.60	225.01
345.99	225.20
346.37	225.34
346.75	225.45
347.13	225.52
347.52	225.59
347.90	225.68
348.28	225.72
348.66	225.78
349.05	225.77
349.43	225.83
349.81	225.89
350.19	225.94
350.57	226.01
350.96	226.09
351.34	226.18
351.72	226.28
352.10	226.39
352.48	226.46
352.87	226.51
353.25	226.58
353.63	226.63
354.01	226.70
354.39	226.78
354.77	226.85
355.15	226.96
355.54	227.01
355.92	227.03
356.30	227.11
356.68	227.26
357.06	227.34
357.44	227.38
357.82	227.44
358.20	227.57
358.58	227.63
358.97	227.69
359.35	227.77
359.73	227.86
360.11	227.91
360.49	227.97
360.87	228.03
361.25	228.09
361.63	228.18
362.01	228.23
362.39	228.26
362.77	228.31
363.15	228.33
363.53	228.37
363.91	228.41
364.29	228.43
364.67	228.33
365.05	228.35
365.43	228.39
365.81	228.42
366.19	228.43
366.57	228.49
366.95	228.49
367.33	228.46
367.71	228.45
368.09	228.48
368.47	228.47
368.85	228.46
369.23	228.47
369.61	228.40
369.99	228.42
370.37	228.42
370.75	228.50
371.13	228.46
371.51	228.42
371.89	228.40
372.27	228.38
372.65	228.36
373.03	228.32
373.41	228.27
373.78	228.22
374.16	228.12
374.54	228.04
374.92	227.99
375.30	227.95
375.68	227.88
376.06	227.84
376.44	227.78
376.82	227.74
377.19	227.69
377.57	227.64
377.95	227.55
378.33	227.49
378.71	227.33
379.09	227.28
379.47	227.25
379.84	227.19
380.22	227.13
380.60	227.06
380.98	227.01
381.36	226.96
381.73	226.90
382.11	226.88
382.49	226.83
382.87	226.77
383.25	226.73
383.62	226.83
384.00	226.76
384.38	226.72
384.76	226.71
385.13	226.70
385.51	226.67
385.89	226.62
386.27	226.58
386.64	226.57
387.02	226.52
387.40	226.48
387.78	226.45
388.15	226.43
388.53	226.40
388.91	226.37
389.29	226.33
389.66	226.33
390.04	226.29
390.42	226.29
390.79	226.28
391.17	226.25
391.55	226.10
391.92	226.09
392.30	226.09
392.68	226.05
393.05	226.03
393.43	226.03
393.81	226.04
394.18	226.02
394.56	226.03
394.94	226.06
395.31	226.06
395.69	226.11
396.06	226.14
396.44	226.16
396.82	226.17
397.19	226.26
397.57	226.27
397.95	226.32
398.32	226.32
398.70	226.36
399.07	226.43
399.45	226.47
399.82	226.52
400.20	226.56
400.58	226.62
400.95	226.63
401.33	226.72
401.70	226.88
402.08	226.98
402.45	227.07
402.83	227.19
403.20	227.30
403.58	227.40
403.95	227.54
404.33	227.69
404.71	227.84
405.08	228.05
405.46	228.22
405.83	228.41
406.21	228.61
406.58	228.83
406.96	229.05
407.33	229.31
407.70	229.59
408.08	229.98
408.45	230.32
408.83	230.69
409.20	231.02
409.58	231.32
409.95	231.74
410.33	232.19
410.70	232.61
411.08	233.12
411.45	233.64
411.82	234.18
412.20	234.79
412.57	235.52
412.95	236.09
413.32	236.83
413.69	237.60
414.07	238.42
414.44	239.30
414.82	240.20
415.19	241.26
415.56	242.33
415.94	243.43
416.31	244.67
416.68	245.92
417.06	247.37
417.43	248.72
417.81	250.27
418.18	251.85
418.55	253.58
418.93	255.38
419.30	257.26
419.67	259.26
420.04	261.30
420.42	263.43
420.79	265.90
421.16	268.39
421.54	270.92
421.91	273.56
422.28	276.31
422.66	279.26
423.03	282.08
423.40	285.04
423.77	288.20
424.15	291.45
424.52	294.83
424.89	298.49
425.26	302.14
425.64	305.52
426.01	309.33
426.38	313.22
426.75	317.23
427.13	321.34
427.50	325.65
427.87	330.13
428.24	334.65
428.61	339.00
428.99	343.70
429.36	348.85
429.73	353.78
430.10	358.70
430.47	363.75
430.85	368.94
431.22	374.51
431.59	380.24
431.96	385.82
432.33	392.03
432.70	397.94
433.08	404.91
433.45	411.51
433.82	418.01
434.19	425.27
434.56	432.42
434.93	439.33
435.30	446.16
435.68	453.88
436.05	461.45
436.42	468.99
436.79	475.86
437.16	483.28
437.53	491.22
437.90	499.18
438.27	506.96
438.64	515.37
439.01	522.99
439.38	529.96
439.75	536.67
440.13	544.24
440.50	551.42
440.87	557.11
441.24	563.35
441.61	570.17
441.98	575.12
442.35	581.00
442.72	586.99
443.09	592.69
443.46	596.29
443.83	598.90
444.20	601.07
444.57	604.33
444.94	606.16
445.31	608.05
445.68	609.63
446.05	610.77
446.42	610.30
446.79	609.64
447.16	609.05
447.53	608.49
447.90	605.97
448.27	603.54
448.64	599.94
449.01	597.38
449.37	592.41
449.74	587.91
450.11	582.14
450.48	575.83
450.85	569.54
451.22	564.15
451.59	558.90
451.96	554.14
452.33	547.26
452.70	541.16
453.07	533.73
453.43	526.31
453.80	519.11
454.17	512.22
454.54	505.89
454.91	498.73
455.28	492.04
455.65	485.75
456.02	479.10
456.38	473.75
456.75	466.86
457.12	461.32
457.49	455.73
457.86	450.47
458.23	445.88
458.59	440.79
458.96	435.55
459.33	430.97
459.70	426.29
460.07	422.74
460.43	418.56
460.80	414.65
461.17	411.28
461.54	407.60
461.91	404.17
462.27	400.68
462.64	397.89
463.01	394.64
463.38	391.37
463.74	388.42
464.11	385.82
464.48	383.49
464.85	380.94
465.21	379.04
465.58	376.88
465.95	374.40
466.32	372.44
466.68	370.51
467.05	368.57
467.42	366.68
467.78	364.62
468.15	362.73
468.52	361.36
468.88	359.50
469.25	357.81
469.62	356.48
469.98	355.00
470.35	353.68
470.72	352.49
471.08	351.29
471.45	350.27
471.82	349.14
472.18	347.93
472.55	347.15
472.92	346.16
473.28	345.39
473.65	344.56
474.02	343.77
474.38	343.10
474.75	342.70
475.11	342.14
475.48	341.88
475.85	341.59
476.21	341.43
476.58	341.31
476.94	341.43
477.31	341.47
477.67	341.54
478.04	341.73
478.41	342.01
478.77	342.42
479.14	342.67
479.50	343.17
479.87	343.82
480.23	344.48
480.60	345.12
480.96	345.78
481.33	346.76
481.69	347.73
482.06	348.70
482.42	349.59
482.79	350.70
483.15	351.99
483.52	353.46
483.88	354.87
484.25	356.38
484.61	357.95
484.98	359.64
485.34	361.56
485.71	363.56
486.07	365.69
486.44	367.83
486.80	370.21
487.17	372.69
487.53	375.40
487.90	378.23
488.26	381.33
488.62	384.59
488.99	387.85
489.35	391.29
489.72	395.01
490.08	398.92
490.44	402.98
490.81	407.19
491.17	411.50
491.54	416.14
491.90	420.92
492.26	426.03
492.63	431.39
492.99	436.98
493.36	442.78
493.72	448.87
494.08	455.12
494.45	461.75
494.81	468.63
495.17	475.71
495.54	483.18
495.90	490.95
496.26	498.91
496.63	507.10
496.99	515.60
497.35	524.51
497.72	533.72
498.08	543.12
498.44	552.84
498.80	563.15
499.17	573.72
499.53	584.62
499.89	595.89
500.26	607.38
500.62	619.18
500.98	631.62
501.34	644.24
501.71	657.39
502.07	670.71
502.43	684.57
502.79	698.67
503.16	713.22
503.52	727.97
503.88	743.14
504.24	758.80
504.60	774.65
504.97	791.00
505.33	807.77
505.69	825.46
506.05	843.49
506.41	861.45
506.78	879.61
507.14	898.26
507.50	917.37
507.86	936.83
508.22	956.51
508.59	976.01
508.95	996.31
509.31	1017.35
509.67	1039.13
510.03	1060.91
510.39	1082.74
510.75	1104.76
511.12	1127.05
511.48	1149.54
511.84	1172.07
512.20	1194.98
512.56	1218.75
512.92	1242.56
513.28	1265.98
513.64	1289.65
514.00	1313.79
514.37	1338.23
514.73	1362.67
515.09	1386.97
515.45	1411.59
515.81	1436.42
516.17	1461.37
516.53	1485.88
516.89	1510.26
517.25	1534.79
517.61	1559.18
517.97	1584.03
518.33	1608.42
518.69	1632.75
519.05	1657.51
519.41	1682.56
519.77	1707.91
520.13	1732.48
520.49	1756.97
520.85	1781.75
521.21	1806.17
521.57	1830.92
521.93	1855.15
522.29	1879.93
522.65	1904.15
523.01	1928.37
523.37	1952.16
523.73	1976.66
524.09	2000.86
524.45	2024.85
524.81	2048.50
525.17	2072.03
525.53	2094.99
525.89	2118.36
526.25	2141.69
526.61	2164.06
526.97	2186.55
527.33	2208.89
527.68	2231.03
528.04	2252.37
528.40	2272.80
528.76	2293.38
529.12	2313.54
529.48	2333.45
529.84	2351.43
530.20	2370.07
530.56	2388.09
530.91	2406.28
531.27	2424.13
531.63	2441.09
531.99	2457.57
532.35	2473.36
532.71	2489.33
533.07	2505.96
533.42	2520.81
533.78	2536.60
534.14	2552.57
534.50	2567.68
534.86	2582.49
535.21	2595.37
535.57	2608.77
535.93	2621.95
536.29	2634.02
536.65	2645.82
537.00	2656.87
537.36	2668.96
537.72	2679.64
538.08	2689.78
538.44	2699.22
538.79	2708.29
539.15	2716.59
539.51	2724.57
539.87	2731.91
540.22	2737.13
540.58	2742.41
540.94	2748.85
541.29	2753.82
541.65	2757.06
542.01	2759.40
542.37	2761.15
542.72	2764.25
543.08	2765.63
543.44	2767.63
543.79	2768.57
544.15	2768.71
544.51	2769.24
544.87	2768.62
545.22	2767.29
545.58	2765.29
545.94	2763.24
546.29	2759.91
546.65	2756.56
547.01	2753.09
547.36	2750.31
547.72	2747.83
548.07	2743.56
548.43	2737.84
548.79	2731.06
549.14	2725.55
549.50	2720.45
549.86	2714.36
550.21	2707.09
550.57	2700.84
550.92	2692.25
551.28	2684.21
551.64	2676.55
551.99	2668.42
552.35	2659.71
552.70	2651.20
553.06	2643.05
553.41	2634.25
553.77	2625.26
554.13	2616.21
554.48	2606.36
554.84	2595.24
555.19	2584.51
555.55	2573.85
555.90	2563.27
556.26	2553.31
556.61	2542.25
556.97	2529.54
557.32	2517.34
557.68	2505.11
558.03	2492.54
558.39	2481.23
558.74	2470.23
559.10	2457.43
559.45	2444.87
559.81	2432.91
560.16	2420.33
560.52	2408.01
560.87	2396.11
561.23	2383.33
561.58	2370.59
561.94	2357.54
562.29	2343.99
562.64	2331.12
563.00	2317.98
563.35	2305.19
563.71	2292.25
564.06	2279.20
564.42	2266.89
564.77	2254.01
565.12	2241.00
565.48	2227.98
565.83	2214.90
566.19	2201.95
566.54	2189.02
566.89	2174.95
567.25	2160.96
567.60	2148.39
567.96	2134.89
568.31	2120.04
568.66	2105.88
569.02	2092.97
569.37	2079.98
569.72	2067.46
570.08	2053.72
570.43	2039.62
570.78	2025.44
571.14	2010.49
571.49	1996.14
571.84	1982.35
572.20	1967.38
572.55	1952.61
572.90	1937.80
573.26	1923.01
573.61	1907.73
573.96	1892.88
574.31	1878.25
574.67	1863.74
575.02	1848.14
575.37	1832.64
575.72	1817.94
576.08	1803.60
576.43	1788.10
576.78	1773.03
577.13	1758.25
577.49	1743.81
577.84	1729.97
578.19	1715.17
578.54	1700.57
578.90	1685.47
579.25	1670.28
579.60	1656.65
579.95	1642.95
580.30	1629.06
580.66	1614.92
581.01	1600.64
581.36	1586.35
581.71	1573.07
582.06	1559.71
582.42	1546.57
582.77	1533.50
583.12	1520.40
583.47	1507.17
583.82	1494.05
584.17	1480.60
584.53	1466.80
584.88	1453.39
585.23	1439.56
585.58	1426.50
585.93	1413.66
586.28	1401.57
586.63	1389.45
586.98	1376.89
587.34	1364.40
587.69	1351.58
588.04	1339.10
588.39	1327.01
588.74	1315.07
589.09	1302.92
589.44	1290.32
589.79	1278.36
590.14	1266.50
590.49	1254.57
590.84	1242.82
591.19	1231.44
591.54	1219.87
591.89	1208.44
592.25	1197.19
592.60	1185.57
592.95	1174.39
593.30	1163.44
593.65	1152.17
594.00	1141.06
594.35	1130.46
594.70	1119.43
595.05	1109.31
595.40	1099.10
595.75	1088.72
596.10	1078.87
596.45	1068.75
596.80	1058.99
597.15	1048.93
597.50	1039.05
597.85	1029.63
598.19	1019.98
598.54	1010.38
598.89	1001.25
599.24	992.45
599.59	983.42
599.94	975.33
600.29	967.02
600.64	958.44
600.99	949.49
601.34	940.89
601.69	931.98
602.04	923.74
602.39	915.32
602.74	906.96
603.08	898.56
603.43	890.12
603.78	881.87
604.13	873.76
604.48	865.69
604.83	857.75
605.18	849.72
605.53	841.87
605.87	833.84
606.22	826.09
606.57	818.31
606.92	810.48
607.27	802.54
607.62	794.91
607.96	787.70
608.31	780.93
608.66	773.96
609.01	767.25
609.36	760.64
609.70	753.84
610.05	747.00
610.40	740.45
610.75	733.88
611.10	727.64
611.44	721.23
611.79	714.94
612.14	708.58
612.49	702.28
612.83	696.30
613.18	690.46
613.53	684.51
613.88	678.58
614.22	673.04
614.57	667.46
614.92	661.74
615.27	656.13
615.61	650.56
615.96	645.04
616.31	639.54
616.65	634.10
617.00	628.86
617.35	623.72
617.70	618.63
618.04	613.60
618.39	608.49
618.74	603.64
619.08	598.82
619.43	594.14
619.78	589.46
620.12	584.73
620.47	580.17
620.82	575.73
621.16	571.32
621.51	566.80
621.85	562.32
622.20	558.00
622.55	553.71
622.89	549.51
623.24	545.32
623.59	541.16
623.93	537.15
624.28	533.25
624.62	529.43
624.97	525.64
625.32	521.82
625.66	517.96
626.01	514.08
626.35	510.26
626.70	506.48
627.04	502.90
627.39	499.23
627.73	495.75
628.08	492.34
628.43	488.94
628.77	485.61
629.12	482.40
629.46	479.22
629.81	475.95
630.15	472.66
630.50	469.48
630.84	466.35
631.19	463.28
631.53	460.32
631.88	457.33
632.22	454.36
632.57	451.67
632.91	449.02
633.26	446.45
633.60	443.90
633.95	441.40
634.29	438.82
634.64	436.31
634.98	433.62
635.32	431.06
635.67	428.70
636.01	426.27
636.36	423.89
636.70	421.63
637.05	419.38
637.39	417.18
637.73	414.99
638.08	412.93
638.42	410.83
638.77	408.60
639.11	406.31
639.45	404.11
639.80	401.85
640.14	399.69
640.49	397.53
640.83	395.34
641.17	393.26
641.52	391.21
641.86	389.19
642.20	387.37
642.55	385.40
642.89	383.45
643.23	381.60
643.58	379.91
643.92	378.09
644.26	376.33
644.61	374.63
644.95	372.89
645.29	371.07
645.64	369.28
645.98	367.58
646.32	366.01
646.66	364.41
647.01	362.84
647.35	361.31
647.69	359.76
648.04	358.35
648.38	356.86
648.72	355.39
649.06	353.93
649.41	352.47
649.75	351.08
650.09	349.71
650.43	348.33
650.78	346.90
651.12	345.51
651.46	344.18
651.80	342.87
652.14	341.59
652.49	340.36
652.83	339.10
653.17	337.90
653.51	336.71
653.85	335.60
654.20	334.43
654.54	333.20
654.88	332.05
655.22	330.93
655.56	329.79
655.90	328.72
656.25	327.68
656.59	326.62
656.93	325.63
657.27	324.65
657.61	323.61
657.95	322.62
658.29	321.62
658.64	320.68
658.98	319.72
659.32	318.80
659.66	317.93
660.00	317.08
660.34	316.22
660.68	315.33
661.02	314.42
661.36	313.55
661.70	312.72
662.05	311.90
662.39	311.10
662.73	310.37
663.07	309.65
663.41	308.88
663.75	308.11
664.09	307.35
664.43	306.56
664.77	305.84
665.11	305.09
665.45	304.40
665.79	303.71
666.13	303.00
666.47	302.27
666.81	301.52
667.15	300.75
667.49	300.09
667.83	299.48
668.17	298.85
668.51	298.25
668.85	297.69
669.19	297.16
669.53	296.53
669.87	295.89
670.21	295.26
670.55	294.69
670.89	294.19
671.23	293.64
671.57	293.11
671.91	292.62
672.25	292.15
672.58	291.68
672.92	291.13
673.26	290.67
673.60	290.21
673.94	289.77
674.28	289.35
674.62	288.90
674.96	288.39
675.30	287.95
675.64	287.47
675.97	286.97
676.31	286.46
676.65	286.00
676.99	285.60
677.33	285.13
677.67	284.69
678.01	284.18
678.34	283.75
678.68	283.34
679.02	282.87
679.36	282.42
679.70	281.97
680.04	281.57
680.37	281.15
680.71	280.75
681.05	280.37
681.39	279.95
681.73	279.51
682.06	279.09
682.40	278.68
682.74	278.33
683.08	278.02
683.42	277.65
683.75	277.31
684.09	276.89
684.43	276.55
684.77	276.18
685.10	275.87
685.44	275.52
685.78	275.17
686.12	274.85
686.45	274.50
686.79	274.13
687.13	273.80
687.46	273.43
687.80	273.09
688.14	272.70
688.48	272.38
688.81	272.04
689.15	271.74
689.49	271.39
689.82	271.03
690.16	270.61
690.50	270.28
690.83	269.93
691.17	269.59
691.51	269.26
691.84	268.94
692.18	268.58
692.52	268.22
692.85	267.88
693.19	267.58
693.52	267.25
693.86	266.93
694.20	266.60
694.53	266.30
694.87	265.95
695.21	265.63
695.54	265.31
695.88	264.98
696.21	264.62
696.55	264.32
696.88	264.01
697.22	263.70
697.56	263.39
697.89	263.04
698.23	262.73
698.56	262.40
698.90	262.09
699.23	261.77
699.57	261.46
699.90	261.14
700.24	260.80
700.58	260.52
700.91	260.26
701.25	260.08
701.58	259.84
701.92	259.59
702.25	259.32
702.59	259.02
702.92	258.74
703.26	258.46
703.59	258.17
703.93	257.98
704.26	257.71
704.60	257.43
704.93	257.15
705.26	256.86
705.60	256.63
705.93	256.33
706.27	256.10
706.60	255.87
706.94	255.66
707.27	255.37
707.61	255.08
707.94	254.79
708.27	254.40
708.61	254.07
708.94	253.79
709.28	253.53
709.61	253.27
709.94	253.03
710.28	252.80
710.61	252.58
710.95	252.24
711.28	252.07
711.61	251.84
711.95	251.64
712.28	251.39
712.61	251.13
712.95	250.98
713.28	250.81
713.61	250.55
713.95	250.27
714.28	250.06
714.61	249.83
714.95	249.61
715.28	249.39
715.61	249.18
715.95	248.99
716.28	248.78
716.61	248.60
716.95	248.38
717.28	248.17
717.61	247.95
717.94	247.74
718.28	247.45
718.61	247.23
718.94	247.01
719.27	246.81
719.61	246.63
719.94	246.40
720.27	246.12
720.60	245.93
720.94	245.74
721.27	245.55
721.60	245.39
721.93	245.20
722.27	245.05
722.60	244.88
722.93	244.67
723.26	244.49
723.59	244.27
723.93	244.10
724.26	243.92
724.59	243.74
724.92	243.58
725.25	243.46
725.59	243.29
725.92	243.15
726.25	242.99
726.58	242.82
726.91	242.65
727.24	242.51
727.57	242.35
727.91	242.18
728.24	242.04
728.57	241.88
728.90	241.74
729.23	241.54
729.56	241.44
729.89	241.30
730.22	241.13
730.55	240.99
730.89	240.84
731.22	240.68
731.55	240.54
731.88	240.40
732.21	240.22
732.54	240.07
732.87	239.94
733.20	239.81
733.53	239.67
733.86	239.55
734.19	239.39
734.52	239.28
734.85	239.24
735.18	239.07
735.51	238.98
735.84	238.85
736.17	238.75
736.50	238.56
736.83	238.59
737.16	238.47
737.49	238.36
737.82	238.24
738.15	238.14
738.48	238.02
738.81	237.90
739.14	237.77
739.47	237.65
739.80	237.52
740.13	237.41
740.46	237.28
740.79	237.14
741.12	237.03
741.45	236.89
741.78	236.70
742.11	236.63
742.44	236.49
742.77	236.40
743.10	236.27
743.43	236.15
743.75	235.91
744.08	236.00
744.41	235.89
744.74	235.78
745.07	235.65
745.40	235.56
745.73	235.52
746.06	235.43
746.39	235.35
746.71	235.25
747.04	235.14
747.37	235.05
747.70	234.98
748.03	234.90
748.36	234.83
748.68	234.73
749.01	234.61
749.34	234.52
749.67	234.43
750.00	234.36
750.33	234.37
750.65	234.29
750.98	234.02
751.31	233.94
751.64	233.86
751.97	233.85
752.29	233.76
752.62	233.61
752.95	233.52
753.28	233.42
753.60	233.34
753.93	233.29
754.26	233.22
754.59	233.10
754.91	233.00
755.24	232.91
755.57	232.89
755.90	232.81
756.22	232.72
756.55	232.62
756.88	232.52
757.20	232.35
757.53	232.24
757.86	232.16
758.19	232.10
758.51	232.02
758.84	231.88
759.17	231.80
759.49	231.73
759.82	231.72
760.15	231.67
760.47	231.60
760.80	231.49
761.13	231.45
761.45	231.39
761.78	231.33
762.11	231.27
762.43	231.14
762.76	231.08
763.08	231.03
763.41	230.98
763.74	230.93
764.06	230.87
764.39	230.83
764.71	230.77
765.04	230.70
765.37	230.64
765.69	230.59
766.02	230.54
766.34	230.48
766.67	230.38
767.00	230.35
767.32	230.37
767.65	230.40
767.97	230.33
768.30	230.29
768.62	230.24
768.95	230.17
769.27	230.12
769.60	230.09
769.92	230.02
770.25	229.96
770.57	229.89
770.90	229.85
771.22	229.79
771.55	229.75
771.87	229.71
772.20	229.67
772.52	229.74
772.85	229.85
773.17	229.80
773.50	229.76
773.82	229.70
774.15	229.59
774.47	229.47
774.80	229.42
775.12	229.38
775.45	229.34
775.77	229.32
776.09	229.29
776.42	229.26
776.74	229.27
777.07	229.23
777.39	229.21
777.72	229.16
778.04	229.15
778.36	229.11
778.69	229.08
779.01	229.06
779.33	228.92
779.66	228.74
779.98	228.71
780.31	228.68
780.63	228.70
780.95	228.70
781.28	228.67
781.60	228.64
781.92	228.61
782.25	228.58
782.57	228.56
782.89	228.52
783.22	228.49
783.54	228.43
783.86	228.42
784.19	228.38
784.51	228.40
784.83	228.36
785.16	228.33
785.48	228.31
785.80	228.28
786.12	228.27
786.45	228.24
786.77	228.23
787.09	228.19
787.42	228.12
787.74	228.10
788.06	228.09
788.38	228.06
788.71	228.03
789.03	228.02
789.35	228.01
789.67	227.97
789.99	227.96
790.32	227.93
790.64	227.92
790.96	228.01
791.28	227.95
791.61	227.93
791.93	227.92
792.25	227.89
792.57	227.96
792.89	227.92
793.21	227.91
793.54	227.88
793.86	227.85
794.18	227.84
794.50	227.80
794.82	227.78
795.14	227.78
795.47	227.79
795.79	227.77
796.11	227.72
796.43	227.71
796.75	227.69
797.07	227.68
797.39	227.66
797.71	227.54
798.04	227.53
798.36	227.53
798.68	227.50
799.00	227.50
799.32	227.43
799.64	227.43
799.96	227.42
800.28	227.43
800.60	227.41
800.92	227.40
801.24	227.38
801.56	227.38
801.89	227.35
802.21	227.34
802.53	227.30
802.85	227.32
803.17	227.36
803.49	227.32
803.81	227.30
804.13	227.27
804.45	227.25
804.77	227.24
805.09	227.23
805.41	227.21
805.73	227.16
806.05	227.12
806.37	227.10
806.69	227.07
807.01	227.04
807.33	227.04
807.65	226.98
807.97	227.03
808.28	227.00
808.60	226.99
808.92	226.96
809.24	227.03
809.56	227.00
809.88	226.94
810.20	226.94
810.52	226.95
810.84	226.93
811.16	226.91
811.48	226.89
811.80	226.92
812.12	226.90
812.43	226.92
812.75	226.92
813.07	226.89
813.39	226.89
813.71	226.87
814.03	226.85
814.35	226.85
814.67	226.79
814.98	226.76
815.30	226.75
815.62	226.73
815.94	226.63
816.26	226.64
816.58	226.61
816.89	226.61
817.21	226.57
817.53	226.57
817.85	226.56
818.17	226.55
818.48	226.49
818.80	226.51
819.12	226.48
819.44	226.45
819.76	226.43
820.07	226.42
820.39	226.41
820.71	226.41
821.03	226.40
821.34	226.39
821.66	226.40
821.98	226.40
822.30	226.39
822.61	226.46
822.93	226.43
823.25	226.42
823.57	226.40
823.88	226.41
824.20	226.40
824.52	226.41
824.83	226.40
825.15	226.39
825.47	226.37
825.79	226.37
826.10	226.37
826.42	226.36
826.74	226.36
827.05	226.35
827.37	226.35
827.69	226.33
828.00	226.33
828.32	226.33
828.64	226.30
828.95	226.36
829.27	226.32
829.58	226.32
829.90	226.33
830.22	226.34
830.53	226.31
830.85	226.30
831.17	226.26
831.48	226.25
831.80	226.26
832.11	226.24
832.43	226.22
832.75	226.21
833.06	226.28
833.38	226.24
833.69	226.23
834.01	226.23
834.32	226.22
834.64	226.21
834.96	226.20
835.27	226.19
835.59	226.14
835.90	226.12
836.22	226.11
836.53	226.08
836.85	226.06
837.16	226.19
837.48	226.19
837.79	226.23
838.11	226.23
838.42	226.22
838.74	226.23
839.05	226.23
839.37	226.22
839.68	226.14
840.00	226.13
840.31	226.15
840.63	226.13
840.94	226.11
841.26	226.10
841.57	226.10
841.88	226.10
842.20	226.08
842.51	226.06
842.83	226.06
843.14	226.17
843.46	226.17
843.77	226.09
844.08	226.08
844.40	226.04
844.71	226.02
845.03	226.01
845.34	225.99
845.65	225.99
845.97	225.99
846.28	225.99
846.60	226.00
846.91	225.98
847.22	225.97
847.54	226.00
847.85	226.01
848.16	225.99
848.48	225.97
848.79	226.02
849.10	226.03
849.42	226.04
849.73	225.92
850.04	225.91
850.36	225.87
850.67	225.89
850.98	225.89
851.30	225.90
851.61	225.90
851.92	225.90
852.23	225.94
852.55	225.94
852.86	225.94
853.17	225.95
853.49	225.98
853.80	226.00
854.11	226.00
854.42	226.02
854.74	226.01
855.05	226.01
855.36	225.94
855.67	225.94
855.99	225.94
856.30	226.08
856.61	226.08
856.92	226.08
857.23	226.08
857.55	226.07
857.86	226.06
858.17	226.07
858.48	226.05
858.79	226.02
859.11	226.02
859.42	226.01
859.73	225.99
860.04	225.98
860.35	225.94
860.66	225.90
860.98	225.89
861.29	225.91
861.60	225.90
861.91	225.93
862.22	225.91
862.53	225.89
862.84	225.73
863.16	225.76
863.47	225.73
863.78	225.71
864.09	225.72
864.40	225.72
864.71	225.72
865.02	225.73
865.33	225.72
865.64	225.69
865.95	225.69
866.27	225.77
866.58	225.75
866.89	225.77
867.20	225.77
867.51	225.75
867.82	225.74
868.13	225.78
868.44	225.74
868.75	225.77
869.06	225.78
869.37	225.79
869.68	225.75
869.99	225.77
870.30	225.78
870.61	225.79
870.92	225.77
871.23	225.76
871.54	225.77
871.85	225.80
872.16	225.81
872.47	225.80
872.78	225.73
873.09	225.74
873.40	225.72
873.71	225.73
874.02	225.74
874.33	225.73
874.64	225.69
874.95	225.72
875.26	225.69
875.56	225.68
875.87	225.68
876.18	225.67
876.49	225.80
876.80	225.78
877.11	225.76
877.42	225.77
877.73	225.77
878.04	225.75
878.35	225.74
878.66	225.74
878.96	225.74
879.27	225.73
879.58	225.73
879.89	225.72
880.20	225.75
880.51	225.75
880.82	225.75
881.12	225.75
881.43	225.73
881.74	225.71
882.05	225.70
882.36	225.71
882.67	225.72
882.97	225.58
883.28	225.57
883.59	225.57
883.90	225.58
884.21	225.60
884.51	225.59
884.82	225.57
885.13	225.57
885.44	225.57
885.74	225.57
886.05	225.56
886.36	225.56
886.67	225.51
886.98	225.58
887.28	225.59
887.59	225.59
887.90	225.59
888.20	225.59
888.51	225.61
888.82	225.59
889.13	225.60
889.43	225.71
889.74	225.71
890.05	225.71
890.35	225.70
890.66	225.67
890.97	225.66
891.28	225.65
891.58	225.65
891.89	225.65
892.20	225.64
892.50	225.63
892.81	225.62
893.12	225.62
893.42	225.55
893.73	225.55
894.04	225.55
894.34	225.56
894.65	225.56
894.95	225.55
895.26	225.56
895.57	225.61
895.87	225.48
896.18	225.50
896.48	225.51
896.79	225.51
897.10	225.53
897.40	225.54
897.71	225.55
898.01	225.54
898.32	225.55
898.63	225.56
898.93	225.57
899.24	225.57
899.54	225.56
899.85	225.56
900.15	225.55
900.46	225.55
900.76	225.56
901.07	225.55
901.38	225.55
901.68	225.56
901.99	225.49
902.29	225.51
902.60	225.49
902.90	225.48
903.21	225.47
903.51	225.46
903.82	225.49
904.12	225.49
904.43	225.49
904.73	225.49
905.03	225.49
905.34	225.61
905.64	225.60
905.95	225.61
906.25	225.61
906.56	225.61
906.86	225.60
907.17	225.59
907.47	225.60
907.77	225.59
908.08	225.56
908.38	225.57
908.69	225.57
908.99	225.59
909.30	225.60
909.60	225.60
909.90	225.61
910.21	225.57
910.51	225.55
910.81	225.55
911.12	225.55
911.42	225.55
911.73	225.42
912.03	225.43
912.33	225.45
912.64	225.44
912.94	225.43
913.24	225.41
913.55	225.40
913.85	225.39
914.15	225.42
914.46	225.43
914.76	225.42
915.06	225.42
915.37	225.39
915.67	225.38
915.97	225.38
916.27	225.36
916.58	225.36
916.88	225.36
917.18	225.35
917.49	225.43
917.79	225.43
918.09	225.45
918.39	225.48
918.70	225.47
919.00	225.48
919.30	225.54
919.60	225.53
919.91	225.52
920.21	225.53
920.51	225.50
920.81	225.49
921.12	225.51
921.42	225.51
921.72	225.52
922.02	225.53
922.32	225.55
922.63	225.55
922.93	225.62
923.23	225.63
923.53	225.62
923.83	225.54
924.13	225.55
924.44	225.55
924.74	225.56
925.04	225.58
925.34	225.58
925.64	225.53
925.94	225.53
926.24	225.60
926.55	225.59
926.85	225.60
927.15	225.60
927.45	225.60
927.75	225.59
928.05	225.59
928.35	225.58
928.65	225.60
928.95	225.61
929.26	225.55
929.56	225.57
929.86	225.59
930.16	225.58
930.46	225.57
930.76	225.57
931.06	225.52
931.36	225.48
931.66	225.51
931.96	225.52
932.26	225.53
932.56	225.47
932.86	225.48
933.16	225.48
933.46	225.47
933.76	225.45
934.06	225.47
934.36	225.51
934.66	225.51
934.96	225.49
935.26	225.49
935.56	225.51
935.86	225.47
936.16	225.45
936.46	225.44
936.76	225.44
937.06	225.42
937.36	225.43
937.66	225.43
937.96	225.42
938.26	225.39
938.56	225.38
938.86	225.39
939.16	225.42
939.46	225.42
939.76	225.43
940.06	225.44
940.35	225.41
940.65	225.35
940.95	225.36
941.25	225.33
941.55	225.31
941.85	225.30
942.15	225.33
942.45	225.37
942.75	225.37
943.04	225.37
943.34	225.40
943.64	225.38
943.94	225.37
944.24	225.37
944.54	225.38
944.84	225.37
945.13	225.36
945.43	225.33
945.73	225.33
946.03	225.31
946.33	225.30
946.62	225.29
946.92	225.29
947.22	225.30
947.52	225.31
947.82	225.32
948.11	225.31
948.41	225.28
948.71	225.24
949.01	225.25
949.31	225.23
949.60	225.22
949.90	225.24
950.20	225.23
950.50	225.23
950.79	225.22
951.09	225.24
951.39	225.23
951.69	225.22
951.98	225.24
952.28	225.25
952.58	225.25
952.87	225.25
953.17	225.27
953.47	225.25
953.76	225.25
954.06	225.22
954.36	225.21
954.66	225.21
954.95	225.25
955.25	225.26
955.55	225.27
955.84	225.25
956.14	225.26
956.44	225.27
956.73	225.25
957.03	225.26
957.32	225.26
957.62	225.25
957.92	225.28
958.21	225.26
958.51	225.41
958.81	225.43
959.10	225.44
959.40	225.46
959.69	225.47
959.99	225.49
960.29	225.50
960.58	225.49
960.88	225.54
961.17	225.52
961.47	225.54
961.76	225.52
962.06	225.54
962.36	225.53
962.65	225.53
962.95	225.54
963.24	225.53
963.54	225.53
963.83	225.54
964.13	225.53
964.42	225.51
964.72	225.40
965.01	225.40
965.31	225.39
965.60	225.36
965.90	225.44
966.19	225.41
966.49	225.41
966.78	225.41
967.08	225.40
967.37	225.40
967.67	225.38
967.96	225.40
968.26	225.39
968.55	225.41
968.85	225.41
969.14	225.41
969.43	225.40
969.73	225.39
970.02	225.39
970.32	225.38
970.61	225.36
970.91	225.33
971.20	225.31
971.49	225.30
971.79	225.31
972.08	225.22
972.38	225.23
972.67	225.22
972.96	225.24
973.26	225.21
973.55	225.25
973.85	225.24
974.14	225.23
974.43	225.24
974.73	225.21
975.02	225.20
975.31	225.20
975.61	225.20
975.90	225.19
976.19	225.18
976.49	225.19
976.78	225.20
977.07	225.20
977.37	225.21
977.66	225.22
977.95	225.20
978.24	225.21
978.54	225.24
978.83	225.23
979.12	225.22
979.42	225.22
979.71	225.19
980.00	225.19
980.29	225.20
980.59	225.18
980.88	225.21
981.17	225.21
981.46	225.21
981.76	225.21
982.05	225.25
982.34	225.27
982.63	225.26
982.93	225.26
983.22	225.30
983.51	225.30
983.80	225.32
984.09	225.34
984.39	225.33
984.68	225.31
984.97	225.32
985.26	225.31
985.55	225.32
985.85	225.29
986.14	225.31
986.43	225.33
986.72	225.32
987.01	225.28
987.30	225.28
987.59	225.27
987.89	225.28
988.18	225.23
988.47	225.22
988.76	225.21
989.05	225.20
989.34	225.18
989.63	225.21
989.92	225.18
990.22	225.17
990.51	225.16
990.80	225.16
991.09	225.16
991.38	225.19
991.67	225.17
991.96	225.16
992.25	225.17
992.54	225.14
992.83	225.14
993.12	225.14
993.41	225.16
993.70	225.21
993.99	225.23
994.28	225.25
994.58	225.27
994.87	225.26
995.16	225.26
995.45	225.25
995.74	225.21
996.03	225.23
996.32	225.25
996.61	225.28
996.90	225.28
997.19	225.27
997.48	225.26
997.77	225.25
998.06	225.26
998.34	225.25
998.63	225.25
998.92	225.26
999.21	225.28
999.50	225.28
999.79	225.23
1000.08	225.23
1000.37	225.23
1000.66	225.21
1000.95	225.25
1001.24	225.26
1001.53	225.27
1001.82	225.27
1002.11	225.24
1002.40	225.25
1002.68	225.27
1002.97	225.36
1003.26	225.35
1003.55	225.33
1003.84	225.34
1004.13	225.38
1004.42	225.37
1004.71	225.38
1004.99	225.37
1005.28	225.39
1005.57	225.38
1005.86	225.37
1006.15	225.36
1006.44	225.34
1006.72	225.35
1007.01	225.33
1007.30	225.33
1007.59	225.32
1007.88	225.32
1008.17	225.33
1008.45	225.30
1008.74	225.24
1009.03	225.19
1009.32	225.20
1009.60	225.20
1009.89	225.19
1010.18	225.14
1010.47	225.13
1010.76	225.13
1011.04	225.13
1011.33	225.12
1011.62	225.13
1011.91	225.14
1012.19	225.14
1012.48	225.15
1012.77	225.15
1013.05	225.20
1013.34	225.20
1013.63	225.19
1013.92	225.20
1014.20	225.19
1014.49	225.20
1014.78	225.21
1015.06	225.17
1015.35	225.17
1015.64	225.19
1015.92	225.21
1016.21	225.22
1016.50	225.22
1016.78	225.24
1017.07	225.25
1017.36	225.23
1017.64	225.21
1017.93	225.22
1018.22	225.21
1018.50	225.20
1018.79	225.20
1019.08	225.15
1019.36	225.16
1019.65	225.14
1019.93	225.18
1020.22	225.20
1020.51	225.26
1020.79	225.24
1021.08	224.97
1021.36	224.98
1021.65	225.15
1021.94	225.11
1022.22	225.27
1022.51	224.94
1022.79	225.79
1023.08	225.37
1023.36	226.71
1023.65	224.83
>>>>>End Processed Spectral Data<<<<<
