SpectraSuite Data File
++++++++++++++++++++++++++++++++++++
Date: Thu Oct 01 08:52:20 EDT 2015
User: lab3
Dark Spectrum Present: No
Reference Spectrum Present: No
Number of Sampled Component Spectra: 1
Spectrometers: USB2E7196
Integration Time (usec): 36000 (USB2E7196)
Spectra Averaged: 10000 (USB2E7196)
Boxcar Smoothing: 10 (USB2E7196)
Correct for Electrical Dark: No (USB2E7196)
Strobe/Lamp Enabled: No (USB2E7196)
Correct for Detector Non-linearity: No (USB2E7196)
Correct for Stray Light: No (USB2E7196)
Number of Pixels in Processed Spectrum: 2048
>>>>>Begin Processed Spectral Data<<<<<
339.09	0.00
339.48	211.46
339.86	212.92
340.24	214.26
340.63	215.64
341.01	218.59
341.39	218.38
341.78	219.81
342.16	220.98
342.54	221.38
342.93	209.96
343.31	220.57
343.69	221.11
344.07	221.57
344.46	222.00
344.84	222.39
345.22	222.63
345.60	222.89
345.99	223.08
346.37	223.22
346.75	223.33
347.13	223.41
347.52	223.47
347.90	223.56
348.28	223.60
348.66	223.65
349.05	223.65
349.43	223.71
349.81	223.77
350.19	223.82
350.57	223.89
350.96	223.98
351.34	224.07
351.72	224.16
352.10	224.27
352.48	224.34
352.87	224.40
353.25	224.47
353.63	224.53
354.01	224.59
354.39	224.67
354.77	224.75
355.15	224.85
355.54	224.90
355.92	224.94
356.30	225.02
356.68	225.15
357.06	225.22
357.44	225.27
357.82	225.33
358.20	225.44
358.58	225.50
358.97	225.57
359.35	225.64
359.73	225.72
360.11	225.77
360.49	225.83
360.87	225.89
361.25	225.95
361.63	226.02
362.01	226.07
362.39	226.10
362.77	226.15
363.15	226.17
363.53	226.20
363.91	226.24
364.29	226.26
364.67	226.18
365.05	226.21
365.43	226.24
365.81	226.26
366.19	226.28
366.57	226.33
366.95	226.33
367.33	226.30
367.71	226.30
368.09	226.31
368.47	226.30
368.85	226.29
369.23	226.30
369.61	226.25
369.99	226.26
370.37	226.26
370.75	226.31
371.13	226.28
371.51	226.24
371.89	226.22
372.27	226.19
372.65	226.17
373.03	226.13
373.41	226.09
373.78	226.04
374.16	225.95
374.54	225.87
374.92	225.82
375.30	225.78
375.68	225.72
376.06	225.67
376.44	225.61
376.82	225.57
377.19	225.52
377.57	225.46
377.95	225.38
378.33	225.31
378.71	225.17
379.09	225.12
379.47	225.09
379.84	225.02
380.22	224.96
380.60	224.88
380.98	224.83
381.36	224.78
381.73	224.72
382.11	224.69
382.49	224.65
382.87	224.59
383.25	224.54
383.62	224.60
384.00	224.54
384.38	224.50
384.76	224.47
385.13	224.46
385.51	224.42
385.89	224.37
386.27	224.34
386.64	224.32
387.02	224.27
387.40	224.22
387.78	224.20
388.15	224.17
388.53	224.14
388.91	224.11
389.29	224.07
389.66	224.06
390.04	224.02
390.42	224.02
390.79	224.00
391.17	223.98
391.55	223.85
391.92	223.84
392.30	223.84
392.68	223.81
393.05	223.79
393.43	223.79
393.81	223.79
394.18	223.78
394.56	223.77
394.94	223.80
395.31	223.80
395.69	223.84
396.06	223.86
396.44	223.88
396.82	223.90
397.19	223.98
397.57	223.99
397.95	224.03
398.32	224.03
398.70	224.08
399.07	224.13
399.45	224.17
399.82	224.21
400.20	224.24
400.58	224.30
400.95	224.32
401.33	224.40
401.70	224.53
402.08	224.62
402.45	224.70
402.83	224.81
403.20	224.91
403.58	224.99
403.95	225.12
404.33	225.26
404.71	225.39
405.08	225.57
405.46	225.72
405.83	225.88
406.21	226.06
406.58	226.25
406.96	226.44
407.33	226.66
407.70	226.91
408.08	227.24
408.45	227.53
408.83	227.85
409.20	228.14
409.58	228.39
409.95	228.75
410.33	229.14
410.70	229.50
411.08	229.92
411.45	230.38
411.82	230.83
412.20	231.35
412.57	231.97
412.95	232.46
413.32	233.09
413.69	233.74
414.07	234.44
414.44	235.19
414.82	235.96
415.19	236.86
415.56	237.78
415.94	238.73
416.31	239.80
416.68	240.86
417.06	242.10
417.43	243.26
417.81	244.61
418.18	245.97
418.55	247.47
418.93	249.02
419.30	250.65
419.67	252.38
420.04	254.15
420.42	256.01
420.79	258.16
421.16	260.32
421.54	262.52
421.91	264.82
422.28	267.22
422.66	269.79
423.03	272.25
423.40	274.83
423.77	277.60
424.15	280.43
424.52	283.36
424.89	286.55
425.26	289.71
425.64	292.65
426.01	295.95
426.38	299.32
426.75	302.79
427.13	306.35
427.50	310.06
427.87	313.92
428.24	317.82
428.61	321.54
428.99	325.55
429.36	329.96
429.73	334.17
430.10	338.36
430.47	342.63
430.85	347.03
431.22	351.71
431.59	356.52
431.96	361.21
432.33	366.40
432.70	371.32
433.08	377.15
433.45	382.64
433.82	388.04
434.19	394.07
434.56	400.00
434.93	405.72
435.30	411.37
435.68	417.74
436.05	423.97
436.42	430.20
436.79	435.87
437.16	441.99
437.53	448.56
437.90	455.13
438.27	461.54
438.64	468.52
439.01	474.82
439.38	480.59
439.75	486.16
440.13	492.52
440.50	498.59
440.87	503.37
441.24	508.64
441.61	514.45
441.98	518.72
442.35	523.81
442.72	529.03
443.09	534.02
443.46	537.27
443.83	539.69
444.20	541.75
444.57	544.75
444.94	546.57
445.31	548.45
445.68	550.13
446.05	551.42
446.42	551.34
446.79	551.16
447.16	551.03
447.53	550.95
447.90	549.16
448.27	547.49
448.64	544.78
449.01	543.01
449.37	539.09
449.74	535.52
450.11	530.91
450.48	525.82
450.85	520.70
451.22	516.36
451.59	512.10
451.96	508.23
452.33	502.52
452.70	497.44
453.07	491.22
453.43	485.00
453.80	478.96
454.17	473.17
454.54	467.80
454.91	461.70
455.28	455.98
455.65	450.58
456.02	444.80
456.38	440.15
456.75	434.16
457.12	429.32
457.49	424.43
457.86	419.77
458.23	415.67
458.59	411.15
458.96	406.49
459.33	402.38
459.70	398.20
460.07	395.01
460.43	391.26
460.80	387.75
461.17	384.64
461.54	381.30
461.91	378.19
462.27	375.01
462.64	372.42
463.01	369.44
463.38	366.44
463.74	363.74
464.11	361.34
464.48	359.15
464.85	356.82
465.21	355.03
465.58	353.05
465.95	350.78
466.32	348.96
466.68	347.19
467.05	345.41
467.42	343.69
467.78	341.83
468.15	340.11
468.52	338.85
468.88	337.19
469.25	335.68
469.62	334.47
469.98	333.16
470.35	332.00
470.72	330.95
471.08	329.89
471.45	329.02
471.82	328.04
472.18	327.04
472.55	326.38
472.92	325.58
473.28	324.96
473.65	324.32
474.02	323.70
474.38	323.20
474.75	322.93
475.11	322.53
475.48	322.38
475.85	322.23
476.21	322.20
476.58	322.21
476.94	322.41
477.31	322.55
477.67	322.72
478.04	322.99
478.41	323.34
478.77	323.82
479.14	324.16
479.50	324.74
479.87	325.44
480.23	326.16
480.60	326.84
480.96	327.56
481.33	328.54
481.69	329.52
482.06	330.49
482.42	331.41
482.79	332.50
483.15	333.76
483.52	335.16
483.88	336.52
484.25	337.97
484.61	339.47
484.98	341.09
485.34	342.91
485.71	344.80
486.07	346.80
486.44	348.80
486.80	351.02
487.17	353.29
487.53	355.79
487.90	358.39
488.26	361.20
488.62	364.17
488.99	367.14
489.35	370.25
489.72	373.60
490.08	377.13
490.44	380.76
490.81	384.54
491.17	388.43
491.54	392.57
491.90	396.81
492.26	401.40
492.63	406.22
492.99	411.23
493.36	416.35
493.72	421.76
494.08	427.30
494.45	433.16
494.81	439.23
495.17	445.43
495.54	451.98
495.90	458.84
496.26	465.84
496.63	473.09
496.99	480.63
497.35	488.54
497.72	496.75
498.08	505.11
498.44	513.74
498.80	522.94
499.17	532.36
499.53	542.13
499.89	552.10
500.26	562.27
500.62	572.73
500.98	583.87
501.34	595.17
501.71	607.01
502.07	619.08
502.43	631.55
502.79	644.35
503.16	657.56
503.52	670.96
503.88	684.76
504.24	698.97
504.60	713.45
504.97	728.34
505.33	743.62
505.69	759.84
506.05	776.24
506.41	792.64
506.78	809.35
507.14	826.54
507.50	844.33
507.86	862.50
508.22	880.97
508.59	899.48
508.95	918.69
509.31	938.34
509.67	958.71
510.03	979.27
510.39	1000.05
510.75	1021.07
511.12	1042.42
511.48	1064.03
511.84	1085.78
512.20	1107.85
512.56	1131.04
512.92	1154.36
513.28	1177.39
513.64	1200.77
514.00	1224.57
514.37	1248.67
514.73	1272.84
515.09	1296.80
515.45	1321.20
515.81	1346.14
516.17	1371.09
516.53	1395.73
516.89	1420.42
517.25	1445.31
517.61	1470.37
517.97	1495.67
518.33	1520.70
518.69	1545.82
519.05	1571.23
519.41	1596.75
519.77	1622.52
520.13	1647.48
520.49	1672.64
520.85	1698.03
521.21	1723.28
521.57	1749.12
521.93	1774.27
522.29	1800.19
522.65	1825.86
523.01	1851.29
523.37	1875.96
523.73	1901.30
524.09	1926.85
524.45	1952.29
524.81	1977.20
525.17	2002.02
525.53	2026.34
525.89	2050.70
526.25	2075.28
526.61	2099.36
526.97	2123.66
527.33	2147.93
527.68	2171.95
528.04	2195.20
528.40	2218.24
528.76	2241.48
529.12	2263.65
529.48	2286.18
529.84	2306.86
530.20	2328.10
530.56	2348.96
530.91	2369.93
531.27	2390.40
531.63	2410.14
531.99	2429.34
532.35	2448.23
532.71	2467.21
533.07	2486.73
533.42	2504.81
533.78	2523.18
534.14	2541.54
534.50	2559.07
534.86	2577.20
535.21	2593.49
535.57	2609.60
535.93	2625.14
536.29	2639.38
536.65	2654.53
537.00	2668.52
537.36	2683.06
537.72	2696.54
538.08	2709.59
538.44	2721.54
538.79	2733.63
539.15	2744.09
539.51	2754.51
539.87	2764.56
540.22	2772.43
540.58	2780.52
540.94	2789.03
541.29	2796.12
541.65	2802.15
542.01	2807.68
542.37	2811.37
542.72	2817.08
543.08	2822.23
543.44	2827.11
543.79	2831.28
544.15	2834.41
544.51	2837.58
544.87	2839.83
545.22	2841.70
545.58	2842.71
545.94	2844.18
546.29	2844.13
546.65	2844.12
547.01	2844.28
547.36	2844.48
547.72	2844.86
548.07	2843.75
548.43	2842.02
548.79	2839.63
549.14	2837.23
549.50	2835.62
549.86	2832.89
550.21	2827.83
550.57	2823.18
550.92	2817.21
551.28	2811.84
551.64	2806.48
551.99	2801.41
552.35	2795.95
552.70	2790.05
553.06	2784.88
553.41	2779.19
553.77	2772.97
554.13	2767.58
554.48	2761.05
554.84	2752.98
555.19	2745.10
555.55	2736.67
555.90	2728.87
556.26	2722.01
556.61	2714.52
556.97	2704.75
557.32	2696.00
557.68	2687.56
558.03	2678.58
558.39	2670.29
558.74	2662.03
559.10	2652.59
559.45	2642.76
559.81	2633.37
560.16	2623.22
560.52	2612.69
560.87	2603.21
561.23	2593.25
561.58	2582.77
561.94	2572.09
562.29	2560.91
562.64	2550.40
563.00	2540.17
563.35	2529.80
563.71	2518.51
564.06	2506.75
564.42	2496.00
564.77	2484.91
565.12	2473.91
565.48	2462.68
565.83	2452.05
566.19	2441.49
566.54	2430.43
566.89	2418.63
567.25	2406.70
567.60	2395.62
567.96	2384.12
568.31	2371.12
568.66	2358.21
569.02	2346.35
569.37	2334.19
569.72	2322.58
570.08	2310.27
570.43	2297.42
570.78	2284.21
571.14	2270.83
571.49	2258.26
571.84	2245.96
572.20	2232.38
572.55	2219.21
572.90	2205.90
573.26	2191.58
573.61	2176.74
573.96	2162.32
574.31	2148.20
574.67	2134.27
575.02	2119.99
575.37	2105.19
575.72	2090.72
576.08	2076.80
576.43	2061.86
576.78	2047.09
577.13	2033.11
577.49	2019.03
577.84	2005.37
578.19	1990.89
578.54	1976.10
578.90	1960.76
579.25	1945.19
579.60	1931.02
579.95	1916.43
580.30	1901.91
580.66	1887.75
581.01	1873.23
581.36	1858.99
581.71	1845.35
582.06	1831.18
582.42	1817.09
582.77	1803.78
583.12	1790.09
583.47	1776.49
583.82	1763.03
584.17	1749.43
584.53	1735.65
584.88	1721.94
585.23	1707.80
585.58	1694.22
585.93	1681.08
586.28	1668.80
586.63	1656.25
586.98	1643.05
587.34	1630.06
587.69	1616.60
588.04	1603.42
588.39	1590.87
588.74	1577.85
589.09	1564.54
589.44	1551.26
589.79	1538.49
590.14	1525.64
590.49	1513.01
590.84	1500.23
591.19	1488.05
591.54	1475.37
591.89	1462.58
592.25	1450.09
592.60	1437.31
592.95	1425.06
593.30	1413.08
593.65	1400.85
594.00	1388.89
594.35	1377.65
594.70	1365.71
595.05	1354.81
595.40	1343.64
595.75	1331.94
596.10	1321.06
596.45	1310.39
596.80	1300.18
597.15	1289.77
597.50	1279.32
597.85	1269.09
598.19	1259.04
598.54	1248.39
598.89	1238.53
599.24	1228.94
599.59	1219.17
599.94	1210.41
600.29	1201.48
600.64	1192.33
600.99	1182.60
601.34	1173.33
601.69	1163.52
602.04	1154.72
602.39	1145.77
602.74	1137.07
603.08	1128.60
603.43	1119.63
603.78	1110.62
604.13	1101.72
604.48	1092.76
604.83	1084.06
605.18	1075.27
605.53	1066.42
605.87	1057.71
606.22	1049.23
606.57	1040.50
606.92	1031.87
607.27	1023.08
607.62	1014.43
607.96	1005.92
608.31	998.43
608.66	990.51
609.01	983.01
609.36	975.47
609.70	967.67
610.05	959.74
610.40	952.15
610.75	944.65
611.10	937.41
611.44	929.82
611.79	922.50
612.14	914.83
612.49	907.33
612.83	900.28
613.18	893.26
613.53	886.05
613.88	878.96
614.22	872.44
614.57	865.73
614.92	859.02
615.27	852.36
615.61	845.55
615.96	838.94
616.31	832.27
616.65	825.48
617.00	818.96
617.35	812.60
617.70	806.24
618.04	799.97
618.39	793.69
618.74	787.75
619.08	781.66
619.43	775.80
619.78	769.94
620.12	763.91
620.47	758.06
620.82	752.33
621.16	746.87
621.51	741.06
621.85	735.26
622.20	729.51
622.55	723.93
622.89	718.29
623.24	712.72
623.59	707.20
623.93	701.75
624.28	696.44
624.62	691.09
624.97	685.75
625.32	680.50
625.66	675.12
626.01	669.72
626.35	664.47
626.70	659.27
627.04	654.27
627.39	649.31
627.73	644.48
628.08	639.84
628.43	635.08
628.77	630.37
629.12	625.82
629.46	621.42
629.81	616.82
630.15	612.14
630.50	607.63
630.84	603.32
631.19	599.17
631.53	595.05
631.88	590.84
632.22	586.72
632.57	582.84
632.91	578.90
633.26	575.05
633.60	571.26
633.95	567.56
634.29	563.74
634.64	559.88
634.98	555.94
635.32	552.14
635.67	548.48
636.01	544.78
636.36	541.11
636.70	537.59
637.05	534.07
637.39	530.76
637.73	527.30
638.08	523.89
638.42	520.45
638.77	516.89
639.11	513.32
639.45	509.82
639.80	506.30
640.14	502.98
640.49	499.61
640.83	496.10
641.17	492.68
641.52	489.40
641.86	486.11
642.20	482.99
642.55	479.71
642.89	476.54
643.23	473.55
643.58	470.79
643.92	467.91
644.26	465.05
644.61	462.17
644.95	459.31
645.29	456.40
645.64	453.47
645.98	450.69
646.32	448.06
646.66	445.43
647.01	442.79
647.35	440.17
647.69	437.47
648.04	434.94
648.38	432.41
648.72	429.85
649.06	427.37
649.41	424.89
649.75	422.42
650.09	419.98
650.43	417.54
650.78	415.08
651.12	412.60
651.46	410.24
651.80	407.97
652.14	405.78
652.49	403.57
652.83	401.44
653.17	399.28
653.51	397.19
653.85	395.17
654.20	393.08
654.54	390.92
654.88	388.96
655.22	387.04
655.56	385.08
655.90	383.21
656.25	381.35
656.59	379.50
656.93	377.76
657.27	376.04
657.61	374.22
657.95	372.47
658.29	370.73
658.64	369.01
658.98	367.29
659.32	365.57
659.66	363.97
660.00	362.38
660.34	360.81
660.68	359.20
661.02	357.52
661.36	355.96
661.70	354.47
662.05	352.94
662.39	351.40
662.73	349.97
663.07	348.55
663.41	347.16
663.75	345.78
664.09	344.40
664.43	342.95
664.77	341.60
665.11	340.19
665.45	338.87
665.79	337.54
666.13	336.19
666.47	334.84
666.81	333.46
667.15	332.05
667.49	330.74
667.83	329.47
668.17	328.25
668.51	327.05
668.85	325.85
669.19	324.74
669.53	323.55
669.87	322.34
670.21	321.16
670.55	319.99
670.89	318.90
671.23	317.78
671.57	316.68
671.91	315.62
672.25	314.62
672.58	313.60
672.92	312.57
673.26	311.60
673.60	310.63
673.94	309.65
674.28	308.74
674.62	307.81
674.96	306.86
675.30	305.95
675.64	305.01
675.97	304.11
676.31	303.16
676.65	302.24
676.99	301.38
677.33	300.48
677.67	299.61
678.01	298.67
678.34	297.80
678.68	296.98
679.02	296.14
679.36	295.29
679.70	294.46
680.04	293.66
680.37	292.84
680.71	292.06
681.05	291.33
681.39	290.55
681.73	289.73
682.06	288.96
682.40	288.20
682.74	287.47
683.08	286.76
683.42	286.03
683.75	285.37
684.09	284.63
684.43	283.94
684.77	283.23
685.10	282.58
685.44	281.91
685.78	281.22
686.12	280.58
686.45	279.92
686.79	279.26
687.13	278.63
687.46	277.97
687.80	277.33
688.14	276.65
688.48	276.04
688.81	275.42
689.15	274.85
689.49	274.24
689.82	273.65
690.16	273.00
690.50	272.41
690.83	271.82
691.17	271.25
691.51	270.69
691.84	270.15
692.18	269.58
692.52	269.00
692.85	268.44
693.19	267.92
693.52	267.38
693.86	266.85
694.20	266.32
694.53	265.83
694.87	265.32
695.21	264.83
695.54	264.34
695.88	263.84
696.21	263.30
696.55	262.82
696.88	262.33
697.22	261.87
697.56	261.40
697.89	260.88
698.23	260.40
698.56	259.90
698.90	259.45
699.23	258.99
699.57	258.57
699.90	258.12
700.24	257.65
700.58	257.23
700.91	256.83
701.25	256.51
701.58	256.14
701.92	255.76
702.25	255.37
702.59	254.96
702.92	254.58
703.26	254.20
703.59	253.82
703.93	253.53
704.26	253.17
704.60	252.81
704.93	252.47
705.26	252.11
705.60	251.80
705.93	251.44
706.27	251.14
706.60	250.83
706.94	250.53
707.27	250.18
707.61	249.84
707.94	249.49
708.27	249.08
708.61	248.72
708.94	248.38
709.28	248.06
709.61	247.75
709.94	247.47
710.28	247.18
710.61	246.91
710.95	246.54
711.28	246.33
711.61	246.05
711.95	245.81
712.28	245.54
712.61	245.25
712.95	245.05
713.28	244.83
713.61	244.57
713.95	244.30
714.28	244.07
714.61	243.82
714.95	243.59
715.28	243.34
715.61	243.11
715.95	242.89
716.28	242.67
716.61	242.47
716.95	242.24
717.28	242.02
717.61	241.80
717.94	241.59
718.28	241.30
718.61	241.10
718.94	240.86
719.27	240.67
719.61	240.48
719.94	240.26
720.27	240.01
720.60	239.81
720.94	239.62
721.27	239.44
721.60	239.28
721.93	239.10
722.27	238.96
722.60	238.80
722.93	238.61
723.26	238.44
723.59	238.25
723.93	238.09
724.26	237.94
724.59	237.78
724.92	237.62
725.25	237.50
725.59	237.35
725.92	237.22
726.25	237.07
726.58	236.92
726.91	236.77
727.24	236.64
727.57	236.50
727.91	236.34
728.24	236.21
728.57	236.06
728.90	235.94
729.23	235.77
729.56	235.68
729.89	235.54
730.22	235.40
730.55	235.27
730.89	235.14
731.22	235.01
731.55	234.88
731.88	234.75
732.21	234.61
732.54	234.49
732.87	234.36
733.20	234.25
733.53	234.14
733.86	234.04
734.19	233.91
734.52	233.82
734.85	233.78
735.18	233.65
735.51	233.57
735.84	233.46
736.17	233.39
736.50	233.23
736.83	233.25
737.16	233.16
737.49	233.07
737.82	232.97
738.15	232.89
738.48	232.79
738.81	232.69
739.14	232.58
739.47	232.48
739.80	232.38
740.13	232.29
740.46	232.19
740.79	232.08
741.12	231.99
741.45	231.88
741.78	231.74
742.11	231.68
742.44	231.57
742.77	231.49
743.10	231.39
743.43	231.30
743.75	231.11
744.08	231.18
744.41	231.09
744.74	231.00
745.07	230.90
745.40	230.83
745.73	230.80
746.06	230.73
746.39	230.68
746.71	230.59
747.04	230.51
747.37	230.44
747.70	230.38
748.03	230.32
748.36	230.27
748.68	230.19
749.01	230.09
749.34	230.02
749.67	229.96
750.00	229.90
750.33	229.91
750.65	229.86
750.98	229.65
751.31	229.59
751.64	229.53
751.97	229.53
752.29	229.45
752.62	229.34
752.95	229.27
753.28	229.19
753.60	229.13
753.93	229.09
754.26	229.04
754.59	228.94
754.91	228.87
755.24	228.79
755.57	228.78
755.90	228.72
756.22	228.65
756.55	228.58
756.88	228.50
757.20	228.37
757.53	228.29
757.86	228.23
758.19	228.18
758.51	228.13
758.84	228.03
759.17	227.97
759.49	227.93
759.82	227.93
760.15	227.89
760.47	227.84
760.80	227.77
761.13	227.74
761.45	227.69
761.78	227.65
762.11	227.61
762.43	227.51
762.76	227.47
763.08	227.44
763.41	227.40
763.74	227.36
764.06	227.32
764.39	227.28
764.71	227.24
765.04	227.18
765.37	227.13
765.69	227.09
766.02	227.05
766.34	227.00
766.67	226.92
767.00	226.90
767.32	226.91
767.65	226.94
767.97	226.89
768.30	226.86
768.62	226.82
768.95	226.77
769.27	226.73
769.60	226.71
769.92	226.66
770.25	226.61
770.57	226.56
770.90	226.53
771.22	226.49
771.55	226.46
771.87	226.43
772.20	226.40
772.52	226.45
772.85	226.54
773.17	226.52
773.50	226.48
773.82	226.43
774.15	226.35
774.47	226.26
774.80	226.22
775.12	226.19
775.45	226.16
775.77	226.14
776.09	226.12
776.42	226.09
776.74	226.10
777.07	226.07
777.39	226.05
777.72	226.01
778.04	226.00
778.36	225.97
778.69	225.95
779.01	225.93
779.33	225.82
779.66	225.68
779.98	225.65
780.31	225.64
780.63	225.66
780.95	225.65
781.28	225.63
781.60	225.61
781.92	225.59
782.25	225.57
782.57	225.55
782.89	225.52
783.22	225.49
783.54	225.45
783.86	225.44
784.19	225.42
784.51	225.43
784.83	225.40
785.16	225.38
785.48	225.36
785.80	225.34
786.12	225.33
786.45	225.31
786.77	225.31
787.09	225.29
787.42	225.23
787.74	225.22
788.06	225.21
788.38	225.19
788.71	225.17
789.03	225.16
789.35	225.16
789.67	225.13
789.99	225.13
790.32	225.10
790.64	225.10
790.96	225.18
791.28	225.14
791.61	225.12
791.93	225.11
792.25	225.09
792.57	225.16
792.89	225.13
793.21	225.12
793.54	225.10
793.86	225.07
794.18	225.07
794.50	225.03
794.82	225.01
795.14	225.01
795.47	225.02
795.79	225.01
796.11	224.97
796.43	224.96
796.75	224.95
797.07	224.94
797.39	224.92
797.71	224.83
798.04	224.82
798.36	224.81
798.68	224.79
799.00	224.79
799.32	224.73
799.64	224.73
799.96	224.72
800.28	224.73
800.60	224.71
800.92	224.71
801.24	224.70
801.56	224.70
801.89	224.67
802.21	224.66
802.53	224.64
802.85	224.65
803.17	224.69
803.49	224.66
803.81	224.64
804.13	224.62
804.45	224.60
804.77	224.59
805.09	224.58
805.41	224.57
805.73	224.54
806.05	224.50
806.37	224.49
806.69	224.47
807.01	224.44
807.33	224.45
807.65	224.41
807.97	224.44
808.28	224.42
808.60	224.41
808.92	224.39
809.24	224.45
809.56	224.42
809.88	224.37
810.20	224.37
810.52	224.38
810.84	224.37
811.16	224.35
811.48	224.34
811.80	224.37
812.12	224.36
812.43	224.37
812.75	224.38
813.07	224.36
813.39	224.36
813.71	224.34
814.03	224.32
814.35	224.32
814.67	224.28
814.98	224.26
815.30	224.25
815.62	224.23
815.94	224.15
816.26	224.16
816.58	224.14
816.89	224.14
817.21	224.11
817.53	224.11
817.85	224.12
818.17	224.11
818.48	224.06
818.80	224.08
819.12	224.05
819.44	224.02
819.76	224.00
820.07	224.00
820.39	223.99
820.71	223.99
821.03	223.99
821.34	223.98
821.66	223.98
821.98	223.99
822.30	223.98
822.61	224.04
822.93	224.02
823.25	224.01
823.57	224.00
823.88	224.01
824.20	224.00
824.52	224.01
824.83	224.00
825.15	223.99
825.47	223.97
825.79	223.98
826.10	223.98
826.42	223.98
826.74	223.98
827.05	223.98
827.37	223.98
827.69	223.97
828.00	223.97
828.32	223.97
828.64	223.95
828.95	224.00
829.27	223.96
829.58	223.96
829.90	223.98
830.22	223.98
830.53	223.96
830.85	223.95
831.17	223.92
831.48	223.92
831.80	223.92
832.11	223.91
832.43	223.90
832.75	223.89
833.06	223.95
833.38	223.92
833.69	223.91
834.01	223.91
834.32	223.90
834.64	223.89
834.96	223.88
835.27	223.88
835.59	223.84
835.90	223.83
836.22	223.82
836.53	223.79
836.85	223.78
837.16	223.88
837.48	223.88
837.79	223.92
838.11	223.92
838.42	223.91
838.74	223.92
839.05	223.92
839.37	223.91
839.68	223.84
840.00	223.84
840.31	223.86
840.63	223.85
840.94	223.84
841.26	223.83
841.57	223.83
841.88	223.84
842.20	223.83
842.51	223.81
842.83	223.81
843.14	223.90
843.46	223.90
843.77	223.83
844.08	223.83
844.40	223.79
844.71	223.78
845.03	223.77
845.34	223.76
845.65	223.75
845.97	223.75
846.28	223.76
846.60	223.76
846.91	223.74
847.22	223.74
847.54	223.76
847.85	223.77
848.16	223.75
848.48	223.74
848.79	223.77
849.10	223.78
849.42	223.79
849.73	223.69
850.04	223.69
850.36	223.65
850.67	223.67
850.98	223.67
851.30	223.68
851.61	223.67
851.92	223.67
852.23	223.70
852.55	223.71
852.86	223.71
853.17	223.71
853.49	223.73
853.80	223.75
854.11	223.75
854.42	223.76
854.74	223.76
855.05	223.76
855.36	223.71
855.67	223.70
855.99	223.70
856.30	223.82
856.61	223.82
856.92	223.82
857.23	223.82
857.55	223.80
857.86	223.79
858.17	223.81
858.48	223.80
858.79	223.77
859.11	223.78
859.42	223.77
859.73	223.76
860.04	223.75
860.35	223.72
860.66	223.68
860.98	223.68
861.29	223.69
861.60	223.68
861.91	223.71
862.22	223.69
862.53	223.68
862.84	223.56
863.16	223.58
863.47	223.56
863.78	223.54
864.09	223.55
864.40	223.56
864.71	223.56
865.02	223.57
865.33	223.55
865.64	223.53
865.95	223.53
866.27	223.59
866.58	223.58
866.89	223.59
867.20	223.59
867.51	223.57
867.82	223.57
868.13	223.60
868.44	223.58
868.75	223.59
869.06	223.60
869.37	223.61
869.68	223.58
869.99	223.60
870.30	223.60
870.61	223.61
870.92	223.59
871.23	223.58
871.54	223.59
871.85	223.62
872.16	223.63
872.47	223.62
872.78	223.57
873.09	223.58
873.40	223.57
873.71	223.58
874.02	223.59
874.33	223.58
874.64	223.55
874.95	223.57
875.26	223.55
875.56	223.54
875.87	223.54
876.18	223.54
876.49	223.64
876.80	223.63
877.11	223.61
877.42	223.61
877.73	223.62
878.04	223.60
878.35	223.59
878.66	223.60
878.96	223.59
879.27	223.58
879.58	223.57
879.89	223.57
880.20	223.59
880.51	223.59
880.82	223.59
881.12	223.59
881.43	223.57
881.74	223.56
882.05	223.55
882.36	223.56
882.67	223.57
882.97	223.45
883.28	223.45
883.59	223.44
883.90	223.45
884.21	223.46
884.51	223.46
884.82	223.44
885.13	223.44
885.44	223.44
885.74	223.44
886.05	223.44
886.36	223.44
886.67	223.41
886.98	223.46
887.28	223.47
887.59	223.46
887.90	223.47
888.20	223.47
888.51	223.49
888.82	223.47
889.13	223.47
889.43	223.56
889.74	223.55
890.05	223.56
890.35	223.55
890.66	223.53
890.97	223.52
891.28	223.51
891.58	223.50
891.89	223.50
892.20	223.49
892.50	223.48
892.81	223.47
893.12	223.47
893.42	223.42
893.73	223.42
894.04	223.42
894.34	223.42
894.65	223.42
894.95	223.41
895.26	223.42
895.57	223.46
895.87	223.35
896.18	223.37
896.48	223.37
896.79	223.37
897.10	223.39
897.40	223.39
897.71	223.40
898.01	223.39
898.32	223.40
898.63	223.40
898.93	223.41
899.24	223.41
899.54	223.41
899.85	223.40
900.15	223.39
900.46	223.39
900.76	223.40
901.07	223.40
901.38	223.39
901.68	223.40
901.99	223.35
902.29	223.36
902.60	223.35
902.90	223.34
903.21	223.34
903.51	223.33
903.82	223.35
904.12	223.35
904.43	223.36
904.73	223.35
905.03	223.35
905.34	223.45
905.64	223.45
905.95	223.45
906.25	223.45
906.56	223.45
906.86	223.45
907.17	223.44
907.47	223.45
907.77	223.44
908.08	223.42
908.38	223.43
908.69	223.43
908.99	223.45
909.30	223.46
909.60	223.46
909.90	223.46
910.21	223.43
910.51	223.41
910.81	223.41
911.12	223.42
911.42	223.42
911.73	223.31
912.03	223.32
912.33	223.34
912.64	223.33
912.94	223.32
913.24	223.30
913.55	223.29
913.85	223.28
914.15	223.30
914.46	223.31
914.76	223.30
915.06	223.29
915.37	223.27
915.67	223.26
915.97	223.27
916.27	223.24
916.58	223.25
916.88	223.25
917.18	223.25
917.49	223.31
917.79	223.31
918.09	223.32
918.39	223.34
918.70	223.33
919.00	223.34
919.30	223.39
919.60	223.38
919.91	223.38
920.21	223.38
920.51	223.36
920.81	223.35
921.12	223.37
921.42	223.37
921.72	223.38
922.02	223.38
922.32	223.40
922.63	223.41
922.93	223.46
923.23	223.47
923.53	223.46
923.83	223.39
924.13	223.40
924.44	223.40
924.74	223.41
925.04	223.43
925.34	223.43
925.64	223.39
925.94	223.39
926.24	223.44
926.55	223.44
926.85	223.45
927.15	223.44
927.45	223.44
927.75	223.44
928.05	223.44
928.35	223.43
928.65	223.44
928.95	223.44
929.26	223.39
929.56	223.41
929.86	223.42
930.16	223.41
930.46	223.40
930.76	223.40
931.06	223.35
931.36	223.33
931.66	223.35
931.96	223.36
932.26	223.36
932.56	223.32
932.86	223.33
933.16	223.33
933.46	223.32
933.76	223.30
934.06	223.32
934.36	223.36
934.66	223.35
934.96	223.34
935.26	223.34
935.56	223.36
935.86	223.33
936.16	223.31
936.46	223.30
936.76	223.30
937.06	223.28
937.36	223.29
937.66	223.29
937.96	223.28
938.26	223.26
938.56	223.26
938.86	223.26
939.16	223.28
939.46	223.29
939.76	223.30
940.06	223.30
940.35	223.28
940.65	223.22
940.95	223.23
941.25	223.21
941.55	223.19
941.85	223.18
942.15	223.21
942.45	223.23
942.75	223.23
943.04	223.24
943.34	223.26
943.64	223.25
943.94	223.23
944.24	223.23
944.54	223.24
944.84	223.24
945.13	223.22
945.43	223.20
945.73	223.20
946.03	223.19
946.33	223.18
946.62	223.17
946.92	223.17
947.22	223.18
947.52	223.19
947.82	223.20
948.11	223.19
948.41	223.17
948.71	223.14
949.01	223.15
949.31	223.14
949.60	223.13
949.90	223.14
950.20	223.14
950.50	223.14
950.79	223.13
951.09	223.14
951.39	223.14
951.69	223.13
951.98	223.15
952.28	223.16
952.58	223.15
952.87	223.15
953.17	223.17
953.47	223.16
953.76	223.15
954.06	223.13
954.36	223.12
954.66	223.12
954.95	223.16
955.25	223.16
955.55	223.17
955.84	223.15
956.14	223.16
956.44	223.17
956.73	223.15
957.03	223.16
957.32	223.16
957.62	223.15
957.92	223.18
958.21	223.16
958.51	223.28
958.81	223.29
959.10	223.31
959.40	223.32
959.69	223.33
959.99	223.35
960.29	223.35
960.58	223.35
960.88	223.39
961.17	223.37
961.47	223.37
961.76	223.36
962.06	223.38
962.36	223.37
962.65	223.37
962.95	223.39
963.24	223.37
963.54	223.38
963.83	223.39
964.13	223.38
964.42	223.37
964.72	223.27
965.01	223.28
965.31	223.27
965.60	223.24
965.90	223.31
966.19	223.28
966.49	223.29
966.78	223.28
967.08	223.27
967.37	223.27
967.67	223.26
967.96	223.27
968.26	223.27
968.55	223.28
968.85	223.28
969.14	223.27
969.43	223.28
969.73	223.26
970.02	223.26
970.32	223.25
970.61	223.24
970.91	223.21
971.20	223.20
971.49	223.19
971.79	223.21
972.08	223.13
972.38	223.14
972.67	223.14
972.96	223.15
973.26	223.13
973.55	223.16
973.85	223.16
974.14	223.15
974.43	223.16
974.73	223.14
975.02	223.13
975.31	223.13
975.61	223.13
975.90	223.12
976.19	223.12
976.49	223.12
976.78	223.13
977.07	223.13
977.37	223.14
977.66	223.14
977.95	223.13
978.24	223.14
978.54	223.16
978.83	223.15
979.12	223.14
979.42	223.15
979.71	223.12
980.00	223.12
980.29	223.13
980.59	223.11
980.88	223.13
981.17	223.13
981.46	223.13
981.76	223.13
982.05	223.16
982.34	223.17
982.63	223.17
982.93	223.17
983.22	223.19
983.51	223.19
983.80	223.20
984.09	223.22
984.39	223.21
984.68	223.20
984.97	223.20
985.26	223.19
985.55	223.20
985.85	223.18
986.14	223.19
986.43	223.20
986.72	223.20
987.01	223.17
987.30	223.17
987.59	223.17
987.89	223.17
988.18	223.14
988.47	223.13
988.76	223.12
989.05	223.12
989.34	223.10
989.63	223.13
989.92	223.11
990.22	223.09
990.51	223.09
990.80	223.08
991.09	223.09
991.38	223.10
991.67	223.09
991.96	223.08
992.25	223.08
992.54	223.06
992.83	223.06
993.12	223.06
993.41	223.08
993.70	223.12
993.99	223.13
994.28	223.15
994.58	223.16
994.87	223.15
995.16	223.15
995.45	223.14
995.74	223.10
996.03	223.12
996.32	223.13
996.61	223.15
996.90	223.15
997.19	223.14
997.48	223.14
997.77	223.13
998.06	223.14
998.34	223.13
998.63	223.13
998.92	223.13
999.21	223.15
999.50	223.14
999.79	223.10
1000.08	223.10
1000.37	223.10
1000.66	223.08
1000.95	223.10
1001.24	223.10
1001.53	223.12
1001.82	223.12
1002.11	223.10
1002.40	223.10
1002.68	223.12
1002.97	223.20
1003.26	223.19
1003.55	223.17
1003.84	223.18
1004.13	223.21
1004.42	223.21
1004.71	223.21
1004.99	223.21
1005.28	223.23
1005.57	223.23
1005.86	223.22
1006.15	223.21
1006.44	223.20
1006.72	223.21
1007.01	223.19
1007.30	223.20
1007.59	223.19
1007.88	223.18
1008.17	223.19
1008.45	223.17
1008.74	223.13
1009.03	223.08
1009.32	223.08
1009.60	223.09
1009.89	223.07
1010.18	223.03
1010.47	223.02
1010.76	223.02
1011.04	223.02
1011.33	223.01
1011.62	223.02
1011.91	223.03
1012.19	223.03
1012.48	223.04
1012.77	223.04
1013.05	223.07
1013.34	223.07
1013.63	223.06
1013.92	223.07
1014.20	223.06
1014.49	223.07
1014.78	223.08
1015.06	223.04
1015.35	223.04
1015.64	223.06
1015.92	223.08
1016.21	223.09
1016.50	223.09
1016.78	223.10
1017.07	223.11
1017.36	223.09
1017.64	223.08
1017.93	223.09
1018.22	223.08
1018.50	223.07
1018.79	223.07
1019.08	223.03
1019.36	223.04
1019.65	223.03
1019.93	223.06
1020.22	223.08
1020.51	223.13
1020.79	223.12
1021.08	222.95
1021.36	222.87
1021.65	223.06
1021.94	223.03
1022.22	223.14
1022.51	222.88
1022.79	223.54
1023.08	223.21
1023.36	224.27
1023.65	222.84
>>>>>End Processed Spectral Data<<<<<
