SpectraSuite Data File
++++++++++++++++++++++++++++++++++++
Date: Thu Oct 01 07:44:44 EDT 2015
User: lab3
Dark Spectrum Present: No
Reference Spectrum Present: No
Number of Sampled Component Spectra: 1
Spectrometers: USB2E7196
Integration Time (usec): 36000 (USB2E7196)
Spectra Averaged: 10000 (USB2E7196)
Boxcar Smoothing: 10 (USB2E7196)
Correct for Electrical Dark: No (USB2E7196)
Strobe/Lamp Enabled: No (USB2E7196)
Correct for Detector Non-linearity: No (USB2E7196)
Correct for Stray Light: No (USB2E7196)
Number of Pixels in Processed Spectrum: 2048
>>>>>Begin Processed Spectral Data<<<<<
339.09	0.00
339.48	209.84
339.86	211.34
340.24	212.77
340.63	214.14
341.01	217.11
341.39	216.88
341.78	218.20
342.16	219.37
342.54	219.86
342.93	208.48
343.31	219.02
343.69	219.56
344.07	220.02
344.46	220.45
344.84	220.83
345.22	221.07
345.60	221.32
345.99	221.51
346.37	221.65
346.75	221.76
347.13	221.83
347.52	221.89
347.90	221.97
348.28	222.00
348.66	222.06
349.05	222.06
349.43	222.10
349.81	222.16
350.19	222.21
350.57	222.28
350.96	222.36
351.34	222.45
351.72	222.54
352.10	222.65
352.48	222.72
352.87	222.77
353.25	222.84
353.63	222.90
354.01	222.97
354.39	223.05
354.77	223.12
355.15	223.22
355.54	223.28
355.92	223.31
356.30	223.39
356.68	223.53
357.06	223.60
357.44	223.66
357.82	223.72
358.20	223.83
358.58	223.89
358.97	223.95
359.35	224.03
359.73	224.11
360.11	224.16
360.49	224.22
360.87	224.27
361.25	224.33
361.63	224.41
362.01	224.46
362.39	224.49
362.77	224.54
363.15	224.56
363.53	224.60
363.91	224.63
364.29	224.65
364.67	224.58
365.05	224.60
365.43	224.63
365.81	224.66
366.19	224.67
366.57	224.73
366.95	224.73
367.33	224.70
367.71	224.69
368.09	224.71
368.47	224.70
368.85	224.69
369.23	224.70
369.61	224.65
369.99	224.66
370.37	224.66
370.75	224.71
371.13	224.68
371.51	224.64
371.89	224.62
372.27	224.60
372.65	224.57
373.03	224.53
373.41	224.48
373.78	224.44
374.16	224.34
374.54	224.27
374.92	224.22
375.30	224.18
375.68	224.11
376.06	224.07
376.44	224.02
376.82	223.97
377.19	223.92
377.57	223.87
377.95	223.79
378.33	223.72
378.71	223.58
379.09	223.53
379.47	223.50
379.84	223.43
380.22	223.37
380.60	223.30
380.98	223.25
381.36	223.20
381.73	223.14
382.11	223.11
382.49	223.06
382.87	223.00
383.25	222.96
383.62	223.03
384.00	222.97
384.38	222.92
384.76	222.90
385.13	222.89
385.51	222.85
385.89	222.80
386.27	222.77
386.64	222.75
387.02	222.70
387.40	222.66
387.78	222.63
388.15	222.61
388.53	222.58
388.91	222.54
389.29	222.51
389.66	222.50
390.04	222.46
390.42	222.45
390.79	222.43
391.17	222.41
391.55	222.28
391.92	222.27
392.30	222.26
392.68	222.23
393.05	222.20
393.43	222.20
393.81	222.20
394.18	222.18
394.56	222.18
394.94	222.21
395.31	222.21
395.69	222.25
396.06	222.27
396.44	222.28
396.82	222.30
397.19	222.38
397.57	222.39
397.95	222.43
398.32	222.42
398.70	222.47
399.07	222.52
399.45	222.56
399.82	222.60
400.20	222.64
400.58	222.69
400.95	222.71
401.33	222.79
401.70	222.92
402.08	223.01
402.45	223.10
402.83	223.20
403.20	223.30
403.58	223.39
403.95	223.51
404.33	223.65
404.71	223.78
405.08	223.96
405.46	224.10
405.83	224.27
406.21	224.45
406.58	224.64
406.96	224.83
407.33	225.05
407.70	225.30
408.08	225.63
408.45	225.92
408.83	226.23
409.20	226.52
409.58	226.78
409.95	227.14
410.33	227.52
410.70	227.88
411.08	228.31
411.45	228.76
411.82	229.21
412.20	229.73
412.57	230.34
412.95	230.82
413.32	231.45
413.69	232.10
414.07	232.79
414.44	233.54
414.82	234.30
415.19	235.20
415.56	236.11
415.94	237.05
416.31	238.11
416.68	239.17
417.06	240.40
417.43	241.56
417.81	242.88
418.18	244.24
418.55	245.72
418.93	247.26
419.30	248.87
419.67	250.59
420.04	252.35
420.42	254.19
420.79	256.32
421.16	258.47
421.54	260.65
421.91	262.93
422.28	265.29
422.66	267.85
423.03	270.28
423.40	272.84
423.77	275.59
424.15	278.39
424.52	281.32
424.89	284.47
425.26	287.61
425.64	290.52
426.01	293.80
426.38	297.14
426.75	300.58
427.13	304.11
427.50	307.79
427.87	311.62
428.24	315.48
428.61	319.18
428.99	323.15
429.36	327.52
429.73	331.69
430.10	335.85
430.47	340.10
430.85	344.46
431.22	349.10
431.59	353.87
431.96	358.51
432.33	363.65
432.70	368.51
433.08	374.28
433.45	379.71
433.82	385.06
434.19	391.03
434.56	396.91
434.93	402.57
435.30	408.16
435.68	414.48
436.05	420.64
436.42	426.81
436.79	432.44
437.16	438.51
437.53	445.01
437.90	451.51
438.27	457.86
438.64	464.76
439.01	471.02
439.38	476.74
439.75	482.26
440.13	488.58
440.50	494.61
440.87	499.37
441.24	504.61
441.61	510.39
441.98	514.64
442.35	519.70
442.72	524.90
443.09	529.88
443.46	533.13
443.83	535.55
444.20	537.63
444.57	540.62
444.94	542.47
445.31	544.37
445.68	546.08
446.05	547.41
446.42	547.38
446.79	547.25
447.16	547.17
447.53	547.14
447.90	545.41
448.27	543.79
448.64	541.15
449.01	539.45
449.37	535.60
449.74	532.10
450.11	527.57
450.48	522.56
450.85	517.51
451.22	513.23
451.59	509.04
451.96	505.24
452.33	499.61
452.70	494.59
453.07	488.45
453.43	482.29
453.80	476.31
454.17	470.58
454.54	465.25
454.91	459.21
455.28	453.53
455.65	448.16
456.02	442.44
456.38	437.83
456.75	431.88
457.12	427.07
457.49	422.22
457.86	417.58
458.23	413.52
458.59	409.03
458.96	404.40
459.33	400.30
459.70	396.14
460.07	392.96
460.43	389.24
460.80	385.74
461.17	382.65
461.54	379.33
461.91	376.22
462.27	373.06
462.64	370.47
463.01	367.52
463.38	364.54
463.74	361.85
464.11	359.44
464.48	357.26
464.85	354.93
465.21	353.15
465.58	351.19
465.95	348.92
466.32	347.10
466.68	345.33
467.05	343.56
467.42	341.85
467.78	340.00
468.15	338.29
468.52	337.02
468.88	335.37
469.25	333.84
469.62	332.64
469.98	331.33
470.35	330.16
470.72	329.11
471.08	328.05
471.45	327.16
471.82	326.20
472.18	325.19
472.55	324.53
472.92	323.72
473.28	323.09
473.65	322.44
474.02	321.82
474.38	321.32
474.75	321.04
475.11	320.63
475.48	320.47
475.85	320.30
476.21	320.26
476.58	320.27
476.94	320.47
477.31	320.59
477.67	320.76
478.04	321.04
478.41	321.38
478.77	321.85
479.14	322.19
479.50	322.76
479.87	323.45
480.23	324.16
480.60	324.85
480.96	325.55
481.33	326.53
481.69	327.51
482.06	328.48
482.42	329.38
482.79	330.47
483.15	331.72
483.52	333.13
483.88	334.48
484.25	335.92
484.61	337.42
484.98	339.03
485.34	340.83
485.71	342.71
486.07	344.70
486.44	346.69
486.80	348.90
487.17	351.16
487.53	353.65
487.90	356.23
488.26	359.03
488.62	361.98
488.99	364.94
489.35	368.03
489.72	371.37
490.08	374.88
490.44	378.48
490.81	382.24
491.17	386.09
491.54	390.21
491.90	394.42
492.26	398.97
492.63	403.76
492.99	408.75
493.36	413.85
493.72	419.23
494.08	424.74
494.45	430.56
494.81	436.60
495.17	442.76
495.54	449.28
495.90	456.10
496.26	463.06
496.63	470.26
496.99	477.75
497.35	485.61
497.72	493.77
498.08	502.09
498.44	510.68
498.80	519.83
499.17	529.20
499.53	538.93
499.89	548.87
500.26	558.98
500.62	569.38
500.98	580.46
501.34	591.69
501.71	603.46
502.07	615.46
502.43	627.84
502.79	640.58
503.16	653.73
503.52	667.08
503.88	680.79
504.24	694.93
504.60	709.37
504.97	724.20
505.33	739.41
505.69	755.53
506.05	771.85
506.41	788.18
506.78	804.82
507.14	821.93
507.50	839.66
507.86	857.76
508.22	876.14
508.59	894.53
508.95	913.66
509.31	933.20
509.67	953.46
510.03	973.94
510.39	994.62
510.75	1015.55
511.12	1036.76
511.48	1058.34
511.84	1079.96
512.20	1101.89
512.56	1124.94
512.92	1148.21
513.28	1171.19
513.64	1194.48
514.00	1218.18
514.37	1242.24
514.73	1266.27
515.09	1290.13
515.45	1314.41
515.81	1339.26
516.17	1364.19
516.53	1388.76
516.89	1413.38
517.25	1438.20
517.61	1463.20
517.97	1488.40
518.33	1513.32
518.69	1538.38
519.05	1563.68
519.41	1589.12
519.77	1614.84
520.13	1639.73
520.49	1664.78
520.85	1690.05
521.21	1715.26
521.57	1741.04
521.93	1766.08
522.29	1792.01
522.65	1817.62
523.01	1843.00
523.37	1867.68
523.73	1892.91
524.09	1918.34
524.45	1943.72
524.81	1968.60
525.17	1993.38
525.53	2017.73
525.89	2042.07
526.25	2066.61
526.61	2090.60
526.97	2114.88
527.33	2139.09
527.68	2163.19
528.04	2186.37
528.40	2209.42
528.76	2232.63
529.12	2254.79
529.48	2277.31
529.84	2297.95
530.20	2319.21
530.56	2340.15
530.91	2361.08
531.27	2381.54
531.63	2401.34
531.99	2420.62
532.35	2439.49
532.71	2458.47
533.07	2478.06
533.42	2496.08
533.78	2514.57
534.14	2532.99
534.50	2550.58
534.86	2568.78
535.21	2585.06
535.57	2601.36
535.93	2616.83
536.29	2631.16
536.65	2646.27
537.00	2660.28
537.36	2674.82
537.72	2688.23
538.08	2701.36
538.44	2713.34
538.79	2725.51
539.15	2736.04
539.51	2746.52
539.87	2756.68
540.22	2764.74
540.58	2772.80
540.94	2781.51
541.29	2788.55
541.65	2794.68
542.01	2800.30
542.37	2804.01
542.72	2809.63
543.08	2814.75
543.44	2819.78
543.79	2823.90
544.15	2827.23
544.51	2830.49
544.87	2832.85
545.22	2834.81
545.58	2835.82
545.94	2837.27
546.29	2837.24
546.65	2837.41
547.01	2837.53
547.36	2837.81
547.72	2838.23
548.07	2837.20
548.43	2835.49
548.79	2833.14
549.14	2830.86
549.50	2829.13
549.86	2826.71
550.21	2821.76
550.57	2817.24
550.92	2811.31
551.28	2806.00
551.64	2800.56
551.99	2795.57
552.35	2790.17
552.70	2784.33
553.06	2779.20
553.41	2773.61
553.77	2767.54
554.13	2762.02
554.48	2755.71
554.84	2747.67
555.19	2739.76
555.55	2731.31
555.90	2723.43
556.26	2716.62
556.61	2709.15
556.97	2699.53
557.32	2690.69
557.68	2682.39
558.03	2673.38
558.39	2665.08
558.74	2656.96
559.10	2647.54
559.45	2637.82
559.81	2628.43
560.16	2618.43
560.52	2607.88
560.87	2598.35
561.23	2588.48
561.58	2578.10
561.94	2567.44
562.29	2556.32
562.64	2545.82
563.00	2535.69
563.35	2525.44
563.71	2514.29
564.06	2502.53
564.42	2491.85
564.77	2480.78
565.12	2469.83
565.48	2458.61
565.83	2448.00
566.19	2437.42
566.54	2426.57
566.89	2414.72
567.25	2402.87
567.60	2391.84
567.96	2380.43
568.31	2367.60
568.66	2354.63
569.02	2342.75
569.37	2330.65
569.72	2319.06
570.08	2306.75
570.43	2293.88
570.78	2280.75
571.14	2267.36
571.49	2254.84
571.84	2242.58
572.20	2229.01
572.55	2215.84
572.90	2202.58
573.26	2188.49
573.61	2173.82
573.96	2159.35
574.31	2145.30
574.67	2131.45
575.02	2117.16
575.37	2102.44
575.72	2088.02
576.08	2074.23
576.43	2059.41
576.78	2044.61
577.13	2030.67
577.49	2016.78
577.84	2003.24
578.19	1988.87
578.54	1974.12
578.90	1958.85
579.25	1943.34
579.60	1929.23
579.95	1914.73
580.30	1900.27
580.66	1886.10
581.01	1871.53
581.36	1857.32
581.71	1843.67
582.06	1829.58
582.42	1815.48
582.77	1802.20
583.12	1788.60
583.47	1774.97
583.82	1761.51
584.17	1747.93
584.53	1734.15
584.88	1720.38
585.23	1706.30
585.58	1692.72
585.93	1679.61
586.28	1667.31
586.63	1654.86
586.98	1641.68
587.34	1628.76
587.69	1615.31
588.04	1602.07
588.39	1589.56
588.74	1576.59
589.09	1563.32
589.44	1550.00
589.79	1537.29
590.14	1524.40
590.49	1511.74
590.84	1498.99
591.19	1486.88
591.54	1474.25
591.89	1461.49
592.25	1449.09
592.60	1436.27
592.95	1424.01
593.30	1412.01
593.65	1399.82
594.00	1387.80
594.35	1376.62
594.70	1364.59
595.05	1353.68
595.40	1342.63
595.75	1330.94
596.10	1320.03
596.45	1309.33
596.80	1299.12
597.15	1288.69
597.50	1278.28
597.85	1268.04
598.19	1257.99
598.54	1247.33
598.89	1237.43
599.24	1227.86
599.59	1218.04
599.94	1209.24
600.29	1200.32
600.64	1191.19
600.99	1181.48
601.34	1172.25
601.69	1162.41
602.04	1153.65
602.39	1144.68
602.74	1135.96
603.08	1127.51
603.43	1118.56
603.78	1109.52
604.13	1100.62
604.48	1091.66
604.83	1082.95
605.18	1074.14
605.53	1065.29
605.87	1056.57
606.22	1048.13
606.57	1039.38
606.92	1030.73
607.27	1021.98
607.62	1013.31
607.96	1004.81
608.31	997.27
608.66	989.33
609.01	981.81
609.36	974.24
609.70	966.48
610.05	958.55
610.40	950.95
610.75	943.50
611.10	936.30
611.44	928.69
611.79	921.41
612.14	913.76
612.49	906.25
612.83	899.22
613.18	892.23
613.53	885.03
613.88	877.93
614.22	871.41
614.57	864.74
614.92	858.05
615.27	851.38
615.61	844.58
615.96	838.00
616.31	831.35
616.65	824.58
617.00	818.06
617.35	811.68
617.70	805.33
618.04	799.03
618.39	792.77
618.74	786.83
619.08	780.71
619.43	774.86
619.78	769.04
620.12	763.01
620.47	757.16
620.82	751.39
621.16	745.93
621.51	740.13
621.85	734.32
622.20	728.54
622.55	722.95
622.89	717.32
623.24	711.72
623.59	706.20
623.93	700.73
624.28	695.40
624.62	690.07
624.97	684.71
625.32	679.48
625.66	674.11
626.01	668.74
626.35	663.51
626.70	658.30
627.04	653.26
627.39	648.29
627.73	643.43
628.08	638.80
628.43	634.05
628.77	629.35
629.12	624.78
629.46	620.40
629.81	615.85
630.15	611.18
630.50	606.66
630.84	602.33
631.19	598.17
631.53	594.07
631.88	589.84
632.22	585.72
632.57	581.82
632.91	577.89
633.26	574.04
633.60	570.25
633.95	566.55
634.29	562.74
634.64	558.88
634.98	554.93
635.32	551.15
635.67	547.49
636.01	543.79
636.36	540.12
636.70	536.59
637.05	533.05
637.39	529.72
637.73	526.27
638.08	522.87
638.42	519.45
638.77	515.89
639.11	512.35
639.45	508.85
639.80	505.31
640.14	501.96
640.49	498.58
640.83	495.10
641.17	491.66
641.52	488.39
641.86	485.11
642.20	481.97
642.55	478.70
642.89	475.50
643.23	472.51
643.58	469.73
643.92	466.85
644.26	464.00
644.61	461.13
644.95	458.27
645.29	455.36
645.64	452.42
645.98	449.62
646.32	446.97
646.66	444.34
647.01	441.69
647.35	439.08
647.69	436.38
648.04	433.79
648.38	431.26
648.72	428.69
649.06	426.19
649.41	423.71
649.75	421.23
650.09	418.78
650.43	416.33
650.78	413.86
651.12	411.39
651.46	409.01
651.80	406.73
652.14	404.52
652.49	402.31
652.83	400.18
653.17	398.02
653.51	395.92
653.85	393.89
654.20	391.81
654.54	389.64
654.88	387.66
655.22	385.75
655.56	383.80
655.90	381.92
656.25	380.06
656.59	378.22
656.93	376.46
657.27	374.74
657.61	372.93
657.95	371.18
658.29	369.43
658.64	367.72
658.98	365.98
659.32	364.27
659.66	362.67
660.00	361.07
660.34	359.51
660.68	357.90
661.02	356.22
661.36	354.64
661.70	353.14
662.05	351.63
662.39	350.09
662.73	348.65
663.07	347.23
663.41	345.83
663.75	344.45
664.09	343.09
664.43	341.64
664.77	340.28
665.11	338.87
665.45	337.53
665.79	336.19
666.13	334.84
666.47	333.47
666.81	332.09
667.15	330.66
667.49	329.35
667.83	328.08
668.17	326.85
668.51	325.65
668.85	324.45
669.19	323.33
669.53	322.14
669.87	320.93
670.21	319.74
670.55	318.57
670.89	317.47
671.23	316.34
671.57	315.23
671.91	314.17
672.25	313.18
672.58	312.18
672.92	311.13
673.26	310.17
673.60	309.20
673.94	308.22
674.28	307.31
674.62	306.38
674.96	305.43
675.30	304.52
675.64	303.59
675.97	302.68
676.31	301.74
676.65	300.81
676.99	299.96
677.33	299.04
677.67	298.18
678.01	297.24
678.34	296.37
678.68	295.56
679.02	294.71
679.36	293.86
679.70	293.03
680.04	292.23
680.37	291.41
680.71	290.63
681.05	289.89
681.39	289.11
681.73	288.30
682.06	287.52
682.40	286.76
682.74	286.03
683.08	285.32
683.42	284.59
683.75	283.92
684.09	283.18
684.43	282.50
684.77	281.79
685.10	281.14
685.44	280.47
685.78	279.79
686.12	279.14
686.45	278.49
686.79	277.83
687.13	277.20
687.46	276.53
687.80	275.90
688.14	275.22
688.48	274.60
688.81	273.98
689.15	273.42
689.49	272.80
689.82	272.21
690.16	271.56
690.50	270.98
690.83	270.39
691.17	269.82
691.51	269.26
691.84	268.72
692.18	268.15
692.52	267.57
692.85	267.00
693.19	266.49
693.52	265.95
693.86	265.42
694.20	264.89
694.53	264.40
694.87	263.89
695.21	263.40
695.54	262.91
695.88	262.41
696.21	261.88
696.55	261.40
696.88	260.91
697.22	260.44
697.56	259.97
697.89	259.45
698.23	258.97
698.56	258.47
698.90	258.02
699.23	257.55
699.57	257.12
699.90	256.69
700.24	256.22
700.58	255.79
700.91	255.39
701.25	255.07
701.58	254.70
701.92	254.33
702.25	253.93
702.59	253.52
702.92	253.14
703.26	252.77
703.59	252.38
703.93	252.09
704.26	251.74
704.60	251.38
704.93	251.03
705.26	250.68
705.60	250.37
705.93	250.00
706.27	249.70
706.60	249.39
706.94	249.09
707.27	248.73
707.61	248.40
707.94	248.04
708.27	247.62
708.61	247.26
708.94	246.92
709.28	246.60
709.61	246.29
709.94	246.00
710.28	245.71
710.61	245.43
710.95	245.06
711.28	244.85
711.61	244.57
711.95	244.32
712.28	244.05
712.61	243.76
712.95	243.56
713.28	243.34
713.61	243.07
713.95	242.79
714.28	242.57
714.61	242.31
714.95	242.08
715.28	241.84
715.61	241.60
715.95	241.38
716.28	241.15
716.61	240.95
716.95	240.71
717.28	240.50
717.61	240.27
717.94	240.06
718.28	239.78
718.61	239.56
718.94	239.33
719.27	239.13
719.61	238.95
719.94	238.72
720.27	238.47
720.60	238.27
720.94	238.08
721.27	237.90
721.60	237.74
721.93	237.56
722.27	237.42
722.60	237.26
722.93	237.07
723.26	236.90
723.59	236.71
723.93	236.55
724.26	236.39
724.59	236.23
724.92	236.08
725.25	235.96
725.59	235.80
725.92	235.67
726.25	235.52
726.58	235.37
726.91	235.22
727.24	235.09
727.57	234.95
727.91	234.79
728.24	234.66
728.57	234.51
728.90	234.38
729.23	234.21
729.56	234.12
729.89	233.99
730.22	233.84
730.55	233.71
730.89	233.58
731.22	233.44
731.55	233.31
731.88	233.19
732.21	233.05
732.54	232.92
732.87	232.80
733.20	232.69
733.53	232.58
733.86	232.47
734.19	232.35
734.52	232.25
734.85	232.22
735.18	232.09
735.51	232.01
735.84	231.90
736.17	231.83
736.50	231.67
736.83	231.69
737.16	231.60
737.49	231.51
737.82	231.41
738.15	231.33
738.48	231.24
738.81	231.14
739.14	231.03
739.47	230.93
739.80	230.83
740.13	230.74
740.46	230.63
740.79	230.52
741.12	230.44
741.45	230.33
741.78	230.18
742.11	230.12
742.44	230.01
742.77	229.94
743.10	229.84
743.43	229.75
743.75	229.55
744.08	229.63
744.41	229.54
744.74	229.45
745.07	229.35
745.40	229.29
745.73	229.25
746.06	229.18
746.39	229.13
746.71	229.04
747.04	228.96
747.37	228.88
747.70	228.84
748.03	228.76
748.36	228.71
748.68	228.64
749.01	228.54
749.34	228.47
749.67	228.40
750.00	228.35
750.33	228.37
750.65	228.31
750.98	228.09
751.31	228.03
751.64	227.97
751.97	227.96
752.29	227.89
752.62	227.77
752.95	227.70
753.28	227.62
753.60	227.56
753.93	227.53
754.26	227.47
754.59	227.38
754.91	227.30
755.24	227.23
755.57	227.21
755.90	227.15
756.22	227.09
756.55	227.01
756.88	226.93
757.20	226.80
757.53	226.71
757.86	226.66
758.19	226.61
758.51	226.56
758.84	226.45
759.17	226.39
759.49	226.35
759.82	226.36
760.15	226.32
760.47	226.28
760.80	226.20
761.13	226.17
761.45	226.13
761.78	226.09
762.11	226.05
762.43	225.95
762.76	225.91
763.08	225.88
763.41	225.84
763.74	225.81
764.06	225.76
764.39	225.73
764.71	225.69
765.04	225.63
765.37	225.59
765.69	225.54
766.02	225.50
766.34	225.46
766.67	225.38
767.00	225.35
767.32	225.37
767.65	225.39
767.97	225.34
768.30	225.31
768.62	225.28
768.95	225.23
769.27	225.19
769.60	225.17
769.92	225.11
770.25	225.06
770.57	225.01
770.90	224.97
771.22	224.93
771.55	224.90
771.87	224.88
772.20	224.84
772.52	224.90
772.85	225.00
773.17	224.97
773.50	224.93
773.82	224.88
774.15	224.80
774.47	224.70
774.80	224.67
775.12	224.63
775.45	224.61
775.77	224.59
776.09	224.57
776.42	224.54
776.74	224.55
777.07	224.51
777.39	224.50
777.72	224.47
778.04	224.45
778.36	224.42
778.69	224.39
779.01	224.38
779.33	224.27
779.66	224.12
779.98	224.09
780.31	224.08
780.63	224.10
780.95	224.10
781.28	224.08
781.60	224.05
781.92	224.03
782.25	224.00
782.57	223.98
782.89	223.95
783.22	223.92
783.54	223.88
783.86	223.87
784.19	223.84
784.51	223.86
784.83	223.83
785.16	223.81
785.48	223.79
785.80	223.77
786.12	223.76
786.45	223.74
786.77	223.74
787.09	223.71
787.42	223.65
787.74	223.64
788.06	223.62
788.38	223.61
788.71	223.59
789.03	223.58
789.35	223.58
789.67	223.55
789.99	223.54
790.32	223.51
790.64	223.51
790.96	223.59
791.28	223.54
791.61	223.52
791.93	223.51
792.25	223.49
792.57	223.55
792.89	223.52
793.21	223.51
793.54	223.49
793.86	223.46
794.18	223.45
794.50	223.42
794.82	223.41
795.14	223.41
795.47	223.41
795.79	223.40
796.11	223.36
796.43	223.35
796.75	223.34
797.07	223.33
797.39	223.32
797.71	223.22
798.04	223.21
798.36	223.21
798.68	223.19
799.00	223.19
799.32	223.13
799.64	223.14
799.96	223.12
800.28	223.13
800.60	223.12
800.92	223.12
801.24	223.10
801.56	223.10
801.89	223.08
802.21	223.07
802.53	223.04
802.85	223.06
803.17	223.10
803.49	223.06
803.81	223.04
804.13	223.02
804.45	223.00
804.77	223.00
805.09	222.99
805.41	222.97
805.73	222.94
806.05	222.91
806.37	222.89
806.69	222.87
807.01	222.85
807.33	222.85
807.65	222.80
807.97	222.84
808.28	222.82
808.60	222.81
808.92	222.78
809.24	222.84
809.56	222.82
809.88	222.77
810.20	222.77
810.52	222.78
810.84	222.76
811.16	222.74
811.48	222.73
811.80	222.76
812.12	222.75
812.43	222.77
812.75	222.77
813.07	222.76
813.39	222.75
813.71	222.74
814.03	222.72
814.35	222.72
814.67	222.68
814.98	222.67
815.30	222.66
815.62	222.63
815.94	222.56
816.26	222.56
816.58	222.54
816.89	222.55
817.21	222.51
817.53	222.52
817.85	222.52
818.17	222.51
818.48	222.46
818.80	222.48
819.12	222.45
819.44	222.42
819.76	222.41
820.07	222.40
820.39	222.40
820.71	222.40
821.03	222.40
821.34	222.39
821.66	222.40
821.98	222.41
822.30	222.40
822.61	222.46
822.93	222.44
823.25	222.43
823.57	222.42
823.88	222.43
824.20	222.43
824.52	222.44
824.83	222.44
825.15	222.43
825.47	222.42
825.79	222.43
826.10	222.43
826.42	222.42
826.74	222.42
827.05	222.42
827.37	222.41
827.69	222.40
828.00	222.41
828.32	222.40
828.64	222.38
828.95	222.44
829.27	222.40
829.58	222.40
829.90	222.41
830.22	222.42
830.53	222.40
830.85	222.38
831.17	222.35
831.48	222.35
831.80	222.35
832.11	222.34
832.43	222.32
832.75	222.32
833.06	222.38
833.38	222.35
833.69	222.34
834.01	222.34
834.32	222.33
834.64	222.32
834.96	222.32
835.27	222.31
835.59	222.28
835.90	222.26
836.22	222.26
836.53	222.23
836.85	222.22
837.16	222.33
837.48	222.33
837.79	222.36
838.11	222.36
838.42	222.36
838.74	222.37
839.05	222.36
839.37	222.35
839.68	222.28
840.00	222.28
840.31	222.30
840.63	222.29
840.94	222.27
841.26	222.26
841.57	222.26
841.88	222.27
842.20	222.25
842.51	222.23
842.83	222.23
843.14	222.32
843.46	222.32
843.77	222.25
844.08	222.24
844.40	222.21
844.71	222.20
845.03	222.19
845.34	222.18
845.65	222.18
845.97	222.18
846.28	222.18
846.60	222.19
846.91	222.17
847.22	222.16
847.54	222.18
847.85	222.19
848.16	222.18
848.48	222.15
848.79	222.19
849.10	222.21
849.42	222.21
849.73	222.11
850.04	222.11
850.36	222.07
850.67	222.09
850.98	222.09
851.30	222.09
851.61	222.09
851.92	222.09
852.23	222.12
852.55	222.13
852.86	222.13
853.17	222.14
853.49	222.16
853.80	222.18
854.11	222.18
854.42	222.19
854.74	222.19
855.05	222.19
855.36	222.13
855.67	222.13
855.99	222.13
856.30	222.25
856.61	222.25
856.92	222.25
857.23	222.25
857.55	222.24
857.86	222.24
858.17	222.25
858.48	222.23
858.79	222.21
859.11	222.21
859.42	222.21
859.73	222.19
860.04	222.18
860.35	222.15
860.66	222.12
860.98	222.11
861.29	222.12
861.60	222.11
861.91	222.14
862.22	222.12
862.53	222.11
862.84	221.98
863.16	222.00
863.47	221.99
863.78	221.97
864.09	221.98
864.40	221.98
864.71	221.98
865.02	221.99
865.33	221.98
865.64	221.96
865.95	221.96
866.27	222.02
866.58	222.01
866.89	222.02
867.20	222.02
867.51	222.00
867.82	222.00
868.13	222.03
868.44	222.01
868.75	222.03
869.06	222.03
869.37	222.05
869.68	222.02
869.99	222.04
870.30	222.04
870.61	222.05
870.92	222.03
871.23	222.02
871.54	222.03
871.85	222.06
872.16	222.07
872.47	222.06
872.78	222.00
873.09	222.01
873.40	222.00
873.71	222.01
874.02	222.02
874.33	222.01
874.64	221.99
874.95	222.00
875.26	221.98
875.56	221.98
875.87	221.97
876.18	221.96
876.49	222.06
876.80	222.05
877.11	222.03
877.42	222.03
877.73	222.04
878.04	222.02
878.35	222.01
878.66	222.01
878.96	222.01
879.27	222.00
879.58	221.99
879.89	221.99
880.20	222.01
880.51	222.01
880.82	222.01
881.12	222.01
881.43	221.99
881.74	221.98
882.05	221.97
882.36	221.97
882.67	221.98
882.97	221.87
883.28	221.87
883.59	221.86
883.90	221.87
884.21	221.89
884.51	221.89
884.82	221.87
885.13	221.87
885.44	221.86
885.74	221.86
886.05	221.86
886.36	221.86
886.67	221.82
886.98	221.88
887.28	221.89
887.59	221.88
887.90	221.89
888.20	221.89
888.51	221.91
888.82	221.89
889.13	221.89
889.43	221.98
889.74	221.97
890.05	221.97
890.35	221.96
890.66	221.94
890.97	221.93
891.28	221.93
891.58	221.93
891.89	221.93
892.20	221.91
892.50	221.90
892.81	221.90
893.12	221.90
893.42	221.84
893.73	221.84
894.04	221.84
894.34	221.85
894.65	221.84
894.95	221.83
895.26	221.84
895.57	221.88
895.87	221.78
896.18	221.80
896.48	221.80
896.79	221.80
897.10	221.81
897.40	221.82
897.71	221.83
898.01	221.82
898.32	221.83
898.63	221.83
898.93	221.84
899.24	221.84
899.54	221.84
899.85	221.83
900.15	221.83
900.46	221.82
900.76	221.83
901.07	221.83
901.38	221.82
901.68	221.83
901.99	221.78
902.29	221.79
902.60	221.78
902.90	221.77
903.21	221.77
903.51	221.76
903.82	221.78
904.12	221.78
904.43	221.78
904.73	221.77
905.03	221.77
905.34	221.87
905.64	221.86
905.95	221.87
906.25	221.87
906.56	221.86
906.86	221.86
907.17	221.85
907.47	221.86
907.77	221.85
908.08	221.83
908.38	221.83
908.69	221.84
908.99	221.85
909.30	221.86
909.60	221.86
909.90	221.86
910.21	221.84
910.51	221.82
910.81	221.82
911.12	221.83
911.42	221.83
911.73	221.72
912.03	221.73
912.33	221.75
912.64	221.74
912.94	221.73
913.24	221.72
913.55	221.71
913.85	221.70
914.15	221.73
914.46	221.74
914.76	221.72
915.06	221.72
915.37	221.70
915.67	221.69
915.97	221.69
916.27	221.67
916.58	221.67
916.88	221.67
917.18	221.66
917.49	221.73
917.79	221.72
918.09	221.74
918.39	221.76
918.70	221.75
919.00	221.76
919.30	221.80
919.60	221.80
919.91	221.79
920.21	221.79
920.51	221.77
920.81	221.76
921.12	221.78
921.42	221.78
921.72	221.79
922.02	221.79
922.32	221.81
922.63	221.81
922.93	221.87
923.23	221.87
923.53	221.87
923.83	221.80
924.13	221.81
924.44	221.80
924.74	221.81
925.04	221.83
925.34	221.83
925.64	221.79
925.94	221.79
926.24	221.85
926.55	221.84
926.85	221.86
927.15	221.86
927.45	221.85
927.75	221.86
928.05	221.86
928.35	221.85
928.65	221.86
928.95	221.87
929.26	221.82
929.56	221.84
929.86	221.85
930.16	221.84
930.46	221.83
930.76	221.84
931.06	221.79
931.36	221.76
931.66	221.78
931.96	221.79
932.26	221.80
932.56	221.75
932.86	221.75
933.16	221.75
933.46	221.75
933.76	221.73
934.06	221.75
934.36	221.79
934.66	221.78
934.96	221.76
935.26	221.77
935.56	221.78
935.86	221.75
936.16	221.74
936.46	221.73
936.76	221.72
937.06	221.71
937.36	221.72
937.66	221.72
937.96	221.71
938.26	221.69
938.56	221.68
938.86	221.69
939.16	221.71
939.46	221.72
939.76	221.72
940.06	221.72
940.35	221.70
940.65	221.65
940.95	221.66
941.25	221.63
941.55	221.62
941.85	221.61
942.15	221.64
942.45	221.66
942.75	221.66
943.04	221.66
943.34	221.68
943.64	221.67
943.94	221.66
944.24	221.66
944.54	221.67
944.84	221.66
945.13	221.65
945.43	221.63
945.73	221.62
946.03	221.62
946.33	221.61
946.62	221.60
946.92	221.60
947.22	221.60
947.52	221.61
947.82	221.62
948.11	221.61
948.41	221.59
948.71	221.55
949.01	221.56
949.31	221.55
949.60	221.55
949.90	221.56
950.20	221.56
950.50	221.56
950.79	221.55
951.09	221.56
951.39	221.56
951.69	221.55
951.98	221.56
952.28	221.58
952.58	221.57
952.87	221.57
953.17	221.59
953.47	221.58
953.76	221.57
954.06	221.55
954.36	221.54
954.66	221.54
954.95	221.57
955.25	221.58
955.55	221.59
955.84	221.57
956.14	221.58
956.44	221.58
956.73	221.57
957.03	221.58
957.32	221.58
957.62	221.57
957.92	221.60
958.21	221.59
958.51	221.70
958.81	221.72
959.10	221.73
959.40	221.75
959.69	221.76
959.99	221.78
960.29	221.78
960.58	221.78
960.88	221.82
961.17	221.80
961.47	221.81
961.76	221.80
962.06	221.81
962.36	221.80
962.65	221.81
962.95	221.81
963.24	221.80
963.54	221.80
963.83	221.81
964.13	221.80
964.42	221.79
964.72	221.70
965.01	221.70
965.31	221.69
965.60	221.66
965.90	221.72
966.19	221.70
966.49	221.71
966.78	221.71
967.08	221.70
967.37	221.69
967.67	221.68
967.96	221.69
968.26	221.68
968.55	221.70
968.85	221.69
969.14	221.69
969.43	221.69
969.73	221.68
970.02	221.67
970.32	221.67
970.61	221.65
970.91	221.62
971.20	221.61
971.49	221.60
971.79	221.61
972.08	221.53
972.38	221.54
972.67	221.53
972.96	221.54
973.26	221.52
973.55	221.55
973.85	221.55
974.14	221.54
974.43	221.55
974.73	221.53
975.02	221.52
975.31	221.52
975.61	221.53
975.90	221.52
976.19	221.51
976.49	221.52
976.78	221.53
977.07	221.53
977.37	221.54
977.66	221.55
977.95	221.53
978.24	221.55
978.54	221.57
978.83	221.56
979.12	221.56
979.42	221.56
979.71	221.53
980.00	221.53
980.29	221.53
980.59	221.51
980.88	221.54
981.17	221.54
981.46	221.54
981.76	221.54
982.05	221.57
982.34	221.58
982.63	221.57
982.93	221.57
983.22	221.60
983.51	221.60
983.80	221.61
984.09	221.63
984.39	221.62
984.68	221.60
984.97	221.61
985.26	221.61
985.55	221.61
985.85	221.59
986.14	221.61
986.43	221.62
986.72	221.61
987.01	221.58
987.30	221.58
987.59	221.57
987.89	221.58
988.18	221.54
988.47	221.54
988.76	221.53
989.05	221.52
989.34	221.50
989.63	221.53
989.92	221.52
990.22	221.50
990.51	221.50
990.80	221.49
991.09	221.50
991.38	221.51
991.67	221.50
991.96	221.49
992.25	221.49
992.54	221.47
992.83	221.47
993.12	221.47
993.41	221.49
993.70	221.53
993.99	221.54
994.28	221.56
994.58	221.57
994.87	221.56
995.16	221.56
995.45	221.55
995.74	221.51
996.03	221.52
996.32	221.54
996.61	221.56
996.90	221.56
997.19	221.55
997.48	221.56
997.77	221.55
998.06	221.55
998.34	221.54
998.63	221.55
998.92	221.55
999.21	221.57
999.50	221.57
999.79	221.54
1000.08	221.53
1000.37	221.53
1000.66	221.52
1000.95	221.55
1001.24	221.56
1001.53	221.57
1001.82	221.57
1002.11	221.55
1002.40	221.56
1002.68	221.58
1002.97	221.65
1003.26	221.64
1003.55	221.62
1003.84	221.63
1004.13	221.66
1004.42	221.66
1004.71	221.66
1004.99	221.65
1005.28	221.67
1005.57	221.66
1005.86	221.65
1006.15	221.64
1006.44	221.62
1006.72	221.63
1007.01	221.61
1007.30	221.61
1007.59	221.60
1007.88	221.60
1008.17	221.61
1008.45	221.58
1008.74	221.54
1009.03	221.49
1009.32	221.49
1009.60	221.50
1009.89	221.49
1010.18	221.44
1010.47	221.44
1010.76	221.44
1011.04	221.44
1011.33	221.43
1011.62	221.44
1011.91	221.45
1012.19	221.45
1012.48	221.46
1012.77	221.45
1013.05	221.49
1013.34	221.49
1013.63	221.48
1013.92	221.49
1014.20	221.49
1014.49	221.49
1014.78	221.51
1015.06	221.47
1015.35	221.48
1015.64	221.49
1015.92	221.51
1016.21	221.52
1016.50	221.52
1016.78	221.53
1017.07	221.55
1017.36	221.53
1017.64	221.52
1017.93	221.53
1018.22	221.52
1018.50	221.52
1018.79	221.51
1019.08	221.48
1019.36	221.48
1019.65	221.47
1019.93	221.50
1020.22	221.52
1020.51	221.57
1020.79	221.56
1021.08	221.32
1021.36	221.33
1021.65	221.43
1021.94	221.46
1022.22	221.53
1022.51	221.32
1022.79	222.01
1023.08	221.62
1023.36	222.80
1023.65	221.26
>>>>>End Processed Spectral Data<<<<<
