SpectraSuite Data File
++++++++++++++++++++++++++++++++++++
Date: Wed Sep 30 14:32:20 EDT 2015
User: lab3
Dark Spectrum Present: No
Reference Spectrum Present: No
Number of Sampled Component Spectra: 1
Spectrometers: USB2E7196
Integration Time (usec): 36000 (USB2E7196)
Spectra Averaged: 1500 (USB2E7196)
Boxcar Smoothing: 10 (USB2E7196)
Correct for Electrical Dark: No (USB2E7196)
Strobe/Lamp Enabled: No (USB2E7196)
Correct for Detector Non-linearity: No (USB2E7196)
Correct for Stray Light: No (USB2E7196)
Number of Pixels in Processed Spectrum: 2048
>>>>>Begin Processed Spectral Data<<<<<
339.09	0.00
339.48	211.35
339.86	212.88
340.24	214.30
340.63	215.71
341.01	218.60
341.39	218.36
341.78	219.82
342.16	220.94
342.54	221.42
342.93	209.97
343.31	220.59
343.69	221.12
344.07	221.58
344.46	222.02
344.84	222.40
345.22	222.64
345.60	222.89
345.99	223.08
346.37	223.22
346.75	223.33
347.13	223.41
347.52	223.48
347.90	223.55
348.28	223.59
348.66	223.65
349.05	223.64
349.43	223.69
349.81	223.75
350.19	223.80
350.57	223.86
350.96	223.95
351.34	224.04
351.72	224.14
352.10	224.25
352.48	224.32
352.87	224.38
353.25	224.45
353.63	224.52
354.01	224.58
354.39	224.66
354.77	224.73
355.15	224.84
355.54	224.89
355.92	224.93
356.30	225.00
356.68	225.14
357.06	225.21
357.44	225.27
357.82	225.33
358.20	225.45
358.58	225.51
358.97	225.56
359.35	225.64
359.73	225.73
360.11	225.78
360.49	225.83
360.87	225.88
361.25	225.93
361.63	226.01
362.01	226.06
362.39	226.09
362.77	226.13
363.15	226.16
363.53	226.19
363.91	226.22
364.29	226.24
364.67	226.16
365.05	226.20
365.43	226.22
365.81	226.24
366.19	226.26
366.57	226.30
366.95	226.31
367.33	226.28
367.71	226.26
368.09	226.27
368.47	226.27
368.85	226.25
369.23	226.27
369.61	226.22
369.99	226.22
370.37	226.21
370.75	226.26
371.13	226.24
371.51	226.19
371.89	226.17
372.27	226.13
372.65	226.10
373.03	226.04
373.41	226.01
373.78	225.96
374.16	225.86
374.54	225.78
374.92	225.73
375.30	225.68
375.68	225.62
376.06	225.58
376.44	225.51
376.82	225.47
377.19	225.42
377.57	225.35
377.95	225.27
378.33	225.21
378.71	225.07
379.09	225.02
379.47	224.98
379.84	224.92
380.22	224.85
380.60	224.78
380.98	224.73
381.36	224.67
381.73	224.61
382.11	224.60
382.49	224.55
382.87	224.49
383.25	224.44
383.62	224.51
384.00	224.44
384.38	224.41
384.76	224.39
385.13	224.37
385.51	224.33
385.89	224.28
386.27	224.24
386.64	224.22
387.02	224.17
387.40	224.13
387.78	224.11
388.15	224.10
388.53	224.08
388.91	224.05
389.29	224.01
389.66	224.00
390.04	223.96
390.42	223.96
390.79	223.95
391.17	223.93
391.55	223.80
391.92	223.79
392.30	223.79
392.68	223.75
393.05	223.73
393.43	223.73
393.81	223.73
394.18	223.71
394.56	223.71
394.94	223.73
395.31	223.72
395.69	223.76
396.06	223.79
396.44	223.80
396.82	223.82
397.19	223.90
397.57	223.90
397.95	223.94
398.32	223.93
398.70	223.97
399.07	224.03
399.45	224.06
399.82	224.11
400.20	224.13
400.58	224.19
400.95	224.21
401.33	224.29
401.70	224.43
402.08	224.52
402.45	224.60
402.83	224.71
403.20	224.81
403.58	224.88
403.95	225.00
404.33	225.14
404.71	225.27
405.08	225.44
405.46	225.59
405.83	225.75
406.21	225.93
406.58	226.12
406.96	226.30
407.33	226.52
407.70	226.77
408.08	227.09
408.45	227.37
408.83	227.68
409.20	227.96
409.58	228.21
409.95	228.57
410.33	228.94
410.70	229.29
411.08	229.72
411.45	230.16
411.82	230.61
412.20	231.11
412.57	231.70
412.95	232.18
413.32	232.80
413.69	233.42
414.07	234.10
414.44	234.84
414.82	235.59
415.19	236.47
415.56	237.36
415.94	238.28
416.31	239.33
416.68	240.38
417.06	241.59
417.43	242.72
417.81	244.02
418.18	245.33
418.55	246.77
418.93	248.28
419.30	249.84
419.67	251.52
420.04	253.24
420.42	255.05
420.79	257.13
421.16	259.25
421.54	261.39
421.91	263.64
422.28	265.95
422.66	268.48
423.03	270.88
423.40	273.38
423.77	276.10
424.15	278.87
424.52	281.73
424.89	284.84
425.26	287.93
425.64	290.82
426.01	294.08
426.38	297.41
426.75	300.83
427.13	304.36
427.50	308.03
427.87	311.86
428.24	315.72
428.61	319.42
428.99	323.42
429.36	327.77
429.73	331.94
430.10	336.11
430.47	340.36
430.85	344.75
431.22	349.41
431.59	354.18
431.96	358.86
432.33	364.07
432.70	369.02
433.08	374.84
433.45	380.33
433.82	385.73
434.19	391.78
434.56	397.72
434.93	403.44
435.30	409.11
435.68	415.49
436.05	421.70
436.42	427.92
436.79	433.58
437.16	439.74
437.53	446.29
437.90	452.85
438.27	459.25
438.64	466.15
439.01	472.43
439.38	478.16
439.75	483.65
440.13	489.87
440.50	495.78
440.87	500.47
441.24	505.61
441.61	511.22
441.98	515.31
442.35	520.23
442.72	525.28
443.09	530.05
443.46	533.06
443.83	535.33
444.20	537.19
444.57	539.92
444.94	541.49
445.31	543.15
445.68	544.58
446.05	545.60
446.42	545.38
446.79	545.06
447.16	544.76
447.53	544.52
447.90	542.64
448.27	540.86
448.64	538.08
449.01	536.26
449.37	532.34
449.74	528.76
450.11	524.17
450.48	519.09
450.85	514.00
451.22	509.70
451.59	505.40
451.96	501.54
452.33	495.93
452.70	490.93
453.07	484.83
453.43	478.73
453.80	472.81
454.17	467.10
454.54	461.80
454.91	455.85
455.28	450.23
455.65	444.92
456.02	439.30
456.38	434.77
456.75	428.90
457.12	424.21
457.49	419.48
457.86	414.95
458.23	410.97
458.59	406.58
458.96	402.10
459.33	398.19
459.70	394.20
460.07	391.19
460.43	387.60
460.80	384.24
461.17	381.30
461.54	378.14
461.91	375.16
462.27	372.14
462.64	369.67
463.01	366.84
463.38	363.99
463.74	361.39
464.11	359.08
464.48	357.01
464.85	354.77
465.21	353.02
465.58	351.11
465.95	348.91
466.32	347.17
466.68	345.47
467.05	343.73
467.42	342.04
467.78	340.23
468.15	338.56
468.52	337.34
468.88	335.69
469.25	334.20
469.62	333.03
469.98	331.74
470.35	330.61
470.72	329.58
471.08	328.53
471.45	327.69
471.82	326.72
472.18	325.71
472.55	325.07
472.92	324.28
473.28	323.66
473.65	323.03
474.02	322.41
474.38	321.90
474.75	321.62
475.11	321.21
475.48	321.05
475.85	320.88
476.21	320.83
476.58	320.85
476.94	321.05
477.31	321.17
477.67	321.31
478.04	321.56
478.41	321.89
478.77	322.35
479.14	322.67
479.50	323.24
479.87	323.93
480.23	324.63
480.60	325.31
480.96	326.03
481.33	327.00
481.69	327.97
482.06	328.94
482.42	329.87
482.79	330.98
483.15	332.27
483.52	333.70
483.88	335.07
484.25	336.55
484.61	338.09
484.98	339.73
485.34	341.57
485.71	343.48
486.07	345.54
486.44	347.57
486.80	349.83
487.17	352.11
487.53	354.65
487.90	357.26
488.26	360.07
488.62	363.03
488.99	366.03
489.35	369.19
489.72	372.59
490.08	376.16
490.44	379.80
490.81	383.61
491.17	387.53
491.54	391.70
491.90	395.93
492.26	400.48
492.63	405.29
492.99	410.29
493.36	415.45
493.72	420.90
494.08	426.49
494.45	432.38
494.81	438.51
495.17	444.73
495.54	451.34
495.90	458.30
496.26	465.39
496.63	472.66
496.99	480.22
497.35	488.10
497.72	496.26
498.08	504.63
498.44	513.24
498.80	522.36
499.17	531.81
499.53	541.55
499.89	551.57
500.26	561.74
500.62	572.14
500.98	583.18
501.34	594.35
501.71	606.02
502.07	617.92
502.43	630.24
502.79	643.01
503.16	656.10
503.52	669.32
503.88	683.00
504.24	697.06
504.60	711.34
504.97	726.05
505.33	741.12
505.69	756.93
506.05	772.99
506.41	789.25
506.78	805.74
507.14	822.76
507.50	840.13
507.86	857.88
508.22	875.90
508.59	893.99
508.95	912.69
509.31	931.85
509.67	951.81
510.03	971.87
510.39	992.04
510.75	1012.37
511.12	1033.05
511.48	1053.94
511.84	1075.17
512.20	1096.61
512.56	1118.88
512.92	1141.30
513.28	1163.66
513.64	1186.30
514.00	1209.32
514.37	1232.89
514.73	1256.44
515.09	1279.77
515.45	1303.35
515.81	1327.16
516.17	1351.11
516.53	1374.89
516.89	1398.51
517.25	1422.08
517.61	1445.90
517.97	1469.96
518.33	1494.06
518.69	1518.31
519.05	1542.85
519.41	1567.36
519.77	1592.24
520.13	1616.37
520.49	1640.53
520.85	1664.63
521.21	1688.78
521.57	1713.43
521.93	1737.27
522.29	1761.55
522.65	1785.69
523.01	1809.83
523.37	1833.38
523.73	1857.58
524.09	1881.53
524.45	1905.58
524.81	1929.45
525.17	1952.81
525.53	1975.92
525.89	1998.96
526.25	2021.99
526.61	2043.60
526.97	2065.55
527.33	2087.26
527.68	2108.97
528.04	2130.33
528.40	2151.58
528.76	2172.45
529.12	2192.72
529.48	2213.60
529.84	2232.40
530.20	2251.73
530.56	2270.46
530.91	2289.90
531.27	2308.66
531.63	2326.77
531.99	2344.39
532.35	2361.54
532.71	2379.55
533.07	2397.79
533.42	2414.21
533.78	2431.22
534.14	2448.75
534.50	2465.37
534.86	2482.49
535.21	2497.54
535.57	2512.52
535.93	2527.03
536.29	2540.96
536.65	2554.31
537.00	2566.50
537.36	2579.71
537.72	2591.67
538.08	2603.72
538.44	2614.42
538.79	2624.56
539.15	2633.73
539.51	2642.88
539.87	2650.97
540.22	2656.57
540.58	2662.32
540.94	2668.91
541.29	2674.23
541.65	2679.35
542.01	2684.16
542.37	2686.88
542.72	2691.17
543.08	2694.48
543.44	2697.45
543.79	2699.81
544.15	2701.70
544.51	2703.13
544.87	2704.52
545.22	2705.40
545.58	2705.08
545.94	2704.79
546.29	2703.40
546.65	2702.28
547.01	2700.95
547.36	2700.12
547.72	2699.73
548.07	2698.05
548.43	2694.88
548.79	2691.39
549.14	2687.90
549.50	2684.58
549.86	2681.14
550.21	2676.45
550.57	2672.19
550.92	2666.73
551.28	2661.19
551.64	2655.59
551.99	2650.10
552.35	2643.46
552.70	2637.06
553.06	2631.49
553.41	2625.53
553.77	2619.41
554.13	2613.26
554.48	2605.72
554.84	2597.34
555.19	2588.81
555.55	2579.66
555.90	2571.71
556.26	2563.99
556.61	2555.32
556.97	2545.25
557.32	2535.45
557.68	2525.69
558.03	2515.54
558.39	2506.40
558.74	2497.94
559.10	2488.08
559.45	2478.13
559.81	2468.62
560.16	2458.57
560.52	2448.10
560.87	2437.88
561.23	2427.05
561.58	2416.73
561.94	2406.43
562.29	2395.68
562.64	2385.47
563.00	2375.43
563.35	2365.20
563.71	2354.11
564.06	2343.40
564.42	2332.96
564.77	2322.37
565.12	2311.71
565.48	2300.69
565.83	2289.18
566.19	2277.33
566.54	2266.22
566.89	2254.24
567.25	2242.26
567.60	2231.24
567.96	2219.66
568.31	2207.15
568.66	2195.14
569.02	2183.24
569.37	2171.84
569.72	2161.23
570.08	2149.48
570.43	2137.44
570.78	2125.15
571.14	2112.93
571.49	2100.31
571.84	2087.99
572.20	2074.78
572.55	2061.67
572.90	2049.09
573.26	2036.85
573.61	2023.78
573.96	2010.99
574.31	1998.67
574.67	1986.37
575.02	1973.04
575.37	1959.71
575.72	1946.77
576.08	1933.84
576.43	1920.47
576.78	1907.00
577.13	1893.22
577.49	1879.86
577.84	1866.69
578.19	1853.61
578.54	1840.19
578.90	1826.54
579.25	1812.65
579.60	1800.01
579.95	1787.45
580.30	1774.65
580.66	1761.35
581.01	1748.12
581.36	1734.53
581.71	1721.45
582.06	1708.49
582.42	1695.81
582.77	1683.18
583.12	1670.84
583.47	1658.84
583.82	1646.39
584.17	1633.16
584.53	1620.28
584.88	1607.60
585.23	1594.82
585.58	1582.08
585.93	1569.75
586.28	1557.99
586.63	1546.15
586.98	1533.77
587.34	1521.56
587.69	1508.80
588.04	1496.52
588.39	1484.65
588.74	1472.58
589.09	1460.85
589.44	1448.35
589.79	1436.09
590.14	1424.02
590.49	1411.86
590.84	1399.77
591.19	1388.37
591.54	1377.01
591.89	1365.39
592.25	1354.24
592.60	1342.75
592.95	1331.60
593.30	1320.36
593.65	1309.27
594.00	1298.32
594.35	1287.86
594.70	1276.62
595.05	1266.27
595.40	1255.55
595.75	1244.72
596.10	1234.52
596.45	1223.95
596.80	1214.12
597.15	1204.40
597.50	1194.63
597.85	1185.23
598.19	1175.81
598.54	1166.01
598.89	1156.85
599.24	1147.99
599.59	1139.04
599.94	1130.68
600.29	1122.00
600.64	1113.39
600.99	1104.09
601.34	1095.38
601.69	1086.44
602.04	1078.42
602.39	1069.97
602.74	1062.05
603.08	1054.39
603.43	1046.47
603.78	1038.49
604.13	1030.57
604.48	1022.45
604.83	1014.61
605.18	1006.61
605.53	998.45
605.87	990.41
606.22	982.64
606.57	974.62
606.92	966.51
607.27	958.55
607.62	950.85
607.96	943.24
608.31	936.67
608.66	929.78
609.01	922.91
609.36	916.01
609.70	909.17
610.05	902.14
610.40	895.19
610.75	888.13
611.10	881.52
611.44	874.67
611.79	868.12
612.14	861.42
612.49	854.60
612.83	848.28
613.18	842.10
613.53	835.97
613.88	829.95
614.22	824.14
614.57	818.18
614.92	812.31
615.27	806.49
615.61	800.22
615.96	794.06
616.31	788.12
616.65	781.94
617.00	775.89
617.35	769.90
617.70	764.02
618.04	758.34
618.39	752.46
618.74	746.91
619.08	741.21
619.43	735.68
619.78	730.25
620.12	724.65
620.47	719.22
620.82	713.81
621.16	708.50
621.51	703.08
621.85	697.71
622.20	692.25
622.55	686.85
622.89	681.59
623.24	676.46
623.59	671.42
623.93	666.68
624.28	662.04
624.62	657.38
624.97	652.67
625.32	648.00
625.66	643.17
626.01	638.32
626.35	633.65
626.70	628.94
627.04	624.52
627.39	620.11
627.73	615.71
628.08	611.33
628.43	607.00
628.77	602.72
629.12	598.51
629.46	594.43
629.81	590.29
630.15	586.19
630.50	582.18
630.84	578.19
631.19	574.27
631.53	570.46
631.88	566.64
632.22	562.73
632.57	559.09
632.91	555.50
633.26	551.90
633.60	548.32
633.95	544.86
634.29	541.28
634.64	537.74
634.98	534.12
635.32	530.63
635.67	527.36
636.01	524.11
636.36	520.83
636.70	517.71
637.05	514.59
637.39	511.51
637.73	508.22
638.08	505.05
638.42	501.91
638.77	498.67
639.11	495.34
639.45	492.18
639.80	488.97
640.14	485.92
640.49	482.89
640.83	479.81
641.17	476.79
641.52	473.79
641.86	470.74
642.20	467.85
642.55	464.83
642.89	461.84
643.23	458.97
643.58	456.30
643.92	453.53
644.26	450.81
644.61	448.15
644.95	445.53
645.29	442.81
645.64	440.04
645.98	437.38
646.32	434.85
646.66	432.33
647.01	429.87
647.35	427.53
647.69	425.06
648.04	422.68
648.38	420.26
648.72	417.91
649.06	415.58
649.41	413.33
649.75	411.12
650.09	408.83
650.43	406.59
650.78	404.33
651.12	402.05
651.46	399.85
651.80	397.71
652.14	395.66
652.49	393.64
652.83	391.68
653.17	389.74
653.51	387.86
653.85	386.03
654.20	384.13
654.54	382.11
654.88	380.20
655.22	378.34
655.56	376.53
655.90	374.76
656.25	373.03
656.59	371.26
656.93	369.60
657.27	368.03
657.61	366.34
657.95	364.72
658.29	363.14
658.64	361.61
658.98	359.96
659.32	358.29
659.66	356.73
660.00	355.20
660.34	353.68
660.68	352.14
661.02	350.54
661.36	348.99
661.70	347.53
662.05	346.11
662.39	344.71
662.73	343.36
663.07	342.05
663.41	340.78
663.75	339.51
664.09	338.23
664.43	336.88
664.77	335.59
665.11	334.24
665.45	332.95
665.79	331.67
666.13	330.48
666.47	329.31
666.81	328.09
667.15	326.82
667.49	325.63
667.83	324.47
668.17	323.35
668.51	322.27
668.85	321.18
669.19	320.14
669.53	319.00
669.87	317.81
670.21	316.69
670.55	315.59
670.89	314.56
671.23	313.51
671.57	312.48
671.91	311.53
672.25	310.64
672.58	309.73
672.92	308.78
673.26	307.90
673.60	306.99
673.94	306.10
674.28	305.25
674.62	304.37
674.96	303.46
675.30	302.63
675.64	301.79
675.97	300.95
676.31	300.09
676.65	299.28
676.99	298.56
677.33	297.73
677.67	296.93
678.01	296.07
678.34	295.26
678.68	294.49
679.02	293.70
679.36	292.91
679.70	292.11
680.04	291.35
680.37	290.57
680.71	289.83
681.05	289.13
681.39	288.41
681.73	287.70
682.06	287.00
682.40	286.30
682.74	285.60
683.08	284.95
683.42	284.27
683.75	283.63
684.09	282.91
684.43	282.29
684.77	281.63
685.10	281.02
685.44	280.40
685.78	279.80
686.12	279.20
686.45	278.60
686.79	277.98
687.13	277.38
687.46	276.74
687.80	276.14
688.14	275.53
688.48	274.96
688.81	274.37
689.15	273.84
689.49	273.25
689.82	272.67
690.16	272.03
690.50	271.45
690.83	270.87
691.17	270.31
691.51	269.76
691.84	269.24
692.18	268.68
692.52	268.13
692.85	267.58
693.19	267.08
693.52	266.55
693.86	266.05
694.20	265.54
694.53	265.06
694.87	264.56
695.21	264.05
695.54	263.55
695.88	263.04
696.21	262.49
696.55	262.03
696.88	261.55
697.22	261.10
697.56	260.68
697.89	260.22
698.23	259.80
698.56	259.35
698.90	258.94
699.23	258.52
699.57	258.12
699.90	257.70
700.24	257.25
700.58	256.86
700.91	256.48
701.25	256.16
701.58	255.81
701.92	255.46
702.25	255.09
702.59	254.70
702.92	254.34
703.26	253.99
703.59	253.62
703.93	253.34
704.26	252.99
704.60	252.62
704.93	252.26
705.26	251.89
705.60	251.57
705.93	251.19
706.27	250.89
706.60	250.58
706.94	250.29
707.27	249.96
707.61	249.62
707.94	249.27
708.27	248.87
708.61	248.51
708.94	248.17
709.28	247.88
709.61	247.58
709.94	247.31
710.28	247.04
710.61	246.77
710.95	246.42
711.28	246.21
711.61	245.95
711.95	245.72
712.28	245.45
712.61	245.17
712.95	244.97
713.28	244.74
713.61	244.45
713.95	244.16
714.28	243.91
714.61	243.66
714.95	243.42
715.28	243.18
715.61	242.96
715.95	242.76
716.28	242.53
716.61	242.33
716.95	242.10
717.28	241.86
717.61	241.64
717.94	241.44
718.28	241.16
718.61	240.96
718.94	240.74
719.27	240.55
719.61	240.37
719.94	240.15
720.27	239.91
720.60	239.73
720.94	239.54
721.27	239.37
721.60	239.22
721.93	239.04
722.27	238.89
722.60	238.72
722.93	238.51
723.26	238.34
723.59	238.14
723.93	237.99
724.26	237.84
724.59	237.67
724.92	237.51
725.25	237.38
725.59	237.22
725.92	237.08
726.25	236.94
726.58	236.79
726.91	236.63
727.24	236.50
727.57	236.35
727.91	236.19
728.24	236.06
728.57	235.90
728.90	235.78
729.23	235.61
729.56	235.54
729.89	235.41
730.22	235.27
730.55	235.14
730.89	235.01
731.22	234.87
731.55	234.74
731.88	234.62
732.21	234.47
732.54	234.34
732.87	234.22
733.20	234.11
733.53	233.99
733.86	233.90
734.19	233.78
734.52	233.69
734.85	233.66
735.18	233.54
735.51	233.47
735.84	233.37
736.17	233.30
736.50	233.12
736.83	233.13
737.16	233.04
737.49	232.96
737.82	232.85
738.15	232.78
738.48	232.70
738.81	232.60
739.14	232.51
739.47	232.41
739.80	232.30
740.13	232.22
740.46	232.11
740.79	231.98
741.12	231.88
741.45	231.77
741.78	231.62
742.11	231.56
742.44	231.44
742.77	231.37
743.10	231.26
743.43	231.18
743.75	230.98
744.08	231.05
744.41	230.95
744.74	230.87
745.07	230.76
745.40	230.69
745.73	230.64
746.06	230.56
746.39	230.51
746.71	230.44
747.04	230.36
747.37	230.29
747.70	230.25
748.03	230.19
748.36	230.13
748.68	230.07
749.01	229.98
749.34	229.91
749.67	229.85
750.00	229.80
750.33	229.81
750.65	229.76
750.98	229.56
751.31	229.51
751.64	229.46
751.97	229.44
752.29	229.39
752.62	229.28
752.95	229.23
753.28	229.16
753.60	229.09
753.93	229.05
754.26	229.01
754.59	228.91
754.91	228.85
755.24	228.78
755.57	228.76
755.90	228.69
756.22	228.63
756.55	228.56
756.88	228.47
757.20	228.35
757.53	228.28
757.86	228.22
758.19	228.17
758.51	228.11
758.84	228.01
759.17	227.94
759.49	227.90
759.82	227.90
760.15	227.86
760.47	227.82
760.80	227.75
761.13	227.71
761.45	227.67
761.78	227.62
762.11	227.57
762.43	227.48
762.76	227.44
763.08	227.40
763.41	227.36
763.74	227.33
764.06	227.29
764.39	227.25
764.71	227.20
765.04	227.15
765.37	227.10
765.69	227.07
766.02	227.03
766.34	226.98
766.67	226.90
767.00	226.88
767.32	226.90
767.65	226.92
767.97	226.87
768.30	226.84
768.62	226.81
768.95	226.78
769.27	226.75
769.60	226.73
769.92	226.69
770.25	226.63
770.57	226.58
770.90	226.55
771.22	226.51
771.55	226.48
771.87	226.46
772.20	226.42
772.52	226.48
772.85	226.57
773.17	226.53
773.50	226.48
773.82	226.43
774.15	226.35
774.47	226.26
774.80	226.23
775.12	226.19
775.45	226.15
775.77	226.12
776.09	226.10
776.42	226.07
776.74	226.07
777.07	226.04
777.39	226.02
777.72	225.98
778.04	225.97
778.36	225.94
778.69	225.91
779.01	225.90
779.33	225.79
779.66	225.65
779.98	225.62
780.31	225.60
780.63	225.63
780.95	225.62
781.28	225.60
781.60	225.56
781.92	225.54
782.25	225.53
782.57	225.51
782.89	225.49
783.22	225.46
783.54	225.41
783.86	225.40
784.19	225.37
784.51	225.38
784.83	225.34
785.16	225.32
785.48	225.30
785.80	225.28
786.12	225.26
786.45	225.24
786.77	225.24
787.09	225.22
787.42	225.16
787.74	225.14
788.06	225.13
788.38	225.11
788.71	225.09
789.03	225.06
789.35	225.05
789.67	225.02
789.99	225.01
790.32	224.98
790.64	224.99
790.96	225.07
791.28	225.03
791.61	225.01
791.93	225.00
792.25	224.98
792.57	225.04
792.89	225.01
793.21	225.01
793.54	224.98
793.86	224.96
794.18	224.95
794.50	224.93
794.82	224.91
795.14	224.91
795.47	224.93
795.79	224.92
796.11	224.89
796.43	224.88
796.75	224.87
797.07	224.86
797.39	224.85
797.71	224.75
798.04	224.75
798.36	224.75
798.68	224.74
799.00	224.74
799.32	224.68
799.64	224.70
799.96	224.69
800.28	224.71
800.60	224.68
800.92	224.68
801.24	224.66
801.56	224.65
801.89	224.63
802.21	224.62
802.53	224.59
802.85	224.61
803.17	224.65
803.49	224.63
803.81	224.61
804.13	224.59
804.45	224.57
804.77	224.57
805.09	224.55
805.41	224.54
805.73	224.51
806.05	224.48
806.37	224.46
806.69	224.43
807.01	224.41
807.33	224.42
807.65	224.38
807.97	224.43
808.28	224.41
808.60	224.40
808.92	224.39
809.24	224.44
809.56	224.41
809.88	224.36
810.20	224.36
810.52	224.37
810.84	224.35
811.16	224.34
811.48	224.32
811.80	224.36
812.12	224.35
812.43	224.36
812.75	224.36
813.07	224.34
813.39	224.34
813.71	224.32
814.03	224.30
814.35	224.30
814.67	224.25
814.98	224.23
815.30	224.23
815.62	224.19
815.94	224.13
816.26	224.14
816.58	224.12
816.89	224.13
817.21	224.10
817.53	224.11
817.85	224.10
818.17	224.10
818.48	224.05
818.80	224.07
819.12	224.04
819.44	224.03
819.76	224.01
820.07	224.01
820.39	224.01
820.71	224.01
821.03	224.02
821.34	224.01
821.66	224.01
821.98	224.02
822.30	224.02
822.61	224.08
822.93	224.06
823.25	224.05
823.57	224.03
823.88	224.04
824.20	224.04
824.52	224.05
824.83	224.03
825.15	224.03
825.47	224.01
825.79	224.01
826.10	223.99
826.42	224.00
826.74	223.99
827.05	223.99
827.37	223.98
827.69	223.96
828.00	223.96
828.32	223.95
828.64	223.95
828.95	223.99
829.27	223.96
829.58	223.96
829.90	223.97
830.22	223.98
830.53	223.96
830.85	223.94
831.17	223.93
831.48	223.92
831.80	223.92
832.11	223.92
832.43	223.91
832.75	223.90
833.06	223.96
833.38	223.94
833.69	223.93
834.01	223.93
834.32	223.94
834.64	223.93
834.96	223.92
835.27	223.91
835.59	223.87
835.90	223.85
836.22	223.84
836.53	223.81
836.85	223.79
837.16	223.90
837.48	223.90
837.79	223.93
838.11	223.93
838.42	223.93
838.74	223.94
839.05	223.93
839.37	223.93
839.68	223.87
840.00	223.86
840.31	223.87
840.63	223.85
840.94	223.84
841.26	223.83
841.57	223.83
841.88	223.84
842.20	223.83
842.51	223.82
842.83	223.81
843.14	223.91
843.46	223.90
843.77	223.84
844.08	223.83
844.40	223.80
844.71	223.78
845.03	223.77
845.34	223.76
845.65	223.75
845.97	223.75
846.28	223.75
846.60	223.76
846.91	223.75
847.22	223.74
847.54	223.77
847.85	223.77
848.16	223.75
848.48	223.73
848.79	223.77
849.10	223.78
849.42	223.79
849.73	223.69
850.04	223.70
850.36	223.66
850.67	223.67
850.98	223.67
851.30	223.69
851.61	223.68
851.92	223.67
852.23	223.70
852.55	223.71
852.86	223.70
853.17	223.71
853.49	223.72
853.80	223.75
854.11	223.75
854.42	223.76
854.74	223.76
855.05	223.77
855.36	223.72
855.67	223.71
855.99	223.71
856.30	223.82
856.61	223.81
856.92	223.81
857.23	223.81
857.55	223.80
857.86	223.78
858.17	223.81
858.48	223.80
858.79	223.78
859.11	223.78
859.42	223.78
859.73	223.75
860.04	223.74
860.35	223.71
860.66	223.68
860.98	223.66
861.29	223.66
861.60	223.65
861.91	223.68
862.22	223.66
862.53	223.63
862.84	223.51
863.16	223.55
863.47	223.53
863.78	223.51
864.09	223.52
864.40	223.53
864.71	223.53
865.02	223.55
865.33	223.53
865.64	223.51
865.95	223.51
866.27	223.57
866.58	223.57
866.89	223.59
867.20	223.58
867.51	223.57
867.82	223.57
868.13	223.60
868.44	223.56
868.75	223.59
869.06	223.60
869.37	223.61
869.68	223.57
869.99	223.59
870.30	223.60
870.61	223.60
870.92	223.58
871.23	223.56
871.54	223.58
871.85	223.60
872.16	223.62
872.47	223.62
872.78	223.56
873.09	223.57
873.40	223.55
873.71	223.56
874.02	223.56
874.33	223.56
874.64	223.53
874.95	223.56
875.26	223.54
875.56	223.53
875.87	223.53
876.18	223.52
876.49	223.62
876.80	223.61
877.11	223.60
877.42	223.60
877.73	223.60
878.04	223.58
878.35	223.58
878.66	223.57
878.96	223.57
879.27	223.58
879.58	223.57
879.89	223.57
880.20	223.60
880.51	223.61
880.82	223.61
881.12	223.62
881.43	223.61
881.74	223.60
882.05	223.60
882.36	223.60
882.67	223.61
882.97	223.50
883.28	223.49
883.59	223.49
883.90	223.50
884.21	223.51
884.51	223.51
884.82	223.50
885.13	223.50
885.44	223.50
885.74	223.49
886.05	223.50
886.36	223.50
886.67	223.46
886.98	223.51
887.28	223.52
887.59	223.51
887.90	223.51
888.20	223.52
888.51	223.54
888.82	223.53
889.13	223.53
889.43	223.62
889.74	223.61
890.05	223.61
890.35	223.60
890.66	223.59
890.97	223.57
891.28	223.56
891.58	223.56
891.89	223.56
892.20	223.55
892.50	223.53
892.81	223.52
893.12	223.51
893.42	223.46
893.73	223.45
894.04	223.45
894.34	223.46
894.65	223.45
894.95	223.45
895.26	223.44
895.57	223.49
895.87	223.37
896.18	223.39
896.48	223.39
896.79	223.39
897.10	223.41
897.40	223.41
897.71	223.42
898.01	223.41
898.32	223.42
898.63	223.42
898.93	223.43
899.24	223.43
899.54	223.42
899.85	223.41
900.15	223.40
900.46	223.38
900.76	223.38
901.07	223.38
901.38	223.37
901.68	223.38
901.99	223.33
902.29	223.35
902.60	223.34
902.90	223.33
903.21	223.31
903.51	223.29
903.82	223.31
904.12	223.30
904.43	223.31
904.73	223.30
905.03	223.30
905.34	223.40
905.64	223.39
905.95	223.39
906.25	223.40
906.56	223.40
906.86	223.40
907.17	223.39
907.47	223.40
907.77	223.38
908.08	223.36
908.38	223.36
908.69	223.36
908.99	223.37
909.30	223.38
909.60	223.39
909.90	223.40
910.21	223.37
910.51	223.36
910.81	223.36
911.12	223.36
911.42	223.37
911.73	223.26
912.03	223.28
912.33	223.30
912.64	223.28
912.94	223.28
913.24	223.27
913.55	223.26
913.85	223.26
914.15	223.28
914.46	223.30
914.76	223.29
915.06	223.28
915.37	223.27
915.67	223.26
915.97	223.25
916.27	223.23
916.58	223.24
916.88	223.23
917.18	223.23
917.49	223.29
917.79	223.29
918.09	223.29
918.39	223.32
918.70	223.31
919.00	223.31
919.30	223.36
919.60	223.35
919.91	223.33
920.21	223.34
920.51	223.31
920.81	223.30
921.12	223.32
921.42	223.32
921.72	223.33
922.02	223.33
922.32	223.35
922.63	223.35
922.93	223.41
923.23	223.42
923.53	223.41
923.83	223.35
924.13	223.36
924.44	223.36
924.74	223.36
925.04	223.40
925.34	223.40
925.64	223.37
925.94	223.38
926.24	223.43
926.55	223.43
926.85	223.45
927.15	223.45
927.45	223.43
927.75	223.44
928.05	223.44
928.35	223.44
928.65	223.45
928.95	223.46
929.26	223.41
929.56	223.43
929.86	223.44
930.16	223.43
930.46	223.42
930.76	223.43
931.06	223.39
931.36	223.36
931.66	223.37
931.96	223.39
932.26	223.38
932.56	223.34
932.86	223.35
933.16	223.34
933.46	223.34
933.76	223.33
934.06	223.34
934.36	223.37
934.66	223.37
934.96	223.35
935.26	223.36
935.56	223.37
935.86	223.35
936.16	223.33
936.46	223.33
936.76	223.32
937.06	223.30
937.36	223.30
937.66	223.30
937.96	223.29
938.26	223.26
938.56	223.26
938.86	223.27
939.16	223.30
939.46	223.31
939.76	223.33
940.06	223.33
940.35	223.31
940.65	223.26
940.95	223.27
941.25	223.25
941.55	223.24
941.85	223.23
942.15	223.25
942.45	223.29
942.75	223.29
943.04	223.30
943.34	223.32
943.64	223.31
943.94	223.30
944.24	223.29
944.54	223.30
944.84	223.29
945.13	223.26
945.43	223.23
945.73	223.22
946.03	223.21
946.33	223.20
946.62	223.18
946.92	223.19
947.22	223.19
947.52	223.19
947.82	223.21
948.11	223.19
948.41	223.16
948.71	223.13
949.01	223.13
949.31	223.12
949.60	223.11
949.90	223.12
950.20	223.12
950.50	223.13
950.79	223.12
951.09	223.14
951.39	223.14
951.69	223.13
951.98	223.15
952.28	223.16
952.58	223.16
952.87	223.17
953.17	223.17
953.47	223.16
953.76	223.16
954.06	223.14
954.36	223.13
954.66	223.14
954.95	223.16
955.25	223.17
955.55	223.17
955.84	223.15
956.14	223.17
956.44	223.17
956.73	223.15
957.03	223.16
957.32	223.16
957.62	223.16
957.92	223.19
958.21	223.18
958.51	223.29
958.81	223.31
959.10	223.31
959.40	223.34
959.69	223.36
959.99	223.37
960.29	223.37
960.58	223.37
960.88	223.41
961.17	223.38
961.47	223.39
961.76	223.38
962.06	223.40
962.36	223.38
962.65	223.39
962.95	223.39
963.24	223.38
963.54	223.39
963.83	223.39
964.13	223.38
964.42	223.36
964.72	223.27
965.01	223.27
965.31	223.26
965.60	223.22
965.90	223.28
966.19	223.26
966.49	223.26
966.78	223.26
967.08	223.24
967.37	223.26
967.67	223.24
967.96	223.26
968.26	223.26
968.55	223.27
968.85	223.27
969.14	223.27
969.43	223.27
969.73	223.25
970.02	223.24
970.32	223.24
970.61	223.23
970.91	223.20
971.20	223.19
971.49	223.18
971.79	223.20
972.08	223.13
972.38	223.13
972.67	223.13
972.96	223.14
973.26	223.13
973.55	223.16
973.85	223.16
974.14	223.14
974.43	223.14
974.73	223.12
975.02	223.12
975.31	223.12
975.61	223.12
975.90	223.11
976.19	223.10
976.49	223.10
976.78	223.12
977.07	223.12
977.37	223.12
977.66	223.14
977.95	223.13
978.24	223.14
978.54	223.16
978.83	223.14
979.12	223.14
979.42	223.15
979.71	223.12
980.00	223.12
980.29	223.12
980.59	223.11
980.88	223.13
981.17	223.13
981.46	223.13
981.76	223.13
982.05	223.16
982.34	223.18
982.63	223.19
982.93	223.18
983.22	223.21
983.51	223.21
983.80	223.22
984.09	223.23
984.39	223.23
984.68	223.21
984.97	223.22
985.26	223.21
985.55	223.21
985.85	223.19
986.14	223.21
986.43	223.23
986.72	223.22
987.01	223.19
987.30	223.19
987.59	223.19
987.89	223.20
988.18	223.16
988.47	223.14
988.76	223.12
989.05	223.11
989.34	223.09
989.63	223.11
989.92	223.09
990.22	223.07
990.51	223.07
990.80	223.07
991.09	223.07
991.38	223.09
991.67	223.09
991.96	223.08
992.25	223.07
992.54	223.05
992.83	223.06
993.12	223.06
993.41	223.07
993.70	223.11
993.99	223.12
994.28	223.14
994.58	223.16
994.87	223.16
995.16	223.16
995.45	223.15
995.74	223.11
996.03	223.13
996.32	223.15
996.61	223.17
996.90	223.16
997.19	223.15
997.48	223.14
997.77	223.14
998.06	223.14
998.34	223.13
998.63	223.13
998.92	223.13
999.21	223.14
999.50	223.14
999.79	223.11
1000.08	223.10
1000.37	223.10
1000.66	223.09
1000.95	223.12
1001.24	223.13
1001.53	223.15
1001.82	223.15
1002.11	223.13
1002.40	223.14
1002.68	223.15
1002.97	223.23
1003.26	223.22
1003.55	223.21
1003.84	223.21
1004.13	223.24
1004.42	223.24
1004.71	223.24
1004.99	223.23
1005.28	223.25
1005.57	223.25
1005.86	223.23
1006.15	223.23
1006.44	223.21
1006.72	223.22
1007.01	223.20
1007.30	223.20
1007.59	223.19
1007.88	223.19
1008.17	223.19
1008.45	223.16
1008.74	223.12
1009.03	223.08
1009.32	223.08
1009.60	223.09
1009.89	223.07
1010.18	223.03
1010.47	223.03
1010.76	223.03
1011.04	223.03
1011.33	223.03
1011.62	223.03
1011.91	223.04
1012.19	223.05
1012.48	223.05
1012.77	223.05
1013.05	223.08
1013.34	223.08
1013.63	223.07
1013.92	223.08
1014.20	223.08
1014.49	223.08
1014.78	223.09
1015.06	223.06
1015.35	223.06
1015.64	223.07
1015.92	223.10
1016.21	223.11
1016.50	223.10
1016.78	223.11
1017.07	223.12
1017.36	223.09
1017.64	223.08
1017.93	223.09
1018.22	223.09
1018.50	223.08
1018.79	223.08
1019.08	223.05
1019.36	223.05
1019.65	223.05
1019.93	223.08
1020.22	223.09
1020.51	223.15
1020.79	223.14
1021.08	223.00
1021.36	222.97
1021.65	223.06
1021.94	223.07
1022.22	223.21
1022.51	222.88
1022.79	223.59
1023.08	223.37
1023.36	224.40
1023.65	222.85
>>>>>End Processed Spectral Data<<<<<
