SpectraSuite Data File
++++++++++++++++++++++++++++++++++++
Date: Wed Sep 30 17:40:33 EDT 2015
User: lab3
Dark Spectrum Present: No
Reference Spectrum Present: No
Number of Sampled Component Spectra: 1
Spectrometers: USB2E7196
Integration Time (usec): 36000 (USB2E7196)
Spectra Averaged: 3000 (USB2E7196)
Boxcar Smoothing: 10 (USB2E7196)
Correct for Electrical Dark: No (USB2E7196)
Strobe/Lamp Enabled: No (USB2E7196)
Correct for Detector Non-linearity: No (USB2E7196)
Correct for Stray Light: No (USB2E7196)
Number of Pixels in Processed Spectrum: 2048
>>>>>Begin Processed Spectral Data<<<<<
339.09	0.00
339.48	210.79
339.86	212.20
340.24	213.73
340.63	215.02
341.01	217.97
341.39	217.69
341.78	219.15
342.16	220.24
342.54	220.72
342.93	209.33
343.31	219.90
343.69	220.44
344.07	220.91
344.46	221.33
344.84	221.71
345.22	221.95
345.60	222.21
345.99	222.40
346.37	222.53
346.75	222.64
347.13	222.72
347.52	222.78
347.90	222.86
348.28	222.90
348.66	222.95
349.05	222.95
349.43	223.00
349.81	223.05
350.19	223.11
350.57	223.17
350.96	223.25
351.34	223.33
351.72	223.43
352.10	223.52
352.48	223.59
352.87	223.66
353.25	223.72
353.63	223.78
354.01	223.84
354.39	223.91
354.77	223.99
355.15	224.09
355.54	224.14
355.92	224.17
356.30	224.25
356.68	224.38
357.06	224.45
357.44	224.50
357.82	224.56
358.20	224.67
358.58	224.73
358.97	224.79
359.35	224.87
359.73	224.95
360.11	225.01
360.49	225.07
360.87	225.11
361.25	225.16
361.63	225.24
362.01	225.30
362.39	225.33
362.77	225.38
363.15	225.41
363.53	225.44
363.91	225.48
364.29	225.50
364.67	225.43
365.05	225.46
365.43	225.48
365.81	225.52
366.19	225.54
366.57	225.58
366.95	225.59
367.33	225.57
367.71	225.57
368.09	225.59
368.47	225.58
368.85	225.58
369.23	225.59
369.61	225.55
369.99	225.57
370.37	225.56
370.75	225.61
371.13	225.57
371.51	225.53
371.89	225.51
372.27	225.49
372.65	225.47
373.03	225.43
373.41	225.39
373.78	225.34
374.16	225.25
374.54	225.18
374.92	225.13
375.30	225.09
375.68	225.02
376.06	224.97
376.44	224.91
376.82	224.86
377.19	224.81
377.57	224.75
377.95	224.65
378.33	224.60
378.71	224.46
379.09	224.42
379.47	224.38
379.84	224.32
380.22	224.26
380.60	224.19
380.98	224.13
381.36	224.08
381.73	224.01
382.11	223.99
382.49	223.95
382.87	223.89
383.25	223.84
383.62	223.91
384.00	223.85
384.38	223.81
384.76	223.79
385.13	223.78
385.51	223.75
385.89	223.70
386.27	223.66
386.64	223.64
387.02	223.60
387.40	223.55
387.78	223.52
388.15	223.49
388.53	223.46
388.91	223.43
389.29	223.40
389.66	223.39
390.04	223.34
390.42	223.32
390.79	223.31
391.17	223.29
391.55	223.15
391.92	223.14
392.30	223.14
392.68	223.11
393.05	223.09
393.43	223.08
393.81	223.08
394.18	223.06
394.56	223.06
394.94	223.09
395.31	223.08
395.69	223.12
396.06	223.15
396.44	223.17
396.82	223.18
397.19	223.26
397.57	223.27
397.95	223.32
398.32	223.32
398.70	223.36
399.07	223.42
399.45	223.45
399.82	223.50
400.20	223.53
400.58	223.58
400.95	223.59
401.33	223.66
401.70	223.79
402.08	223.88
402.45	223.95
402.83	224.04
403.20	224.14
403.58	224.21
403.95	224.33
404.33	224.46
404.71	224.58
405.08	224.75
405.46	224.89
405.83	225.04
406.21	225.20
406.58	225.39
406.96	225.57
407.33	225.77
407.70	226.01
408.08	226.33
408.45	226.60
408.83	226.90
409.20	227.17
409.58	227.42
409.95	227.76
410.33	228.12
410.70	228.47
411.08	228.88
411.45	229.31
411.82	229.74
412.20	230.24
412.57	230.84
412.95	231.29
413.32	231.90
413.69	232.52
414.07	233.18
414.44	233.90
414.82	234.63
415.19	235.49
415.56	236.35
415.94	237.25
416.31	238.26
416.68	239.27
417.06	240.46
417.43	241.56
417.81	242.83
418.18	244.13
418.55	245.54
418.93	247.01
419.30	248.55
419.67	250.18
420.04	251.86
420.42	253.61
420.79	255.64
421.16	257.69
421.54	259.77
421.91	261.96
422.28	264.21
422.66	266.66
423.03	268.98
423.40	271.43
423.77	274.05
424.15	276.74
424.52	279.53
424.89	282.55
425.26	285.55
425.64	288.35
426.01	291.49
426.38	294.70
426.75	298.02
427.13	301.42
427.50	304.97
427.87	308.67
428.24	312.40
428.61	315.97
428.99	319.82
429.36	324.04
429.73	328.09
430.10	332.11
430.47	336.23
430.85	340.47
431.22	344.98
431.59	349.62
431.96	354.13
432.33	359.13
432.70	363.87
433.08	369.47
433.45	374.77
433.82	379.97
434.19	385.80
434.56	391.52
434.93	397.03
435.30	402.48
435.68	408.60
436.05	414.59
436.42	420.59
436.79	426.05
437.16	431.95
437.53	438.26
437.90	444.56
438.27	450.71
438.64	457.37
439.01	463.40
439.38	468.91
439.75	474.21
440.13	480.26
440.50	486.02
440.87	490.55
441.24	495.52
441.61	501.02
441.98	505.04
442.35	509.80
442.72	514.69
443.09	519.37
443.46	522.38
443.83	524.60
444.20	526.47
444.57	529.20
444.94	530.80
445.31	532.46
445.68	533.94
446.05	535.02
446.42	534.82
446.79	534.53
447.16	534.26
447.53	534.07
447.90	532.26
448.27	530.56
448.64	527.90
449.01	526.14
449.37	522.31
449.74	518.83
450.11	514.37
450.48	509.45
450.85	504.50
451.22	500.31
451.59	496.19
451.96	492.44
452.33	486.98
452.70	482.12
453.07	476.21
453.43	470.28
453.80	464.56
454.17	459.05
454.54	453.95
454.91	448.20
455.28	442.77
455.65	437.66
456.02	432.22
456.38	427.83
456.75	422.15
457.12	417.58
457.49	412.97
457.86	408.57
458.23	404.73
458.59	400.49
458.96	396.12
459.33	392.27
459.70	388.35
460.07	385.36
460.43	381.85
460.80	378.55
461.17	375.66
461.54	372.53
461.91	369.61
462.27	366.62
462.64	364.18
463.01	361.39
463.38	358.56
463.74	355.99
464.11	353.71
464.48	351.66
464.85	349.46
465.21	347.78
465.58	345.92
465.95	343.76
466.32	342.04
466.68	340.36
467.05	338.67
467.42	337.03
467.78	335.27
468.15	333.63
468.52	332.41
468.88	330.81
469.25	329.35
469.62	328.19
469.98	326.93
470.35	325.81
470.72	324.80
471.08	323.79
471.45	322.94
471.82	322.01
472.18	321.03
472.55	320.41
472.92	319.63
473.28	319.02
473.65	318.39
474.02	317.80
474.38	317.30
474.75	317.02
475.11	316.61
475.48	316.46
475.85	316.31
476.21	316.25
476.58	316.25
476.94	316.43
477.31	316.54
477.67	316.68
478.04	316.93
478.41	317.26
478.77	317.70
479.14	318.02
479.50	318.56
479.87	319.23
480.23	319.91
480.60	320.55
480.96	321.22
481.33	322.16
481.69	323.10
482.06	324.03
482.42	324.91
482.79	325.97
483.15	327.18
483.52	328.52
483.88	329.84
484.25	331.24
484.61	332.70
484.98	334.27
485.34	336.02
485.71	337.84
486.07	339.77
486.44	341.70
486.80	343.84
487.17	346.04
487.53	348.45
487.90	350.97
488.26	353.70
488.62	356.57
488.99	359.44
489.35	362.46
489.72	365.70
490.08	369.12
490.44	372.62
490.81	376.29
491.17	380.06
491.54	384.08
491.90	388.20
492.26	392.63
492.63	397.30
492.99	402.16
493.36	407.15
493.72	412.40
494.08	417.80
494.45	423.50
494.81	429.40
495.17	435.41
495.54	441.76
495.90	448.44
496.26	455.25
496.63	462.29
496.99	469.62
497.35	477.31
497.72	485.29
498.08	493.44
498.44	501.83
498.80	510.77
499.17	519.91
499.53	529.38
499.89	539.09
500.26	548.98
500.62	559.14
500.98	569.99
501.34	580.95
501.71	592.44
502.07	604.15
502.43	616.27
502.79	628.75
503.16	641.63
503.52	654.66
503.88	668.02
504.24	681.87
504.60	695.96
504.97	710.44
505.33	725.31
505.69	741.07
506.05	757.05
506.41	773.06
506.78	789.37
507.14	806.21
507.50	823.60
507.86	841.38
508.22	859.41
508.59	877.45
508.95	896.22
509.31	915.46
509.67	935.38
510.03	955.53
510.39	975.88
510.75	996.44
511.12	1017.30
511.48	1038.49
511.84	1059.84
512.20	1081.52
512.56	1104.30
512.92	1127.24
513.28	1149.90
513.64	1172.91
514.00	1196.35
514.37	1220.09
514.73	1243.87
515.09	1267.47
515.45	1291.50
515.81	1316.13
516.17	1340.80
516.53	1365.22
516.89	1389.70
517.25	1414.34
517.61	1439.19
517.97	1464.27
518.33	1489.18
518.69	1514.31
519.05	1539.70
519.41	1565.18
519.77	1590.95
520.13	1615.98
520.49	1641.21
520.85	1666.66
521.21	1691.98
521.57	1717.91
521.93	1743.15
522.29	1769.20
522.65	1795.01
523.01	1820.63
523.37	1845.47
523.73	1871.08
524.09	1896.89
524.45	1922.52
524.81	1947.70
525.17	1972.77
525.53	1997.48
525.89	2022.14
526.25	2046.95
526.61	2071.20
526.97	2095.77
527.33	2120.29
527.68	2144.58
528.04	2168.20
528.40	2191.63
528.76	2215.28
529.12	2237.88
529.48	2260.96
529.84	2282.23
530.20	2303.98
530.56	2325.41
530.91	2346.98
531.27	2367.94
531.63	2388.29
531.99	2408.15
532.35	2427.87
532.71	2447.77
533.07	2468.15
533.42	2487.06
533.78	2506.30
534.14	2525.60
534.50	2544.01
534.86	2563.04
535.21	2580.36
535.57	2597.40
535.93	2613.78
536.29	2628.84
536.65	2644.73
537.00	2659.52
537.36	2674.94
537.72	2689.35
538.08	2703.48
538.44	2716.44
538.79	2729.70
539.15	2741.16
539.51	2752.51
539.87	2763.23
540.22	2771.72
540.58	2780.52
540.94	2789.76
541.29	2797.61
541.65	2804.50
542.01	2810.92
542.37	2815.40
542.72	2821.76
543.08	2827.60
543.44	2833.29
543.79	2838.41
544.15	2842.57
544.51	2846.64
544.87	2849.71
545.22	2852.48
545.58	2854.18
545.94	2856.40
546.29	2857.07
546.65	2857.75
547.01	2858.71
547.36	2859.82
547.72	2861.25
548.07	2861.05
548.43	2860.32
548.79	2858.83
549.14	2857.24
549.50	2856.32
549.86	2854.40
550.21	2850.23
550.57	2846.56
550.92	2841.43
551.28	2836.87
551.64	2832.16
551.99	2827.80
552.35	2823.09
552.70	2817.82
553.06	2813.24
553.41	2808.11
553.77	2802.32
554.13	2797.50
554.48	2791.52
554.84	2784.05
555.19	2776.62
555.55	2768.56
555.90	2761.04
556.26	2754.63
556.61	2747.63
556.97	2738.39
557.32	2730.30
557.68	2722.28
558.03	2713.67
558.39	2705.81
558.74	2697.98
559.10	2689.12
559.45	2679.83
559.81	2670.67
560.16	2660.99
560.52	2650.96
560.87	2641.97
561.23	2632.59
561.58	2622.70
561.94	2612.66
562.29	2602.03
562.64	2591.91
563.00	2582.14
563.35	2572.26
563.71	2561.24
564.06	2549.91
564.42	2539.49
564.77	2528.68
565.12	2517.97
565.48	2506.96
565.83	2496.61
566.19	2486.39
566.54	2475.56
566.89	2463.95
567.25	2452.47
567.60	2441.73
567.96	2430.47
568.31	2417.92
568.66	2405.40
569.02	2393.83
569.37	2382.02
569.72	2370.79
570.08	2358.80
570.43	2346.19
570.78	2333.21
571.14	2320.32
571.49	2308.03
571.84	2296.03
572.20	2282.63
572.55	2269.80
572.90	2256.76
573.26	2242.85
573.61	2228.31
573.96	2214.12
574.31	2200.20
574.67	2186.50
575.02	2172.30
575.37	2157.76
575.72	2143.42
576.08	2129.55
576.43	2114.57
576.78	2099.68
577.13	2085.57
577.49	2071.62
577.84	2058.14
578.19	2043.85
578.54	2029.06
578.90	2013.71
579.25	1998.11
579.60	1984.08
579.95	1969.59
580.30	1955.20
580.66	1941.00
581.01	1926.37
581.36	1912.17
581.71	1898.58
582.06	1884.43
582.42	1870.52
582.77	1857.22
583.12	1843.42
583.47	1829.81
583.82	1816.35
584.17	1802.70
584.53	1788.94
584.88	1775.18
585.23	1761.03
585.58	1747.45
585.93	1734.17
586.28	1721.81
586.63	1709.19
586.98	1695.74
587.34	1682.57
587.69	1668.92
588.04	1655.60
588.39	1642.86
588.74	1629.53
589.09	1616.03
589.44	1602.52
589.79	1589.45
590.14	1576.35
590.49	1563.50
590.84	1550.46
591.19	1538.04
591.54	1525.21
591.89	1512.17
592.25	1499.42
592.60	1486.30
592.95	1473.70
593.30	1461.54
593.65	1449.11
594.00	1437.00
594.35	1425.56
594.70	1413.27
595.05	1401.97
595.40	1390.44
595.75	1378.43
596.10	1367.27
596.45	1356.35
596.80	1345.84
597.15	1335.13
597.50	1324.36
597.85	1313.82
598.19	1303.49
598.54	1292.60
598.89	1282.40
599.24	1272.47
599.59	1262.38
599.94	1253.29
600.29	1244.08
600.64	1234.59
600.99	1224.51
601.34	1214.88
601.69	1204.74
602.04	1195.74
602.39	1186.65
602.74	1177.85
603.08	1169.25
603.43	1160.13
603.78	1150.84
604.13	1141.68
604.48	1132.45
604.83	1123.50
605.18	1114.46
605.53	1105.33
605.87	1096.27
606.22	1087.49
606.57	1078.50
606.92	1069.50
607.27	1060.37
607.62	1051.37
607.96	1042.57
608.31	1034.88
608.66	1026.73
609.01	1018.98
609.36	1011.10
609.70	1002.96
610.05	994.69
610.40	986.76
610.75	978.94
611.10	971.36
611.44	963.44
611.79	955.83
612.14	947.82
612.49	940.01
612.83	932.68
613.18	925.42
613.53	917.99
613.88	910.67
614.22	903.99
614.57	897.07
614.92	890.15
615.27	883.24
615.61	876.12
615.96	869.27
616.31	862.31
616.65	855.34
617.00	848.59
617.35	841.92
617.70	835.32
618.04	828.82
618.39	822.32
618.74	816.17
619.08	809.84
619.43	803.76
619.78	797.67
620.12	791.40
620.47	785.32
620.82	779.33
621.16	773.63
621.51	767.56
621.85	761.52
622.20	755.51
622.55	749.69
622.89	743.79
623.24	737.94
623.59	732.19
623.93	726.48
624.28	720.95
624.62	715.39
624.97	709.79
625.32	704.31
625.66	698.72
626.01	693.12
626.35	687.66
626.70	682.25
627.04	677.08
627.39	671.93
627.73	666.88
628.08	662.05
628.43	657.05
628.77	652.12
629.12	647.33
629.46	642.76
629.81	637.99
630.15	633.16
630.50	628.47
630.84	623.96
631.19	619.63
631.53	615.33
631.88	610.95
632.22	606.65
632.57	602.59
632.91	598.45
633.26	594.40
633.60	590.45
633.95	586.64
634.29	582.61
634.64	578.58
634.98	574.46
635.32	570.48
635.67	566.70
636.01	562.86
636.36	559.04
636.70	555.39
637.05	551.70
637.39	548.22
637.73	544.57
638.08	541.02
638.42	537.45
638.77	533.74
639.11	529.99
639.45	526.29
639.80	522.60
640.14	519.10
640.49	515.57
640.83	511.89
641.17	508.27
641.52	504.82
641.86	501.37
642.20	498.11
642.55	494.69
642.89	491.33
643.23	488.19
643.58	485.30
643.92	482.26
644.26	479.27
644.61	476.25
644.95	473.25
645.29	470.18
645.64	467.08
645.98	464.14
646.32	461.39
646.66	458.63
647.01	455.84
647.35	453.11
647.69	450.26
648.04	447.58
648.38	444.90
648.72	442.20
649.06	439.57
649.41	436.98
649.75	434.38
650.09	431.81
650.43	429.23
650.78	426.62
651.12	424.00
651.46	421.50
651.80	419.10
652.14	416.78
652.49	414.47
652.83	412.22
653.17	409.94
653.51	407.74
653.85	405.61
654.20	403.41
654.54	401.13
654.88	399.05
655.22	397.01
655.56	394.95
655.90	392.98
656.25	391.02
656.59	389.05
656.93	387.19
657.27	385.37
657.61	383.45
657.95	381.59
658.29	379.75
658.64	377.91
658.98	376.08
659.32	374.26
659.66	372.55
660.00	370.84
660.34	369.18
660.68	367.47
661.02	365.68
661.36	364.04
661.70	362.45
662.05	360.82
662.39	359.19
662.73	357.64
663.07	356.13
663.41	354.66
663.75	353.21
664.09	351.75
664.43	350.23
664.77	348.80
665.11	347.31
665.45	345.90
665.79	344.49
666.13	343.06
666.47	341.63
666.81	340.17
667.15	338.69
667.49	337.30
667.83	335.96
668.17	334.67
668.51	333.39
668.85	332.13
669.19	330.95
669.53	329.70
669.87	328.43
670.21	327.16
670.55	325.91
670.89	324.75
671.23	323.55
671.57	322.36
671.91	321.23
672.25	320.16
672.58	319.09
672.92	317.99
673.26	316.97
673.60	315.94
673.94	314.90
674.28	313.92
674.62	312.94
674.96	311.91
675.30	310.94
675.64	309.96
675.97	309.00
676.31	308.00
676.65	307.03
676.99	306.13
677.33	305.17
677.67	304.27
678.01	303.28
678.34	302.37
678.68	301.51
679.02	300.61
679.36	299.73
679.70	298.85
680.04	297.99
680.37	297.13
680.71	296.29
681.05	295.53
681.39	294.71
681.73	293.85
682.06	293.04
682.40	292.25
682.74	291.47
683.08	290.71
683.42	289.94
683.75	289.25
684.09	288.46
684.43	287.73
684.77	286.98
685.10	286.30
685.44	285.59
685.78	284.87
686.12	284.19
686.45	283.49
686.79	282.80
687.13	282.13
687.46	281.43
687.80	280.76
688.14	280.04
688.48	279.39
688.81	278.74
689.15	278.13
689.49	277.47
689.82	276.84
690.16	276.15
690.50	275.52
690.83	274.89
691.17	274.27
691.51	273.68
691.84	273.10
692.18	272.47
692.52	271.84
692.85	271.24
693.19	270.69
693.52	270.12
693.86	269.56
694.20	269.00
694.53	268.47
694.87	267.91
695.21	267.39
695.54	266.86
695.88	266.32
696.21	265.75
696.55	265.24
696.88	264.72
697.22	264.22
697.56	263.72
697.89	263.17
698.23	262.65
698.56	262.12
698.90	261.64
699.23	261.15
699.57	260.70
699.90	260.24
700.24	259.74
700.58	259.28
700.91	258.85
701.25	258.49
701.58	258.10
701.92	257.70
702.25	257.27
702.59	256.84
702.92	256.44
703.26	256.03
703.59	255.61
703.93	255.29
704.26	254.90
704.60	254.51
704.93	254.15
705.26	253.77
705.60	253.43
705.93	253.05
706.27	252.72
706.60	252.38
706.94	252.05
707.27	251.66
707.61	251.29
707.94	250.92
708.27	250.47
708.61	250.07
708.94	249.70
709.28	249.36
709.61	249.02
709.94	248.71
710.28	248.41
710.61	248.12
710.95	247.73
711.28	247.49
711.61	247.19
711.95	246.92
712.28	246.63
712.61	246.32
712.95	246.09
713.28	245.85
713.61	245.56
713.95	245.26
714.28	245.02
714.61	244.74
714.95	244.48
715.28	244.23
715.61	243.98
715.95	243.74
716.28	243.49
716.61	243.27
716.95	243.02
717.28	242.79
717.61	242.54
717.94	242.31
718.28	242.02
718.61	241.78
718.94	241.54
719.27	241.32
719.61	241.12
719.94	240.88
720.27	240.62
720.60	240.40
720.94	240.20
721.27	240.00
721.60	239.83
721.93	239.63
722.27	239.47
722.60	239.30
722.93	239.09
723.26	238.91
723.59	238.71
723.93	238.54
724.26	238.37
724.59	238.19
724.92	238.03
725.25	237.89
725.59	237.72
725.92	237.57
726.25	237.41
726.58	237.24
726.91	237.06
727.24	236.92
727.57	236.76
727.91	236.59
728.24	236.45
728.57	236.29
728.90	236.15
729.23	235.96
729.56	235.87
729.89	235.72
730.22	235.56
730.55	235.42
730.89	235.27
731.22	235.12
731.55	234.98
731.88	234.84
732.21	234.69
732.54	234.56
732.87	234.43
733.20	234.31
733.53	234.19
733.86	234.08
734.19	233.95
734.52	233.83
734.85	233.79
735.18	233.65
735.51	233.56
735.84	233.44
736.17	233.36
736.50	233.19
736.83	233.20
737.16	233.10
737.49	233.00
737.82	232.90
738.15	232.81
738.48	232.71
738.81	232.60
739.14	232.48
739.47	232.37
739.80	232.26
740.13	232.17
740.46	232.05
740.79	231.94
741.12	231.84
741.45	231.74
741.78	231.57
742.11	231.51
742.44	231.39
742.77	231.30
743.10	231.19
743.43	231.09
743.75	230.89
744.08	230.95
744.41	230.86
744.74	230.77
745.07	230.65
745.40	230.58
745.73	230.54
746.06	230.47
746.39	230.41
746.71	230.31
747.04	230.22
747.37	230.15
747.70	230.09
748.03	230.02
748.36	229.96
748.68	229.88
749.01	229.78
749.34	229.72
749.67	229.64
750.00	229.58
750.33	229.60
750.65	229.54
750.98	229.32
751.31	229.25
751.64	229.18
751.97	229.18
752.29	229.10
752.62	228.98
752.95	228.90
753.28	228.82
753.60	228.75
753.93	228.70
754.26	228.64
754.59	228.55
754.91	228.47
755.24	228.39
755.57	228.37
755.90	228.31
756.22	228.23
756.55	228.15
756.88	228.07
757.20	227.93
757.53	227.85
757.86	227.79
758.19	227.74
758.51	227.68
758.84	227.57
759.17	227.50
759.49	227.46
759.82	227.45
760.15	227.41
760.47	227.36
760.80	227.29
761.13	227.25
761.45	227.20
761.78	227.16
762.11	227.11
762.43	227.01
762.76	226.97
763.08	226.94
763.41	226.91
763.74	226.87
764.06	226.83
764.39	226.79
764.71	226.75
765.04	226.69
765.37	226.64
765.69	226.60
766.02	226.56
766.34	226.51
766.67	226.43
767.00	226.42
767.32	226.43
767.65	226.46
767.97	226.41
768.30	226.38
768.62	226.34
768.95	226.28
769.27	226.25
769.60	226.22
769.92	226.16
770.25	226.10
770.57	226.05
770.90	226.01
771.22	225.97
771.55	225.94
771.87	225.92
772.20	225.87
772.52	225.93
772.85	226.02
773.17	226.00
773.50	225.96
773.82	225.91
774.15	225.83
774.47	225.72
774.80	225.68
775.12	225.65
775.45	225.62
775.77	225.60
776.09	225.57
776.42	225.55
776.74	225.56
777.07	225.53
777.39	225.51
777.72	225.47
778.04	225.46
778.36	225.42
778.69	225.39
779.01	225.38
779.33	225.27
779.66	225.13
779.98	225.09
780.31	225.07
780.63	225.09
780.95	225.09
781.28	225.07
781.60	225.04
781.92	225.02
782.25	225.00
782.57	224.97
782.89	224.94
783.22	224.92
783.54	224.87
783.86	224.86
784.19	224.83
784.51	224.84
784.83	224.80
785.16	224.78
785.48	224.77
785.80	224.74
786.12	224.73
786.45	224.71
786.77	224.70
787.09	224.67
787.42	224.62
787.74	224.60
788.06	224.59
788.38	224.57
788.71	224.54
789.03	224.53
789.35	224.53
789.67	224.50
789.99	224.49
790.32	224.46
790.64	224.46
790.96	224.54
791.28	224.49
791.61	224.47
791.93	224.47
792.25	224.45
792.57	224.51
792.89	224.48
793.21	224.47
793.54	224.44
793.86	224.42
794.18	224.41
794.50	224.37
794.82	224.36
795.14	224.35
795.47	224.37
795.79	224.35
796.11	224.32
796.43	224.30
796.75	224.29
797.07	224.28
797.39	224.26
797.71	224.16
798.04	224.15
798.36	224.15
798.68	224.14
799.00	224.13
799.32	224.07
799.64	224.08
799.96	224.06
800.28	224.07
800.60	224.06
800.92	224.06
801.24	224.04
801.56	224.04
801.89	224.03
802.21	224.01
802.53	223.98
802.85	224.00
803.17	224.04
803.49	224.01
803.81	223.99
804.13	223.97
804.45	223.95
804.77	223.95
805.09	223.93
805.41	223.91
805.73	223.88
806.05	223.84
806.37	223.82
806.69	223.80
807.01	223.78
807.33	223.79
807.65	223.74
807.97	223.78
808.28	223.75
808.60	223.74
808.92	223.72
809.24	223.78
809.56	223.75
809.88	223.71
810.20	223.71
810.52	223.72
810.84	223.71
811.16	223.68
811.48	223.67
811.80	223.70
812.12	223.70
812.43	223.72
812.75	223.72
813.07	223.71
813.39	223.71
813.71	223.69
814.03	223.67
814.35	223.67
814.67	223.61
814.98	223.60
815.30	223.61
815.62	223.58
815.94	223.51
816.26	223.51
816.58	223.49
816.89	223.49
817.21	223.45
817.53	223.45
817.85	223.46
818.17	223.45
818.48	223.39
818.80	223.40
819.12	223.38
819.44	223.35
819.76	223.33
820.07	223.33
820.39	223.32
820.71	223.33
821.03	223.33
821.34	223.31
821.66	223.32
821.98	223.32
822.30	223.32
822.61	223.38
822.93	223.35
823.25	223.35
823.57	223.34
823.88	223.34
824.20	223.34
824.52	223.35
824.83	223.34
825.15	223.33
825.47	223.32
825.79	223.33
826.10	223.32
826.42	223.31
826.74	223.31
827.05	223.31
827.37	223.31
827.69	223.30
828.00	223.30
828.32	223.30
828.64	223.27
828.95	223.33
829.27	223.29
829.58	223.29
829.90	223.31
830.22	223.32
830.53	223.30
830.85	223.29
831.17	223.27
831.48	223.26
831.80	223.27
832.11	223.26
832.43	223.25
832.75	223.25
833.06	223.31
833.38	223.28
833.69	223.27
834.01	223.27
834.32	223.26
834.64	223.24
834.96	223.24
835.27	223.24
835.59	223.20
835.90	223.18
836.22	223.18
836.53	223.15
836.85	223.13
837.16	223.22
837.48	223.21
837.79	223.24
838.11	223.24
838.42	223.24
838.74	223.25
839.05	223.24
839.37	223.24
839.68	223.17
840.00	223.17
840.31	223.18
840.63	223.17
840.94	223.16
841.26	223.16
841.57	223.15
841.88	223.16
842.20	223.15
842.51	223.13
842.83	223.13
843.14	223.22
843.46	223.22
843.77	223.17
844.08	223.17
844.40	223.13
844.71	223.12
845.03	223.11
845.34	223.10
845.65	223.10
845.97	223.10
846.28	223.10
846.60	223.10
846.91	223.08
847.22	223.08
847.54	223.10
847.85	223.09
848.16	223.09
848.48	223.07
848.79	223.11
849.10	223.12
849.42	223.12
849.73	223.03
850.04	223.02
850.36	222.99
850.67	223.01
850.98	223.02
851.30	223.02
851.61	223.02
851.92	223.01
852.23	223.04
852.55	223.04
852.86	223.05
853.17	223.05
853.49	223.08
853.80	223.09
854.11	223.10
854.42	223.12
854.74	223.11
855.05	223.11
855.36	223.05
855.67	223.05
855.99	223.05
856.30	223.17
856.61	223.17
856.92	223.16
857.23	223.16
857.55	223.15
857.86	223.15
858.17	223.16
858.48	223.14
858.79	223.12
859.11	223.12
859.42	223.11
859.73	223.09
860.04	223.08
860.35	223.05
860.66	223.01
860.98	223.01
861.29	223.02
861.60	223.01
861.91	223.05
862.22	223.03
862.53	223.01
862.84	222.89
863.16	222.90
863.47	222.89
863.78	222.87
864.09	222.87
864.40	222.88
864.71	222.88
865.02	222.89
865.33	222.88
865.64	222.86
865.95	222.86
866.27	222.93
866.58	222.91
866.89	222.93
867.20	222.93
867.51	222.91
867.82	222.90
868.13	222.93
868.44	222.90
868.75	222.93
869.06	222.93
869.37	222.94
869.68	222.92
869.99	222.93
870.30	222.94
870.61	222.95
870.92	222.93
871.23	222.92
871.54	222.93
871.85	222.95
872.16	222.97
872.47	222.96
872.78	222.90
873.09	222.91
873.40	222.90
873.71	222.90
874.02	222.91
874.33	222.91
874.64	222.88
874.95	222.90
875.26	222.87
875.56	222.87
875.87	222.87
876.18	222.86
876.49	222.96
876.80	222.96
877.11	222.94
877.42	222.94
877.73	222.94
878.04	222.93
878.35	222.92
878.66	222.92
878.96	222.92
879.27	222.91
879.58	222.91
879.89	222.90
880.20	222.93
880.51	222.93
880.82	222.92
881.12	222.93
881.43	222.91
881.74	222.90
882.05	222.89
882.36	222.90
882.67	222.90
882.97	222.79
883.28	222.78
883.59	222.78
883.90	222.79
884.21	222.81
884.51	222.79
884.82	222.79
885.13	222.78
885.44	222.78
885.74	222.78
886.05	222.77
886.36	222.77
886.67	222.74
886.98	222.79
887.28	222.80
887.59	222.80
887.90	222.80
888.20	222.80
888.51	222.82
888.82	222.79
889.13	222.80
889.43	222.89
889.74	222.88
890.05	222.87
890.35	222.86
890.66	222.85
890.97	222.84
891.28	222.83
891.58	222.83
891.89	222.83
892.20	222.82
892.50	222.81
892.81	222.80
893.12	222.80
893.42	222.75
893.73	222.75
894.04	222.75
894.34	222.75
894.65	222.75
894.95	222.74
895.26	222.75
895.57	222.79
895.87	222.68
896.18	222.71
896.48	222.72
896.79	222.71
897.10	222.72
897.40	222.73
897.71	222.74
898.01	222.73
898.32	222.74
898.63	222.74
898.93	222.75
899.24	222.75
899.54	222.74
899.85	222.74
900.15	222.73
900.46	222.74
900.76	222.75
901.07	222.75
901.38	222.75
901.68	222.76
901.99	222.71
902.29	222.71
902.60	222.70
902.90	222.68
903.21	222.68
903.51	222.67
903.82	222.68
904.12	222.68
904.43	222.69
904.73	222.68
905.03	222.69
905.34	222.79
905.64	222.77
905.95	222.78
906.25	222.78
906.56	222.77
906.86	222.76
907.17	222.75
907.47	222.76
907.77	222.75
908.08	222.72
908.38	222.73
908.69	222.73
908.99	222.76
909.30	222.76
909.60	222.76
909.90	222.76
910.21	222.73
910.51	222.71
910.81	222.70
911.12	222.71
911.42	222.71
911.73	222.60
912.03	222.61
912.33	222.63
912.64	222.62
912.94	222.61
913.24	222.60
913.55	222.59
913.85	222.58
914.15	222.60
914.46	222.61
914.76	222.60
915.06	222.60
915.37	222.58
915.67	222.58
915.97	222.58
916.27	222.57
916.58	222.57
916.88	222.58
917.18	222.57
917.49	222.63
917.79	222.63
918.09	222.64
918.39	222.66
918.70	222.65
919.00	222.65
919.30	222.70
919.60	222.70
919.91	222.69
920.21	222.70
920.51	222.68
920.81	222.67
921.12	222.68
921.42	222.68
921.72	222.68
922.02	222.68
922.32	222.69
922.63	222.69
922.93	222.75
923.23	222.75
923.53	222.74
923.83	222.67
924.13	222.68
924.44	222.68
924.74	222.70
925.04	222.72
925.34	222.71
925.64	222.66
925.94	222.66
926.24	222.72
926.55	222.71
926.85	222.72
927.15	222.72
927.45	222.72
927.75	222.72
928.05	222.72
928.35	222.72
928.65	222.73
928.95	222.75
929.26	222.69
929.56	222.71
929.86	222.73
930.16	222.72
930.46	222.71
930.76	222.70
931.06	222.65
931.36	222.62
931.66	222.64
931.96	222.66
932.26	222.66
932.56	222.61
932.86	222.62
933.16	222.61
933.46	222.60
933.76	222.58
934.06	222.60
934.36	222.63
934.66	222.63
934.96	222.61
935.26	222.61
935.56	222.62
935.86	222.59
936.16	222.57
936.46	222.57
936.76	222.56
937.06	222.56
937.36	222.57
937.66	222.58
937.96	222.56
938.26	222.54
938.56	222.54
938.86	222.54
939.16	222.56
939.46	222.56
939.76	222.58
940.06	222.57
940.35	222.55
940.65	222.50
940.95	222.51
941.25	222.48
941.55	222.47
941.85	222.46
942.15	222.49
942.45	222.52
942.75	222.52
943.04	222.53
943.34	222.54
943.64	222.54
943.94	222.52
944.24	222.52
944.54	222.53
944.84	222.53
945.13	222.51
945.43	222.50
945.73	222.49
946.03	222.48
946.33	222.48
946.62	222.47
946.92	222.47
947.22	222.48
947.52	222.49
947.82	222.50
948.11	222.49
948.41	222.46
948.71	222.43
949.01	222.43
949.31	222.43
949.60	222.41
949.90	222.42
950.20	222.42
950.50	222.42
950.79	222.42
951.09	222.44
951.39	222.44
951.69	222.43
951.98	222.44
952.28	222.45
952.58	222.44
952.87	222.45
953.17	222.46
953.47	222.45
953.76	222.44
954.06	222.42
954.36	222.42
954.66	222.43
954.95	222.45
955.25	222.46
955.55	222.47
955.84	222.45
956.14	222.46
956.44	222.47
956.73	222.45
957.03	222.46
957.32	222.45
957.62	222.45
957.92	222.47
958.21	222.46
958.51	222.58
958.81	222.59
959.10	222.59
959.40	222.61
959.69	222.62
959.99	222.63
960.29	222.64
960.58	222.62
960.88	222.66
961.17	222.64
961.47	222.64
961.76	222.63
962.06	222.65
962.36	222.63
962.65	222.64
962.95	222.65
963.24	222.65
963.54	222.65
963.83	222.66
964.13	222.65
964.42	222.65
964.72	222.55
965.01	222.56
965.31	222.56
965.60	222.54
965.90	222.60
966.19	222.59
966.49	222.60
966.78	222.60
967.08	222.59
967.37	222.60
967.67	222.59
967.96	222.60
968.26	222.60
968.55	222.61
968.85	222.61
969.14	222.60
969.43	222.60
969.73	222.58
970.02	222.58
970.32	222.58
970.61	222.56
970.91	222.54
971.20	222.53
971.49	222.52
971.79	222.53
972.08	222.45
972.38	222.46
972.67	222.45
972.96	222.47
973.26	222.45
973.55	222.49
973.85	222.47
974.14	222.47
974.43	222.48
974.73	222.46
975.02	222.45
975.31	222.46
975.61	222.45
975.90	222.45
976.19	222.44
976.49	222.44
976.78	222.45
977.07	222.45
977.37	222.46
977.66	222.47
977.95	222.45
978.24	222.46
978.54	222.48
978.83	222.47
979.12	222.46
979.42	222.46
979.71	222.44
980.00	222.44
980.29	222.43
980.59	222.42
980.88	222.45
981.17	222.44
981.46	222.44
981.76	222.44
982.05	222.47
982.34	222.48
982.63	222.48
982.93	222.48
983.22	222.50
983.51	222.50
983.80	222.51
984.09	222.53
984.39	222.52
984.68	222.51
984.97	222.52
985.26	222.51
985.55	222.52
985.85	222.50
986.14	222.52
986.43	222.54
986.72	222.54
987.01	222.50
987.30	222.50
987.59	222.50
987.89	222.50
988.18	222.47
988.47	222.47
988.76	222.47
989.05	222.46
989.34	222.45
989.63	222.47
989.92	222.45
990.22	222.43
990.51	222.43
990.80	222.42
991.09	222.42
991.38	222.43
991.67	222.42
991.96	222.41
992.25	222.40
992.54	222.38
992.83	222.37
993.12	222.37
993.41	222.39
993.70	222.43
993.99	222.45
994.28	222.46
994.58	222.47
994.87	222.46
995.16	222.46
995.45	222.45
995.74	222.42
996.03	222.44
996.32	222.45
996.61	222.47
996.90	222.47
997.19	222.47
997.48	222.47
997.77	222.46
998.06	222.46
998.34	222.46
998.63	222.47
998.92	222.47
999.21	222.49
999.50	222.49
999.79	222.44
1000.08	222.44
1000.37	222.44
1000.66	222.42
1000.95	222.44
1001.24	222.45
1001.53	222.46
1001.82	222.45
1002.11	222.42
1002.40	222.43
1002.68	222.45
1002.97	222.52
1003.26	222.51
1003.55	222.50
1003.84	222.50
1004.13	222.54
1004.42	222.53
1004.71	222.53
1004.99	222.52
1005.28	222.54
1005.57	222.54
1005.86	222.53
1006.15	222.51
1006.44	222.50
1006.72	222.51
1007.01	222.50
1007.30	222.49
1007.59	222.48
1007.88	222.48
1008.17	222.50
1008.45	222.47
1008.74	222.42
1009.03	222.37
1009.32	222.37
1009.60	222.38
1009.89	222.37
1010.18	222.33
1010.47	222.32
1010.76	222.31
1011.04	222.31
1011.33	222.31
1011.62	222.31
1011.91	222.32
1012.19	222.32
1012.48	222.32
1012.77	222.31
1013.05	222.34
1013.34	222.34
1013.63	222.34
1013.92	222.35
1014.20	222.34
1014.49	222.35
1014.78	222.37
1015.06	222.34
1015.35	222.34
1015.64	222.36
1015.92	222.37
1016.21	222.38
1016.50	222.37
1016.78	222.39
1017.07	222.40
1017.36	222.38
1017.64	222.36
1017.93	222.37
1018.22	222.36
1018.50	222.37
1018.79	222.37
1019.08	222.33
1019.36	222.34
1019.65	222.33
1019.93	222.36
1020.22	222.38
1020.51	222.43
1020.79	222.42
1021.08	222.17
1021.36	222.19
1021.65	222.37
1021.94	222.25
1022.22	222.51
1022.51	222.16
1022.79	222.97
1023.08	222.59
1023.36	223.67
1023.65	222.18
>>>>>End Processed Spectral Data<<<<<
