SpectraSuite Data File
++++++++++++++++++++++++++++++++++++
Date: Wed Sep 30 15:35:02 EDT 2015
User: lab3
Dark Spectrum Present: No
Reference Spectrum Present: No
Number of Sampled Component Spectra: 1
Spectrometers: USB2E7196
Integration Time (usec): 36000 (USB2E7196)
Spectra Averaged: 1500 (USB2E7196)
Boxcar Smoothing: 10 (USB2E7196)
Correct for Electrical Dark: No (USB2E7196)
Strobe/Lamp Enabled: No (USB2E7196)
Correct for Detector Non-linearity: No (USB2E7196)
Correct for Stray Light: No (USB2E7196)
Number of Pixels in Processed Spectrum: 2048
>>>>>Begin Processed Spectral Data<<<<<
339.09	0.00
339.48	211.54
339.86	212.97
340.24	214.48
340.63	215.82
341.01	218.68
341.39	218.52
341.78	219.74
342.16	221.02
342.54	221.49
342.93	210.03
343.31	220.65
343.69	221.19
344.07	221.66
344.46	222.08
344.84	222.46
345.22	222.70
345.60	222.95
345.99	223.15
346.37	223.28
346.75	223.39
347.13	223.46
347.52	223.54
347.90	223.60
348.28	223.64
348.66	223.70
349.05	223.70
349.43	223.75
349.81	223.81
350.19	223.87
350.57	223.92
350.96	224.00
351.34	224.10
351.72	224.18
352.10	224.28
352.48	224.34
352.87	224.41
353.25	224.47
353.63	224.53
354.01	224.59
354.39	224.68
354.77	224.75
355.15	224.85
355.54	224.90
355.92	224.93
356.30	225.01
356.68	225.14
357.06	225.22
357.44	225.27
357.82	225.33
358.20	225.43
358.58	225.50
358.97	225.56
359.35	225.63
359.73	225.71
360.11	225.77
360.49	225.83
360.87	225.88
361.25	225.94
361.63	226.02
362.01	226.08
362.39	226.10
362.77	226.14
363.15	226.17
363.53	226.21
363.91	226.24
364.29	226.26
364.67	226.19
365.05	226.21
365.43	226.25
365.81	226.27
366.19	226.30
366.57	226.35
366.95	226.34
367.33	226.32
367.71	226.32
368.09	226.33
368.47	226.32
368.85	226.30
369.23	226.31
369.61	226.25
369.99	226.26
370.37	226.25
370.75	226.30
371.13	226.26
371.51	226.22
371.89	226.20
372.27	226.17
372.65	226.14
373.03	226.09
373.41	226.04
373.78	225.99
374.16	225.89
374.54	225.81
374.92	225.77
375.30	225.73
375.68	225.66
376.06	225.62
376.44	225.56
376.82	225.51
377.19	225.45
377.57	225.40
377.95	225.31
378.33	225.25
378.71	225.12
379.09	225.07
379.47	225.04
379.84	224.97
380.22	224.91
380.60	224.84
380.98	224.79
381.36	224.74
381.73	224.68
382.11	224.65
382.49	224.60
382.87	224.54
383.25	224.49
383.62	224.56
384.00	224.49
384.38	224.46
384.76	224.43
385.13	224.42
385.51	224.38
385.89	224.33
386.27	224.30
386.64	224.28
387.02	224.23
387.40	224.18
387.78	224.16
388.15	224.13
388.53	224.09
388.91	224.06
389.29	224.03
389.66	224.01
390.04	223.97
390.42	223.97
390.79	223.95
391.17	223.93
391.55	223.80
391.92	223.79
392.30	223.78
392.68	223.75
393.05	223.73
393.43	223.73
393.81	223.73
394.18	223.71
394.56	223.71
394.94	223.74
395.31	223.73
395.69	223.78
396.06	223.81
396.44	223.83
396.82	223.85
397.19	223.92
397.57	223.94
397.95	223.98
398.32	223.98
398.70	224.02
399.07	224.08
399.45	224.12
399.82	224.15
400.20	224.19
400.58	224.25
400.95	224.26
401.33	224.34
401.70	224.48
402.08	224.57
402.45	224.64
402.83	224.73
403.20	224.84
403.58	224.91
403.95	225.03
404.33	225.17
404.71	225.29
405.08	225.47
405.46	225.62
405.83	225.78
406.21	225.95
406.58	226.13
406.96	226.31
407.33	226.53
407.70	226.78
408.08	227.11
408.45	227.38
408.83	227.69
409.20	227.97
409.58	228.21
409.95	228.56
410.33	228.94
410.70	229.29
411.08	229.71
411.45	230.16
411.82	230.61
412.20	231.12
412.57	231.73
412.95	232.22
413.32	232.85
413.69	233.48
414.07	234.17
414.44	234.90
414.82	235.65
415.19	236.53
415.56	237.42
415.94	238.35
416.31	239.40
416.68	240.45
417.06	241.67
417.43	242.81
417.81	244.12
418.18	245.45
418.55	246.92
418.93	248.44
419.30	250.03
419.67	251.72
420.04	253.45
420.42	255.27
420.79	257.36
421.16	259.48
421.54	261.64
421.91	263.89
422.28	266.25
422.66	268.77
423.03	271.19
423.40	273.72
423.77	276.44
424.15	279.23
424.52	282.13
424.89	285.28
425.26	288.41
425.64	291.31
426.01	294.58
426.38	297.92
426.75	301.36
427.13	304.89
427.50	308.58
427.87	312.43
428.24	316.32
428.61	320.04
428.99	324.06
429.36	328.45
429.73	332.66
430.10	336.87
430.47	341.16
430.85	345.58
431.22	350.28
431.59	355.11
431.96	359.82
432.33	365.05
432.70	370.01
433.08	375.87
433.45	381.39
433.82	386.83
434.19	392.90
434.56	398.88
434.93	404.63
435.30	410.33
435.68	416.72
436.05	422.96
436.42	429.24
436.79	434.95
437.16	441.14
437.53	447.72
437.90	454.29
438.27	460.72
438.64	467.68
439.01	473.98
439.38	479.71
439.75	485.25
440.13	491.54
440.50	497.51
440.87	502.22
441.24	507.42
441.61	513.15
441.98	517.34
442.35	522.31
442.72	527.39
443.09	532.23
443.46	535.34
443.83	537.64
444.20	539.53
444.57	542.36
444.94	543.97
445.31	545.66
445.68	547.15
446.05	548.25
446.42	548.01
446.79	547.67
447.16	547.36
447.53	547.12
447.90	545.22
448.27	543.45
448.64	540.66
449.01	538.83
449.37	534.82
449.74	531.16
450.11	526.50
450.48	521.38
450.85	516.23
451.22	511.85
451.59	507.53
451.96	503.64
452.33	497.91
452.70	492.85
453.07	486.67
453.43	480.51
453.80	474.53
454.17	468.82
454.54	463.52
454.91	457.56
455.28	451.93
455.65	446.61
456.02	440.93
456.38	436.36
456.75	430.45
457.12	425.71
457.49	420.95
457.86	416.40
458.23	412.41
458.59	408.01
458.96	403.50
459.33	399.55
459.70	395.50
460.07	392.43
460.43	388.81
460.80	385.43
461.17	382.46
461.54	379.25
461.91	376.22
462.27	373.14
462.64	370.61
463.01	367.73
463.38	364.84
463.74	362.20
464.11	359.85
464.48	357.72
464.85	355.44
465.21	353.68
465.58	351.75
465.95	349.53
466.32	347.76
466.68	346.02
467.05	344.28
467.42	342.60
467.78	340.78
468.15	339.09
468.52	337.84
468.88	336.21
469.25	334.69
469.62	333.50
469.98	332.22
470.35	331.09
470.72	330.07
471.08	329.00
471.45	328.14
471.82	327.19
472.18	326.20
472.55	325.55
472.92	324.76
473.28	324.14
473.65	323.50
474.02	322.90
474.38	322.39
474.75	322.12
475.11	321.71
475.48	321.56
475.85	321.41
476.21	321.35
476.58	321.35
476.94	321.56
477.31	321.68
477.67	321.84
478.04	322.10
478.41	322.43
478.77	322.90
479.14	323.25
479.50	323.83
479.87	324.55
480.23	325.28
480.60	325.96
480.96	326.67
481.33	327.64
481.69	328.62
482.06	329.60
482.42	330.52
482.79	331.63
483.15	332.90
483.52	334.33
483.88	335.71
484.25	337.17
484.61	338.68
484.98	340.31
485.34	342.14
485.71	344.06
486.07	346.11
486.44	348.13
486.80	350.35
487.17	352.66
487.53	355.19
487.90	357.81
488.26	360.67
488.62	363.67
488.99	366.69
489.35	369.83
489.72	373.23
490.08	376.79
490.44	380.43
490.81	384.24
491.17	388.15
491.54	392.35
491.90	396.66
492.26	401.30
492.63	406.17
492.99	411.21
493.36	416.36
493.72	421.80
494.08	427.41
494.45	433.32
494.81	439.42
495.17	445.66
495.54	452.25
495.90	459.15
496.26	466.22
496.63	473.51
496.99	481.13
497.35	489.10
497.72	497.32
498.08	505.76
498.44	514.42
498.80	523.59
499.17	532.99
499.53	542.71
499.89	552.68
500.26	562.88
500.62	573.30
500.98	584.41
501.34	595.66
501.71	607.41
502.07	619.40
502.43	631.75
502.79	644.45
503.16	657.58
503.52	670.82
503.88	684.41
504.24	698.44
504.60	712.70
504.97	727.31
505.33	742.38
505.69	758.28
506.05	774.47
506.41	790.70
506.78	807.18
507.14	824.15
507.50	841.54
507.86	859.25
508.22	877.31
508.59	895.40
508.95	914.21
509.31	933.48
509.67	953.43
510.03	973.61
510.39	993.93
510.75	1014.39
511.12	1035.09
511.48	1056.05
511.84	1077.27
512.20	1098.79
512.56	1121.39
512.92	1143.95
513.28	1166.22
513.64	1188.80
514.00	1211.88
514.37	1235.28
514.73	1258.64
515.09	1281.78
515.45	1305.25
515.81	1329.28
516.17	1353.31
516.53	1377.05
516.89	1400.76
517.25	1424.67
517.61	1448.69
517.97	1472.93
518.33	1497.11
518.69	1521.59
519.05	1546.25
519.41	1570.81
519.77	1595.62
520.13	1619.58
520.49	1643.88
520.85	1668.36
521.21	1692.57
521.57	1717.18
521.93	1740.95
522.29	1765.34
522.65	1789.68
523.01	1813.78
523.37	1837.02
523.73	1860.98
524.09	1885.05
524.45	1909.05
524.81	1932.48
525.17	1955.80
525.53	1978.74
525.89	2001.42
526.25	2024.08
526.61	2046.15
526.97	2068.52
527.33	2090.75
527.68	2112.93
528.04	2134.37
528.40	2155.48
528.76	2176.78
529.12	2197.05
529.48	2218.02
529.84	2237.15
530.20	2256.58
530.56	2275.69
530.91	2295.08
531.27	2313.84
531.63	2331.74
531.99	2349.12
532.35	2366.46
532.71	2383.85
533.07	2401.70
533.42	2418.16
533.78	2435.04
534.14	2451.97
534.50	2468.01
534.86	2484.64
535.21	2499.36
535.57	2513.64
535.93	2527.52
536.29	2540.04
536.65	2553.42
537.00	2565.79
537.36	2578.77
537.72	2590.75
538.08	2602.48
538.44	2613.22
538.79	2624.11
539.15	2633.29
539.51	2642.11
539.87	2650.11
540.22	2656.12
540.58	2662.36
540.94	2669.01
541.29	2674.24
541.65	2678.59
542.01	2682.61
542.37	2684.84
542.72	2688.85
543.08	2692.29
543.44	2695.43
543.79	2698.43
544.15	2700.10
544.51	2701.60
544.87	2702.41
545.22	2703.14
545.58	2702.96
545.94	2702.79
546.29	2701.24
546.65	2699.82
547.01	2698.68
547.36	2698.01
547.72	2697.73
548.07	2696.05
548.43	2693.66
548.79	2690.47
549.14	2687.27
549.50	2684.58
549.86	2680.85
550.21	2675.51
550.57	2670.62
550.92	2664.48
551.28	2658.62
551.64	2652.86
551.99	2647.34
552.35	2641.60
552.70	2635.07
553.06	2629.12
553.41	2622.89
553.77	2615.99
554.13	2610.10
554.48	2603.04
554.84	2594.60
555.19	2586.03
555.55	2576.79
555.90	2568.21
556.26	2560.57
556.61	2552.23
556.97	2542.11
557.32	2533.29
557.68	2524.14
558.03	2514.86
558.39	2506.25
558.74	2497.54
559.10	2488.06
559.45	2477.87
559.81	2467.79
560.16	2457.31
560.52	2446.65
560.87	2436.76
561.23	2426.56
561.58	2416.12
561.94	2405.70
562.29	2394.56
562.64	2383.92
563.00	2373.65
563.35	2363.45
563.71	2352.28
564.06	2341.31
564.42	2330.88
564.77	2320.03
565.12	2309.16
565.48	2297.89
565.83	2287.30
566.19	2276.86
566.54	2265.67
566.89	2254.15
567.25	2242.93
567.60	2232.56
567.96	2221.58
568.31	2209.50
568.66	2197.51
569.02	2186.21
569.37	2174.77
569.72	2163.93
570.08	2152.58
570.43	2140.64
570.78	2128.21
571.14	2116.14
571.49	2104.20
571.84	2092.38
572.20	2079.51
572.55	2067.35
572.90	2054.92
573.26	2041.69
573.61	2028.05
573.96	2014.86
574.31	2001.72
574.67	1988.58
575.02	1974.93
575.37	1961.12
575.72	1947.69
576.08	1934.41
576.43	1920.21
576.78	1906.24
577.13	1892.86
577.49	1879.43
577.84	1866.63
578.19	1853.08
578.54	1839.11
578.90	1824.87
579.25	1810.46
579.60	1797.23
579.95	1783.70
580.30	1770.49
580.66	1757.27
581.01	1743.78
581.36	1730.52
581.71	1718.09
582.06	1705.11
582.42	1692.43
582.77	1679.98
583.12	1667.00
583.47	1654.56
583.82	1642.22
584.17	1629.61
584.53	1616.97
584.88	1604.52
585.23	1591.48
585.58	1579.15
585.93	1567.04
586.28	1555.56
586.63	1543.97
586.98	1531.59
587.34	1519.49
587.69	1506.93
588.04	1494.96
588.39	1483.22
588.74	1470.98
589.09	1458.54
589.44	1446.04
589.79	1433.93
590.14	1422.06
590.49	1410.37
590.84	1398.54
591.19	1387.16
591.54	1375.36
591.89	1363.54
592.25	1352.10
592.60	1340.32
592.95	1328.91
593.30	1317.83
593.65	1306.63
594.00	1295.81
594.35	1285.54
594.70	1274.41
595.05	1263.96
595.40	1253.21
595.75	1242.35
596.10	1232.40
596.45	1222.56
596.80	1213.12
597.15	1203.48
597.50	1193.70
597.85	1184.24
598.19	1174.78
598.54	1165.09
598.89	1156.07
599.24	1147.09
599.59	1137.95
599.94	1129.81
600.29	1121.48
600.64	1112.96
600.99	1103.80
601.34	1095.00
601.69	1086.01
602.04	1077.98
602.39	1070.02
602.74	1062.16
603.08	1054.44
603.43	1046.32
603.78	1038.13
604.13	1030.05
604.48	1021.87
604.83	1013.95
605.18	1005.95
605.53	998.02
605.87	989.99
606.22	982.20
606.57	974.27
606.92	966.21
607.27	958.07
607.62	950.21
607.96	942.53
608.31	935.91
608.66	928.91
609.01	922.06
609.36	915.14
609.70	907.98
610.05	900.74
610.40	893.81
610.75	886.82
611.10	880.10
611.44	873.11
611.79	866.34
612.14	859.34
612.49	852.49
612.83	845.97
613.18	839.57
613.53	833.12
613.88	826.78
614.22	821.00
614.57	814.94
614.92	808.83
615.27	802.78
615.61	796.51
615.96	790.46
616.31	784.35
616.65	778.17
617.00	772.16
617.35	766.29
617.70	760.48
618.04	754.82
618.39	749.12
618.74	743.76
619.08	738.28
619.43	732.97
619.78	727.57
620.12	722.14
620.47	716.87
620.82	711.62
621.16	706.62
621.51	701.30
621.85	696.03
622.20	690.81
622.55	685.65
622.89	680.38
623.24	675.21
623.59	670.19
623.93	665.27
624.28	660.53
624.62	655.73
624.97	650.90
625.32	646.18
625.66	641.37
626.01	636.52
626.35	631.81
626.70	627.16
627.04	622.75
627.39	618.32
627.73	613.92
628.08	609.71
628.43	605.28
628.77	600.90
629.12	596.70
629.46	592.64
629.81	588.47
630.15	584.30
630.50	580.24
630.84	576.33
631.19	572.51
631.53	568.76
631.88	564.95
632.22	561.18
632.57	557.57
632.91	553.89
633.26	550.29
633.60	546.77
633.95	543.37
634.29	539.77
634.64	536.16
634.98	532.55
635.32	529.06
635.67	525.76
636.01	522.43
636.36	519.08
636.70	515.90
637.05	512.73
637.39	509.65
637.73	506.46
638.08	503.37
638.42	500.23
638.77	496.98
639.11	493.67
639.45	490.46
639.80	487.29
640.14	484.24
640.49	481.14
640.83	477.92
641.17	474.80
641.52	471.81
641.86	468.81
642.20	465.96
642.55	462.94
642.89	460.03
643.23	457.28
643.58	454.77
643.92	452.10
644.26	449.45
644.61	446.82
644.95	444.21
645.29	441.48
645.64	438.79
645.98	436.22
646.32	433.81
646.66	431.35
647.01	428.93
647.35	426.57
647.69	424.12
648.04	421.86
648.38	419.55
648.72	417.18
649.06	414.91
649.41	412.67
649.75	410.43
650.09	408.20
650.43	405.95
650.78	403.67
651.12	401.38
651.46	399.23
651.80	397.14
652.14	395.09
652.49	393.13
652.83	391.19
653.17	389.22
653.51	387.35
653.85	385.49
654.20	383.53
654.54	381.52
654.88	379.70
655.22	377.87
655.56	376.03
655.90	374.32
656.25	372.59
656.59	370.86
656.93	369.24
657.27	367.63
657.61	365.98
657.95	364.36
658.29	362.76
658.64	361.13
658.98	359.52
659.32	357.90
659.66	356.38
660.00	354.87
660.34	353.43
660.68	351.87
661.02	350.30
661.36	348.86
661.70	347.45
662.05	346.02
662.39	344.58
662.73	343.24
663.07	341.92
663.41	340.63
663.75	339.34
664.09	338.05
664.43	336.70
664.77	335.43
665.11	334.11
665.45	332.88
665.79	331.64
666.13	330.40
666.47	329.16
666.81	327.88
667.15	326.57
667.49	325.33
667.83	324.17
668.17	323.03
668.51	321.90
668.85	320.79
669.19	319.77
669.53	318.67
669.87	317.52
670.21	316.43
670.55	315.31
670.89	314.29
671.23	313.24
671.57	312.19
671.91	311.20
672.25	310.25
672.58	309.30
672.92	308.34
673.26	307.44
673.60	306.55
673.94	305.65
674.28	304.80
674.62	303.94
674.96	303.05
675.30	302.22
675.64	301.36
675.97	300.52
676.31	299.64
676.65	298.80
676.99	298.04
677.33	297.21
677.67	296.42
678.01	295.57
678.34	294.77
678.68	294.02
679.02	293.24
679.36	292.48
679.70	291.70
680.04	290.93
680.37	290.17
680.71	289.45
681.05	288.77
681.39	288.05
681.73	287.29
682.06	286.58
682.40	285.88
682.74	285.20
683.08	284.54
683.42	283.87
683.75	283.26
684.09	282.57
684.43	281.92
684.77	281.27
685.10	280.66
685.44	280.05
685.78	279.42
686.12	278.83
686.45	278.22
686.79	277.62
687.13	277.03
687.46	276.42
687.80	275.83
688.14	275.20
688.48	274.63
688.81	274.05
689.15	273.52
689.49	272.94
689.82	272.38
690.16	271.78
690.50	271.22
690.83	270.64
691.17	270.09
691.51	269.55
691.84	269.02
692.18	268.47
692.52	267.90
692.85	267.37
693.19	266.87
693.52	266.37
693.86	265.88
694.20	265.38
694.53	264.90
694.87	264.40
695.21	263.93
695.54	263.44
695.88	262.96
696.21	262.45
696.55	261.99
696.88	261.52
697.22	261.07
697.56	260.63
697.89	260.13
698.23	259.69
698.56	259.23
698.90	258.81
699.23	258.37
699.57	257.97
699.90	257.55
700.24	257.11
700.58	256.70
700.91	256.31
701.25	256.00
701.58	255.64
701.92	255.28
702.25	254.90
702.59	254.51
702.92	254.14
703.26	253.77
703.59	253.40
703.93	253.13
704.26	252.78
704.60	252.42
704.93	252.08
705.26	251.74
705.60	251.43
705.93	251.07
706.27	250.78
706.60	250.46
706.94	250.17
707.27	249.82
707.61	249.48
707.94	249.14
708.27	248.74
708.61	248.39
708.94	248.06
709.28	247.76
709.61	247.46
709.94	247.18
710.28	246.91
710.61	246.65
710.95	246.28
711.28	246.08
711.61	245.80
711.95	245.56
712.28	245.29
712.61	245.00
712.95	244.81
713.28	244.60
713.61	244.33
713.95	244.07
714.28	243.84
714.61	243.59
714.95	243.35
715.28	243.10
715.61	242.88
715.95	242.66
716.28	242.43
716.61	242.23
716.95	242.00
717.28	241.78
717.61	241.56
717.94	241.35
718.28	241.08
718.61	240.87
718.94	240.65
719.27	240.47
719.61	240.28
719.94	240.06
720.27	239.81
720.60	239.63
720.94	239.43
721.27	239.26
721.60	239.09
721.93	238.91
722.27	238.77
722.60	238.59
722.93	238.40
723.26	238.24
723.59	238.03
723.93	237.88
724.26	237.71
724.59	237.54
724.92	237.39
725.25	237.26
725.59	237.11
725.92	236.97
726.25	236.82
726.58	236.66
726.91	236.50
727.24	236.37
727.57	236.22
727.91	236.06
728.24	235.93
728.57	235.77
728.90	235.65
729.23	235.49
729.56	235.40
729.89	235.27
730.22	235.13
730.55	235.00
730.89	234.88
731.22	234.75
731.55	234.63
731.88	234.51
732.21	234.36
732.54	234.24
732.87	234.13
733.20	234.02
733.53	233.90
733.86	233.81
734.19	233.69
734.52	233.61
734.85	233.58
735.18	233.46
735.51	233.38
735.84	233.28
736.17	233.21
736.50	233.05
736.83	233.07
737.16	232.99
737.49	232.90
737.82	232.80
738.15	232.73
738.48	232.65
738.81	232.54
739.14	232.44
739.47	232.34
739.80	232.25
740.13	232.18
740.46	232.08
740.79	231.97
741.12	231.88
741.45	231.78
741.78	231.63
742.11	231.57
742.44	231.46
742.77	231.38
743.10	231.29
743.43	231.21
743.75	231.02
744.08	231.08
744.41	231.00
744.74	230.92
745.07	230.81
745.40	230.74
745.73	230.71
746.06	230.65
746.39	230.58
746.71	230.49
747.04	230.41
747.37	230.34
747.70	230.29
748.03	230.22
748.36	230.16
748.68	230.09
749.01	229.99
749.34	229.93
749.67	229.86
750.00	229.82
750.33	229.84
750.65	229.78
750.98	229.57
751.31	229.50
751.64	229.45
751.97	229.44
752.29	229.38
752.62	229.28
752.95	229.20
753.28	229.13
753.60	229.07
753.93	229.03
754.26	228.97
754.59	228.88
754.91	228.81
755.24	228.74
755.57	228.72
755.90	228.67
756.22	228.61
756.55	228.54
756.88	228.45
757.20	228.32
757.53	228.24
757.86	228.19
758.19	228.15
758.51	228.08
758.84	227.99
759.17	227.91
759.49	227.88
759.82	227.88
760.15	227.85
760.47	227.81
760.80	227.73
761.13	227.70
761.45	227.67
761.78	227.63
762.11	227.59
762.43	227.49
762.76	227.44
763.08	227.41
763.41	227.37
763.74	227.34
764.06	227.30
764.39	227.27
764.71	227.24
765.04	227.18
765.37	227.14
765.69	227.09
766.02	227.05
766.34	227.01
766.67	226.93
767.00	226.90
767.32	226.90
767.65	226.93
767.97	226.88
768.30	226.85
768.62	226.82
768.95	226.77
769.27	226.72
769.60	226.70
769.92	226.66
770.25	226.62
770.57	226.57
770.90	226.53
771.22	226.48
771.55	226.44
771.87	226.42
772.20	226.40
772.52	226.45
772.85	226.55
773.17	226.53
773.50	226.49
773.82	226.45
774.15	226.37
774.47	226.28
774.80	226.25
775.12	226.21
775.45	226.18
775.77	226.17
776.09	226.15
776.42	226.13
776.74	226.13
777.07	226.10
777.39	226.09
777.72	226.06
778.04	226.06
778.36	226.02
778.69	226.00
779.01	225.98
779.33	225.87
779.66	225.72
779.98	225.69
780.31	225.68
780.63	225.70
780.95	225.71
781.28	225.68
781.60	225.65
781.92	225.63
782.25	225.61
782.57	225.59
782.89	225.57
783.22	225.54
783.54	225.51
783.86	225.50
784.19	225.46
784.51	225.48
784.83	225.44
785.16	225.43
785.48	225.41
785.80	225.40
786.12	225.40
786.45	225.38
786.77	225.38
787.09	225.36
787.42	225.31
787.74	225.30
788.06	225.29
788.38	225.27
788.71	225.25
789.03	225.24
789.35	225.23
789.67	225.20
789.99	225.19
790.32	225.16
790.64	225.16
790.96	225.24
791.28	225.19
791.61	225.16
791.93	225.15
792.25	225.12
792.57	225.18
792.89	225.16
793.21	225.15
793.54	225.12
793.86	225.09
794.18	225.08
794.50	225.04
794.82	225.03
795.14	225.03
795.47	225.03
795.79	225.01
796.11	224.98
796.43	224.97
796.75	224.96
797.07	224.95
797.39	224.93
797.71	224.83
798.04	224.83
798.36	224.83
798.68	224.82
799.00	224.81
799.32	224.74
799.64	224.74
799.96	224.73
800.28	224.74
800.60	224.72
800.92	224.71
801.24	224.69
801.56	224.70
801.89	224.67
802.21	224.66
802.53	224.63
802.85	224.65
803.17	224.69
803.49	224.66
803.81	224.64
804.13	224.62
804.45	224.61
804.77	224.60
805.09	224.60
805.41	224.57
805.73	224.54
806.05	224.50
806.37	224.49
806.69	224.46
807.01	224.44
807.33	224.43
807.65	224.39
807.97	224.43
808.28	224.40
808.60	224.38
808.92	224.36
809.24	224.41
809.56	224.39
809.88	224.35
810.20	224.35
810.52	224.36
810.84	224.33
811.16	224.31
811.48	224.29
811.80	224.32
812.12	224.31
812.43	224.33
812.75	224.33
813.07	224.31
813.39	224.32
813.71	224.30
814.03	224.29
814.35	224.30
814.67	224.25
814.98	224.24
815.30	224.24
815.62	224.23
815.94	224.15
816.26	224.14
816.58	224.12
816.89	224.12
817.21	224.08
817.53	224.09
817.85	224.10
818.17	224.10
818.48	224.05
818.80	224.06
819.12	224.04
819.44	224.02
819.76	224.01
820.07	224.00
820.39	224.00
820.71	224.01
821.03	224.00
821.34	223.99
821.66	223.99
821.98	223.99
822.30	223.99
822.61	224.04
822.93	224.02
823.25	224.01
823.57	223.99
823.88	224.01
824.20	224.01
824.52	224.02
824.83	224.00
825.15	223.99
825.47	223.98
825.79	223.98
826.10	223.96
826.42	223.97
826.74	223.96
827.05	223.95
827.37	223.95
827.69	223.95
828.00	223.96
828.32	223.96
828.64	223.94
828.95	223.98
829.27	223.96
829.58	223.96
829.90	223.97
830.22	223.98
830.53	223.95
830.85	223.94
831.17	223.90
831.48	223.90
831.80	223.91
832.11	223.91
832.43	223.89
832.75	223.90
833.06	223.95
833.38	223.93
833.69	223.93
834.01	223.92
834.32	223.91
834.64	223.90
834.96	223.90
835.27	223.90
835.59	223.86
835.90	223.84
836.22	223.83
836.53	223.81
836.85	223.80
837.16	223.91
837.48	223.91
837.79	223.95
838.11	223.95
838.42	223.94
838.74	223.95
839.05	223.95
839.37	223.94
839.68	223.87
840.00	223.87
840.31	223.88
840.63	223.87
840.94	223.86
841.26	223.85
841.57	223.84
841.88	223.85
842.20	223.83
842.51	223.82
842.83	223.82
843.14	223.92
843.46	223.90
843.77	223.84
844.08	223.84
844.40	223.79
844.71	223.78
845.03	223.76
845.34	223.76
845.65	223.75
845.97	223.75
846.28	223.75
846.60	223.75
846.91	223.72
847.22	223.72
847.54	223.74
847.85	223.74
848.16	223.73
848.48	223.71
848.79	223.76
849.10	223.76
849.42	223.76
849.73	223.66
850.04	223.66
850.36	223.62
850.67	223.63
850.98	223.63
851.30	223.64
851.61	223.64
851.92	223.63
852.23	223.67
852.55	223.67
852.86	223.67
853.17	223.67
853.49	223.70
853.80	223.72
854.11	223.73
854.42	223.75
854.74	223.74
855.05	223.74
855.36	223.68
855.67	223.68
855.99	223.67
856.30	223.80
856.61	223.80
856.92	223.80
857.23	223.80
857.55	223.79
857.86	223.79
858.17	223.80
858.48	223.78
858.79	223.75
859.11	223.76
859.42	223.77
859.73	223.76
860.04	223.75
860.35	223.73
860.66	223.69
860.98	223.68
861.29	223.69
861.60	223.69
861.91	223.72
862.22	223.70
862.53	223.69
862.84	223.58
863.16	223.60
863.47	223.59
863.78	223.58
864.09	223.59
864.40	223.59
864.71	223.59
865.02	223.60
865.33	223.59
865.64	223.56
865.95	223.55
866.27	223.62
866.58	223.60
866.89	223.61
867.20	223.61
867.51	223.58
867.82	223.57
868.13	223.61
868.44	223.58
868.75	223.60
869.06	223.61
869.37	223.61
869.68	223.59
869.99	223.61
870.30	223.61
870.61	223.63
870.92	223.61
871.23	223.60
871.54	223.62
871.85	223.64
872.16	223.66
872.47	223.65
872.78	223.59
873.09	223.61
873.40	223.60
873.71	223.61
874.02	223.63
874.33	223.62
874.64	223.59
874.95	223.61
875.26	223.58
875.56	223.57
875.87	223.56
876.18	223.55
876.49	223.65
876.80	223.63
877.11	223.61
877.42	223.61
877.73	223.62
878.04	223.61
878.35	223.60
878.66	223.59
878.96	223.59
879.27	223.59
879.58	223.57
879.89	223.55
880.20	223.58
880.51	223.58
880.82	223.57
881.12	223.57
881.43	223.54
881.74	223.53
882.05	223.53
882.36	223.54
882.67	223.55
882.97	223.44
883.28	223.44
883.59	223.43
883.90	223.44
884.21	223.44
884.51	223.44
884.82	223.43
885.13	223.43
885.44	223.43
885.74	223.43
886.05	223.42
886.36	223.43
886.67	223.39
886.98	223.44
887.28	223.45
887.59	223.45
887.90	223.45
888.20	223.44
888.51	223.45
888.82	223.43
889.13	223.43
889.43	223.51
889.74	223.50
890.05	223.49
890.35	223.47
890.66	223.45
890.97	223.44
891.28	223.43
891.58	223.44
891.89	223.43
892.20	223.43
892.50	223.42
892.81	223.41
893.12	223.42
893.42	223.37
893.73	223.37
894.04	223.37
894.34	223.38
894.65	223.38
894.95	223.37
895.26	223.38
895.57	223.42
895.87	223.32
896.18	223.34
896.48	223.35
896.79	223.36
897.10	223.37
897.40	223.38
897.71	223.39
898.01	223.38
898.32	223.40
898.63	223.39
898.93	223.39
899.24	223.40
899.54	223.39
899.85	223.39
900.15	223.39
900.46	223.39
900.76	223.40
901.07	223.40
901.38	223.39
901.68	223.41
901.99	223.36
902.29	223.38
902.60	223.37
902.90	223.35
903.21	223.36
903.51	223.35
903.82	223.37
904.12	223.36
904.43	223.37
904.73	223.35
905.03	223.35
905.34	223.45
905.64	223.44
905.95	223.45
906.25	223.44
906.56	223.44
906.86	223.44
907.17	223.43
907.47	223.44
907.77	223.43
908.08	223.40
908.38	223.40
908.69	223.41
908.99	223.43
909.30	223.45
909.60	223.44
909.90	223.45
910.21	223.41
910.51	223.40
910.81	223.40
911.12	223.41
911.42	223.42
911.73	223.31
912.03	223.31
912.33	223.34
912.64	223.33
912.94	223.32
913.24	223.30
913.55	223.29
913.85	223.29
914.15	223.31
914.46	223.33
914.76	223.32
915.06	223.31
915.37	223.29
915.67	223.28
915.97	223.28
916.27	223.26
916.58	223.27
916.88	223.28
917.18	223.27
917.49	223.34
917.79	223.33
918.09	223.35
918.39	223.37
918.70	223.37
919.00	223.38
919.30	223.42
919.60	223.42
919.91	223.41
920.21	223.42
920.51	223.40
920.81	223.39
921.12	223.41
921.42	223.40
921.72	223.41
922.02	223.43
922.32	223.44
922.63	223.44
922.93	223.50
923.23	223.50
923.53	223.49
923.83	223.41
924.13	223.42
924.44	223.42
924.74	223.43
925.04	223.45
925.34	223.44
925.64	223.41
925.94	223.41
926.24	223.47
926.55	223.46
926.85	223.48
927.15	223.48
927.45	223.46
927.75	223.47
928.05	223.46
928.35	223.46
928.65	223.48
928.95	223.49
929.26	223.44
929.56	223.45
929.86	223.47
930.16	223.46
930.46	223.45
930.76	223.45
931.06	223.40
931.36	223.37
931.66	223.39
931.96	223.40
932.26	223.41
932.56	223.35
932.86	223.37
933.16	223.36
933.46	223.35
933.76	223.34
934.06	223.35
934.36	223.39
934.66	223.38
934.96	223.36
935.26	223.36
935.56	223.38
935.86	223.35
936.16	223.34
936.46	223.33
936.76	223.33
937.06	223.31
937.36	223.32
937.66	223.32
937.96	223.31
938.26	223.28
938.56	223.26
938.86	223.27
939.16	223.29
939.46	223.30
939.76	223.30
940.06	223.30
940.35	223.29
940.65	223.24
940.95	223.24
941.25	223.22
941.55	223.21
941.85	223.20
942.15	223.22
942.45	223.24
942.75	223.25
943.04	223.26
943.34	223.29
943.64	223.27
943.94	223.25
944.24	223.25
944.54	223.27
944.84	223.27
945.13	223.25
945.43	223.23
945.73	223.23
946.03	223.22
946.33	223.22
946.62	223.20
946.92	223.19
947.22	223.20
947.52	223.21
947.82	223.21
948.11	223.20
948.41	223.18
948.71	223.15
949.01	223.15
949.31	223.14
949.60	223.12
949.90	223.14
950.20	223.15
950.50	223.15
950.79	223.14
951.09	223.16
951.39	223.17
951.69	223.15
951.98	223.17
952.28	223.16
952.58	223.16
952.87	223.17
953.17	223.18
953.47	223.16
953.76	223.17
954.06	223.15
954.36	223.14
954.66	223.14
954.95	223.16
955.25	223.17
955.55	223.17
955.84	223.16
956.14	223.15
956.44	223.15
956.73	223.14
957.03	223.14
957.32	223.14
957.62	223.13
957.92	223.15
958.21	223.14
958.51	223.26
958.81	223.28
959.10	223.28
959.40	223.31
959.69	223.31
959.99	223.32
960.29	223.32
960.58	223.32
960.88	223.37
961.17	223.36
961.47	223.36
961.76	223.35
962.06	223.37
962.36	223.36
962.65	223.37
962.95	223.38
963.24	223.37
963.54	223.37
963.83	223.37
964.13	223.36
964.42	223.35
964.72	223.27
965.01	223.27
965.31	223.26
965.60	223.24
965.90	223.30
966.19	223.28
966.49	223.28
966.78	223.27
967.08	223.26
967.37	223.26
967.67	223.24
967.96	223.26
968.26	223.26
968.55	223.27
968.85	223.26
969.14	223.25
969.43	223.26
969.73	223.24
970.02	223.24
970.32	223.23
970.61	223.22
970.91	223.19
971.20	223.18
971.49	223.17
971.79	223.17
972.08	223.10
972.38	223.11
972.67	223.12
972.96	223.14
973.26	223.11
973.55	223.14
973.85	223.14
974.14	223.13
974.43	223.14
974.73	223.12
975.02	223.11
975.31	223.11
975.61	223.10
975.90	223.10
976.19	223.10
976.49	223.10
976.78	223.11
977.07	223.10
977.37	223.11
977.66	223.11
977.95	223.10
978.24	223.11
978.54	223.13
978.83	223.12
979.12	223.11
979.42	223.11
979.71	223.09
980.00	223.09
980.29	223.09
980.59	223.07
980.88	223.10
981.17	223.10
981.46	223.11
981.76	223.12
982.05	223.15
982.34	223.16
982.63	223.16
982.93	223.16
983.22	223.20
983.51	223.19
983.80	223.21
984.09	223.22
984.39	223.21
984.68	223.20
984.97	223.20
985.26	223.19
985.55	223.20
985.85	223.19
986.14	223.21
986.43	223.22
986.72	223.23
987.01	223.19
987.30	223.19
987.59	223.19
987.89	223.19
988.18	223.16
988.47	223.14
988.76	223.13
989.05	223.13
989.34	223.10
989.63	223.14
989.92	223.12
990.22	223.11
990.51	223.11
990.80	223.10
991.09	223.10
991.38	223.12
991.67	223.11
991.96	223.10
992.25	223.09
992.54	223.06
992.83	223.05
993.12	223.04
993.41	223.06
993.70	223.10
993.99	223.11
994.28	223.13
994.58	223.15
994.87	223.14
995.16	223.14
995.45	223.14
995.74	223.10
996.03	223.11
996.32	223.13
996.61	223.15
996.90	223.15
997.19	223.15
997.48	223.16
997.77	223.15
998.06	223.16
998.34	223.15
998.63	223.16
998.92	223.17
999.21	223.20
999.50	223.19
999.79	223.15
1000.08	223.15
1000.37	223.15
1000.66	223.14
1000.95	223.16
1001.24	223.17
1001.53	223.18
1001.82	223.18
1002.11	223.16
1002.40	223.17
1002.68	223.19
1002.97	223.25
1003.26	223.24
1003.55	223.22
1003.84	223.22
1004.13	223.26
1004.42	223.26
1004.71	223.27
1004.99	223.26
1005.28	223.28
1005.57	223.27
1005.86	223.27
1006.15	223.26
1006.44	223.25
1006.72	223.27
1007.01	223.25
1007.30	223.25
1007.59	223.23
1007.88	223.23
1008.17	223.24
1008.45	223.23
1008.74	223.18
1009.03	223.14
1009.32	223.14
1009.60	223.15
1009.89	223.14
1010.18	223.09
1010.47	223.09
1010.76	223.09
1011.04	223.09
1011.33	223.09
1011.62	223.10
1011.91	223.10
1012.19	223.11
1012.48	223.11
1012.77	223.11
1013.05	223.15
1013.34	223.15
1013.63	223.15
1013.92	223.15
1014.20	223.14
1014.49	223.14
1014.78	223.16
1015.06	223.12
1015.35	223.13
1015.64	223.13
1015.92	223.15
1016.21	223.16
1016.50	223.16
1016.78	223.16
1017.07	223.18
1017.36	223.16
1017.64	223.14
1017.93	223.15
1018.22	223.13
1018.50	223.14
1018.79	223.13
1019.08	223.09
1019.36	223.10
1019.65	223.09
1019.93	223.12
1020.22	223.13
1020.51	223.18
1020.79	223.17
1021.08	222.97
1021.36	223.11
1021.65	223.06
1021.94	223.05
1022.22	223.27
1022.51	222.94
1022.79	223.52
1023.08	223.20
1023.36	224.32
1023.65	222.82
>>>>>End Processed Spectral Data<<<<<
