SpectraSuite Data File
++++++++++++++++++++++++++++++++++++
Date: Wed Sep 30 15:01:50 EDT 2015
User: lab3
Dark Spectrum Present: No
Reference Spectrum Present: No
Number of Sampled Component Spectra: 1
Spectrometers: USB2E7196
Integration Time (usec): 36000 (USB2E7196)
Spectra Averaged: 1500 (USB2E7196)
Boxcar Smoothing: 10 (USB2E7196)
Correct for Electrical Dark: No (USB2E7196)
Strobe/Lamp Enabled: No (USB2E7196)
Correct for Detector Non-linearity: No (USB2E7196)
Correct for Stray Light: No (USB2E7196)
Number of Pixels in Processed Spectrum: 2048
>>>>>Begin Processed Spectral Data<<<<<
339.09	0.00
339.48	211.31
339.86	212.84
340.24	214.21
340.63	215.48
341.01	218.49
341.39	218.20
341.78	219.53
342.16	220.76
342.54	221.46
342.93	209.82
343.31	220.42
343.69	220.96
344.07	221.42
344.46	221.84
344.84	222.23
345.22	222.47
345.60	222.71
345.99	222.91
346.37	223.05
346.75	223.14
347.13	223.22
347.52	223.29
347.90	223.38
348.28	223.41
348.66	223.47
349.05	223.47
349.43	223.52
349.81	223.57
350.19	223.62
350.57	223.69
350.96	223.77
351.34	223.86
351.72	223.94
352.10	224.05
352.48	224.13
352.87	224.18
353.25	224.25
353.63	224.31
354.01	224.38
354.39	224.45
354.77	224.53
355.15	224.63
355.54	224.68
355.92	224.72
356.30	224.79
356.68	224.92
357.06	224.99
357.44	225.04
357.82	225.09
358.20	225.20
358.58	225.25
358.97	225.32
359.35	225.39
359.73	225.46
360.11	225.51
360.49	225.57
360.87	225.62
361.25	225.68
361.63	225.77
362.01	225.81
362.39	225.84
362.77	225.88
363.15	225.90
363.53	225.93
363.91	225.96
364.29	225.99
364.67	225.92
365.05	225.93
365.43	225.97
365.81	226.00
366.19	226.01
366.57	226.06
366.95	226.06
367.33	226.04
367.71	226.03
368.09	226.03
368.47	226.03
368.85	226.01
369.23	226.02
369.61	225.96
369.99	225.97
370.37	225.97
370.75	226.03
371.13	226.00
371.51	225.96
371.89	225.93
372.27	225.90
372.65	225.88
373.03	225.84
373.41	225.80
373.78	225.75
374.16	225.66
374.54	225.59
374.92	225.54
375.30	225.50
375.68	225.43
376.06	225.39
376.44	225.34
376.82	225.29
377.19	225.24
377.57	225.18
377.95	225.09
378.33	225.03
378.71	224.89
379.09	224.85
379.47	224.81
379.84	224.76
380.22	224.70
380.60	224.62
380.98	224.58
381.36	224.52
381.73	224.45
382.11	224.43
382.49	224.38
382.87	224.32
383.25	224.27
383.62	224.35
384.00	224.28
384.38	224.23
384.76	224.21
385.13	224.20
385.51	224.17
385.89	224.12
386.27	224.08
386.64	224.06
387.02	224.01
387.40	223.96
387.78	223.94
388.15	223.90
388.53	223.88
388.91	223.85
389.29	223.82
389.66	223.82
390.04	223.78
390.42	223.77
390.79	223.76
391.17	223.74
391.55	223.61
391.92	223.61
392.30	223.61
392.68	223.58
393.05	223.56
393.43	223.55
393.81	223.56
394.18	223.54
394.56	223.54
394.94	223.56
395.31	223.55
395.69	223.59
396.06	223.62
396.44	223.64
396.82	223.65
397.19	223.73
397.57	223.73
397.95	223.77
398.32	223.76
398.70	223.80
399.07	223.85
399.45	223.88
399.82	223.91
400.20	223.95
400.58	224.00
400.95	224.01
401.33	224.09
401.70	224.23
402.08	224.31
402.45	224.38
402.83	224.49
403.20	224.59
403.58	224.68
403.95	224.80
404.33	224.93
404.71	225.04
405.08	225.21
405.46	225.36
405.83	225.51
406.21	225.68
406.58	225.88
406.96	226.07
407.33	226.29
407.70	226.53
408.08	226.86
408.45	227.14
408.83	227.45
409.20	227.73
409.58	227.98
409.95	228.32
410.33	228.71
410.70	229.06
411.08	229.47
411.45	229.90
411.82	230.35
412.20	230.87
412.57	231.48
412.95	231.96
413.32	232.58
413.69	233.23
414.07	233.91
414.44	234.65
414.82	235.40
415.19	236.28
415.56	237.17
415.94	238.11
416.31	239.15
416.68	240.19
417.06	241.40
417.43	242.53
417.81	243.85
418.18	245.18
418.55	246.65
418.93	248.16
419.30	249.75
419.67	251.43
420.04	253.16
420.42	254.98
420.79	257.06
421.16	259.17
421.54	261.33
421.91	263.57
422.28	265.91
422.66	268.43
423.03	270.83
423.40	273.36
423.77	276.07
424.15	278.85
424.52	281.74
424.89	284.86
425.26	287.97
425.64	290.87
426.01	294.12
426.38	297.45
426.75	300.89
427.13	304.42
427.50	308.12
427.87	311.96
428.24	315.84
428.61	319.56
428.99	323.58
429.36	327.95
429.73	332.14
430.10	336.32
430.47	340.60
430.85	345.02
431.22	349.70
431.59	354.51
431.96	359.22
432.33	364.44
432.70	369.40
433.08	375.25
433.45	380.78
433.82	386.21
434.19	392.28
434.56	398.24
434.93	404.01
435.30	409.71
435.68	416.10
436.05	422.35
436.42	428.60
436.79	434.29
437.16	440.48
437.53	447.07
437.90	453.66
438.27	460.10
438.64	467.01
439.01	473.29
439.38	479.05
439.75	484.58
440.13	490.85
440.50	496.79
440.87	501.51
441.24	506.66
441.61	512.31
441.98	516.45
442.35	521.40
442.72	526.46
443.09	531.25
443.46	534.29
443.83	536.54
444.20	538.41
444.57	541.17
444.94	542.75
445.31	544.39
445.68	545.82
446.05	546.85
446.42	546.63
446.79	546.32
447.16	546.02
447.53	545.75
447.90	543.83
448.27	542.02
448.64	539.21
449.01	537.36
449.37	533.41
449.74	529.81
450.11	525.16
450.48	520.06
450.85	514.93
451.22	510.60
451.59	506.31
451.96	502.43
452.33	496.80
452.70	491.74
453.07	485.63
453.43	479.48
453.80	473.54
454.17	467.79
454.54	462.45
454.91	456.48
455.28	450.86
455.65	445.56
456.02	439.93
456.38	435.39
456.75	429.51
457.12	424.79
457.49	420.01
457.86	415.46
458.23	411.47
458.59	407.07
458.96	402.57
459.33	398.62
459.70	394.63
460.07	391.57
460.43	388.01
460.80	384.64
461.17	381.70
461.54	378.52
461.91	375.55
462.27	372.51
462.64	370.02
463.01	367.17
463.38	364.30
463.74	361.70
464.11	359.38
464.48	357.31
464.85	355.06
465.21	353.33
465.58	351.41
465.95	349.19
466.32	347.45
466.68	345.73
467.05	344.00
467.42	342.30
467.78	340.48
468.15	338.79
468.52	337.55
468.88	335.90
469.25	334.40
469.62	333.22
469.98	331.95
470.35	330.82
470.72	329.79
471.08	328.74
471.45	327.89
471.82	326.92
472.18	325.89
472.55	325.24
472.92	324.46
473.28	323.85
473.65	323.21
474.02	322.60
474.38	322.09
474.75	321.81
475.11	321.39
475.48	321.23
475.85	321.05
476.21	321.00
476.58	321.02
476.94	321.23
477.31	321.34
477.67	321.47
478.04	321.71
478.41	322.04
478.77	322.49
479.14	322.81
479.50	323.36
479.87	324.06
480.23	324.75
480.60	325.44
480.96	326.15
481.33	327.12
481.69	328.09
482.06	329.07
482.42	329.99
482.79	331.12
483.15	332.41
483.52	333.86
483.88	335.23
484.25	336.72
484.61	338.24
484.98	339.89
485.34	341.73
485.71	343.66
486.07	345.71
486.44	347.75
486.80	350.01
487.17	352.30
487.53	354.81
487.90	357.43
488.26	360.23
488.62	363.22
488.99	366.24
489.35	369.40
489.72	372.81
490.08	376.37
490.44	380.03
490.81	383.85
491.17	387.77
491.54	391.96
491.90	396.21
492.26	400.79
492.63	405.61
492.99	410.64
493.36	415.83
493.72	421.29
494.08	426.90
494.45	432.81
494.81	438.96
495.17	445.20
495.54	451.85
495.90	458.86
496.26	465.97
496.63	473.25
496.99	480.81
497.35	488.69
497.72	496.86
498.08	505.25
498.44	513.87
498.80	523.02
499.17	532.47
499.53	542.23
499.89	552.27
500.26	562.47
500.62	572.88
500.98	583.92
501.34	595.12
501.71	606.82
502.07	618.74
502.43	631.07
502.79	643.87
503.16	656.98
503.52	670.20
503.88	683.88
504.24	697.99
504.60	712.28
504.97	726.99
505.33	742.08
505.69	757.86
506.05	773.93
506.41	790.21
506.78	806.71
507.14	823.76
507.50	841.11
507.86	858.85
508.22	876.88
508.59	895.01
508.95	913.69
509.31	932.90
509.67	952.89
510.03	973.01
510.39	993.18
510.75	1013.55
511.12	1034.29
511.48	1055.24
511.84	1076.60
512.20	1098.18
512.56	1120.54
512.92	1143.02
513.28	1165.45
513.64	1188.20
514.00	1211.35
514.37	1235.06
514.73	1258.75
515.09	1282.20
515.45	1305.83
515.81	1329.70
516.17	1353.77
516.53	1377.66
516.89	1401.33
517.25	1424.90
517.61	1448.78
517.97	1472.95
518.33	1497.03
518.69	1521.31
519.05	1545.87
519.41	1570.32
519.77	1595.24
520.13	1619.41
520.49	1643.63
520.85	1667.84
521.21	1691.98
521.57	1716.64
521.93	1740.54
522.29	1764.84
522.65	1789.08
523.01	1813.40
523.37	1837.16
523.73	1861.43
524.09	1885.57
524.45	1909.86
524.81	1933.99
525.17	1957.41
525.53	1980.58
525.89	2003.68
526.25	2026.79
526.61	2048.55
526.97	2070.66
527.33	2092.53
527.68	2114.39
528.04	2135.77
528.40	2157.18
528.76	2178.22
529.12	2198.54
529.48	2219.37
529.84	2238.21
530.20	2257.59
530.56	2276.39
530.91	2295.77
531.27	2314.55
531.63	2332.63
531.99	2350.19
532.35	2367.32
532.71	2385.38
533.07	2403.74
533.42	2420.48
533.78	2437.64
534.14	2455.23
534.50	2471.81
534.86	2488.76
535.21	2503.79
535.57	2518.92
535.93	2533.38
536.29	2547.33
536.65	2560.75
537.00	2573.01
537.36	2586.32
537.72	2598.25
538.08	2610.27
538.44	2621.00
538.79	2631.29
539.15	2640.66
539.51	2649.99
539.87	2658.22
540.22	2664.05
540.58	2669.91
540.94	2676.37
541.29	2681.65
541.65	2686.68
542.01	2691.51
542.37	2694.50
542.72	2698.98
543.08	2702.39
543.44	2705.52
543.79	2707.84
544.15	2709.81
544.51	2711.37
544.87	2712.83
545.22	2714.00
545.58	2713.81
545.94	2713.60
546.29	2712.28
546.65	2711.16
547.01	2709.85
547.36	2708.92
547.72	2708.46
548.07	2706.87
548.43	2703.81
548.79	2700.44
549.14	2697.07
549.50	2693.88
549.86	2690.35
550.21	2685.61
550.57	2681.37
550.92	2675.85
551.28	2670.34
551.64	2664.78
551.99	2659.27
552.35	2652.57
552.70	2646.10
553.06	2640.43
553.41	2634.50
553.77	2628.27
554.13	2622.12
554.48	2614.63
554.84	2606.42
555.19	2597.98
555.55	2588.77
555.90	2580.84
556.26	2573.12
556.61	2564.47
556.97	2554.50
557.32	2544.66
557.68	2534.99
558.03	2525.00
558.39	2515.90
558.74	2507.51
559.10	2497.75
559.45	2487.91
559.81	2478.44
560.16	2468.33
560.52	2457.96
560.87	2447.80
561.23	2437.00
561.58	2426.55
561.94	2416.15
562.29	2405.27
562.64	2394.93
563.00	2384.87
563.35	2374.66
563.71	2363.64
564.06	2352.91
564.42	2342.41
564.77	2331.88
565.12	2321.12
565.48	2309.91
565.83	2298.47
566.19	2286.72
566.54	2275.47
566.89	2263.43
567.25	2251.46
567.60	2240.54
567.96	2229.05
568.31	2216.46
568.66	2204.42
569.02	2192.60
569.37	2181.20
569.72	2170.55
570.08	2158.80
570.43	2146.71
570.78	2134.34
571.14	2122.04
571.49	2109.43
571.84	2097.08
572.20	2083.92
572.55	2070.73
572.90	2058.01
573.26	2045.60
573.61	2032.42
573.96	2019.59
574.31	2007.30
574.67	1994.81
575.02	1981.18
575.37	1967.58
575.72	1954.56
576.08	1941.60
576.43	1928.03
576.78	1914.44
577.13	1900.57
577.49	1887.13
577.84	1873.96
578.19	1860.81
578.54	1847.26
578.90	1833.50
579.25	1819.48
579.60	1806.66
579.95	1794.12
580.30	1781.37
580.66	1768.01
581.01	1754.69
581.36	1740.99
581.71	1727.71
582.06	1714.73
582.42	1702.15
582.77	1689.52
583.12	1677.18
583.47	1665.09
583.82	1652.57
584.17	1639.32
584.53	1626.37
584.88	1613.58
585.23	1600.61
585.58	1587.69
585.93	1575.32
586.28	1563.50
586.63	1551.63
586.98	1539.19
587.34	1526.86
587.69	1514.00
588.04	1501.60
588.39	1489.69
588.74	1477.61
589.09	1465.83
589.44	1453.34
589.79	1441.00
590.14	1428.92
590.49	1416.69
590.84	1404.55
591.19	1393.12
591.54	1381.65
591.89	1369.97
592.25	1358.75
592.60	1347.25
592.95	1336.18
593.30	1324.93
593.65	1313.81
594.00	1302.87
594.35	1292.43
594.70	1281.17
595.05	1270.76
595.40	1260.10
595.75	1249.21
596.10	1238.96
596.45	1228.34
596.80	1218.42
597.15	1208.65
597.50	1198.77
597.85	1189.29
598.19	1179.82
598.54	1170.03
598.89	1160.90
599.24	1152.05
599.59	1143.27
599.94	1134.97
600.29	1126.25
600.64	1117.58
600.99	1108.28
601.34	1099.49
601.69	1090.54
602.04	1082.45
602.39	1074.00
602.74	1066.00
603.08	1058.34
603.43	1050.40
603.78	1042.40
604.13	1034.45
604.48	1026.31
604.83	1018.43
605.18	1010.35
605.53	1002.24
605.87	994.15
606.22	986.30
606.57	978.23
606.92	969.95
607.27	961.89
607.62	954.12
607.96	946.43
608.31	939.76
608.66	932.82
609.01	925.84
609.36	918.87
609.70	911.94
610.05	904.83
610.40	897.80
610.75	890.67
611.10	883.97
611.44	877.02
611.79	870.45
612.14	863.74
612.49	856.88
612.83	850.45
613.18	844.20
613.53	837.98
613.88	831.92
614.22	826.13
614.57	820.07
614.92	814.11
615.27	808.27
615.61	801.95
615.96	795.76
616.31	789.81
616.65	783.64
617.00	777.58
617.35	771.58
617.70	765.72
618.04	760.04
618.39	754.21
618.74	748.69
619.08	742.98
619.43	737.42
619.78	731.97
620.12	726.33
620.47	720.92
620.82	715.54
621.16	710.25
621.51	704.76
621.85	699.41
622.20	693.90
622.55	688.46
622.89	683.17
623.24	678.01
623.59	672.91
623.93	668.10
624.28	663.43
624.62	658.80
624.97	654.05
625.32	649.38
625.66	644.53
626.01	639.67
626.35	634.97
626.70	630.24
627.04	625.80
627.39	621.39
627.73	616.95
628.08	612.56
628.43	608.15
628.77	603.84
629.12	599.58
629.46	595.54
629.81	591.43
630.15	587.34
630.50	583.31
630.84	579.31
631.19	575.38
631.53	571.56
631.88	567.68
632.22	563.73
632.57	560.03
632.91	556.40
633.26	552.77
633.60	549.15
633.95	545.66
634.29	542.10
634.64	538.57
634.98	534.93
635.32	531.41
635.67	528.12
636.01	524.86
636.36	521.58
636.70	518.42
637.05	515.26
637.39	512.16
637.73	508.86
638.08	505.69
638.42	502.57
638.77	499.31
639.11	495.97
639.45	492.76
639.80	489.55
640.14	486.46
640.49	483.42
640.83	480.32
641.17	477.27
641.52	474.22
641.86	471.12
642.20	468.21
642.55	465.19
642.89	462.18
643.23	459.29
643.58	456.61
643.92	453.82
644.26	451.11
644.61	448.42
644.95	445.79
645.29	443.06
645.64	440.28
645.98	437.59
646.32	435.06
646.66	432.55
647.01	430.07
647.35	427.74
647.69	425.27
648.04	422.89
648.38	420.50
648.72	418.14
649.06	415.85
649.41	413.57
649.75	411.34
650.09	409.06
650.43	406.81
650.78	404.54
651.12	402.27
651.46	400.05
651.80	397.90
652.14	395.84
652.49	393.82
652.83	391.83
653.17	389.91
653.51	388.05
653.85	386.19
654.20	384.28
654.54	382.23
654.88	380.32
655.22	378.44
655.56	376.61
655.90	374.84
656.25	373.09
656.59	371.33
656.93	369.65
657.27	368.07
657.61	366.38
657.95	364.76
658.29	363.18
658.64	361.64
658.98	360.00
659.32	358.33
659.66	356.77
660.00	355.24
660.34	353.71
660.68	352.15
661.02	350.56
661.36	349.03
661.70	347.56
662.05	346.15
662.39	344.75
662.73	343.39
663.07	342.09
663.41	340.81
663.75	339.52
664.09	338.25
664.43	336.90
664.77	335.61
665.11	334.24
665.45	332.94
665.79	331.66
666.13	330.45
666.47	329.28
666.81	328.05
667.15	326.77
667.49	325.57
667.83	324.39
668.17	323.25
668.51	322.15
668.85	321.08
669.19	320.02
669.53	318.88
669.87	317.69
670.21	316.57
670.55	315.44
670.89	314.42
671.23	313.35
671.57	312.30
671.91	311.35
672.25	310.46
672.58	309.54
672.92	308.58
673.26	307.68
673.60	306.76
673.94	305.86
674.28	305.01
674.62	304.14
674.96	303.24
675.30	302.42
675.64	301.57
675.97	300.72
676.31	299.85
676.65	299.04
676.99	298.31
677.33	297.48
677.67	296.69
678.01	295.84
678.34	295.05
678.68	294.29
679.02	293.50
679.36	292.70
679.70	291.91
680.04	291.14
680.37	290.36
680.71	289.64
681.05	288.95
681.39	288.23
681.73	287.50
682.06	286.80
682.40	286.09
682.74	285.42
683.08	284.76
683.42	284.09
683.75	283.45
684.09	282.75
684.43	282.13
684.77	281.48
685.10	280.86
685.44	280.24
685.78	279.62
686.12	279.02
686.45	278.43
686.79	277.81
687.13	277.22
687.46	276.59
687.80	275.99
688.14	275.36
688.48	274.79
688.81	274.20
689.15	273.66
689.49	273.08
689.82	272.49
690.16	271.85
690.50	271.26
690.83	270.68
691.17	270.11
691.51	269.55
691.84	269.01
692.18	268.45
692.52	267.89
692.85	267.34
693.19	266.84
693.52	266.31
693.86	265.80
694.20	265.28
694.53	264.77
694.87	264.27
695.21	263.79
695.54	263.28
695.88	262.78
696.21	262.25
696.55	261.77
696.88	261.30
697.22	260.84
697.56	260.42
697.89	259.97
698.23	259.53
698.56	259.08
698.90	258.68
699.23	258.26
699.57	257.86
699.90	257.44
700.24	257.00
700.58	256.59
700.91	256.23
701.25	255.93
701.58	255.58
701.92	255.22
702.25	254.84
702.59	254.46
702.92	254.10
703.26	253.74
703.59	253.38
703.93	253.11
704.26	252.78
704.60	252.40
704.93	252.03
705.26	251.68
705.60	251.37
705.93	250.99
706.27	250.70
706.60	250.39
706.94	250.11
707.27	249.77
707.61	249.43
707.94	249.09
708.27	248.68
708.61	248.32
708.94	247.99
709.28	247.68
709.61	247.37
709.94	247.09
710.28	246.82
710.61	246.57
710.95	246.21
711.28	246.00
711.61	245.73
711.95	245.50
712.28	245.22
712.61	244.94
712.95	244.74
713.28	244.51
713.61	244.23
713.95	243.93
714.28	243.70
714.61	243.45
714.95	243.20
715.28	242.96
715.61	242.73
715.95	242.52
716.28	242.30
716.61	242.11
716.95	241.87
717.28	241.65
717.61	241.41
717.94	241.20
718.28	240.92
718.61	240.71
718.94	240.49
719.27	240.30
719.61	240.13
719.94	239.91
720.27	239.67
720.60	239.48
720.94	239.29
721.27	239.10
721.60	238.94
721.93	238.78
722.27	238.65
722.60	238.47
722.93	238.27
723.26	238.10
723.59	237.90
723.93	237.75
724.26	237.59
724.59	237.43
724.92	237.27
725.25	237.14
725.59	236.98
725.92	236.85
726.25	236.70
726.58	236.56
726.91	236.39
727.24	236.27
727.57	236.12
727.91	235.96
728.24	235.84
728.57	235.69
728.90	235.55
729.23	235.38
729.56	235.30
729.89	235.18
730.22	235.04
730.55	234.92
730.89	234.79
731.22	234.66
731.55	234.52
731.88	234.40
732.21	234.25
732.54	234.13
732.87	234.00
733.20	233.88
733.53	233.77
733.86	233.67
734.19	233.54
734.52	233.45
734.85	233.43
735.18	233.31
735.51	233.24
735.84	233.13
736.17	233.06
736.50	232.91
736.83	232.93
737.16	232.84
737.49	232.75
737.82	232.65
738.15	232.57
738.48	232.49
738.81	232.38
739.14	232.28
739.47	232.18
739.80	232.09
740.13	232.00
740.46	231.89
740.79	231.77
741.12	231.68
741.45	231.56
741.78	231.41
742.11	231.35
742.44	231.23
742.77	231.15
743.10	231.04
743.43	230.94
743.75	230.75
744.08	230.81
744.41	230.71
744.74	230.63
745.07	230.54
745.40	230.47
745.73	230.44
746.06	230.38
746.39	230.32
746.71	230.25
747.04	230.17
747.37	230.10
747.70	230.07
748.03	229.99
748.36	229.95
748.68	229.88
749.01	229.79
749.34	229.73
749.67	229.66
750.00	229.62
750.33	229.63
750.65	229.57
750.98	229.37
751.31	229.31
751.64	229.26
751.97	229.24
752.29	229.17
752.62	229.07
752.95	228.99
753.28	228.92
753.60	228.85
753.93	228.81
754.26	228.76
754.59	228.65
754.91	228.59
755.24	228.52
755.57	228.50
755.90	228.45
756.22	228.38
756.55	228.31
756.88	228.23
757.20	228.10
757.53	228.03
757.86	227.96
758.19	227.91
758.51	227.86
758.84	227.76
759.17	227.69
759.49	227.65
759.82	227.65
760.15	227.61
760.47	227.56
760.80	227.49
761.13	227.46
761.45	227.43
761.78	227.38
762.11	227.34
762.43	227.25
762.76	227.21
763.08	227.18
763.41	227.15
763.74	227.12
764.06	227.07
764.39	227.04
764.71	227.00
765.04	226.95
765.37	226.90
765.69	226.86
766.02	226.83
766.34	226.78
766.67	226.70
767.00	226.69
767.32	226.71
767.65	226.74
767.97	226.68
768.30	226.65
768.62	226.62
768.95	226.57
769.27	226.53
769.60	226.50
769.92	226.45
770.25	226.40
770.57	226.34
770.90	226.31
771.22	226.28
771.55	226.25
771.87	226.23
772.20	226.21
772.52	226.27
772.85	226.36
773.17	226.34
773.50	226.31
773.82	226.26
774.15	226.18
774.47	226.09
774.80	226.06
775.12	226.03
775.45	226.00
775.77	225.98
776.09	225.97
776.42	225.94
776.74	225.95
777.07	225.93
777.39	225.91
777.72	225.88
778.04	225.87
778.36	225.84
778.69	225.81
779.01	225.79
779.33	225.67
779.66	225.55
779.98	225.52
780.31	225.50
780.63	225.52
780.95	225.51
781.28	225.49
781.60	225.48
781.92	225.46
782.25	225.43
782.57	225.41
782.89	225.39
783.22	225.37
783.54	225.32
783.86	225.31
784.19	225.28
784.51	225.30
784.83	225.27
785.16	225.25
785.48	225.23
785.80	225.23
786.12	225.22
786.45	225.19
786.77	225.19
787.09	225.16
787.42	225.10
787.74	225.09
788.06	225.08
788.38	225.05
788.71	225.03
789.03	225.02
789.35	225.01
789.67	224.99
789.99	224.98
790.32	224.96
790.64	224.95
790.96	225.02
791.28	224.97
791.61	224.95
791.93	224.94
792.25	224.92
792.57	224.97
792.89	224.94
793.21	224.93
793.54	224.90
793.86	224.88
794.18	224.88
794.50	224.85
794.82	224.84
795.14	224.85
795.47	224.86
795.79	224.84
796.11	224.81
796.43	224.78
796.75	224.77
797.07	224.76
797.39	224.74
797.71	224.65
798.04	224.64
798.36	224.64
798.68	224.63
799.00	224.62
799.32	224.56
799.64	224.57
799.96	224.56
800.28	224.58
800.60	224.55
800.92	224.55
801.24	224.54
801.56	224.54
801.89	224.51
802.21	224.50
802.53	224.48
802.85	224.49
803.17	224.53
803.49	224.49
803.81	224.48
804.13	224.47
804.45	224.45
804.77	224.44
805.09	224.42
805.41	224.40
805.73	224.37
806.05	224.33
806.37	224.32
806.69	224.30
807.01	224.27
807.33	224.29
807.65	224.24
807.97	224.26
808.28	224.23
808.60	224.23
808.92	224.20
809.24	224.25
809.56	224.22
809.88	224.18
810.20	224.19
810.52	224.20
810.84	224.18
811.16	224.16
811.48	224.15
811.80	224.19
812.12	224.18
812.43	224.20
812.75	224.20
813.07	224.18
813.39	224.18
813.71	224.17
814.03	224.15
814.35	224.15
814.67	224.10
814.98	224.09
815.30	224.09
815.62	224.07
815.94	224.00
816.26	224.01
816.58	223.98
816.89	223.97
817.21	223.94
817.53	223.94
817.85	223.95
818.17	223.94
818.48	223.89
818.80	223.91
819.12	223.88
819.44	223.85
819.76	223.84
820.07	223.83
820.39	223.83
820.71	223.84
821.03	223.82
821.34	223.82
821.66	223.82
821.98	223.83
822.30	223.83
822.61	223.88
822.93	223.86
823.25	223.85
823.57	223.84
823.88	223.85
824.20	223.84
824.52	223.86
824.83	223.84
825.15	223.84
825.47	223.81
825.79	223.81
826.10	223.81
826.42	223.80
826.74	223.80
827.05	223.79
827.37	223.79
827.69	223.78
828.00	223.77
828.32	223.77
828.64	223.75
828.95	223.79
829.27	223.77
829.58	223.76
829.90	223.77
830.22	223.77
830.53	223.75
830.85	223.75
831.17	223.71
831.48	223.71
831.80	223.71
832.11	223.72
832.43	223.70
832.75	223.69
833.06	223.75
833.38	223.72
833.69	223.72
834.01	223.71
834.32	223.71
834.64	223.70
834.96	223.70
835.27	223.69
835.59	223.65
835.90	223.63
836.22	223.62
836.53	223.60
836.85	223.59
837.16	223.69
837.48	223.67
837.79	223.71
838.11	223.71
838.42	223.69
838.74	223.69
839.05	223.68
839.37	223.67
839.68	223.59
840.00	223.59
840.31	223.59
840.63	223.58
840.94	223.56
841.26	223.56
841.57	223.55
841.88	223.56
842.20	223.54
842.51	223.52
842.83	223.52
843.14	223.62
843.46	223.62
843.77	223.55
844.08	223.55
844.40	223.51
844.71	223.50
845.03	223.50
845.34	223.49
845.65	223.49
845.97	223.50
846.28	223.50
846.60	223.51
846.91	223.51
847.22	223.51
847.54	223.54
847.85	223.55
848.16	223.54
848.48	223.52
848.79	223.56
849.10	223.56
849.42	223.57
849.73	223.47
850.04	223.46
850.36	223.42
850.67	223.44
850.98	223.44
851.30	223.46
851.61	223.45
851.92	223.45
852.23	223.49
852.55	223.49
852.86	223.50
853.17	223.51
853.49	223.52
853.80	223.54
854.11	223.54
854.42	223.55
854.74	223.54
855.05	223.55
855.36	223.49
855.67	223.50
855.99	223.50
856.30	223.63
856.61	223.63
856.92	223.64
857.23	223.64
857.55	223.63
857.86	223.62
858.17	223.63
858.48	223.61
858.79	223.59
859.11	223.59
859.42	223.58
859.73	223.57
860.04	223.56
860.35	223.53
860.66	223.50
860.98	223.49
861.29	223.50
861.60	223.49
861.91	223.52
862.22	223.50
862.53	223.48
862.84	223.36
863.16	223.38
863.47	223.37
863.78	223.35
864.09	223.36
864.40	223.36
864.71	223.37
865.02	223.38
865.33	223.37
865.64	223.35
865.95	223.36
866.27	223.41
866.58	223.40
866.89	223.42
867.20	223.42
867.51	223.40
867.82	223.40
868.13	223.42
868.44	223.40
868.75	223.43
869.06	223.44
869.37	223.44
869.68	223.42
869.99	223.43
870.30	223.44
870.61	223.46
870.92	223.44
871.23	223.43
871.54	223.45
871.85	223.47
872.16	223.48
872.47	223.46
872.78	223.40
873.09	223.41
873.40	223.39
873.71	223.41
874.02	223.43
874.33	223.42
874.64	223.39
874.95	223.42
875.26	223.39
875.56	223.38
875.87	223.38
876.18	223.37
876.49	223.47
876.80	223.46
877.11	223.44
877.42	223.45
877.73	223.45
878.04	223.43
878.35	223.44
878.66	223.44
878.96	223.43
879.27	223.44
879.58	223.43
879.89	223.43
880.20	223.44
880.51	223.43
880.82	223.44
881.12	223.44
881.43	223.40
881.74	223.40
882.05	223.39
882.36	223.39
882.67	223.41
882.97	223.29
883.28	223.29
883.59	223.28
883.90	223.28
884.21	223.29
884.51	223.28
884.82	223.26
885.13	223.26
885.44	223.26
885.74	223.26
886.05	223.25
886.36	223.25
886.67	223.23
886.98	223.27
887.28	223.27
887.59	223.27
887.90	223.28
888.20	223.28
888.51	223.29
888.82	223.28
889.13	223.28
889.43	223.37
889.74	223.37
890.05	223.36
890.35	223.34
890.66	223.32
890.97	223.31
891.28	223.30
891.58	223.31
891.89	223.31
892.20	223.31
892.50	223.28
892.81	223.27
893.12	223.26
893.42	223.21
893.73	223.21
894.04	223.21
894.34	223.22
894.65	223.22
894.95	223.21
895.26	223.22
895.57	223.26
895.87	223.15
896.18	223.17
896.48	223.18
896.79	223.19
897.10	223.20
897.40	223.21
897.71	223.22
898.01	223.21
898.32	223.22
898.63	223.22
898.93	223.23
899.24	223.23
899.54	223.24
899.85	223.24
900.15	223.23
900.46	223.23
900.76	223.24
901.07	223.23
901.38	223.23
901.68	223.23
901.99	223.18
902.29	223.18
902.60	223.17
902.90	223.16
903.21	223.15
903.51	223.15
903.82	223.17
904.12	223.17
904.43	223.18
904.73	223.18
905.03	223.19
905.34	223.29
905.64	223.29
905.95	223.28
906.25	223.28
906.56	223.28
906.86	223.29
907.17	223.27
907.47	223.29
907.77	223.28
908.08	223.25
908.38	223.26
908.69	223.27
908.99	223.29
909.30	223.30
909.60	223.31
909.90	223.31
910.21	223.27
910.51	223.25
910.81	223.25
911.12	223.25
911.42	223.25
911.73	223.13
912.03	223.13
912.33	223.16
912.64	223.16
912.94	223.15
913.24	223.13
913.55	223.12
913.85	223.11
914.15	223.13
914.46	223.15
914.76	223.14
915.06	223.14
915.37	223.12
915.67	223.10
915.97	223.10
916.27	223.08
916.58	223.09
916.88	223.08
917.18	223.07
917.49	223.15
917.79	223.14
918.09	223.16
918.39	223.18
918.70	223.17
919.00	223.16
919.30	223.21
919.60	223.20
919.91	223.20
920.21	223.21
920.51	223.19
920.81	223.18
921.12	223.19
921.42	223.18
921.72	223.18
922.02	223.19
922.32	223.20
922.63	223.20
922.93	223.26
923.23	223.27
923.53	223.26
923.83	223.18
924.13	223.19
924.44	223.18
924.74	223.20
925.04	223.22
925.34	223.22
925.64	223.18
925.94	223.19
926.24	223.24
926.55	223.23
926.85	223.25
927.15	223.24
927.45	223.24
927.75	223.25
928.05	223.25
928.35	223.24
928.65	223.25
928.95	223.27
929.26	223.22
929.56	223.24
929.86	223.25
930.16	223.25
930.46	223.24
930.76	223.24
931.06	223.19
931.36	223.16
931.66	223.18
931.96	223.20
932.26	223.20
932.56	223.16
932.86	223.17
933.16	223.17
933.46	223.16
933.76	223.14
934.06	223.15
934.36	223.19
934.66	223.19
934.96	223.18
935.26	223.17
935.56	223.20
935.86	223.16
936.16	223.16
936.46	223.14
936.76	223.14
937.06	223.13
937.36	223.15
937.66	223.14
937.96	223.14
938.26	223.11
938.56	223.10
938.86	223.11
939.16	223.13
939.46	223.14
939.76	223.15
940.06	223.16
940.35	223.14
940.65	223.09
940.95	223.09
941.25	223.06
941.55	223.05
941.85	223.04
942.15	223.06
942.45	223.09
942.75	223.09
943.04	223.09
943.34	223.11
943.64	223.08
943.94	223.07
944.24	223.07
944.54	223.07
944.84	223.06
945.13	223.05
945.43	223.02
945.73	223.01
946.03	223.00
946.33	222.99
946.62	222.98
946.92	222.98
947.22	222.98
947.52	222.99
947.82	223.00
948.11	222.98
948.41	222.96
948.71	222.93
949.01	222.93
949.31	222.92
949.60	222.91
949.90	222.93
950.20	222.93
950.50	222.92
950.79	222.92
951.09	222.93
951.39	222.92
951.69	222.91
951.98	222.93
952.28	222.94
952.58	222.95
952.87	222.93
953.17	222.94
953.47	222.93
953.76	222.93
954.06	222.91
954.36	222.89
954.66	222.89
954.95	222.92
955.25	222.92
955.55	222.93
955.84	222.92
956.14	222.92
956.44	222.93
956.73	222.92
957.03	222.92
957.32	222.92
957.62	222.92
957.92	222.93
958.21	222.90
958.51	223.02
958.81	223.03
959.10	223.04
959.40	223.08
959.69	223.09
959.99	223.10
960.29	223.11
960.58	223.10
960.88	223.14
961.17	223.13
961.47	223.14
961.76	223.13
962.06	223.15
962.36	223.14
962.65	223.14
962.95	223.14
963.24	223.13
963.54	223.14
963.83	223.15
964.13	223.14
964.42	223.14
964.72	223.06
965.01	223.04
965.31	223.03
965.60	223.00
965.90	223.06
966.19	223.04
966.49	223.05
966.78	223.05
967.08	223.04
967.37	223.03
967.67	223.01
967.96	223.03
968.26	223.03
968.55	223.04
968.85	223.04
969.14	223.04
969.43	223.03
969.73	223.03
970.02	223.03
970.32	223.02
970.61	223.00
970.91	222.97
971.20	222.96
971.49	222.96
971.79	222.96
972.08	222.88
972.38	222.90
972.67	222.89
972.96	222.91
973.26	222.88
973.55	222.91
973.85	222.92
974.14	222.90
974.43	222.90
974.73	222.89
975.02	222.88
975.31	222.88
975.61	222.87
975.90	222.87
976.19	222.85
976.49	222.86
976.78	222.87
977.07	222.88
977.37	222.89
977.66	222.90
977.95	222.88
978.24	222.89
978.54	222.91
978.83	222.91
979.12	222.90
979.42	222.90
979.71	222.89
980.00	222.89
980.29	222.89
980.59	222.88
980.88	222.91
981.17	222.91
981.46	222.91
981.76	222.92
982.05	222.95
982.34	222.96
982.63	222.96
982.93	222.96
983.22	222.99
983.51	223.00
983.80	223.01
984.09	223.03
984.39	223.03
984.68	223.01
984.97	223.01
985.26	223.00
985.55	223.02
985.85	222.99
986.14	223.00
986.43	223.00
986.72	223.00
987.01	222.96
987.30	222.96
987.59	222.96
987.89	222.96
988.18	222.92
988.47	222.91
988.76	222.90
989.05	222.88
989.34	222.86
989.63	222.88
989.92	222.86
990.22	222.85
990.51	222.84
990.80	222.85
991.09	222.85
991.38	222.87
991.67	222.85
991.96	222.85
992.25	222.86
992.54	222.84
992.83	222.84
993.12	222.84
993.41	222.86
993.70	222.90
993.99	222.92
994.28	222.94
994.58	222.95
994.87	222.95
995.16	222.95
995.45	222.95
995.74	222.92
996.03	222.93
996.32	222.95
996.61	222.97
996.90	222.97
997.19	222.96
997.48	222.96
997.77	222.95
998.06	222.95
998.34	222.94
998.63	222.95
998.92	222.96
999.21	222.98
999.50	222.97
999.79	222.93
1000.08	222.93
1000.37	222.92
1000.66	222.92
1000.95	222.95
1001.24	222.96
1001.53	222.97
1001.82	222.98
1002.11	222.94
1002.40	222.96
1002.68	222.98
1002.97	223.06
1003.26	223.04
1003.55	223.03
1003.84	223.04
1004.13	223.07
1004.42	223.07
1004.71	223.07
1004.99	223.05
1005.28	223.07
1005.57	223.06
1005.86	223.06
1006.15	223.05
1006.44	223.04
1006.72	223.05
1007.01	223.02
1007.30	223.03
1007.59	223.02
1007.88	223.02
1008.17	223.03
1008.45	223.00
1008.74	222.96
1009.03	222.90
1009.32	222.92
1009.60	222.92
1009.89	222.91
1010.18	222.87
1010.47	222.86
1010.76	222.86
1011.04	222.87
1011.33	222.86
1011.62	222.86
1011.91	222.87
1012.19	222.87
1012.48	222.87
1012.77	222.87
1013.05	222.91
1013.34	222.90
1013.63	222.89
1013.92	222.90
1014.20	222.88
1014.49	222.89
1014.78	222.90
1015.06	222.87
1015.35	222.87
1015.64	222.87
1015.92	222.88
1016.21	222.90
1016.50	222.91
1016.78	222.92
1017.07	222.94
1017.36	222.92
1017.64	222.92
1017.93	222.93
1018.22	222.92
1018.50	222.93
1018.79	222.92
1019.08	222.87
1019.36	222.88
1019.65	222.87
1019.93	222.91
1020.22	222.93
1020.51	222.98
1020.79	222.97
1021.08	222.91
1021.36	222.77
1021.65	222.81
1021.94	222.72
1022.22	222.96
1022.51	222.67
1022.79	223.57
1023.08	223.11
1023.36	224.09
1023.65	222.69
>>>>>End Processed Spectral Data<<<<<
