SpectraSuite Data File
++++++++++++++++++++++++++++++++++++
Date: Wed Sep 30 15:33:12 EDT 2015
User: lab3
Dark Spectrum Present: No
Reference Spectrum Present: No
Number of Sampled Component Spectra: 1
Spectrometers: USB2E7196
Integration Time (usec): 36000 (USB2E7196)
Spectra Averaged: 1500 (USB2E7196)
Boxcar Smoothing: 10 (USB2E7196)
Correct for Electrical Dark: No (USB2E7196)
Strobe/Lamp Enabled: No (USB2E7196)
Correct for Detector Non-linearity: No (USB2E7196)
Correct for Stray Light: No (USB2E7196)
Number of Pixels in Processed Spectrum: 2048
>>>>>Begin Processed Spectral Data<<<<<
339.09	0.00
339.48	211.46
339.86	212.88
340.24	214.27
340.63	215.74
341.01	218.76
341.39	218.46
341.78	219.69
342.16	220.98
342.54	221.45
342.93	209.99
343.31	220.61
343.69	221.15
344.07	221.61
344.46	222.04
344.84	222.42
345.22	222.65
345.60	222.90
345.99	223.10
346.37	223.23
346.75	223.34
347.13	223.42
347.52	223.48
347.90	223.56
348.28	223.60
348.66	223.65
349.05	223.64
349.43	223.70
349.81	223.75
350.19	223.79
350.57	223.86
350.96	223.93
351.34	224.02
351.72	224.11
352.10	224.22
352.48	224.30
352.87	224.35
353.25	224.41
353.63	224.48
354.01	224.55
354.39	224.62
354.77	224.69
355.15	224.80
355.54	224.86
355.92	224.90
356.30	224.97
356.68	225.11
357.06	225.20
357.44	225.24
357.82	225.31
358.20	225.43
358.58	225.48
358.97	225.55
359.35	225.62
359.73	225.71
360.11	225.75
360.49	225.82
360.87	225.87
361.25	225.93
361.63	226.01
362.01	226.06
362.39	226.08
362.77	226.14
363.15	226.16
363.53	226.18
363.91	226.22
364.29	226.25
364.67	226.17
365.05	226.19
365.43	226.22
365.81	226.24
366.19	226.25
366.57	226.29
366.95	226.30
367.33	226.27
367.71	226.26
368.09	226.28
368.47	226.27
368.85	226.25
369.23	226.27
369.61	226.22
369.99	226.23
370.37	226.24
370.75	226.29
371.13	226.25
371.51	226.22
371.89	226.20
372.27	226.16
372.65	226.13
373.03	226.09
373.41	226.05
373.78	226.00
374.16	225.91
374.54	225.83
374.92	225.77
375.30	225.73
375.68	225.67
376.06	225.62
376.44	225.57
376.82	225.53
377.19	225.48
377.57	225.43
377.95	225.33
378.33	225.27
378.71	225.12
379.09	225.07
379.47	225.03
379.84	224.96
380.22	224.90
380.60	224.82
380.98	224.77
381.36	224.72
381.73	224.66
382.11	224.63
382.49	224.59
382.87	224.53
383.25	224.49
383.62	224.55
384.00	224.48
384.38	224.43
384.76	224.41
385.13	224.39
385.51	224.35
385.89	224.29
386.27	224.26
386.64	224.24
387.02	224.19
387.40	224.16
387.78	224.14
388.15	224.12
388.53	224.10
388.91	224.07
389.29	224.02
389.66	224.01
390.04	223.98
390.42	223.96
390.79	223.94
391.17	223.92
391.55	223.79
391.92	223.78
392.30	223.78
392.68	223.74
393.05	223.72
393.43	223.72
393.81	223.72
394.18	223.70
394.56	223.70
394.94	223.73
395.31	223.72
395.69	223.76
396.06	223.77
396.44	223.79
396.82	223.79
397.19	223.87
397.57	223.88
397.95	223.92
398.32	223.92
398.70	223.97
399.07	224.03
399.45	224.06
399.82	224.09
400.20	224.12
400.58	224.18
400.95	224.19
401.33	224.26
401.70	224.40
402.08	224.50
402.45	224.57
402.83	224.67
403.20	224.77
403.58	224.85
403.95	224.97
404.33	225.10
404.71	225.24
405.08	225.41
405.46	225.56
405.83	225.73
406.21	225.90
406.58	226.09
406.96	226.28
407.33	226.50
407.70	226.74
408.08	227.08
408.45	227.36
408.83	227.67
409.20	227.95
409.58	228.21
409.95	228.54
410.33	228.92
410.70	229.28
411.08	229.70
411.45	230.15
411.82	230.60
412.20	231.11
412.57	231.71
412.95	232.20
413.32	232.81
413.69	233.46
414.07	234.13
414.44	234.87
414.82	235.62
415.19	236.50
415.56	237.40
415.94	238.32
416.31	239.37
416.68	240.43
417.06	241.64
417.43	242.77
417.81	244.10
418.18	245.45
418.55	246.91
418.93	248.43
419.30	250.01
419.67	251.69
420.04	253.43
420.42	255.26
420.79	257.36
421.16	259.48
421.54	261.63
421.91	263.89
422.28	266.24
422.66	268.78
423.03	271.19
423.40	273.72
423.77	276.44
424.15	279.23
424.52	282.12
424.89	285.27
425.26	288.40
425.64	291.30
426.01	294.56
426.38	297.90
426.75	301.34
427.13	304.88
427.50	308.57
427.87	312.42
428.24	316.30
428.61	320.03
428.99	324.04
429.36	328.44
429.73	332.65
430.10	336.85
430.47	341.13
430.85	345.55
431.22	350.25
431.59	355.10
431.96	359.82
432.33	365.05
432.70	370.01
433.08	375.86
433.45	381.39
433.82	386.82
434.19	392.90
434.56	398.90
434.93	404.68
435.30	410.37
435.68	416.76
436.05	423.01
436.42	429.28
436.79	434.99
437.16	441.18
437.53	447.77
437.90	454.35
438.27	460.80
438.64	467.76
439.01	474.07
439.38	479.81
439.75	485.34
440.13	491.62
440.50	497.59
440.87	502.31
441.24	507.51
441.61	513.24
441.98	517.41
442.35	522.36
442.72	527.42
443.09	532.27
443.46	535.40
443.83	537.69
444.20	539.61
444.57	542.42
444.94	544.03
445.31	545.73
445.68	547.23
446.05	548.32
446.42	548.09
446.79	547.73
447.16	547.43
447.53	547.19
447.90	545.29
448.27	543.53
448.64	540.73
449.01	538.85
449.37	534.83
449.74	531.19
450.11	526.50
450.48	521.37
450.85	516.23
451.22	511.84
451.59	507.52
451.96	503.60
452.33	497.89
452.70	492.84
453.07	486.67
453.43	480.48
453.80	474.50
454.17	468.78
454.54	463.48
454.91	457.50
455.28	451.86
455.65	446.53
456.02	440.86
456.38	436.30
456.75	430.41
457.12	425.69
457.49	420.92
457.86	416.38
458.23	412.39
458.59	407.99
458.96	403.45
459.33	399.50
459.70	395.47
460.07	392.40
460.43	388.76
460.80	385.37
461.17	382.39
461.54	379.18
461.91	376.15
462.27	373.08
462.64	370.57
463.01	367.68
463.38	364.79
463.74	362.17
464.11	359.84
464.48	357.72
464.85	355.44
465.21	353.71
465.58	351.77
465.95	349.56
466.32	347.78
466.68	346.05
467.05	344.31
467.42	342.62
467.78	340.80
468.15	339.11
468.52	337.87
468.88	336.23
469.25	334.71
469.62	333.52
469.98	332.24
470.35	331.09
470.72	330.06
471.08	328.99
471.45	328.12
471.82	327.14
472.18	326.14
472.55	325.49
472.92	324.69
473.28	324.10
473.65	323.46
474.02	322.86
474.38	322.37
474.75	322.09
475.11	321.69
475.48	321.55
475.85	321.40
476.21	321.34
476.58	321.36
476.94	321.55
477.31	321.68
477.67	321.82
478.04	322.09
478.41	322.43
478.77	322.92
479.14	323.27
479.50	323.85
479.87	324.56
480.23	325.27
480.60	325.96
480.96	326.65
481.33	327.62
481.69	328.59
482.06	329.55
482.42	330.47
482.79	331.57
483.15	332.84
483.52	334.26
483.88	335.65
484.25	337.10
484.61	338.62
484.98	340.26
485.34	342.10
485.71	344.01
486.07	346.04
486.44	348.03
486.80	350.27
487.17	352.57
487.53	355.09
487.90	357.73
488.26	360.58
488.62	363.60
488.99	366.60
489.35	369.76
489.72	373.16
490.08	376.73
490.44	380.36
490.81	384.16
491.17	388.08
491.54	392.27
491.90	396.57
492.26	401.19
492.63	406.06
492.99	411.09
493.36	416.25
493.72	421.69
494.08	427.31
494.45	433.21
494.81	439.33
495.17	445.57
495.54	452.14
495.90	459.05
496.26	466.10
496.63	473.40
496.99	481.03
497.35	489.01
497.72	497.25
498.08	505.70
498.44	514.36
498.80	523.52
499.17	532.90
499.53	542.65
499.89	552.61
500.26	562.81
500.62	573.26
500.98	584.38
501.34	595.63
501.71	607.36
502.07	619.35
502.43	631.69
502.79	644.38
503.16	657.49
503.52	670.74
503.88	684.32
504.24	698.37
504.60	712.62
504.97	727.23
505.33	742.28
505.69	758.17
506.05	774.33
506.41	790.58
506.78	807.05
507.14	824.01
507.50	841.41
507.86	859.11
508.22	877.15
508.59	895.21
508.95	914.00
509.31	933.25
509.67	953.19
510.03	973.37
510.39	993.67
510.75	1014.14
511.12	1034.83
511.48	1055.78
511.84	1076.98
512.20	1098.49
512.56	1121.09
512.92	1143.64
513.28	1165.92
513.64	1188.51
514.00	1211.56
514.37	1234.94
514.73	1258.28
515.09	1281.39
515.45	1304.88
515.81	1328.90
516.17	1352.95
516.53	1376.68
516.89	1400.43
517.25	1424.33
517.61	1448.33
517.97	1472.58
518.33	1496.75
518.69	1521.21
519.05	1545.84
519.41	1570.37
519.77	1595.15
520.13	1619.08
520.49	1643.34
520.85	1667.83
521.21	1692.05
521.57	1716.67
521.93	1740.46
522.29	1764.81
522.65	1789.15
523.01	1813.28
523.37	1836.51
523.73	1860.39
524.09	1884.53
524.45	1908.49
524.81	1931.90
525.17	1955.21
525.53	1978.14
525.89	2000.80
526.25	2023.49
526.61	2045.51
526.97	2067.88
527.33	2090.10
527.68	2112.27
528.04	2133.74
528.40	2154.83
528.76	2176.11
529.12	2196.41
529.48	2217.38
529.84	2236.56
530.20	2255.99
530.56	2275.06
530.91	2294.46
531.27	2313.26
531.63	2331.15
531.99	2348.52
532.35	2365.86
532.71	2383.29
533.07	2401.12
533.42	2417.62
533.78	2434.50
534.14	2451.49
534.50	2467.57
534.86	2484.18
535.21	2498.94
535.57	2513.23
535.93	2527.09
536.29	2539.63
536.65	2552.94
537.00	2565.33
537.36	2578.29
537.72	2590.28
538.08	2602.05
538.44	2612.81
538.79	2623.68
539.15	2632.83
539.51	2641.68
539.87	2649.69
540.22	2655.68
540.58	2661.96
540.94	2668.61
541.29	2673.82
541.65	2678.22
542.01	2682.27
542.37	2684.52
542.72	2688.50
543.08	2691.99
543.44	2695.15
543.79	2698.13
544.15	2699.93
544.51	2701.46
544.87	2702.26
545.22	2703.02
545.58	2702.85
545.94	2702.69
546.29	2701.16
546.65	2699.78
547.01	2698.63
547.36	2697.98
547.72	2697.73
548.07	2696.07
548.43	2693.71
548.79	2690.55
549.14	2687.31
549.50	2684.59
549.86	2680.90
550.21	2675.59
550.57	2670.63
550.92	2664.52
551.28	2658.66
551.64	2652.81
551.99	2647.28
552.35	2641.60
552.70	2635.02
553.06	2629.06
553.41	2622.81
553.77	2615.96
554.13	2610.05
554.48	2603.11
554.84	2594.65
555.19	2586.06
555.55	2576.81
555.90	2568.18
556.26	2560.56
556.61	2552.31
556.97	2542.17
557.32	2533.30
557.68	2524.21
558.03	2514.95
558.39	2506.33
558.74	2497.63
559.10	2488.17
559.45	2477.97
559.81	2467.87
560.16	2457.46
560.52	2446.80
560.87	2436.91
561.23	2426.68
561.58	2416.21
561.94	2405.73
562.29	2394.62
562.64	2384.01
563.00	2373.74
563.35	2363.58
563.71	2352.41
564.06	2341.36
564.42	2330.96
564.77	2320.14
565.12	2309.26
565.48	2297.97
565.83	2287.40
566.19	2277.01
566.54	2265.83
566.89	2254.30
567.25	2243.07
567.60	2232.67
567.96	2221.67
568.31	2209.61
568.66	2197.62
569.02	2186.40
569.37	2174.99
569.72	2164.16
570.08	2152.78
570.43	2140.83
570.78	2128.39
571.14	2116.30
571.49	2104.39
571.84	2092.58
572.20	2079.70
572.55	2067.49
572.90	2055.11
573.26	2041.91
573.61	2028.23
573.96	2015.04
574.31	2001.92
574.67	1988.78
575.02	1975.11
575.37	1961.31
575.72	1947.85
576.08	1934.56
576.43	1920.33
576.78	1906.35
577.13	1892.92
577.49	1879.50
577.84	1866.69
578.19	1853.16
578.54	1839.21
578.90	1824.93
579.25	1810.47
579.60	1797.26
579.95	1783.74
580.30	1770.48
580.66	1757.22
581.01	1743.73
581.36	1730.45
581.71	1718.01
582.06	1705.08
582.42	1692.44
582.77	1680.00
583.12	1667.06
583.47	1654.65
583.82	1642.27
584.17	1629.62
584.53	1616.98
584.88	1604.54
585.23	1591.52
585.58	1579.16
585.93	1567.02
586.28	1555.54
586.63	1543.99
586.98	1531.61
587.34	1519.50
587.69	1506.93
588.04	1494.92
588.39	1483.18
588.74	1470.97
589.09	1458.53
589.44	1446.02
589.79	1433.88
590.14	1421.99
590.49	1410.32
590.84	1398.47
591.19	1387.11
591.54	1375.31
591.89	1363.50
592.25	1352.06
592.60	1340.32
592.95	1328.92
593.30	1317.83
593.65	1306.66
594.00	1295.83
594.35	1285.57
594.70	1274.42
595.05	1263.96
595.40	1253.25
595.75	1242.36
596.10	1232.39
596.45	1222.55
596.80	1213.10
597.15	1203.46
597.50	1193.69
597.85	1184.20
598.19	1174.75
598.54	1165.09
598.89	1156.11
599.24	1147.16
599.59	1138.03
599.94	1129.87
600.29	1121.55
600.64	1113.07
600.99	1103.92
601.34	1095.10
601.69	1086.10
602.04	1078.12
602.39	1070.16
602.74	1062.31
603.08	1054.63
603.43	1046.51
603.78	1038.30
604.13	1030.20
604.48	1022.00
604.83	1014.07
605.18	1006.07
605.53	998.15
605.87	990.07
606.22	982.26
606.57	974.32
606.92	966.24
607.27	958.09
607.62	950.25
607.96	942.55
608.31	935.91
608.66	928.91
609.01	922.10
609.36	915.14
609.70	908.02
610.05	900.77
610.40	893.82
610.75	886.86
611.10	880.16
611.44	873.18
611.79	866.42
612.14	859.40
612.49	852.55
612.83	846.01
613.18	839.63
613.53	833.13
613.88	826.79
614.22	820.97
614.57	814.93
614.92	808.84
615.27	802.79
615.61	796.53
615.96	790.47
616.31	784.34
616.65	778.16
617.00	772.13
617.35	766.28
617.70	760.47
618.04	754.80
618.39	749.13
618.74	743.76
619.08	738.31
619.43	733.01
619.78	727.61
620.12	722.18
620.47	716.92
620.82	711.72
621.16	706.71
621.51	701.40
621.85	696.10
622.20	690.86
622.55	685.71
622.89	680.44
623.24	675.27
623.59	670.24
623.93	665.37
624.28	660.62
624.62	655.83
624.97	650.98
625.32	646.26
625.66	641.44
626.01	636.59
626.35	631.86
626.70	627.19
627.04	622.79
627.39	618.35
627.73	613.94
628.08	609.71
628.43	605.28
628.77	600.90
629.12	596.70
629.46	592.65
629.81	588.45
630.15	584.29
630.50	580.24
630.84	576.34
631.19	572.49
631.53	568.74
631.88	564.91
632.22	561.16
632.57	557.55
632.91	553.87
633.26	550.27
633.60	546.73
633.95	543.35
634.29	539.76
634.64	536.16
634.98	532.56
635.32	529.07
635.67	525.80
636.01	522.49
636.36	519.16
636.70	515.97
637.05	512.81
637.39	509.73
637.73	506.53
638.08	503.43
638.42	500.29
638.77	497.04
639.11	493.73
639.45	490.54
639.80	487.36
640.14	484.30
640.49	481.20
640.83	478.02
641.17	474.89
641.52	471.89
641.86	468.90
642.20	466.04
642.55	463.02
642.89	460.08
643.23	457.33
643.58	454.82
643.92	452.14
644.26	449.48
644.61	446.84
644.95	444.23
645.29	441.51
645.64	438.81
645.98	436.26
646.32	433.85
646.66	431.38
647.01	428.95
647.35	426.58
647.69	424.15
648.04	421.85
648.38	419.55
648.72	417.18
649.06	414.90
649.41	412.66
649.75	410.43
650.09	408.21
650.43	405.95
650.78	403.66
651.12	401.41
651.46	399.25
651.80	397.17
652.14	395.13
652.49	393.15
652.83	391.21
653.17	389.23
653.51	387.34
653.85	385.47
654.20	383.51
654.54	381.52
654.88	379.66
655.22	377.85
655.56	376.01
655.90	374.29
656.25	372.56
656.59	370.85
656.93	369.22
657.27	367.61
657.61	365.96
657.95	364.36
658.29	362.73
658.64	361.11
658.98	359.49
659.32	357.88
659.66	356.38
660.00	354.86
660.34	353.42
660.68	351.88
661.02	350.33
661.36	348.89
661.70	347.48
662.05	346.06
662.39	344.62
662.73	343.27
663.07	341.95
663.41	340.66
663.75	339.36
664.09	338.09
664.43	336.73
664.77	335.48
665.11	334.15
665.45	332.91
665.79	331.68
666.13	330.44
666.47	329.20
666.81	327.92
667.15	326.62
667.49	325.38
667.83	324.21
668.17	323.07
668.51	321.95
668.85	320.84
669.19	319.83
669.53	318.73
669.87	317.58
670.21	316.48
670.55	315.37
670.89	314.34
671.23	313.27
671.57	312.24
671.91	311.22
672.25	310.28
672.58	309.34
672.92	308.38
673.26	307.49
673.60	306.58
673.94	305.67
674.28	304.83
674.62	303.97
674.96	303.07
675.30	302.22
675.64	301.35
675.97	300.52
676.31	299.64
676.65	298.80
676.99	298.04
677.33	297.21
677.67	296.42
678.01	295.56
678.34	294.77
678.68	294.02
679.02	293.24
679.36	292.47
679.70	291.68
680.04	290.92
680.37	290.16
680.71	289.44
681.05	288.76
681.39	288.03
681.73	287.29
682.06	286.58
682.40	285.89
682.74	285.22
683.08	284.55
683.42	283.86
683.75	283.26
684.09	282.57
684.43	281.93
684.77	281.28
685.10	280.67
685.44	280.06
685.78	279.43
686.12	278.84
686.45	278.23
686.79	277.63
687.13	277.04
687.46	276.43
687.80	275.84
688.14	275.21
688.48	274.63
688.81	274.05
689.15	273.52
689.49	272.94
689.82	272.37
690.16	271.77
690.50	271.22
690.83	270.65
691.17	270.09
691.51	269.55
691.84	269.03
692.18	268.49
692.52	267.92
692.85	267.39
693.19	266.90
693.52	266.39
693.86	265.88
694.20	265.39
694.53	264.91
694.87	264.41
695.21	263.93
695.54	263.46
695.88	262.97
696.21	262.46
696.55	261.99
696.88	261.52
697.22	261.06
697.56	260.61
697.89	260.12
698.23	259.67
698.56	259.20
698.90	258.77
699.23	258.32
699.57	257.92
699.90	257.50
700.24	257.06
700.58	256.66
700.91	256.27
701.25	255.95
701.58	255.59
701.92	255.24
702.25	254.86
702.59	254.47
702.92	254.09
703.26	253.73
703.59	253.36
703.93	253.08
704.26	252.75
704.60	252.40
704.93	252.05
705.26	251.71
705.60	251.39
705.93	251.04
706.27	250.74
706.60	250.41
706.94	250.13
707.27	249.77
707.61	249.43
707.94	249.09
708.27	248.68
708.61	248.32
708.94	248.00
709.28	247.70
709.61	247.39
709.94	247.13
710.28	246.85
710.61	246.59
710.95	246.23
711.28	246.01
711.61	245.74
711.95	245.50
712.28	245.23
712.61	244.97
712.95	244.76
713.28	244.56
713.61	244.30
713.95	244.03
714.28	243.81
714.61	243.56
714.95	243.32
715.28	243.08
715.61	242.87
715.95	242.65
716.28	242.43
716.61	242.24
716.95	242.01
717.28	241.79
717.61	241.57
717.94	241.38
718.28	241.11
718.61	240.91
718.94	240.69
719.27	240.49
719.61	240.31
719.94	240.09
720.27	239.84
720.60	239.65
720.94	239.46
721.27	239.29
721.60	239.13
721.93	238.95
722.27	238.82
722.60	238.63
722.93	238.44
723.26	238.27
723.59	238.07
723.93	237.91
724.26	237.76
724.59	237.58
724.92	237.43
725.25	237.31
725.59	237.15
725.92	237.01
726.25	236.86
726.58	236.71
726.91	236.55
727.24	236.42
727.57	236.28
727.91	236.12
728.24	235.98
728.57	235.83
728.90	235.71
729.23	235.55
729.56	235.47
729.89	235.33
730.22	235.18
730.55	235.05
730.89	234.93
731.22	234.80
731.55	234.66
731.88	234.53
732.21	234.38
732.54	234.27
732.87	234.15
733.20	234.04
733.53	233.92
733.86	233.84
734.19	233.71
734.52	233.62
734.85	233.58
735.18	233.45
735.51	233.38
735.84	233.27
736.17	233.20
736.50	233.04
736.83	233.07
737.16	232.97
737.49	232.89
737.82	232.77
738.15	232.70
738.48	232.61
738.81	232.51
739.14	232.41
739.47	232.31
739.80	232.21
740.13	232.13
740.46	232.02
740.79	231.91
741.12	231.82
741.45	231.71
741.78	231.57
742.11	231.52
742.44	231.41
742.77	231.33
743.10	231.22
743.43	231.14
743.75	230.94
744.08	231.03
744.41	230.94
744.74	230.86
745.07	230.75
745.40	230.70
745.73	230.67
746.06	230.60
746.39	230.54
746.71	230.46
747.04	230.37
747.37	230.30
747.70	230.26
748.03	230.18
748.36	230.13
748.68	230.05
749.01	229.96
749.34	229.89
749.67	229.82
750.00	229.79
750.33	229.80
750.65	229.75
750.98	229.53
751.31	229.47
751.64	229.41
751.97	229.42
752.29	229.35
752.62	229.23
752.95	229.16
753.28	229.07
753.60	229.01
753.93	228.97
754.26	228.93
754.59	228.83
754.91	228.77
755.24	228.70
755.57	228.69
755.90	228.63
756.22	228.56
756.55	228.48
756.88	228.39
757.20	228.26
757.53	228.18
757.86	228.13
758.19	228.07
758.51	228.02
758.84	227.91
759.17	227.84
759.49	227.80
759.82	227.81
760.15	227.78
760.47	227.73
760.80	227.65
761.13	227.63
761.45	227.58
761.78	227.55
762.11	227.51
762.43	227.41
762.76	227.37
763.08	227.34
763.41	227.31
763.74	227.27
764.06	227.23
764.39	227.20
764.71	227.15
765.04	227.11
765.37	227.07
765.69	227.03
766.02	226.99
766.34	226.95
766.67	226.87
767.00	226.85
767.32	226.87
767.65	226.90
767.97	226.85
768.30	226.82
768.62	226.77
768.95	226.72
769.27	226.70
769.60	226.67
769.92	226.62
770.25	226.56
770.57	226.51
770.90	226.48
771.22	226.44
771.55	226.41
771.87	226.39
772.20	226.35
772.52	226.40
772.85	226.50
773.17	226.47
773.50	226.43
773.82	226.38
774.15	226.30
774.47	226.20
774.80	226.16
775.12	226.13
775.45	226.10
775.77	226.09
776.09	226.05
776.42	226.03
776.74	226.04
777.07	226.01
777.39	225.99
777.72	225.96
778.04	225.95
778.36	225.92
778.69	225.89
779.01	225.88
779.33	225.78
779.66	225.63
779.98	225.60
780.31	225.59
780.63	225.61
780.95	225.61
781.28	225.59
781.60	225.57
781.92	225.55
782.25	225.53
782.57	225.52
782.89	225.49
783.22	225.46
783.54	225.41
783.86	225.41
784.19	225.38
784.51	225.39
784.83	225.35
785.16	225.33
785.48	225.32
785.80	225.30
786.12	225.28
786.45	225.27
786.77	225.27
787.09	225.24
787.42	225.19
787.74	225.17
788.06	225.16
788.38	225.14
788.71	225.12
789.03	225.11
789.35	225.10
789.67	225.07
789.99	225.06
790.32	225.03
790.64	225.04
790.96	225.13
791.28	225.07
791.61	225.06
791.93	225.05
792.25	225.03
792.57	225.09
792.89	225.06
793.21	225.06
793.54	225.03
793.86	225.00
794.18	224.99
794.50	224.96
794.82	224.95
795.14	224.94
795.47	224.96
795.79	224.94
796.11	224.90
796.43	224.89
796.75	224.88
797.07	224.88
797.39	224.86
797.71	224.75
798.04	224.75
798.36	224.74
798.68	224.73
799.00	224.72
799.32	224.67
799.64	224.68
799.96	224.67
800.28	224.67
800.60	224.67
800.92	224.67
801.24	224.65
801.56	224.66
801.89	224.64
802.21	224.63
802.53	224.60
802.85	224.63
803.17	224.66
803.49	224.62
803.81	224.61
804.13	224.59
804.45	224.57
804.77	224.58
805.09	224.57
805.41	224.55
805.73	224.52
806.05	224.48
806.37	224.45
806.69	224.43
807.01	224.41
807.33	224.40
807.65	224.36
807.97	224.40
808.28	224.37
808.60	224.36
808.92	224.34
809.24	224.40
809.56	224.38
809.88	224.34
810.20	224.35
810.52	224.36
810.84	224.34
811.16	224.32
811.48	224.30
811.80	224.34
812.12	224.33
812.43	224.35
812.75	224.35
813.07	224.34
813.39	224.34
813.71	224.33
814.03	224.32
814.35	224.32
814.67	224.27
814.98	224.27
815.30	224.26
815.62	224.24
815.94	224.16
816.26	224.17
816.58	224.15
816.89	224.15
817.21	224.12
817.53	224.12
817.85	224.13
818.17	224.12
818.48	224.06
818.80	224.09
819.12	224.07
819.44	224.05
819.76	224.04
820.07	224.03
820.39	224.02
820.71	224.02
821.03	224.02
821.34	224.00
821.66	224.01
821.98	224.01
822.30	224.01
822.61	224.07
822.93	224.05
823.25	224.03
823.57	224.01
823.88	224.01
824.20	224.01
824.52	224.03
824.83	224.03
825.15	224.00
825.47	223.98
825.79	223.99
826.10	223.98
826.42	223.97
826.74	223.96
827.05	223.96
827.37	223.96
827.69	223.94
828.00	223.93
828.32	223.93
828.64	223.92
828.95	223.97
829.27	223.93
829.58	223.93
829.90	223.95
830.22	223.95
830.53	223.93
830.85	223.91
831.17	223.88
831.48	223.87
831.80	223.88
832.11	223.88
832.43	223.86
832.75	223.85
833.06	223.92
833.38	223.90
833.69	223.89
834.01	223.88
834.32	223.89
834.64	223.88
834.96	223.87
835.27	223.87
835.59	223.83
835.90	223.82
836.22	223.81
836.53	223.80
836.85	223.78
837.16	223.87
837.48	223.88
837.79	223.91
838.11	223.92
838.42	223.90
838.74	223.91
839.05	223.90
839.37	223.90
839.68	223.83
840.00	223.82
840.31	223.84
840.63	223.83
840.94	223.81
841.26	223.80
841.57	223.79
841.88	223.80
842.20	223.78
842.51	223.76
842.83	223.76
843.14	223.85
843.46	223.86
843.77	223.81
844.08	223.80
844.40	223.76
844.71	223.74
845.03	223.74
845.34	223.73
845.65	223.73
845.97	223.73
846.28	223.74
846.60	223.74
846.91	223.72
847.22	223.72
847.54	223.74
847.85	223.74
848.16	223.74
848.48	223.71
848.79	223.76
849.10	223.77
849.42	223.77
849.73	223.67
850.04	223.66
850.36	223.63
850.67	223.64
850.98	223.64
851.30	223.65
851.61	223.65
851.92	223.66
852.23	223.69
852.55	223.69
852.86	223.69
853.17	223.70
853.49	223.72
853.80	223.75
854.11	223.75
854.42	223.76
854.74	223.75
855.05	223.76
855.36	223.70
855.67	223.70
855.99	223.70
856.30	223.82
856.61	223.82
856.92	223.83
857.23	223.83
857.55	223.82
857.86	223.81
858.17	223.82
858.48	223.81
858.79	223.78
859.11	223.79
859.42	223.78
859.73	223.77
860.04	223.76
860.35	223.73
860.66	223.70
860.98	223.69
861.29	223.70
861.60	223.69
861.91	223.71
862.22	223.69
862.53	223.68
862.84	223.56
863.16	223.58
863.47	223.57
863.78	223.55
864.09	223.56
864.40	223.56
864.71	223.57
865.02	223.58
865.33	223.56
865.64	223.55
865.95	223.55
866.27	223.61
866.58	223.60
866.89	223.62
867.20	223.62
867.51	223.61
867.82	223.59
868.13	223.63
868.44	223.61
868.75	223.62
869.06	223.63
869.37	223.64
869.68	223.61
869.99	223.63
870.30	223.64
870.61	223.66
870.92	223.64
871.23	223.62
871.54	223.62
871.85	223.65
872.16	223.66
872.47	223.65
872.78	223.60
873.09	223.60
873.40	223.59
873.71	223.60
874.02	223.60
874.33	223.61
874.64	223.57
874.95	223.59
875.26	223.57
875.56	223.56
875.87	223.56
876.18	223.55
876.49	223.64
876.80	223.62
877.11	223.61
877.42	223.62
877.73	223.63
878.04	223.61
878.35	223.62
878.66	223.62
878.96	223.63
879.27	223.62
879.58	223.61
879.89	223.61
880.20	223.64
880.51	223.63
880.82	223.63
881.12	223.63
881.43	223.61
881.74	223.60
882.05	223.60
882.36	223.61
882.67	223.62
882.97	223.51
883.28	223.50
883.59	223.49
883.90	223.50
884.21	223.51
884.51	223.52
884.82	223.49
885.13	223.48
885.44	223.48
885.74	223.48
886.05	223.49
886.36	223.48
886.67	223.45
886.98	223.51
887.28	223.51
887.59	223.52
887.90	223.53
888.20	223.53
888.51	223.55
888.82	223.53
889.13	223.53
889.43	223.63
889.74	223.62
890.05	223.62
890.35	223.61
890.66	223.60
890.97	223.58
891.28	223.57
891.58	223.57
891.89	223.56
892.20	223.55
892.50	223.53
892.81	223.53
893.12	223.52
893.42	223.47
893.73	223.47
894.04	223.46
894.34	223.46
894.65	223.45
894.95	223.43
895.26	223.44
895.57	223.48
895.87	223.38
896.18	223.40
896.48	223.41
896.79	223.40
897.10	223.41
897.40	223.43
897.71	223.43
898.01	223.42
898.32	223.43
898.63	223.43
898.93	223.45
899.24	223.45
899.54	223.45
899.85	223.44
900.15	223.44
900.46	223.44
900.76	223.45
901.07	223.45
901.38	223.45
901.68	223.46
901.99	223.40
902.29	223.41
902.60	223.39
902.90	223.38
903.21	223.39
903.51	223.37
903.82	223.39
904.12	223.39
904.43	223.40
904.73	223.39
905.03	223.40
905.34	223.49
905.64	223.47
905.95	223.47
906.25	223.47
906.56	223.47
906.86	223.47
907.17	223.46
907.47	223.46
907.77	223.45
908.08	223.43
908.38	223.44
908.69	223.44
908.99	223.46
909.30	223.47
909.60	223.47
909.90	223.47
910.21	223.44
910.51	223.43
910.81	223.42
911.12	223.44
911.42	223.44
911.73	223.33
912.03	223.33
912.33	223.36
912.64	223.35
912.94	223.34
913.24	223.32
913.55	223.32
913.85	223.31
914.15	223.32
914.46	223.34
914.76	223.32
915.06	223.32
915.37	223.29
915.67	223.29
915.97	223.29
916.27	223.26
916.58	223.27
916.88	223.27
917.18	223.25
917.49	223.32
917.79	223.30
918.09	223.31
918.39	223.36
918.70	223.35
919.00	223.35
919.30	223.41
919.60	223.41
919.91	223.39
920.21	223.40
920.51	223.39
920.81	223.38
921.12	223.39
921.42	223.39
921.72	223.41
922.02	223.41
922.32	223.43
922.63	223.43
922.93	223.49
923.23	223.49
923.53	223.48
923.83	223.41
924.13	223.41
924.44	223.42
924.74	223.42
925.04	223.44
925.34	223.44
925.64	223.39
925.94	223.39
926.24	223.44
926.55	223.43
926.85	223.44
927.15	223.44
927.45	223.43
927.75	223.43
928.05	223.43
928.35	223.42
928.65	223.43
928.95	223.44
929.26	223.39
929.56	223.41
929.86	223.43
930.16	223.41
930.46	223.42
930.76	223.42
931.06	223.38
931.36	223.35
931.66	223.37
931.96	223.39
932.26	223.39
932.56	223.35
932.86	223.36
933.16	223.35
933.46	223.35
933.76	223.34
934.06	223.36
934.36	223.40
934.66	223.39
934.96	223.38
935.26	223.38
935.56	223.39
935.86	223.36
936.16	223.34
936.46	223.35
936.76	223.33
937.06	223.32
937.36	223.33
937.66	223.33
937.96	223.32
938.26	223.30
938.56	223.29
938.86	223.29
939.16	223.31
939.46	223.32
939.76	223.32
940.06	223.33
940.35	223.31
940.65	223.25
940.95	223.26
941.25	223.23
941.55	223.22
941.85	223.21
942.15	223.23
942.45	223.27
942.75	223.26
943.04	223.27
943.34	223.29
943.64	223.27
943.94	223.26
944.24	223.25
944.54	223.26
944.84	223.25
945.13	223.24
945.43	223.22
945.73	223.21
946.03	223.20
946.33	223.18
946.62	223.17
946.92	223.17
947.22	223.18
947.52	223.19
947.82	223.20
948.11	223.19
948.41	223.17
948.71	223.14
949.01	223.14
949.31	223.12
949.60	223.10
949.90	223.13
950.20	223.13
950.50	223.12
950.79	223.12
951.09	223.14
951.39	223.13
951.69	223.13
951.98	223.15
952.28	223.16
952.58	223.16
952.87	223.16
953.17	223.18
953.47	223.16
953.76	223.16
954.06	223.14
954.36	223.13
954.66	223.12
954.95	223.15
955.25	223.16
955.55	223.17
955.84	223.16
956.14	223.15
956.44	223.16
956.73	223.14
957.03	223.14
957.32	223.13
957.62	223.14
957.92	223.16
958.21	223.14
958.51	223.25
958.81	223.26
959.10	223.27
959.40	223.29
959.69	223.29
959.99	223.31
960.29	223.30
960.58	223.30
960.88	223.34
961.17	223.33
961.47	223.33
961.76	223.33
962.06	223.34
962.36	223.34
962.65	223.34
962.95	223.35
963.24	223.35
963.54	223.36
963.83	223.36
964.13	223.35
964.42	223.34
964.72	223.27
965.01	223.26
965.31	223.26
965.60	223.24
965.90	223.31
966.19	223.28
966.49	223.30
966.78	223.30
967.08	223.29
967.37	223.29
967.67	223.27
967.96	223.29
968.26	223.29
968.55	223.31
968.85	223.31
969.14	223.32
969.43	223.31
969.73	223.29
970.02	223.30
970.32	223.29
970.61	223.28
970.91	223.25
971.20	223.23
971.49	223.22
971.79	223.24
972.08	223.16
972.38	223.17
972.67	223.16
972.96	223.17
973.26	223.15
973.55	223.18
973.85	223.18
974.14	223.16
974.43	223.17
974.73	223.15
975.02	223.14
975.31	223.14
975.61	223.14
975.90	223.14
976.19	223.12
976.49	223.13
976.78	223.14
977.07	223.14
977.37	223.15
977.66	223.16
977.95	223.14
978.24	223.16
978.54	223.19
978.83	223.18
979.12	223.17
979.42	223.18
979.71	223.16
980.00	223.17
980.29	223.17
980.59	223.15
980.88	223.17
981.17	223.17
981.46	223.16
981.76	223.15
982.05	223.19
982.34	223.20
982.63	223.19
982.93	223.19
983.22	223.22
983.51	223.22
983.80	223.23
984.09	223.24
984.39	223.22
984.68	223.20
984.97	223.21
985.26	223.19
985.55	223.20
985.85	223.17
986.14	223.18
986.43	223.19
986.72	223.19
987.01	223.16
987.30	223.15
987.59	223.15
987.89	223.16
988.18	223.12
988.47	223.11
988.76	223.10
989.05	223.09
989.34	223.08
989.63	223.10
989.92	223.07
990.22	223.06
990.51	223.05
990.80	223.05
991.09	223.06
991.38	223.08
991.67	223.07
991.96	223.07
992.25	223.07
992.54	223.06
992.83	223.06
993.12	223.06
993.41	223.08
993.70	223.12
993.99	223.13
994.28	223.14
994.58	223.16
994.87	223.16
995.16	223.15
995.45	223.14
995.74	223.10
996.03	223.12
996.32	223.14
996.61	223.16
996.90	223.16
997.19	223.16
997.48	223.15
997.77	223.15
998.06	223.15
998.34	223.14
998.63	223.14
998.92	223.14
999.21	223.16
999.50	223.16
999.79	223.12
1000.08	223.12
1000.37	223.12
1000.66	223.11
1000.95	223.13
1001.24	223.14
1001.53	223.16
1001.82	223.15
1002.11	223.13
1002.40	223.14
1002.68	223.16
1002.97	223.22
1003.26	223.20
1003.55	223.19
1003.84	223.20
1004.13	223.23
1004.42	223.23
1004.71	223.23
1004.99	223.22
1005.28	223.25
1005.57	223.24
1005.86	223.23
1006.15	223.22
1006.44	223.20
1006.72	223.22
1007.01	223.21
1007.30	223.21
1007.59	223.19
1007.88	223.20
1008.17	223.21
1008.45	223.19
1008.74	223.15
1009.03	223.10
1009.32	223.11
1009.60	223.12
1009.89	223.11
1010.18	223.07
1010.47	223.06
1010.76	223.07
1011.04	223.06
1011.33	223.06
1011.62	223.07
1011.91	223.08
1012.19	223.08
1012.48	223.09
1012.77	223.10
1013.05	223.13
1013.34	223.13
1013.63	223.13
1013.92	223.13
1014.20	223.12
1014.49	223.13
1014.78	223.14
1015.06	223.11
1015.35	223.11
1015.64	223.12
1015.92	223.13
1016.21	223.15
1016.50	223.16
1016.78	223.16
1017.07	223.18
1017.36	223.17
1017.64	223.15
1017.93	223.16
1018.22	223.15
1018.50	223.14
1018.79	223.14
1019.08	223.10
1019.36	223.11
1019.65	223.11
1019.93	223.13
1020.22	223.15
1020.51	223.20
1020.79	223.19
1021.08	222.94
1021.36	222.96
1021.65	223.15
1021.94	223.15
1022.22	223.16
1022.51	223.01
1022.79	223.48
1023.08	223.40
1023.36	224.38
1023.65	222.76
>>>>>End Processed Spectral Data<<<<<
