SpectraSuite Data File
++++++++++++++++++++++++++++++++++++
Date: Thu Oct 01 02:12:59 EDT 2015
User: lab3
Dark Spectrum Present: No
Reference Spectrum Present: No
Number of Sampled Component Spectra: 1
Spectrometers: USB2E7196
Integration Time (usec): 36000 (USB2E7196)
Spectra Averaged: 10000 (USB2E7196)
Boxcar Smoothing: 10 (USB2E7196)
Correct for Electrical Dark: No (USB2E7196)
Strobe/Lamp Enabled: No (USB2E7196)
Correct for Detector Non-linearity: No (USB2E7196)
Correct for Stray Light: No (USB2E7196)
Number of Pixels in Processed Spectrum: 2048
>>>>>Begin Processed Spectral Data<<<<<
339.09	0.00
339.48	210.39
339.86	211.86
340.24	213.20
340.63	214.62
341.01	217.59
341.39	217.25
341.78	218.67
342.16	219.83
342.54	220.30
342.93	208.91
343.31	219.47
343.69	220.01
344.07	220.47
344.46	220.90
344.84	221.28
345.22	221.52
345.60	221.78
345.99	221.97
346.37	222.10
346.75	222.21
347.13	222.29
347.52	222.36
347.90	222.44
348.28	222.48
348.66	222.53
349.05	222.54
349.43	222.59
349.81	222.64
350.19	222.70
350.57	222.76
350.96	222.85
351.34	222.94
351.72	223.03
352.10	223.14
352.48	223.21
352.87	223.26
353.25	223.33
353.63	223.39
354.01	223.45
354.39	223.53
354.77	223.61
355.15	223.71
355.54	223.77
355.92	223.80
356.30	223.88
356.68	224.01
357.06	224.09
357.44	224.14
357.82	224.20
358.20	224.32
358.58	224.37
358.97	224.44
359.35	224.52
359.73	224.60
360.11	224.65
360.49	224.71
360.87	224.76
361.25	224.82
361.63	224.90
362.01	224.96
362.39	224.99
362.77	225.04
363.15	225.06
363.53	225.09
363.91	225.13
364.29	225.16
364.67	225.08
365.05	225.11
365.43	225.14
365.81	225.16
366.19	225.18
366.57	225.23
366.95	225.23
367.33	225.21
367.71	225.21
368.09	225.23
368.47	225.22
368.85	225.22
369.23	225.22
369.61	225.17
369.99	225.18
370.37	225.18
370.75	225.24
371.13	225.21
371.51	225.17
371.89	225.14
372.27	225.12
372.65	225.09
373.03	225.05
373.41	225.01
373.78	224.96
374.16	224.87
374.54	224.79
374.92	224.73
375.30	224.69
375.68	224.63
376.06	224.58
376.44	224.52
376.82	224.47
377.19	224.42
377.57	224.37
377.95	224.28
378.33	224.22
378.71	224.07
379.09	224.03
379.47	223.99
379.84	223.93
380.22	223.87
380.60	223.80
380.98	223.74
381.36	223.69
381.73	223.62
382.11	223.60
382.49	223.55
382.87	223.49
383.25	223.44
383.62	223.52
384.00	223.45
384.38	223.40
384.76	223.38
385.13	223.37
385.51	223.33
385.89	223.28
386.27	223.24
386.64	223.22
387.02	223.17
387.40	223.12
387.78	223.09
388.15	223.07
388.53	223.04
388.91	223.00
389.29	222.97
389.66	222.96
390.04	222.92
390.42	222.91
390.79	222.90
391.17	222.87
391.55	222.74
391.92	222.72
392.30	222.73
392.68	222.69
393.05	222.67
393.43	222.67
393.81	222.67
394.18	222.65
394.56	222.65
394.94	222.67
395.31	222.67
395.69	222.71
396.06	222.73
396.44	222.75
396.82	222.77
397.19	222.84
397.57	222.86
397.95	222.90
398.32	222.90
398.70	222.94
399.07	223.00
399.45	223.03
399.82	223.08
400.20	223.11
400.58	223.17
400.95	223.18
401.33	223.26
401.70	223.39
402.08	223.48
402.45	223.56
402.83	223.67
403.20	223.77
403.58	223.85
403.95	223.98
404.33	224.11
404.71	224.23
405.08	224.41
405.46	224.55
405.83	224.72
406.21	224.89
406.58	225.08
406.96	225.27
407.33	225.48
407.70	225.72
408.08	226.05
408.45	226.34
408.83	226.64
409.20	226.93
409.58	227.18
409.95	227.52
410.33	227.90
410.70	228.25
411.08	228.67
411.45	229.11
411.82	229.55
412.20	230.06
412.57	230.67
412.95	231.14
413.32	231.77
413.69	232.40
414.07	233.08
414.44	233.81
414.82	234.56
415.19	235.44
415.56	236.34
415.94	237.26
416.31	238.30
416.68	239.34
417.06	240.55
417.43	241.68
417.81	242.98
418.18	244.31
418.55	245.76
418.93	247.27
419.30	248.85
419.67	250.53
420.04	252.26
420.42	254.06
420.79	256.15
421.16	258.25
421.54	260.39
421.91	262.62
422.28	264.94
422.66	267.45
423.03	269.83
423.40	272.33
423.77	275.02
424.15	277.77
424.52	280.63
424.89	283.72
425.26	286.80
425.64	289.66
426.01	292.86
426.38	296.14
426.75	299.53
427.13	302.99
427.50	306.60
427.87	310.35
428.24	314.14
428.61	317.76
428.99	321.68
429.36	325.97
429.73	330.07
430.10	334.16
430.47	338.33
430.85	342.62
431.22	347.19
431.59	351.88
431.96	356.45
432.33	361.50
432.70	366.30
433.08	371.96
433.45	377.32
433.82	382.58
434.19	388.45
434.56	394.23
434.93	399.79
435.30	405.29
435.68	411.49
436.05	417.56
436.42	423.62
436.79	429.14
437.16	435.09
437.53	441.48
437.90	447.86
438.27	454.10
438.64	460.87
439.01	466.99
439.38	472.59
439.75	477.99
440.13	484.17
440.50	490.06
440.87	494.70
441.24	499.81
441.61	505.45
441.98	509.59
442.35	514.52
442.72	519.60
443.09	524.45
443.46	527.61
443.83	529.95
444.20	531.95
444.57	534.85
444.94	536.62
445.31	538.45
445.68	540.09
446.05	541.35
446.42	541.29
446.79	541.13
447.16	541.02
447.53	540.96
447.90	539.24
448.27	537.63
448.64	535.03
449.01	533.34
449.37	529.55
449.74	526.11
450.11	521.67
450.48	516.74
450.85	511.78
451.22	507.57
451.59	503.47
451.96	499.73
452.33	494.22
452.70	489.31
453.07	483.30
453.43	477.27
453.80	471.44
454.17	465.82
454.54	460.62
454.91	454.72
455.28	449.17
455.65	443.94
456.02	438.36
456.38	433.86
456.75	428.04
457.12	423.35
457.49	418.61
457.86	414.08
458.23	410.12
458.59	405.74
458.96	401.23
459.33	397.26
459.70	393.20
460.07	390.11
460.43	386.47
460.80	383.06
461.17	380.04
461.54	376.79
461.91	373.76
462.27	370.67
462.64	368.15
463.01	365.26
463.38	362.35
463.74	359.71
464.11	357.36
464.48	355.23
464.85	352.96
465.21	351.21
465.58	349.30
465.95	347.08
466.32	345.30
466.68	343.56
467.05	341.82
467.42	340.14
467.78	338.33
468.15	336.65
468.52	335.41
468.88	333.78
469.25	332.28
469.62	331.10
469.98	329.81
470.35	328.66
470.72	327.63
471.08	326.58
471.45	325.70
471.82	324.75
472.18	323.76
472.55	323.11
472.92	322.31
473.28	321.69
473.65	321.04
474.02	320.43
474.38	319.93
474.75	319.66
475.11	319.24
475.48	319.08
475.85	318.91
476.21	318.86
476.58	318.87
476.94	319.06
477.31	319.19
477.67	319.35
478.04	319.61
478.41	319.94
478.77	320.40
479.14	320.74
479.50	321.29
479.87	321.98
480.23	322.68
480.60	323.34
480.96	324.04
481.33	325.00
481.69	325.96
482.06	326.91
482.42	327.81
482.79	328.89
483.15	330.12
483.52	331.50
483.88	332.84
484.25	334.26
484.61	335.74
484.98	337.34
485.34	339.12
485.71	340.97
486.07	342.94
486.44	344.90
486.80	347.08
487.17	349.31
487.53	351.76
487.90	354.31
488.26	357.08
488.62	359.99
488.99	362.91
489.35	365.95
489.72	369.25
490.08	372.71
490.44	376.26
490.81	379.98
491.17	383.79
491.54	387.86
491.90	392.03
492.26	396.52
492.63	401.24
492.99	406.16
493.36	411.20
493.72	416.52
494.08	421.95
494.45	427.71
494.81	433.67
495.17	439.75
495.54	446.18
495.90	452.93
496.26	459.80
496.63	466.92
496.99	474.31
497.35	482.07
497.72	490.13
498.08	498.35
498.44	506.83
498.80	515.86
499.17	525.12
499.53	534.71
499.89	544.53
500.26	554.52
500.62	564.79
500.98	575.72
501.34	586.81
501.71	598.45
502.07	610.29
502.43	622.52
502.79	635.11
503.16	648.08
503.52	661.25
503.88	674.80
504.24	688.77
504.60	703.03
504.97	717.67
505.33	732.69
505.69	748.61
506.05	764.72
506.41	780.85
506.78	797.28
507.14	814.19
507.50	831.70
507.86	849.60
508.22	867.75
508.59	885.93
508.95	904.83
509.31	924.15
509.67	944.18
510.03	964.43
510.39	984.89
510.75	1005.58
511.12	1026.57
511.48	1047.89
511.84	1069.29
512.20	1091.01
512.56	1113.81
512.92	1136.86
513.28	1159.62
513.64	1182.70
514.00	1206.18
514.37	1229.98
514.73	1253.80
515.09	1277.45
515.45	1301.53
515.81	1326.18
516.17	1350.86
516.53	1375.23
516.89	1399.67
517.25	1424.29
517.61	1449.09
517.97	1474.11
518.33	1498.88
518.69	1523.78
519.05	1548.94
519.41	1574.22
519.77	1599.76
520.13	1624.55
520.49	1649.50
520.85	1674.65
521.21	1699.73
521.57	1725.41
521.93	1750.39
522.29	1776.20
522.65	1801.73
523.01	1827.03
523.37	1851.62
523.73	1876.85
524.09	1902.25
524.45	1927.58
524.81	1952.43
525.17	1977.19
525.53	2001.50
525.89	2025.83
526.25	2050.38
526.61	2074.39
526.97	2098.72
527.33	2122.96
527.68	2147.02
528.04	2170.22
528.40	2193.29
528.76	2216.54
529.12	2238.74
529.48	2261.32
529.84	2282.05
530.20	2303.39
530.56	2324.40
530.91	2345.47
531.27	2366.03
531.63	2385.95
531.99	2405.31
532.35	2424.33
532.71	2443.46
533.07	2463.23
533.42	2481.40
533.78	2500.01
534.14	2518.55
534.50	2536.25
534.86	2554.56
535.21	2571.06
535.57	2587.53
535.93	2603.22
536.29	2617.74
536.65	2633.07
537.00	2647.26
537.36	2662.00
537.72	2675.64
538.08	2689.00
538.44	2701.22
538.79	2713.59
539.15	2724.31
539.51	2734.99
539.87	2745.33
540.22	2753.56
540.58	2761.84
540.94	2770.75
541.29	2778.08
541.65	2784.46
542.01	2790.29
542.37	2794.32
542.72	2800.25
543.08	2805.63
543.44	2810.89
543.79	2815.26
544.15	2818.77
544.51	2822.26
544.87	2824.90
545.22	2827.09
545.58	2828.27
545.94	2829.91
546.29	2830.13
546.65	2830.51
547.01	2830.92
547.36	2831.44
547.72	2832.10
548.07	2831.32
548.43	2829.86
548.79	2827.79
549.14	2825.80
549.50	2824.37
549.86	2822.07
550.21	2817.29
550.57	2812.98
550.92	2807.30
551.28	2802.26
551.64	2797.10
551.99	2792.36
552.35	2787.16
552.70	2781.55
553.06	2776.70
553.41	2771.37
553.77	2765.48
554.13	2760.23
554.48	2754.09
554.84	2746.30
555.19	2738.65
555.55	2730.42
555.90	2722.76
556.26	2716.11
556.61	2708.81
556.97	2699.34
557.32	2690.75
557.68	2682.63
558.03	2673.81
558.39	2665.68
558.74	2657.75
559.10	2648.56
559.45	2639.07
559.81	2629.88
560.16	2620.03
560.52	2609.71
560.87	2600.41
561.23	2590.73
561.58	2580.55
561.94	2570.11
562.29	2559.17
562.64	2548.85
563.00	2538.88
563.35	2528.78
563.71	2517.77
564.06	2506.23
564.42	2495.74
564.77	2484.85
565.12	2474.07
565.48	2463.05
565.83	2452.70
566.19	2442.30
566.54	2431.56
566.89	2419.86
567.25	2408.13
567.60	2397.25
567.96	2385.98
568.31	2373.25
568.66	2360.46
569.02	2348.74
569.37	2336.79
569.72	2325.38
570.08	2313.23
570.43	2300.56
570.78	2287.57
571.14	2274.37
571.49	2261.98
571.84	2249.87
572.20	2236.46
572.55	2223.43
572.90	2210.29
573.26	2196.23
573.61	2181.63
573.96	2167.29
574.31	2153.34
574.67	2139.62
575.02	2125.45
575.37	2110.84
575.72	2096.54
576.08	2082.87
576.43	2068.14
576.78	2053.44
577.13	2039.56
577.49	2025.73
577.84	2012.26
578.19	1997.95
578.54	1983.25
578.90	1968.05
579.25	1952.58
579.60	1938.55
579.95	1924.16
580.30	1909.77
580.66	1895.70
581.01	1881.22
581.36	1867.11
581.71	1853.55
582.06	1839.50
582.42	1825.50
582.77	1812.27
583.12	1798.69
583.47	1785.15
583.82	1771.73
584.17	1758.20
584.53	1744.50
584.88	1730.79
585.23	1716.73
585.58	1703.20
585.93	1690.11
586.28	1677.86
586.63	1665.42
586.98	1652.25
587.34	1639.33
587.69	1625.91
588.04	1612.68
588.39	1600.17
588.74	1587.19
589.09	1573.92
589.44	1560.63
589.79	1547.92
590.14	1535.04
590.49	1522.36
590.84	1509.55
591.19	1497.40
591.54	1484.76
591.89	1471.96
592.25	1459.52
592.60	1446.69
592.95	1434.41
593.30	1422.43
593.65	1410.21
594.00	1398.18
594.35	1386.97
594.70	1374.94
595.05	1364.00
595.40	1352.91
595.75	1341.19
596.10	1330.23
596.45	1319.50
596.80	1309.24
597.15	1298.76
597.50	1288.30
597.85	1278.04
598.19	1267.97
598.54	1257.29
598.89	1247.35
599.24	1237.73
599.59	1227.85
599.94	1219.00
600.29	1210.04
600.64	1200.85
600.99	1191.09
601.34	1181.81
601.69	1171.90
602.04	1163.08
602.39	1154.08
602.74	1145.33
603.08	1136.83
603.43	1127.85
603.78	1118.75
604.13	1109.81
604.48	1100.82
604.83	1092.08
605.18	1083.25
605.53	1074.35
605.87	1065.58
606.22	1057.08
606.57	1048.30
606.92	1039.62
607.27	1030.81
607.62	1022.08
607.96	1013.53
608.31	1005.97
608.66	997.97
609.01	990.42
609.36	982.82
609.70	974.99
610.05	967.01
610.40	959.37
610.75	951.86
611.10	944.62
611.44	936.97
611.79	929.62
612.14	921.91
612.49	914.34
612.83	907.26
613.18	900.23
613.53	893.00
613.88	885.85
614.22	879.31
614.57	872.59
614.92	865.86
615.27	859.16
615.61	852.31
615.96	845.69
616.31	838.98
616.65	832.17
617.00	825.62
617.35	819.19
617.70	812.79
618.04	806.46
618.39	800.14
618.74	794.16
619.08	787.99
619.43	782.09
619.78	776.22
620.12	770.13
620.47	764.23
620.82	758.39
621.16	752.89
621.51	747.03
621.85	741.18
622.20	735.35
622.55	729.72
622.89	724.04
623.24	718.40
623.59	712.84
623.93	707.33
624.28	701.94
624.62	696.56
624.97	691.15
625.32	685.87
625.66	680.45
626.01	675.04
626.35	669.76
626.70	664.51
627.04	659.45
627.39	654.44
627.73	649.52
628.08	644.85
628.43	640.06
628.77	635.33
629.12	630.73
629.46	626.31
629.81	621.71
630.15	616.99
630.50	612.43
630.84	608.06
631.19	603.87
631.53	599.72
631.88	595.46
632.22	591.30
632.57	587.37
632.91	583.40
633.26	579.51
633.60	575.70
633.95	571.99
634.29	568.14
634.64	564.25
634.98	560.27
635.32	556.45
635.67	552.75
636.01	549.00
636.36	545.29
636.70	541.71
637.05	538.13
637.39	534.76
637.73	531.26
638.08	527.82
638.42	524.36
638.77	520.75
639.11	517.16
639.45	513.60
639.80	510.03
640.14	506.65
640.49	503.23
640.83	499.70
641.17	496.20
641.52	492.88
641.86	489.55
642.20	486.38
642.55	483.08
642.89	479.86
643.23	476.83
643.58	474.04
643.92	471.12
644.26	468.23
644.61	465.33
644.95	462.45
645.29	459.51
645.64	456.54
645.98	453.71
646.32	451.04
646.66	448.38
647.01	445.69
647.35	443.04
647.69	440.29
648.04	437.68
648.38	435.11
648.72	432.50
649.06	429.97
649.41	427.46
649.75	424.95
650.09	422.46
650.43	419.98
650.78	417.47
651.12	414.96
651.46	412.55
651.80	410.24
652.14	408.00
652.49	405.77
652.83	403.59
653.17	401.40
653.51	399.28
653.85	397.22
654.20	395.10
654.54	392.91
654.88	390.90
655.22	388.95
655.56	386.96
655.90	385.07
656.25	383.19
656.59	381.31
656.93	379.52
657.27	377.78
657.61	375.94
657.95	374.16
658.29	372.40
658.64	370.65
658.98	368.89
659.32	367.15
659.66	365.51
660.00	363.90
660.34	362.31
660.68	360.67
661.02	358.96
661.36	357.37
661.70	355.85
662.05	354.31
662.39	352.76
662.73	351.30
663.07	349.87
663.41	348.43
663.75	347.04
664.09	345.65
664.43	344.17
664.77	342.79
665.11	341.36
665.45	340.00
665.79	338.64
666.13	337.28
666.47	335.89
666.81	334.49
667.15	333.05
667.49	331.71
667.83	330.42
668.17	329.18
668.51	327.96
668.85	326.75
669.19	325.61
669.53	324.41
669.87	323.17
670.21	321.97
670.55	320.79
670.89	319.68
671.23	318.53
671.57	317.41
671.91	316.33
672.25	315.32
672.58	314.30
672.92	313.24
673.26	312.25
673.60	311.28
673.94	310.29
674.28	309.36
674.62	308.42
674.96	307.45
675.30	306.54
675.64	305.60
675.97	304.68
676.31	303.72
676.65	302.78
676.99	301.91
677.33	300.99
677.67	300.11
678.01	299.15
678.34	298.27
678.68	297.45
679.02	296.59
679.36	295.73
679.70	294.89
680.04	294.07
680.37	293.24
680.71	292.45
681.05	291.70
681.39	290.91
681.73	290.09
682.06	289.30
682.40	288.53
682.74	287.79
683.08	287.06
683.42	286.32
683.75	285.65
684.09	284.90
684.43	284.20
684.77	283.48
685.10	282.82
685.44	282.14
685.78	281.45
686.12	280.79
686.45	280.13
686.79	279.46
687.13	278.81
687.46	278.14
687.80	277.49
688.14	276.80
688.48	276.18
688.81	275.55
689.15	274.97
689.49	274.35
689.82	273.74
690.16	273.08
690.50	272.49
690.83	271.89
691.17	271.31
691.51	270.75
691.84	270.20
692.18	269.62
692.52	269.03
692.85	268.46
693.19	267.93
693.52	267.39
693.86	266.85
694.20	266.32
694.53	265.82
694.87	265.30
695.21	264.80
695.54	264.30
695.88	263.79
696.21	263.24
696.55	262.75
696.88	262.25
697.22	261.78
697.56	261.30
697.89	260.77
698.23	260.27
698.56	259.76
698.90	259.30
699.23	258.81
699.57	258.37
699.90	257.93
700.24	257.45
700.58	257.01
700.91	256.60
701.25	256.27
701.58	255.89
701.92	255.51
702.25	255.11
702.59	254.70
702.92	254.31
703.26	253.93
703.59	253.54
703.93	253.24
704.26	252.88
704.60	252.50
704.93	252.15
705.26	251.80
705.60	251.48
705.93	251.11
706.27	250.80
706.60	250.49
706.94	250.18
707.27	249.82
707.61	249.47
707.94	249.12
708.27	248.69
708.61	248.32
708.94	247.96
709.28	247.64
709.61	247.32
709.94	247.03
710.28	246.73
710.61	246.46
710.95	246.08
711.28	245.87
711.61	245.58
711.95	245.33
712.28	245.05
712.61	244.76
712.95	244.55
713.28	244.33
713.61	244.05
713.95	243.77
714.28	243.54
714.61	243.27
714.95	243.03
715.28	242.78
715.61	242.54
715.95	242.32
716.28	242.08
716.61	241.87
716.95	241.64
717.28	241.42
717.61	241.18
717.94	240.96
718.28	240.67
718.61	240.45
718.94	240.22
719.27	240.01
719.61	239.82
719.94	239.59
720.27	239.33
720.60	239.14
720.94	238.94
721.27	238.75
721.60	238.58
721.93	238.40
722.27	238.25
722.60	238.08
722.93	237.89
723.26	237.73
723.59	237.53
723.93	237.37
724.26	237.21
724.59	237.03
724.92	236.88
725.25	236.75
725.59	236.58
725.92	236.45
726.25	236.30
726.58	236.15
726.91	235.98
727.24	235.85
727.57	235.70
727.91	235.54
728.24	235.40
728.57	235.25
728.90	235.12
729.23	234.95
729.56	234.85
729.89	234.71
730.22	234.56
730.55	234.42
730.89	234.28
731.22	234.15
731.55	234.01
731.88	233.88
732.21	233.73
732.54	233.61
732.87	233.49
733.20	233.37
733.53	233.26
733.86	233.15
734.19	233.02
734.52	232.92
734.85	232.89
735.18	232.75
735.51	232.67
735.84	232.56
736.17	232.48
736.50	232.33
736.83	232.35
737.16	232.26
737.49	232.17
737.82	232.07
738.15	231.98
738.48	231.89
738.81	231.79
739.14	231.68
739.47	231.58
739.80	231.48
740.13	231.39
740.46	231.28
740.79	231.17
741.12	231.08
741.45	230.97
741.78	230.82
742.11	230.77
742.44	230.65
742.77	230.58
743.10	230.47
743.43	230.38
743.75	230.18
744.08	230.25
744.41	230.16
744.74	230.07
745.07	229.97
745.40	229.91
745.73	229.87
746.06	229.80
746.39	229.74
746.71	229.66
747.04	229.57
747.37	229.50
747.70	229.45
748.03	229.38
748.36	229.33
748.68	229.25
749.01	229.15
749.34	229.08
749.67	229.01
750.00	228.96
750.33	228.97
750.65	228.91
750.98	228.69
751.31	228.63
751.64	228.57
751.97	228.56
752.29	228.49
752.62	228.38
752.95	228.30
753.28	228.22
753.60	228.16
753.93	228.12
754.26	228.06
754.59	227.96
754.91	227.88
755.24	227.80
755.57	227.79
755.90	227.73
756.22	227.66
756.55	227.58
756.88	227.50
757.20	227.37
757.53	227.28
757.86	227.23
758.19	227.18
758.51	227.12
758.84	227.02
759.17	226.95
759.49	226.91
759.82	226.91
760.15	226.87
760.47	226.82
760.80	226.74
761.13	226.71
761.45	226.67
761.78	226.63
762.11	226.59
762.43	226.49
762.76	226.45
763.08	226.42
763.41	226.38
763.74	226.34
764.06	226.30
764.39	226.26
764.71	226.21
765.04	226.15
765.37	226.11
765.69	226.07
766.02	226.02
766.34	225.97
766.67	225.89
767.00	225.87
767.32	225.89
767.65	225.92
767.97	225.87
768.30	225.83
768.62	225.79
768.95	225.75
769.27	225.71
769.60	225.68
769.92	225.62
770.25	225.57
770.57	225.52
770.90	225.49
771.22	225.45
771.55	225.42
771.87	225.39
772.20	225.36
772.52	225.42
772.85	225.51
773.17	225.48
773.50	225.44
773.82	225.40
774.15	225.31
774.47	225.22
774.80	225.17
775.12	225.14
775.45	225.11
775.77	225.09
776.09	225.08
776.42	225.05
776.74	225.06
777.07	225.03
777.39	225.01
777.72	224.98
778.04	224.97
778.36	224.93
778.69	224.90
779.01	224.88
779.33	224.76
779.66	224.63
779.98	224.60
780.31	224.58
780.63	224.60
780.95	224.60
781.28	224.58
781.60	224.56
781.92	224.54
782.25	224.52
782.57	224.50
782.89	224.47
783.22	224.45
783.54	224.40
783.86	224.39
784.19	224.37
784.51	224.38
784.83	224.35
785.16	224.33
785.48	224.32
785.80	224.30
786.12	224.29
786.45	224.27
786.77	224.26
787.09	224.23
787.42	224.18
787.74	224.16
788.06	224.15
788.38	224.13
788.71	224.11
789.03	224.09
789.35	224.09
789.67	224.06
789.99	224.05
790.32	224.03
790.64	224.03
790.96	224.12
791.28	224.06
791.61	224.05
791.93	224.04
792.25	224.02
792.57	224.08
792.89	224.05
793.21	224.05
793.54	224.03
793.86	224.00
794.18	224.00
794.50	223.96
794.82	223.95
795.14	223.95
795.47	223.96
795.79	223.95
796.11	223.91
796.43	223.90
796.75	223.88
797.07	223.88
797.39	223.86
797.71	223.76
798.04	223.75
798.36	223.74
798.68	223.73
799.00	223.72
799.32	223.66
799.64	223.67
799.96	223.65
800.28	223.66
800.60	223.65
800.92	223.64
801.24	223.62
801.56	223.62
801.89	223.60
802.21	223.60
802.53	223.56
802.85	223.58
803.17	223.62
803.49	223.58
803.81	223.56
804.13	223.54
804.45	223.52
804.77	223.52
805.09	223.51
805.41	223.50
805.73	223.47
806.05	223.43
806.37	223.41
806.69	223.39
807.01	223.37
807.33	223.37
807.65	223.33
807.97	223.36
808.28	223.34
808.60	223.33
808.92	223.31
809.24	223.36
809.56	223.34
809.88	223.29
810.20	223.29
810.52	223.30
810.84	223.28
811.16	223.26
811.48	223.25
811.80	223.28
812.12	223.26
812.43	223.28
812.75	223.28
813.07	223.27
813.39	223.26
813.71	223.24
814.03	223.22
814.35	223.22
814.67	223.17
814.98	223.16
815.30	223.15
815.62	223.13
815.94	223.05
816.26	223.06
816.58	223.03
816.89	223.03
817.21	223.00
817.53	223.01
817.85	223.01
818.17	223.00
818.48	222.95
818.80	222.97
819.12	222.94
819.44	222.92
819.76	222.90
820.07	222.90
820.39	222.89
820.71	222.90
821.03	222.90
821.34	222.89
821.66	222.90
821.98	222.91
822.30	222.90
822.61	222.96
822.93	222.93
823.25	222.94
823.57	222.92
823.88	222.93
824.20	222.93
824.52	222.94
824.83	222.93
825.15	222.92
825.47	222.91
825.79	222.91
826.10	222.90
826.42	222.90
826.74	222.90
827.05	222.90
827.37	222.89
827.69	222.88
828.00	222.88
828.32	222.88
828.64	222.86
828.95	222.91
829.27	222.88
829.58	222.87
829.90	222.88
830.22	222.89
830.53	222.86
830.85	222.85
831.17	222.83
831.48	222.82
831.80	222.82
832.11	222.81
832.43	222.80
832.75	222.79
833.06	222.86
833.38	222.83
833.69	222.82
834.01	222.83
834.32	222.82
834.64	222.81
834.96	222.81
835.27	222.80
835.59	222.77
835.90	222.75
836.22	222.75
836.53	222.72
836.85	222.71
837.16	222.81
837.48	222.81
837.79	222.84
838.11	222.85
838.42	222.84
838.74	222.86
839.05	222.85
839.37	222.84
839.68	222.78
840.00	222.77
840.31	222.79
840.63	222.78
840.94	222.77
841.26	222.75
841.57	222.75
841.88	222.76
842.20	222.74
842.51	222.72
842.83	222.72
843.14	222.81
843.46	222.81
843.77	222.75
844.08	222.74
844.40	222.71
844.71	222.70
845.03	222.69
845.34	222.68
845.65	222.67
845.97	222.67
846.28	222.67
846.60	222.68
846.91	222.66
847.22	222.65
847.54	222.68
847.85	222.69
848.16	222.68
848.48	222.66
848.79	222.69
849.10	222.71
849.42	222.71
849.73	222.61
850.04	222.61
850.36	222.57
850.67	222.59
850.98	222.59
851.30	222.59
851.61	222.59
851.92	222.58
852.23	222.62
852.55	222.62
852.86	222.62
853.17	222.63
853.49	222.65
853.80	222.66
854.11	222.67
854.42	222.67
854.74	222.66
855.05	222.67
855.36	222.61
855.67	222.61
855.99	222.61
856.30	222.73
856.61	222.73
856.92	222.73
857.23	222.73
857.55	222.72
857.86	222.71
858.17	222.73
858.48	222.71
858.79	222.69
859.11	222.69
859.42	222.68
859.73	222.67
860.04	222.66
860.35	222.63
860.66	222.60
860.98	222.59
861.29	222.61
861.60	222.60
861.91	222.63
862.22	222.61
862.53	222.59
862.84	222.47
863.16	222.49
863.47	222.48
863.78	222.46
864.09	222.47
864.40	222.47
864.71	222.47
865.02	222.49
865.33	222.47
865.64	222.45
865.95	222.46
866.27	222.52
866.58	222.51
866.89	222.52
867.20	222.52
867.51	222.51
867.82	222.50
868.13	222.53
868.44	222.51
868.75	222.53
869.06	222.54
869.37	222.55
869.68	222.52
869.99	222.53
870.30	222.53
870.61	222.54
870.92	222.53
871.23	222.52
871.54	222.53
871.85	222.56
872.16	222.57
872.47	222.57
872.78	222.51
873.09	222.52
873.40	222.51
873.71	222.52
874.02	222.52
874.33	222.52
874.64	222.49
874.95	222.51
875.26	222.49
875.56	222.49
875.87	222.48
876.18	222.48
876.49	222.58
876.80	222.57
877.11	222.55
877.42	222.55
877.73	222.55
878.04	222.53
878.35	222.53
878.66	222.53
878.96	222.53
879.27	222.53
879.58	222.52
879.89	222.51
880.20	222.54
880.51	222.53
880.82	222.53
881.12	222.53
881.43	222.51
881.74	222.50
882.05	222.49
882.36	222.49
882.67	222.50
882.97	222.39
883.28	222.38
883.59	222.38
883.90	222.39
884.21	222.40
884.51	222.39
884.82	222.37
885.13	222.37
885.44	222.37
885.74	222.36
886.05	222.36
886.36	222.36
886.67	222.32
886.98	222.37
887.28	222.38
887.59	222.38
887.90	222.38
888.20	222.38
888.51	222.41
888.82	222.39
889.13	222.40
889.43	222.48
889.74	222.48
890.05	222.47
890.35	222.46
890.66	222.44
890.97	222.43
891.28	222.42
891.58	222.42
891.89	222.42
892.20	222.41
892.50	222.39
892.81	222.39
893.12	222.39
893.42	222.34
893.73	222.34
894.04	222.34
894.34	222.34
894.65	222.34
894.95	222.32
895.26	222.32
895.57	222.37
895.87	222.26
896.18	222.28
896.48	222.29
896.79	222.28
897.10	222.30
897.40	222.31
897.71	222.32
898.01	222.31
898.32	222.32
898.63	222.32
898.93	222.33
899.24	222.33
899.54	222.32
899.85	222.32
900.15	222.31
900.46	222.31
900.76	222.31
901.07	222.32
901.38	222.31
901.68	222.33
901.99	222.27
902.29	222.28
902.60	222.27
902.90	222.26
903.21	222.26
903.51	222.25
903.82	222.26
904.12	222.26
904.43	222.27
904.73	222.26
905.03	222.27
905.34	222.37
905.64	222.36
905.95	222.36
906.25	222.36
906.56	222.36
906.86	222.36
907.17	222.35
907.47	222.35
907.77	222.34
908.08	222.32
908.38	222.33
908.69	222.33
908.99	222.35
909.30	222.36
909.60	222.35
909.90	222.36
910.21	222.33
910.51	222.32
910.81	222.32
911.12	222.32
911.42	222.32
911.73	222.21
912.03	222.23
912.33	222.25
912.64	222.24
912.94	222.23
913.24	222.21
913.55	222.21
913.85	222.20
914.15	222.22
914.46	222.23
914.76	222.22
915.06	222.22
915.37	222.20
915.67	222.19
915.97	222.19
916.27	222.17
916.58	222.18
916.88	222.17
917.18	222.17
917.49	222.23
917.79	222.23
918.09	222.24
918.39	222.26
918.70	222.25
919.00	222.26
919.30	222.31
919.60	222.30
919.91	222.29
920.21	222.29
920.51	222.27
920.81	222.27
921.12	222.28
921.42	222.28
921.72	222.28
922.02	222.29
922.32	222.30
922.63	222.31
922.93	222.36
923.23	222.36
923.53	222.35
923.83	222.29
924.13	222.29
924.44	222.29
924.74	222.30
925.04	222.32
925.34	222.32
925.64	222.28
925.94	222.28
926.24	222.34
926.55	222.33
926.85	222.34
927.15	222.34
927.45	222.34
927.75	222.33
928.05	222.33
928.35	222.32
928.65	222.34
928.95	222.35
929.26	222.30
929.56	222.32
929.86	222.33
930.16	222.32
930.46	222.31
930.76	222.31
931.06	222.27
931.36	222.24
931.66	222.25
931.96	222.26
932.26	222.27
932.56	222.23
932.86	222.23
933.16	222.23
933.46	222.23
933.76	222.21
934.06	222.23
934.36	222.27
934.66	222.26
934.96	222.25
935.26	222.25
935.56	222.26
935.86	222.24
936.16	222.22
936.46	222.21
936.76	222.21
937.06	222.20
937.36	222.21
937.66	222.21
937.96	222.21
938.26	222.19
938.56	222.18
938.86	222.18
939.16	222.20
939.46	222.21
939.76	222.22
940.06	222.21
940.35	222.20
940.65	222.15
940.95	222.16
941.25	222.14
941.55	222.13
941.85	222.12
942.15	222.14
942.45	222.17
942.75	222.17
943.04	222.18
943.34	222.20
943.64	222.19
943.94	222.17
944.24	222.17
944.54	222.18
944.84	222.17
945.13	222.16
945.43	222.14
945.73	222.13
946.03	222.12
946.33	222.12
946.62	222.10
946.92	222.10
947.22	222.11
947.52	222.11
947.82	222.12
948.11	222.11
948.41	222.09
948.71	222.06
949.01	222.06
949.31	222.05
949.60	222.04
949.90	222.06
950.20	222.06
950.50	222.05
950.79	222.05
951.09	222.06
951.39	222.06
951.69	222.05
951.98	222.07
952.28	222.07
952.58	222.07
952.87	222.07
953.17	222.08
953.47	222.06
953.76	222.06
954.06	222.05
954.36	222.03
954.66	222.04
954.95	222.06
955.25	222.07
955.55	222.08
955.84	222.06
956.14	222.07
956.44	222.07
956.73	222.06
957.03	222.06
957.32	222.06
957.62	222.06
957.92	222.08
958.21	222.07
958.51	222.19
958.81	222.20
959.10	222.21
959.40	222.24
959.69	222.24
959.99	222.25
960.29	222.26
960.58	222.25
960.88	222.29
961.17	222.27
961.47	222.28
961.76	222.27
962.06	222.29
962.36	222.27
962.65	222.28
962.95	222.29
963.24	222.28
963.54	222.28
963.83	222.29
964.13	222.28
964.42	222.27
964.72	222.18
965.01	222.18
965.31	222.17
965.60	222.14
965.90	222.21
966.19	222.18
966.49	222.19
966.78	222.19
967.08	222.17
967.37	222.17
967.67	222.16
967.96	222.17
968.26	222.17
968.55	222.18
968.85	222.18
969.14	222.17
969.43	222.17
969.73	222.16
970.02	222.15
970.32	222.15
970.61	222.13
970.91	222.10
971.20	222.09
971.49	222.09
971.79	222.10
972.08	222.03
972.38	222.04
972.67	222.03
972.96	222.05
973.26	222.03
973.55	222.06
973.85	222.05
974.14	222.04
974.43	222.05
974.73	222.03
975.02	222.02
975.31	222.02
975.61	222.02
975.90	222.02
976.19	222.01
976.49	222.02
976.78	222.03
977.07	222.03
977.37	222.04
977.66	222.04
977.95	222.02
978.24	222.04
978.54	222.05
978.83	222.05
979.12	222.04
979.42	222.04
979.71	222.02
980.00	222.02
980.29	222.03
980.59	222.01
980.88	222.04
981.17	222.04
981.46	222.04
981.76	222.04
982.05	222.07
982.34	222.08
982.63	222.08
982.93	222.08
983.22	222.10
983.51	222.11
983.80	222.12
984.09	222.13
984.39	222.12
984.68	222.11
984.97	222.12
985.26	222.11
985.55	222.12
985.85	222.10
986.14	222.11
986.43	222.12
986.72	222.11
987.01	222.08
987.30	222.08
987.59	222.07
987.89	222.07
988.18	222.04
988.47	222.03
988.76	222.02
989.05	222.01
989.34	222.00
989.63	222.02
989.92	222.01
990.22	221.99
990.51	221.99
990.80	221.98
991.09	222.00
991.38	222.01
991.67	221.99
991.96	221.99
992.25	221.99
992.54	221.97
992.83	221.97
993.12	221.97
993.41	221.99
993.70	222.03
993.99	222.04
994.28	222.06
994.58	222.07
994.87	222.06
995.16	222.06
995.45	222.05
995.74	222.01
996.03	222.03
996.32	222.04
996.61	222.06
996.90	222.06
997.19	222.05
997.48	222.05
997.77	222.05
998.06	222.05
998.34	222.04
998.63	222.05
998.92	222.05
999.21	222.07
999.50	222.06
999.79	222.03
1000.08	222.02
1000.37	222.02
1000.66	222.01
1000.95	222.04
1001.24	222.04
1001.53	222.06
1001.82	222.06
1002.11	222.03
1002.40	222.04
1002.68	222.06
1002.97	222.14
1003.26	222.12
1003.55	222.11
1003.84	222.12
1004.13	222.15
1004.42	222.15
1004.71	222.14
1004.99	222.14
1005.28	222.16
1005.57	222.15
1005.86	222.14
1006.15	222.13
1006.44	222.12
1006.72	222.14
1007.01	222.12
1007.30	222.12
1007.59	222.10
1007.88	222.10
1008.17	222.11
1008.45	222.08
1008.74	222.04
1009.03	221.99
1009.32	221.99
1009.60	221.99
1009.89	221.98
1010.18	221.94
1010.47	221.94
1010.76	221.94
1011.04	221.94
1011.33	221.93
1011.62	221.94
1011.91	221.95
1012.19	221.96
1012.48	221.96
1012.77	221.95
1013.05	221.99
1013.34	221.99
1013.63	221.98
1013.92	221.99
1014.20	221.99
1014.49	222.00
1014.78	222.01
1015.06	221.97
1015.35	221.98
1015.64	221.99
1015.92	222.00
1016.21	222.01
1016.50	222.02
1016.78	222.03
1017.07	222.03
1017.36	222.01
1017.64	222.00
1017.93	222.01
1018.22	222.00
1018.50	221.99
1018.79	221.99
1019.08	221.96
1019.36	221.96
1019.65	221.95
1019.93	221.98
1020.22	222.00
1020.51	222.05
1020.79	222.03
1021.08	221.83
1021.36	221.81
1021.65	222.01
1021.94	221.95
1022.22	222.04
1022.51	221.76
1022.79	222.51
1023.08	222.15
1023.36	223.21
1023.65	221.73
>>>>>End Processed Spectral Data<<<<<
