SpectraSuite Data File
++++++++++++++++++++++++++++++++++++
Date: Thu Oct 01 11:01:21 EDT 2015
User: lab3
Dark Spectrum Present: No
Reference Spectrum Present: No
Number of Sampled Component Spectra: 1
Spectrometers: USB2E7196
Integration Time (usec): 36000 (USB2E7196)
Spectra Averaged: 10000 (USB2E7196)
Boxcar Smoothing: 10 (USB2E7196)
Correct for Electrical Dark: No (USB2E7196)
Strobe/Lamp Enabled: No (USB2E7196)
Correct for Detector Non-linearity: No (USB2E7196)
Correct for Stray Light: No (USB2E7196)
Number of Pixels in Processed Spectrum: 2048
>>>>>Begin Processed Spectral Data<<<<<
339.09	0.00
339.48	212.01
339.86	213.47
340.24	214.86
340.63	216.30
341.01	219.16
341.39	218.99
341.78	220.32
342.16	221.47
342.54	222.02
342.93	210.52
343.31	221.16
343.69	221.70
344.07	222.16
344.46	222.59
344.84	222.98
345.22	223.22
345.60	223.48
345.99	223.67
346.37	223.81
346.75	223.92
347.13	224.00
347.52	224.07
347.90	224.14
348.28	224.19
348.66	224.24
349.05	224.24
349.43	224.29
349.81	224.35
350.19	224.41
350.57	224.48
350.96	224.56
351.34	224.64
351.72	224.74
352.10	224.85
352.48	224.92
352.87	224.97
353.25	225.04
353.63	225.10
354.01	225.17
354.39	225.25
354.77	225.32
355.15	225.42
355.54	225.48
355.92	225.52
356.30	225.60
356.68	225.73
357.06	225.81
357.44	225.86
357.82	225.92
358.20	226.03
358.58	226.09
358.97	226.16
359.35	226.24
359.73	226.32
360.11	226.37
360.49	226.43
360.87	226.48
361.25	226.54
361.63	226.62
362.01	226.66
362.39	226.70
362.77	226.74
363.15	226.77
363.53	226.80
363.91	226.83
364.29	226.86
364.67	226.78
365.05	226.81
365.43	226.84
365.81	226.87
366.19	226.88
366.57	226.93
366.95	226.93
367.33	226.90
367.71	226.90
368.09	226.92
368.47	226.91
368.85	226.90
369.23	226.90
369.61	226.85
369.99	226.87
370.37	226.86
370.75	226.91
371.13	226.88
371.51	226.85
371.89	226.83
372.27	226.80
372.65	226.78
373.03	226.73
373.41	226.69
373.78	226.64
374.16	226.55
374.54	226.47
374.92	226.42
375.30	226.38
375.68	226.31
376.06	226.26
376.44	226.21
376.82	226.17
377.19	226.12
377.57	226.07
377.95	225.98
378.33	225.92
378.71	225.78
379.09	225.73
379.47	225.69
379.84	225.62
380.22	225.56
380.60	225.49
380.98	225.44
381.36	225.39
381.73	225.32
382.11	225.30
382.49	225.25
382.87	225.19
383.25	225.14
383.62	225.22
384.00	225.15
384.38	225.11
384.76	225.08
385.13	225.07
385.51	225.03
385.89	224.98
386.27	224.94
386.64	224.92
387.02	224.88
387.40	224.83
387.78	224.81
388.15	224.78
388.53	224.75
388.91	224.72
389.29	224.69
389.66	224.68
390.04	224.64
390.42	224.63
390.79	224.62
391.17	224.60
391.55	224.47
391.92	224.46
392.30	224.45
392.68	224.42
393.05	224.40
393.43	224.40
393.81	224.40
394.18	224.38
394.56	224.38
394.94	224.41
395.31	224.41
395.69	224.44
396.06	224.47
396.44	224.49
396.82	224.50
397.19	224.58
397.57	224.59
397.95	224.63
398.32	224.63
398.70	224.67
399.07	224.73
399.45	224.77
399.82	224.81
400.20	224.84
400.58	224.90
400.95	224.92
401.33	225.00
401.70	225.13
402.08	225.22
402.45	225.30
402.83	225.40
403.20	225.51
403.58	225.60
403.95	225.72
404.33	225.85
404.71	225.98
405.08	226.17
405.46	226.32
405.83	226.48
406.21	226.66
406.58	226.86
406.96	227.05
407.33	227.27
407.70	227.52
408.08	227.86
408.45	228.14
408.83	228.46
409.20	228.75
409.58	229.02
409.95	229.37
410.33	229.77
410.70	230.13
411.08	230.56
411.45	231.01
411.82	231.47
412.20	232.00
412.57	232.62
412.95	233.12
413.32	233.76
413.69	234.42
414.07	235.12
414.44	235.88
414.82	236.66
415.19	237.58
415.56	238.50
415.94	239.46
416.31	240.54
416.68	241.62
417.06	242.87
417.43	244.05
417.81	245.40
418.18	246.78
418.55	248.30
418.93	249.86
419.30	251.51
419.67	253.25
420.04	255.05
420.42	256.92
420.79	259.08
421.16	261.27
421.54	263.49
421.91	265.81
422.28	268.23
422.66	270.84
423.03	273.31
423.40	275.92
423.77	278.71
424.15	281.57
424.52	284.54
424.89	287.76
425.26	290.97
425.64	293.94
426.01	297.28
426.38	300.68
426.75	304.19
427.13	307.78
427.50	311.53
427.87	315.43
428.24	319.37
428.61	323.13
428.99	327.19
429.36	331.64
429.73	335.89
430.10	340.12
430.47	344.43
430.85	348.88
431.22	353.62
431.59	358.47
431.96	363.21
432.33	368.45
432.70	373.41
433.08	379.28
433.45	384.82
433.82	390.27
434.19	396.37
434.56	402.36
434.93	408.13
435.30	413.84
435.68	420.27
436.05	426.56
436.42	432.85
436.79	438.58
437.16	444.77
437.53	451.40
437.90	458.04
438.27	464.53
438.64	471.57
439.01	477.93
439.38	483.76
439.75	489.40
440.13	495.83
440.50	501.95
440.87	506.79
441.24	512.12
441.61	517.99
441.98	522.29
442.35	527.44
442.72	532.72
443.09	537.76
443.46	541.05
443.83	543.49
444.20	545.57
444.57	548.59
444.94	550.42
445.31	552.32
445.68	554.01
446.05	555.30
446.42	555.22
446.79	555.03
447.16	554.88
447.53	554.78
447.90	552.96
448.27	551.26
448.64	548.52
449.01	546.72
449.37	542.74
449.74	539.14
450.11	534.46
450.48	529.29
450.85	524.10
451.22	519.70
451.59	515.38
451.96	511.46
452.33	505.68
452.70	500.54
453.07	494.25
453.43	487.95
453.80	481.84
454.17	475.97
454.54	470.54
454.91	464.39
455.28	458.58
455.65	453.11
456.02	447.28
456.38	442.58
456.75	436.52
457.12	431.63
457.49	426.68
457.86	421.96
458.23	417.81
458.59	413.23
458.96	408.53
459.33	404.38
459.70	400.15
460.07	396.92
460.43	393.14
460.80	389.59
461.17	386.45
461.54	383.07
461.91	379.92
462.27	376.72
462.64	374.10
463.01	371.10
463.38	368.07
463.74	365.34
464.11	362.90
464.48	360.70
464.85	358.35
465.21	356.54
465.58	354.55
465.95	352.27
466.32	350.45
466.68	348.66
467.05	346.86
467.42	345.13
467.78	343.27
468.15	341.54
468.52	340.26
468.88	338.59
469.25	337.07
469.62	335.86
469.98	334.54
470.35	333.37
470.72	332.33
471.08	331.27
471.45	330.39
471.82	329.41
472.18	328.40
472.55	327.75
472.92	326.95
473.28	326.32
473.65	325.67
474.02	325.06
474.38	324.56
474.75	324.28
475.11	323.88
475.48	323.74
475.85	323.59
476.21	323.56
476.58	323.58
476.94	323.78
477.31	323.93
477.67	324.10
478.04	324.38
478.41	324.74
478.77	325.21
479.14	325.57
479.50	326.15
479.87	326.87
480.23	327.58
480.60	328.27
480.96	328.99
481.33	329.97
481.69	330.96
482.06	331.94
482.42	332.86
482.79	333.96
483.15	335.23
483.52	336.64
483.88	338.02
484.25	339.46
484.61	340.98
484.98	342.60
485.34	344.43
485.71	346.32
486.07	348.34
486.44	350.35
486.80	352.57
487.17	354.86
487.53	357.37
487.90	359.99
488.26	362.82
488.62	365.80
488.99	368.80
489.35	371.92
489.72	375.30
490.08	378.85
490.44	382.50
490.81	386.31
491.17	390.21
491.54	394.37
491.90	398.66
492.26	403.28
492.63	408.13
492.99	413.17
493.36	418.33
493.72	423.77
494.08	429.35
494.45	435.25
494.81	441.36
495.17	447.61
495.54	454.20
495.90	461.11
496.26	468.16
496.63	475.46
496.99	483.07
497.35	491.02
497.72	499.28
498.08	507.69
498.44	516.38
498.80	525.64
499.17	535.11
499.53	544.94
499.89	554.98
500.26	565.21
500.62	575.73
500.98	586.95
501.34	598.33
501.71	610.26
502.07	622.40
502.43	634.95
502.79	647.81
503.16	661.11
503.52	674.58
503.88	688.47
504.24	702.76
504.60	717.31
504.97	732.30
505.33	747.70
505.69	764.02
506.05	780.52
506.41	797.01
506.78	813.82
507.14	831.12
507.50	849.01
507.86	867.31
508.22	885.89
508.59	904.51
508.95	923.82
509.31	943.59
509.67	964.08
510.03	984.76
510.39	1005.67
510.75	1026.83
511.12	1048.30
511.48	1070.01
511.84	1091.89
512.20	1114.11
512.56	1137.44
512.92	1160.85
513.28	1183.98
513.64	1207.48
514.00	1231.40
514.37	1255.61
514.73	1279.89
515.09	1303.95
515.45	1328.47
515.81	1353.53
516.17	1378.57
516.53	1403.31
516.89	1428.10
517.25	1453.10
517.61	1478.27
517.97	1503.65
518.33	1528.75
518.69	1553.96
519.05	1579.46
519.41	1605.09
519.77	1630.93
520.13	1655.94
520.49	1681.19
520.85	1706.69
521.21	1732.05
521.57	1757.96
521.93	1783.17
522.29	1809.16
522.65	1834.89
523.01	1860.38
523.37	1885.09
523.73	1910.51
524.09	1936.13
524.45	1961.62
524.81	1986.57
525.17	2011.43
525.53	2035.80
525.89	2060.18
526.25	2084.81
526.61	2108.92
526.97	2133.25
527.33	2157.57
527.68	2181.61
528.04	2204.88
528.40	2227.91
528.76	2251.17
529.12	2273.35
529.48	2295.87
529.84	2316.55
530.20	2337.81
530.56	2358.65
530.91	2379.60
531.27	2400.06
531.63	2419.75
531.99	2438.92
532.35	2457.80
532.71	2476.76
533.07	2496.23
533.42	2514.30
533.78	2532.63
534.14	2550.98
534.50	2568.47
534.86	2586.54
535.21	2602.78
535.57	2618.81
535.93	2634.32
536.29	2648.51
536.65	2663.65
537.00	2677.63
537.36	2692.11
537.72	2705.55
538.08	2718.52
538.44	2730.40
538.79	2742.40
539.15	2752.80
539.51	2763.14
539.87	2773.10
540.22	2780.85
540.58	2788.89
540.94	2797.27
541.29	2804.32
541.65	2810.25
542.01	2815.68
542.37	2819.30
542.72	2824.99
543.08	2830.07
543.44	2834.84
543.79	2838.94
544.15	2841.91
544.51	2844.99
544.87	2847.14
545.22	2848.94
545.58	2849.91
545.94	2851.31
546.29	2851.20
546.65	2851.08
547.01	2851.17
547.36	2851.26
547.72	2851.57
548.07	2850.37
548.43	2848.56
548.79	2846.07
549.14	2843.57
549.50	2841.91
549.86	2839.04
550.21	2833.86
550.57	2829.11
550.92	2823.06
551.28	2817.59
551.64	2812.20
551.99	2807.01
552.35	2801.43
552.70	2795.41
553.06	2790.13
553.41	2784.35
553.77	2778.01
554.13	2772.60
554.48	2765.93
554.84	2757.79
555.19	2749.85
555.55	2741.40
555.90	2733.57
556.26	2726.65
556.61	2719.08
556.97	2709.19
557.32	2700.39
557.68	2691.84
558.03	2682.79
558.39	2674.43
558.74	2666.05
559.10	2656.52
559.45	2646.58
559.81	2637.14
560.16	2626.91
560.52	2616.35
560.87	2606.83
561.23	2596.78
561.58	2586.20
561.94	2575.46
562.29	2564.20
562.64	2553.61
563.00	2543.27
563.35	2532.79
563.71	2521.37
564.06	2509.56
564.42	2498.71
564.77	2487.55
565.12	2476.48
565.48	2465.20
565.83	2454.51
566.19	2443.91
566.54	2432.73
566.89	2420.89
567.25	2408.88
567.60	2397.74
567.96	2386.12
568.31	2373.01
568.66	2360.06
569.02	2348.15
569.37	2335.92
569.72	2324.24
570.08	2311.86
570.43	2298.96
570.78	2285.67
571.14	2272.24
571.49	2259.59
571.84	2247.24
572.20	2233.62
572.55	2220.37
572.90	2206.98
573.26	2192.55
573.61	2177.61
573.96	2163.17
574.31	2148.99
574.67	2135.01
575.02	2120.65
575.37	2105.81
575.72	2091.28
576.08	2077.27
576.43	2062.24
576.78	2047.43
577.13	2033.40
577.49	2019.23
577.84	2005.48
578.19	1990.92
578.54	1976.06
578.90	1960.70
579.25	1945.05
579.60	1930.81
579.95	1916.17
580.30	1901.59
580.66	1887.38
581.01	1872.84
581.36	1858.55
581.71	1844.88
582.06	1830.64
582.42	1816.55
582.77	1803.17
583.12	1789.40
583.47	1775.79
583.82	1762.28
584.17	1748.67
584.53	1734.87
584.88	1721.16
585.23	1706.99
585.58	1693.40
585.93	1680.24
586.28	1667.92
586.63	1655.32
586.98	1642.09
587.34	1629.08
587.69	1615.59
588.04	1602.46
588.39	1589.87
588.74	1576.81
589.09	1563.50
589.44	1550.23
589.79	1537.41
590.14	1524.56
590.49	1511.94
590.84	1499.15
591.19	1486.97
591.54	1474.25
591.89	1461.44
592.25	1448.91
592.60	1436.14
592.95	1423.87
593.30	1411.90
593.65	1399.66
594.00	1387.74
594.35	1376.47
594.70	1364.54
595.05	1353.65
595.40	1342.42
595.75	1330.70
596.10	1319.83
596.45	1309.15
596.80	1298.92
597.15	1288.52
597.50	1278.06
597.85	1267.82
598.19	1257.76
598.54	1247.11
598.89	1237.27
599.24	1227.66
599.59	1217.91
599.94	1209.14
600.29	1200.21
600.64	1191.04
600.99	1181.29
601.34	1172.01
601.69	1162.22
602.04	1153.42
602.39	1144.46
602.74	1135.77
603.08	1127.30
603.43	1118.34
603.78	1109.34
604.13	1100.44
604.48	1091.48
604.83	1082.78
605.18	1074.01
605.53	1065.15
605.87	1056.45
606.22	1047.95
606.57	1039.24
606.92	1030.63
607.27	1021.83
607.62	1013.19
607.96	1004.70
608.31	997.23
608.66	989.31
609.01	981.79
609.36	974.25
609.70	966.45
610.05	958.54
610.40	950.97
610.75	943.46
611.10	936.20
611.44	928.63
611.79	921.30
612.14	913.62
612.49	906.13
612.83	899.08
613.18	892.06
613.53	884.86
613.88	877.79
614.22	871.26
614.57	864.56
614.92	857.86
615.27	851.20
615.61	844.40
615.96	837.79
616.31	831.14
616.65	824.37
617.00	817.85
617.35	811.49
617.70	805.15
618.04	798.88
618.39	792.62
618.74	786.67
619.08	780.61
619.43	774.75
619.78	768.88
620.12	762.86
620.47	757.02
620.82	751.31
621.16	745.85
621.51	740.03
621.85	734.23
622.20	728.50
622.55	722.92
622.89	717.28
623.24	711.72
623.59	706.20
623.93	700.76
624.28	695.46
624.62	690.11
624.97	684.78
625.32	679.54
625.66	674.16
626.01	668.77
626.35	663.53
626.70	658.34
627.04	653.36
627.39	648.42
627.73	643.59
628.08	638.96
628.43	634.19
628.77	629.50
629.12	624.97
629.46	620.56
629.81	615.97
630.15	611.30
630.50	606.79
630.84	602.50
631.19	598.36
631.53	594.25
631.88	590.06
632.22	585.94
632.57	582.06
632.91	578.12
633.26	574.28
633.60	570.48
633.95	566.79
634.29	562.97
634.64	559.11
634.98	555.19
635.32	551.40
635.67	547.74
636.01	544.06
636.36	540.40
636.70	536.88
637.05	533.39
637.39	530.09
637.73	526.63
638.08	523.22
638.42	519.79
638.77	516.25
639.11	512.68
639.45	509.19
639.80	505.69
640.14	502.38
640.49	499.00
640.83	495.52
641.17	492.12
641.52	488.85
641.86	485.56
642.20	482.45
642.55	479.19
642.89	476.03
643.23	473.05
643.58	470.28
643.92	467.42
644.26	464.55
644.61	461.67
644.95	458.82
645.29	455.92
645.64	453.01
645.98	450.22
646.32	447.62
646.66	445.00
647.01	442.36
647.35	439.75
647.69	437.06
648.04	434.55
648.38	432.03
648.72	429.48
649.06	427.02
649.41	424.54
649.75	422.08
650.09	419.65
650.43	417.23
650.78	414.78
651.12	412.32
651.46	409.97
651.80	407.71
652.14	405.53
652.49	403.35
652.83	401.23
653.17	399.08
653.51	396.99
653.85	394.97
654.20	392.88
654.54	390.74
654.88	388.80
655.22	386.87
655.56	384.91
655.90	383.05
656.25	381.19
656.59	379.36
656.93	377.62
657.27	375.90
657.61	374.09
657.95	372.35
658.29	370.61
658.64	368.91
658.98	367.18
659.32	365.47
659.66	363.88
660.00	362.28
660.34	360.73
660.68	359.12
661.02	357.45
661.36	355.90
661.70	354.40
662.05	352.87
662.39	351.35
662.73	349.92
663.07	348.51
663.41	347.12
663.75	345.75
664.09	344.38
664.43	342.93
664.77	341.58
665.11	340.18
665.45	338.86
665.79	337.53
666.13	336.19
666.47	334.84
666.81	333.46
667.15	332.06
667.49	330.76
667.83	329.50
668.17	328.28
668.51	327.08
668.85	325.90
669.19	324.79
669.53	323.60
669.87	322.40
670.21	321.23
670.55	320.07
670.89	318.98
671.23	317.86
671.57	316.77
671.91	315.72
672.25	314.73
672.58	313.71
672.92	312.68
673.26	311.72
673.60	310.75
673.94	309.78
674.28	308.87
674.62	307.95
674.96	306.99
675.30	306.09
675.64	305.16
675.97	304.26
676.31	303.32
676.65	302.41
676.99	301.56
677.33	300.66
677.67	299.80
678.01	298.86
678.34	298.00
678.68	297.19
679.02	296.35
679.36	295.51
679.70	294.68
680.04	293.88
680.37	293.07
680.71	292.29
681.05	291.56
681.39	290.78
681.73	289.98
682.06	289.21
682.40	288.46
682.74	287.73
683.08	287.03
683.42	286.30
683.75	285.65
684.09	284.91
684.43	284.22
684.77	283.52
685.10	282.86
685.44	282.19
685.78	281.51
686.12	280.87
686.45	280.22
686.79	279.57
687.13	278.93
687.46	278.27
687.80	277.64
688.14	276.97
688.48	276.36
688.81	275.74
689.15	275.18
689.49	274.57
689.82	273.98
690.16	273.33
690.50	272.74
690.83	272.15
691.17	271.58
691.51	271.03
691.84	270.48
692.18	269.91
692.52	269.34
692.85	268.78
693.19	268.26
693.52	267.73
693.86	267.19
694.20	266.67
694.53	266.18
694.87	265.67
695.21	265.19
695.54	264.69
695.88	264.19
696.21	263.66
696.55	263.17
696.88	262.69
697.22	262.22
697.56	261.76
697.89	261.24
698.23	260.77
698.56	260.27
698.90	259.82
699.23	259.36
699.57	258.93
699.90	258.50
700.24	258.03
700.58	257.60
700.91	257.21
701.25	256.88
701.58	256.51
701.92	256.14
702.25	255.74
702.59	255.34
702.92	254.96
703.26	254.59
703.59	254.21
703.93	253.92
704.26	253.57
704.60	253.21
704.93	252.87
705.26	252.52
705.60	252.21
705.93	251.85
706.27	251.56
706.60	251.25
706.94	250.95
707.27	250.59
707.61	250.26
707.94	249.92
708.27	249.50
708.61	249.15
708.94	248.80
709.28	248.49
709.61	248.18
709.94	247.90
710.28	247.61
710.61	247.34
710.95	246.98
711.28	246.76
711.61	246.49
711.95	246.25
712.28	245.98
712.61	245.69
712.95	245.50
713.28	245.28
713.61	245.02
713.95	244.74
714.28	244.52
714.61	244.27
714.95	244.04
715.28	243.80
715.61	243.58
715.95	243.36
716.28	243.14
716.61	242.94
716.95	242.71
717.28	242.50
717.61	242.27
717.94	242.06
718.28	241.78
718.61	241.58
718.94	241.35
719.27	241.15
719.61	240.96
719.94	240.74
720.27	240.49
720.60	240.30
720.94	240.12
721.27	239.93
721.60	239.77
721.93	239.59
722.27	239.45
722.60	239.29
722.93	239.10
723.26	238.93
723.59	238.74
723.93	238.59
724.26	238.43
724.59	238.27
724.92	238.12
725.25	238.00
725.59	237.85
725.92	237.71
726.25	237.57
726.58	237.42
726.91	237.26
727.24	237.13
727.57	236.99
727.91	236.83
728.24	236.71
728.57	236.56
728.90	236.43
729.23	236.26
729.56	236.17
729.89	236.04
730.22	235.90
730.55	235.76
730.89	235.63
731.22	235.49
731.55	235.36
731.88	235.24
732.21	235.09
732.54	234.97
732.87	234.85
733.20	234.74
733.53	234.62
733.86	234.53
734.19	234.40
734.52	234.31
734.85	234.27
735.18	234.15
735.51	234.07
735.84	233.96
736.17	233.89
736.50	233.73
736.83	233.75
737.16	233.66
737.49	233.57
737.82	233.48
738.15	233.40
738.48	233.31
738.81	233.21
739.14	233.10
739.47	233.01
739.80	232.91
740.13	232.83
740.46	232.72
740.79	232.61
741.12	232.52
741.45	232.41
741.78	232.27
742.11	232.21
742.44	232.10
742.77	232.03
743.10	231.93
743.43	231.84
743.75	231.65
744.08	231.72
744.41	231.63
744.74	231.55
745.07	231.44
745.40	231.38
745.73	231.35
746.06	231.28
746.39	231.22
746.71	231.14
747.04	231.06
747.37	230.99
747.70	230.94
748.03	230.87
748.36	230.82
748.68	230.75
749.01	230.65
749.34	230.58
749.67	230.52
750.00	230.46
750.33	230.48
750.65	230.42
750.98	230.21
751.31	230.15
751.64	230.10
751.97	230.09
752.29	230.02
752.62	229.91
752.95	229.84
753.28	229.76
753.60	229.70
753.93	229.66
754.26	229.61
754.59	229.51
754.91	229.43
755.24	229.36
755.57	229.35
755.90	229.29
756.22	229.23
756.55	229.15
756.88	229.07
757.20	228.94
757.53	228.86
757.86	228.80
758.19	228.75
758.51	228.70
758.84	228.60
759.17	228.54
759.49	228.50
759.82	228.50
760.15	228.47
760.47	228.42
760.80	228.34
761.13	228.31
761.45	228.27
761.78	228.22
762.11	228.18
762.43	228.08
762.76	228.04
763.08	228.01
763.41	227.97
763.74	227.94
764.06	227.89
764.39	227.85
764.71	227.81
765.04	227.76
765.37	227.71
765.69	227.67
766.02	227.63
766.34	227.58
766.67	227.50
767.00	227.47
767.32	227.49
767.65	227.51
767.97	227.46
768.30	227.43
768.62	227.40
768.95	227.35
769.27	227.31
769.60	227.29
769.92	227.24
770.25	227.19
770.57	227.14
770.90	227.11
771.22	227.07
771.55	227.03
771.87	227.01
772.20	226.98
772.52	227.04
772.85	227.13
773.17	227.11
773.50	227.07
773.82	227.03
774.15	226.95
774.47	226.85
774.80	226.81
775.12	226.79
775.45	226.76
775.77	226.74
776.09	226.72
776.42	226.69
776.74	226.70
777.07	226.67
777.39	226.64
777.72	226.61
778.04	226.60
778.36	226.57
778.69	226.55
779.01	226.53
779.33	226.42
779.66	226.28
779.98	226.25
780.31	226.24
780.63	226.25
780.95	226.25
781.28	226.24
781.60	226.21
781.92	226.19
782.25	226.17
782.57	226.15
782.89	226.13
783.22	226.10
783.54	226.06
783.86	226.05
784.19	226.03
784.51	226.05
784.83	226.02
785.16	226.00
785.48	225.98
785.80	225.96
786.12	225.95
786.45	225.93
786.77	225.92
787.09	225.90
787.42	225.84
787.74	225.83
788.06	225.82
788.38	225.80
788.71	225.78
789.03	225.77
789.35	225.76
789.67	225.74
789.99	225.73
790.32	225.70
790.64	225.70
790.96	225.78
791.28	225.73
791.61	225.71
791.93	225.70
792.25	225.68
792.57	225.74
792.89	225.71
793.21	225.71
793.54	225.68
793.86	225.66
794.18	225.65
794.50	225.62
794.82	225.60
795.14	225.60
795.47	225.61
795.79	225.60
796.11	225.56
796.43	225.55
796.75	225.54
797.07	225.53
797.39	225.52
797.71	225.42
798.04	225.42
798.36	225.41
798.68	225.40
799.00	225.40
799.32	225.34
799.64	225.35
799.96	225.33
800.28	225.34
800.60	225.33
800.92	225.33
801.24	225.31
801.56	225.31
801.89	225.29
802.21	225.28
802.53	225.25
802.85	225.26
803.17	225.29
803.49	225.27
803.81	225.24
804.13	225.23
804.45	225.20
804.77	225.20
805.09	225.19
805.41	225.17
805.73	225.14
806.05	225.10
806.37	225.08
806.69	225.07
807.01	225.05
807.33	225.04
807.65	225.00
807.97	225.04
808.28	225.02
808.60	225.01
808.92	224.99
809.24	225.05
809.56	225.02
809.88	224.98
810.20	224.98
810.52	225.00
810.84	224.97
811.16	224.96
811.48	224.94
811.80	224.97
812.12	224.96
812.43	224.98
812.75	224.98
813.07	224.96
813.39	224.96
813.71	224.94
814.03	224.93
814.35	224.93
814.67	224.88
814.98	224.87
815.30	224.86
815.62	224.84
815.94	224.76
816.26	224.76
816.58	224.74
816.89	224.74
817.21	224.71
817.53	224.71
817.85	224.71
818.17	224.71
818.48	224.65
818.80	224.67
819.12	224.64
819.44	224.62
819.76	224.61
820.07	224.60
820.39	224.59
820.71	224.60
821.03	224.59
821.34	224.58
821.66	224.59
821.98	224.60
822.30	224.59
822.61	224.64
822.93	224.63
823.25	224.63
823.57	224.61
823.88	224.62
824.20	224.61
824.52	224.63
824.83	224.62
825.15	224.61
825.47	224.60
825.79	224.60
826.10	224.59
826.42	224.58
826.74	224.59
827.05	224.58
827.37	224.58
827.69	224.57
828.00	224.57
828.32	224.56
828.64	224.55
828.95	224.60
829.27	224.57
829.58	224.56
829.90	224.57
830.22	224.58
830.53	224.56
830.85	224.55
831.17	224.52
831.48	224.52
831.80	224.52
832.11	224.51
832.43	224.49
832.75	224.49
833.06	224.55
833.38	224.52
833.69	224.51
834.01	224.52
834.32	224.51
834.64	224.50
834.96	224.49
835.27	224.49
835.59	224.45
835.90	224.43
836.22	224.43
836.53	224.40
836.85	224.39
837.16	224.49
837.48	224.49
837.79	224.52
838.11	224.52
838.42	224.51
838.74	224.52
839.05	224.52
839.37	224.51
839.68	224.45
840.00	224.45
840.31	224.46
840.63	224.44
840.94	224.44
841.26	224.43
841.57	224.42
841.88	224.43
842.20	224.42
842.51	224.39
842.83	224.40
843.14	224.49
843.46	224.49
843.77	224.42
844.08	224.42
844.40	224.38
844.71	224.37
845.03	224.36
845.34	224.35
845.65	224.35
845.97	224.35
846.28	224.36
846.60	224.36
846.91	224.34
847.22	224.34
847.54	224.36
847.85	224.36
848.16	224.35
848.48	224.33
848.79	224.37
849.10	224.38
849.42	224.38
849.73	224.28
850.04	224.27
850.36	224.24
850.67	224.25
850.98	224.26
851.30	224.26
851.61	224.26
851.92	224.25
852.23	224.29
852.55	224.29
852.86	224.28
853.17	224.29
853.49	224.31
853.80	224.33
854.11	224.33
854.42	224.35
854.74	224.33
855.05	224.33
855.36	224.28
855.67	224.28
855.99	224.28
856.30	224.40
856.61	224.40
856.92	224.40
857.23	224.40
857.55	224.39
857.86	224.38
858.17	224.40
858.48	224.38
858.79	224.36
859.11	224.36
859.42	224.35
859.73	224.33
860.04	224.32
860.35	224.29
860.66	224.26
860.98	224.25
861.29	224.27
861.60	224.26
861.91	224.29
862.22	224.27
862.53	224.26
862.84	224.13
863.16	224.15
863.47	224.13
863.78	224.12
864.09	224.12
864.40	224.12
864.71	224.12
865.02	224.14
865.33	224.12
865.64	224.10
865.95	224.10
866.27	224.17
866.58	224.16
866.89	224.17
867.20	224.17
867.51	224.15
867.82	224.14
868.13	224.17
868.44	224.15
868.75	224.17
869.06	224.17
869.37	224.19
869.68	224.16
869.99	224.18
870.30	224.18
870.61	224.19
870.92	224.18
871.23	224.17
871.54	224.18
871.85	224.21
872.16	224.22
872.47	224.21
872.78	224.15
873.09	224.16
873.40	224.15
873.71	224.16
874.02	224.17
874.33	224.16
874.64	224.14
874.95	224.15
875.26	224.13
875.56	224.13
875.87	224.12
876.18	224.12
876.49	224.21
876.80	224.21
877.11	224.19
877.42	224.19
877.73	224.20
878.04	224.18
878.35	224.18
878.66	224.18
878.96	224.18
879.27	224.17
879.58	224.17
879.89	224.16
880.20	224.19
880.51	224.18
880.82	224.19
881.12	224.19
881.43	224.17
881.74	224.16
882.05	224.16
882.36	224.16
882.67	224.17
882.97	224.06
883.28	224.05
883.59	224.04
883.90	224.05
884.21	224.07
884.51	224.06
884.82	224.05
885.13	224.04
885.44	224.04
885.74	224.04
886.05	224.03
886.36	224.04
886.67	224.00
886.98	224.05
887.28	224.06
887.59	224.05
887.90	224.06
888.20	224.06
888.51	224.07
888.82	224.06
889.13	224.06
889.43	224.15
889.74	224.15
890.05	224.15
890.35	224.13
890.66	224.11
890.97	224.10
891.28	224.09
891.58	224.09
891.89	224.09
892.20	224.07
892.50	224.06
892.81	224.06
893.12	224.06
893.42	224.01
893.73	224.00
894.04	224.00
894.34	224.00
894.65	224.01
894.95	224.00
895.26	224.00
895.57	224.05
895.87	223.94
896.18	223.96
896.48	223.96
896.79	223.96
897.10	223.98
897.40	223.99
897.71	224.00
898.01	223.99
898.32	224.00
898.63	224.01
898.93	224.02
899.24	224.02
899.54	224.02
899.85	224.01
900.15	224.01
900.46	224.00
900.76	224.01
901.07	224.01
901.38	224.00
901.68	224.01
901.99	223.95
902.29	223.96
902.60	223.95
902.90	223.95
903.21	223.95
903.51	223.94
903.82	223.95
904.12	223.95
904.43	223.95
904.73	223.95
905.03	223.95
905.34	224.04
905.64	224.03
905.95	224.03
906.25	224.03
906.56	224.03
906.86	224.03
907.17	224.02
907.47	224.03
907.77	224.02
908.08	224.00
908.38	224.00
908.69	224.01
908.99	224.02
909.30	224.03
909.60	224.03
909.90	224.03
910.21	224.00
910.51	223.99
910.81	223.99
911.12	223.99
911.42	224.00
911.73	223.89
912.03	223.89
912.33	223.92
912.64	223.91
912.94	223.90
913.24	223.88
913.55	223.87
913.85	223.86
914.15	223.88
914.46	223.89
914.76	223.88
915.06	223.87
915.37	223.86
915.67	223.84
915.97	223.85
916.27	223.82
916.58	223.83
916.88	223.83
917.18	223.82
917.49	223.88
917.79	223.87
918.09	223.89
918.39	223.92
918.70	223.91
919.00	223.92
919.30	223.96
919.60	223.96
919.91	223.95
920.21	223.95
920.51	223.93
920.81	223.93
921.12	223.94
921.42	223.94
921.72	223.95
922.02	223.95
922.32	223.97
922.63	223.98
922.93	224.03
923.23	224.04
923.53	224.03
923.83	223.96
924.13	223.97
924.44	223.97
924.74	223.98
925.04	224.00
925.34	224.00
925.64	223.95
925.94	223.96
926.24	224.02
926.55	224.01
926.85	224.02
927.15	224.02
927.45	224.02
927.75	224.02
928.05	224.02
928.35	224.01
928.65	224.03
928.95	224.03
929.26	223.99
929.56	224.00
929.86	224.02
930.16	224.01
930.46	224.00
930.76	224.00
931.06	223.95
931.36	223.92
931.66	223.94
931.96	223.95
932.26	223.96
932.56	223.91
932.86	223.92
933.16	223.92
933.46	223.91
933.76	223.89
934.06	223.91
934.36	223.95
934.66	223.94
934.96	223.93
935.26	223.93
935.56	223.95
935.86	223.92
936.16	223.90
936.46	223.89
936.76	223.89
937.06	223.88
937.36	223.89
937.66	223.89
937.96	223.88
938.26	223.85
938.56	223.85
938.86	223.85
939.16	223.87
939.46	223.87
939.76	223.89
940.06	223.88
940.35	223.86
940.65	223.81
940.95	223.82
941.25	223.79
941.55	223.78
941.85	223.77
942.15	223.79
942.45	223.82
942.75	223.82
943.04	223.83
943.34	223.84
943.64	223.83
943.94	223.82
944.24	223.82
944.54	223.83
944.84	223.83
945.13	223.81
945.43	223.79
945.73	223.79
946.03	223.78
946.33	223.77
946.62	223.76
946.92	223.76
947.22	223.76
947.52	223.77
947.82	223.79
948.11	223.78
948.41	223.76
948.71	223.73
949.01	223.73
949.31	223.72
949.60	223.71
949.90	223.73
950.20	223.73
950.50	223.72
950.79	223.71
951.09	223.73
951.39	223.73
951.69	223.72
951.98	223.74
952.28	223.75
952.58	223.74
952.87	223.75
953.17	223.76
953.47	223.75
953.76	223.75
954.06	223.73
954.36	223.72
954.66	223.72
954.95	223.74
955.25	223.75
955.55	223.76
955.84	223.74
956.14	223.75
956.44	223.76
956.73	223.74
957.03	223.75
957.32	223.75
957.62	223.75
957.92	223.77
958.21	223.75
958.51	223.87
958.81	223.88
959.10	223.89
959.40	223.91
959.69	223.91
959.99	223.93
960.29	223.94
960.58	223.93
960.88	223.97
961.17	223.96
961.47	223.96
961.76	223.95
962.06	223.97
962.36	223.96
962.65	223.96
962.95	223.97
963.24	223.96
963.54	223.96
963.83	223.97
964.13	223.96
964.42	223.95
964.72	223.86
965.01	223.86
965.31	223.86
965.60	223.83
965.90	223.89
966.19	223.86
966.49	223.87
966.78	223.86
967.08	223.85
967.37	223.85
967.67	223.83
967.96	223.85
968.26	223.84
968.55	223.85
968.85	223.85
969.14	223.85
969.43	223.85
969.73	223.84
970.02	223.83
970.32	223.82
970.61	223.81
970.91	223.78
971.20	223.76
971.49	223.75
971.79	223.76
972.08	223.69
972.38	223.70
972.67	223.69
972.96	223.71
973.26	223.69
973.55	223.72
973.85	223.72
974.14	223.70
974.43	223.71
974.73	223.69
975.02	223.68
975.31	223.68
975.61	223.68
975.90	223.67
976.19	223.66
976.49	223.67
976.78	223.69
977.07	223.69
977.37	223.70
977.66	223.71
977.95	223.69
978.24	223.70
978.54	223.72
978.83	223.71
979.12	223.71
979.42	223.70
979.71	223.68
980.00	223.68
980.29	223.69
980.59	223.67
980.88	223.70
981.17	223.70
981.46	223.70
981.76	223.70
982.05	223.73
982.34	223.74
982.63	223.74
982.93	223.73
983.22	223.76
983.51	223.76
983.80	223.77
984.09	223.79
984.39	223.78
984.68	223.77
984.97	223.78
985.26	223.77
985.55	223.78
985.85	223.76
986.14	223.77
986.43	223.78
986.72	223.78
987.01	223.74
987.30	223.74
987.59	223.73
987.89	223.74
988.18	223.71
988.47	223.70
988.76	223.69
989.05	223.68
989.34	223.67
989.63	223.69
989.92	223.68
990.22	223.66
990.51	223.66
990.80	223.65
991.09	223.66
991.38	223.67
991.67	223.66
991.96	223.66
992.25	223.66
992.54	223.64
992.83	223.65
993.12	223.65
993.41	223.67
993.70	223.71
993.99	223.72
994.28	223.74
994.58	223.76
994.87	223.75
995.16	223.74
995.45	223.73
995.74	223.69
996.03	223.71
996.32	223.73
996.61	223.75
996.90	223.75
997.19	223.74
997.48	223.74
997.77	223.73
998.06	223.74
998.34	223.73
998.63	223.72
998.92	223.73
999.21	223.74
999.50	223.74
999.79	223.71
1000.08	223.70
1000.37	223.70
1000.66	223.68
1000.95	223.71
1001.24	223.72
1001.53	223.74
1001.82	223.73
1002.11	223.71
1002.40	223.71
1002.68	223.73
1002.97	223.80
1003.26	223.79
1003.55	223.78
1003.84	223.78
1004.13	223.82
1004.42	223.81
1004.71	223.81
1004.99	223.81
1005.28	223.82
1005.57	223.82
1005.86	223.80
1006.15	223.79
1006.44	223.78
1006.72	223.79
1007.01	223.77
1007.30	223.77
1007.59	223.76
1007.88	223.76
1008.17	223.77
1008.45	223.75
1008.74	223.71
1009.03	223.66
1009.32	223.66
1009.60	223.66
1009.89	223.65
1010.18	223.61
1010.47	223.61
1010.76	223.61
1011.04	223.60
1011.33	223.60
1011.62	223.60
1011.91	223.62
1012.19	223.62
1012.48	223.62
1012.77	223.62
1013.05	223.66
1013.34	223.65
1013.63	223.65
1013.92	223.66
1014.20	223.65
1014.49	223.65
1014.78	223.66
1015.06	223.63
1015.35	223.63
1015.64	223.64
1015.92	223.66
1016.21	223.66
1016.50	223.67
1016.78	223.68
1017.07	223.69
1017.36	223.67
1017.64	223.66
1017.93	223.66
1018.22	223.66
1018.50	223.65
1018.79	223.65
1019.08	223.62
1019.36	223.63
1019.65	223.61
1019.93	223.64
1020.22	223.66
1020.51	223.71
1020.79	223.70
1021.08	223.54
1021.36	223.47
1021.65	223.70
1021.94	223.64
1022.22	223.69
1022.51	223.42
1022.79	224.17
1023.08	223.80
1023.36	224.85
1023.65	223.36
>>>>>End Processed Spectral Data<<<<<
