SpectraSuite Data File
++++++++++++++++++++++++++++++++++++
Date: Wed Sep 30 20:22:47 EDT 2015
User: lab3
Dark Spectrum Present: No
Reference Spectrum Present: No
Number of Sampled Component Spectra: 1
Spectrometers: USB2E7196
Integration Time (usec): 36000 (USB2E7196)
Spectra Averaged: 10000 (USB2E7196)
Boxcar Smoothing: 10 (USB2E7196)
Correct for Electrical Dark: No (USB2E7196)
Strobe/Lamp Enabled: No (USB2E7196)
Correct for Detector Non-linearity: No (USB2E7196)
Correct for Stray Light: No (USB2E7196)
Number of Pixels in Processed Spectrum: 2048
>>>>>Begin Processed Spectral Data<<<<<
339.09	0.00
339.48	210.80
339.86	212.22
340.24	213.61
340.63	215.00
341.01	218.08
341.39	217.71
341.78	219.10
342.16	220.29
342.54	220.81
342.93	209.35
343.31	219.93
343.69	220.47
344.07	220.93
344.46	221.36
344.84	221.75
345.22	221.98
345.60	222.24
345.99	222.43
346.37	222.56
346.75	222.67
347.13	222.74
347.52	222.81
347.90	222.89
348.28	222.93
348.66	222.98
349.05	222.97
349.43	223.03
349.81	223.08
350.19	223.14
350.57	223.20
350.96	223.28
351.34	223.37
351.72	223.47
352.10	223.57
352.48	223.65
352.87	223.70
353.25	223.77
353.63	223.83
354.01	223.89
354.39	223.97
354.77	224.04
355.15	224.15
355.54	224.20
355.92	224.24
356.30	224.31
356.68	224.45
357.06	224.53
357.44	224.57
357.82	224.63
358.20	224.74
358.58	224.80
358.97	224.87
359.35	224.95
359.73	225.02
360.11	225.08
360.49	225.14
360.87	225.19
361.25	225.25
361.63	225.33
362.01	225.38
362.39	225.42
362.77	225.46
363.15	225.49
363.53	225.52
363.91	225.56
364.29	225.58
364.67	225.50
365.05	225.53
365.43	225.56
365.81	225.59
366.19	225.61
366.57	225.66
366.95	225.66
367.33	225.64
367.71	225.63
368.09	225.65
368.47	225.65
368.85	225.64
369.23	225.65
369.61	225.60
369.99	225.61
370.37	225.61
370.75	225.67
371.13	225.63
371.51	225.59
371.89	225.57
372.27	225.55
372.65	225.53
373.03	225.48
373.41	225.43
373.78	225.39
374.16	225.29
374.54	225.22
374.92	225.16
375.30	225.12
375.68	225.05
376.06	225.01
376.44	224.95
376.82	224.90
377.19	224.85
377.57	224.80
377.95	224.71
378.33	224.65
378.71	224.50
379.09	224.46
379.47	224.43
379.84	224.36
380.22	224.30
380.60	224.23
380.98	224.19
381.36	224.13
381.73	224.07
382.11	224.04
382.49	223.99
382.87	223.93
383.25	223.89
383.62	223.96
384.00	223.89
384.38	223.85
384.76	223.83
385.13	223.81
385.51	223.77
385.89	223.72
386.27	223.68
386.64	223.66
387.02	223.60
387.40	223.56
387.78	223.53
388.15	223.50
388.53	223.47
388.91	223.44
389.29	223.41
389.66	223.40
390.04	223.36
390.42	223.36
390.79	223.34
391.17	223.32
391.55	223.19
391.92	223.17
392.30	223.17
392.68	223.14
393.05	223.12
393.43	223.12
393.81	223.12
394.18	223.11
394.56	223.10
394.94	223.13
395.31	223.13
395.69	223.17
396.06	223.19
396.44	223.21
396.82	223.22
397.19	223.29
397.57	223.30
397.95	223.34
398.32	223.33
398.70	223.37
399.07	223.44
399.45	223.47
399.82	223.51
400.20	223.54
400.58	223.60
400.95	223.61
401.33	223.68
401.70	223.82
402.08	223.90
402.45	223.98
402.83	224.08
403.20	224.18
403.58	224.26
403.95	224.38
404.33	224.51
404.71	224.63
405.08	224.80
405.46	224.95
405.83	225.10
406.21	225.28
406.58	225.46
406.96	225.64
407.33	225.86
407.70	226.09
408.08	226.42
408.45	226.70
408.83	227.01
409.20	227.28
409.58	227.53
409.95	227.87
410.33	228.24
410.70	228.59
411.08	228.99
411.45	229.43
411.82	229.86
412.20	230.36
412.57	230.96
412.95	231.43
413.32	232.04
413.69	232.66
414.07	233.33
414.44	234.04
414.82	234.78
415.19	235.65
415.56	236.52
415.94	237.42
416.31	238.44
416.68	239.46
417.06	240.64
417.43	241.74
417.81	243.02
418.18	244.32
418.55	245.75
418.93	247.22
419.30	248.76
419.67	250.41
420.04	252.10
420.42	253.86
420.79	255.90
421.16	257.95
421.54	260.05
421.91	262.23
422.28	264.51
422.66	266.96
423.03	269.28
423.40	271.74
423.77	274.37
424.15	277.06
424.52	279.86
424.89	282.89
425.26	285.91
425.64	288.71
426.01	291.86
426.38	295.07
426.75	298.39
427.13	301.79
427.50	305.34
427.87	309.03
428.24	312.76
428.61	316.32
428.99	320.17
429.36	324.38
429.73	328.41
430.10	332.43
430.47	336.54
430.85	340.76
431.22	345.26
431.59	349.87
431.96	354.37
432.33	359.35
432.70	364.07
433.08	369.66
433.45	374.93
433.82	380.10
434.19	385.88
434.56	391.56
434.93	397.03
435.30	402.44
435.68	408.54
436.05	414.51
436.42	420.46
436.79	425.89
437.16	431.74
437.53	438.02
437.90	444.29
438.27	450.40
438.64	457.05
439.01	463.05
439.38	468.53
439.75	473.82
440.13	479.86
440.50	485.61
440.87	490.13
441.24	495.12
441.61	500.64
441.98	504.67
442.35	509.48
442.72	514.41
443.09	519.14
443.46	522.19
443.83	524.44
444.20	526.37
444.57	529.17
444.94	530.86
445.31	532.61
445.68	534.18
446.05	535.37
446.42	535.27
446.79	535.07
447.16	534.93
447.53	534.83
447.90	533.12
448.27	531.51
448.64	528.93
449.01	527.24
449.37	523.51
449.74	520.12
450.11	515.74
450.48	510.90
450.85	506.02
451.22	501.90
451.59	497.86
451.96	494.20
452.33	488.79
452.70	483.98
453.07	478.10
453.43	472.20
453.80	466.49
454.17	461.01
454.54	455.92
454.91	450.16
455.28	444.73
455.65	439.62
456.02	434.17
456.38	429.79
456.75	424.11
457.12	419.53
457.49	414.91
457.86	410.49
458.23	406.64
458.59	402.37
458.96	397.98
459.33	394.10
459.70	390.15
460.07	387.14
460.43	383.58
460.80	380.25
461.17	377.31
461.54	374.15
461.91	371.19
462.27	368.18
462.64	365.72
463.01	362.90
463.38	360.06
463.74	357.49
464.11	355.19
464.48	353.12
464.85	350.90
465.21	349.21
465.58	347.33
465.95	345.15
466.32	343.41
466.68	341.70
467.05	340.00
467.42	338.35
467.78	336.57
468.15	334.94
468.52	333.71
468.88	332.12
469.25	330.65
469.62	329.48
469.98	328.22
470.35	327.09
470.72	326.08
471.08	325.04
471.45	324.18
471.82	323.23
472.18	322.25
472.55	321.60
472.92	320.81
473.28	320.19
473.65	319.56
474.02	318.96
474.38	318.47
474.75	318.19
475.11	317.78
475.48	317.62
475.85	317.45
476.21	317.40
476.58	317.40
476.94	317.58
477.31	317.69
477.67	317.83
478.04	318.08
478.41	318.40
478.77	318.86
479.14	319.18
479.50	319.72
479.87	320.39
480.23	321.07
480.60	321.72
480.96	322.40
481.33	323.33
481.69	324.27
482.06	325.19
482.42	326.07
482.79	327.13
483.15	328.33
483.52	329.69
483.88	331.01
484.25	332.40
484.61	333.86
484.98	335.43
485.34	337.19
485.71	339.01
486.07	340.96
486.44	342.88
486.80	345.04
487.17	347.24
487.53	349.66
487.90	352.18
488.26	354.91
488.62	357.78
488.99	360.66
489.35	363.68
489.72	366.92
490.08	370.34
490.44	373.85
490.81	377.53
491.17	381.29
491.54	385.32
491.90	389.44
492.26	393.87
492.63	398.53
492.99	403.39
493.36	408.37
493.72	413.62
494.08	418.99
494.45	424.67
494.81	430.55
495.17	436.56
495.54	442.91
495.90	449.57
496.26	456.36
496.63	463.40
496.99	470.71
497.35	478.39
497.72	486.35
498.08	494.48
498.44	502.86
498.80	511.79
499.17	520.94
499.53	530.42
499.89	540.13
500.26	550.02
500.62	560.18
500.98	570.99
501.34	581.94
501.71	593.44
502.07	605.15
502.43	617.27
502.79	629.71
503.16	642.54
503.52	655.57
503.88	668.96
504.24	682.77
504.60	696.88
504.97	711.37
505.33	726.23
505.69	741.97
506.05	757.92
506.41	773.87
506.78	790.13
507.14	806.87
507.50	824.20
507.86	841.93
508.22	859.91
508.59	877.92
508.95	896.64
509.31	915.79
509.67	935.64
510.03	955.71
510.39	975.98
510.75	996.49
511.12	1017.29
511.48	1038.43
511.84	1059.67
512.20	1081.22
512.56	1103.84
512.92	1126.69
513.28	1149.28
513.64	1172.20
514.00	1195.51
514.37	1219.16
514.73	1242.84
515.09	1266.35
515.45	1290.26
515.81	1314.75
516.17	1339.28
516.53	1363.54
516.89	1387.88
517.25	1412.40
517.61	1437.10
517.97	1462.02
518.33	1486.68
518.69	1511.49
519.05	1536.57
519.41	1561.80
519.77	1587.28
520.13	1612.03
520.49	1636.94
520.85	1662.08
521.21	1687.13
521.57	1712.82
521.93	1737.80
522.29	1763.63
522.65	1789.19
523.01	1814.57
523.37	1839.25
523.73	1864.59
524.09	1890.06
524.45	1915.42
524.81	1940.33
525.17	1965.15
525.53	1989.59
525.89	2014.10
526.25	2038.79
526.61	2062.94
526.97	2087.40
527.33	2111.77
527.68	2135.95
528.04	2159.33
528.40	2182.61
528.76	2206.04
529.12	2228.45
529.48	2251.21
529.84	2272.17
530.20	2293.70
530.56	2314.88
530.91	2336.14
531.27	2356.92
531.63	2377.08
531.99	2396.76
532.35	2416.07
532.71	2435.50
533.07	2455.52
533.42	2474.00
533.78	2492.88
534.14	2511.71
534.50	2529.69
534.86	2548.34
535.21	2565.17
535.57	2581.94
535.93	2597.94
536.29	2612.79
536.65	2628.43
537.00	2642.95
537.36	2657.98
537.72	2671.99
538.08	2685.74
538.44	2698.28
538.79	2711.02
539.15	2722.12
539.51	2733.15
539.87	2743.83
540.22	2752.35
540.58	2760.99
540.94	2770.20
541.29	2777.91
541.65	2784.65
542.01	2790.87
542.37	2795.24
542.72	2801.55
543.08	2807.27
543.44	2812.84
543.79	2817.58
544.15	2821.45
544.51	2825.35
544.87	2828.35
545.22	2830.90
545.58	2832.39
545.94	2834.43
546.29	2835.00
546.65	2835.66
547.01	2836.35
547.36	2837.20
547.72	2838.21
548.07	2837.73
548.43	2836.62
548.79	2834.87
549.14	2833.18
549.50	2832.05
549.86	2830.01
550.21	2825.52
550.57	2821.51
550.92	2816.13
551.28	2811.32
551.64	2806.42
551.99	2801.91
552.35	2796.98
552.70	2791.64
553.06	2787.08
553.41	2781.98
553.77	2776.24
554.13	2771.22
554.48	2765.32
554.84	2757.77
555.19	2750.39
555.55	2742.38
555.90	2734.96
556.26	2728.55
556.61	2721.48
556.97	2712.26
557.32	2703.93
557.68	2696.02
558.03	2687.42
558.39	2679.48
558.74	2671.79
559.10	2662.82
559.45	2653.51
559.81	2644.52
560.16	2634.84
560.52	2624.70
560.87	2615.62
561.23	2606.16
561.58	2596.22
561.94	2585.99
562.29	2575.30
562.64	2565.15
563.00	2555.38
563.35	2545.41
563.71	2534.51
564.06	2523.13
564.42	2512.77
564.77	2502.02
565.12	2491.40
565.48	2480.52
565.83	2470.35
566.19	2460.17
566.54	2449.60
566.89	2438.07
567.25	2426.46
567.60	2415.72
567.96	2404.53
568.31	2391.93
568.66	2379.30
569.02	2367.70
569.37	2355.90
569.72	2344.57
570.08	2332.54
570.43	2319.97
570.78	2307.09
571.14	2294.01
571.49	2281.73
571.84	2269.74
572.20	2256.45
572.55	2243.51
572.90	2230.46
573.26	2216.49
573.61	2201.92
573.96	2187.61
574.31	2173.70
574.67	2160.08
575.02	2146.02
575.37	2131.51
575.72	2117.26
576.08	2103.63
576.43	2088.91
576.78	2074.21
577.13	2060.31
577.49	2046.52
577.84	2033.07
578.19	2018.78
578.54	2004.10
578.90	1988.90
579.25	1973.40
579.60	1959.40
579.95	1945.03
580.30	1930.67
580.66	1916.59
581.01	1902.12
581.36	1888.05
581.71	1874.53
582.06	1860.46
582.42	1846.44
582.77	1833.20
583.12	1819.58
583.47	1806.00
583.82	1792.57
584.17	1779.02
584.53	1765.35
584.88	1751.63
585.23	1737.59
585.58	1724.07
585.93	1710.96
586.28	1698.66
586.63	1686.17
586.98	1672.95
587.34	1659.97
587.69	1646.48
588.04	1633.21
588.39	1620.66
588.74	1607.57
589.09	1594.23
589.44	1580.87
589.79	1568.08
590.14	1555.16
590.49	1542.42
590.84	1529.56
591.19	1517.34
591.54	1504.62
591.89	1491.74
592.25	1479.19
592.60	1466.23
592.95	1453.85
593.30	1441.77
593.65	1429.49
594.00	1417.39
594.35	1406.09
594.70	1393.94
595.05	1382.90
595.40	1371.69
595.75	1359.85
596.10	1348.80
596.45	1337.97
596.80	1327.60
597.15	1317.02
597.50	1306.44
597.85	1296.06
598.19	1285.89
598.54	1275.09
598.89	1265.02
599.24	1255.26
599.59	1245.26
599.94	1236.29
600.29	1227.21
600.64	1217.91
600.99	1208.02
601.34	1198.62
601.69	1188.58
602.04	1179.67
602.39	1170.57
602.74	1161.75
603.08	1153.16
603.43	1144.07
603.78	1134.86
604.13	1125.81
604.48	1116.68
604.83	1107.82
605.18	1098.88
605.53	1089.87
605.87	1080.99
606.22	1072.39
606.57	1063.52
606.92	1054.73
607.27	1045.79
607.62	1036.93
607.96	1028.26
608.31	1020.60
608.66	1012.51
609.01	1004.86
609.36	997.16
609.70	989.23
610.05	981.11
610.40	973.36
610.75	965.73
611.10	958.37
611.44	950.63
611.79	943.19
612.14	935.35
612.49	927.68
612.83	920.48
613.18	913.35
613.53	906.02
613.88	898.77
614.22	892.14
614.57	885.34
614.92	878.52
615.27	871.72
615.61	864.77
615.96	858.03
616.31	851.22
616.65	844.29
617.00	837.63
617.35	831.10
617.70	824.61
618.04	818.18
618.39	811.77
618.74	805.70
619.08	799.43
619.43	793.45
619.78	787.47
620.12	781.29
620.47	775.30
620.82	769.38
621.16	763.79
621.51	757.85
621.85	751.89
622.20	745.99
622.55	740.29
622.89	734.54
623.24	728.83
623.59	723.20
623.93	717.61
624.28	712.17
624.62	706.69
624.97	701.21
625.32	695.83
625.66	690.30
626.01	684.78
626.35	679.41
626.70	674.07
627.04	668.92
627.39	663.83
627.73	658.84
628.08	654.08
628.43	649.21
628.77	644.41
629.12	639.74
629.46	635.25
629.81	630.56
630.15	625.75
630.50	621.11
630.84	616.65
631.19	612.40
631.53	608.17
631.88	603.84
632.22	599.61
632.57	595.63
632.91	591.61
633.26	587.67
633.60	583.82
633.95	580.07
634.29	576.16
634.64	572.21
634.98	568.16
635.32	564.26
635.67	560.50
636.01	556.69
636.36	552.91
636.70	549.27
637.05	545.63
637.39	542.20
637.73	538.64
638.08	535.14
638.42	531.61
638.77	527.94
639.11	524.28
639.45	520.65
639.80	517.01
640.14	513.56
640.49	510.08
640.83	506.47
641.17	502.90
641.52	499.52
641.86	496.12
642.20	492.90
642.55	489.53
642.89	486.25
643.23	483.16
643.58	480.32
643.92	477.34
644.26	474.40
644.61	471.45
644.95	468.50
645.29	465.50
645.64	462.47
645.98	459.58
646.32	456.85
646.66	454.14
647.01	451.40
647.35	448.70
647.69	445.89
648.04	443.23
648.38	440.60
648.72	437.93
649.06	435.35
649.41	432.78
649.75	430.21
650.09	427.67
650.43	425.13
650.78	422.58
651.12	420.00
651.46	417.54
651.80	415.18
652.14	412.89
652.49	410.61
652.83	408.39
653.17	406.15
653.51	403.99
653.85	401.89
654.20	399.74
654.54	397.49
654.88	395.44
655.22	393.45
655.56	391.42
655.90	389.48
656.25	387.57
656.59	385.64
656.93	383.82
657.27	382.04
657.61	380.16
657.95	378.34
658.29	376.54
658.64	374.76
658.98	372.95
659.32	371.17
659.66	369.51
660.00	367.86
660.34	366.23
660.68	364.56
661.02	362.81
661.36	361.19
661.70	359.63
662.05	358.05
662.39	356.46
662.73	354.97
663.07	353.50
663.41	352.03
663.75	350.61
664.09	349.18
664.43	347.67
664.77	346.27
665.11	344.80
665.45	343.41
665.79	342.02
666.13	340.63
666.47	339.22
666.81	337.79
667.15	336.32
667.49	334.95
667.83	333.63
668.17	332.36
668.51	331.10
668.85	329.86
669.19	328.70
669.53	327.48
669.87	326.21
670.21	324.99
670.55	323.78
670.89	322.64
671.23	321.48
671.57	320.32
671.91	319.22
672.25	318.19
672.58	317.14
672.92	316.06
673.26	315.05
673.60	314.05
673.94	313.03
674.28	312.08
674.62	311.12
674.96	310.12
675.30	309.19
675.64	308.22
675.97	307.29
676.31	306.30
676.65	305.34
676.99	304.45
677.33	303.50
677.67	302.61
678.01	301.62
678.34	300.72
678.68	299.88
679.02	299.00
679.36	298.13
679.70	297.26
680.04	296.43
680.37	295.58
680.71	294.76
681.05	294.00
681.39	293.20
681.73	292.37
682.06	291.57
682.40	290.78
682.74	290.01
683.08	289.27
683.42	288.52
683.75	287.83
684.09	287.07
684.43	286.36
684.77	285.63
685.10	284.96
685.44	284.26
685.78	283.56
686.12	282.88
686.45	282.20
686.79	281.52
687.13	280.86
687.46	280.18
687.80	279.52
688.14	278.82
688.48	278.17
688.81	277.52
689.15	276.93
689.49	276.29
689.82	275.67
690.16	275.00
690.50	274.39
690.83	273.78
691.17	273.18
691.51	272.60
691.84	272.04
692.18	271.44
692.52	270.84
692.85	270.25
693.19	269.72
693.52	269.16
693.86	268.61
694.20	268.06
694.53	267.54
694.87	267.01
695.21	266.50
695.54	265.99
695.88	265.47
696.21	264.91
696.55	264.40
696.88	263.89
697.22	263.40
697.56	262.91
697.89	262.36
698.23	261.85
698.56	261.33
698.90	260.85
699.23	260.36
699.57	259.91
699.90	259.45
700.24	258.95
700.58	258.51
700.91	258.09
701.25	257.74
701.58	257.36
701.92	256.96
702.25	256.55
702.59	256.12
702.92	255.72
703.26	255.32
703.59	254.92
703.93	254.60
704.26	254.23
704.60	253.84
704.93	253.48
705.26	253.12
705.60	252.80
705.93	252.42
706.27	252.10
706.60	251.77
706.94	251.46
707.27	251.08
707.61	250.73
707.94	250.36
708.27	249.92
708.61	249.53
708.94	249.17
709.28	248.83
709.61	248.51
709.94	248.20
710.28	247.90
710.61	247.62
710.95	247.24
711.28	247.01
711.61	246.73
711.95	246.46
712.28	246.17
712.61	245.87
712.95	245.65
713.28	245.42
713.61	245.14
713.95	244.84
714.28	244.60
714.61	244.33
714.95	244.08
715.28	243.83
715.61	243.58
715.95	243.35
716.28	243.11
716.61	242.89
716.95	242.65
717.28	242.41
717.61	242.17
717.94	241.94
718.28	241.65
718.61	241.42
718.94	241.18
719.27	240.96
719.61	240.77
719.94	240.53
720.27	240.27
720.60	240.06
720.94	239.86
721.27	239.67
721.60	239.50
721.93	239.31
722.27	239.15
722.60	238.98
722.93	238.78
723.26	238.61
723.59	238.40
723.93	238.23
724.26	238.07
724.59	237.89
724.92	237.73
725.25	237.59
725.59	237.43
725.92	237.29
726.25	237.14
726.58	236.98
726.91	236.81
727.24	236.67
727.57	236.53
727.91	236.36
728.24	236.23
728.57	236.06
728.90	235.93
729.23	235.75
729.56	235.66
729.89	235.52
730.22	235.37
730.55	235.23
730.89	235.09
731.22	234.94
731.55	234.81
731.88	234.67
732.21	234.52
732.54	234.39
732.87	234.26
733.20	234.14
733.53	234.02
733.86	233.91
734.19	233.78
734.52	233.68
734.85	233.63
735.18	233.49
735.51	233.41
735.84	233.29
736.17	233.21
736.50	233.04
736.83	233.06
737.16	232.96
737.49	232.87
737.82	232.76
738.15	232.68
738.48	232.58
738.81	232.47
739.14	232.36
739.47	232.26
739.80	232.15
740.13	232.06
740.46	231.95
740.79	231.83
741.12	231.74
741.45	231.63
741.78	231.47
742.11	231.41
742.44	231.29
742.77	231.22
743.10	231.11
743.43	231.02
743.75	230.82
744.08	230.89
744.41	230.79
744.74	230.70
745.07	230.59
745.40	230.52
745.73	230.48
746.06	230.41
746.39	230.34
746.71	230.26
747.04	230.17
747.37	230.09
747.70	230.04
748.03	229.97
748.36	229.91
748.68	229.83
749.01	229.73
749.34	229.66
749.67	229.58
750.00	229.52
750.33	229.53
750.65	229.47
750.98	229.26
751.31	229.19
751.64	229.14
751.97	229.12
752.29	229.05
752.62	228.94
752.95	228.86
753.28	228.78
753.60	228.71
753.93	228.67
754.26	228.61
754.59	228.51
754.91	228.43
755.24	228.36
755.57	228.34
755.90	228.28
756.22	228.21
756.55	228.13
756.88	228.05
757.20	227.92
757.53	227.83
757.86	227.77
758.19	227.72
758.51	227.65
758.84	227.55
759.17	227.48
759.49	227.43
759.82	227.44
760.15	227.40
760.47	227.35
760.80	227.26
761.13	227.23
761.45	227.19
761.78	227.14
762.11	227.10
762.43	226.99
762.76	226.95
763.08	226.92
763.41	226.88
763.74	226.84
764.06	226.80
764.39	226.76
764.71	226.72
765.04	226.66
765.37	226.61
765.69	226.57
766.02	226.53
766.34	226.48
766.67	226.40
767.00	226.38
767.32	226.40
767.65	226.43
767.97	226.38
768.30	226.34
768.62	226.30
768.95	226.26
769.27	226.22
769.60	226.20
769.92	226.15
770.25	226.09
770.57	226.04
770.90	226.01
771.22	225.96
771.55	225.93
771.87	225.91
772.20	225.87
772.52	225.92
772.85	226.02
773.17	225.99
773.50	225.95
773.82	225.90
774.15	225.82
774.47	225.72
774.80	225.68
775.12	225.65
775.45	225.62
775.77	225.60
776.09	225.58
776.42	225.55
776.74	225.55
777.07	225.52
777.39	225.50
777.72	225.47
778.04	225.46
778.36	225.42
778.69	225.39
779.01	225.37
779.33	225.26
779.66	225.12
779.98	225.09
780.31	225.07
780.63	225.09
780.95	225.09
781.28	225.07
781.60	225.04
781.92	225.02
782.25	225.00
782.57	224.98
782.89	224.95
783.22	224.92
783.54	224.88
783.86	224.87
784.19	224.85
784.51	224.86
784.83	224.82
785.16	224.81
785.48	224.79
785.80	224.77
786.12	224.77
786.45	224.75
786.77	224.74
787.09	224.72
787.42	224.66
787.74	224.65
788.06	224.64
788.38	224.61
788.71	224.59
789.03	224.58
789.35	224.57
789.67	224.54
789.99	224.54
790.32	224.51
790.64	224.50
790.96	224.58
791.28	224.53
791.61	224.51
791.93	224.50
792.25	224.48
792.57	224.54
792.89	224.51
793.21	224.50
793.54	224.48
793.86	224.45
794.18	224.45
794.50	224.41
794.82	224.39
795.14	224.40
795.47	224.40
795.79	224.39
796.11	224.35
796.43	224.34
796.75	224.32
797.07	224.32
797.39	224.30
797.71	224.21
798.04	224.20
798.36	224.19
798.68	224.18
799.00	224.17
799.32	224.11
799.64	224.12
799.96	224.10
800.28	224.11
800.60	224.09
800.92	224.09
801.24	224.07
801.56	224.07
801.89	224.05
802.21	224.04
802.53	224.01
802.85	224.03
803.17	224.07
803.49	224.04
803.81	224.02
804.13	224.00
804.45	223.97
804.77	223.97
805.09	223.96
805.41	223.94
805.73	223.92
806.05	223.88
806.37	223.86
806.69	223.84
807.01	223.82
807.33	223.82
807.65	223.77
807.97	223.81
808.28	223.79
808.60	223.78
808.92	223.76
809.24	223.81
809.56	223.78
809.88	223.74
810.20	223.74
810.52	223.75
810.84	223.73
811.16	223.71
811.48	223.69
811.80	223.73
812.12	223.72
812.43	223.73
812.75	223.73
813.07	223.71
813.39	223.71
813.71	223.69
814.03	223.67
814.35	223.67
814.67	223.62
814.98	223.61
815.30	223.61
815.62	223.59
815.94	223.52
816.26	223.53
816.58	223.50
816.89	223.50
817.21	223.48
817.53	223.48
817.85	223.48
818.17	223.47
818.48	223.42
818.80	223.44
819.12	223.41
819.44	223.40
819.76	223.38
820.07	223.38
820.39	223.37
820.71	223.37
821.03	223.37
821.34	223.36
821.66	223.37
821.98	223.37
822.30	223.36
822.61	223.42
822.93	223.40
823.25	223.39
823.57	223.37
823.88	223.38
824.20	223.37
824.52	223.39
824.83	223.38
825.15	223.37
825.47	223.36
825.79	223.36
826.10	223.35
826.42	223.35
826.74	223.35
827.05	223.35
827.37	223.35
827.69	223.34
828.00	223.34
828.32	223.33
828.64	223.31
828.95	223.37
829.27	223.33
829.58	223.33
829.90	223.34
830.22	223.35
830.53	223.33
830.85	223.32
831.17	223.29
831.48	223.29
831.80	223.29
832.11	223.28
832.43	223.26
832.75	223.26
833.06	223.32
833.38	223.28
833.69	223.28
834.01	223.28
834.32	223.28
834.64	223.26
834.96	223.26
835.27	223.26
835.59	223.22
835.90	223.20
836.22	223.20
836.53	223.18
836.85	223.16
837.16	223.26
837.48	223.27
837.79	223.30
838.11	223.30
838.42	223.30
838.74	223.31
839.05	223.30
839.37	223.29
839.68	223.23
840.00	223.23
840.31	223.24
840.63	223.22
840.94	223.21
841.26	223.20
841.57	223.19
841.88	223.20
842.20	223.18
842.51	223.16
842.83	223.16
843.14	223.25
843.46	223.25
843.77	223.19
844.08	223.18
844.40	223.14
844.71	223.13
845.03	223.12
845.34	223.10
845.65	223.10
845.97	223.10
846.28	223.11
846.60	223.11
846.91	223.09
847.22	223.08
847.54	223.10
847.85	223.11
848.16	223.09
848.48	223.07
848.79	223.11
849.10	223.13
849.42	223.13
849.73	223.03
850.04	223.03
850.36	222.99
850.67	223.01
850.98	223.01
851.30	223.02
851.61	223.01
851.92	223.01
852.23	223.03
852.55	223.04
852.86	223.04
853.17	223.05
853.49	223.07
853.80	223.09
854.11	223.09
854.42	223.10
854.74	223.09
855.05	223.10
855.36	223.05
855.67	223.04
855.99	223.04
856.30	223.16
856.61	223.16
856.92	223.16
857.23	223.16
857.55	223.15
857.86	223.14
858.17	223.16
858.48	223.14
858.79	223.12
859.11	223.13
859.42	223.12
859.73	223.10
860.04	223.10
860.35	223.07
860.66	223.03
860.98	223.03
861.29	223.04
861.60	223.03
861.91	223.05
862.22	223.03
862.53	223.02
862.84	222.89
863.16	222.91
863.47	222.90
863.78	222.88
864.09	222.89
864.40	222.90
864.71	222.89
865.02	222.91
865.33	222.89
865.64	222.87
865.95	222.87
866.27	222.94
866.58	222.92
866.89	222.94
867.20	222.93
867.51	222.92
867.82	222.91
868.13	222.94
868.44	222.93
868.75	222.94
869.06	222.95
869.37	222.96
869.68	222.93
869.99	222.95
870.30	222.96
870.61	222.97
870.92	222.95
871.23	222.94
871.54	222.95
871.85	222.98
872.16	223.00
872.47	222.99
872.78	222.93
873.09	222.94
873.40	222.93
873.71	222.94
874.02	222.95
874.33	222.93
874.64	222.91
874.95	222.93
875.26	222.90
875.56	222.90
875.87	222.90
876.18	222.89
876.49	222.99
876.80	222.98
877.11	222.96
877.42	222.96
877.73	222.97
878.04	222.95
878.35	222.95
878.66	222.94
878.96	222.94
879.27	222.94
879.58	222.93
879.89	222.93
880.20	222.95
880.51	222.95
880.82	222.96
881.12	222.96
881.43	222.94
881.74	222.93
882.05	222.92
882.36	222.93
882.67	222.94
882.97	222.82
883.28	222.82
883.59	222.81
883.90	222.82
884.21	222.84
884.51	222.83
884.82	222.82
885.13	222.81
885.44	222.81
885.74	222.81
886.05	222.80
886.36	222.80
886.67	222.76
886.98	222.81
887.28	222.81
887.59	222.81
887.90	222.82
888.20	222.82
888.51	222.84
888.82	222.82
889.13	222.83
889.43	222.92
889.74	222.91
890.05	222.91
890.35	222.90
890.66	222.87
890.97	222.86
891.28	222.86
891.58	222.86
891.89	222.86
892.20	222.85
892.50	222.84
892.81	222.84
893.12	222.83
893.42	222.78
893.73	222.78
894.04	222.77
894.34	222.78
894.65	222.78
894.95	222.77
895.26	222.77
895.57	222.81
895.87	222.71
896.18	222.73
896.48	222.73
896.79	222.73
897.10	222.74
897.40	222.75
897.71	222.76
898.01	222.75
898.32	222.76
898.63	222.76
898.93	222.77
899.24	222.77
899.54	222.76
899.85	222.76
900.15	222.75
900.46	222.75
900.76	222.76
901.07	222.76
901.38	222.75
901.68	222.76
901.99	222.70
902.29	222.71
902.60	222.69
902.90	222.69
903.21	222.69
903.51	222.68
903.82	222.70
904.12	222.69
904.43	222.70
904.73	222.69
905.03	222.70
905.34	222.79
905.64	222.79
905.95	222.79
906.25	222.79
906.56	222.79
906.86	222.78
907.17	222.77
907.47	222.78
907.77	222.77
908.08	222.75
908.38	222.76
908.69	222.76
908.99	222.79
909.30	222.79
909.60	222.79
909.90	222.79
910.21	222.76
910.51	222.75
910.81	222.75
911.12	222.75
911.42	222.76
911.73	222.65
912.03	222.66
912.33	222.68
912.64	222.67
912.94	222.66
913.24	222.64
913.55	222.64
913.85	222.63
914.15	222.65
914.46	222.66
914.76	222.65
915.06	222.64
915.37	222.62
915.67	222.61
915.97	222.61
916.27	222.59
916.58	222.59
916.88	222.59
917.18	222.58
917.49	222.65
917.79	222.64
918.09	222.66
918.39	222.68
918.70	222.66
919.00	222.67
919.30	222.72
919.60	222.72
919.91	222.71
920.21	222.71
920.51	222.69
920.81	222.68
921.12	222.70
921.42	222.70
921.72	222.71
922.02	222.71
922.32	222.73
922.63	222.73
922.93	222.79
923.23	222.79
923.53	222.78
923.83	222.71
924.13	222.72
924.44	222.72
924.74	222.73
925.04	222.76
925.34	222.75
925.64	222.71
925.94	222.71
926.24	222.77
926.55	222.76
926.85	222.77
927.15	222.77
927.45	222.76
927.75	222.76
928.05	222.76
928.35	222.76
928.65	222.77
928.95	222.78
929.26	222.73
929.56	222.75
929.86	222.76
930.16	222.76
930.46	222.75
930.76	222.75
931.06	222.70
931.36	222.67
931.66	222.69
931.96	222.70
932.26	222.71
932.56	222.66
932.86	222.67
933.16	222.67
933.46	222.66
933.76	222.64
934.06	222.66
934.36	222.70
934.66	222.70
934.96	222.68
935.26	222.68
935.56	222.70
935.86	222.67
936.16	222.65
936.46	222.65
936.76	222.64
937.06	222.63
937.36	222.64
937.66	222.65
937.96	222.64
938.26	222.62
938.56	222.61
938.86	222.62
939.16	222.64
939.46	222.64
939.76	222.65
940.06	222.65
940.35	222.63
940.65	222.58
940.95	222.59
941.25	222.57
941.55	222.55
941.85	222.54
942.15	222.57
942.45	222.59
942.75	222.59
943.04	222.60
943.34	222.62
943.64	222.61
943.94	222.59
944.24	222.59
944.54	222.60
944.84	222.60
945.13	222.58
945.43	222.56
945.73	222.56
946.03	222.56
946.33	222.55
946.62	222.54
946.92	222.53
947.22	222.54
947.52	222.55
947.82	222.56
948.11	222.55
948.41	222.53
948.71	222.49
949.01	222.50
949.31	222.50
949.60	222.49
949.90	222.50
950.20	222.50
950.50	222.50
950.79	222.49
951.09	222.51
951.39	222.51
951.69	222.50
951.98	222.51
952.28	222.52
952.58	222.52
952.87	222.52
953.17	222.53
953.47	222.52
953.76	222.51
954.06	222.49
954.36	222.48
954.66	222.48
954.95	222.51
955.25	222.51
955.55	222.52
955.84	222.50
956.14	222.51
956.44	222.52
956.73	222.50
957.03	222.51
957.32	222.51
957.62	222.50
957.92	222.52
958.21	222.51
958.51	222.63
958.81	222.65
959.10	222.66
959.40	222.68
959.69	222.69
959.99	222.71
960.29	222.71
960.58	222.70
960.88	222.74
961.17	222.73
961.47	222.73
961.76	222.72
962.06	222.74
962.36	222.72
962.65	222.72
962.95	222.72
963.24	222.71
963.54	222.72
963.83	222.72
964.13	222.72
964.42	222.70
964.72	222.61
965.01	222.61
965.31	222.60
965.60	222.57
965.90	222.64
966.19	222.61
966.49	222.62
966.78	222.61
967.08	222.60
967.37	222.60
967.67	222.58
967.96	222.60
968.26	222.60
968.55	222.62
968.85	222.61
969.14	222.61
969.43	222.61
969.73	222.60
970.02	222.59
970.32	222.59
970.61	222.57
970.91	222.54
971.20	222.53
971.49	222.52
971.79	222.53
972.08	222.46
972.38	222.47
972.67	222.46
972.96	222.48
973.26	222.46
973.55	222.49
973.85	222.48
974.14	222.47
974.43	222.48
974.73	222.45
975.02	222.45
975.31	222.45
975.61	222.45
975.90	222.44
976.19	222.43
976.49	222.44
976.78	222.44
977.07	222.44
977.37	222.45
977.66	222.46
977.95	222.45
978.24	222.46
978.54	222.48
978.83	222.47
979.12	222.46
979.42	222.46
979.71	222.44
980.00	222.44
980.29	222.45
980.59	222.43
980.88	222.46
981.17	222.45
981.46	222.45
981.76	222.45
982.05	222.48
982.34	222.49
982.63	222.49
982.93	222.49
983.22	222.52
983.51	222.52
983.80	222.53
984.09	222.55
984.39	222.54
984.68	222.52
984.97	222.52
985.26	222.52
985.55	222.53
985.85	222.51
986.14	222.52
986.43	222.54
986.72	222.53
987.01	222.50
987.30	222.50
987.59	222.50
987.89	222.50
988.18	222.47
988.47	222.46
988.76	222.45
989.05	222.44
989.34	222.43
989.63	222.45
989.92	222.44
990.22	222.42
990.51	222.42
990.80	222.41
991.09	222.42
991.38	222.44
991.67	222.43
991.96	222.42
992.25	222.42
992.54	222.39
992.83	222.40
993.12	222.39
993.41	222.41
993.70	222.45
993.99	222.47
994.28	222.49
994.58	222.51
994.87	222.50
995.16	222.50
995.45	222.49
995.74	222.45
996.03	222.47
996.32	222.49
996.61	222.50
996.90	222.50
997.19	222.50
997.48	222.50
997.77	222.49
998.06	222.50
998.34	222.49
998.63	222.49
998.92	222.49
999.21	222.51
999.50	222.51
999.79	222.47
1000.08	222.46
1000.37	222.46
1000.66	222.45
1000.95	222.48
1001.24	222.49
1001.53	222.50
1001.82	222.50
1002.11	222.47
1002.40	222.48
1002.68	222.50
1002.97	222.57
1003.26	222.57
1003.55	222.55
1003.84	222.56
1004.13	222.60
1004.42	222.59
1004.71	222.59
1004.99	222.58
1005.28	222.61
1005.57	222.60
1005.86	222.59
1006.15	222.58
1006.44	222.56
1006.72	222.58
1007.01	222.56
1007.30	222.56
1007.59	222.55
1007.88	222.55
1008.17	222.56
1008.45	222.54
1008.74	222.49
1009.03	222.44
1009.32	222.44
1009.60	222.45
1009.89	222.44
1010.18	222.39
1010.47	222.39
1010.76	222.39
1011.04	222.39
1011.33	222.38
1011.62	222.39
1011.91	222.40
1012.19	222.40
1012.48	222.41
1012.77	222.40
1013.05	222.43
1013.34	222.44
1013.63	222.43
1013.92	222.44
1014.20	222.43
1014.49	222.44
1014.78	222.45
1015.06	222.42
1015.35	222.43
1015.64	222.44
1015.92	222.46
1016.21	222.46
1016.50	222.47
1016.78	222.48
1017.07	222.49
1017.36	222.47
1017.64	222.45
1017.93	222.47
1018.22	222.46
1018.50	222.45
1018.79	222.45
1019.08	222.41
1019.36	222.41
1019.65	222.41
1019.93	222.43
1020.22	222.44
1020.51	222.50
1020.79	222.48
1021.08	222.30
1021.36	222.29
1021.65	222.43
1021.94	222.32
1022.22	222.45
1022.51	222.25
1022.79	222.94
1023.08	222.54
1023.36	223.65
1023.65	222.12
>>>>>End Processed Spectral Data<<<<<
