SpectraSuite Data File
++++++++++++++++++++++++++++++++++++
Date: Wed Sep 30 18:26:39 EDT 2015
User: lab3
Dark Spectrum Present: No
Reference Spectrum Present: No
Number of Sampled Component Spectra: 1
Spectrometers: USB2E7196
Integration Time (usec): 36000 (USB2E7196)
Spectra Averaged: 3000 (USB2E7196)
Boxcar Smoothing: 10 (USB2E7196)
Correct for Electrical Dark: No (USB2E7196)
Strobe/Lamp Enabled: No (USB2E7196)
Correct for Detector Non-linearity: No (USB2E7196)
Correct for Stray Light: No (USB2E7196)
Number of Pixels in Processed Spectrum: 2048
>>>>>Begin Processed Spectral Data<<<<<
339.09	0.00
339.48	210.60
339.86	212.10
340.24	213.46
340.63	214.80
341.01	217.78
341.39	217.55
341.78	219.04
342.16	220.13
342.54	220.54
342.93	209.16
343.31	219.73
343.69	220.27
344.07	220.73
344.46	221.15
344.84	221.55
345.22	221.78
345.60	222.04
345.99	222.23
346.37	222.36
346.75	222.48
347.13	222.55
347.52	222.62
347.90	222.72
348.28	222.75
348.66	222.80
349.05	222.81
349.43	222.86
349.81	222.92
350.19	222.98
350.57	223.05
350.96	223.13
351.34	223.22
351.72	223.32
352.10	223.42
352.48	223.50
352.87	223.55
353.25	223.62
353.63	223.68
354.01	223.74
354.39	223.82
354.77	223.89
355.15	224.00
355.54	224.05
355.92	224.08
356.30	224.16
356.68	224.30
357.06	224.37
357.44	224.42
357.82	224.48
358.20	224.59
358.58	224.65
358.97	224.71
359.35	224.80
359.73	224.88
360.11	224.93
360.49	224.99
360.87	225.04
361.25	225.10
361.63	225.17
362.01	225.23
362.39	225.27
362.77	225.31
363.15	225.34
363.53	225.37
363.91	225.39
364.29	225.42
364.67	225.34
365.05	225.37
365.43	225.40
365.81	225.43
366.19	225.45
366.57	225.51
366.95	225.51
367.33	225.48
367.71	225.47
368.09	225.49
368.47	225.48
368.85	225.47
369.23	225.48
369.61	225.43
369.99	225.44
370.37	225.44
370.75	225.49
371.13	225.46
371.51	225.42
371.89	225.40
372.27	225.38
372.65	225.36
373.03	225.31
373.41	225.26
373.78	225.21
374.16	225.11
374.54	225.03
374.92	224.99
375.30	224.95
375.68	224.88
376.06	224.84
376.44	224.78
376.82	224.74
377.19	224.69
377.57	224.64
377.95	224.56
378.33	224.49
378.71	224.35
379.09	224.30
379.47	224.27
379.84	224.21
380.22	224.14
380.60	224.07
380.98	224.03
381.36	223.98
381.73	223.91
382.11	223.89
382.49	223.85
382.87	223.79
383.25	223.74
383.62	223.81
384.00	223.74
384.38	223.70
384.76	223.67
385.13	223.65
385.51	223.61
385.89	223.56
386.27	223.52
386.64	223.50
387.02	223.45
387.40	223.40
387.78	223.37
388.15	223.34
388.53	223.31
388.91	223.27
389.29	223.23
389.66	223.23
390.04	223.18
390.42	223.17
390.79	223.16
391.17	223.13
391.55	223.00
391.92	222.99
392.30	222.99
392.68	222.95
393.05	222.93
393.43	222.93
393.81	222.93
394.18	222.91
394.56	222.92
394.94	222.95
395.31	222.95
395.69	222.99
396.06	223.02
396.44	223.04
396.82	223.05
397.19	223.12
397.57	223.13
397.95	223.17
398.32	223.17
398.70	223.21
399.07	223.27
399.45	223.30
399.82	223.34
400.20	223.37
400.58	223.44
400.95	223.45
401.33	223.53
401.70	223.67
402.08	223.75
402.45	223.83
402.83	223.93
403.20	224.03
403.58	224.11
403.95	224.23
404.33	224.36
404.71	224.48
405.08	224.66
405.46	224.81
405.83	224.97
406.21	225.13
406.58	225.33
406.96	225.50
407.33	225.71
407.70	225.95
408.08	226.27
408.45	226.55
408.83	226.85
409.20	227.13
409.58	227.37
409.95	227.71
410.33	228.08
410.70	228.42
411.08	228.83
411.45	229.26
411.82	229.69
412.20	230.18
412.57	230.78
412.95	231.24
413.32	231.84
413.69	232.46
414.07	233.12
414.44	233.82
414.82	234.55
415.19	235.41
415.56	236.28
415.94	237.17
416.31	238.18
416.68	239.19
417.06	240.35
417.43	241.46
417.81	242.72
418.18	244.01
418.55	245.42
418.93	246.88
419.30	248.41
419.67	250.03
420.04	251.70
420.42	253.44
420.79	255.47
421.16	257.51
421.54	259.59
421.91	261.75
422.28	264.02
422.66	266.46
423.03	268.77
423.40	271.20
423.77	273.81
424.15	276.49
424.52	279.27
424.89	282.28
425.26	285.28
425.64	288.05
426.01	291.18
426.38	294.38
426.75	297.67
427.13	301.05
427.50	304.60
427.87	308.27
428.24	311.98
428.61	315.53
428.99	319.35
429.36	323.54
429.73	327.56
430.10	331.55
430.47	335.64
430.85	339.85
431.22	344.31
431.59	348.91
431.96	353.38
432.33	358.34
432.70	363.05
433.08	368.61
433.45	373.87
433.82	379.02
434.19	384.78
434.56	390.45
434.93	395.91
435.30	401.30
435.68	407.38
436.05	413.31
436.42	419.25
436.79	424.67
437.16	430.50
437.53	436.76
437.90	443.00
438.27	449.09
438.64	455.70
439.01	461.70
439.38	467.17
439.75	472.44
440.13	478.45
440.50	484.15
440.87	488.65
441.24	493.59
441.61	499.06
441.98	503.08
442.35	507.85
442.72	512.74
443.09	517.42
443.46	520.44
443.83	522.67
444.20	524.56
444.57	527.32
444.94	528.97
445.31	530.67
445.68	532.19
446.05	533.34
446.42	533.22
446.79	532.98
447.16	532.78
447.53	532.66
447.90	530.93
448.27	529.33
448.64	526.76
449.01	525.09
449.37	521.36
449.74	517.96
450.11	513.57
450.48	508.74
450.85	503.88
451.22	499.76
451.59	495.73
451.96	492.07
452.33	486.68
452.70	481.89
453.07	476.04
453.43	470.17
453.80	464.50
454.17	459.04
454.54	453.99
454.91	448.28
455.28	442.89
455.65	437.80
456.02	432.39
456.38	428.02
456.75	422.37
457.12	417.83
457.49	413.25
457.86	408.87
458.23	405.04
458.59	400.82
458.96	396.46
459.33	392.61
459.70	388.71
460.07	385.73
460.43	382.21
460.80	378.91
461.17	376.01
461.54	372.89
461.91	369.96
462.27	366.98
462.64	364.54
463.01	361.74
463.38	358.92
463.74	356.35
464.11	354.07
464.48	352.01
464.85	349.79
465.21	348.10
465.58	346.23
465.95	344.07
466.32	342.34
466.68	340.65
467.05	338.96
467.42	337.32
467.78	335.55
468.15	333.91
468.52	332.69
468.88	331.10
469.25	329.63
469.62	328.47
469.98	327.22
470.35	326.10
470.72	325.09
471.08	324.06
471.45	323.21
471.82	322.27
472.18	321.30
472.55	320.67
472.92	319.89
473.28	319.27
473.65	318.64
474.02	318.04
474.38	317.55
474.75	317.26
475.11	316.84
475.48	316.68
475.85	316.52
476.21	316.45
476.58	316.45
476.94	316.62
477.31	316.72
477.67	316.86
478.04	317.10
478.41	317.41
478.77	317.85
479.14	318.17
479.50	318.71
479.87	319.38
480.23	320.05
480.60	320.68
480.96	321.36
481.33	322.29
481.69	323.22
482.06	324.14
482.42	325.02
482.79	326.08
483.15	327.29
483.52	328.64
483.88	329.94
484.25	331.33
484.61	332.77
484.98	334.35
485.34	336.09
485.71	337.90
486.07	339.85
486.44	341.78
486.80	343.92
487.17	346.11
487.53	348.51
487.90	351.01
488.26	353.73
488.62	356.59
488.99	359.46
489.35	362.46
489.72	365.68
490.08	369.08
490.44	372.57
490.81	376.22
491.17	379.97
491.54	383.96
491.90	388.07
492.26	392.48
492.63	397.12
492.99	401.96
493.36	406.93
493.72	412.15
494.08	417.50
494.45	423.17
494.81	429.03
495.17	435.00
495.54	441.34
495.90	447.97
496.26	454.75
496.63	461.75
496.99	469.05
497.35	476.70
497.72	484.64
498.08	492.76
498.44	501.10
498.80	509.98
499.17	519.11
499.53	528.55
499.89	538.23
500.26	548.09
500.62	558.21
500.98	569.00
501.34	579.92
501.71	591.37
502.07	603.02
502.43	615.11
502.79	627.54
503.16	640.35
503.52	653.35
503.88	666.67
504.24	680.45
504.60	694.51
504.97	708.92
505.33	723.75
505.69	739.45
506.05	755.37
506.41	771.33
506.78	787.59
507.14	804.34
507.50	821.66
507.86	839.35
508.22	857.30
508.59	875.28
508.95	894.00
509.31	913.16
509.67	933.01
510.03	953.08
510.39	973.36
510.75	993.86
511.12	1014.63
511.48	1035.79
511.84	1057.07
512.20	1078.64
512.56	1101.36
512.92	1124.28
513.28	1146.91
513.64	1169.85
514.00	1193.23
514.37	1216.92
514.73	1240.60
515.09	1264.17
515.45	1288.15
515.81	1312.69
516.17	1337.32
516.53	1361.62
516.89	1386.05
517.25	1410.64
517.61	1435.40
517.97	1460.41
518.33	1485.26
518.69	1510.31
519.05	1535.63
519.41	1561.07
519.77	1586.80
520.13	1611.77
520.49	1636.89
520.85	1662.25
521.21	1687.52
521.57	1713.37
521.93	1738.56
522.29	1764.59
522.65	1790.35
523.01	1815.93
523.37	1840.79
523.73	1866.32
524.09	1892.09
524.45	1917.74
524.81	1942.93
525.17	1968.00
525.53	1992.69
525.89	2017.30
526.25	2042.11
526.61	2066.37
526.97	2090.93
527.33	2115.47
527.68	2139.85
528.04	2163.46
528.40	2186.93
528.76	2210.59
529.12	2233.21
529.48	2256.31
529.84	2277.56
530.20	2299.36
530.56	2320.85
530.91	2342.44
531.27	2363.49
531.63	2383.93
531.99	2403.83
532.35	2423.53
532.71	2443.42
533.07	2463.85
533.42	2482.76
533.78	2502.08
534.14	2521.33
534.50	2539.76
534.86	2558.75
535.21	2575.98
535.57	2593.17
535.93	2609.50
536.29	2624.65
536.65	2640.55
537.00	2655.35
537.36	2670.82
537.72	2685.19
538.08	2699.37
538.44	2712.40
538.79	2725.63
539.15	2737.09
539.51	2748.41
539.87	2759.20
540.22	2767.84
540.58	2776.70
540.94	2786.14
541.29	2794.02
541.65	2801.01
542.01	2807.48
542.37	2812.07
542.72	2818.51
543.08	2824.34
543.44	2830.17
543.79	2835.25
544.15	2839.60
544.51	2843.72
544.87	2846.92
545.22	2849.74
545.58	2851.42
545.94	2853.63
546.29	2854.38
546.65	2855.30
547.01	2856.31
547.36	2857.55
547.72	2859.07
548.07	2858.91
548.43	2858.15
548.79	2856.75
549.14	2855.30
549.50	2854.41
549.86	2852.71
550.21	2848.59
550.57	2845.02
550.92	2839.90
551.28	2835.42
551.64	2830.70
551.99	2826.45
552.35	2821.78
552.70	2816.67
553.06	2812.22
553.41	2807.16
553.77	2801.53
554.13	2796.63
554.48	2790.82
554.84	2783.38
555.19	2775.95
555.55	2767.88
555.90	2760.36
556.26	2753.96
556.61	2746.98
556.97	2737.77
557.32	2729.57
557.68	2721.64
558.03	2712.98
558.39	2705.16
558.74	2697.49
559.10	2688.65
559.45	2679.49
559.81	2670.38
560.16	2660.73
560.52	2650.64
560.87	2641.58
561.23	2632.19
561.58	2622.32
561.94	2612.26
562.29	2601.58
562.64	2591.47
563.00	2581.82
563.35	2572.04
563.71	2561.18
564.06	2549.83
564.42	2539.53
564.77	2528.82
565.12	2518.16
565.48	2507.18
565.83	2496.84
566.19	2486.56
566.54	2475.80
566.89	2464.09
567.25	2452.59
567.60	2441.89
567.96	2430.75
568.31	2418.32
568.66	2405.74
569.02	2394.16
569.37	2382.38
569.72	2371.22
570.08	2359.20
570.43	2346.60
570.78	2333.67
571.14	2320.70
571.49	2308.44
571.84	2296.43
572.20	2282.96
572.55	2270.07
572.90	2257.08
573.26	2243.28
573.61	2228.84
573.96	2214.62
574.31	2200.74
574.67	2187.10
575.02	2172.89
575.37	2158.31
575.72	2144.04
576.08	2130.28
576.43	2115.45
576.78	2100.55
577.13	2086.43
577.49	2072.58
577.84	2059.13
578.19	2044.86
578.54	2030.11
578.90	2014.80
579.25	1999.23
579.60	1985.24
579.95	1970.80
580.30	1956.41
580.66	1942.21
581.01	1927.46
581.36	1913.28
581.71	1899.71
582.06	1885.55
582.42	1871.52
582.77	1858.26
583.12	1844.50
583.47	1830.83
583.82	1817.28
584.17	1803.61
584.53	1789.85
584.88	1776.01
585.23	1761.86
585.58	1748.22
585.93	1734.93
586.28	1722.51
586.63	1709.92
586.98	1696.49
587.34	1683.37
587.69	1669.73
588.04	1656.29
588.39	1643.60
588.74	1630.29
589.09	1616.73
589.44	1603.22
589.79	1590.27
590.14	1577.11
590.49	1564.21
590.84	1551.18
591.19	1538.77
591.54	1525.93
591.89	1512.89
592.25	1500.17
592.60	1487.04
592.95	1474.42
593.30	1462.19
593.65	1449.79
594.00	1437.55
594.35	1426.15
594.70	1413.80
595.05	1402.46
595.40	1391.05
595.75	1379.03
596.10	1367.82
596.45	1356.90
596.80	1346.36
597.15	1335.58
597.50	1324.81
597.85	1314.24
598.19	1303.90
598.54	1293.02
598.89	1282.81
599.24	1272.90
599.59	1262.76
599.94	1253.62
600.29	1244.40
600.64	1234.96
600.99	1224.89
601.34	1215.32
601.69	1205.14
602.04	1196.15
602.39	1187.03
602.74	1178.18
603.08	1169.59
603.43	1160.46
603.78	1151.12
604.13	1141.94
604.48	1132.70
604.83	1123.76
605.18	1114.70
605.53	1105.56
605.87	1096.51
606.22	1087.77
606.57	1078.74
606.92	1069.74
607.27	1060.67
607.62	1051.67
607.96	1042.86
608.31	1035.12
608.66	1026.95
609.01	1019.18
609.36	1011.29
609.70	1003.19
610.05	994.92
610.40	987.01
610.75	979.23
611.10	971.71
611.44	963.80
611.79	956.24
612.14	948.26
612.49	940.42
612.83	933.10
613.18	925.85
613.53	918.44
613.88	911.10
614.22	904.43
614.57	897.50
614.92	890.56
615.27	883.67
615.61	876.55
615.96	869.70
616.31	862.78
616.65	855.79
617.00	849.03
617.35	842.35
617.70	835.72
618.04	829.20
618.39	822.69
618.74	816.53
619.08	810.14
619.43	804.07
619.78	798.02
620.12	791.74
620.47	785.68
620.82	779.62
621.16	773.92
621.51	767.85
621.85	761.80
622.20	755.79
622.55	749.93
622.89	744.04
623.24	738.16
623.59	732.41
623.93	726.70
624.28	721.15
624.62	715.60
624.97	709.99
625.32	704.50
625.66	698.91
626.01	693.30
626.35	687.85
626.70	682.43
627.04	677.18
627.39	672.03
627.73	666.94
628.08	662.11
628.43	657.13
628.77	652.21
629.12	647.41
629.46	642.83
629.81	638.09
630.15	633.25
630.50	628.56
630.84	624.03
631.19	619.68
631.53	615.37
631.88	610.96
632.22	606.67
632.57	602.60
632.91	598.48
633.26	594.43
633.60	590.49
633.95	586.67
634.29	582.68
634.64	578.63
634.98	574.51
635.32	570.54
635.67	566.74
636.01	562.91
636.36	559.09
636.70	555.41
637.05	551.71
637.39	548.20
637.73	544.57
638.08	541.02
638.42	537.45
638.77	533.73
639.11	530.00
639.45	526.29
639.80	522.59
640.14	519.08
640.49	515.53
640.83	511.86
641.17	508.24
641.52	504.79
641.86	501.36
642.20	498.08
642.55	494.66
642.89	491.30
643.23	488.15
643.58	485.27
643.92	482.24
644.26	479.25
644.61	476.24
644.95	473.24
645.29	470.18
645.64	467.08
645.98	464.14
646.32	461.37
646.66	458.62
647.01	455.83
647.35	453.10
647.69	450.26
648.04	447.54
648.38	444.86
648.72	442.14
649.06	439.48
649.41	436.88
649.75	434.27
650.09	431.69
650.43	429.10
650.78	426.48
651.12	423.87
651.46	421.35
651.80	418.93
652.14	416.60
652.49	414.27
652.83	412.02
653.17	409.74
653.51	407.54
653.85	405.41
654.20	403.21
654.54	400.93
654.88	398.82
655.22	396.80
655.56	394.73
655.90	392.77
656.25	390.82
656.59	388.86
656.93	387.00
657.27	385.18
657.61	383.27
657.95	381.44
658.29	379.58
658.64	377.76
658.98	375.92
659.32	374.10
659.66	372.40
660.00	370.71
660.34	369.05
660.68	367.31
661.02	365.52
661.36	363.86
661.70	362.27
662.05	360.67
662.39	359.04
662.73	357.51
663.07	355.99
663.41	354.50
663.75	353.05
664.09	351.60
664.43	350.06
664.77	348.62
665.11	347.13
665.45	345.72
665.79	344.30
666.13	342.88
666.47	341.45
666.81	339.99
667.15	338.51
667.49	337.11
667.83	335.78
668.17	334.48
668.51	333.20
668.85	331.93
669.19	330.74
669.53	329.48
669.87	328.19
670.21	326.94
670.55	325.69
670.89	324.52
671.23	323.31
671.57	322.11
671.91	320.97
672.25	319.89
672.58	318.82
672.92	317.72
673.26	316.69
673.60	315.67
673.94	314.64
674.28	313.66
674.62	312.68
674.96	311.66
675.30	310.70
675.64	309.73
675.97	308.77
676.31	307.78
676.65	306.82
676.99	305.92
677.33	304.96
677.67	304.06
678.01	303.06
678.34	302.15
678.68	301.30
679.02	300.41
679.36	299.52
679.70	298.64
680.04	297.79
680.37	296.92
680.71	296.08
681.05	295.29
681.39	294.47
681.73	293.61
682.06	292.80
682.40	291.99
682.74	291.21
683.08	290.45
683.42	289.68
683.75	288.97
684.09	288.18
684.43	287.46
684.77	286.71
685.10	286.03
685.44	285.32
685.78	284.60
686.12	283.92
686.45	283.23
686.79	282.54
687.13	281.87
687.46	281.17
687.80	280.50
688.14	279.80
688.48	279.14
688.81	278.50
689.15	277.89
689.49	277.25
689.82	276.62
690.16	275.94
690.50	275.31
690.83	274.68
691.17	274.08
691.51	273.48
691.84	272.91
692.18	272.30
692.52	271.69
692.85	271.08
693.19	270.53
693.52	269.97
693.86	269.41
694.20	268.85
694.53	268.32
694.87	267.77
695.21	267.25
695.54	266.72
695.88	266.18
696.21	265.61
696.55	265.08
696.88	264.56
697.22	264.06
697.56	263.58
697.89	263.03
698.23	262.51
698.56	261.98
698.90	261.50
699.23	260.99
699.57	260.54
699.90	260.07
700.24	259.57
700.58	259.12
700.91	258.69
701.25	258.33
701.58	257.94
701.92	257.54
702.25	257.12
702.59	256.68
702.92	256.27
703.26	255.87
703.59	255.46
703.93	255.13
704.26	254.74
704.60	254.35
704.93	253.97
705.26	253.60
705.60	253.26
705.93	252.86
706.27	252.54
706.60	252.21
706.94	251.88
707.27	251.49
707.61	251.12
707.94	250.75
708.27	250.31
708.61	249.92
708.94	249.56
709.28	249.21
709.61	248.88
709.94	248.57
710.28	248.27
710.61	247.99
710.95	247.60
711.28	247.37
711.61	247.07
711.95	246.80
712.28	246.50
712.61	246.19
712.95	245.97
713.28	245.74
713.61	245.44
713.95	245.14
714.28	244.89
714.61	244.62
714.95	244.36
715.28	244.10
715.61	243.84
715.95	243.60
716.28	243.35
716.61	243.13
716.95	242.88
717.28	242.64
717.61	242.40
717.94	242.17
718.28	241.87
718.61	241.65
718.94	241.40
719.27	241.18
719.61	240.99
719.94	240.75
720.27	240.47
720.60	240.27
720.94	240.07
721.27	239.87
721.60	239.70
721.93	239.51
722.27	239.35
722.60	239.18
722.93	238.97
723.26	238.80
723.59	238.59
723.93	238.42
724.26	238.24
724.59	238.06
724.92	237.90
725.25	237.76
725.59	237.59
725.92	237.46
726.25	237.30
726.58	237.13
726.91	236.96
727.24	236.82
727.57	236.66
727.91	236.48
728.24	236.35
728.57	236.18
728.90	236.04
729.23	235.86
729.56	235.76
729.89	235.61
730.22	235.46
730.55	235.32
730.89	235.17
731.22	235.02
731.55	234.88
731.88	234.74
732.21	234.59
732.54	234.45
732.87	234.31
733.20	234.19
733.53	234.07
733.86	233.97
734.19	233.84
734.52	233.74
734.85	233.70
735.18	233.56
735.51	233.48
735.84	233.36
736.17	233.27
736.50	233.10
736.83	233.12
737.16	233.01
737.49	232.92
737.82	232.81
738.15	232.73
738.48	232.64
738.81	232.53
739.14	232.42
739.47	232.31
739.80	232.21
740.13	232.11
740.46	231.99
740.79	231.86
741.12	231.76
741.45	231.64
741.78	231.48
742.11	231.41
742.44	231.29
742.77	231.22
743.10	231.11
743.43	231.02
743.75	230.81
744.08	230.88
744.41	230.79
744.74	230.69
745.07	230.57
745.40	230.49
745.73	230.46
746.06	230.38
746.39	230.33
746.71	230.23
747.04	230.14
747.37	230.07
747.70	230.02
748.03	229.95
748.36	229.89
748.68	229.82
749.01	229.71
749.34	229.64
749.67	229.57
750.00	229.52
750.33	229.53
750.65	229.47
750.98	229.25
751.31	229.18
751.64	229.12
751.97	229.11
752.29	229.03
752.62	228.91
752.95	228.82
753.28	228.73
753.60	228.66
753.93	228.61
754.26	228.56
754.59	228.45
754.91	228.37
755.24	228.29
755.57	228.27
755.90	228.21
756.22	228.13
756.55	228.06
756.88	227.96
757.20	227.83
757.53	227.74
757.86	227.68
758.19	227.63
758.51	227.57
758.84	227.46
759.17	227.40
759.49	227.36
759.82	227.36
760.15	227.32
760.47	227.27
760.80	227.20
761.13	227.16
761.45	227.12
761.78	227.07
762.11	227.03
762.43	226.93
762.76	226.88
763.08	226.85
763.41	226.80
763.74	226.76
764.06	226.71
764.39	226.68
764.71	226.63
765.04	226.58
765.37	226.52
765.69	226.48
766.02	226.44
766.34	226.39
766.67	226.31
767.00	226.28
767.32	226.30
767.65	226.32
767.97	226.27
768.30	226.23
768.62	226.20
768.95	226.15
769.27	226.11
769.60	226.08
769.92	226.03
770.25	225.98
770.57	225.93
770.90	225.90
771.22	225.85
771.55	225.82
771.87	225.79
772.20	225.75
772.52	225.81
772.85	225.90
773.17	225.86
773.50	225.82
773.82	225.77
774.15	225.68
774.47	225.59
774.80	225.55
775.12	225.53
775.45	225.50
775.77	225.48
776.09	225.45
776.42	225.43
776.74	225.44
777.07	225.41
777.39	225.38
777.72	225.34
778.04	225.33
778.36	225.29
778.69	225.27
779.01	225.25
779.33	225.14
779.66	225.00
779.98	224.97
780.31	224.95
780.63	224.96
780.95	224.96
781.28	224.93
781.60	224.90
781.92	224.87
782.25	224.85
782.57	224.83
782.89	224.80
783.22	224.77
783.54	224.72
783.86	224.71
784.19	224.68
784.51	224.70
784.83	224.67
785.16	224.65
785.48	224.64
785.80	224.62
786.12	224.61
786.45	224.59
786.77	224.58
787.09	224.56
787.42	224.51
787.74	224.49
788.06	224.48
788.38	224.46
788.71	224.44
789.03	224.42
789.35	224.42
789.67	224.39
789.99	224.38
790.32	224.35
790.64	224.34
790.96	224.42
791.28	224.37
791.61	224.35
791.93	224.34
792.25	224.32
792.57	224.37
792.89	224.34
793.21	224.33
793.54	224.31
793.86	224.28
794.18	224.28
794.50	224.25
794.82	224.23
795.14	224.23
795.47	224.24
795.79	224.24
796.11	224.20
796.43	224.18
796.75	224.17
797.07	224.17
797.39	224.15
797.71	224.05
798.04	224.04
798.36	224.04
798.68	224.02
799.00	224.02
799.32	223.96
799.64	223.97
799.96	223.96
800.28	223.97
800.60	223.96
800.92	223.95
801.24	223.93
801.56	223.93
801.89	223.91
802.21	223.90
802.53	223.87
802.85	223.89
803.17	223.93
803.49	223.90
803.81	223.89
804.13	223.87
804.45	223.85
804.77	223.85
805.09	223.83
805.41	223.82
805.73	223.79
806.05	223.75
806.37	223.73
806.69	223.71
807.01	223.69
807.33	223.69
807.65	223.65
807.97	223.69
808.28	223.67
808.60	223.66
808.92	223.64
809.24	223.70
809.56	223.66
809.88	223.62
810.20	223.61
810.52	223.63
810.84	223.61
811.16	223.60
811.48	223.58
811.80	223.60
812.12	223.59
812.43	223.61
812.75	223.62
813.07	223.60
813.39	223.60
813.71	223.58
814.03	223.56
814.35	223.57
814.67	223.52
814.98	223.51
815.30	223.50
815.62	223.48
815.94	223.40
816.26	223.41
816.58	223.38
816.89	223.39
817.21	223.35
817.53	223.36
817.85	223.36
818.17	223.36
818.48	223.32
818.80	223.33
819.12	223.30
819.44	223.28
819.76	223.26
820.07	223.25
820.39	223.25
820.71	223.26
821.03	223.24
821.34	223.23
821.66	223.24
821.98	223.25
822.30	223.24
822.61	223.30
822.93	223.28
823.25	223.28
823.57	223.26
823.88	223.27
824.20	223.26
824.52	223.27
824.83	223.26
825.15	223.25
825.47	223.23
825.79	223.24
826.10	223.23
826.42	223.22
826.74	223.23
827.05	223.22
827.37	223.21
827.69	223.20
828.00	223.20
828.32	223.19
828.64	223.17
828.95	223.22
829.27	223.19
829.58	223.19
829.90	223.20
830.22	223.21
830.53	223.19
830.85	223.17
831.17	223.14
831.48	223.13
831.80	223.14
832.11	223.13
832.43	223.10
832.75	223.10
833.06	223.16
833.38	223.12
833.69	223.12
834.01	223.12
834.32	223.12
834.64	223.11
834.96	223.10
835.27	223.10
835.59	223.06
835.90	223.04
836.22	223.03
836.53	223.00
836.85	222.98
837.16	223.08
837.48	223.08
837.79	223.11
838.11	223.11
838.42	223.11
838.74	223.12
839.05	223.12
839.37	223.12
839.68	223.04
840.00	223.05
840.31	223.06
840.63	223.05
840.94	223.04
841.26	223.03
841.57	223.03
841.88	223.03
842.20	223.02
842.51	223.00
842.83	223.00
843.14	223.09
843.46	223.09
843.77	223.03
844.08	223.02
844.40	222.99
844.71	222.98
845.03	222.96
845.34	222.95
845.65	222.94
845.97	222.94
846.28	222.95
846.60	222.95
846.91	222.93
847.22	222.93
847.54	222.95
847.85	222.95
848.16	222.94
848.48	222.92
848.79	222.96
849.10	222.97
849.42	222.98
849.73	222.88
850.04	222.88
850.36	222.84
850.67	222.86
850.98	222.86
851.30	222.87
851.61	222.87
851.92	222.86
852.23	222.90
852.55	222.91
852.86	222.91
853.17	222.91
853.49	222.94
853.80	222.95
854.11	222.96
854.42	222.98
854.74	222.97
855.05	222.97
855.36	222.91
855.67	222.91
855.99	222.91
856.30	223.04
856.61	223.04
856.92	223.04
857.23	223.05
857.55	223.04
857.86	223.03
858.17	223.04
858.48	223.03
858.79	223.00
859.11	223.00
859.42	222.99
859.73	222.97
860.04	222.96
860.35	222.93
860.66	222.89
860.98	222.88
861.29	222.89
861.60	222.89
861.91	222.91
862.22	222.90
862.53	222.88
862.84	222.75
863.16	222.77
863.47	222.74
863.78	222.72
864.09	222.73
864.40	222.74
864.71	222.74
865.02	222.75
865.33	222.73
865.64	222.71
865.95	222.71
866.27	222.78
866.58	222.77
866.89	222.78
867.20	222.78
867.51	222.76
867.82	222.76
868.13	222.79
868.44	222.76
868.75	222.78
869.06	222.79
869.37	222.80
869.68	222.77
869.99	222.80
870.30	222.80
870.61	222.82
870.92	222.81
871.23	222.79
871.54	222.81
871.85	222.83
872.16	222.85
872.47	222.84
872.78	222.78
873.09	222.79
873.40	222.78
873.71	222.78
874.02	222.79
874.33	222.77
874.64	222.75
874.95	222.77
875.26	222.74
875.56	222.74
875.87	222.73
876.18	222.73
876.49	222.83
876.80	222.81
877.11	222.80
877.42	222.79
877.73	222.79
878.04	222.77
878.35	222.77
878.66	222.77
878.96	222.77
879.27	222.77
879.58	222.76
879.89	222.76
880.20	222.78
880.51	222.79
880.82	222.79
881.12	222.79
881.43	222.77
881.74	222.77
882.05	222.76
882.36	222.76
882.67	222.77
882.97	222.65
883.28	222.65
883.59	222.65
883.90	222.66
884.21	222.67
884.51	222.66
884.82	222.64
885.13	222.64
885.44	222.63
885.74	222.63
886.05	222.63
886.36	222.62
886.67	222.59
886.98	222.63
887.28	222.63
887.59	222.63
887.90	222.63
888.20	222.63
888.51	222.65
888.82	222.63
889.13	222.64
889.43	222.74
889.74	222.73
890.05	222.72
890.35	222.71
890.66	222.69
890.97	222.69
891.28	222.68
891.58	222.68
891.89	222.69
892.20	222.67
892.50	222.66
892.81	222.65
893.12	222.65
893.42	222.60
893.73	222.60
894.04	222.60
894.34	222.61
894.65	222.60
894.95	222.59
895.26	222.60
895.57	222.64
895.87	222.54
896.18	222.56
896.48	222.57
896.79	222.56
897.10	222.58
897.40	222.58
897.71	222.59
898.01	222.58
898.32	222.59
898.63	222.59
898.93	222.60
899.24	222.60
899.54	222.59
899.85	222.59
900.15	222.58
900.46	222.58
900.76	222.59
901.07	222.59
901.38	222.58
901.68	222.59
901.99	222.54
902.29	222.54
902.60	222.53
902.90	222.53
903.21	222.53
903.51	222.52
903.82	222.54
904.12	222.53
904.43	222.55
904.73	222.54
905.03	222.54
905.34	222.65
905.64	222.64
905.95	222.65
906.25	222.64
906.56	222.64
906.86	222.64
907.17	222.63
907.47	222.63
907.77	222.62
908.08	222.60
908.38	222.61
908.69	222.61
908.99	222.63
909.30	222.63
909.60	222.63
909.90	222.64
910.21	222.61
910.51	222.60
910.81	222.59
911.12	222.60
911.42	222.60
911.73	222.48
912.03	222.50
912.33	222.52
912.64	222.52
912.94	222.50
913.24	222.48
913.55	222.48
913.85	222.47
914.15	222.50
914.46	222.51
914.76	222.49
915.06	222.49
915.37	222.47
915.67	222.46
915.97	222.47
916.27	222.44
916.58	222.45
916.88	222.46
917.18	222.45
917.49	222.53
917.79	222.52
918.09	222.54
918.39	222.56
918.70	222.55
919.00	222.56
919.30	222.62
919.60	222.62
919.91	222.62
920.21	222.63
920.51	222.60
920.81	222.60
921.12	222.62
921.42	222.61
921.72	222.62
922.02	222.63
922.32	222.64
922.63	222.64
922.93	222.69
923.23	222.69
923.53	222.69
923.83	222.62
924.13	222.63
924.44	222.63
924.74	222.64
925.04	222.67
925.34	222.66
925.64	222.61
925.94	222.61
926.24	222.67
926.55	222.66
926.85	222.67
927.15	222.67
927.45	222.67
927.75	222.67
928.05	222.67
928.35	222.66
928.65	222.67
928.95	222.68
929.26	222.63
929.56	222.65
929.86	222.66
930.16	222.65
930.46	222.64
930.76	222.64
931.06	222.58
931.36	222.55
931.66	222.56
931.96	222.57
932.26	222.57
932.56	222.53
932.86	222.54
933.16	222.53
933.46	222.52
933.76	222.51
934.06	222.53
934.36	222.55
934.66	222.55
934.96	222.53
935.26	222.53
935.56	222.55
935.86	222.52
936.16	222.50
936.46	222.49
936.76	222.48
937.06	222.46
937.36	222.47
937.66	222.47
937.96	222.46
938.26	222.44
938.56	222.44
938.86	222.44
939.16	222.46
939.46	222.46
939.76	222.47
940.06	222.47
940.35	222.44
940.65	222.39
940.95	222.40
941.25	222.39
941.55	222.37
941.85	222.36
942.15	222.39
942.45	222.42
942.75	222.42
943.04	222.42
943.34	222.44
943.64	222.44
943.94	222.42
944.24	222.42
944.54	222.42
944.84	222.42
945.13	222.41
945.43	222.39
945.73	222.38
946.03	222.37
946.33	222.37
946.62	222.35
946.92	222.36
947.22	222.35
947.52	222.36
947.82	222.38
948.11	222.36
948.41	222.34
948.71	222.31
949.01	222.32
949.31	222.31
949.60	222.30
949.90	222.31
950.20	222.31
950.50	222.31
950.79	222.31
951.09	222.32
951.39	222.31
951.69	222.30
951.98	222.33
952.28	222.33
952.58	222.33
952.87	222.33
953.17	222.34
953.47	222.33
953.76	222.33
954.06	222.31
954.36	222.29
954.66	222.30
954.95	222.32
955.25	222.33
955.55	222.34
955.84	222.32
956.14	222.33
956.44	222.33
956.73	222.32
957.03	222.32
957.32	222.32
957.62	222.32
957.92	222.34
958.21	222.33
958.51	222.44
958.81	222.46
959.10	222.47
959.40	222.48
959.69	222.49
959.99	222.50
960.29	222.51
960.58	222.51
960.88	222.54
961.17	222.52
961.47	222.53
961.76	222.52
962.06	222.53
962.36	222.53
962.65	222.53
962.95	222.53
963.24	222.53
963.54	222.53
963.83	222.53
964.13	222.53
964.42	222.51
964.72	222.42
965.01	222.42
965.31	222.42
965.60	222.39
965.90	222.46
966.19	222.43
966.49	222.43
966.78	222.43
967.08	222.43
967.37	222.43
967.67	222.41
967.96	222.43
968.26	222.43
968.55	222.44
968.85	222.44
969.14	222.43
969.43	222.43
969.73	222.42
970.02	222.42
970.32	222.40
970.61	222.39
970.91	222.37
971.20	222.36
971.49	222.35
971.79	222.37
972.08	222.29
972.38	222.31
972.67	222.30
972.96	222.32
973.26	222.30
973.55	222.33
973.85	222.33
974.14	222.32
974.43	222.33
974.73	222.31
975.02	222.29
975.31	222.30
975.61	222.30
975.90	222.30
976.19	222.28
976.49	222.30
976.78	222.31
977.07	222.31
977.37	222.32
977.66	222.33
977.95	222.31
978.24	222.32
978.54	222.34
978.83	222.34
979.12	222.33
979.42	222.33
979.71	222.31
980.00	222.31
980.29	222.32
980.59	222.31
980.88	222.34
981.17	222.34
981.46	222.34
981.76	222.35
982.05	222.38
982.34	222.39
982.63	222.39
982.93	222.39
983.22	222.42
983.51	222.41
983.80	222.42
984.09	222.44
984.39	222.43
984.68	222.41
984.97	222.42
985.26	222.41
985.55	222.41
985.85	222.39
986.14	222.40
986.43	222.41
986.72	222.40
987.01	222.37
987.30	222.37
987.59	222.37
987.89	222.37
988.18	222.33
988.47	222.32
988.76	222.31
989.05	222.30
989.34	222.28
989.63	222.31
989.92	222.31
990.22	222.29
990.51	222.29
990.80	222.28
991.09	222.29
991.38	222.30
991.67	222.30
991.96	222.29
992.25	222.29
992.54	222.27
992.83	222.28
993.12	222.27
993.41	222.29
993.70	222.33
993.99	222.35
994.28	222.36
994.58	222.38
994.87	222.37
995.16	222.37
995.45	222.36
995.74	222.32
996.03	222.33
996.32	222.35
996.61	222.36
996.90	222.36
997.19	222.35
997.48	222.35
997.77	222.34
998.06	222.34
998.34	222.33
998.63	222.33
998.92	222.33
999.21	222.35
999.50	222.35
999.79	222.31
1000.08	222.31
1000.37	222.30
1000.66	222.28
1000.95	222.31
1001.24	222.32
1001.53	222.33
1001.82	222.33
1002.11	222.31
1002.40	222.32
1002.68	222.34
1002.97	222.41
1003.26	222.40
1003.55	222.39
1003.84	222.40
1004.13	222.43
1004.42	222.43
1004.71	222.43
1004.99	222.42
1005.28	222.44
1005.57	222.43
1005.86	222.42
1006.15	222.41
1006.44	222.40
1006.72	222.41
1007.01	222.39
1007.30	222.38
1007.59	222.37
1007.88	222.37
1008.17	222.38
1008.45	222.36
1008.74	222.31
1009.03	222.26
1009.32	222.27
1009.60	222.27
1009.89	222.26
1010.18	222.22
1010.47	222.20
1010.76	222.20
1011.04	222.19
1011.33	222.19
1011.62	222.19
1011.91	222.20
1012.19	222.21
1012.48	222.20
1012.77	222.20
1013.05	222.23
1013.34	222.23
1013.63	222.23
1013.92	222.23
1014.20	222.23
1014.49	222.23
1014.78	222.25
1015.06	222.21
1015.35	222.21
1015.64	222.22
1015.92	222.24
1016.21	222.25
1016.50	222.26
1016.78	222.27
1017.07	222.29
1017.36	222.27
1017.64	222.26
1017.93	222.28
1018.22	222.26
1018.50	222.25
1018.79	222.25
1019.08	222.22
1019.36	222.23
1019.65	222.22
1019.93	222.25
1020.22	222.26
1020.51	222.32
1020.79	222.30
1021.08	222.00
1021.36	221.96
1021.65	222.24
1021.94	222.17
1022.22	222.38
1022.51	222.01
1022.79	222.77
1023.08	222.40
1023.36	223.52
1023.65	222.03
>>>>>End Processed Spectral Data<<<<<
