SpectraSuite Data File
++++++++++++++++++++++++++++++++++++
Date: Wed Sep 30 15:23:58 EDT 2015
User: lab3
Dark Spectrum Present: No
Reference Spectrum Present: No
Number of Sampled Component Spectra: 1
Spectrometers: USB2E7196
Integration Time (usec): 36000 (USB2E7196)
Spectra Averaged: 1500 (USB2E7196)
Boxcar Smoothing: 10 (USB2E7196)
Correct for Electrical Dark: No (USB2E7196)
Strobe/Lamp Enabled: No (USB2E7196)
Correct for Detector Non-linearity: No (USB2E7196)
Correct for Stray Light: No (USB2E7196)
Number of Pixels in Processed Spectrum: 2048
>>>>>Begin Processed Spectral Data<<<<<
339.09	0.00
339.48	211.34
339.86	212.62
340.24	214.06
340.63	215.57
341.01	218.41
341.39	218.32
341.78	219.49
342.16	220.70
342.54	221.07
342.93	209.78
343.31	220.38
343.69	220.92
344.07	221.40
344.46	221.83
344.84	222.21
345.22	222.45
345.60	222.70
345.99	222.90
346.37	223.03
346.75	223.15
347.13	223.23
347.52	223.30
347.90	223.39
348.28	223.43
348.66	223.48
349.05	223.48
349.43	223.53
349.81	223.58
350.19	223.63
350.57	223.71
350.96	223.78
351.34	223.87
351.72	223.96
352.10	224.06
352.48	224.14
352.87	224.21
353.25	224.26
353.63	224.34
354.01	224.40
354.39	224.48
354.77	224.56
355.15	224.66
355.54	224.72
355.92	224.76
356.30	224.83
356.68	224.97
357.06	225.05
357.44	225.10
357.82	225.17
358.20	225.28
358.58	225.35
358.97	225.42
359.35	225.51
359.73	225.59
360.11	225.65
360.49	225.71
360.87	225.76
361.25	225.83
361.63	225.91
362.01	225.97
362.39	226.00
362.77	226.06
363.15	226.08
363.53	226.11
363.91	226.15
364.29	226.19
364.67	226.12
365.05	226.14
365.43	226.16
365.81	226.19
366.19	226.21
366.57	226.25
366.95	226.25
367.33	226.23
367.71	226.22
368.09	226.23
368.47	226.22
368.85	226.20
369.23	226.20
369.61	226.15
369.99	226.16
370.37	226.15
370.75	226.21
371.13	226.18
371.51	226.14
371.89	226.11
372.27	226.08
372.65	226.05
373.03	226.01
373.41	225.96
373.78	225.91
374.16	225.81
374.54	225.74
374.92	225.69
375.30	225.64
375.68	225.58
376.06	225.54
376.44	225.50
376.82	225.46
377.19	225.41
377.57	225.36
377.95	225.26
378.33	225.21
378.71	225.06
379.09	225.01
379.47	224.97
379.84	224.91
380.22	224.85
380.60	224.78
380.98	224.74
381.36	224.68
381.73	224.63
382.11	224.60
382.49	224.56
382.87	224.50
383.25	224.44
383.62	224.51
384.00	224.44
384.38	224.39
384.76	224.37
385.13	224.35
385.51	224.31
385.89	224.26
386.27	224.22
386.64	224.20
387.02	224.15
387.40	224.11
387.78	224.08
388.15	224.06
388.53	224.02
388.91	223.98
389.29	223.94
389.66	223.93
390.04	223.90
390.42	223.88
390.79	223.86
391.17	223.85
391.55	223.72
391.92	223.71
392.30	223.71
392.68	223.67
393.05	223.65
393.43	223.64
393.81	223.64
394.18	223.61
394.56	223.61
394.94	223.64
395.31	223.64
395.69	223.68
396.06	223.70
396.44	223.74
396.82	223.75
397.19	223.82
397.57	223.83
397.95	223.87
398.32	223.87
398.70	223.91
399.07	223.97
399.45	224.00
399.82	224.05
400.20	224.08
400.58	224.14
400.95	224.16
401.33	224.23
401.70	224.37
402.08	224.46
402.45	224.53
402.83	224.63
403.20	224.73
403.58	224.80
403.95	224.93
404.33	225.05
404.71	225.17
405.08	225.35
405.46	225.49
405.83	225.65
406.21	225.81
406.58	225.99
406.96	226.17
407.33	226.38
407.70	226.61
408.08	226.94
408.45	227.22
408.83	227.52
409.20	227.80
409.58	228.06
409.95	228.41
410.33	228.78
410.70	229.13
411.08	229.55
411.45	229.99
411.82	230.43
412.20	230.94
412.57	231.55
412.95	232.02
413.32	232.66
413.69	233.30
414.07	233.98
414.44	234.72
414.82	235.48
415.19	236.37
415.56	237.27
415.94	238.20
416.31	239.24
416.68	240.28
417.06	241.49
417.43	242.62
417.81	243.93
418.18	245.27
418.55	246.73
418.93	248.24
419.30	249.83
419.67	251.51
420.04	253.26
420.42	255.07
420.79	257.17
421.16	259.28
421.54	261.43
421.91	263.68
422.28	266.02
422.66	268.54
423.03	270.95
423.40	273.47
423.77	276.19
424.15	278.96
424.52	281.86
424.89	284.99
425.26	288.12
425.64	291.02
426.01	294.27
426.38	297.60
426.75	301.04
427.13	304.57
427.50	308.25
427.87	312.08
428.24	315.96
428.61	319.67
428.99	323.66
429.36	328.05
429.73	332.26
430.10	336.45
430.47	340.74
430.85	345.13
431.22	349.82
431.59	354.64
431.96	359.34
432.33	364.56
432.70	369.51
433.08	375.36
433.45	380.86
433.82	386.30
434.19	392.37
434.56	398.34
434.93	404.08
435.30	409.76
435.68	416.13
436.05	422.37
436.42	428.63
436.79	434.33
437.16	440.50
437.53	447.06
437.90	453.61
438.27	460.02
438.64	466.96
439.01	473.26
439.38	479.00
439.75	484.53
440.13	490.82
440.50	496.78
440.87	501.46
441.24	506.63
441.61	512.35
441.98	516.51
442.35	521.47
442.72	526.54
443.09	531.38
443.46	534.50
443.83	536.78
444.20	538.68
444.57	541.48
444.94	543.09
445.31	544.78
445.68	546.27
446.05	547.36
446.42	547.13
446.79	546.79
447.16	546.49
447.53	546.26
447.90	544.36
448.27	542.61
448.64	539.84
449.01	538.01
449.37	534.00
449.74	530.36
450.11	525.69
450.48	520.59
450.85	515.46
451.22	511.10
451.59	506.82
451.96	502.92
452.33	497.26
452.70	492.23
453.07	486.10
453.43	479.95
453.80	474.01
454.17	468.31
454.54	463.01
454.91	457.06
455.28	451.44
455.65	446.13
456.02	440.47
456.38	435.92
456.75	430.03
457.12	425.32
457.49	420.57
457.86	416.04
458.23	412.06
458.59	407.68
458.96	403.14
459.33	399.19
459.70	395.17
460.07	392.10
460.43	388.47
460.80	385.07
461.17	382.10
461.54	378.88
461.91	375.86
462.27	372.81
462.64	370.28
463.01	367.40
463.38	364.51
463.74	361.89
464.11	359.54
464.48	357.42
464.85	355.16
465.21	353.41
465.58	351.49
465.95	349.29
466.32	347.50
466.68	345.79
467.05	344.05
467.42	342.37
467.78	340.55
468.15	338.88
468.52	337.65
468.88	336.02
469.25	334.51
469.62	333.33
469.98	332.04
470.35	330.90
470.72	329.88
471.08	328.81
471.45	327.95
471.82	326.99
472.18	325.99
472.55	325.35
472.92	324.55
473.28	323.92
473.65	323.27
474.02	322.67
474.38	322.16
474.75	321.88
475.11	321.47
475.48	321.33
475.85	321.16
476.21	321.11
476.58	321.11
476.94	321.30
477.31	321.40
477.67	321.55
478.04	321.83
478.41	322.16
478.77	322.64
479.14	322.98
479.50	323.56
479.87	324.28
480.23	324.99
480.60	325.67
480.96	326.37
481.33	327.34
481.69	328.32
482.06	329.31
482.42	330.23
482.79	331.34
483.15	332.60
483.52	334.02
483.88	335.39
484.25	336.86
484.61	338.39
484.98	340.04
485.34	341.87
485.71	343.77
486.07	345.79
486.44	347.81
486.80	350.04
487.17	352.35
487.53	354.86
487.90	357.49
488.26	360.34
488.62	363.35
488.99	366.37
489.35	369.51
489.72	372.91
490.08	376.47
490.44	380.10
490.81	383.90
491.17	387.82
491.54	392.00
491.90	396.28
492.26	400.88
492.63	405.75
492.99	410.80
493.36	415.97
493.72	421.40
494.08	427.00
494.45	432.89
494.81	438.99
495.17	445.21
495.54	451.80
495.90	458.70
496.26	465.75
496.63	473.03
496.99	480.63
497.35	488.57
497.72	496.79
498.08	505.21
498.44	513.88
498.80	523.05
499.17	532.46
499.53	542.19
499.89	552.15
500.26	562.30
500.62	572.70
500.98	583.79
501.34	595.03
501.71	606.76
502.07	618.72
502.43	631.05
502.79	643.75
503.16	656.85
503.52	670.11
503.88	683.65
504.24	697.68
504.60	711.90
504.97	726.48
505.33	741.50
505.69	757.37
506.05	773.50
506.41	789.70
506.78	806.16
507.14	823.15
507.50	840.57
507.86	858.32
508.22	876.36
508.59	894.43
508.95	913.22
509.31	932.47
509.67	952.39
510.03	972.55
510.39	992.83
510.75	1013.25
511.12	1033.90
511.48	1054.86
511.84	1076.03
512.20	1097.47
512.56	1120.02
512.92	1142.59
513.28	1164.94
513.64	1187.57
514.00	1210.64
514.37	1233.90
514.73	1257.17
515.09	1280.26
515.45	1303.67
515.81	1327.69
516.17	1351.75
516.53	1375.43
516.89	1399.15
517.25	1422.99
517.61	1446.99
517.97	1471.21
518.33	1495.39
518.69	1519.82
519.05	1544.45
519.41	1569.02
519.77	1593.91
520.13	1617.89
520.49	1642.14
520.85	1666.45
521.21	1690.52
521.57	1715.12
521.93	1739.03
522.29	1763.50
522.65	1787.89
523.01	1812.03
523.37	1835.16
523.73	1859.09
524.09	1883.27
524.45	1907.28
524.81	1930.83
525.17	1954.06
525.53	1976.94
525.89	1999.53
526.25	2022.17
526.61	2044.12
526.97	2066.49
527.33	2088.70
527.68	2110.88
528.04	2132.32
528.40	2153.45
528.76	2174.78
529.12	2195.00
529.48	2215.86
529.84	2234.92
530.20	2254.32
530.56	2273.41
530.91	2292.88
531.27	2311.56
531.63	2329.52
531.99	2346.87
532.35	2364.21
532.71	2381.76
533.07	2399.71
533.42	2416.27
533.78	2433.29
534.14	2450.37
534.50	2466.37
534.86	2482.83
535.21	2497.63
535.57	2512.10
535.93	2525.97
536.29	2538.56
536.65	2551.86
537.00	2564.19
537.36	2577.23
537.72	2589.20
538.08	2601.00
538.44	2611.69
538.79	2622.54
539.15	2631.63
539.51	2640.49
539.87	2648.48
540.22	2654.58
540.58	2660.86
540.94	2667.55
541.29	2672.77
541.65	2677.19
542.01	2681.32
542.37	2683.67
542.72	2687.63
543.08	2691.09
543.44	2694.38
543.79	2697.41
544.15	2699.44
544.51	2701.14
544.87	2702.00
545.22	2702.67
545.58	2702.35
545.94	2702.29
546.29	2700.88
546.65	2699.64
547.01	2698.47
547.36	2697.71
547.72	2697.34
548.07	2695.50
548.43	2693.14
548.79	2689.96
549.14	2686.70
549.50	2683.98
549.86	2680.43
550.21	2675.01
550.57	2670.12
550.92	2664.01
551.28	2658.17
551.64	2652.25
551.99	2646.60
552.35	2640.65
552.70	2634.14
553.06	2628.17
553.41	2621.79
553.77	2614.83
554.13	2608.65
554.48	2601.70
554.84	2593.32
555.19	2584.65
555.55	2575.49
555.90	2566.75
556.26	2559.17
556.61	2551.03
556.97	2540.87
557.32	2532.03
557.68	2523.01
558.03	2513.59
558.39	2505.00
558.74	2496.25
559.10	2486.67
559.45	2476.67
559.81	2466.77
560.16	2456.48
560.52	2445.86
560.87	2436.16
561.23	2426.23
561.58	2416.04
561.94	2405.71
562.29	2394.70
562.64	2384.24
563.00	2374.10
563.35	2364.04
563.71	2352.85
564.06	2341.52
564.42	2331.06
564.77	2320.16
565.12	2309.34
565.48	2298.03
565.83	2287.18
566.19	2276.74
566.54	2265.70
566.89	2254.12
567.25	2242.91
567.60	2232.50
567.96	2221.58
568.31	2209.45
568.66	2197.30
569.02	2185.97
569.37	2174.48
569.72	2163.66
570.08	2152.32
570.43	2140.32
570.78	2127.89
571.14	2115.77
571.49	2104.07
571.84	2092.37
572.20	2079.39
572.55	2067.28
572.90	2055.02
573.26	2042.08
573.61	2028.59
573.96	2015.40
574.31	2002.31
574.67	1989.17
575.02	1975.44
575.37	1961.64
575.72	1948.14
576.08	1934.83
576.43	1920.57
576.78	1906.53
577.13	1893.10
577.49	1879.73
577.84	1867.03
578.19	1853.63
578.54	1839.71
578.90	1825.41
579.25	1810.99
579.60	1797.93
579.95	1784.29
580.30	1770.88
580.66	1757.54
581.01	1743.83
581.36	1730.49
581.71	1717.97
582.06	1705.02
582.42	1692.36
582.77	1680.08
583.12	1667.32
583.47	1654.99
583.82	1642.64
584.17	1630.06
584.53	1617.39
584.88	1604.81
585.23	1591.74
585.58	1579.30
585.93	1567.16
586.28	1555.70
586.63	1544.14
586.98	1531.74
587.34	1519.68
587.69	1507.19
588.04	1495.13
588.39	1483.47
588.74	1471.29
589.09	1458.85
589.44	1446.34
589.79	1434.28
590.14	1422.30
590.49	1410.58
590.84	1398.73
591.19	1387.41
591.54	1375.66
591.89	1363.79
592.25	1352.27
592.60	1340.47
592.95	1329.03
593.30	1317.87
593.65	1306.63
594.00	1295.75
594.35	1285.51
594.70	1274.30
595.05	1263.88
595.40	1253.27
595.75	1242.40
596.10	1232.41
596.45	1222.61
596.80	1213.18
597.15	1203.52
597.50	1193.72
597.85	1184.20
598.19	1174.71
598.54	1165.03
598.89	1155.91
599.24	1147.03
599.59	1137.93
599.94	1129.76
600.29	1121.43
600.64	1112.96
600.99	1103.89
601.34	1095.09
601.69	1086.01
602.04	1078.07
602.39	1070.08
602.74	1062.27
603.08	1054.63
603.43	1046.57
603.78	1038.34
604.13	1030.22
604.48	1022.05
604.83	1014.18
605.18	1006.17
605.53	998.23
605.87	990.15
606.22	982.38
606.57	974.43
606.92	966.36
607.27	958.25
607.62	950.41
607.96	942.73
608.31	936.09
608.66	929.10
609.01	922.31
609.36	915.34
609.70	908.20
610.05	900.96
610.40	894.04
610.75	887.11
611.10	880.39
611.44	873.41
611.79	866.68
612.14	859.66
612.49	852.78
612.83	846.27
613.18	839.88
613.53	833.40
613.88	827.08
614.22	821.31
614.57	815.27
614.92	809.18
615.27	803.15
615.61	796.88
615.96	790.88
616.31	784.81
616.65	778.67
617.00	772.72
617.35	766.85
617.70	761.01
618.04	755.33
618.39	749.67
618.74	744.29
619.08	738.79
619.43	733.48
619.78	728.11
620.12	722.62
620.47	717.36
620.82	712.10
621.16	707.09
621.51	701.77
621.85	696.49
622.20	691.25
622.55	686.08
622.89	680.79
623.24	675.58
623.59	670.52
623.93	665.57
624.28	660.79
624.62	655.95
624.97	651.05
625.32	646.29
625.66	641.46
626.01	636.61
626.35	631.88
626.70	627.21
627.04	622.75
627.39	618.34
627.73	613.93
628.08	609.71
628.43	605.26
628.77	600.85
629.12	596.63
629.46	592.58
629.81	588.42
630.15	584.25
630.50	580.18
630.84	576.25
631.19	572.44
631.53	568.67
631.88	564.85
632.22	561.12
632.57	557.53
632.91	553.87
633.26	550.28
633.60	546.76
633.95	543.35
634.29	539.81
634.64	536.23
634.98	532.62
635.32	529.16
635.67	525.92
636.01	522.62
636.36	519.30
636.70	516.14
637.05	512.95
637.39	509.92
637.73	506.75
638.08	503.68
638.42	500.59
638.77	497.38
639.11	494.10
639.45	490.85
639.80	487.64
640.14	484.57
640.49	481.48
640.83	478.28
641.17	475.15
641.52	472.14
641.86	469.13
642.20	466.26
642.55	463.23
642.89	460.28
643.23	457.55
643.58	455.03
643.92	452.33
644.26	449.70
644.61	447.01
644.95	444.36
645.29	441.65
645.64	438.91
645.98	436.31
646.32	433.90
646.66	431.47
647.01	429.03
647.35	426.66
647.69	424.20
648.04	421.87
648.38	419.54
648.72	417.16
649.06	414.87
649.41	412.62
649.75	410.37
650.09	408.11
650.43	405.83
650.78	403.54
651.12	401.28
651.46	399.09
651.80	397.01
652.14	394.98
652.49	392.98
652.83	391.03
653.17	389.06
653.51	387.14
653.85	385.29
654.20	383.37
654.54	381.37
654.88	379.52
655.22	377.73
655.56	375.91
655.90	374.19
656.25	372.48
656.59	370.77
656.93	369.15
657.27	367.56
657.61	365.89
657.95	364.28
658.29	362.64
658.64	361.03
658.98	359.41
659.32	357.81
659.66	356.30
660.00	354.80
660.34	353.33
660.68	351.82
661.02	350.24
661.36	348.79
661.70	347.37
662.05	345.96
662.39	344.52
662.73	343.17
663.07	341.86
663.41	340.55
663.75	339.28
664.09	338.00
664.43	336.65
664.77	335.41
665.11	334.10
665.45	332.86
665.79	331.63
666.13	330.39
666.47	329.15
666.81	327.87
667.15	326.57
667.49	325.34
667.83	324.14
668.17	323.01
668.51	321.88
668.85	320.79
669.19	319.76
669.53	318.65
669.87	317.51
670.21	316.40
670.55	315.28
670.89	314.24
671.23	313.18
671.57	312.14
671.91	311.12
672.25	310.18
672.58	309.25
672.92	308.28
673.26	307.39
673.60	306.48
673.94	305.57
674.28	304.70
674.62	303.84
674.96	302.96
675.30	302.11
675.64	301.25
675.97	300.41
676.31	299.52
676.65	298.69
676.99	297.92
677.33	297.10
677.67	296.32
678.01	295.45
678.34	294.65
678.68	293.89
679.02	293.11
679.36	292.33
679.70	291.54
680.04	290.77
680.37	290.00
680.71	289.27
681.05	288.59
681.39	287.87
681.73	287.14
682.06	286.42
682.40	285.72
682.74	285.04
683.08	284.37
683.42	283.69
683.75	283.07
684.09	282.37
684.43	281.72
684.77	281.07
685.10	280.46
685.44	279.83
685.78	279.20
686.12	278.61
686.45	278.01
686.79	277.39
687.13	276.80
687.46	276.19
687.80	275.61
688.14	274.99
688.48	274.42
688.81	273.83
689.15	273.30
689.49	272.72
689.82	272.16
690.16	271.55
690.50	270.99
690.83	270.43
691.17	269.86
691.51	269.33
691.84	268.80
692.18	268.25
692.52	267.69
692.85	267.17
693.19	266.68
693.52	266.16
693.86	265.65
694.20	265.16
694.53	264.69
694.87	264.17
695.21	263.68
695.54	263.21
695.88	262.71
696.21	262.20
696.55	261.73
696.88	261.27
697.22	260.82
697.56	260.37
697.89	259.89
698.23	259.44
698.56	258.97
698.90	258.54
699.23	258.10
699.57	257.70
699.90	257.28
700.24	256.84
700.58	256.44
700.91	256.06
701.25	255.75
701.58	255.39
701.92	255.04
702.25	254.67
702.59	254.27
702.92	253.92
703.26	253.55
703.59	253.17
703.93	252.89
704.26	252.56
704.60	252.20
704.93	251.86
705.26	251.52
705.60	251.22
705.93	250.86
706.27	250.58
706.60	250.27
706.94	249.98
707.27	249.63
707.61	249.30
707.94	248.96
708.27	248.55
708.61	248.19
708.94	247.86
709.28	247.55
709.61	247.25
709.94	246.97
710.28	246.70
710.61	246.45
710.95	246.09
711.28	245.88
711.61	245.60
711.95	245.36
712.28	245.09
712.61	244.81
712.95	244.62
713.28	244.41
713.61	244.14
713.95	243.87
714.28	243.65
714.61	243.40
714.95	243.16
715.28	242.92
715.61	242.71
715.95	242.50
716.28	242.28
716.61	242.08
716.95	241.86
717.28	241.65
717.61	241.43
717.94	241.22
718.28	240.96
718.61	240.76
718.94	240.55
719.27	240.35
719.61	240.16
719.94	239.95
720.27	239.69
720.60	239.50
720.94	239.31
721.27	239.13
721.60	238.96
721.93	238.78
722.27	238.64
722.60	238.47
722.93	238.28
723.26	238.11
723.59	237.91
723.93	237.75
724.26	237.59
724.59	237.42
724.92	237.28
725.25	237.14
725.59	236.97
725.92	236.83
726.25	236.68
726.58	236.54
726.91	236.38
727.24	236.25
727.57	236.10
727.91	235.94
728.24	235.81
728.57	235.66
728.90	235.54
729.23	235.37
729.56	235.29
729.89	235.16
730.22	235.02
730.55	234.90
730.89	234.76
731.22	234.63
731.55	234.50
731.88	234.36
732.21	234.22
732.54	234.10
732.87	233.99
733.20	233.88
733.53	233.76
733.86	233.66
734.19	233.54
734.52	233.46
734.85	233.42
735.18	233.30
735.51	233.22
735.84	233.12
736.17	233.04
736.50	232.88
736.83	232.89
737.16	232.79
737.49	232.71
737.82	232.62
738.15	232.54
738.48	232.46
738.81	232.37
739.14	232.26
739.47	232.17
739.80	232.08
740.13	231.98
740.46	231.88
740.79	231.78
741.12	231.68
741.45	231.57
741.78	231.42
742.11	231.37
742.44	231.27
742.77	231.19
743.10	231.10
743.43	231.01
743.75	230.82
744.08	230.90
744.41	230.81
744.74	230.71
745.07	230.60
745.40	230.53
745.73	230.49
746.06	230.42
746.39	230.37
746.71	230.28
747.04	230.20
747.37	230.13
747.70	230.07
748.03	230.00
748.36	229.95
748.68	229.88
749.01	229.77
749.34	229.70
749.67	229.64
750.00	229.58
750.33	229.60
750.65	229.55
750.98	229.33
751.31	229.27
751.64	229.22
751.97	229.21
752.29	229.14
752.62	229.04
752.95	228.97
753.28	228.90
753.60	228.84
753.93	228.79
754.26	228.75
754.59	228.65
754.91	228.59
755.24	228.52
755.57	228.50
755.90	228.45
756.22	228.38
756.55	228.31
756.88	228.22
757.20	228.10
757.53	228.01
757.86	227.96
758.19	227.91
758.51	227.86
758.84	227.77
759.17	227.70
759.49	227.66
759.82	227.65
760.15	227.61
760.47	227.57
760.80	227.50
761.13	227.47
761.45	227.44
761.78	227.40
762.11	227.36
762.43	227.27
762.76	227.23
763.08	227.20
763.41	227.17
763.74	227.14
764.06	227.10
764.39	227.06
764.71	227.03
765.04	226.99
765.37	226.94
765.69	226.90
766.02	226.86
766.34	226.81
766.67	226.73
767.00	226.72
767.32	226.74
767.65	226.77
767.97	226.72
768.30	226.68
768.62	226.64
768.95	226.59
769.27	226.57
769.60	226.54
769.92	226.50
770.25	226.45
770.57	226.41
770.90	226.37
771.22	226.34
771.55	226.30
771.87	226.27
772.20	226.24
772.52	226.30
772.85	226.39
773.17	226.37
773.50	226.33
773.82	226.28
774.15	226.20
774.47	226.10
774.80	226.05
775.12	226.02
775.45	225.99
775.77	225.97
776.09	225.94
776.42	225.91
776.74	225.92
777.07	225.88
777.39	225.87
777.72	225.83
778.04	225.82
778.36	225.79
778.69	225.78
779.01	225.77
779.33	225.66
779.66	225.51
779.98	225.49
780.31	225.48
780.63	225.50
780.95	225.50
781.28	225.48
781.60	225.46
781.92	225.45
782.25	225.43
782.57	225.41
782.89	225.39
783.22	225.37
783.54	225.32
783.86	225.33
784.19	225.30
784.51	225.31
784.83	225.27
785.16	225.25
785.48	225.24
785.80	225.21
786.12	225.20
786.45	225.19
786.77	225.18
787.09	225.16
787.42	225.11
787.74	225.10
788.06	225.09
788.38	225.08
788.71	225.05
789.03	225.04
789.35	225.04
789.67	225.01
789.99	225.00
790.32	224.97
790.64	224.97
790.96	225.05
791.28	225.01
791.61	224.99
791.93	224.99
792.25	224.96
792.57	225.02
792.89	225.00
793.21	224.99
793.54	224.96
793.86	224.93
794.18	224.92
794.50	224.88
794.82	224.86
795.14	224.85
795.47	224.86
795.79	224.86
796.11	224.83
796.43	224.81
796.75	224.80
797.07	224.80
797.39	224.77
797.71	224.68
798.04	224.67
798.36	224.66
798.68	224.64
799.00	224.64
799.32	224.58
799.64	224.59
799.96	224.57
800.28	224.59
800.60	224.57
800.92	224.57
801.24	224.56
801.56	224.55
801.89	224.53
802.21	224.52
802.53	224.49
802.85	224.51
803.17	224.56
803.49	224.53
803.81	224.51
804.13	224.50
804.45	224.48
804.77	224.48
805.09	224.47
805.41	224.45
805.73	224.43
806.05	224.38
806.37	224.36
806.69	224.35
807.01	224.33
807.33	224.34
807.65	224.29
807.97	224.33
808.28	224.32
808.60	224.31
808.92	224.29
809.24	224.35
809.56	224.32
809.88	224.26
810.20	224.27
810.52	224.28
810.84	224.26
811.16	224.25
811.48	224.23
811.80	224.27
812.12	224.27
812.43	224.29
812.75	224.30
813.07	224.29
813.39	224.28
813.71	224.26
814.03	224.24
814.35	224.24
814.67	224.20
814.98	224.18
815.30	224.17
815.62	224.15
815.94	224.07
816.26	224.07
816.58	224.05
816.89	224.04
817.21	224.00
817.53	224.01
817.85	224.00
818.17	223.99
818.48	223.95
818.80	223.96
819.12	223.93
819.44	223.90
819.76	223.88
820.07	223.88
820.39	223.88
820.71	223.88
821.03	223.87
821.34	223.87
821.66	223.88
821.98	223.88
822.30	223.88
822.61	223.94
822.93	223.93
823.25	223.93
823.57	223.91
823.88	223.93
824.20	223.92
824.52	223.94
824.83	223.93
825.15	223.90
825.47	223.89
825.79	223.89
826.10	223.89
826.42	223.89
826.74	223.89
827.05	223.88
827.37	223.88
827.69	223.88
828.00	223.88
828.32	223.86
828.64	223.85
828.95	223.90
829.27	223.87
829.58	223.86
829.90	223.88
830.22	223.88
830.53	223.86
830.85	223.84
831.17	223.81
831.48	223.82
831.80	223.83
832.11	223.82
832.43	223.80
832.75	223.78
833.06	223.84
833.38	223.81
833.69	223.80
834.01	223.80
834.32	223.79
834.64	223.78
834.96	223.77
835.27	223.77
835.59	223.72
835.90	223.72
836.22	223.71
836.53	223.69
836.85	223.67
837.16	223.77
837.48	223.76
837.79	223.79
838.11	223.78
838.42	223.79
838.74	223.79
839.05	223.78
839.37	223.79
839.68	223.72
840.00	223.70
840.31	223.71
840.63	223.70
840.94	223.68
841.26	223.67
841.57	223.67
841.88	223.68
842.20	223.66
842.51	223.65
842.83	223.64
843.14	223.74
843.46	223.74
843.77	223.68
844.08	223.69
844.40	223.66
844.71	223.65
845.03	223.64
845.34	223.62
845.65	223.63
845.97	223.62
846.28	223.62
846.60	223.63
846.91	223.62
847.22	223.62
847.54	223.65
847.85	223.65
848.16	223.64
848.48	223.61
848.79	223.64
849.10	223.64
849.42	223.65
849.73	223.55
850.04	223.54
850.36	223.50
850.67	223.51
850.98	223.52
851.30	223.53
851.61	223.53
851.92	223.52
852.23	223.55
852.55	223.55
852.86	223.56
853.17	223.56
853.49	223.58
853.80	223.59
854.11	223.60
854.42	223.61
854.74	223.60
855.05	223.60
855.36	223.56
855.67	223.56
855.99	223.55
856.30	223.67
856.61	223.67
856.92	223.68
857.23	223.68
857.55	223.65
857.86	223.64
858.17	223.65
858.48	223.64
858.79	223.61
859.11	223.63
859.42	223.62
859.73	223.60
860.04	223.60
860.35	223.57
860.66	223.54
860.98	223.52
861.29	223.53
861.60	223.53
861.91	223.56
862.22	223.54
862.53	223.52
862.84	223.40
863.16	223.42
863.47	223.41
863.78	223.39
864.09	223.40
864.40	223.41
864.71	223.41
865.02	223.42
865.33	223.42
865.64	223.40
865.95	223.40
866.27	223.47
866.58	223.45
866.89	223.46
867.20	223.46
867.51	223.45
867.82	223.45
868.13	223.48
868.44	223.46
868.75	223.48
869.06	223.49
869.37	223.50
869.68	223.48
869.99	223.50
870.30	223.50
870.61	223.51
870.92	223.50
871.23	223.48
871.54	223.49
871.85	223.50
872.16	223.51
872.47	223.50
872.78	223.44
873.09	223.45
873.40	223.43
873.71	223.45
874.02	223.46
874.33	223.45
874.64	223.42
874.95	223.44
875.26	223.42
875.56	223.41
875.87	223.39
876.18	223.38
876.49	223.47
876.80	223.46
877.11	223.45
877.42	223.46
877.73	223.46
878.04	223.45
878.35	223.45
878.66	223.46
878.96	223.46
879.27	223.46
879.58	223.45
879.89	223.44
880.20	223.46
880.51	223.45
880.82	223.45
881.12	223.46
881.43	223.44
881.74	223.43
882.05	223.43
882.36	223.44
882.67	223.46
882.97	223.35
883.28	223.34
883.59	223.34
883.90	223.34
884.21	223.35
884.51	223.35
884.82	223.34
885.13	223.32
885.44	223.33
885.74	223.32
886.05	223.32
886.36	223.32
886.67	223.28
886.98	223.33
887.28	223.34
887.59	223.33
887.90	223.33
888.20	223.32
888.51	223.34
888.82	223.32
889.13	223.32
889.43	223.41
889.74	223.41
890.05	223.41
890.35	223.39
890.66	223.39
890.97	223.38
891.28	223.37
891.58	223.38
891.89	223.38
892.20	223.37
892.50	223.37
892.81	223.36
893.12	223.37
893.42	223.32
893.73	223.31
894.04	223.32
894.34	223.33
894.65	223.33
894.95	223.32
895.26	223.33
895.57	223.38
895.87	223.27
896.18	223.28
896.48	223.28
896.79	223.29
897.10	223.31
897.40	223.31
897.71	223.31
898.01	223.30
898.32	223.31
898.63	223.30
898.93	223.31
899.24	223.31
899.54	223.31
899.85	223.31
900.15	223.30
900.46	223.30
900.76	223.30
901.07	223.31
901.38	223.30
901.68	223.30
901.99	223.25
902.29	223.26
902.60	223.25
902.90	223.24
903.21	223.23
903.51	223.22
903.82	223.24
904.12	223.24
904.43	223.24
904.73	223.23
905.03	223.24
905.34	223.32
905.64	223.33
905.95	223.32
906.25	223.32
906.56	223.31
906.86	223.32
907.17	223.30
907.47	223.31
907.77	223.30
908.08	223.28
908.38	223.28
908.69	223.29
908.99	223.30
909.30	223.31
909.60	223.31
909.90	223.31
910.21	223.28
910.51	223.26
910.81	223.26
911.12	223.26
911.42	223.26
911.73	223.16
912.03	223.17
912.33	223.20
912.64	223.18
912.94	223.18
913.24	223.16
913.55	223.15
913.85	223.15
914.15	223.18
914.46	223.18
914.76	223.18
915.06	223.16
915.37	223.14
915.67	223.14
915.97	223.14
916.27	223.12
916.58	223.13
916.88	223.12
917.18	223.11
917.49	223.18
917.79	223.18
918.09	223.18
918.39	223.21
918.70	223.20
919.00	223.21
919.30	223.25
919.60	223.24
919.91	223.23
920.21	223.23
920.51	223.19
920.81	223.19
921.12	223.22
921.42	223.22
921.72	223.23
922.02	223.23
922.32	223.25
922.63	223.25
922.93	223.30
923.23	223.30
923.53	223.30
923.83	223.22
924.13	223.23
924.44	223.23
924.74	223.24
925.04	223.26
925.34	223.25
925.64	223.21
925.94	223.22
926.24	223.28
926.55	223.27
926.85	223.29
927.15	223.29
927.45	223.29
927.75	223.29
928.05	223.29
928.35	223.30
928.65	223.30
928.95	223.32
929.26	223.28
929.56	223.31
929.86	223.33
930.16	223.32
930.46	223.31
930.76	223.31
931.06	223.25
931.36	223.21
931.66	223.23
931.96	223.24
932.26	223.25
932.56	223.20
932.86	223.21
933.16	223.20
933.46	223.18
933.76	223.16
934.06	223.17
934.36	223.20
934.66	223.18
934.96	223.17
935.26	223.16
935.56	223.18
935.86	223.15
936.16	223.13
936.46	223.12
936.76	223.12
937.06	223.12
937.36	223.13
937.66	223.15
937.96	223.14
938.26	223.11
938.56	223.10
938.86	223.11
939.16	223.13
939.46	223.14
939.76	223.14
940.06	223.14
940.35	223.13
940.65	223.07
940.95	223.08
941.25	223.06
941.55	223.05
941.85	223.03
942.15	223.06
942.45	223.09
942.75	223.09
943.04	223.09
943.34	223.11
943.64	223.10
943.94	223.08
944.24	223.08
944.54	223.09
944.84	223.10
945.13	223.08
945.43	223.06
945.73	223.06
946.03	223.06
946.33	223.04
946.62	223.03
946.92	223.04
947.22	223.04
947.52	223.06
947.82	223.07
948.11	223.06
948.41	223.04
948.71	223.00
949.01	223.01
949.31	223.00
949.60	222.99
949.90	223.01
950.20	223.01
950.50	223.01
950.79	223.00
951.09	223.01
951.39	223.01
951.69	222.99
951.98	223.01
952.28	223.02
952.58	223.02
952.87	223.03
953.17	223.05
953.47	223.03
953.76	223.02
954.06	223.01
954.36	222.99
954.66	222.99
954.95	223.02
955.25	223.03
955.55	223.03
955.84	223.02
956.14	223.02
956.44	223.02
956.73	223.00
957.03	223.01
957.32	223.01
957.62	223.01
957.92	223.04
958.21	223.03
958.51	223.15
958.81	223.16
959.10	223.17
959.40	223.20
959.69	223.21
959.99	223.23
960.29	223.23
960.58	223.24
960.88	223.27
961.17	223.25
961.47	223.25
961.76	223.25
962.06	223.27
962.36	223.26
962.65	223.26
962.95	223.27
963.24	223.26
963.54	223.26
963.83	223.26
964.13	223.25
964.42	223.25
964.72	223.15
965.01	223.14
965.31	223.13
965.60	223.10
965.90	223.16
966.19	223.13
966.49	223.14
966.78	223.14
967.08	223.12
967.37	223.13
967.67	223.11
967.96	223.13
968.26	223.12
968.55	223.13
968.85	223.13
969.14	223.13
969.43	223.13
969.73	223.12
970.02	223.12
970.32	223.11
970.61	223.09
970.91	223.06
971.20	223.04
971.49	223.03
971.79	223.05
972.08	222.97
972.38	222.99
972.67	222.98
972.96	222.99
973.26	222.98
973.55	223.01
973.85	223.00
974.14	222.99
974.43	223.00
974.73	222.99
975.02	222.98
975.31	222.98
975.61	222.97
975.90	222.95
976.19	222.94
976.49	222.95
976.78	222.96
977.07	222.96
977.37	222.97
977.66	222.98
977.95	222.97
978.24	222.98
978.54	223.00
978.83	223.00
979.12	222.99
979.42	222.99
979.71	222.97
980.00	222.97
980.29	222.98
980.59	222.96
980.88	222.99
981.17	222.98
981.46	222.99
981.76	222.99
982.05	223.03
982.34	223.03
982.63	223.03
982.93	223.02
983.22	223.04
983.51	223.04
983.80	223.05
984.09	223.07
984.39	223.06
984.68	223.04
984.97	223.04
985.26	223.03
985.55	223.03
985.85	223.01
986.14	223.03
986.43	223.03
986.72	223.02
987.01	222.98
987.30	222.98
987.59	222.97
987.89	222.98
988.18	222.95
988.47	222.94
988.76	222.93
989.05	222.93
989.34	222.92
989.63	222.95
989.92	222.94
990.22	222.92
990.51	222.91
990.80	222.90
991.09	222.90
991.38	222.93
991.67	222.92
991.96	222.91
992.25	222.92
992.54	222.89
992.83	222.91
993.12	222.90
993.41	222.91
993.70	222.95
993.99	222.96
994.28	222.98
994.58	223.00
994.87	222.98
995.16	222.98
995.45	222.96
995.74	222.92
996.03	222.94
996.32	222.96
996.61	222.99
996.90	222.99
997.19	222.98
997.48	222.98
997.77	222.96
998.06	222.98
998.34	222.96
998.63	222.97
998.92	222.97
999.21	223.00
999.50	223.00
999.79	222.98
1000.08	222.98
1000.37	222.97
1000.66	222.96
1000.95	222.99
1001.24	223.01
1001.53	223.03
1001.82	223.03
1002.11	223.00
1002.40	223.00
1002.68	223.02
1002.97	223.10
1003.26	223.09
1003.55	223.08
1003.84	223.08
1004.13	223.12
1004.42	223.12
1004.71	223.11
1004.99	223.11
1005.28	223.12
1005.57	223.10
1005.86	223.09
1006.15	223.08
1006.44	223.07
1006.72	223.09
1007.01	223.07
1007.30	223.07
1007.59	223.06
1007.88	223.06
1008.17	223.07
1008.45	223.05
1008.74	223.01
1009.03	222.94
1009.32	222.95
1009.60	222.95
1009.89	222.95
1010.18	222.90
1010.47	222.90
1010.76	222.91
1011.04	222.91
1011.33	222.91
1011.62	222.93
1011.91	222.95
1012.19	222.96
1012.48	222.97
1012.77	222.96
1013.05	222.99
1013.34	222.98
1013.63	222.97
1013.92	222.98
1014.20	222.97
1014.49	222.97
1014.78	222.98
1015.06	222.95
1015.35	222.95
1015.64	222.96
1015.92	222.97
1016.21	222.98
1016.50	222.97
1016.78	222.97
1017.07	222.99
1017.36	222.96
1017.64	222.95
1017.93	222.95
1018.22	222.93
1018.50	222.92
1018.79	222.93
1019.08	222.89
1019.36	222.90
1019.65	222.89
1019.93	222.92
1020.22	222.94
1020.51	223.00
1020.79	223.00
1021.08	222.74
1021.36	222.71
1021.65	223.14
1021.94	222.93
1022.22	222.85
1022.51	222.74
1022.79	223.48
1023.08	223.13
1023.36	224.06
1023.65	222.83
>>>>>End Processed Spectral Data<<<<<
