SpectraSuite Data File
++++++++++++++++++++++++++++++++++++
Date: Thu Oct 01 11:25:55 EDT 2015
User: lab3
Dark Spectrum Present: No
Reference Spectrum Present: No
Number of Sampled Component Spectra: 1
Spectrometers: USB2E7196
Integration Time (usec): 36000 (USB2E7196)
Spectra Averaged: 10000 (USB2E7196)
Boxcar Smoothing: 10 (USB2E7196)
Correct for Electrical Dark: No (USB2E7196)
Strobe/Lamp Enabled: No (USB2E7196)
Correct for Detector Non-linearity: No (USB2E7196)
Correct for Stray Light: No (USB2E7196)
Number of Pixels in Processed Spectrum: 2048
>>>>>Begin Processed Spectral Data<<<<<
339.09	0.00
339.48	211.25
339.86	212.76
340.24	214.16
340.63	215.59
341.01	218.51
341.39	218.29
341.78	219.57
342.16	220.81
342.54	221.24
342.93	209.83
343.31	220.44
343.69	220.98
344.07	221.44
344.46	221.86
344.84	222.25
345.22	222.48
345.60	222.74
345.99	222.94
346.37	223.07
346.75	223.18
347.13	223.25
347.52	223.32
347.90	223.40
348.28	223.44
348.66	223.49
349.05	223.49
349.43	223.54
349.81	223.60
350.19	223.66
350.57	223.72
350.96	223.80
351.34	223.90
351.72	223.99
352.10	224.10
352.48	224.18
352.87	224.23
353.25	224.30
353.63	224.36
354.01	224.42
354.39	224.50
354.77	224.58
355.15	224.68
355.54	224.73
355.92	224.77
356.30	224.84
356.68	224.97
357.06	225.05
357.44	225.10
357.82	225.16
358.20	225.27
358.58	225.34
358.97	225.40
359.35	225.48
359.73	225.56
360.11	225.61
360.49	225.68
360.87	225.72
361.25	225.79
361.63	225.87
362.01	225.92
362.39	225.95
362.77	225.99
363.15	226.02
363.53	226.06
363.91	226.09
364.29	226.12
364.67	226.04
365.05	226.07
365.43	226.10
365.81	226.13
366.19	226.14
366.57	226.19
366.95	226.19
367.33	226.17
367.71	226.16
368.09	226.17
368.47	226.17
368.85	226.16
369.23	226.16
369.61	226.11
369.99	226.12
370.37	226.12
370.75	226.17
371.13	226.14
371.51	226.10
371.89	226.08
372.27	226.05
372.65	226.03
373.03	225.99
373.41	225.94
373.78	225.90
374.16	225.80
374.54	225.73
374.92	225.68
375.30	225.63
375.68	225.57
376.06	225.52
376.44	225.47
376.82	225.43
377.19	225.38
377.57	225.33
377.95	225.25
378.33	225.19
378.71	225.05
379.09	225.00
379.47	224.96
379.84	224.90
380.22	224.84
380.60	224.76
380.98	224.72
381.36	224.67
381.73	224.60
382.11	224.57
382.49	224.53
382.87	224.47
383.25	224.42
383.62	224.50
384.00	224.42
384.38	224.38
384.76	224.36
385.13	224.34
385.51	224.29
385.89	224.24
386.27	224.20
386.64	224.18
387.02	224.13
387.40	224.08
387.78	224.06
388.15	224.03
388.53	224.00
388.91	223.97
389.29	223.93
389.66	223.92
390.04	223.88
390.42	223.88
390.79	223.87
391.17	223.84
391.55	223.71
391.92	223.71
392.30	223.71
392.68	223.67
393.05	223.65
393.43	223.65
393.81	223.65
394.18	223.64
394.56	223.64
394.94	223.67
395.31	223.67
395.69	223.70
396.06	223.73
396.44	223.75
396.82	223.76
397.19	223.84
397.57	223.85
397.95	223.89
398.32	223.89
398.70	223.93
399.07	223.99
399.45	224.02
399.82	224.07
400.20	224.10
400.58	224.16
400.95	224.18
401.33	224.26
401.70	224.39
402.08	224.49
402.45	224.57
402.83	224.67
403.20	224.77
403.58	224.86
403.95	224.98
404.33	225.12
404.71	225.25
405.08	225.43
405.46	225.58
405.83	225.75
406.21	225.92
406.58	226.12
406.96	226.31
407.33	226.54
407.70	226.79
408.08	227.12
408.45	227.41
408.83	227.73
409.20	228.02
409.58	228.29
409.95	228.65
410.33	229.04
410.70	229.40
411.08	229.83
411.45	230.29
411.82	230.75
412.20	231.27
412.57	231.90
412.95	232.39
413.32	233.04
413.69	233.70
414.07	234.40
414.44	235.16
414.82	235.94
415.19	236.85
415.56	237.77
415.94	238.73
416.31	239.81
416.68	240.89
417.06	242.14
417.43	243.31
417.81	244.66
418.18	246.04
418.55	247.56
418.93	249.12
419.30	250.76
419.67	252.51
420.04	254.30
420.42	256.17
420.79	258.33
421.16	260.52
421.54	262.73
421.91	265.05
422.28	267.46
422.66	270.05
423.03	272.53
423.40	275.13
423.77	277.91
424.15	280.76
424.52	283.72
424.89	286.93
425.26	290.13
425.64	293.09
426.01	296.40
426.38	299.80
426.75	303.29
427.13	306.87
427.50	310.60
427.87	314.48
428.24	318.40
428.61	322.15
428.99	326.19
429.36	330.62
429.73	334.85
430.10	339.06
430.47	343.36
430.85	347.78
431.22	352.50
431.59	357.33
431.96	362.03
432.33	367.24
432.70	372.17
433.08	378.01
433.45	383.52
433.82	388.96
434.19	395.01
434.56	400.97
434.93	406.70
435.30	412.38
435.68	418.78
436.05	425.03
436.42	431.30
436.79	436.99
437.16	443.14
437.53	449.75
437.90	456.35
438.27	462.80
438.64	469.81
439.01	476.15
439.38	481.95
439.75	487.56
440.13	493.98
440.50	500.09
440.87	504.92
441.24	510.24
441.61	516.09
441.98	520.40
442.35	525.54
442.72	530.82
443.09	535.88
443.46	539.18
443.83	541.64
444.20	543.74
444.57	546.79
444.94	548.65
445.31	550.58
445.68	552.30
446.05	553.63
446.42	553.60
446.79	553.45
447.16	553.36
447.53	553.30
447.90	551.55
448.27	549.90
448.64	547.21
449.01	545.47
449.37	541.55
449.74	537.99
450.11	533.38
450.48	528.28
450.85	523.14
451.22	518.78
451.59	514.51
451.96	510.64
452.33	504.90
452.70	499.80
453.07	493.55
453.43	487.30
453.80	481.23
454.17	475.40
454.54	469.99
454.91	463.85
455.28	458.08
455.65	452.63
456.02	446.81
456.38	442.13
456.75	436.07
457.12	431.19
457.49	426.26
457.86	421.55
458.23	417.41
458.59	412.84
458.96	408.14
459.33	403.97
459.70	399.75
460.07	396.52
460.43	392.73
460.80	389.18
461.17	386.05
461.54	382.67
461.91	379.52
462.27	376.31
462.64	373.69
463.01	370.68
463.38	367.65
463.74	364.92
464.11	362.48
464.48	360.28
464.85	357.92
465.21	356.12
465.58	354.13
465.95	351.84
466.32	350.01
466.68	348.22
467.05	346.44
467.42	344.70
467.78	342.84
468.15	341.11
468.52	339.83
468.88	338.16
469.25	336.62
469.62	335.41
469.98	334.09
470.35	332.92
470.72	331.87
471.08	330.81
471.45	329.92
471.82	328.94
472.18	327.92
472.55	327.27
472.92	326.46
473.28	325.83
473.65	325.17
474.02	324.56
474.38	324.06
474.75	323.78
475.11	323.37
475.48	323.22
475.85	323.07
476.21	323.03
476.58	323.04
476.94	323.25
477.31	323.38
477.67	323.54
478.04	323.82
478.41	324.18
478.77	324.65
479.14	325.00
479.50	325.57
479.87	326.29
480.23	327.00
480.60	327.69
480.96	328.41
481.33	329.40
481.69	330.39
482.06	331.36
482.42	332.28
482.79	333.39
483.15	334.65
483.52	336.07
483.88	337.44
484.25	338.89
484.61	340.40
484.98	342.03
485.34	343.85
485.71	345.74
486.07	347.77
486.44	349.78
486.80	352.01
487.17	354.29
487.53	356.80
487.90	359.41
488.26	362.24
488.62	365.21
488.99	368.20
489.35	371.31
489.72	374.69
490.08	378.23
490.44	381.88
490.81	385.68
491.17	389.58
491.54	393.73
491.90	398.00
492.26	402.61
492.63	407.46
492.99	412.49
493.36	417.64
493.72	423.06
494.08	428.62
494.45	434.51
494.81	440.61
495.17	446.84
495.54	453.42
495.90	460.30
496.26	467.34
496.63	474.61
496.99	482.19
497.35	490.13
497.72	498.36
498.08	506.75
498.44	515.42
498.80	524.66
499.17	534.11
499.53	543.91
499.89	553.93
500.26	564.13
500.62	574.63
500.98	585.82
501.34	597.17
501.71	609.06
502.07	621.17
502.43	633.68
502.79	646.52
503.16	659.79
503.52	673.26
503.88	687.11
504.24	701.37
504.60	715.90
504.97	730.85
505.33	746.21
505.69	762.49
506.05	778.96
506.41	795.42
506.78	812.20
507.14	829.47
507.50	847.33
507.86	865.59
508.22	884.12
508.59	902.69
508.95	921.96
509.31	941.67
509.67	962.12
510.03	982.75
510.39	1003.62
510.75	1024.72
511.12	1046.12
511.48	1067.80
511.84	1089.60
512.20	1111.75
512.56	1135.01
512.92	1158.40
513.28	1181.49
513.64	1204.94
514.00	1228.81
514.37	1252.97
514.73	1277.20
515.09	1301.20
515.45	1325.65
515.81	1350.65
516.17	1375.67
516.53	1400.35
516.89	1425.11
517.25	1450.03
517.61	1475.17
517.97	1500.50
518.33	1525.55
518.69	1550.71
519.05	1576.16
519.41	1601.74
519.77	1627.54
520.13	1652.51
520.49	1677.70
520.85	1703.12
521.21	1728.39
521.57	1754.24
521.93	1779.39
522.29	1805.33
522.65	1831.02
523.01	1856.48
523.37	1881.13
523.73	1906.46
524.09	1932.00
524.45	1957.43
524.81	1982.35
525.17	2007.15
525.53	2031.48
525.89	2055.82
526.25	2080.39
526.61	2104.44
526.97	2128.71
527.33	2152.95
527.68	2176.98
528.04	2200.19
528.40	2223.20
528.76	2246.41
529.12	2268.55
529.48	2291.04
529.84	2311.66
530.20	2332.87
530.56	2353.68
530.91	2374.60
531.27	2395.02
531.63	2414.71
531.99	2433.88
532.35	2452.70
532.71	2471.62
533.07	2491.06
533.42	2509.05
533.78	2527.37
534.14	2545.68
534.50	2563.14
534.86	2581.18
535.21	2597.35
535.57	2613.38
535.93	2628.80
536.29	2642.95
536.65	2658.02
537.00	2671.95
537.36	2686.42
537.72	2699.80
538.08	2712.77
538.44	2724.64
538.79	2736.62
539.15	2746.98
539.51	2757.27
539.87	2767.25
540.22	2775.06
540.58	2783.05
540.94	2791.48
541.29	2798.45
541.65	2804.38
542.01	2809.82
542.37	2813.43
542.72	2819.04
543.08	2824.10
543.44	2828.91
543.79	2832.99
544.15	2836.01
544.51	2839.07
544.87	2841.22
545.22	2843.00
545.58	2843.90
545.94	2845.26
546.29	2845.11
546.65	2845.04
547.01	2845.10
547.36	2845.19
547.72	2845.44
548.07	2844.21
548.43	2842.37
548.79	2839.91
549.14	2837.44
549.50	2835.72
549.86	2832.93
550.21	2827.80
550.57	2823.07
550.92	2816.97
551.28	2811.50
551.64	2806.07
551.99	2800.91
552.35	2795.35
552.70	2789.33
553.06	2784.06
553.41	2778.29
553.77	2772.02
554.13	2766.54
554.48	2759.93
554.84	2751.79
555.19	2743.84
555.55	2735.35
555.90	2727.46
556.26	2720.50
556.61	2712.90
556.97	2703.04
557.32	2694.19
557.68	2685.70
558.03	2676.63
558.39	2668.29
558.74	2659.95
559.10	2650.43
559.45	2640.54
559.81	2631.08
560.16	2620.87
560.52	2610.29
560.87	2600.71
561.23	2590.67
561.58	2580.10
561.94	2569.36
562.29	2558.09
562.64	2547.48
563.00	2537.20
563.35	2526.78
563.71	2515.45
564.06	2503.63
564.42	2492.81
564.77	2481.66
565.12	2470.57
565.48	2459.26
565.83	2448.57
566.19	2437.95
566.54	2426.80
566.89	2414.93
567.25	2402.93
567.60	2391.80
567.96	2380.23
568.31	2367.19
568.66	2354.21
569.02	2342.31
569.37	2330.09
569.72	2318.43
570.08	2306.06
570.43	2293.15
570.78	2279.87
571.14	2266.44
571.49	2253.84
571.84	2241.51
572.20	2227.88
572.55	2214.65
572.90	2201.32
573.26	2186.96
573.61	2172.11
573.96	2157.66
574.31	2143.52
574.67	2129.55
575.02	2115.20
575.37	2100.37
575.72	2085.88
576.08	2071.94
576.43	2056.98
576.78	2042.18
577.13	2028.19
577.49	2014.09
577.84	2000.39
578.19	1985.91
578.54	1971.08
578.90	1955.72
579.25	1940.12
579.60	1925.91
579.95	1911.29
580.30	1896.74
580.66	1882.57
581.01	1868.02
581.36	1853.75
581.71	1840.06
582.06	1825.88
582.42	1811.78
582.77	1798.45
583.12	1784.72
583.47	1771.12
583.82	1757.61
584.17	1744.02
584.53	1730.22
584.88	1716.49
585.23	1702.35
585.58	1688.76
585.93	1675.61
586.28	1663.32
586.63	1650.77
586.98	1637.59
587.34	1624.62
587.69	1611.16
588.04	1597.98
588.39	1585.43
588.74	1572.42
589.09	1559.14
589.44	1545.88
589.79	1533.14
590.14	1520.29
590.49	1507.70
590.84	1494.91
591.19	1482.76
591.54	1470.07
591.89	1457.29
592.25	1444.84
592.60	1432.08
592.95	1419.84
593.30	1407.89
593.65	1395.66
594.00	1383.73
594.35	1372.50
594.70	1360.58
595.05	1349.70
595.40	1338.55
595.75	1326.86
596.10	1315.99
596.45	1305.33
596.80	1295.13
597.15	1284.74
597.50	1274.32
597.85	1264.10
598.19	1254.09
598.54	1243.47
598.89	1233.64
599.24	1224.09
599.59	1214.33
599.94	1205.58
600.29	1196.69
600.64	1187.55
600.99	1177.85
601.34	1168.59
601.69	1158.80
602.04	1150.03
602.39	1141.08
602.74	1132.40
603.08	1123.96
603.43	1115.01
603.78	1106.03
604.13	1097.15
604.48	1088.21
604.83	1079.54
605.18	1070.77
605.53	1061.94
605.87	1053.25
606.22	1044.78
606.57	1036.07
606.92	1027.48
607.27	1018.72
607.62	1010.10
607.96	1001.63
608.31	994.17
608.66	986.28
609.01	978.79
609.36	971.25
609.70	963.50
610.05	955.60
610.40	948.04
610.75	940.59
611.10	933.37
611.44	925.80
611.79	918.52
612.14	910.86
612.49	903.39
612.83	896.36
613.18	889.36
613.53	882.20
613.88	875.13
614.22	868.62
614.57	861.92
614.92	855.22
615.27	848.57
615.61	841.77
615.96	835.19
616.31	828.57
616.65	821.83
617.00	815.33
617.35	808.98
617.70	802.66
618.04	796.40
618.39	790.15
618.74	784.23
619.08	778.16
619.43	772.32
619.78	766.48
620.12	760.48
620.47	754.67
620.82	748.95
621.16	743.51
621.51	737.73
621.85	731.95
622.20	726.23
622.55	720.68
622.89	715.06
623.24	709.51
623.59	704.00
623.93	698.55
624.28	693.25
624.62	687.93
624.97	682.60
625.32	677.38
625.66	672.03
626.01	666.66
626.35	661.44
626.70	656.27
627.04	651.30
627.39	646.37
627.73	641.54
628.08	636.92
628.43	632.18
628.77	627.49
629.12	622.96
629.46	618.57
629.81	614.01
630.15	609.36
630.50	604.87
630.84	600.58
631.19	596.46
631.53	592.37
631.88	588.18
632.22	584.07
632.57	580.20
632.91	576.29
633.26	572.46
633.60	568.68
633.95	564.99
634.29	561.17
634.64	557.33
634.98	553.41
635.32	549.65
635.67	546.00
636.01	542.32
636.36	538.67
636.70	535.16
637.05	531.67
637.39	528.38
637.73	524.93
638.08	521.54
638.42	518.13
638.77	514.60
639.11	511.06
639.45	507.58
639.80	504.08
640.14	500.77
640.49	497.41
640.83	493.95
641.17	490.54
641.52	487.29
641.86	484.02
642.20	480.92
642.55	477.67
642.89	474.51
643.23	471.54
643.58	468.80
643.92	465.94
644.26	463.09
644.61	460.22
644.95	457.39
645.29	454.49
645.64	451.58
645.98	448.80
646.32	446.19
646.66	443.58
647.01	440.94
647.35	438.35
647.69	435.66
648.04	433.14
648.38	430.64
648.72	428.10
649.06	425.63
649.41	423.17
649.75	420.72
650.09	418.29
650.43	415.88
650.78	413.43
651.12	410.97
651.46	408.63
651.80	406.37
652.14	404.18
652.49	402.01
652.83	399.89
653.17	397.75
653.51	395.68
653.85	393.66
654.20	391.59
654.54	389.45
654.88	387.50
655.22	385.59
655.56	383.64
655.90	381.79
656.25	379.94
656.59	378.11
656.93	376.37
657.27	374.66
657.61	372.86
657.95	371.11
658.29	369.39
658.64	367.69
658.98	365.97
659.32	364.28
659.66	362.68
660.00	361.11
660.34	359.56
660.68	357.96
661.02	356.29
661.36	354.74
661.70	353.25
662.05	351.74
662.39	350.22
662.73	348.79
663.07	347.38
663.41	345.99
663.75	344.63
664.09	343.26
664.43	341.82
664.77	340.48
665.11	339.09
665.45	337.77
665.79	336.44
666.13	335.10
666.47	333.76
666.81	332.38
667.15	330.98
667.49	329.68
667.83	328.42
668.17	327.21
668.51	326.02
668.85	324.83
669.19	323.73
669.53	322.55
669.87	321.35
670.21	320.17
670.55	319.02
670.89	317.93
671.23	316.83
671.57	315.73
671.91	314.68
672.25	313.70
672.58	312.69
672.92	311.67
673.26	310.71
673.60	309.75
673.94	308.78
674.28	307.88
674.62	306.96
674.96	306.01
675.30	305.10
675.64	304.18
675.97	303.28
676.31	302.34
676.65	301.43
676.99	300.58
677.33	299.68
677.67	298.82
678.01	297.89
678.34	297.02
678.68	296.21
679.02	295.36
679.36	294.52
679.70	293.69
680.04	292.89
680.37	292.08
680.71	291.31
681.05	290.58
681.39	289.80
681.73	288.99
682.06	288.22
682.40	287.47
682.74	286.74
683.08	286.04
683.42	285.32
683.75	284.66
684.09	283.93
684.43	283.24
684.77	282.55
685.10	281.90
685.44	281.23
685.78	280.56
686.12	279.92
686.45	279.27
686.79	278.62
687.13	277.99
687.46	277.33
687.80	276.70
688.14	276.03
688.48	275.42
688.81	274.81
689.15	274.25
689.49	273.65
689.82	273.05
690.16	272.41
690.50	271.82
690.83	271.24
691.17	270.67
691.51	270.11
691.84	269.57
692.18	269.00
692.52	268.43
692.85	267.87
693.19	267.35
693.52	266.82
693.86	266.29
694.20	265.77
694.53	265.28
694.87	264.78
695.21	264.30
695.54	263.81
695.88	263.31
696.21	262.78
696.55	262.30
696.88	261.82
697.22	261.36
697.56	260.90
697.89	260.38
698.23	259.91
698.56	259.42
698.90	258.97
699.23	258.51
699.57	258.09
699.90	257.65
700.24	257.19
700.58	256.77
700.91	256.37
701.25	256.05
701.58	255.68
701.92	255.31
702.25	254.92
702.59	254.51
702.92	254.13
703.26	253.77
703.59	253.39
703.93	253.10
704.26	252.75
704.60	252.39
704.93	252.05
705.26	251.71
705.60	251.40
705.93	251.04
706.27	250.75
706.60	250.44
706.94	250.14
707.27	249.79
707.61	249.46
707.94	249.11
708.27	248.70
708.61	248.34
708.94	248.00
709.28	247.69
709.61	247.39
709.94	247.10
710.28	246.81
710.61	246.55
710.95	246.19
711.28	245.98
711.61	245.70
711.95	245.46
712.28	245.19
712.61	244.91
712.95	244.71
713.28	244.50
713.61	244.24
713.95	243.97
714.28	243.75
714.61	243.50
714.95	243.26
715.28	243.02
715.61	242.79
715.95	242.58
716.28	242.35
716.61	242.15
716.95	241.92
717.28	241.71
717.61	241.48
717.94	241.27
718.28	240.98
718.61	240.77
718.94	240.55
719.27	240.34
719.61	240.16
719.94	239.94
720.27	239.69
720.60	239.50
720.94	239.30
721.27	239.12
721.60	238.97
721.93	238.79
722.27	238.65
722.60	238.49
722.93	238.30
723.26	238.14
723.59	237.95
723.93	237.80
724.26	237.64
724.59	237.48
724.92	237.33
725.25	237.21
725.59	237.06
725.92	236.93
726.25	236.79
726.58	236.64
726.91	236.49
727.24	236.36
727.57	236.22
727.91	236.07
728.24	235.94
728.57	235.79
728.90	235.66
729.23	235.49
729.56	235.40
729.89	235.27
730.22	235.13
730.55	235.00
730.89	234.87
731.22	234.73
731.55	234.60
731.88	234.48
732.21	234.34
732.54	234.22
732.87	234.10
733.20	233.99
733.53	233.88
733.86	233.78
734.19	233.65
734.52	233.56
734.85	233.52
735.18	233.39
735.51	233.32
735.84	233.21
736.17	233.14
736.50	232.99
736.83	233.01
737.16	232.92
737.49	232.83
737.82	232.74
738.15	232.66
738.48	232.57
738.81	232.46
739.14	232.35
739.47	232.25
739.80	232.16
740.13	232.07
740.46	231.96
740.79	231.86
741.12	231.77
741.45	231.66
741.78	231.52
742.11	231.47
742.44	231.36
742.77	231.28
743.10	231.18
743.43	231.10
743.75	230.90
744.08	230.98
744.41	230.89
744.74	230.80
745.07	230.70
745.40	230.64
745.73	230.61
746.06	230.54
746.39	230.48
746.71	230.40
747.04	230.31
747.37	230.24
747.70	230.19
748.03	230.12
748.36	230.07
748.68	230.00
749.01	229.90
749.34	229.83
749.67	229.76
750.00	229.70
750.33	229.72
750.65	229.66
750.98	229.45
751.31	229.39
751.64	229.34
751.97	229.34
752.29	229.27
752.62	229.15
752.95	229.08
753.28	229.00
753.60	228.94
753.93	228.90
754.26	228.85
754.59	228.75
754.91	228.68
755.24	228.61
755.57	228.60
755.90	228.54
756.22	228.47
756.55	228.40
756.88	228.32
757.20	228.20
757.53	228.11
757.86	228.06
758.19	228.00
758.51	227.95
758.84	227.84
759.17	227.78
759.49	227.74
759.82	227.74
760.15	227.71
760.47	227.65
760.80	227.58
761.13	227.55
761.45	227.51
761.78	227.47
762.11	227.43
762.43	227.33
762.76	227.29
763.08	227.26
763.41	227.22
763.74	227.18
764.06	227.14
764.39	227.10
764.71	227.05
765.04	227.01
765.37	226.96
765.69	226.92
766.02	226.88
766.34	226.83
766.67	226.75
767.00	226.73
767.32	226.75
767.65	226.78
767.97	226.73
768.30	226.70
768.62	226.66
768.95	226.61
769.27	226.58
769.60	226.56
769.92	226.50
770.25	226.45
770.57	226.40
770.90	226.37
771.22	226.33
771.55	226.30
771.87	226.27
772.20	226.24
772.52	226.29
772.85	226.39
773.17	226.36
773.50	226.32
773.82	226.27
774.15	226.19
774.47	226.09
774.80	226.06
775.12	226.02
775.45	226.00
775.77	225.98
776.09	225.96
776.42	225.93
776.74	225.94
777.07	225.91
777.39	225.89
777.72	225.86
778.04	225.85
778.36	225.82
778.69	225.80
779.01	225.78
779.33	225.68
779.66	225.53
779.98	225.51
780.31	225.49
780.63	225.51
780.95	225.51
781.28	225.49
781.60	225.46
781.92	225.44
782.25	225.42
782.57	225.40
782.89	225.37
783.22	225.34
783.54	225.30
783.86	225.29
784.19	225.27
784.51	225.28
784.83	225.25
785.16	225.22
785.48	225.21
785.80	225.19
786.12	225.17
786.45	225.16
786.77	225.15
787.09	225.12
787.42	225.07
787.74	225.05
788.06	225.04
788.38	225.02
788.71	225.00
789.03	224.99
789.35	224.99
789.67	224.97
789.99	224.96
790.32	224.94
790.64	224.93
790.96	225.01
791.28	224.96
791.61	224.95
791.93	224.94
792.25	224.92
792.57	224.98
792.89	224.95
793.21	224.95
793.54	224.92
793.86	224.90
794.18	224.90
794.50	224.86
794.82	224.85
795.14	224.85
795.47	224.86
795.79	224.84
796.11	224.81
796.43	224.80
796.75	224.78
797.07	224.78
797.39	224.76
797.71	224.66
798.04	224.65
798.36	224.65
798.68	224.63
799.00	224.62
799.32	224.56
799.64	224.57
799.96	224.55
800.28	224.56
800.60	224.54
800.92	224.54
801.24	224.53
801.56	224.52
801.89	224.50
802.21	224.50
802.53	224.47
802.85	224.49
803.17	224.53
803.49	224.50
803.81	224.48
804.13	224.46
804.45	224.44
804.77	224.44
805.09	224.43
805.41	224.42
805.73	224.39
806.05	224.35
806.37	224.33
806.69	224.31
807.01	224.30
807.33	224.30
807.65	224.25
807.97	224.29
808.28	224.27
808.60	224.26
808.92	224.24
809.24	224.29
809.56	224.26
809.88	224.22
810.20	224.22
810.52	224.23
810.84	224.21
811.16	224.19
811.48	224.18
811.80	224.21
812.12	224.20
812.43	224.22
812.75	224.22
813.07	224.21
813.39	224.21
813.71	224.19
814.03	224.17
814.35	224.18
814.67	224.12
814.98	224.11
815.30	224.10
815.62	224.08
815.94	224.01
816.26	224.01
816.58	223.99
816.89	223.99
817.21	223.96
817.53	223.96
817.85	223.96
818.17	223.95
818.48	223.90
818.80	223.92
819.12	223.89
819.44	223.87
819.76	223.86
820.07	223.85
820.39	223.84
820.71	223.85
821.03	223.84
821.34	223.83
821.66	223.84
821.98	223.85
822.30	223.84
822.61	223.90
822.93	223.88
823.25	223.88
823.57	223.86
823.88	223.88
824.20	223.87
824.52	223.88
824.83	223.88
825.15	223.86
825.47	223.85
825.79	223.86
826.10	223.85
826.42	223.84
826.74	223.85
827.05	223.85
827.37	223.84
827.69	223.84
828.00	223.84
828.32	223.84
828.64	223.82
828.95	223.87
829.27	223.83
829.58	223.83
829.90	223.85
830.22	223.85
830.53	223.83
830.85	223.82
831.17	223.79
831.48	223.79
831.80	223.79
832.11	223.78
832.43	223.76
832.75	223.76
833.06	223.82
833.38	223.79
833.69	223.78
834.01	223.79
834.32	223.78
834.64	223.77
834.96	223.76
835.27	223.76
835.59	223.72
835.90	223.71
836.22	223.70
836.53	223.67
836.85	223.66
837.16	223.76
837.48	223.76
837.79	223.79
838.11	223.79
838.42	223.79
838.74	223.80
839.05	223.79
839.37	223.78
839.68	223.71
840.00	223.71
840.31	223.72
840.63	223.71
840.94	223.70
841.26	223.69
841.57	223.68
841.88	223.69
842.20	223.67
842.51	223.66
842.83	223.65
843.14	223.74
843.46	223.74
843.77	223.67
844.08	223.67
844.40	223.63
844.71	223.62
845.03	223.61
845.34	223.60
845.65	223.60
845.97	223.60
846.28	223.60
846.60	223.61
846.91	223.59
847.22	223.58
847.54	223.60
847.85	223.60
848.16	223.59
848.48	223.57
848.79	223.61
849.10	223.62
849.42	223.62
849.73	223.53
850.04	223.53
850.36	223.49
850.67	223.50
850.98	223.51
851.30	223.51
851.61	223.51
851.92	223.50
852.23	223.54
852.55	223.54
852.86	223.54
853.17	223.54
853.49	223.56
853.80	223.58
854.11	223.58
854.42	223.60
854.74	223.59
855.05	223.59
855.36	223.54
855.67	223.54
855.99	223.54
856.30	223.66
856.61	223.65
856.92	223.65
857.23	223.65
857.55	223.64
857.86	223.63
858.17	223.65
858.48	223.63
858.79	223.60
859.11	223.61
859.42	223.60
859.73	223.59
860.04	223.58
860.35	223.55
860.66	223.52
860.98	223.51
861.29	223.53
861.60	223.52
861.91	223.54
862.22	223.52
862.53	223.51
862.84	223.39
863.16	223.41
863.47	223.39
863.78	223.37
864.09	223.38
864.40	223.39
864.71	223.39
865.02	223.40
865.33	223.39
865.64	223.37
865.95	223.38
866.27	223.44
866.58	223.43
866.89	223.44
867.20	223.44
867.51	223.43
867.82	223.42
868.13	223.45
868.44	223.43
868.75	223.45
869.06	223.45
869.37	223.46
869.68	223.44
869.99	223.46
870.30	223.46
870.61	223.47
870.92	223.45
871.23	223.44
871.54	223.45
871.85	223.48
872.16	223.49
872.47	223.48
872.78	223.42
873.09	223.43
873.40	223.41
873.71	223.42
874.02	223.43
874.33	223.42
874.64	223.39
874.95	223.41
875.26	223.39
875.56	223.39
875.87	223.38
876.18	223.38
876.49	223.47
876.80	223.46
877.11	223.44
877.42	223.45
877.73	223.45
878.04	223.43
878.35	223.42
878.66	223.42
878.96	223.42
879.27	223.42
879.58	223.41
879.89	223.41
880.20	223.43
880.51	223.43
880.82	223.43
881.12	223.43
881.43	223.41
881.74	223.40
882.05	223.39
882.36	223.40
882.67	223.41
882.97	223.30
883.28	223.29
883.59	223.29
883.90	223.29
884.21	223.31
884.51	223.30
884.82	223.29
885.13	223.29
885.44	223.29
885.74	223.29
886.05	223.28
886.36	223.28
886.67	223.24
886.98	223.29
887.28	223.30
887.59	223.30
887.90	223.30
888.20	223.29
888.51	223.31
888.82	223.30
889.13	223.30
889.43	223.39
889.74	223.38
890.05	223.39
890.35	223.37
890.66	223.36
890.97	223.35
891.28	223.34
891.58	223.34
891.89	223.34
892.20	223.33
892.50	223.32
892.81	223.31
893.12	223.31
893.42	223.26
893.73	223.26
894.04	223.27
894.34	223.28
894.65	223.27
894.95	223.26
895.26	223.27
895.57	223.31
895.87	223.20
896.18	223.22
896.48	223.23
896.79	223.22
897.10	223.24
897.40	223.24
897.71	223.25
898.01	223.25
898.32	223.26
898.63	223.26
898.93	223.27
899.24	223.27
899.54	223.27
899.85	223.26
900.15	223.26
900.46	223.25
900.76	223.26
901.07	223.26
901.38	223.25
901.68	223.26
901.99	223.21
902.29	223.22
902.60	223.21
902.90	223.20
903.21	223.20
903.51	223.19
903.82	223.21
904.12	223.21
904.43	223.22
904.73	223.21
905.03	223.21
905.34	223.30
905.64	223.30
905.95	223.30
906.25	223.30
906.56	223.29
906.86	223.29
907.17	223.29
907.47	223.29
907.77	223.29
908.08	223.27
908.38	223.27
908.69	223.28
908.99	223.29
909.30	223.30
909.60	223.30
909.90	223.30
910.21	223.27
910.51	223.26
910.81	223.26
911.12	223.27
911.42	223.27
911.73	223.17
912.03	223.18
912.33	223.20
912.64	223.19
912.94	223.18
913.24	223.16
913.55	223.15
913.85	223.14
914.15	223.16
914.46	223.17
914.76	223.16
915.06	223.15
915.37	223.14
915.67	223.13
915.97	223.13
916.27	223.11
916.58	223.12
916.88	223.11
917.18	223.10
917.49	223.16
917.79	223.16
918.09	223.17
918.39	223.19
918.70	223.18
919.00	223.19
919.30	223.24
919.60	223.23
919.91	223.22
920.21	223.23
920.51	223.21
920.81	223.20
921.12	223.22
921.42	223.22
921.72	223.22
922.02	223.23
922.32	223.24
922.63	223.25
922.93	223.30
923.23	223.31
923.53	223.30
923.83	223.23
924.13	223.24
924.44	223.23
924.74	223.25
925.04	223.27
925.34	223.27
925.64	223.22
925.94	223.22
926.24	223.28
926.55	223.27
926.85	223.28
927.15	223.28
927.45	223.27
927.75	223.27
928.05	223.27
928.35	223.26
928.65	223.27
928.95	223.28
929.26	223.23
929.56	223.24
929.86	223.26
930.16	223.25
930.46	223.24
930.76	223.25
931.06	223.20
931.36	223.17
931.66	223.18
931.96	223.20
932.26	223.21
932.56	223.16
932.86	223.17
933.16	223.17
933.46	223.16
933.76	223.14
934.06	223.17
934.36	223.20
934.66	223.20
934.96	223.18
935.26	223.18
935.56	223.19
935.86	223.17
936.16	223.15
936.46	223.14
936.76	223.13
937.06	223.12
937.36	223.13
937.66	223.13
937.96	223.12
938.26	223.10
938.56	223.09
938.86	223.10
939.16	223.11
939.46	223.12
939.76	223.13
940.06	223.13
940.35	223.11
940.65	223.07
940.95	223.08
941.25	223.05
941.55	223.04
941.85	223.03
942.15	223.05
942.45	223.08
942.75	223.08
943.04	223.08
943.34	223.10
943.64	223.09
943.94	223.07
944.24	223.07
944.54	223.08
944.84	223.08
945.13	223.06
945.43	223.04
945.73	223.04
946.03	223.03
946.33	223.02
946.62	223.01
946.92	223.01
947.22	223.01
947.52	223.02
947.82	223.03
948.11	223.02
948.41	223.00
948.71	222.97
949.01	222.98
949.31	222.97
949.60	222.96
949.90	222.98
950.20	222.97
950.50	222.97
950.79	222.96
951.09	222.98
951.39	222.98
951.69	222.97
951.98	222.99
952.28	222.99
952.58	222.99
952.87	223.00
953.17	223.01
953.47	222.99
953.76	222.99
954.06	222.98
954.36	222.97
954.66	222.97
954.95	223.00
955.25	223.00
955.55	223.01
955.84	223.00
956.14	223.00
956.44	223.01
956.73	223.00
957.03	223.00
957.32	223.00
957.62	223.00
957.92	223.02
958.21	223.00
958.51	223.12
958.81	223.14
959.10	223.15
959.40	223.17
959.69	223.18
959.99	223.19
960.29	223.19
960.58	223.19
960.88	223.23
961.17	223.22
961.47	223.22
961.76	223.21
962.06	223.23
962.36	223.22
962.65	223.22
962.95	223.23
963.24	223.21
963.54	223.21
963.83	223.22
964.13	223.21
964.42	223.20
964.72	223.11
965.01	223.11
965.31	223.10
965.60	223.08
965.90	223.14
966.19	223.11
966.49	223.12
966.78	223.11
967.08	223.10
967.37	223.10
967.67	223.08
967.96	223.09
968.26	223.09
968.55	223.10
968.85	223.10
969.14	223.09
969.43	223.10
969.73	223.09
970.02	223.08
970.32	223.07
970.61	223.05
970.91	223.02
971.20	223.01
971.49	223.00
971.79	223.01
972.08	222.94
972.38	222.95
972.67	222.94
972.96	222.96
973.26	222.94
973.55	222.97
973.85	222.97
974.14	222.96
974.43	222.96
974.73	222.94
975.02	222.93
975.31	222.94
975.61	222.93
975.90	222.92
976.19	222.92
976.49	222.93
976.78	222.94
977.07	222.94
977.37	222.94
977.66	222.96
977.95	222.94
978.24	222.95
978.54	222.96
978.83	222.96
979.12	222.95
979.42	222.95
979.71	222.93
980.00	222.93
980.29	222.93
980.59	222.91
980.88	222.94
981.17	222.94
981.46	222.94
981.76	222.94
982.05	222.97
982.34	222.98
982.63	222.98
982.93	222.98
983.22	223.01
983.51	223.01
983.80	223.02
984.09	223.03
984.39	223.03
984.68	223.02
984.97	223.02
985.26	223.02
985.55	223.02
985.85	223.01
986.14	223.02
986.43	223.03
986.72	223.03
987.01	223.00
987.30	223.00
987.59	222.99
987.89	223.00
988.18	222.96
988.47	222.96
988.76	222.95
989.05	222.94
989.34	222.92
989.63	222.94
989.92	222.93
990.22	222.92
990.51	222.92
990.80	222.91
991.09	222.92
991.38	222.93
991.67	222.92
991.96	222.91
992.25	222.91
992.54	222.89
992.83	222.90
993.12	222.89
993.41	222.91
993.70	222.95
993.99	222.97
994.28	222.99
994.58	223.00
994.87	223.00
995.16	223.00
995.45	222.99
995.74	222.95
996.03	222.97
996.32	222.99
996.61	223.01
996.90	223.01
997.19	223.00
997.48	223.00
997.77	223.00
998.06	223.01
998.34	222.99
998.63	222.99
998.92	223.00
999.21	223.01
999.50	223.01
999.79	222.98
1000.08	222.97
1000.37	222.97
1000.66	222.95
1000.95	222.98
1001.24	222.98
1001.53	223.01
1001.82	223.00
1002.11	222.98
1002.40	222.98
1002.68	223.00
1002.97	223.07
1003.26	223.06
1003.55	223.05
1003.84	223.06
1004.13	223.09
1004.42	223.09
1004.71	223.09
1004.99	223.08
1005.28	223.10
1005.57	223.09
1005.86	223.08
1006.15	223.07
1006.44	223.06
1006.72	223.07
1007.01	223.05
1007.30	223.05
1007.59	223.04
1007.88	223.04
1008.17	223.04
1008.45	223.02
1008.74	222.98
1009.03	222.93
1009.32	222.93
1009.60	222.93
1009.89	222.93
1010.18	222.88
1010.47	222.88
1010.76	222.88
1011.04	222.88
1011.33	222.88
1011.62	222.88
1011.91	222.89
1012.19	222.89
1012.48	222.90
1012.77	222.90
1013.05	222.93
1013.34	222.93
1013.63	222.92
1013.92	222.93
1014.20	222.93
1014.49	222.93
1014.78	222.95
1015.06	222.91
1015.35	222.91
1015.64	222.92
1015.92	222.94
1016.21	222.94
1016.50	222.95
1016.78	222.96
1017.07	222.97
1017.36	222.95
1017.64	222.94
1017.93	222.94
1018.22	222.93
1018.50	222.93
1018.79	222.93
1019.08	222.89
1019.36	222.89
1019.65	222.88
1019.93	222.91
1020.22	222.92
1020.51	222.97
1020.79	222.96
1021.08	222.75
1021.36	222.74
1021.65	222.97
1021.94	222.82
1022.22	222.96
1022.51	222.68
1022.79	223.40
1023.08	223.07
1023.36	224.12
1023.65	222.71
>>>>>End Processed Spectral Data<<<<<
