SpectraSuite Data File
++++++++++++++++++++++++++++++++++++
Date: Wed Sep 30 16:56:10 EDT 2015
User: lab3
Dark Spectrum Present: No
Reference Spectrum Present: No
Number of Sampled Component Spectra: 1
Spectrometers: USB2E7196
Integration Time (usec): 36000 (USB2E7196)
Spectra Averaged: 3000 (USB2E7196)
Boxcar Smoothing: 10 (USB2E7196)
Correct for Electrical Dark: No (USB2E7196)
Strobe/Lamp Enabled: No (USB2E7196)
Correct for Detector Non-linearity: No (USB2E7196)
Correct for Stray Light: No (USB2E7196)
Number of Pixels in Processed Spectrum: 2048
>>>>>Begin Processed Spectral Data<<<<<
339.09	0.00
339.48	210.43
339.86	211.99
340.24	213.37
340.63	214.78
341.01	217.76
341.39	217.45
341.78	218.78
342.16	219.96
342.54	220.50
342.93	209.05
343.31	219.61
343.69	220.15
344.07	220.60
344.46	221.03
344.84	221.41
345.22	221.64
345.60	221.89
345.99	222.09
346.37	222.22
346.75	222.32
347.13	222.40
347.52	222.46
347.90	222.54
348.28	222.58
348.66	222.63
349.05	222.63
349.43	222.68
349.81	222.74
350.19	222.80
350.57	222.87
350.96	222.94
351.34	223.03
351.72	223.13
352.10	223.24
352.48	223.31
352.87	223.37
353.25	223.44
353.63	223.50
354.01	223.56
354.39	223.64
354.77	223.72
355.15	223.82
355.54	223.87
355.92	223.91
356.30	223.99
356.68	224.11
357.06	224.19
357.44	224.23
357.82	224.29
358.20	224.40
358.58	224.46
358.97	224.53
359.35	224.61
359.73	224.68
360.11	224.74
360.49	224.80
360.87	224.85
361.25	224.90
361.63	224.99
362.01	225.05
362.39	225.07
362.77	225.12
363.15	225.14
363.53	225.18
363.91	225.21
364.29	225.23
364.67	225.16
365.05	225.18
365.43	225.21
365.81	225.24
366.19	225.26
366.57	225.31
366.95	225.31
367.33	225.29
367.71	225.27
368.09	225.29
368.47	225.28
368.85	225.27
369.23	225.28
369.61	225.22
369.99	225.23
370.37	225.23
370.75	225.29
371.13	225.25
371.51	225.21
371.89	225.19
372.27	225.16
372.65	225.14
373.03	225.11
373.41	225.06
373.78	225.02
374.16	224.92
374.54	224.85
374.92	224.80
375.30	224.76
375.68	224.70
376.06	224.66
376.44	224.60
376.82	224.56
377.19	224.51
377.57	224.46
377.95	224.38
378.33	224.32
378.71	224.18
379.09	224.13
379.47	224.10
379.84	224.04
380.22	223.98
380.60	223.90
380.98	223.85
381.36	223.80
381.73	223.73
382.11	223.71
382.49	223.67
382.87	223.61
383.25	223.56
383.62	223.63
384.00	223.56
384.38	223.52
384.76	223.50
385.13	223.49
385.51	223.45
385.89	223.39
386.27	223.36
386.64	223.33
387.02	223.28
387.40	223.23
387.78	223.21
388.15	223.19
388.53	223.16
388.91	223.13
389.29	223.09
389.66	223.08
390.04	223.04
390.42	223.02
390.79	223.01
391.17	222.98
391.55	222.85
391.92	222.84
392.30	222.84
392.68	222.80
393.05	222.77
393.43	222.76
393.81	222.77
394.18	222.75
394.56	222.75
394.94	222.78
395.31	222.78
395.69	222.81
396.06	222.84
396.44	222.86
396.82	222.87
397.19	222.95
397.57	222.96
397.95	223.01
398.32	223.01
398.70	223.04
399.07	223.11
399.45	223.14
399.82	223.18
400.20	223.21
400.58	223.27
400.95	223.29
401.33	223.37
401.70	223.50
402.08	223.58
402.45	223.65
402.83	223.75
403.20	223.85
403.58	223.93
403.95	224.05
404.33	224.18
404.71	224.30
405.08	224.47
405.46	224.61
405.83	224.77
406.21	224.93
406.58	225.12
406.96	225.30
407.33	225.51
407.70	225.74
408.08	226.06
408.45	226.34
408.83	226.64
409.20	226.92
409.58	227.17
409.95	227.52
410.33	227.88
410.70	228.23
411.08	228.64
411.45	229.07
411.82	229.50
412.20	230.01
412.57	230.59
412.95	231.06
413.32	231.66
413.69	232.28
414.07	232.94
414.44	233.66
414.82	234.39
415.19	235.25
415.56	236.12
415.94	237.02
416.31	238.03
416.68	239.04
417.06	240.21
417.43	241.31
417.81	242.58
418.18	243.87
418.55	245.28
418.93	246.74
419.30	248.28
419.67	249.91
420.04	251.58
420.42	253.33
420.79	255.36
421.16	257.41
421.54	259.49
421.91	261.66
422.28	263.91
422.66	266.35
423.03	268.67
423.40	271.10
423.77	273.71
424.15	276.39
424.52	279.17
424.89	282.19
425.26	285.19
425.64	287.96
426.01	291.09
426.38	294.29
426.75	297.59
427.13	300.97
427.50	304.50
427.87	308.17
428.24	311.88
428.61	315.42
428.99	319.25
429.36	323.45
429.73	327.46
430.10	331.45
430.47	335.55
430.85	339.74
431.22	344.22
431.59	348.83
431.96	353.30
432.33	358.25
432.70	362.95
433.08	368.50
433.45	373.75
433.82	378.90
434.19	384.64
434.56	390.31
434.93	395.75
435.30	401.13
435.68	407.19
436.05	413.11
436.42	419.04
436.79	424.43
437.16	430.26
437.53	436.49
437.90	442.71
438.27	448.79
438.64	455.40
439.01	461.36
439.38	466.79
439.75	472.04
440.13	478.04
440.50	483.73
440.87	488.21
441.24	493.15
441.61	498.62
441.98	502.63
442.35	507.39
442.72	512.27
443.09	516.97
443.46	519.99
443.83	522.24
444.20	524.14
444.57	526.91
444.94	528.57
445.31	530.29
445.68	531.85
446.05	533.03
446.42	532.91
446.79	532.72
447.16	532.58
447.53	532.48
447.90	530.79
448.27	529.22
448.64	526.69
449.01	525.05
449.37	521.37
449.74	518.00
450.11	513.66
450.48	508.87
450.85	504.05
451.22	499.98
451.59	495.98
451.96	492.36
452.33	487.01
452.70	482.25
453.07	476.43
453.43	470.58
453.80	464.92
454.17	459.50
454.54	454.46
454.91	448.76
455.28	443.40
455.65	438.33
456.02	432.94
456.38	428.58
456.75	422.94
457.12	418.39
457.49	413.82
457.86	409.44
458.23	405.62
458.59	401.38
458.96	397.00
459.33	393.16
459.70	389.25
460.07	386.27
460.43	382.75
460.80	379.45
461.17	376.55
461.54	373.43
461.91	370.49
462.27	367.51
462.64	365.07
463.01	362.26
463.38	359.45
463.74	356.87
464.11	354.60
464.48	352.53
464.85	350.32
465.21	348.63
465.58	346.76
465.95	344.60
466.32	342.87
466.68	341.19
467.05	339.49
467.42	337.84
467.78	336.06
468.15	334.41
468.52	333.20
468.88	331.60
469.25	330.13
469.62	328.97
469.98	327.71
470.35	326.59
470.72	325.57
471.08	324.54
471.45	323.68
471.82	322.73
472.18	321.76
472.55	321.12
472.92	320.33
473.28	319.72
473.65	319.09
474.02	318.49
474.38	317.99
474.75	317.70
475.11	317.29
475.48	317.13
475.85	316.98
476.21	316.92
476.58	316.91
476.94	317.09
477.31	317.19
477.67	317.33
478.04	317.58
478.41	317.89
478.77	318.33
479.14	318.65
479.50	319.18
479.87	319.86
480.23	320.54
480.60	321.19
480.96	321.87
481.33	322.80
481.69	323.74
482.06	324.67
482.42	325.54
482.79	326.61
483.15	327.82
483.52	329.17
483.88	330.48
484.25	331.88
484.61	333.33
484.98	334.90
485.34	336.65
485.71	338.47
486.07	340.43
486.44	342.36
486.80	344.50
487.17	346.71
487.53	349.12
487.90	351.64
488.26	354.38
488.62	357.25
488.99	360.12
489.35	363.13
489.72	366.37
490.08	369.79
490.44	373.28
490.81	376.94
491.17	380.70
491.54	384.73
491.90	388.84
492.26	393.27
492.63	397.93
492.99	402.78
493.36	407.77
493.72	413.01
494.08	418.38
494.45	424.07
494.81	429.94
495.17	435.94
495.54	442.27
495.90	448.91
496.26	455.69
496.63	462.72
496.99	470.02
497.35	477.69
497.72	485.64
498.08	493.77
498.44	502.15
498.80	511.05
499.17	520.17
499.53	529.61
499.89	539.29
500.26	549.16
500.62	559.28
500.98	570.05
501.34	580.97
501.71	592.42
502.07	604.09
502.43	616.16
502.79	628.58
503.16	641.39
503.52	654.38
503.88	667.71
504.24	681.46
504.60	695.50
504.97	709.89
505.33	724.66
505.69	740.33
506.05	756.21
506.41	772.11
506.78	788.33
507.14	805.05
507.50	822.32
507.86	839.97
508.22	857.87
508.59	875.81
508.95	894.46
509.31	913.54
509.67	933.31
510.03	953.30
510.39	973.49
510.75	993.89
511.12	1014.57
511.48	1035.59
511.84	1056.78
512.20	1078.26
512.56	1100.87
512.92	1123.64
513.28	1146.13
513.64	1168.93
514.00	1192.18
514.37	1215.72
514.73	1239.26
515.09	1262.68
515.45	1286.48
515.81	1310.85
516.17	1335.28
516.53	1359.44
516.89	1383.67
517.25	1408.05
517.61	1432.66
517.97	1457.48
518.33	1482.14
518.69	1506.99
519.05	1532.12
519.41	1557.31
519.77	1582.81
520.13	1607.54
520.49	1632.48
520.85	1657.62
521.21	1682.60
521.57	1708.21
521.93	1733.11
522.29	1758.80
522.65	1784.27
523.01	1809.57
523.37	1834.10
523.73	1859.30
524.09	1884.70
524.45	1910.00
524.81	1934.87
525.17	1959.57
525.53	1983.90
525.89	2008.16
526.25	2032.59
526.61	2056.45
526.97	2080.67
527.33	2104.79
527.68	2128.75
528.04	2151.93
528.40	2174.96
528.76	2198.24
529.12	2220.43
529.48	2243.14
529.84	2264.02
530.20	2285.40
530.56	2306.48
530.91	2327.69
531.27	2348.36
531.63	2368.38
531.99	2387.90
532.35	2407.23
532.71	2426.73
533.07	2446.77
533.42	2465.26
533.78	2484.22
534.14	2503.08
534.50	2521.05
534.86	2539.68
535.21	2556.54
535.57	2573.29
535.93	2589.23
536.29	2603.92
536.65	2619.41
537.00	2633.82
537.36	2648.90
537.72	2662.92
538.08	2676.70
538.44	2689.35
538.79	2702.19
539.15	2713.29
539.51	2724.21
539.87	2734.57
540.22	2742.84
540.58	2751.29
540.94	2760.35
541.29	2767.82
541.65	2774.43
542.01	2780.57
542.37	2784.76
542.72	2790.79
543.08	2796.32
543.44	2801.77
543.79	2806.57
544.15	2810.54
544.51	2814.33
544.87	2817.18
545.22	2819.64
545.58	2821.05
545.94	2822.94
546.29	2823.38
546.65	2823.99
547.01	2824.68
547.36	2825.58
547.72	2826.77
548.07	2826.35
548.43	2825.34
548.79	2823.68
549.14	2821.98
549.50	2820.84
549.86	2818.83
550.21	2814.56
550.57	2810.80
550.92	2805.51
551.28	2800.83
551.64	2795.92
551.99	2791.45
552.35	2786.60
552.70	2781.24
553.06	2776.52
553.41	2771.27
553.77	2765.50
554.13	2760.37
554.48	2754.36
554.84	2746.78
555.19	2739.20
555.55	2730.98
555.90	2723.29
556.26	2716.69
556.61	2709.52
556.97	2700.17
557.32	2691.95
557.68	2683.89
558.03	2675.12
558.39	2667.21
558.74	2659.41
559.10	2650.53
559.45	2641.25
559.81	2632.02
560.16	2622.34
560.52	2612.21
560.87	2603.12
561.23	2593.62
561.58	2583.72
561.94	2573.68
562.29	2563.01
562.64	2552.88
563.00	2543.19
563.35	2533.38
563.71	2522.50
564.06	2511.22
564.42	2500.95
564.77	2490.20
565.12	2479.53
565.48	2468.52
565.83	2458.16
566.19	2447.91
566.54	2437.09
566.89	2425.49
567.25	2414.11
567.60	2403.47
567.96	2392.38
568.31	2379.97
568.66	2367.54
569.02	2356.07
569.37	2344.38
569.72	2333.23
570.08	2321.34
570.43	2308.88
570.78	2296.06
571.14	2283.23
571.49	2271.06
571.84	2259.08
572.20	2245.73
572.55	2233.03
572.90	2220.20
573.26	2206.52
573.61	2192.24
573.96	2178.20
574.31	2164.47
574.67	2150.88
575.02	2136.78
575.37	2122.36
575.72	2108.24
576.08	2094.56
576.43	2079.83
576.78	2065.07
577.13	2051.15
577.49	2037.41
577.84	2024.07
578.19	2009.96
578.54	1995.38
578.90	1980.23
579.25	1964.92
579.60	1951.11
579.95	1936.79
580.30	1922.56
580.66	1908.54
581.01	1893.99
581.36	1879.99
581.71	1866.56
582.06	1852.65
582.42	1838.87
582.77	1825.79
583.12	1812.22
583.47	1798.78
583.82	1785.47
584.17	1772.04
584.53	1758.49
584.88	1744.93
585.23	1731.00
585.58	1717.59
585.93	1704.52
586.28	1692.32
586.63	1679.90
586.98	1666.68
587.34	1653.72
587.69	1640.30
588.04	1627.13
588.39	1614.65
588.74	1601.55
589.09	1588.23
589.44	1574.91
589.79	1562.16
590.14	1549.25
590.49	1536.59
590.84	1523.80
591.19	1511.60
591.54	1498.94
591.89	1486.12
592.25	1473.59
592.60	1460.67
592.95	1448.28
593.30	1436.26
593.65	1424.07
594.00	1412.12
594.35	1400.92
594.70	1388.81
595.05	1377.68
595.40	1366.42
595.75	1354.60
596.10	1343.66
596.45	1332.94
596.80	1322.61
597.15	1312.04
597.50	1301.46
597.85	1291.04
598.19	1280.84
598.54	1270.17
598.89	1260.17
599.24	1250.44
599.59	1240.48
599.94	1231.58
600.29	1222.54
600.64	1213.30
600.99	1203.42
601.34	1193.96
601.69	1183.96
602.04	1175.16
602.39	1166.23
602.74	1157.57
603.08	1149.15
603.43	1140.17
603.78	1131.03
604.13	1122.04
604.48	1112.96
604.83	1104.23
605.18	1095.41
605.53	1086.49
605.87	1077.61
606.22	1069.04
606.57	1060.20
606.92	1051.38
607.27	1042.45
607.62	1033.64
607.96	1025.00
608.31	1017.43
608.66	1009.48
609.01	1001.90
609.36	994.19
609.70	986.23
610.05	978.13
610.40	970.38
610.75	962.77
611.10	955.38
611.44	947.64
611.79	940.24
612.14	932.39
612.49	924.70
612.83	917.50
613.18	910.40
613.53	903.14
613.88	895.99
614.22	889.47
614.57	882.70
614.92	875.90
615.27	869.13
615.61	862.18
615.96	855.50
616.31	848.73
616.65	841.88
617.00	835.26
617.35	828.73
617.70	822.24
618.04	815.87
618.39	809.52
618.74	803.49
619.08	797.27
619.43	791.35
619.78	785.44
620.12	779.33
620.47	773.42
620.82	767.53
621.16	761.95
621.51	756.03
621.85	750.12
622.20	744.28
622.55	738.59
622.89	732.80
623.24	727.04
623.59	721.41
623.93	715.83
624.28	710.44
624.62	705.02
624.97	699.55
625.32	694.20
625.66	688.74
626.01	683.27
626.35	677.95
626.70	672.65
627.04	667.54
627.39	662.51
627.73	657.53
628.08	652.80
628.43	647.92
628.77	643.08
629.12	638.40
629.46	633.92
629.81	629.26
630.15	624.55
630.50	619.97
630.84	615.56
631.19	611.32
631.53	607.11
631.88	602.82
632.22	598.63
632.57	594.64
632.91	590.60
633.26	586.65
633.60	582.79
633.95	579.04
634.29	575.14
634.64	571.17
634.98	567.14
635.32	563.26
635.67	559.55
636.01	555.79
636.36	552.07
636.70	548.48
637.05	544.88
637.39	541.46
637.73	537.91
638.08	534.44
638.42	530.95
638.77	527.32
639.11	523.67
639.45	520.06
639.80	516.44
640.14	513.01
640.49	509.53
640.83	505.95
641.17	502.42
641.52	499.06
641.86	495.69
642.20	492.50
642.55	489.14
642.89	485.85
643.23	482.79
643.58	479.96
643.92	476.99
644.26	474.06
644.61	471.12
644.95	468.19
645.29	465.19
645.64	462.16
645.98	459.27
646.32	456.57
646.66	453.86
647.01	451.14
647.35	448.48
647.69	445.70
648.04	443.05
648.38	440.44
648.72	437.77
649.06	435.19
649.41	432.65
649.75	430.11
650.09	427.59
650.43	425.06
650.78	422.51
651.12	419.94
651.46	417.48
651.80	415.12
652.14	412.83
652.49	410.56
652.83	408.36
653.17	406.15
653.51	403.99
653.85	401.91
654.20	399.75
654.54	397.51
654.88	395.45
655.22	393.46
655.56	391.44
655.90	389.52
656.25	387.61
656.59	385.69
656.93	383.86
657.27	382.08
657.61	380.21
657.95	378.40
658.29	376.59
658.64	374.81
658.98	373.00
659.32	371.22
659.66	369.56
660.00	367.89
660.34	366.27
660.68	364.58
661.02	362.83
661.36	361.21
661.70	359.65
662.05	358.08
662.39	356.48
662.73	354.98
663.07	353.50
663.41	352.04
663.75	350.62
664.09	349.20
664.43	347.71
664.77	346.31
665.11	344.85
665.45	343.47
665.79	342.08
666.13	340.70
666.47	339.31
666.81	337.87
667.15	336.42
667.49	335.04
667.83	333.73
668.17	332.45
668.51	331.19
668.85	329.96
669.19	328.79
669.53	327.56
669.87	326.29
670.21	325.06
670.55	323.84
670.89	322.68
671.23	321.50
671.57	320.34
671.91	319.23
672.25	318.18
672.58	317.13
672.92	316.06
673.26	315.05
673.60	314.04
673.94	313.03
674.28	312.07
674.62	311.11
674.96	310.12
675.30	309.19
675.64	308.24
675.97	307.29
676.31	306.31
676.65	305.36
676.99	304.49
677.33	303.55
677.67	302.66
678.01	301.69
678.34	300.79
678.68	299.96
679.02	299.08
679.36	298.21
679.70	297.33
680.04	296.49
680.37	295.65
680.71	294.83
681.05	294.07
681.39	293.27
681.73	292.43
682.06	291.64
682.40	290.85
682.74	290.08
683.08	289.34
683.42	288.58
683.75	287.90
684.09	287.13
684.43	286.41
684.77	285.69
685.10	285.02
685.44	284.33
685.78	283.62
686.12	282.94
686.45	282.26
686.79	281.59
687.13	280.93
687.46	280.24
687.80	279.59
688.14	278.89
688.48	278.24
688.81	277.60
689.15	277.00
689.49	276.37
689.82	275.75
690.16	275.08
690.50	274.47
690.83	273.85
691.17	273.25
691.51	272.66
691.84	272.09
692.18	271.49
692.52	270.87
692.85	270.28
693.19	269.74
693.52	269.19
693.86	268.64
694.20	268.09
694.53	267.58
694.87	267.03
695.21	266.50
695.54	265.98
695.88	265.45
696.21	264.89
696.55	264.37
696.88	263.86
697.22	263.37
697.56	262.88
697.89	262.34
698.23	261.83
698.56	261.30
698.90	260.83
699.23	260.34
699.57	259.89
699.90	259.43
700.24	258.94
700.58	258.50
700.91	258.07
701.25	257.72
701.58	257.33
701.92	256.94
702.25	256.52
702.59	256.09
702.92	255.69
703.26	255.29
703.59	254.89
703.93	254.57
704.26	254.19
704.60	253.80
704.93	253.44
705.26	253.07
705.60	252.75
705.93	252.36
706.27	252.05
706.60	251.72
706.94	251.40
707.27	251.01
707.61	250.65
707.94	250.27
708.27	249.84
708.61	249.44
708.94	249.09
709.28	248.76
709.61	248.43
709.94	248.13
710.28	247.82
710.61	247.53
710.95	247.14
711.28	246.91
711.61	246.61
711.95	246.34
712.28	246.05
712.61	245.74
712.95	245.53
713.28	245.29
713.61	245.00
713.95	244.71
714.28	244.47
714.61	244.21
714.95	243.96
715.28	243.69
715.61	243.44
715.95	243.20
716.28	242.96
716.61	242.74
716.95	242.48
717.28	242.26
717.61	242.02
717.94	241.80
718.28	241.51
718.61	241.29
718.94	241.05
719.27	240.84
719.61	240.64
719.94	240.39
720.27	240.12
720.60	239.92
720.94	239.71
721.27	239.52
721.60	239.35
721.93	239.15
722.27	239.01
722.60	238.83
722.93	238.64
723.26	238.46
723.59	238.25
723.93	238.09
724.26	237.92
724.59	237.74
724.92	237.57
725.25	237.43
725.59	237.26
725.92	237.12
726.25	236.96
726.58	236.80
726.91	236.63
727.24	236.49
727.57	236.33
727.91	236.16
728.24	236.02
728.57	235.85
728.90	235.71
729.23	235.53
729.56	235.43
729.89	235.28
730.22	235.12
730.55	234.98
730.89	234.84
731.22	234.69
731.55	234.56
731.88	234.42
732.21	234.26
732.54	234.13
732.87	234.00
733.20	233.89
733.53	233.76
733.86	233.66
734.19	233.53
734.52	233.43
734.85	233.38
735.18	233.25
735.51	233.17
735.84	233.06
736.17	232.98
736.50	232.81
736.83	232.83
737.16	232.73
737.49	232.63
737.82	232.52
738.15	232.44
738.48	232.34
738.81	232.23
739.14	232.12
739.47	232.02
739.80	231.92
740.13	231.82
740.46	231.71
740.79	231.59
741.12	231.49
741.45	231.38
741.78	231.23
742.11	231.17
742.44	231.04
742.77	230.96
743.10	230.84
743.43	230.75
743.75	230.55
744.08	230.62
744.41	230.53
744.74	230.43
745.07	230.32
745.40	230.25
745.73	230.22
746.06	230.14
746.39	230.08
746.71	229.99
747.04	229.90
747.37	229.82
747.70	229.77
748.03	229.69
748.36	229.63
748.68	229.54
749.01	229.44
749.34	229.36
749.67	229.30
750.00	229.25
750.33	229.26
750.65	229.21
750.98	228.98
751.31	228.92
751.64	228.86
751.97	228.85
752.29	228.78
752.62	228.66
752.95	228.58
753.28	228.50
753.60	228.44
753.93	228.40
754.26	228.35
754.59	228.24
754.91	228.16
755.24	228.09
755.57	228.07
755.90	228.00
756.22	227.94
756.55	227.86
756.88	227.78
757.20	227.65
757.53	227.56
757.86	227.51
758.19	227.45
758.51	227.40
758.84	227.28
759.17	227.22
759.49	227.18
759.82	227.18
760.15	227.13
760.47	227.08
760.80	227.00
761.13	226.96
761.45	226.92
761.78	226.88
762.11	226.83
762.43	226.73
762.76	226.69
763.08	226.65
763.41	226.61
763.74	226.57
764.06	226.53
764.39	226.48
764.71	226.44
765.04	226.39
765.37	226.33
765.69	226.30
766.02	226.26
766.34	226.21
766.67	226.13
767.00	226.10
767.32	226.12
767.65	226.14
767.97	226.09
768.30	226.05
768.62	226.02
768.95	225.96
769.27	225.92
769.60	225.90
769.92	225.84
770.25	225.79
770.57	225.74
770.90	225.70
771.22	225.66
771.55	225.62
771.87	225.59
772.20	225.55
772.52	225.61
772.85	225.69
773.17	225.65
773.50	225.61
773.82	225.56
774.15	225.48
774.47	225.39
774.80	225.35
775.12	225.32
775.45	225.29
775.77	225.27
776.09	225.25
776.42	225.23
776.74	225.23
777.07	225.20
777.39	225.17
777.72	225.14
778.04	225.13
778.36	225.09
778.69	225.06
779.01	225.05
779.33	224.94
779.66	224.79
779.98	224.77
780.31	224.76
780.63	224.78
780.95	224.77
781.28	224.75
781.60	224.72
781.92	224.70
782.25	224.68
782.57	224.66
782.89	224.63
783.22	224.60
783.54	224.56
783.86	224.55
784.19	224.52
784.51	224.54
784.83	224.50
785.16	224.49
785.48	224.48
785.80	224.46
786.12	224.45
786.45	224.43
786.77	224.43
787.09	224.39
787.42	224.34
787.74	224.33
788.06	224.32
788.38	224.30
788.71	224.28
789.03	224.26
789.35	224.26
789.67	224.24
789.99	224.24
790.32	224.21
790.64	224.20
790.96	224.29
791.28	224.24
791.61	224.23
791.93	224.22
792.25	224.20
792.57	224.26
792.89	224.23
793.21	224.22
793.54	224.19
793.86	224.17
794.18	224.16
794.50	224.12
794.82	224.11
795.14	224.10
795.47	224.11
795.79	224.10
796.11	224.06
796.43	224.05
796.75	224.03
797.07	224.02
797.39	224.01
797.71	223.91
798.04	223.90
798.36	223.90
798.68	223.88
799.00	223.87
799.32	223.82
799.64	223.82
799.96	223.81
800.28	223.82
800.60	223.81
800.92	223.80
801.24	223.79
801.56	223.78
801.89	223.77
802.21	223.76
802.53	223.73
802.85	223.75
803.17	223.78
803.49	223.75
803.81	223.73
804.13	223.71
804.45	223.68
804.77	223.68
805.09	223.67
805.41	223.65
805.73	223.62
806.05	223.58
806.37	223.57
806.69	223.55
807.01	223.52
807.33	223.51
807.65	223.47
807.97	223.51
808.28	223.49
808.60	223.48
808.92	223.46
809.24	223.51
809.56	223.49
809.88	223.44
810.20	223.44
810.52	223.45
810.84	223.43
811.16	223.42
811.48	223.40
811.80	223.43
812.12	223.42
812.43	223.44
812.75	223.44
813.07	223.42
813.39	223.42
813.71	223.40
814.03	223.39
814.35	223.40
814.67	223.35
814.98	223.33
815.30	223.33
815.62	223.31
815.94	223.23
816.26	223.24
816.58	223.22
816.89	223.22
817.21	223.19
817.53	223.19
817.85	223.19
818.17	223.18
818.48	223.13
818.80	223.14
819.12	223.12
819.44	223.10
819.76	223.08
820.07	223.07
820.39	223.07
820.71	223.07
821.03	223.06
821.34	223.05
821.66	223.06
821.98	223.06
822.30	223.05
822.61	223.11
822.93	223.08
823.25	223.07
823.57	223.05
823.88	223.06
824.20	223.06
824.52	223.07
824.83	223.06
825.15	223.05
825.47	223.04
825.79	223.05
826.10	223.04
826.42	223.03
826.74	223.04
827.05	223.03
827.37	223.02
827.69	223.02
828.00	223.02
828.32	223.01
828.64	223.00
828.95	223.05
829.27	223.02
829.58	223.02
829.90	223.03
830.22	223.03
830.53	223.00
830.85	222.99
831.17	222.97
831.48	222.96
831.80	222.97
832.11	222.96
832.43	222.94
832.75	222.93
833.06	223.00
833.38	222.97
833.69	222.96
834.01	222.96
834.32	222.96
834.64	222.95
834.96	222.95
835.27	222.95
835.59	222.91
835.90	222.88
836.22	222.88
836.53	222.86
836.85	222.84
837.16	222.95
837.48	222.96
837.79	222.99
838.11	222.99
838.42	222.99
838.74	223.00
839.05	222.99
839.37	222.99
839.68	222.92
840.00	222.92
840.31	222.94
840.63	222.93
840.94	222.92
841.26	222.91
841.57	222.90
841.88	222.91
842.20	222.90
842.51	222.88
842.83	222.88
843.14	222.98
843.46	222.98
843.77	222.91
844.08	222.90
844.40	222.87
844.71	222.85
845.03	222.84
845.34	222.83
845.65	222.82
845.97	222.82
846.28	222.82
846.60	222.83
846.91	222.81
847.22	222.81
847.54	222.83
847.85	222.84
848.16	222.83
848.48	222.82
848.79	222.85
849.10	222.87
849.42	222.88
849.73	222.78
850.04	222.78
850.36	222.74
850.67	222.76
850.98	222.76
851.30	222.77
851.61	222.77
851.92	222.76
852.23	222.80
852.55	222.80
852.86	222.80
853.17	222.81
853.49	222.83
853.80	222.85
854.11	222.85
854.42	222.86
854.74	222.85
855.05	222.85
855.36	222.80
855.67	222.79
855.99	222.78
856.30	222.91
856.61	222.91
856.92	222.92
857.23	222.91
857.55	222.90
857.86	222.90
858.17	222.92
858.48	222.90
858.79	222.87
859.11	222.88
859.42	222.87
859.73	222.86
860.04	222.85
860.35	222.81
860.66	222.78
860.98	222.77
861.29	222.77
861.60	222.77
861.91	222.79
862.22	222.78
862.53	222.76
862.84	222.63
863.16	222.65
863.47	222.62
863.78	222.61
864.09	222.62
864.40	222.62
864.71	222.61
865.02	222.62
865.33	222.61
865.64	222.59
865.95	222.59
866.27	222.65
866.58	222.64
866.89	222.65
867.20	222.66
867.51	222.64
867.82	222.64
868.13	222.66
868.44	222.64
868.75	222.65
869.06	222.66
869.37	222.68
869.68	222.65
869.99	222.66
870.30	222.67
870.61	222.67
870.92	222.65
871.23	222.64
871.54	222.65
871.85	222.68
872.16	222.69
872.47	222.68
872.78	222.62
873.09	222.63
873.40	222.62
873.71	222.63
874.02	222.63
874.33	222.61
874.64	222.59
874.95	222.60
875.26	222.58
875.56	222.57
875.87	222.57
876.18	222.56
876.49	222.66
876.80	222.65
877.11	222.64
877.42	222.64
877.73	222.64
878.04	222.63
878.35	222.62
878.66	222.63
878.96	222.63
879.27	222.62
879.58	222.61
879.89	222.60
880.20	222.63
880.51	222.63
880.82	222.62
881.12	222.63
881.43	222.61
881.74	222.60
882.05	222.59
882.36	222.60
882.67	222.60
882.97	222.50
883.28	222.49
883.59	222.49
883.90	222.49
884.21	222.51
884.51	222.50
884.82	222.48
885.13	222.47
885.44	222.47
885.74	222.47
886.05	222.46
886.36	222.46
886.67	222.43
886.98	222.48
887.28	222.49
887.59	222.49
887.90	222.50
888.20	222.49
888.51	222.51
888.82	222.49
889.13	222.50
889.43	222.59
889.74	222.58
890.05	222.57
890.35	222.56
890.66	222.54
890.97	222.53
891.28	222.52
891.58	222.52
891.89	222.53
892.20	222.52
892.50	222.51
892.81	222.50
893.12	222.50
893.42	222.44
893.73	222.45
894.04	222.44
894.34	222.45
894.65	222.46
894.95	222.45
895.26	222.46
895.57	222.50
895.87	222.39
896.18	222.41
896.48	222.42
896.79	222.41
897.10	222.42
897.40	222.44
897.71	222.45
898.01	222.44
898.32	222.45
898.63	222.45
898.93	222.45
899.24	222.46
899.54	222.46
899.85	222.46
900.15	222.45
900.46	222.45
900.76	222.46
901.07	222.46
901.38	222.45
901.68	222.45
901.99	222.40
902.29	222.41
902.60	222.40
902.90	222.38
903.21	222.39
903.51	222.39
903.82	222.41
904.12	222.41
904.43	222.41
904.73	222.41
905.03	222.42
905.34	222.51
905.64	222.50
905.95	222.50
906.25	222.49
906.56	222.49
906.86	222.48
907.17	222.47
907.47	222.48
907.77	222.47
908.08	222.44
908.38	222.45
908.69	222.45
908.99	222.46
909.30	222.47
909.60	222.47
909.90	222.47
910.21	222.43
910.51	222.42
910.81	222.42
911.12	222.42
911.42	222.41
911.73	222.31
912.03	222.32
912.33	222.34
912.64	222.33
912.94	222.32
913.24	222.31
913.55	222.30
913.85	222.29
914.15	222.32
914.46	222.33
914.76	222.32
915.06	222.31
915.37	222.30
915.67	222.29
915.97	222.29
916.27	222.26
916.58	222.27
916.88	222.27
917.18	222.26
917.49	222.33
917.79	222.34
918.09	222.35
918.39	222.38
918.70	222.37
919.00	222.38
919.30	222.43
919.60	222.43
919.91	222.41
920.21	222.42
920.51	222.40
920.81	222.39
921.12	222.41
921.42	222.40
921.72	222.41
922.02	222.41
922.32	222.43
922.63	222.44
922.93	222.49
923.23	222.50
923.53	222.48
923.83	222.41
924.13	222.42
924.44	222.41
924.74	222.42
925.04	222.44
925.34	222.44
925.64	222.40
925.94	222.40
926.24	222.46
926.55	222.45
926.85	222.46
927.15	222.47
927.45	222.46
927.75	222.47
928.05	222.47
928.35	222.46
928.65	222.47
928.95	222.48
929.26	222.43
929.56	222.45
929.86	222.46
930.16	222.45
930.46	222.44
930.76	222.44
931.06	222.39
931.36	222.37
931.66	222.38
931.96	222.39
932.26	222.40
932.56	222.35
932.86	222.35
933.16	222.35
933.46	222.34
933.76	222.33
934.06	222.34
934.36	222.37
934.66	222.37
934.96	222.35
935.26	222.36
935.56	222.37
935.86	222.34
936.16	222.33
936.46	222.32
936.76	222.32
937.06	222.30
937.36	222.31
937.66	222.30
937.96	222.30
938.26	222.28
938.56	222.26
938.86	222.27
939.16	222.29
939.46	222.29
939.76	222.30
940.06	222.30
940.35	222.28
940.65	222.23
940.95	222.24
941.25	222.22
941.55	222.21
941.85	222.20
942.15	222.22
942.45	222.25
942.75	222.24
943.04	222.25
943.34	222.27
943.64	222.26
943.94	222.25
944.24	222.25
944.54	222.25
944.84	222.25
945.13	222.23
945.43	222.22
945.73	222.21
946.03	222.20
946.33	222.19
946.62	222.18
946.92	222.18
947.22	222.19
947.52	222.20
947.82	222.21
948.11	222.20
948.41	222.18
948.71	222.15
949.01	222.16
949.31	222.15
949.60	222.13
949.90	222.14
950.20	222.13
950.50	222.13
950.79	222.12
951.09	222.14
951.39	222.14
951.69	222.13
951.98	222.16
952.28	222.16
952.58	222.16
952.87	222.16
953.17	222.18
953.47	222.16
953.76	222.16
954.06	222.14
954.36	222.13
954.66	222.13
954.95	222.16
955.25	222.17
955.55	222.18
955.84	222.17
956.14	222.18
956.44	222.20
956.73	222.19
957.03	222.20
957.32	222.20
957.62	222.19
957.92	222.21
958.21	222.18
958.51	222.31
958.81	222.33
959.10	222.34
959.40	222.35
959.69	222.36
959.99	222.37
960.29	222.38
960.58	222.38
960.88	222.42
961.17	222.40
961.47	222.41
961.76	222.40
962.06	222.42
962.36	222.41
962.65	222.41
962.95	222.42
963.24	222.40
963.54	222.41
963.83	222.42
964.13	222.41
964.42	222.40
964.72	222.31
965.01	222.31
965.31	222.30
965.60	222.28
965.90	222.35
966.19	222.32
966.49	222.32
966.78	222.32
967.08	222.31
967.37	222.32
967.67	222.30
967.96	222.31
968.26	222.30
968.55	222.33
968.85	222.32
969.14	222.32
969.43	222.32
969.73	222.31
970.02	222.31
970.32	222.31
970.61	222.29
970.91	222.27
971.20	222.26
971.49	222.25
971.79	222.26
972.08	222.18
972.38	222.20
972.67	222.19
972.96	222.21
973.26	222.18
973.55	222.21
973.85	222.21
974.14	222.20
974.43	222.21
974.73	222.19
975.02	222.18
975.31	222.18
975.61	222.18
975.90	222.17
976.19	222.15
976.49	222.16
976.78	222.18
977.07	222.18
977.37	222.19
977.66	222.19
977.95	222.18
978.24	222.19
978.54	222.22
978.83	222.21
979.12	222.20
979.42	222.21
979.71	222.18
980.00	222.18
980.29	222.19
980.59	222.16
980.88	222.18
981.17	222.18
981.46	222.18
981.76	222.18
982.05	222.22
982.34	222.22
982.63	222.22
982.93	222.21
983.22	222.23
983.51	222.23
983.80	222.25
984.09	222.26
984.39	222.25
984.68	222.23
984.97	222.24
985.26	222.23
985.55	222.24
985.85	222.22
986.14	222.24
986.43	222.24
986.72	222.23
987.01	222.21
987.30	222.20
987.59	222.20
987.89	222.20
988.18	222.16
988.47	222.16
988.76	222.15
989.05	222.14
989.34	222.12
989.63	222.14
989.92	222.12
990.22	222.10
990.51	222.10
990.80	222.09
991.09	222.10
991.38	222.12
991.67	222.10
991.96	222.09
992.25	222.09
992.54	222.07
992.83	222.08
993.12	222.08
993.41	222.09
993.70	222.13
993.99	222.15
994.28	222.16
994.58	222.17
994.87	222.16
995.16	222.16
995.45	222.16
995.74	222.11
996.03	222.13
996.32	222.15
996.61	222.17
996.90	222.17
997.19	222.16
997.48	222.15
997.77	222.14
998.06	222.14
998.34	222.14
998.63	222.14
998.92	222.14
999.21	222.15
999.50	222.16
999.79	222.11
1000.08	222.11
1000.37	222.11
1000.66	222.10
1000.95	222.13
1001.24	222.14
1001.53	222.16
1001.82	222.16
1002.11	222.13
1002.40	222.13
1002.68	222.15
1002.97	222.23
1003.26	222.22
1003.55	222.20
1003.84	222.21
1004.13	222.25
1004.42	222.24
1004.71	222.24
1004.99	222.23
1005.28	222.26
1005.57	222.24
1005.86	222.24
1006.15	222.23
1006.44	222.22
1006.72	222.24
1007.01	222.21
1007.30	222.21
1007.59	222.20
1007.88	222.20
1008.17	222.20
1008.45	222.18
1008.74	222.14
1009.03	222.10
1009.32	222.10
1009.60	222.11
1009.89	222.10
1010.18	222.06
1010.47	222.05
1010.76	222.05
1011.04	222.05
1011.33	222.04
1011.62	222.04
1011.91	222.05
1012.19	222.06
1012.48	222.07
1012.77	222.06
1013.05	222.09
1013.34	222.09
1013.63	222.09
1013.92	222.10
1014.20	222.10
1014.49	222.11
1014.78	222.12
1015.06	222.09
1015.35	222.09
1015.64	222.11
1015.92	222.12
1016.21	222.13
1016.50	222.13
1016.78	222.14
1017.07	222.16
1017.36	222.14
1017.64	222.13
1017.93	222.14
1018.22	222.13
1018.50	222.12
1018.79	222.11
1019.08	222.08
1019.36	222.09
1019.65	222.08
1019.93	222.11
1020.22	222.13
1020.51	222.18
1020.79	222.17
1021.08	221.91
1021.36	221.92
1021.65	222.13
1021.94	222.05
1022.22	222.21
1022.51	221.91
1022.79	222.68
1023.08	222.32
1023.36	223.30
1023.65	221.93
>>>>>End Processed Spectral Data<<<<<
