SpectraSuite Data File
++++++++++++++++++++++++++++++++++++
Date: Wed Sep 30 15:46:06 EDT 2015
User: lab3
Dark Spectrum Present: No
Reference Spectrum Present: No
Number of Sampled Component Spectra: 1
Spectrometers: USB2E7196
Integration Time (usec): 36000 (USB2E7196)
Spectra Averaged: 3000 (USB2E7196)
Boxcar Smoothing: 10 (USB2E7196)
Correct for Electrical Dark: No (USB2E7196)
Strobe/Lamp Enabled: No (USB2E7196)
Correct for Detector Non-linearity: No (USB2E7196)
Correct for Stray Light: No (USB2E7196)
Number of Pixels in Processed Spectrum: 2048
>>>>>Begin Processed Spectral Data<<<<<
339.09	0.00
339.48	211.58
339.86	213.01
340.24	214.48
340.63	215.80
341.01	218.86
341.39	218.49
341.78	220.00
342.16	220.96
342.54	221.60
342.93	210.09
343.31	220.71
343.69	221.25
344.07	221.71
344.46	222.13
344.84	222.52
345.22	222.75
345.60	223.01
345.99	223.20
346.37	223.34
346.75	223.45
347.13	223.52
347.52	223.58
347.90	223.67
348.28	223.70
348.66	223.74
349.05	223.74
349.43	223.79
349.81	223.85
350.19	223.90
350.57	223.97
350.96	224.05
351.34	224.14
351.72	224.23
352.10	224.34
352.48	224.41
352.87	224.46
353.25	224.52
353.63	224.58
354.01	224.64
354.39	224.72
354.77	224.79
355.15	224.90
355.54	224.95
355.92	224.98
356.30	225.05
356.68	225.19
357.06	225.27
357.44	225.32
357.82	225.37
358.20	225.48
358.58	225.54
358.97	225.60
359.35	225.68
359.73	225.76
360.11	225.81
360.49	225.87
360.87	225.93
361.25	226.00
361.63	226.07
362.01	226.12
362.39	226.14
362.77	226.19
363.15	226.22
363.53	226.26
363.91	226.29
364.29	226.32
364.67	226.24
365.05	226.27
365.43	226.31
365.81	226.33
366.19	226.35
366.57	226.40
366.95	226.40
367.33	226.37
367.71	226.37
368.09	226.38
368.47	226.38
368.85	226.37
369.23	226.37
369.61	226.32
369.99	226.34
370.37	226.33
370.75	226.38
371.13	226.35
371.51	226.31
371.89	226.28
372.27	226.26
372.65	226.23
373.03	226.19
373.41	226.14
373.78	226.10
374.16	226.01
374.54	225.93
374.92	225.88
375.30	225.84
375.68	225.77
376.06	225.72
376.44	225.66
376.82	225.61
377.19	225.57
377.57	225.52
377.95	225.43
378.33	225.38
378.71	225.23
379.09	225.18
379.47	225.16
379.84	225.09
380.22	225.03
380.60	224.96
380.98	224.91
381.36	224.86
381.73	224.80
382.11	224.77
382.49	224.73
382.87	224.67
383.25	224.63
383.62	224.70
384.00	224.64
384.38	224.60
384.76	224.58
385.13	224.57
385.51	224.52
385.89	224.47
386.27	224.44
386.64	224.42
387.02	224.37
387.40	224.32
387.78	224.30
388.15	224.27
388.53	224.24
388.91	224.21
389.29	224.17
389.66	224.15
390.04	224.11
390.42	224.11
390.79	224.09
391.17	224.07
391.55	223.94
391.92	223.92
392.30	223.93
392.68	223.88
393.05	223.86
393.43	223.86
393.81	223.86
394.18	223.84
394.56	223.83
394.94	223.85
395.31	223.85
395.69	223.89
396.06	223.92
396.44	223.93
396.82	223.94
397.19	224.01
397.57	224.02
397.95	224.06
398.32	224.06
398.70	224.10
399.07	224.16
399.45	224.19
399.82	224.23
400.20	224.26
400.58	224.31
400.95	224.32
401.33	224.39
401.70	224.52
402.08	224.61
402.45	224.69
402.83	224.80
403.20	224.89
403.58	224.97
403.95	225.09
404.33	225.22
404.71	225.35
405.08	225.53
405.46	225.67
405.83	225.82
406.21	226.00
406.58	226.18
406.96	226.36
407.33	226.57
407.70	226.81
408.08	227.14
408.45	227.43
408.83	227.74
409.20	228.02
409.58	228.27
409.95	228.62
410.33	228.99
410.70	229.34
411.08	229.76
411.45	230.20
411.82	230.65
412.20	231.15
412.57	231.76
412.95	232.23
413.32	232.84
413.69	233.48
414.07	234.16
414.44	234.89
414.82	235.65
415.19	236.53
415.56	237.41
415.94	238.33
416.31	239.36
416.68	240.41
417.06	241.61
417.43	242.75
417.81	244.06
418.18	245.39
418.55	246.84
418.93	248.34
419.30	249.92
419.67	251.60
420.04	253.33
420.42	255.14
420.79	257.23
421.16	259.34
421.54	261.47
421.91	263.71
422.28	266.03
422.66	268.54
423.03	270.93
423.40	273.45
423.77	276.14
424.15	278.91
424.52	281.78
424.89	284.89
425.26	287.99
425.64	290.85
426.01	294.09
426.38	297.40
426.75	300.82
427.13	304.31
427.50	307.98
427.87	311.78
428.24	315.62
428.61	319.31
428.99	323.28
429.36	327.64
429.73	331.82
430.10	335.98
430.47	340.24
430.85	344.61
431.22	349.28
431.59	354.08
431.96	358.75
432.33	363.94
432.70	368.85
433.08	374.65
433.45	380.13
433.82	385.51
434.19	391.54
434.56	397.47
434.93	403.17
435.30	408.82
435.68	415.16
436.05	421.37
436.42	427.58
436.79	433.24
437.16	439.34
437.53	445.88
437.90	452.39
438.27	458.76
438.64	465.66
439.01	471.90
439.38	477.58
439.75	483.07
440.13	489.31
440.50	495.24
440.87	499.91
441.24	505.06
441.61	510.72
441.98	514.85
442.35	519.78
442.72	524.82
443.09	529.62
443.46	532.71
443.83	534.97
444.20	536.86
444.57	539.65
444.94	541.27
445.31	542.95
445.68	544.43
446.05	545.51
446.42	545.26
446.79	544.93
447.16	544.63
447.53	544.37
447.90	542.46
448.27	540.67
448.64	537.89
449.01	536.02
449.37	532.06
449.74	528.44
450.11	523.79
450.48	518.68
450.85	513.56
451.22	509.21
451.59	504.95
451.96	501.06
452.33	495.43
452.70	490.41
453.07	484.29
453.43	478.18
453.80	472.26
454.17	466.59
454.54	461.32
454.91	455.38
455.28	449.81
455.65	444.55
456.02	438.93
456.38	434.41
456.75	428.58
457.12	423.89
457.49	419.16
457.86	414.65
458.23	410.70
458.59	406.34
458.96	401.85
459.33	397.91
459.70	393.89
460.07	390.83
460.43	387.23
460.80	383.85
461.17	380.88
461.54	377.68
461.91	374.68
462.27	371.64
462.64	369.16
463.01	366.30
463.38	363.41
463.74	360.80
464.11	358.47
464.48	356.37
464.85	354.12
465.21	352.40
465.58	350.50
465.95	348.30
466.32	346.54
466.68	344.82
467.05	343.10
467.42	341.43
467.78	339.63
468.15	337.97
468.52	336.73
468.88	335.11
469.25	333.62
469.62	332.44
469.98	331.16
470.35	330.02
470.72	329.00
471.08	327.95
471.45	327.10
471.82	326.14
472.18	325.15
472.55	324.50
472.92	323.71
473.28	323.10
473.65	322.46
474.02	321.87
474.38	321.37
474.75	321.08
475.11	320.67
475.48	320.52
475.85	320.36
476.21	320.32
476.58	320.33
476.94	320.52
477.31	320.65
477.67	320.81
478.04	321.07
478.41	321.41
478.77	321.88
479.14	322.24
479.50	322.81
479.87	323.53
480.23	324.23
480.60	324.91
480.96	325.61
481.33	326.58
481.69	327.55
482.06	328.52
482.42	329.44
482.79	330.55
483.15	331.80
483.52	333.21
483.88	334.57
484.25	336.01
484.61	337.52
484.98	339.15
485.34	340.97
485.71	342.85
486.07	344.87
486.44	346.86
486.80	349.08
487.17	351.35
487.53	353.86
487.90	356.47
488.26	359.29
488.62	362.27
488.99	365.26
489.35	368.38
489.72	371.75
490.08	375.29
490.44	378.91
490.81	382.71
491.17	386.61
491.54	390.79
491.90	395.06
492.26	399.65
492.63	404.46
492.99	409.48
493.36	414.63
493.72	420.03
494.08	425.60
494.45	431.47
494.81	437.53
495.17	443.71
495.54	450.25
495.90	457.11
496.26	464.11
496.63	471.34
496.99	478.88
497.35	486.78
497.72	494.97
498.08	503.32
498.44	511.93
498.80	521.06
499.17	530.43
499.53	540.11
499.89	550.02
500.26	560.13
500.62	570.51
500.98	581.58
501.34	592.78
501.71	604.47
502.07	616.40
502.43	628.75
502.79	641.41
503.16	654.50
503.52	667.72
503.88	681.30
504.24	695.34
504.60	709.59
504.97	724.20
505.33	739.22
505.69	755.12
506.05	771.22
506.41	787.34
506.78	803.75
507.14	820.66
507.50	838.10
507.86	855.92
508.22	873.97
508.59	892.08
508.95	910.86
509.31	930.11
509.67	950.03
510.03	970.14
510.39	990.45
510.75	1010.92
511.12	1031.68
511.48	1052.67
511.84	1073.87
512.20	1095.39
512.56	1118.02
512.92	1140.69
513.28	1163.03
513.64	1185.75
514.00	1208.88
514.37	1232.26
514.73	1255.68
515.09	1278.86
515.45	1302.46
515.81	1326.56
516.17	1350.63
516.53	1374.48
516.89	1398.35
517.25	1422.37
517.61	1446.56
517.97	1470.97
518.33	1495.17
518.69	1519.48
519.05	1544.14
519.41	1568.79
519.77	1593.70
520.13	1617.81
520.49	1642.14
520.85	1666.69
521.21	1691.01
521.57	1715.89
521.93	1740.05
522.29	1764.94
522.65	1789.61
523.01	1814.09
523.37	1837.71
523.73	1862.10
524.09	1886.65
524.45	1910.96
524.81	1934.73
525.17	1958.36
525.53	1981.61
525.89	2004.80
526.25	2028.18
526.61	2050.88
526.97	2073.90
527.33	2096.81
527.68	2119.41
528.04	2141.40
528.40	2163.08
528.76	2185.02
529.12	2205.91
529.48	2227.28
529.84	2246.80
530.20	2266.71
530.56	2286.23
530.91	2306.02
531.27	2325.17
531.63	2343.59
531.99	2361.61
532.35	2379.52
532.71	2397.55
533.07	2415.94
533.42	2432.93
533.78	2450.17
534.14	2467.50
534.50	2483.87
534.86	2500.87
535.21	2516.18
535.57	2531.12
535.93	2545.57
536.29	2558.58
536.65	2572.40
537.00	2585.13
537.36	2598.57
537.72	2611.04
538.08	2623.17
538.44	2634.22
538.79	2645.44
539.15	2654.99
539.51	2664.31
539.87	2672.95
540.22	2679.44
540.58	2686.39
540.94	2693.65
541.29	2699.67
541.65	2704.69
542.01	2709.31
542.37	2712.05
542.72	2716.71
543.08	2720.78
543.44	2724.62
543.79	2728.11
544.15	2730.49
544.51	2732.87
544.87	2734.26
545.22	2735.40
545.58	2735.55
545.94	2736.09
546.29	2735.25
546.65	2734.28
547.01	2733.70
547.36	2733.21
547.72	2733.12
548.07	2731.43
548.43	2729.33
548.79	2726.47
549.14	2723.49
549.50	2721.18
549.86	2717.79
550.21	2712.45
550.57	2707.51
550.92	2701.31
551.28	2695.54
551.64	2689.80
551.99	2684.28
552.35	2678.49
552.70	2672.13
553.06	2666.48
553.41	2660.34
553.77	2653.47
554.13	2647.73
554.48	2640.70
554.84	2632.51
555.19	2624.28
555.55	2615.51
555.90	2607.22
556.26	2599.97
556.61	2592.17
556.97	2582.31
557.32	2573.68
557.68	2564.91
558.03	2555.79
558.39	2547.34
558.74	2538.93
559.10	2529.61
559.45	2519.77
559.81	2510.10
560.16	2499.96
560.52	2489.60
560.87	2480.21
561.23	2470.43
561.58	2460.27
561.94	2450.02
562.29	2439.17
562.64	2428.84
563.00	2418.79
563.35	2408.63
563.71	2397.34
564.06	2385.98
564.42	2375.41
564.77	2364.43
565.12	2353.58
565.48	2342.53
565.83	2332.10
566.19	2321.81
566.54	2310.85
566.89	2299.36
567.25	2287.99
567.60	2277.32
567.96	2266.15
568.31	2253.75
568.66	2241.54
569.02	2230.19
569.37	2218.63
569.72	2207.63
570.08	2195.95
570.43	2183.75
570.78	2171.16
571.14	2158.79
571.49	2146.82
571.84	2135.12
572.20	2122.25
572.55	2109.94
572.90	2097.35
573.26	2083.86
573.61	2069.87
573.96	2056.29
574.31	2042.91
574.67	2029.74
575.02	2016.09
575.37	2002.15
575.72	1988.47
576.08	1975.10
576.43	1960.68
576.78	1946.46
577.13	1932.93
577.49	1919.54
577.84	1906.54
578.19	1892.84
578.54	1878.74
578.90	1864.22
579.25	1849.45
579.60	1836.14
579.95	1822.39
580.30	1808.77
580.66	1795.38
581.01	1781.57
581.36	1768.16
581.71	1755.42
582.06	1742.06
582.42	1729.05
582.77	1716.46
583.12	1703.43
583.47	1690.71
583.82	1678.15
584.17	1665.36
584.53	1652.49
584.88	1639.67
585.23	1626.46
585.58	1613.82
585.93	1601.43
586.28	1589.83
586.63	1578.00
586.98	1565.40
587.34	1553.02
587.69	1540.26
588.04	1527.90
588.39	1516.05
588.74	1503.61
589.09	1491.03
589.44	1478.51
589.79	1466.30
590.14	1454.20
590.49	1442.26
590.84	1430.13
591.19	1418.53
591.54	1406.56
591.89	1394.46
592.25	1382.60
592.60	1370.50
592.95	1358.89
593.30	1347.67
593.65	1336.24
594.00	1325.12
594.35	1314.58
594.70	1303.27
595.05	1292.85
595.40	1282.14
595.75	1271.04
596.10	1260.78
596.45	1250.70
596.80	1240.96
597.15	1231.13
597.50	1221.20
597.85	1211.53
598.19	1202.04
598.54	1192.12
598.89	1182.82
599.24	1173.68
599.59	1164.44
599.94	1156.10
600.29	1147.62
600.64	1138.89
600.99	1129.57
601.34	1120.70
601.69	1111.44
602.04	1103.26
602.39	1095.00
602.74	1086.97
603.08	1079.13
603.43	1070.83
603.78	1062.39
604.13	1054.08
604.48	1045.69
604.83	1037.55
605.18	1029.33
605.53	1021.02
605.87	1012.76
606.22	1004.73
606.57	996.58
606.92	988.40
607.27	980.07
607.62	971.89
607.96	963.93
608.31	956.98
608.66	949.66
609.01	942.63
609.36	935.50
609.70	928.11
610.05	920.64
610.40	913.51
610.75	906.36
611.10	899.47
611.44	892.33
611.79	885.40
612.14	878.14
612.49	871.07
612.83	864.42
613.18	857.83
613.53	851.16
613.88	844.59
614.22	838.59
614.57	832.39
614.92	826.14
615.27	819.92
615.61	813.53
615.96	807.31
616.31	801.04
616.65	794.73
617.00	788.61
617.35	782.61
617.70	776.63
618.04	770.80
618.39	764.95
618.74	759.40
619.08	753.70
619.43	748.23
619.78	742.72
620.12	737.10
620.47	731.66
620.82	726.27
621.16	721.12
621.51	715.64
621.85	710.20
622.20	704.82
622.55	699.58
622.89	694.23
623.24	688.99
623.59	683.83
623.93	678.73
624.28	673.77
624.62	668.76
624.97	663.74
625.32	658.82
625.66	653.79
626.01	648.73
626.35	643.84
626.70	638.97
627.04	634.36
627.39	629.74
627.73	625.23
628.08	620.89
628.43	616.36
628.77	611.90
629.12	607.59
629.46	603.45
629.81	599.14
630.15	594.80
630.50	590.57
630.84	586.53
631.19	582.62
631.53	578.73
631.88	574.78
632.22	570.91
632.57	567.23
632.91	563.50
633.26	559.86
633.60	556.29
633.95	552.88
634.29	549.24
634.64	545.61
634.98	541.87
635.32	538.28
635.67	534.88
636.01	531.45
636.36	528.02
636.70	524.72
637.05	521.42
637.39	518.29
637.73	514.99
638.08	511.79
638.42	508.57
638.77	505.25
639.11	501.85
639.45	498.53
639.80	495.23
640.14	492.08
640.49	488.89
640.83	485.57
641.17	482.32
641.52	479.20
641.86	476.07
642.20	473.14
642.55	470.04
642.89	467.03
643.23	464.18
643.58	461.59
643.92	458.84
644.26	456.13
644.61	453.41
644.95	450.71
645.29	447.92
645.64	445.12
645.98	442.46
646.32	440.00
646.66	437.49
647.01	434.96
647.35	432.49
647.69	429.93
648.04	427.53
648.38	425.11
648.72	422.67
649.06	420.32
649.41	417.98
649.75	415.66
650.09	413.36
650.43	411.05
650.78	408.69
651.12	406.33
651.46	404.08
651.80	401.92
652.14	399.81
652.49	397.75
652.83	395.72
653.17	393.68
653.51	391.68
653.85	389.77
654.20	387.79
654.54	385.74
654.88	383.87
655.22	382.02
655.56	380.17
655.90	378.41
656.25	376.64
656.59	374.87
656.93	373.20
657.27	371.55
657.61	369.82
657.95	368.15
658.29	366.51
658.64	364.85
658.98	363.18
659.32	361.54
659.66	359.99
660.00	358.45
660.34	356.95
660.68	355.41
661.02	353.81
661.36	352.34
661.70	350.91
662.05	349.44
662.39	347.97
662.73	346.59
663.07	345.21
663.41	343.88
663.75	342.57
664.09	341.25
664.43	339.85
664.77	338.58
665.11	337.23
665.45	335.95
665.79	334.68
666.13	333.39
666.47	332.10
666.81	330.79
667.15	329.46
667.49	328.19
667.83	326.98
668.17	325.79
668.51	324.61
668.85	323.47
669.19	322.41
669.53	321.27
669.87	320.10
670.21	318.97
670.55	317.84
670.89	316.79
671.23	315.72
671.57	314.64
671.91	313.62
672.25	312.65
672.58	311.68
672.92	310.68
673.26	309.77
673.60	308.85
673.94	307.91
674.28	307.04
674.62	306.16
674.96	305.23
675.30	304.38
675.64	303.51
675.97	302.64
676.31	301.73
676.65	300.86
676.99	300.06
677.33	299.20
677.67	298.38
678.01	297.48
678.34	296.65
678.68	295.88
679.02	295.07
679.36	294.27
679.70	293.47
680.04	292.70
680.37	291.92
680.71	291.16
681.05	290.46
681.39	289.71
681.73	288.94
682.06	288.22
682.40	287.49
682.74	286.77
683.08	286.09
683.42	285.40
683.75	284.77
684.09	284.06
684.43	283.39
684.77	282.72
685.10	282.09
685.44	281.44
685.78	280.78
686.12	280.17
686.45	279.53
686.79	278.91
687.13	278.30
687.46	277.66
687.80	277.06
688.14	276.40
688.48	275.81
688.81	275.21
689.15	274.65
689.49	274.06
689.82	273.49
690.16	272.86
690.50	272.29
690.83	271.70
691.17	271.14
691.51	270.59
691.84	270.05
692.18	269.49
692.52	268.93
692.85	268.39
693.19	267.89
693.52	267.38
693.86	266.87
694.20	266.36
694.53	265.87
694.87	265.36
695.21	264.88
695.54	264.40
695.88	263.90
696.21	263.38
696.55	262.90
696.88	262.42
697.22	261.97
697.56	261.50
697.89	261.00
698.23	260.54
698.56	260.06
698.90	259.62
699.23	259.17
699.57	258.75
699.90	258.31
700.24	257.85
700.58	257.42
700.91	257.03
701.25	256.70
701.58	256.33
701.92	255.96
702.25	255.57
702.59	255.17
702.92	254.80
703.26	254.43
703.59	254.05
703.93	253.76
704.26	253.40
704.60	253.04
704.93	252.70
705.26	252.35
705.60	252.04
705.93	251.68
706.27	251.38
706.60	251.07
706.94	250.76
707.27	250.41
707.61	250.07
707.94	249.71
708.27	249.30
708.61	248.94
708.94	248.60
709.28	248.29
709.61	247.97
709.94	247.68
710.28	247.40
710.61	247.13
710.95	246.76
711.28	246.55
711.61	246.27
711.95	246.03
712.28	245.76
712.61	245.48
712.95	245.28
713.28	245.07
713.61	244.80
713.95	244.52
714.28	244.30
714.61	244.04
714.95	243.83
715.28	243.58
715.61	243.34
715.95	243.12
716.28	242.90
716.61	242.70
716.95	242.47
717.28	242.25
717.61	242.02
717.94	241.82
718.28	241.54
718.61	241.33
718.94	241.09
719.27	240.89
719.61	240.70
719.94	240.47
720.27	240.22
720.60	240.01
720.94	239.82
721.27	239.64
721.60	239.48
721.93	239.28
722.27	239.15
722.60	238.98
722.93	238.78
723.26	238.62
723.59	238.42
723.93	238.26
724.26	238.09
724.59	237.93
724.92	237.77
725.25	237.63
725.59	237.48
725.92	237.35
726.25	237.19
726.58	237.04
726.91	236.87
727.24	236.74
727.57	236.60
727.91	236.45
728.24	236.31
728.57	236.15
728.90	236.03
729.23	235.86
729.56	235.76
729.89	235.63
730.22	235.48
730.55	235.35
730.89	235.21
731.22	235.08
731.55	234.95
731.88	234.83
732.21	234.69
732.54	234.56
732.87	234.44
733.20	234.34
733.53	234.22
733.86	234.12
734.19	233.99
734.52	233.90
734.85	233.86
735.18	233.73
735.51	233.65
735.84	233.54
736.17	233.46
736.50	233.30
736.83	233.33
737.16	233.23
737.49	233.14
737.82	233.05
738.15	232.97
738.48	232.88
738.81	232.77
739.14	232.66
739.47	232.56
739.80	232.46
740.13	232.37
740.46	232.26
740.79	232.15
741.12	232.06
741.45	231.95
741.78	231.80
742.11	231.75
742.44	231.63
742.77	231.56
743.10	231.45
743.43	231.37
743.75	231.18
744.08	231.25
744.41	231.16
744.74	231.07
745.07	230.96
745.40	230.90
745.73	230.87
746.06	230.80
746.39	230.74
746.71	230.65
747.04	230.57
747.37	230.50
747.70	230.44
748.03	230.38
748.36	230.32
748.68	230.25
749.01	230.15
749.34	230.08
749.67	230.02
750.00	229.97
750.33	229.98
750.65	229.92
750.98	229.70
751.31	229.64
751.64	229.58
751.97	229.58
752.29	229.51
752.62	229.40
752.95	229.34
753.28	229.26
753.60	229.20
753.93	229.15
754.26	229.10
754.59	229.01
754.91	228.94
755.24	228.87
755.57	228.87
755.90	228.80
756.22	228.74
756.55	228.66
756.88	228.58
757.20	228.46
757.53	228.38
757.86	228.32
758.19	228.28
758.51	228.22
758.84	228.11
759.17	228.05
759.49	228.00
759.82	228.00
760.15	227.97
760.47	227.92
760.80	227.84
761.13	227.81
761.45	227.77
761.78	227.73
762.11	227.69
762.43	227.58
762.76	227.55
763.08	227.52
763.41	227.48
763.74	227.45
764.06	227.41
764.39	227.38
764.71	227.34
765.04	227.29
765.37	227.25
765.69	227.21
766.02	227.18
766.34	227.13
766.67	227.05
767.00	227.03
767.32	227.05
767.65	227.08
767.97	227.02
768.30	226.99
768.62	226.95
768.95	226.91
769.27	226.88
769.60	226.85
769.92	226.80
770.25	226.75
770.57	226.70
770.90	226.67
771.22	226.62
771.55	226.59
771.87	226.56
772.20	226.52
772.52	226.57
772.85	226.66
773.17	226.64
773.50	226.60
773.82	226.55
774.15	226.47
774.47	226.38
774.80	226.34
775.12	226.31
775.45	226.28
775.77	226.26
776.09	226.24
776.42	226.21
776.74	226.21
777.07	226.18
777.39	226.16
777.72	226.13
778.04	226.13
778.36	226.09
778.69	226.07
779.01	226.06
779.33	225.95
779.66	225.81
779.98	225.78
780.31	225.77
780.63	225.79
780.95	225.78
781.28	225.76
781.60	225.73
781.92	225.71
782.25	225.69
782.57	225.66
782.89	225.64
783.22	225.61
783.54	225.57
783.86	225.56
784.19	225.53
784.51	225.54
784.83	225.51
785.16	225.49
785.48	225.47
785.80	225.45
786.12	225.44
786.45	225.42
786.77	225.41
787.09	225.39
787.42	225.33
787.74	225.32
788.06	225.31
788.38	225.29
788.71	225.26
789.03	225.25
789.35	225.25
789.67	225.22
789.99	225.21
790.32	225.18
790.64	225.18
790.96	225.26
791.28	225.21
791.61	225.19
791.93	225.19
792.25	225.17
792.57	225.22
792.89	225.19
793.21	225.18
793.54	225.16
793.86	225.14
794.18	225.14
794.50	225.10
794.82	225.09
795.14	225.09
795.47	225.10
795.79	225.09
796.11	225.06
796.43	225.05
796.75	225.04
797.07	225.03
797.39	225.01
797.71	224.91
798.04	224.91
798.36	224.91
798.68	224.90
799.00	224.89
799.32	224.83
799.64	224.84
799.96	224.83
800.28	224.83
800.60	224.82
800.92	224.81
801.24	224.80
801.56	224.80
801.89	224.78
802.21	224.77
802.53	224.74
802.85	224.75
803.17	224.80
803.49	224.77
803.81	224.75
804.13	224.73
804.45	224.72
804.77	224.72
805.09	224.70
805.41	224.69
805.73	224.66
806.05	224.62
806.37	224.60
806.69	224.58
807.01	224.56
807.33	224.56
807.65	224.51
807.97	224.55
808.28	224.52
808.60	224.51
808.92	224.49
809.24	224.54
809.56	224.51
809.88	224.46
810.20	224.45
810.52	224.47
810.84	224.45
811.16	224.43
811.48	224.41
811.80	224.44
812.12	224.42
812.43	224.45
812.75	224.45
813.07	224.43
813.39	224.44
813.71	224.43
814.03	224.41
814.35	224.41
814.67	224.37
814.98	224.36
815.30	224.35
815.62	224.33
815.94	224.25
816.26	224.27
816.58	224.25
816.89	224.26
817.21	224.22
817.53	224.23
817.85	224.23
818.17	224.23
818.48	224.18
818.80	224.20
819.12	224.18
819.44	224.16
819.76	224.14
820.07	224.13
820.39	224.12
820.71	224.13
821.03	224.12
821.34	224.10
821.66	224.12
821.98	224.13
822.30	224.12
822.61	224.18
822.93	224.15
823.25	224.14
823.57	224.12
823.88	224.13
824.20	224.12
824.52	224.13
824.83	224.13
825.15	224.11
825.47	224.10
825.79	224.10
826.10	224.10
826.42	224.09
826.74	224.09
827.05	224.08
827.37	224.09
827.69	224.08
828.00	224.08
828.32	224.08
828.64	224.05
828.95	224.11
829.27	224.09
829.58	224.09
829.90	224.11
830.22	224.11
830.53	224.09
830.85	224.08
831.17	224.05
831.48	224.05
831.80	224.05
832.11	224.05
832.43	224.03
832.75	224.03
833.06	224.09
833.38	224.06
833.69	224.06
834.01	224.06
834.32	224.05
834.64	224.04
834.96	224.03
835.27	224.03
835.59	223.98
835.90	223.96
836.22	223.95
836.53	223.92
836.85	223.90
837.16	224.01
837.48	224.01
837.79	224.04
838.11	224.04
838.42	224.04
838.74	224.06
839.05	224.05
839.37	224.03
839.68	223.97
840.00	223.96
840.31	223.98
840.63	223.96
840.94	223.95
841.26	223.95
841.57	223.94
841.88	223.95
842.20	223.94
842.51	223.92
842.83	223.92
843.14	224.01
843.46	224.01
843.77	223.94
844.08	223.93
844.40	223.90
844.71	223.88
845.03	223.87
845.34	223.85
845.65	223.85
845.97	223.85
846.28	223.86
846.60	223.86
846.91	223.84
847.22	223.84
847.54	223.85
847.85	223.86
848.16	223.85
848.48	223.82
848.79	223.86
849.10	223.87
849.42	223.87
849.73	223.77
850.04	223.77
850.36	223.73
850.67	223.75
850.98	223.75
851.30	223.76
851.61	223.76
851.92	223.75
852.23	223.78
852.55	223.79
852.86	223.78
853.17	223.79
853.49	223.81
853.80	223.82
854.11	223.83
854.42	223.84
854.74	223.83
855.05	223.84
855.36	223.78
855.67	223.78
855.99	223.78
856.30	223.90
856.61	223.90
856.92	223.90
857.23	223.91
857.55	223.90
857.86	223.88
858.17	223.90
858.48	223.88
858.79	223.85
859.11	223.87
859.42	223.86
859.73	223.85
860.04	223.85
860.35	223.81
860.66	223.78
860.98	223.77
861.29	223.79
861.60	223.78
861.91	223.81
862.22	223.79
862.53	223.77
862.84	223.65
863.16	223.67
863.47	223.65
863.78	223.63
864.09	223.64
864.40	223.65
864.71	223.65
865.02	223.67
865.33	223.66
865.64	223.64
865.95	223.64
866.27	223.71
866.58	223.70
866.89	223.71
867.20	223.71
867.51	223.69
867.82	223.69
868.13	223.72
868.44	223.69
868.75	223.72
869.06	223.73
869.37	223.74
869.68	223.71
869.99	223.73
870.30	223.74
870.61	223.75
870.92	223.73
871.23	223.71
871.54	223.72
871.85	223.75
872.16	223.76
872.47	223.75
872.78	223.69
873.09	223.70
873.40	223.69
873.71	223.70
874.02	223.71
874.33	223.70
874.64	223.68
874.95	223.70
875.26	223.68
875.56	223.67
875.87	223.67
876.18	223.65
876.49	223.75
876.80	223.74
877.11	223.72
877.42	223.72
877.73	223.73
878.04	223.71
878.35	223.70
878.66	223.70
878.96	223.70
879.27	223.70
879.58	223.68
879.89	223.67
880.20	223.70
880.51	223.69
880.82	223.69
881.12	223.70
881.43	223.67
881.74	223.65
882.05	223.66
882.36	223.66
882.67	223.66
882.97	223.55
883.28	223.55
883.59	223.54
883.90	223.55
884.21	223.57
884.51	223.56
884.82	223.54
885.13	223.53
885.44	223.53
885.74	223.52
886.05	223.52
886.36	223.52
886.67	223.48
886.98	223.53
887.28	223.54
887.59	223.53
887.90	223.54
888.20	223.53
888.51	223.54
888.82	223.52
889.13	223.54
889.43	223.63
889.74	223.61
890.05	223.62
890.35	223.61
890.66	223.60
890.97	223.59
891.28	223.58
891.58	223.58
891.89	223.58
892.20	223.57
892.50	223.56
892.81	223.55
893.12	223.56
893.42	223.51
893.73	223.51
894.04	223.51
894.34	223.51
894.65	223.51
894.95	223.51
895.26	223.51
895.57	223.55
895.87	223.45
896.18	223.47
896.48	223.48
896.79	223.47
897.10	223.48
897.40	223.49
897.71	223.50
898.01	223.49
898.32	223.50
898.63	223.50
898.93	223.51
899.24	223.52
899.54	223.51
899.85	223.50
900.15	223.49
900.46	223.49
900.76	223.50
901.07	223.50
901.38	223.49
901.68	223.50
901.99	223.45
902.29	223.46
902.60	223.45
902.90	223.43
903.21	223.43
903.51	223.42
903.82	223.44
904.12	223.44
904.43	223.45
904.73	223.44
905.03	223.45
905.34	223.55
905.64	223.54
905.95	223.54
906.25	223.55
906.56	223.54
906.86	223.54
907.17	223.53
907.47	223.54
907.77	223.53
908.08	223.51
908.38	223.52
908.69	223.53
908.99	223.55
909.30	223.56
909.60	223.55
909.90	223.55
910.21	223.52
910.51	223.50
910.81	223.50
911.12	223.51
911.42	223.51
911.73	223.40
912.03	223.41
912.33	223.43
912.64	223.42
912.94	223.40
913.24	223.39
913.55	223.38
913.85	223.37
914.15	223.40
914.46	223.41
914.76	223.40
915.06	223.39
915.37	223.36
915.67	223.35
915.97	223.35
916.27	223.34
916.58	223.35
916.88	223.35
917.18	223.34
917.49	223.41
917.79	223.40
918.09	223.42
918.39	223.45
918.70	223.43
919.00	223.44
919.30	223.49
919.60	223.49
919.91	223.48
920.21	223.48
920.51	223.45
920.81	223.45
921.12	223.47
921.42	223.46
921.72	223.47
922.02	223.48
922.32	223.49
922.63	223.49
922.93	223.55
923.23	223.56
923.53	223.54
923.83	223.47
924.13	223.48
924.44	223.48
924.74	223.48
925.04	223.50
925.34	223.50
925.64	223.45
925.94	223.45
926.24	223.51
926.55	223.50
926.85	223.51
927.15	223.51
927.45	223.51
927.75	223.51
928.05	223.51
928.35	223.50
928.65	223.51
928.95	223.52
929.26	223.48
929.56	223.50
929.86	223.51
930.16	223.50
930.46	223.49
930.76	223.49
931.06	223.45
931.36	223.42
931.66	223.43
931.96	223.45
932.26	223.45
932.56	223.41
932.86	223.42
933.16	223.42
933.46	223.41
933.76	223.39
934.06	223.41
934.36	223.44
934.66	223.44
934.96	223.42
935.26	223.42
935.56	223.44
935.86	223.41
936.16	223.39
936.46	223.39
936.76	223.39
937.06	223.37
937.36	223.37
937.66	223.38
937.96	223.37
938.26	223.34
938.56	223.34
938.86	223.34
939.16	223.35
939.46	223.37
939.76	223.38
940.06	223.38
940.35	223.36
940.65	223.31
940.95	223.31
941.25	223.29
941.55	223.28
941.85	223.26
942.15	223.29
942.45	223.32
942.75	223.32
943.04	223.32
943.34	223.34
943.64	223.33
943.94	223.31
944.24	223.32
944.54	223.33
944.84	223.32
945.13	223.31
945.43	223.28
945.73	223.27
946.03	223.26
946.33	223.25
946.62	223.24
946.92	223.24
947.22	223.25
947.52	223.26
947.82	223.28
948.11	223.27
948.41	223.24
948.71	223.21
949.01	223.22
949.31	223.21
949.60	223.20
949.90	223.21
950.20	223.20
950.50	223.20
950.79	223.19
951.09	223.21
951.39	223.21
951.69	223.21
951.98	223.23
952.28	223.23
952.58	223.23
952.87	223.23
953.17	223.24
953.47	223.23
953.76	223.21
954.06	223.19
954.36	223.18
954.66	223.18
954.95	223.21
955.25	223.22
955.55	223.23
955.84	223.22
956.14	223.22
956.44	223.24
956.73	223.22
957.03	223.23
957.32	223.24
957.62	223.23
957.92	223.25
958.21	223.24
958.51	223.36
958.81	223.38
959.10	223.40
959.40	223.42
959.69	223.43
959.99	223.45
960.29	223.46
960.58	223.46
960.88	223.49
961.17	223.48
961.47	223.48
961.76	223.48
962.06	223.49
962.36	223.47
962.65	223.48
962.95	223.49
963.24	223.47
963.54	223.47
963.83	223.48
964.13	223.47
964.42	223.46
964.72	223.38
965.01	223.38
965.31	223.38
965.60	223.35
965.90	223.41
966.19	223.39
966.49	223.39
966.78	223.39
967.08	223.38
967.37	223.39
967.67	223.37
967.96	223.38
968.26	223.38
968.55	223.39
968.85	223.39
969.14	223.39
969.43	223.39
969.73	223.38
970.02	223.38
970.32	223.37
970.61	223.35
970.91	223.32
971.20	223.30
971.49	223.30
971.79	223.31
972.08	223.24
972.38	223.24
972.67	223.24
972.96	223.26
973.26	223.24
973.55	223.27
973.85	223.27
974.14	223.25
974.43	223.26
974.73	223.25
975.02	223.24
975.31	223.24
975.61	223.24
975.90	223.23
976.19	223.22
976.49	223.23
976.78	223.23
977.07	223.23
977.37	223.24
977.66	223.25
977.95	223.23
978.24	223.24
978.54	223.26
978.83	223.25
979.12	223.24
979.42	223.24
979.71	223.22
980.00	223.22
980.29	223.23
980.59	223.20
980.88	223.23
981.17	223.23
981.46	223.23
981.76	223.23
982.05	223.26
982.34	223.27
982.63	223.27
982.93	223.27
983.22	223.30
983.51	223.30
983.80	223.31
984.09	223.32
984.39	223.31
984.68	223.29
984.97	223.30
985.26	223.29
985.55	223.30
985.85	223.28
986.14	223.29
986.43	223.30
986.72	223.29
987.01	223.26
987.30	223.26
987.59	223.26
987.89	223.26
988.18	223.23
988.47	223.21
988.76	223.20
989.05	223.19
989.34	223.18
989.63	223.20
989.92	223.19
990.22	223.17
990.51	223.18
990.80	223.17
991.09	223.17
991.38	223.18
991.67	223.16
991.96	223.15
992.25	223.15
992.54	223.13
992.83	223.14
993.12	223.14
993.41	223.16
993.70	223.19
993.99	223.21
994.28	223.22
994.58	223.24
994.87	223.23
995.16	223.23
995.45	223.22
995.74	223.18
996.03	223.20
996.32	223.21
996.61	223.23
996.90	223.24
997.19	223.23
997.48	223.23
997.77	223.23
998.06	223.23
998.34	223.22
998.63	223.22
998.92	223.22
999.21	223.23
999.50	223.22
999.79	223.19
1000.08	223.18
1000.37	223.19
1000.66	223.17
1000.95	223.20
1001.24	223.22
1001.53	223.23
1001.82	223.23
1002.11	223.21
1002.40	223.21
1002.68	223.23
1002.97	223.30
1003.26	223.29
1003.55	223.28
1003.84	223.29
1004.13	223.33
1004.42	223.33
1004.71	223.34
1004.99	223.34
1005.28	223.35
1005.57	223.34
1005.86	223.33
1006.15	223.33
1006.44	223.30
1006.72	223.31
1007.01	223.29
1007.30	223.29
1007.59	223.27
1007.88	223.27
1008.17	223.28
1008.45	223.26
1008.74	223.22
1009.03	223.17
1009.32	223.17
1009.60	223.16
1009.89	223.15
1010.18	223.11
1010.47	223.10
1010.76	223.10
1011.04	223.10
1011.33	223.10
1011.62	223.12
1011.91	223.12
1012.19	223.13
1012.48	223.13
1012.77	223.13
1013.05	223.17
1013.34	223.18
1013.63	223.17
1013.92	223.18
1014.20	223.17
1014.49	223.18
1014.78	223.19
1015.06	223.16
1015.35	223.17
1015.64	223.18
1015.92	223.19
1016.21	223.20
1016.50	223.21
1016.78	223.22
1017.07	223.22
1017.36	223.21
1017.64	223.19
1017.93	223.19
1018.22	223.19
1018.50	223.19
1018.79	223.19
1019.08	223.14
1019.36	223.15
1019.65	223.14
1019.93	223.16
1020.22	223.18
1020.51	223.23
1020.79	223.22
1021.08	223.06
1021.36	223.01
1021.65	223.17
1021.94	223.09
1022.22	223.23
1022.51	222.98
1022.79	223.65
1023.08	223.24
1023.36	224.42
1023.65	222.91
>>>>>End Processed Spectral Data<<<<<
