SpectraSuite Data File
++++++++++++++++++++++++++++++++++++
Date: Wed Sep 30 14:15:44 EDT 2015
User: lab3
Dark Spectrum Present: No
Reference Spectrum Present: No
Number of Sampled Component Spectra: 1
Spectrometers: USB2E7196
Integration Time (usec): 36000 (USB2E7196)
Spectra Averaged: 1500 (USB2E7196)
Boxcar Smoothing: 10 (USB2E7196)
Correct for Electrical Dark: No (USB2E7196)
Strobe/Lamp Enabled: No (USB2E7196)
Correct for Detector Non-linearity: No (USB2E7196)
Correct for Stray Light: No (USB2E7196)
Number of Pixels in Processed Spectrum: 2048
>>>>>Begin Processed Spectral Data<<<<<
339.09	0.00
339.48	211.17
339.86	212.49
340.24	213.92
340.63	215.49
341.01	218.35
341.39	217.93
341.78	219.33
342.16	220.64
342.54	220.93
342.93	209.59
343.31	220.18
343.69	220.72
344.07	221.19
344.46	221.61
344.84	221.99
345.22	222.22
345.60	222.47
345.99	222.67
346.37	222.80
346.75	222.91
347.13	222.99
347.52	223.05
347.90	223.12
348.28	223.16
348.66	223.20
349.05	223.20
349.43	223.25
349.81	223.30
350.19	223.36
350.57	223.43
350.96	223.52
351.34	223.61
351.72	223.69
352.10	223.79
352.48	223.86
352.87	223.92
353.25	223.99
353.63	224.05
354.01	224.12
354.39	224.19
354.77	224.26
355.15	224.36
355.54	224.41
355.92	224.45
356.30	224.53
356.68	224.66
357.06	224.73
357.44	224.78
357.82	224.84
358.20	224.95
358.58	225.01
358.97	225.08
359.35	225.16
359.73	225.25
360.11	225.29
360.49	225.35
360.87	225.39
361.25	225.45
361.63	225.53
362.01	225.57
362.39	225.61
362.77	225.66
363.15	225.69
363.53	225.73
363.91	225.75
364.29	225.78
364.67	225.71
365.05	225.73
365.43	225.76
365.81	225.79
366.19	225.80
366.57	225.85
366.95	225.85
367.33	225.81
367.71	225.80
368.09	225.83
368.47	225.83
368.85	225.82
369.23	225.83
369.61	225.78
369.99	225.80
370.37	225.80
370.75	225.85
371.13	225.81
371.51	225.77
371.89	225.75
372.27	225.73
372.65	225.69
373.03	225.64
373.41	225.60
373.78	225.54
374.16	225.45
374.54	225.37
374.92	225.32
375.30	225.29
375.68	225.22
376.06	225.17
376.44	225.10
376.82	225.06
377.19	225.00
377.57	224.94
377.95	224.86
378.33	224.80
378.71	224.66
379.09	224.61
379.47	224.57
379.84	224.51
380.22	224.45
380.60	224.38
380.98	224.35
381.36	224.30
381.73	224.24
382.11	224.22
382.49	224.17
382.87	224.10
383.25	224.05
383.62	224.13
384.00	224.06
384.38	224.03
384.76	224.01
385.13	224.00
385.51	223.95
385.89	223.90
386.27	223.87
386.64	223.84
387.02	223.80
387.40	223.76
387.78	223.73
388.15	223.71
388.53	223.67
388.91	223.64
389.29	223.60
389.66	223.58
390.04	223.54
390.42	223.52
390.79	223.50
391.17	223.49
391.55	223.36
391.92	223.35
392.30	223.34
392.68	223.30
393.05	223.27
393.43	223.27
393.81	223.27
394.18	223.24
394.56	223.24
394.94	223.25
395.31	223.25
395.69	223.28
396.06	223.30
396.44	223.32
396.82	223.33
397.19	223.41
397.57	223.41
397.95	223.46
398.32	223.46
398.70	223.51
399.07	223.56
399.45	223.59
399.82	223.63
400.20	223.66
400.58	223.72
400.95	223.73
401.33	223.81
401.70	223.95
402.08	224.04
402.45	224.12
402.83	224.22
403.20	224.32
403.58	224.41
403.95	224.53
404.33	224.67
404.71	224.79
405.08	224.97
405.46	225.11
405.83	225.27
406.21	225.44
406.58	225.63
406.96	225.81
407.33	226.02
407.70	226.27
408.08	226.60
408.45	226.89
408.83	227.19
409.20	227.48
409.58	227.72
409.95	228.07
410.33	228.45
410.70	228.80
411.08	229.20
411.45	229.63
411.82	230.07
412.20	230.56
412.57	231.16
412.95	231.63
413.32	232.24
413.69	232.88
414.07	233.55
414.44	234.28
414.82	235.02
415.19	235.90
415.56	236.77
415.94	237.68
416.31	238.72
416.68	239.75
417.06	240.94
417.43	242.07
417.81	243.37
418.18	244.68
418.55	246.12
418.93	247.63
419.30	249.19
419.67	250.86
420.04	252.58
420.42	254.38
420.79	256.46
421.16	258.55
421.54	260.66
421.91	262.89
422.28	265.20
422.66	267.70
423.03	270.08
423.40	272.59
423.77	275.27
424.15	278.02
424.52	280.89
424.89	283.98
425.26	287.05
425.64	289.91
426.01	293.12
426.38	296.42
426.75	299.82
427.13	303.32
427.50	306.97
427.87	310.77
428.24	314.61
428.61	318.29
428.99	322.27
429.36	326.62
429.73	330.77
430.10	334.92
430.47	339.16
430.85	343.53
431.22	348.17
431.59	352.93
431.96	357.58
432.33	362.75
432.70	367.68
433.08	373.47
433.45	378.92
433.82	384.32
434.19	390.34
434.56	396.25
434.93	401.94
435.30	407.59
435.68	413.92
436.05	420.10
436.42	426.28
436.79	431.91
437.16	438.03
437.53	444.56
437.90	451.07
438.27	457.44
438.64	464.29
439.01	470.50
439.38	476.21
439.75	481.68
440.13	487.88
440.50	493.76
440.87	498.45
441.24	503.58
441.61	509.17
441.98	513.28
442.35	518.17
442.72	523.20
443.09	527.95
443.46	530.98
443.83	533.23
444.20	535.10
444.57	537.85
444.94	539.43
445.31	541.07
445.68	542.51
446.05	543.56
446.42	543.36
446.79	543.08
447.16	542.78
447.53	542.57
447.90	540.69
448.27	538.93
448.64	536.15
449.01	534.34
449.37	530.45
449.74	526.90
450.11	522.32
450.48	517.28
450.85	512.22
451.22	507.93
451.59	503.68
451.96	499.83
452.33	494.24
452.70	489.25
453.07	483.19
453.43	477.13
453.80	471.23
454.17	465.55
454.54	460.25
454.91	454.33
455.28	448.74
455.65	443.47
456.02	437.89
456.38	433.39
456.75	427.55
457.12	422.87
457.49	418.14
457.86	413.64
458.23	409.68
458.59	405.32
458.96	400.86
459.33	396.96
459.70	392.99
460.07	389.98
460.43	386.42
460.80	383.08
461.17	380.16
461.54	377.01
461.91	374.06
462.27	371.05
462.64	368.59
463.01	365.77
463.38	362.92
463.74	360.34
464.11	358.04
464.48	355.98
464.85	353.73
465.21	351.99
465.58	350.10
465.95	347.90
466.32	346.17
466.68	344.46
467.05	342.74
467.42	341.06
467.78	339.25
468.15	337.58
468.52	336.35
468.88	334.72
469.25	333.24
469.62	332.05
469.98	330.79
470.35	329.66
470.72	328.65
471.08	327.60
471.45	326.75
471.82	325.79
472.18	324.77
472.55	324.14
472.92	323.37
473.28	322.76
473.65	322.11
474.02	321.52
474.38	321.02
474.75	320.74
475.11	320.34
475.48	320.19
475.85	320.02
476.21	319.97
476.58	319.98
476.94	320.17
477.31	320.29
477.67	320.44
478.04	320.68
478.41	320.99
478.77	321.45
479.14	321.77
479.50	322.32
479.87	323.03
480.23	323.71
480.60	324.39
480.96	325.09
481.33	326.06
481.69	327.02
482.06	327.98
482.42	328.90
482.79	330.01
483.15	331.27
483.52	332.70
483.88	334.08
484.25	335.56
484.61	337.08
484.98	338.71
485.34	340.54
485.71	342.45
486.07	344.50
486.44	346.53
486.80	348.77
487.17	351.07
487.53	353.58
487.90	356.18
488.26	358.98
488.62	361.94
488.99	364.93
489.35	368.08
489.72	371.48
490.08	375.02
490.44	378.66
490.81	382.47
491.17	386.36
491.54	390.51
491.90	394.73
492.26	399.25
492.63	404.03
492.99	409.02
493.36	414.18
493.72	419.58
494.08	425.16
494.45	431.05
494.81	437.15
495.17	443.33
495.54	449.94
495.90	456.90
496.26	463.94
496.63	471.17
496.99	478.69
497.35	486.53
497.72	494.65
498.08	502.99
498.44	511.56
498.80	520.65
499.17	530.04
499.53	539.75
499.89	549.72
500.26	559.87
500.62	570.21
500.98	581.19
501.34	592.33
501.71	603.95
502.07	615.78
502.43	628.03
502.79	640.73
503.16	653.73
503.52	666.85
503.88	680.45
504.24	694.46
504.60	708.65
504.97	723.29
505.33	738.28
505.69	753.95
506.05	769.93
506.41	786.08
506.78	802.48
507.14	819.43
507.50	836.72
507.86	854.36
508.22	872.27
508.59	890.27
508.95	908.84
509.31	927.91
509.67	947.73
510.03	967.70
510.39	987.76
510.75	1007.98
511.12	1028.54
511.48	1049.31
511.84	1070.39
512.20	1091.73
512.56	1113.85
512.92	1136.10
513.28	1158.37
513.64	1180.88
514.00	1203.75
514.37	1227.19
514.73	1250.58
515.09	1273.79
515.45	1297.18
515.81	1320.85
516.17	1344.62
516.53	1368.29
516.89	1391.74
517.25	1415.15
517.61	1438.75
517.97	1462.64
518.33	1486.59
518.69	1510.68
519.05	1535.07
519.41	1559.38
519.77	1584.12
520.13	1608.09
520.49	1632.12
520.85	1656.06
521.21	1680.01
521.57	1704.50
521.93	1728.15
522.29	1752.24
522.65	1776.18
523.01	1800.14
523.37	1823.54
523.73	1847.55
524.09	1871.32
524.45	1895.15
524.81	1918.86
525.17	1942.06
525.53	1965.01
525.89	1987.83
526.25	2010.64
526.61	2032.11
526.97	2053.85
527.33	2075.33
527.68	2096.82
528.04	2117.96
528.40	2138.99
528.76	2159.66
529.12	2179.68
529.48	2200.36
529.84	2218.93
530.20	2238.05
530.56	2256.57
530.91	2275.76
531.27	2294.32
531.63	2312.18
531.99	2329.59
532.35	2346.49
532.71	2364.25
533.07	2382.29
533.42	2398.62
533.78	2415.42
534.14	2432.66
534.50	2449.10
534.86	2465.99
535.21	2480.87
535.57	2495.61
535.93	2509.89
536.29	2523.64
536.65	2536.91
537.00	2548.88
537.36	2561.90
537.72	2573.70
538.08	2585.56
538.44	2596.08
538.79	2606.07
539.15	2615.12
539.51	2624.13
539.87	2632.13
540.22	2637.64
540.58	2643.25
540.94	2649.55
541.29	2654.76
541.65	2659.72
542.01	2664.44
542.37	2667.03
542.72	2671.13
543.08	2674.35
543.44	2677.24
543.79	2679.45
544.15	2681.23
544.51	2682.56
544.87	2683.82
545.22	2684.60
545.58	2684.22
545.94	2683.85
546.29	2682.31
546.65	2681.11
547.01	2679.68
547.36	2678.71
547.72	2678.18
548.07	2676.40
548.43	2673.15
548.79	2669.58
549.14	2666.06
549.50	2662.69
549.86	2659.21
550.21	2654.56
550.57	2650.22
550.92	2644.72
551.28	2639.15
551.64	2633.47
551.99	2628.02
552.35	2621.39
552.70	2614.91
553.06	2609.30
553.41	2603.31
553.77	2597.20
554.13	2590.99
554.48	2583.51
554.84	2575.13
555.19	2566.61
555.55	2557.53
555.90	2549.61
556.26	2541.84
556.61	2533.17
556.97	2523.11
557.32	2513.30
557.68	2503.57
558.03	2493.46
558.39	2484.31
558.74	2475.88
559.10	2466.03
559.45	2456.05
559.81	2446.57
560.16	2436.59
560.52	2426.20
560.87	2416.03
561.23	2405.33
561.58	2395.09
561.94	2384.84
562.29	2374.15
562.64	2363.97
563.00	2353.94
563.35	2343.77
563.71	2332.79
564.06	2322.14
564.42	2311.79
564.77	2301.29
565.12	2290.67
565.48	2279.77
565.83	2268.41
566.19	2256.70
566.54	2245.67
566.89	2233.82
567.25	2221.90
567.60	2210.97
567.96	2199.51
568.31	2187.09
568.66	2175.11
569.02	2163.34
569.37	2151.98
569.72	2141.42
570.08	2129.81
570.43	2117.88
570.78	2105.74
571.14	2093.65
571.49	2081.18
571.84	2068.97
572.20	2055.91
572.55	2042.93
572.90	2030.43
573.26	2018.31
573.61	2005.35
573.96	1992.73
574.31	1980.51
574.67	1968.30
575.02	1955.10
575.37	1941.90
575.72	1929.11
576.08	1916.36
576.43	1903.04
576.78	1889.72
577.13	1876.14
577.49	1862.92
577.84	1849.88
578.19	1836.93
578.54	1823.64
578.90	1810.10
579.25	1796.33
579.60	1783.77
579.95	1771.33
580.30	1758.68
580.66	1745.50
581.01	1732.38
581.36	1718.91
581.71	1705.94
582.06	1693.15
582.42	1680.61
582.77	1668.10
583.12	1655.87
583.47	1643.95
583.82	1631.64
584.17	1618.59
584.53	1605.84
584.88	1593.29
585.23	1580.67
585.58	1568.05
585.93	1555.86
586.28	1544.24
586.63	1532.55
586.98	1520.34
587.34	1508.28
587.69	1495.66
588.04	1483.46
588.39	1471.75
588.74	1459.77
589.09	1448.20
589.44	1435.86
589.79	1423.73
590.14	1411.77
590.49	1399.76
590.84	1387.82
591.19	1376.54
591.54	1365.26
591.89	1353.74
592.25	1342.74
592.60	1331.33
592.95	1320.30
593.30	1309.14
593.65	1298.16
594.00	1287.32
594.35	1276.99
594.70	1265.86
595.05	1255.60
595.40	1245.06
595.75	1234.34
596.10	1224.26
596.45	1213.81
596.80	1204.05
597.15	1194.45
597.50	1184.78
597.85	1175.46
598.19	1166.10
598.54	1156.43
598.89	1147.40
599.24	1138.62
599.59	1129.75
599.94	1121.51
600.29	1112.93
600.64	1104.46
600.99	1095.32
601.34	1086.68
601.69	1077.81
602.04	1069.89
602.39	1061.55
602.74	1053.71
603.08	1046.11
603.43	1038.31
603.78	1030.39
604.13	1022.59
604.48	1014.58
604.83	1006.82
605.18	998.89
605.53	990.86
605.87	982.91
606.22	975.21
606.57	967.28
606.92	959.24
607.27	951.40
607.62	943.79
607.96	936.25
608.31	929.69
608.66	922.90
609.01	916.13
609.36	909.28
609.70	902.50
610.05	895.51
610.40	888.69
610.75	881.68
611.10	875.14
611.44	868.34
611.79	861.88
612.14	855.27
612.49	848.53
612.83	842.31
613.18	836.20
613.53	830.15
613.88	824.24
614.22	818.53
614.57	812.58
614.92	806.77
615.27	801.02
615.61	794.86
615.96	788.76
616.31	782.84
616.65	776.75
617.00	770.78
617.35	764.88
617.70	759.04
618.04	753.40
618.39	747.60
618.74	742.11
619.08	736.44
619.43	730.97
619.78	725.61
620.12	720.05
620.47	714.67
620.82	709.31
621.16	704.04
621.51	698.67
621.85	693.37
622.20	687.96
622.55	682.60
622.89	677.38
623.24	672.32
623.59	667.33
623.93	662.61
624.28	658.02
624.62	653.43
624.97	648.78
625.32	644.18
625.66	639.41
626.01	634.60
626.35	629.96
626.70	625.31
627.04	620.94
627.39	616.58
627.73	612.21
628.08	607.91
628.43	603.60
628.77	599.34
629.12	595.18
629.46	591.19
629.81	587.10
630.15	583.04
630.50	579.06
630.84	575.12
631.19	571.26
631.53	567.49
631.88	563.69
632.22	559.81
632.57	556.19
632.91	552.64
633.26	549.10
633.60	545.56
633.95	542.11
634.29	538.56
634.64	535.05
634.98	531.47
635.32	527.99
635.67	524.76
636.01	521.55
636.36	518.29
636.70	515.15
637.05	512.06
637.39	509.01
637.73	505.75
638.08	502.60
638.42	499.51
638.77	496.28
639.11	492.99
639.45	489.83
639.80	486.66
640.14	483.62
640.49	480.62
640.83	477.56
641.17	474.59
641.52	471.59
641.86	468.57
642.20	465.72
642.55	462.73
642.89	459.76
643.23	456.92
643.58	454.29
643.92	451.54
644.26	448.83
644.61	446.18
644.95	443.59
645.29	440.90
645.64	438.14
645.98	435.49
646.32	432.96
646.66	430.47
647.01	428.02
647.35	425.70
647.69	423.24
648.04	420.89
648.38	418.48
648.72	416.14
649.06	413.83
649.41	411.57
649.75	409.36
650.09	407.11
650.43	404.89
650.78	402.64
651.12	400.40
651.46	398.22
651.80	396.10
652.14	394.05
652.49	392.07
652.83	390.11
653.17	388.19
653.51	386.34
653.85	384.50
654.20	382.61
654.54	380.60
654.88	378.70
655.22	376.85
655.56	375.07
655.90	373.32
656.25	371.60
656.59	369.87
656.93	368.23
657.27	366.65
657.61	364.99
657.95	363.36
658.29	361.80
658.64	360.27
658.98	358.63
659.32	356.97
659.66	355.41
660.00	353.90
660.34	352.38
660.68	350.85
661.02	349.29
661.36	347.78
661.70	346.33
662.05	344.93
662.39	343.55
662.73	342.20
663.07	340.91
663.41	339.64
663.75	338.36
664.09	337.09
664.43	335.75
664.77	334.46
665.11	333.12
665.45	331.83
665.79	330.56
666.13	329.37
666.47	328.22
666.81	327.01
667.15	325.74
667.49	324.57
667.83	323.40
668.17	322.28
668.51	321.20
668.85	320.13
669.19	319.10
669.53	317.97
669.87	316.78
670.21	315.67
670.55	314.57
670.89	313.57
671.23	312.52
671.57	311.51
671.91	310.57
672.25	309.68
672.58	308.79
672.92	307.86
673.26	306.97
673.60	306.08
673.94	305.20
674.28	304.36
674.62	303.51
674.96	302.62
675.30	301.80
675.64	300.95
675.97	300.11
676.31	299.24
676.65	298.44
676.99	297.73
677.33	296.92
677.67	296.14
678.01	295.27
678.34	294.48
678.68	293.72
679.02	292.93
679.36	292.14
679.70	291.36
680.04	290.59
680.37	289.83
680.71	289.08
681.05	288.39
681.39	287.68
681.73	286.96
682.06	286.27
682.40	285.57
682.74	284.90
683.08	284.27
683.42	283.60
683.75	282.96
684.09	282.26
684.43	281.62
684.77	280.97
685.10	280.37
685.44	279.75
685.78	279.13
686.12	278.54
686.45	277.95
686.79	277.33
687.13	276.74
687.46	276.12
687.80	275.53
688.14	274.93
688.48	274.35
688.81	273.76
689.15	273.22
689.49	272.63
689.82	272.06
690.16	271.41
690.50	270.83
690.83	270.25
691.17	269.67
691.51	269.12
691.84	268.61
692.18	268.06
692.52	267.51
692.85	266.98
693.19	266.48
693.52	265.96
693.86	265.44
694.20	264.93
694.53	264.44
694.87	263.92
695.21	263.41
695.54	262.91
695.88	262.41
696.21	261.89
696.55	261.43
696.88	260.95
697.22	260.49
697.56	260.06
697.89	259.61
698.23	259.19
698.56	258.75
698.90	258.34
699.23	257.91
699.57	257.51
699.90	257.09
700.24	256.65
700.58	256.25
700.91	255.88
701.25	255.58
701.58	255.24
701.92	254.88
702.25	254.52
702.59	254.14
702.92	253.79
703.26	253.43
703.59	253.05
703.93	252.79
704.26	252.46
704.60	252.09
704.93	251.72
705.26	251.35
705.60	251.03
705.93	250.65
706.27	250.35
706.60	250.04
706.94	249.75
707.27	249.41
707.61	249.07
707.94	248.73
708.27	248.32
708.61	247.96
708.94	247.64
709.28	247.33
709.61	247.03
709.94	246.75
710.28	246.48
710.61	246.23
710.95	245.87
711.28	245.66
711.61	245.39
711.95	245.16
712.28	244.90
712.61	244.62
712.95	244.42
713.28	244.20
713.61	243.93
713.95	243.64
714.28	243.42
714.61	243.17
714.95	242.93
715.28	242.69
715.61	242.46
715.95	242.24
716.28	242.03
716.61	241.83
716.95	241.60
717.28	241.37
717.61	241.14
717.94	240.93
718.28	240.64
718.61	240.45
718.94	240.24
719.27	240.05
719.61	239.88
719.94	239.66
720.27	239.40
720.60	239.22
720.94	239.04
721.27	238.86
721.60	238.71
721.93	238.53
722.27	238.38
722.60	238.22
722.93	238.02
723.26	237.84
723.59	237.63
723.93	237.47
724.26	237.33
724.59	237.16
724.92	237.01
725.25	236.88
725.59	236.71
725.92	236.57
726.25	236.42
726.58	236.27
726.91	236.12
727.24	236.00
727.57	235.85
727.91	235.69
728.24	235.56
728.57	235.40
728.90	235.26
729.23	235.10
729.56	235.02
729.89	234.89
730.22	234.76
730.55	234.64
730.89	234.52
731.22	234.37
731.55	234.25
731.88	234.11
732.21	233.97
732.54	233.86
732.87	233.75
733.20	233.62
733.53	233.51
733.86	233.42
734.19	233.29
734.52	233.21
734.85	233.18
735.18	233.06
735.51	232.99
735.84	232.90
736.17	232.83
736.50	232.66
736.83	232.68
737.16	232.59
737.49	232.50
737.82	232.40
738.15	232.32
738.48	232.24
738.81	232.14
739.14	232.04
739.47	231.94
739.80	231.85
740.13	231.77
740.46	231.66
740.79	231.53
741.12	231.44
741.45	231.31
741.78	231.15
742.11	231.09
742.44	230.98
742.77	230.91
743.10	230.81
743.43	230.73
743.75	230.53
744.08	230.60
744.41	230.51
744.74	230.43
745.07	230.32
745.40	230.26
745.73	230.23
746.06	230.16
746.39	230.12
746.71	230.04
747.04	229.96
747.37	229.89
747.70	229.84
748.03	229.79
748.36	229.74
748.68	229.68
749.01	229.58
749.34	229.51
749.67	229.45
750.00	229.40
750.33	229.41
750.65	229.36
750.98	229.16
751.31	229.10
751.64	229.05
751.97	229.05
752.29	228.98
752.62	228.87
752.95	228.81
753.28	228.73
753.60	228.66
753.93	228.62
754.26	228.57
754.59	228.49
754.91	228.43
755.24	228.35
755.57	228.34
755.90	228.28
756.22	228.21
756.55	228.13
756.88	228.06
757.20	227.94
757.53	227.86
757.86	227.80
758.19	227.75
758.51	227.69
758.84	227.57
759.17	227.50
759.49	227.46
759.82	227.46
760.15	227.42
760.47	227.37
760.80	227.30
761.13	227.26
761.45	227.21
761.78	227.17
762.11	227.13
762.43	227.03
762.76	226.98
763.08	226.96
763.41	226.92
763.74	226.88
764.06	226.82
764.39	226.79
764.71	226.74
765.04	226.69
765.37	226.66
765.69	226.63
766.02	226.60
766.34	226.56
766.67	226.49
767.00	226.46
767.32	226.48
767.65	226.51
767.97	226.46
768.30	226.43
768.62	226.39
768.95	226.34
769.27	226.31
769.60	226.29
769.92	226.23
770.25	226.18
770.57	226.14
770.90	226.11
771.22	226.06
771.55	226.03
771.87	226.00
772.20	225.96
772.52	226.01
772.85	226.10
773.17	226.07
773.50	226.02
773.82	225.97
774.15	225.89
774.47	225.79
774.80	225.76
775.12	225.72
775.45	225.69
775.77	225.66
776.09	225.64
776.42	225.62
776.74	225.63
777.07	225.60
777.39	225.58
777.72	225.55
778.04	225.54
778.36	225.52
778.69	225.49
779.01	225.49
779.33	225.38
779.66	225.24
779.98	225.21
780.31	225.19
780.63	225.21
780.95	225.22
781.28	225.19
781.60	225.17
781.92	225.16
782.25	225.14
782.57	225.12
782.89	225.11
783.22	225.08
783.54	225.04
783.86	225.04
784.19	225.01
784.51	225.02
784.83	224.98
785.16	224.98
785.48	224.96
785.80	224.94
786.12	224.93
786.45	224.91
786.77	224.90
787.09	224.88
787.42	224.83
787.74	224.81
788.06	224.81
788.38	224.79
788.71	224.76
789.03	224.75
789.35	224.74
789.67	224.70
789.99	224.69
790.32	224.66
790.64	224.66
790.96	224.74
791.28	224.69
791.61	224.67
791.93	224.65
792.25	224.62
792.57	224.67
792.89	224.64
793.21	224.64
793.54	224.62
793.86	224.59
794.18	224.58
794.50	224.54
794.82	224.52
795.14	224.51
795.47	224.52
795.79	224.51
796.11	224.47
796.43	224.47
796.75	224.45
797.07	224.44
797.39	224.42
797.71	224.31
798.04	224.31
798.36	224.30
798.68	224.29
799.00	224.29
799.32	224.23
799.64	224.24
799.96	224.23
800.28	224.23
800.60	224.22
800.92	224.22
801.24	224.21
801.56	224.20
801.89	224.18
802.21	224.16
802.53	224.14
802.85	224.16
803.17	224.19
803.49	224.17
803.81	224.15
804.13	224.14
804.45	224.12
804.77	224.12
805.09	224.11
805.41	224.10
805.73	224.07
806.05	224.04
806.37	224.02
806.69	224.00
807.01	223.97
807.33	223.96
807.65	223.92
807.97	223.96
808.28	223.93
808.60	223.93
808.92	223.93
809.24	223.98
809.56	223.96
809.88	223.91
810.20	223.91
810.52	223.92
810.84	223.90
811.16	223.88
811.48	223.86
811.80	223.89
812.12	223.88
812.43	223.89
812.75	223.89
813.07	223.88
813.39	223.88
813.71	223.86
814.03	223.85
814.35	223.85
814.67	223.80
814.98	223.78
815.30	223.77
815.62	223.74
815.94	223.67
816.26	223.68
816.58	223.66
816.89	223.66
817.21	223.62
817.53	223.64
817.85	223.65
818.17	223.64
818.48	223.59
818.80	223.61
819.12	223.58
819.44	223.57
819.76	223.55
820.07	223.55
820.39	223.54
820.71	223.55
821.03	223.55
821.34	223.54
821.66	223.56
821.98	223.57
822.30	223.57
822.61	223.63
822.93	223.61
823.25	223.60
823.57	223.58
823.88	223.60
824.20	223.59
824.52	223.59
824.83	223.59
825.15	223.57
825.47	223.54
825.79	223.55
826.10	223.54
826.42	223.53
826.74	223.53
827.05	223.52
827.37	223.51
827.69	223.50
828.00	223.50
828.32	223.50
828.64	223.48
828.95	223.53
829.27	223.49
829.58	223.49
829.90	223.50
830.22	223.52
830.53	223.49
830.85	223.47
831.17	223.45
831.48	223.45
831.80	223.46
832.11	223.46
832.43	223.45
832.75	223.45
833.06	223.51
833.38	223.49
833.69	223.48
834.01	223.48
834.32	223.48
834.64	223.47
834.96	223.47
835.27	223.46
835.59	223.43
835.90	223.41
836.22	223.40
836.53	223.38
836.85	223.36
837.16	223.47
837.48	223.47
837.79	223.50
838.11	223.50
838.42	223.50
838.74	223.51
839.05	223.50
839.37	223.50
839.68	223.43
840.00	223.42
840.31	223.44
840.63	223.43
840.94	223.41
841.26	223.41
841.57	223.40
841.88	223.41
842.20	223.39
842.51	223.38
842.83	223.38
843.14	223.48
843.46	223.48
843.77	223.42
844.08	223.41
844.40	223.37
844.71	223.36
845.03	223.35
845.34	223.35
845.65	223.34
845.97	223.34
846.28	223.35
846.60	223.36
846.91	223.33
847.22	223.32
847.54	223.35
847.85	223.35
848.16	223.33
848.48	223.31
848.79	223.35
849.10	223.37
849.42	223.37
849.73	223.28
850.04	223.27
850.36	223.24
850.67	223.25
850.98	223.27
851.30	223.27
851.61	223.27
851.92	223.27
852.23	223.30
852.55	223.30
852.86	223.30
853.17	223.32
853.49	223.34
853.80	223.37
854.11	223.37
854.42	223.37
854.74	223.37
855.05	223.37
855.36	223.33
855.67	223.32
855.99	223.32
856.30	223.44
856.61	223.43
856.92	223.42
857.23	223.43
857.55	223.41
857.86	223.40
858.17	223.41
858.48	223.39
858.79	223.36
859.11	223.38
859.42	223.36
859.73	223.33
860.04	223.32
860.35	223.28
860.66	223.25
860.98	223.25
861.29	223.27
861.60	223.25
861.91	223.27
862.22	223.26
862.53	223.25
862.84	223.11
863.16	223.14
863.47	223.12
863.78	223.10
864.09	223.11
864.40	223.12
864.71	223.12
865.02	223.13
865.33	223.10
865.64	223.09
865.95	223.09
866.27	223.16
866.58	223.15
866.89	223.17
867.20	223.17
867.51	223.15
867.82	223.15
868.13	223.18
868.44	223.15
868.75	223.18
869.06	223.17
869.37	223.19
869.68	223.16
869.99	223.18
870.30	223.18
870.61	223.19
870.92	223.17
871.23	223.15
871.54	223.16
871.85	223.19
872.16	223.20
872.47	223.19
872.78	223.13
873.09	223.14
873.40	223.13
873.71	223.13
874.02	223.14
874.33	223.13
874.64	223.12
874.95	223.13
875.26	223.10
875.56	223.10
875.87	223.09
876.18	223.09
876.49	223.19
876.80	223.18
877.11	223.16
877.42	223.17
877.73	223.17
878.04	223.16
878.35	223.15
878.66	223.15
878.96	223.16
879.27	223.16
879.58	223.16
879.89	223.15
880.20	223.19
880.51	223.18
880.82	223.17
881.12	223.18
881.43	223.16
881.74	223.15
882.05	223.16
882.36	223.16
882.67	223.17
882.97	223.06
883.28	223.05
883.59	223.05
883.90	223.07
884.21	223.08
884.51	223.07
884.82	223.06
885.13	223.06
885.44	223.05
885.74	223.05
886.05	223.05
886.36	223.05
886.67	223.00
886.98	223.05
887.28	223.07
887.59	223.07
887.90	223.07
888.20	223.07
888.51	223.09
888.82	223.07
889.13	223.08
889.43	223.17
889.74	223.16
890.05	223.16
890.35	223.14
890.66	223.13
890.97	223.12
891.28	223.12
891.58	223.12
891.89	223.12
892.20	223.11
892.50	223.11
892.81	223.10
893.12	223.11
893.42	223.05
893.73	223.04
894.04	223.04
894.34	223.05
894.65	223.04
894.95	223.03
895.26	223.03
895.57	223.07
895.87	222.97
896.18	222.99
896.48	222.99
896.79	222.99
897.10	223.00
897.40	223.01
897.71	223.02
898.01	223.02
898.32	223.03
898.63	223.02
898.93	223.02
899.24	223.03
899.54	223.02
899.85	223.02
900.15	223.02
900.46	223.02
900.76	223.03
901.07	223.02
901.38	223.01
901.68	223.03
901.99	222.97
902.29	222.97
902.60	222.95
902.90	222.94
903.21	222.94
903.51	222.93
903.82	222.94
904.12	222.94
904.43	222.93
904.73	222.92
905.03	222.93
905.34	223.02
905.64	223.01
905.95	223.02
906.25	223.01
906.56	223.01
906.86	222.99
907.17	222.98
907.47	222.99
907.77	222.98
908.08	222.96
908.38	222.97
908.69	222.98
908.99	223.00
909.30	222.99
909.60	222.98
909.90	222.99
910.21	222.97
910.51	222.95
910.81	222.94
911.12	222.96
911.42	222.96
911.73	222.84
912.03	222.85
912.33	222.86
912.64	222.86
912.94	222.85
913.24	222.84
913.55	222.83
913.85	222.82
914.15	222.84
914.46	222.86
914.76	222.85
915.06	222.84
915.37	222.82
915.67	222.82
915.97	222.82
916.27	222.79
916.58	222.80
916.88	222.79
917.18	222.78
917.49	222.85
917.79	222.84
918.09	222.87
918.39	222.89
918.70	222.88
919.00	222.89
919.30	222.94
919.60	222.93
919.91	222.92
920.21	222.93
920.51	222.91
920.81	222.90
921.12	222.92
921.42	222.92
921.72	222.92
922.02	222.93
922.32	222.95
922.63	222.96
922.93	223.00
923.23	223.00
923.53	222.99
923.83	222.92
924.13	222.93
924.44	222.93
924.74	222.94
925.04	222.96
925.34	222.95
925.64	222.91
925.94	222.91
926.24	222.97
926.55	222.95
926.85	222.96
927.15	222.97
927.45	222.96
927.75	222.97
928.05	222.98
928.35	222.97
928.65	222.98
928.95	222.99
929.26	222.94
929.56	222.96
929.86	222.98
930.16	222.97
930.46	222.96
930.76	222.95
931.06	222.91
931.36	222.88
931.66	222.90
931.96	222.91
932.26	222.92
932.56	222.88
932.86	222.90
933.16	222.90
933.46	222.88
933.76	222.86
934.06	222.86
934.36	222.90
934.66	222.90
934.96	222.89
935.26	222.89
935.56	222.92
935.86	222.89
936.16	222.87
936.46	222.87
936.76	222.86
937.06	222.85
937.36	222.86
937.66	222.86
937.96	222.86
938.26	222.83
938.56	222.83
938.86	222.83
939.16	222.85
939.46	222.85
939.76	222.85
940.06	222.86
940.35	222.85
940.65	222.79
940.95	222.79
941.25	222.76
941.55	222.74
941.85	222.73
942.15	222.76
942.45	222.80
942.75	222.80
943.04	222.81
943.34	222.83
943.64	222.81
943.94	222.80
944.24	222.80
944.54	222.80
944.84	222.80
945.13	222.79
945.43	222.77
945.73	222.77
946.03	222.76
946.33	222.75
946.62	222.74
946.92	222.73
947.22	222.75
947.52	222.76
947.82	222.77
948.11	222.75
948.41	222.72
948.71	222.69
949.01	222.69
949.31	222.68
949.60	222.67
949.90	222.68
950.20	222.68
950.50	222.67
950.79	222.65
951.09	222.67
951.39	222.66
951.69	222.64
951.98	222.66
952.28	222.67
952.58	222.67
952.87	222.66
953.17	222.67
953.47	222.66
953.76	222.65
954.06	222.64
954.36	222.63
954.66	222.63
954.95	222.65
955.25	222.66
955.55	222.67
955.84	222.65
956.14	222.66
956.44	222.68
956.73	222.67
957.03	222.69
957.32	222.69
957.62	222.69
957.92	222.71
958.21	222.70
958.51	222.81
958.81	222.83
959.10	222.85
959.40	222.87
959.69	222.88
959.99	222.90
960.29	222.91
960.58	222.91
960.88	222.96
961.17	222.94
961.47	222.95
961.76	222.93
962.06	222.96
962.36	222.94
962.65	222.94
962.95	222.93
963.24	222.91
963.54	222.91
963.83	222.92
964.13	222.91
964.42	222.89
964.72	222.80
965.01	222.81
965.31	222.81
965.60	222.79
965.90	222.85
966.19	222.82
966.49	222.82
966.78	222.82
967.08	222.80
967.37	222.81
967.67	222.78
967.96	222.81
968.26	222.80
968.55	222.80
968.85	222.80
969.14	222.81
969.43	222.81
969.73	222.81
970.02	222.81
970.32	222.81
970.61	222.79
970.91	222.75
971.20	222.73
971.49	222.72
971.79	222.74
972.08	222.66
972.38	222.68
972.67	222.67
972.96	222.70
973.26	222.68
973.55	222.71
973.85	222.71
974.14	222.71
974.43	222.72
974.73	222.70
975.02	222.69
975.31	222.69
975.61	222.69
975.90	222.68
976.19	222.67
976.49	222.68
976.78	222.70
977.07	222.70
977.37	222.70
977.66	222.72
977.95	222.70
978.24	222.70
978.54	222.71
978.83	222.71
979.12	222.70
979.42	222.70
979.71	222.68
980.00	222.68
980.29	222.67
980.59	222.65
980.88	222.68
981.17	222.68
981.46	222.69
981.76	222.69
982.05	222.72
982.34	222.72
982.63	222.72
982.93	222.72
983.22	222.74
983.51	222.75
983.80	222.76
984.09	222.77
984.39	222.76
984.68	222.74
984.97	222.73
985.26	222.73
985.55	222.73
985.85	222.71
986.14	222.73
986.43	222.74
986.72	222.74
987.01	222.70
987.30	222.70
987.59	222.71
987.89	222.71
988.18	222.67
988.47	222.66
988.76	222.65
989.05	222.64
989.34	222.63
989.63	222.65
989.92	222.64
990.22	222.63
990.51	222.63
990.80	222.64
991.09	222.65
991.38	222.67
991.67	222.66
991.96	222.65
992.25	222.65
992.54	222.63
992.83	222.64
993.12	222.64
993.41	222.66
993.70	222.69
993.99	222.71
994.28	222.72
994.58	222.74
994.87	222.74
995.16	222.74
995.45	222.73
995.74	222.69
996.03	222.71
996.32	222.72
996.61	222.74
996.90	222.74
997.19	222.73
997.48	222.72
997.77	222.72
998.06	222.74
998.34	222.73
998.63	222.73
998.92	222.73
999.21	222.75
999.50	222.74
999.79	222.71
1000.08	222.70
1000.37	222.71
1000.66	222.69
1000.95	222.71
1001.24	222.72
1001.53	222.73
1001.82	222.74
1002.11	222.73
1002.40	222.74
1002.68	222.77
1002.97	222.84
1003.26	222.83
1003.55	222.81
1003.84	222.83
1004.13	222.84
1004.42	222.84
1004.71	222.83
1004.99	222.82
1005.28	222.84
1005.57	222.84
1005.86	222.83
1006.15	222.82
1006.44	222.80
1006.72	222.81
1007.01	222.80
1007.30	222.79
1007.59	222.78
1007.88	222.77
1008.17	222.77
1008.45	222.73
1008.74	222.70
1009.03	222.65
1009.32	222.65
1009.60	222.65
1009.89	222.63
1010.18	222.60
1010.47	222.59
1010.76	222.59
1011.04	222.59
1011.33	222.59
1011.62	222.59
1011.91	222.60
1012.19	222.61
1012.48	222.63
1012.77	222.62
1013.05	222.65
1013.34	222.65
1013.63	222.65
1013.92	222.66
1014.20	222.65
1014.49	222.66
1014.78	222.66
1015.06	222.62
1015.35	222.62
1015.64	222.63
1015.92	222.65
1016.21	222.65
1016.50	222.65
1016.78	222.67
1017.07	222.68
1017.36	222.65
1017.64	222.63
1017.93	222.63
1018.22	222.62
1018.50	222.60
1018.79	222.61
1019.08	222.56
1019.36	222.57
1019.65	222.56
1019.93	222.58
1020.22	222.60
1020.51	222.65
1020.79	222.64
1021.08	222.44
1021.36	222.45
1021.65	222.65
1021.94	222.52
1022.22	222.75
1022.51	222.33
1022.79	223.08
1023.08	222.78
1023.36	223.85
1023.65	222.34
>>>>>End Processed Spectral Data<<<<<
