SpectraSuite Data File
++++++++++++++++++++++++++++++++++++
Date: Thu Oct 01 13:34:56 EDT 2015
User: lab3
Dark Spectrum Present: No
Reference Spectrum Present: No
Number of Sampled Component Spectra: 1
Spectrometers: USB2E7196
Integration Time (usec): 36000 (USB2E7196)
Spectra Averaged: 10000 (USB2E7196)
Boxcar Smoothing: 10 (USB2E7196)
Correct for Electrical Dark: No (USB2E7196)
Strobe/Lamp Enabled: No (USB2E7196)
Correct for Detector Non-linearity: No (USB2E7196)
Correct for Stray Light: No (USB2E7196)
Number of Pixels in Processed Spectrum: 2048
>>>>>Begin Processed Spectral Data<<<<<
339.09	0.00
339.48	211.68
339.86	213.13
340.24	214.52
340.63	215.95
341.01	218.84
341.39	218.68
341.78	219.95
342.16	221.20
342.54	221.69
342.93	210.20
343.31	220.82
343.69	221.36
344.07	221.82
344.46	222.25
344.84	222.63
345.22	222.87
345.60	223.12
345.99	223.32
346.37	223.45
346.75	223.56
347.13	223.64
347.52	223.71
347.90	223.79
348.28	223.83
348.66	223.89
349.05	223.88
349.43	223.94
349.81	224.00
350.19	224.05
350.57	224.12
350.96	224.20
351.34	224.30
351.72	224.39
352.10	224.50
352.48	224.58
352.87	224.64
353.25	224.70
353.63	224.77
354.01	224.84
354.39	224.92
354.77	224.99
355.15	225.10
355.54	225.15
355.92	225.19
356.30	225.26
356.68	225.40
357.06	225.48
357.44	225.53
357.82	225.59
358.20	225.70
358.58	225.76
358.97	225.82
359.35	225.90
359.73	225.98
360.11	226.03
360.49	226.09
360.87	226.14
361.25	226.20
361.63	226.28
362.01	226.33
362.39	226.36
362.77	226.40
363.15	226.43
363.53	226.46
363.91	226.49
364.29	226.52
364.67	226.44
365.05	226.46
365.43	226.49
365.81	226.52
366.19	226.53
366.57	226.58
366.95	226.58
367.33	226.56
367.71	226.55
368.09	226.56
368.47	226.56
368.85	226.55
369.23	226.55
369.61	226.50
369.99	226.51
370.37	226.51
370.75	226.57
371.13	226.54
371.51	226.50
371.89	226.48
372.27	226.46
372.65	226.43
373.03	226.39
373.41	226.34
373.78	226.30
374.16	226.21
374.54	226.13
374.92	226.08
375.30	226.04
375.68	225.97
376.06	225.93
376.44	225.87
376.82	225.83
377.19	225.78
377.57	225.72
377.95	225.64
378.33	225.57
378.71	225.43
379.09	225.38
379.47	225.34
379.84	225.28
380.22	225.22
380.60	225.15
380.98	225.10
381.36	225.05
381.73	224.98
382.11	224.95
382.49	224.91
382.87	224.85
383.25	224.80
383.62	224.87
384.00	224.81
384.38	224.77
384.76	224.75
385.13	224.73
385.51	224.69
385.89	224.64
386.27	224.60
386.64	224.58
387.02	224.53
387.40	224.49
387.78	224.46
388.15	224.43
388.53	224.40
388.91	224.37
389.29	224.33
389.66	224.32
390.04	224.28
390.42	224.28
390.79	224.26
391.17	224.24
391.55	224.11
391.92	224.10
392.30	224.10
392.68	224.06
393.05	224.04
393.43	224.04
393.81	224.05
394.18	224.03
394.56	224.03
394.94	224.06
395.31	224.06
395.69	224.10
396.06	224.12
396.44	224.15
396.82	224.16
397.19	224.24
397.57	224.26
397.95	224.30
398.32	224.29
398.70	224.33
399.07	224.39
399.45	224.43
399.82	224.47
400.20	224.51
400.58	224.57
400.95	224.59
401.33	224.67
401.70	224.80
402.08	224.89
402.45	224.97
402.83	225.08
403.20	225.18
403.58	225.27
403.95	225.39
404.33	225.53
404.71	225.66
405.08	225.84
405.46	225.99
405.83	226.16
406.21	226.33
406.58	226.53
406.96	226.72
407.33	226.95
407.70	227.20
408.08	227.53
408.45	227.83
408.83	228.15
409.20	228.44
409.58	228.70
409.95	229.07
410.33	229.46
410.70	229.83
411.08	230.26
411.45	230.72
411.82	231.19
412.20	231.72
412.57	232.34
412.95	232.84
413.32	233.49
413.69	234.15
414.07	234.86
414.44	235.63
414.82	236.41
415.19	237.33
415.56	238.26
415.94	239.23
416.31	240.32
416.68	241.41
417.06	242.67
417.43	243.85
417.81	245.21
418.18	246.60
418.55	248.13
418.93	249.70
419.30	251.36
419.67	253.12
420.04	254.93
420.42	256.81
420.79	259.00
421.16	261.20
421.54	263.43
421.91	265.77
422.28	268.20
422.66	270.82
423.03	273.31
423.40	275.92
423.77	278.73
424.15	281.61
424.52	284.59
424.89	287.83
425.26	291.06
425.64	294.04
426.01	297.39
426.38	300.80
426.75	304.32
427.13	307.92
427.50	311.69
427.87	315.60
428.24	319.54
428.61	323.32
428.99	327.38
429.36	331.84
429.73	336.10
430.10	340.34
430.47	344.66
430.85	349.12
431.22	353.86
431.59	358.73
431.96	363.47
432.33	368.72
432.70	373.68
433.08	379.56
433.45	385.11
433.82	390.57
434.19	396.68
434.56	402.67
434.93	408.46
435.30	414.18
435.68	420.63
436.05	426.93
436.42	433.24
436.79	438.97
437.16	445.18
437.53	451.83
437.90	458.49
438.27	464.99
438.64	472.06
439.01	478.46
439.38	484.30
439.75	489.97
440.13	496.43
440.50	502.59
440.87	507.46
441.24	512.82
441.61	518.73
441.98	523.08
442.35	528.27
442.72	533.59
443.09	538.69
443.46	542.03
443.83	544.52
444.20	546.63
444.57	549.71
444.94	551.60
445.31	553.55
445.68	555.29
446.05	556.65
446.42	556.62
446.79	556.47
447.16	556.38
447.53	556.32
447.90	554.55
448.27	552.90
448.64	550.20
449.01	548.44
449.37	544.48
449.74	540.91
450.11	536.25
450.48	531.10
450.85	525.92
451.22	521.53
451.59	517.23
451.96	513.32
452.33	507.53
452.70	502.39
453.07	496.08
453.43	489.77
453.80	483.64
454.17	477.76
454.54	472.31
454.91	466.13
455.28	460.30
455.65	454.80
456.02	448.92
456.38	444.19
456.75	438.08
457.12	433.16
457.49	428.18
457.86	423.42
458.23	419.25
458.59	414.63
458.96	409.89
459.33	405.70
459.70	401.44
460.07	398.18
460.43	394.35
460.80	390.77
461.17	387.60
461.54	384.19
461.91	381.01
462.27	377.77
462.64	375.11
463.01	372.09
463.38	369.03
463.74	366.29
464.11	363.84
464.48	361.62
464.85	359.25
465.21	357.43
465.58	355.43
465.95	353.12
466.32	351.27
466.68	349.47
467.05	347.66
467.42	345.91
467.78	344.03
468.15	342.30
468.52	341.02
468.88	339.34
469.25	337.80
469.62	336.58
469.98	335.26
470.35	334.08
470.72	333.03
471.08	331.95
471.45	331.06
471.82	330.08
472.18	329.06
472.55	328.40
472.92	327.59
473.28	326.96
473.65	326.31
474.02	325.69
474.38	325.19
474.75	324.92
475.11	324.50
475.48	324.35
475.85	324.20
476.21	324.16
476.58	324.17
476.94	324.37
477.31	324.51
477.67	324.68
478.04	324.97
478.41	325.32
478.77	325.80
479.14	326.15
479.50	326.73
479.87	327.45
480.23	328.17
480.60	328.87
480.96	329.59
481.33	330.58
481.69	331.56
482.06	332.54
482.42	333.47
482.79	334.58
483.15	335.85
483.52	337.27
483.88	338.65
484.25	340.11
484.61	341.63
484.98	343.26
485.34	345.09
485.71	346.99
486.07	349.01
486.44	351.03
486.80	353.26
487.17	355.55
487.53	358.07
487.90	360.69
488.26	363.52
488.62	366.51
488.99	369.51
489.35	372.64
489.72	376.03
490.08	379.59
490.44	383.25
490.81	387.06
491.17	390.97
491.54	395.15
491.90	399.43
492.26	404.06
492.63	408.93
492.99	413.98
493.36	419.15
493.72	424.60
494.08	430.19
494.45	436.11
494.81	442.23
495.17	448.49
495.54	455.10
495.90	462.02
496.26	469.08
496.63	476.39
496.99	484.01
497.35	491.99
497.72	500.26
498.08	508.68
498.44	517.40
498.80	526.68
499.17	536.18
499.53	546.02
499.89	556.08
500.26	566.34
500.62	576.89
500.98	588.12
501.34	599.52
501.71	611.47
502.07	623.63
502.43	636.20
502.79	649.10
503.16	662.42
503.52	675.92
503.88	689.84
504.24	704.16
504.60	718.75
504.97	733.75
505.33	749.17
505.69	765.52
506.05	782.05
506.41	798.57
506.78	815.40
507.14	832.72
507.50	850.64
507.86	868.95
508.22	887.56
508.59	906.21
508.95	925.54
509.31	945.33
509.67	965.86
510.03	986.56
510.39	1007.50
510.75	1028.66
511.12	1050.14
511.48	1071.89
511.84	1093.77
512.20	1115.99
512.56	1139.33
512.92	1162.78
513.28	1185.92
513.64	1209.43
514.00	1233.37
514.37	1257.61
514.73	1281.90
515.09	1305.96
515.45	1330.49
515.81	1355.53
516.17	1380.60
516.53	1405.35
516.89	1430.13
517.25	1455.10
517.61	1480.27
517.97	1505.66
518.33	1530.76
518.69	1555.96
519.05	1581.44
519.41	1607.06
519.77	1632.89
520.13	1657.89
520.49	1683.12
520.85	1708.60
521.21	1733.92
521.57	1759.78
521.93	1784.94
522.29	1810.90
522.65	1836.62
523.01	1862.07
523.37	1886.74
523.73	1912.07
524.09	1937.60
524.45	1963.06
524.81	1987.98
525.17	2012.83
525.53	2037.13
525.89	2061.42
526.25	2085.99
526.61	2110.05
526.97	2134.30
527.33	2158.54
527.68	2182.56
528.04	2205.74
528.40	2228.69
528.76	2251.84
529.12	2273.97
529.48	2296.42
529.84	2317.01
530.20	2338.16
530.56	2358.92
530.91	2379.81
531.27	2400.19
531.63	2419.84
531.99	2438.94
532.35	2457.70
532.71	2476.53
533.07	2495.89
533.42	2513.88
533.78	2532.14
534.14	2550.38
534.50	2567.80
534.86	2585.75
535.21	2601.84
535.57	2617.78
535.93	2633.17
536.29	2647.27
536.65	2662.29
537.00	2676.16
537.36	2690.57
537.72	2703.90
538.08	2716.80
538.44	2728.58
538.79	2740.48
539.15	2750.76
539.51	2760.97
539.87	2770.86
540.22	2778.57
540.58	2786.52
540.94	2794.87
541.29	2801.77
541.65	2807.60
542.01	2812.95
542.37	2816.50
542.72	2822.05
543.08	2827.05
543.44	2831.77
543.79	2835.78
544.15	2838.71
544.51	2841.67
544.87	2843.74
545.22	2845.44
545.58	2846.28
545.94	2847.56
546.29	2847.35
546.65	2847.16
547.01	2847.18
547.36	2847.20
547.72	2847.38
548.07	2846.08
548.43	2844.15
548.79	2841.60
549.14	2839.05
549.50	2837.31
549.86	2834.41
550.21	2829.22
550.57	2824.41
550.92	2818.26
551.28	2812.73
551.64	2807.24
551.99	2802.01
552.35	2796.40
552.70	2790.34
553.06	2784.99
553.41	2779.15
553.77	2772.84
554.13	2767.33
554.48	2760.64
554.84	2752.45
555.19	2744.44
555.55	2735.90
555.90	2727.98
556.26	2720.96
556.61	2713.32
556.97	2703.34
557.32	2694.43
557.68	2685.84
558.03	2676.72
558.39	2668.33
558.74	2659.93
559.10	2650.35
559.45	2640.38
559.81	2630.84
560.16	2620.54
560.52	2609.90
560.87	2600.30
561.23	2590.16
561.58	2579.54
561.94	2568.74
562.29	2557.37
562.64	2546.70
563.00	2536.35
563.35	2525.86
563.71	2514.48
564.06	2502.59
564.42	2491.74
564.77	2480.55
565.12	2469.43
565.48	2458.09
565.83	2447.35
566.19	2436.66
566.54	2425.45
566.89	2413.54
567.25	2401.49
567.60	2390.33
567.96	2378.73
568.31	2365.62
568.66	2352.62
569.02	2340.67
569.37	2328.39
569.72	2316.71
570.08	2304.32
570.43	2291.40
570.78	2278.10
571.14	2264.59
571.49	2251.96
571.84	2239.56
572.20	2225.90
572.55	2212.64
572.90	2199.24
573.26	2184.81
573.61	2169.92
573.96	2155.44
574.31	2141.28
574.67	2127.29
575.02	2112.91
575.37	2098.03
575.72	2083.49
576.08	2069.50
576.43	2054.50
576.78	2039.68
577.13	2025.66
577.49	2011.51
577.84	1997.77
578.19	1983.23
578.54	1968.43
578.90	1953.05
579.25	1937.44
579.60	1923.20
579.95	1908.55
580.30	1893.98
580.66	1879.79
581.01	1865.22
581.36	1850.94
581.71	1837.23
582.06	1823.02
582.42	1808.90
582.77	1795.55
583.12	1781.79
583.47	1768.20
583.82	1754.69
584.17	1741.10
584.53	1727.29
584.88	1713.55
585.23	1699.40
585.58	1685.79
585.93	1672.63
586.28	1660.33
586.63	1647.77
586.98	1634.57
587.34	1621.59
587.69	1608.13
588.04	1594.97
588.39	1582.40
588.74	1569.39
589.09	1556.11
589.44	1542.86
589.79	1530.13
590.14	1517.30
590.49	1504.71
590.84	1491.93
591.19	1479.78
591.54	1467.09
591.89	1454.32
592.25	1441.87
592.60	1429.12
592.95	1416.89
593.30	1404.97
593.65	1392.76
594.00	1380.83
594.35	1369.62
594.70	1357.73
595.05	1346.86
595.40	1335.70
595.75	1324.03
596.10	1313.18
596.45	1302.54
596.80	1292.33
597.15	1281.95
597.50	1271.53
597.85	1261.33
598.19	1251.32
598.54	1240.72
598.89	1230.92
599.24	1221.38
599.59	1211.64
599.94	1202.91
600.29	1194.02
600.64	1184.88
600.99	1175.17
601.34	1165.92
601.69	1156.16
602.04	1147.39
602.39	1138.46
602.74	1129.80
603.08	1121.37
603.43	1112.44
603.78	1103.47
604.13	1094.61
604.48	1085.69
604.83	1077.02
605.18	1068.27
605.53	1059.46
605.87	1050.78
606.22	1042.32
606.57	1033.62
606.92	1025.06
607.27	1016.33
607.62	1007.73
607.96	999.28
608.31	991.85
608.66	983.98
609.01	976.51
609.36	969.00
609.70	961.24
610.05	953.35
610.40	945.83
610.75	938.37
611.10	931.16
611.44	923.63
611.79	916.36
612.14	908.74
612.49	901.29
612.83	894.27
613.18	887.29
613.53	880.14
613.88	873.10
614.22	866.59
614.57	859.89
614.92	853.21
615.27	846.58
615.61	839.80
615.96	833.23
616.31	826.62
616.65	819.88
617.00	813.41
617.35	807.08
617.70	800.75
618.04	794.52
618.39	788.28
618.74	782.38
619.08	776.33
619.43	770.51
619.78	764.68
620.12	758.69
620.47	752.88
620.82	747.17
621.16	741.74
621.51	735.97
621.85	730.21
622.20	724.50
622.55	718.96
622.89	713.35
623.24	707.80
623.59	702.30
623.93	696.89
624.28	691.59
624.62	686.29
624.97	680.99
625.32	675.78
625.66	670.44
626.01	665.09
626.35	659.86
626.70	654.70
627.04	649.76
627.39	644.85
627.73	640.05
628.08	635.45
628.43	630.72
628.77	626.05
629.12	621.54
629.46	617.17
629.81	612.61
630.15	607.96
630.50	603.50
630.84	599.23
631.19	595.12
631.53	591.04
631.88	586.87
632.22	582.78
632.57	578.92
632.91	575.02
633.26	571.20
633.60	567.44
633.95	563.77
634.29	559.95
634.64	556.11
634.98	552.20
635.32	548.46
635.67	544.82
636.01	541.15
636.36	537.52
636.70	534.02
637.05	530.54
637.39	527.26
637.73	523.83
638.08	520.45
638.42	517.04
638.77	513.53
639.11	510.00
639.45	506.53
639.80	503.05
640.14	499.74
640.49	496.40
640.83	492.94
641.17	489.56
641.52	486.32
641.86	483.07
642.20	479.98
642.55	476.74
642.89	473.61
643.23	470.65
643.58	467.91
643.92	465.06
644.26	462.21
644.61	459.37
644.95	456.53
645.29	453.66
645.64	450.76
645.98	448.00
646.32	445.41
646.66	442.81
647.01	440.19
647.35	437.61
647.69	434.92
648.04	432.43
648.38	429.94
648.72	427.41
649.06	424.95
649.41	422.50
649.75	420.05
650.09	417.64
650.43	415.22
650.78	412.79
651.12	410.35
651.46	408.03
651.80	405.78
652.14	403.61
652.49	401.44
652.83	399.33
653.17	397.19
653.51	395.12
653.85	393.11
654.20	391.04
654.54	388.91
654.88	386.98
655.22	385.07
655.56	383.12
655.90	381.27
656.25	379.44
656.59	377.62
656.93	375.89
657.27	374.18
657.61	372.39
657.95	370.66
658.29	368.94
658.64	367.25
658.98	365.54
659.32	363.85
659.66	362.27
660.00	360.69
660.34	359.16
660.68	357.57
661.02	355.91
661.36	354.37
661.70	352.89
662.05	351.38
662.39	349.87
662.73	348.46
663.07	347.06
663.41	345.68
663.75	344.32
664.09	342.96
664.43	341.53
664.77	340.19
665.11	338.80
665.45	337.49
665.79	336.17
666.13	334.84
666.47	333.50
666.81	332.13
667.15	330.74
667.49	329.44
667.83	328.20
668.17	326.99
668.51	325.80
668.85	324.62
669.19	323.52
669.53	322.34
669.87	321.15
670.21	319.98
670.55	318.83
670.89	317.74
671.23	316.64
671.57	315.55
671.91	314.51
672.25	313.53
672.58	312.54
672.92	311.51
673.26	310.55
673.60	309.60
673.94	308.64
674.28	307.74
674.62	306.83
674.96	305.88
675.30	304.99
675.64	304.07
675.97	303.17
676.31	302.24
676.65	301.33
676.99	300.49
677.33	299.60
677.67	298.75
678.01	297.82
678.34	296.96
678.68	296.16
679.02	295.32
679.36	294.49
679.70	293.67
680.04	292.87
680.37	292.07
680.71	291.30
681.05	290.57
681.39	289.80
681.73	289.00
682.06	288.23
682.40	287.48
682.74	286.75
683.08	286.06
683.42	285.33
683.75	284.68
684.09	283.95
684.43	283.26
684.77	282.57
685.10	281.92
685.44	281.26
685.78	280.59
686.12	279.95
686.45	279.30
686.79	278.65
687.13	278.03
687.46	277.37
687.80	276.75
688.14	276.08
688.48	275.46
688.81	274.86
689.15	274.30
689.49	273.69
689.82	273.10
690.16	272.46
690.50	271.88
690.83	271.30
691.17	270.73
691.51	270.18
691.84	269.65
692.18	269.08
692.52	268.51
692.85	267.95
693.19	267.44
693.52	266.91
693.86	266.38
694.20	265.87
694.53	265.38
694.87	264.87
695.21	264.39
695.54	263.90
695.88	263.41
696.21	262.88
696.55	262.41
696.88	261.93
697.22	261.47
697.56	261.01
697.89	260.50
698.23	260.03
698.56	259.53
698.90	259.09
699.23	258.63
699.57	258.22
699.90	257.79
700.24	257.33
700.58	256.91
700.91	256.52
701.25	256.19
701.58	255.83
701.92	255.46
702.25	255.08
702.59	254.68
702.92	254.30
703.26	253.93
703.59	253.56
703.93	253.28
704.26	252.93
704.60	252.57
704.93	252.24
705.26	251.89
705.60	251.59
705.93	251.22
706.27	250.93
706.60	250.63
706.94	250.33
707.27	249.98
707.61	249.64
707.94	249.31
708.27	248.90
708.61	248.54
708.94	248.21
709.28	247.90
709.61	247.60
709.94	247.31
710.28	247.03
710.61	246.77
710.95	246.41
711.28	246.20
711.61	245.93
711.95	245.68
712.28	245.42
712.61	245.14
712.95	244.94
713.28	244.73
713.61	244.47
713.95	244.20
714.28	243.98
714.61	243.73
714.95	243.50
715.28	243.26
715.61	243.03
715.95	242.82
716.28	242.59
716.61	242.39
716.95	242.16
717.28	241.95
717.61	241.73
717.94	241.52
718.28	241.24
718.61	241.03
718.94	240.81
719.27	240.61
719.61	240.43
719.94	240.21
720.27	239.96
720.60	239.77
720.94	239.59
721.27	239.41
721.60	239.26
721.93	239.08
722.27	238.94
722.60	238.78
722.93	238.59
723.26	238.43
723.59	238.24
723.93	238.10
724.26	237.94
724.59	237.78
724.92	237.63
725.25	237.51
725.59	237.36
725.92	237.23
726.25	237.08
726.58	236.93
726.91	236.78
727.24	236.66
727.57	236.52
727.91	236.36
728.24	236.23
728.57	236.08
728.90	235.97
729.23	235.80
729.56	235.71
729.89	235.58
730.22	235.44
730.55	235.31
730.89	235.18
731.22	235.04
731.55	234.91
731.88	234.79
732.21	234.65
732.54	234.53
732.87	234.41
733.20	234.31
733.53	234.20
733.86	234.09
734.19	233.96
734.52	233.87
734.85	233.83
735.18	233.70
735.51	233.63
735.84	233.52
736.17	233.45
736.50	233.30
736.83	233.32
737.16	233.22
737.49	233.14
737.82	233.04
738.15	232.97
738.48	232.88
738.81	232.78
739.14	232.67
739.47	232.57
739.80	232.47
740.13	232.39
740.46	232.29
740.79	232.19
741.12	232.10
741.45	231.99
741.78	231.85
742.11	231.79
742.44	231.68
742.77	231.61
743.10	231.51
743.43	231.42
743.75	231.23
744.08	231.31
744.41	231.22
744.74	231.14
745.07	231.03
745.40	230.98
745.73	230.95
746.06	230.88
746.39	230.82
746.71	230.74
747.04	230.66
747.37	230.58
747.70	230.53
748.03	230.47
748.36	230.42
748.68	230.34
749.01	230.24
749.34	230.18
749.67	230.11
750.00	230.07
750.33	230.08
750.65	230.03
750.98	229.82
751.31	229.76
751.64	229.70
751.97	229.69
752.29	229.62
752.62	229.51
752.95	229.44
753.28	229.36
753.60	229.31
753.93	229.27
754.26	229.22
754.59	229.13
754.91	229.06
755.24	228.98
755.57	228.97
755.90	228.91
756.22	228.85
756.55	228.77
756.88	228.69
757.20	228.56
757.53	228.48
757.86	228.42
758.19	228.38
758.51	228.33
758.84	228.23
759.17	228.17
759.49	228.12
759.82	228.12
760.15	228.09
760.47	228.04
760.80	227.96
761.13	227.92
761.45	227.88
761.78	227.84
762.11	227.80
762.43	227.70
762.76	227.66
763.08	227.63
763.41	227.59
763.74	227.55
764.06	227.51
764.39	227.48
764.71	227.43
765.04	227.38
765.37	227.33
765.69	227.29
766.02	227.25
766.34	227.20
766.67	227.13
767.00	227.11
767.32	227.12
767.65	227.15
767.97	227.10
768.30	227.07
768.62	227.03
768.95	226.98
769.27	226.95
769.60	226.93
769.92	226.87
770.25	226.82
770.57	226.77
770.90	226.74
771.22	226.70
771.55	226.67
771.87	226.64
772.20	226.61
772.52	226.66
772.85	226.75
773.17	226.73
773.50	226.68
773.82	226.64
774.15	226.56
774.47	226.47
774.80	226.43
775.12	226.40
775.45	226.37
775.77	226.35
776.09	226.33
776.42	226.30
776.74	226.31
777.07	226.28
777.39	226.26
777.72	226.22
778.04	226.21
778.36	226.18
778.69	226.16
779.01	226.14
779.33	226.03
779.66	225.89
779.98	225.86
780.31	225.85
780.63	225.88
780.95	225.88
781.28	225.85
781.60	225.83
781.92	225.81
782.25	225.79
782.57	225.77
782.89	225.75
783.22	225.72
783.54	225.68
783.86	225.67
784.19	225.65
784.51	225.67
784.83	225.63
785.16	225.61
785.48	225.60
785.80	225.58
786.12	225.58
786.45	225.56
786.77	225.55
787.09	225.52
787.42	225.46
787.74	225.45
788.06	225.44
788.38	225.42
788.71	225.40
789.03	225.38
789.35	225.38
789.67	225.35
789.99	225.35
790.32	225.32
790.64	225.32
790.96	225.40
791.28	225.35
791.61	225.33
791.93	225.32
792.25	225.30
792.57	225.36
792.89	225.33
793.21	225.32
793.54	225.30
793.86	225.28
794.18	225.27
794.50	225.24
794.82	225.23
795.14	225.23
795.47	225.24
795.79	225.23
796.11	225.20
796.43	225.19
796.75	225.17
797.07	225.17
797.39	225.15
797.71	225.05
798.04	225.05
798.36	225.05
798.68	225.04
799.00	225.03
799.32	224.97
799.64	224.97
799.96	224.96
800.28	224.97
800.60	224.95
800.92	224.95
801.24	224.93
801.56	224.93
801.89	224.91
802.21	224.90
802.53	224.87
802.85	224.89
803.17	224.92
803.49	224.90
803.81	224.88
804.13	224.86
804.45	224.84
804.77	224.84
805.09	224.83
805.41	224.81
805.73	224.78
806.05	224.74
806.37	224.72
806.69	224.71
807.01	224.69
807.33	224.69
807.65	224.64
807.97	224.68
808.28	224.65
808.60	224.64
808.92	224.62
809.24	224.68
809.56	224.65
809.88	224.61
810.20	224.61
810.52	224.62
810.84	224.59
811.16	224.58
811.48	224.56
811.80	224.59
812.12	224.58
812.43	224.60
812.75	224.60
813.07	224.58
813.39	224.59
813.71	224.57
814.03	224.55
814.35	224.55
814.67	224.50
814.98	224.49
815.30	224.48
815.62	224.47
815.94	224.39
816.26	224.40
816.58	224.37
816.89	224.37
817.21	224.34
817.53	224.35
817.85	224.35
818.17	224.34
818.48	224.29
818.80	224.31
819.12	224.29
819.44	224.27
819.76	224.25
820.07	224.24
820.39	224.24
820.71	224.24
821.03	224.24
821.34	224.23
821.66	224.24
821.98	224.24
822.30	224.23
822.61	224.29
822.93	224.27
823.25	224.26
823.57	224.25
823.88	224.26
824.20	224.25
824.52	224.26
824.83	224.25
825.15	224.24
825.47	224.23
825.79	224.24
826.10	224.23
826.42	224.23
826.74	224.23
827.05	224.22
827.37	224.22
827.69	224.21
828.00	224.22
828.32	224.21
828.64	224.19
828.95	224.25
829.27	224.21
829.58	224.21
829.90	224.22
830.22	224.23
830.53	224.21
830.85	224.19
831.17	224.16
831.48	224.16
831.80	224.16
832.11	224.15
832.43	224.13
832.75	224.13
833.06	224.19
833.38	224.16
833.69	224.15
834.01	224.15
834.32	224.15
834.64	224.13
834.96	224.13
835.27	224.13
835.59	224.09
835.90	224.07
836.22	224.07
836.53	224.04
836.85	224.03
837.16	224.14
837.48	224.13
837.79	224.17
838.11	224.17
838.42	224.17
838.74	224.18
839.05	224.17
839.37	224.17
839.68	224.11
840.00	224.10
840.31	224.11
840.63	224.10
840.94	224.09
841.26	224.08
841.57	224.08
841.88	224.08
842.20	224.06
842.51	224.05
842.83	224.04
843.14	224.13
843.46	224.13
843.77	224.06
844.08	224.06
844.40	224.02
844.71	224.01
845.03	224.00
845.34	223.99
845.65	223.98
845.97	223.98
846.28	223.98
846.60	223.99
846.91	223.97
847.22	223.97
847.54	223.99
847.85	223.99
848.16	223.98
848.48	223.96
848.79	224.00
849.10	224.01
849.42	224.02
849.73	223.92
850.04	223.92
850.36	223.88
850.67	223.90
850.98	223.90
851.30	223.91
851.61	223.90
851.92	223.90
852.23	223.93
852.55	223.94
852.86	223.94
853.17	223.95
853.49	223.97
853.80	223.99
854.11	223.99
854.42	224.00
854.74	223.99
855.05	223.99
855.36	223.94
855.67	223.94
855.99	223.94
856.30	224.05
856.61	224.05
856.92	224.05
857.23	224.05
857.55	224.04
857.86	224.03
858.17	224.05
858.48	224.03
858.79	224.00
859.11	224.01
859.42	224.00
859.73	223.99
860.04	223.98
860.35	223.95
860.66	223.92
860.98	223.91
861.29	223.93
861.60	223.92
861.91	223.94
862.22	223.93
862.53	223.92
862.84	223.80
863.16	223.81
863.47	223.79
863.78	223.78
864.09	223.79
864.40	223.79
864.71	223.80
865.02	223.81
865.33	223.80
865.64	223.78
865.95	223.78
866.27	223.84
866.58	223.83
866.89	223.84
867.20	223.84
867.51	223.82
867.82	223.81
868.13	223.84
868.44	223.82
868.75	223.84
869.06	223.84
869.37	223.85
869.68	223.83
869.99	223.84
870.30	223.85
870.61	223.86
870.92	223.84
871.23	223.83
871.54	223.84
871.85	223.86
872.16	223.88
872.47	223.87
872.78	223.82
873.09	223.83
873.40	223.81
873.71	223.82
874.02	223.83
874.33	223.82
874.64	223.80
874.95	223.82
875.26	223.80
875.56	223.79
875.87	223.79
876.18	223.78
876.49	223.88
876.80	223.87
877.11	223.85
877.42	223.85
877.73	223.85
878.04	223.83
878.35	223.83
878.66	223.83
878.96	223.82
879.27	223.82
879.58	223.81
879.89	223.80
880.20	223.83
880.51	223.82
880.82	223.82
881.12	223.83
881.43	223.81
881.74	223.80
882.05	223.79
882.36	223.80
882.67	223.81
882.97	223.70
883.28	223.69
883.59	223.69
883.90	223.69
884.21	223.71
884.51	223.70
884.82	223.69
885.13	223.69
885.44	223.69
885.74	223.69
886.05	223.68
886.36	223.68
886.67	223.64
886.98	223.69
887.28	223.70
887.59	223.70
887.90	223.70
888.20	223.70
888.51	223.72
888.82	223.70
889.13	223.71
889.43	223.80
889.74	223.79
890.05	223.79
890.35	223.78
890.66	223.76
890.97	223.75
891.28	223.75
891.58	223.74
891.89	223.74
892.20	223.72
892.50	223.72
892.81	223.71
893.12	223.71
893.42	223.66
893.73	223.66
894.04	223.65
894.34	223.66
894.65	223.66
894.95	223.64
895.26	223.65
895.57	223.69
895.87	223.58
896.18	223.60
896.48	223.61
896.79	223.61
897.10	223.63
897.40	223.63
897.71	223.64
898.01	223.64
898.32	223.65
898.63	223.65
898.93	223.66
899.24	223.66
899.54	223.66
899.85	223.65
900.15	223.65
900.46	223.65
900.76	223.66
901.07	223.65
901.38	223.65
901.68	223.66
901.99	223.61
902.29	223.62
902.60	223.60
902.90	223.60
903.21	223.59
903.51	223.59
903.82	223.61
904.12	223.60
904.43	223.61
904.73	223.60
905.03	223.61
905.34	223.70
905.64	223.69
905.95	223.69
906.25	223.69
906.56	223.69
906.86	223.69
907.17	223.68
907.47	223.69
907.77	223.67
908.08	223.65
908.38	223.66
908.69	223.67
908.99	223.69
909.30	223.69
909.60	223.69
909.90	223.69
910.21	223.66
910.51	223.64
910.81	223.64
911.12	223.65
911.42	223.65
911.73	223.54
912.03	223.56
912.33	223.57
912.64	223.56
912.94	223.56
913.24	223.54
913.55	223.53
913.85	223.52
914.15	223.54
914.46	223.56
914.76	223.54
915.06	223.54
915.37	223.52
915.67	223.51
915.97	223.51
916.27	223.49
916.58	223.50
916.88	223.50
917.18	223.49
917.49	223.56
917.79	223.55
918.09	223.57
918.39	223.59
918.70	223.59
919.00	223.60
919.30	223.64
919.60	223.64
919.91	223.63
920.21	223.64
920.51	223.61
920.81	223.60
921.12	223.62
921.42	223.61
921.72	223.62
922.02	223.63
922.32	223.64
922.63	223.65
922.93	223.70
923.23	223.70
923.53	223.70
923.83	223.62
924.13	223.63
924.44	223.63
924.74	223.64
925.04	223.66
925.34	223.65
925.64	223.61
925.94	223.61
926.24	223.67
926.55	223.66
926.85	223.67
927.15	223.67
927.45	223.67
927.75	223.67
928.05	223.67
928.35	223.66
928.65	223.67
928.95	223.68
929.26	223.63
929.56	223.65
929.86	223.66
930.16	223.65
930.46	223.64
930.76	223.65
931.06	223.60
931.36	223.57
931.66	223.58
931.96	223.59
932.26	223.60
932.56	223.55
932.86	223.56
933.16	223.56
933.46	223.55
933.76	223.53
934.06	223.56
934.36	223.59
934.66	223.58
934.96	223.57
935.26	223.57
935.56	223.59
935.86	223.56
936.16	223.54
936.46	223.54
936.76	223.53
937.06	223.52
937.36	223.53
937.66	223.53
937.96	223.52
938.26	223.50
938.56	223.50
938.86	223.50
939.16	223.53
939.46	223.53
939.76	223.54
940.06	223.54
940.35	223.51
940.65	223.47
940.95	223.48
941.25	223.45
941.55	223.44
941.85	223.43
942.15	223.45
942.45	223.48
942.75	223.48
943.04	223.48
943.34	223.51
943.64	223.49
943.94	223.48
944.24	223.48
944.54	223.49
944.84	223.48
945.13	223.47
945.43	223.45
945.73	223.44
946.03	223.43
946.33	223.43
946.62	223.42
946.92	223.42
947.22	223.42
947.52	223.43
947.82	223.45
948.11	223.43
948.41	223.41
948.71	223.38
949.01	223.39
949.31	223.38
949.60	223.37
949.90	223.39
950.20	223.38
950.50	223.37
950.79	223.37
951.09	223.38
951.39	223.38
951.69	223.37
951.98	223.39
952.28	223.40
952.58	223.40
952.87	223.40
953.17	223.41
953.47	223.40
953.76	223.39
954.06	223.37
954.36	223.36
954.66	223.36
954.95	223.39
955.25	223.39
955.55	223.39
955.84	223.38
956.14	223.39
956.44	223.39
956.73	223.38
957.03	223.39
957.32	223.39
957.62	223.38
957.92	223.41
958.21	223.39
958.51	223.51
958.81	223.52
959.10	223.53
959.40	223.55
959.69	223.56
959.99	223.58
960.29	223.58
960.58	223.58
960.88	223.62
961.17	223.60
961.47	223.61
961.76	223.60
962.06	223.62
962.36	223.60
962.65	223.61
962.95	223.62
963.24	223.61
963.54	223.61
963.83	223.62
964.13	223.61
964.42	223.60
964.72	223.51
965.01	223.51
965.31	223.51
965.60	223.48
965.90	223.54
966.19	223.51
966.49	223.52
966.78	223.52
967.08	223.50
967.37	223.50
967.67	223.48
967.96	223.51
968.26	223.50
968.55	223.51
968.85	223.50
969.14	223.50
969.43	223.50
969.73	223.48
970.02	223.48
970.32	223.47
970.61	223.45
970.91	223.42
971.20	223.41
971.49	223.40
971.79	223.41
972.08	223.34
972.38	223.35
972.67	223.34
972.96	223.36
973.26	223.34
973.55	223.37
973.85	223.37
974.14	223.36
974.43	223.36
974.73	223.34
975.02	223.34
975.31	223.34
975.61	223.34
975.90	223.33
976.19	223.32
976.49	223.33
976.78	223.34
977.07	223.34
977.37	223.35
977.66	223.36
977.95	223.34
978.24	223.35
978.54	223.37
978.83	223.36
979.12	223.35
979.42	223.36
979.71	223.33
980.00	223.33
980.29	223.34
980.59	223.32
980.88	223.35
981.17	223.35
981.46	223.35
981.76	223.35
982.05	223.38
982.34	223.39
982.63	223.38
982.93	223.38
983.22	223.40
983.51	223.41
983.80	223.43
984.09	223.44
984.39	223.43
984.68	223.41
984.97	223.42
985.26	223.41
985.55	223.41
985.85	223.39
986.14	223.41
986.43	223.41
986.72	223.41
987.01	223.38
987.30	223.38
987.59	223.37
987.89	223.38
988.18	223.35
988.47	223.34
988.76	223.33
989.05	223.32
989.34	223.31
989.63	223.33
989.92	223.32
990.22	223.30
990.51	223.30
990.80	223.29
991.09	223.30
991.38	223.31
991.67	223.30
991.96	223.30
992.25	223.30
992.54	223.28
992.83	223.29
993.12	223.29
993.41	223.30
993.70	223.34
993.99	223.36
994.28	223.37
994.58	223.38
994.87	223.37
995.16	223.37
995.45	223.36
995.74	223.32
996.03	223.34
996.32	223.35
996.61	223.38
996.90	223.38
997.19	223.38
997.48	223.38
997.77	223.36
998.06	223.37
998.34	223.36
998.63	223.36
998.92	223.36
999.21	223.38
999.50	223.37
999.79	223.33
1000.08	223.33
1000.37	223.33
1000.66	223.31
1000.95	223.34
1001.24	223.35
1001.53	223.36
1001.82	223.36
1002.11	223.33
1002.40	223.34
1002.68	223.36
1002.97	223.43
1003.26	223.41
1003.55	223.40
1003.84	223.41
1004.13	223.44
1004.42	223.44
1004.71	223.43
1004.99	223.43
1005.28	223.45
1005.57	223.44
1005.86	223.44
1006.15	223.43
1006.44	223.41
1006.72	223.43
1007.01	223.41
1007.30	223.41
1007.59	223.40
1007.88	223.40
1008.17	223.41
1008.45	223.39
1008.74	223.34
1009.03	223.29
1009.32	223.30
1009.60	223.30
1009.89	223.29
1010.18	223.25
1010.47	223.25
1010.76	223.25
1011.04	223.25
1011.33	223.24
1011.62	223.25
1011.91	223.26
1012.19	223.26
1012.48	223.27
1012.77	223.27
1013.05	223.30
1013.34	223.30
1013.63	223.29
1013.92	223.30
1014.20	223.30
1014.49	223.30
1014.78	223.32
1015.06	223.28
1015.35	223.28
1015.64	223.30
1015.92	223.31
1016.21	223.32
1016.50	223.33
1016.78	223.33
1017.07	223.34
1017.36	223.32
1017.64	223.31
1017.93	223.32
1018.22	223.31
1018.50	223.31
1018.79	223.30
1019.08	223.27
1019.36	223.27
1019.65	223.27
1019.93	223.29
1020.22	223.31
1020.51	223.36
1020.79	223.35
1021.08	223.17
1021.36	223.17
1021.65	223.30
1021.94	223.24
1022.22	223.38
1022.51	223.13
1022.79	223.80
1023.08	223.45
1023.36	224.51
1023.65	223.05
>>>>>End Processed Spectral Data<<<<<
