SpectraSuite Data File
++++++++++++++++++++++++++++++++++++
Date: Thu Oct 01 13:10:22 EDT 2015
User: lab3
Dark Spectrum Present: No
Reference Spectrum Present: No
Number of Sampled Component Spectra: 1
Spectrometers: USB2E7196
Integration Time (usec): 36000 (USB2E7196)
Spectra Averaged: 10000 (USB2E7196)
Boxcar Smoothing: 10 (USB2E7196)
Correct for Electrical Dark: No (USB2E7196)
Strobe/Lamp Enabled: No (USB2E7196)
Correct for Detector Non-linearity: No (USB2E7196)
Correct for Stray Light: No (USB2E7196)
Number of Pixels in Processed Spectrum: 2048
>>>>>Begin Processed Spectral Data<<<<<
339.09	0.00
339.48	212.27
339.86	213.72
340.24	215.13
340.63	216.56
341.01	219.42
341.39	219.22
341.78	220.58
342.16	221.80
342.54	222.28
342.93	210.76
343.31	221.41
343.69	221.94
344.07	222.41
344.46	222.83
344.84	223.22
345.22	223.46
345.60	223.72
345.99	223.91
346.37	224.04
346.75	224.15
347.13	224.23
347.52	224.29
347.90	224.38
348.28	224.41
348.66	224.46
349.05	224.46
349.43	224.51
349.81	224.56
350.19	224.62
350.57	224.69
350.96	224.77
351.34	224.86
351.72	224.95
352.10	225.05
352.48	225.13
352.87	225.18
353.25	225.24
353.63	225.30
354.01	225.36
354.39	225.44
354.77	225.52
355.15	225.61
355.54	225.67
355.92	225.70
356.30	225.78
356.68	225.91
357.06	225.99
357.44	226.04
357.82	226.10
358.20	226.21
358.58	226.26
358.97	226.33
359.35	226.41
359.73	226.49
360.11	226.55
360.49	226.60
360.87	226.65
361.25	226.72
361.63	226.80
362.01	226.85
362.39	226.88
362.77	226.93
363.15	226.96
363.53	226.99
363.91	227.03
364.29	227.05
364.67	226.97
365.05	226.99
365.43	227.03
365.81	227.05
366.19	227.07
366.57	227.12
366.95	227.12
367.33	227.10
367.71	227.09
368.09	227.10
368.47	227.10
368.85	227.08
369.23	227.09
369.61	227.04
369.99	227.05
370.37	227.05
370.75	227.10
371.13	227.07
371.51	227.03
371.89	227.00
372.27	226.98
372.65	226.96
373.03	226.92
373.41	226.87
373.78	226.82
374.16	226.73
374.54	226.65
374.92	226.60
375.30	226.56
375.68	226.49
376.06	226.45
376.44	226.40
376.82	226.35
377.19	226.30
377.57	226.25
377.95	226.17
378.33	226.11
378.71	225.97
379.09	225.92
379.47	225.88
379.84	225.82
380.22	225.76
380.60	225.68
380.98	225.64
381.36	225.59
381.73	225.53
382.11	225.50
382.49	225.46
382.87	225.40
383.25	225.35
383.62	225.43
384.00	225.36
384.38	225.32
384.76	225.30
385.13	225.28
385.51	225.24
385.89	225.19
386.27	225.15
386.64	225.13
387.02	225.08
387.40	225.04
387.78	225.02
388.15	225.00
388.53	224.97
388.91	224.94
389.29	224.90
389.66	224.89
390.04	224.85
390.42	224.84
390.79	224.83
391.17	224.81
391.55	224.68
391.92	224.67
392.30	224.67
392.68	224.63
393.05	224.61
393.43	224.61
393.81	224.62
394.18	224.60
394.56	224.60
394.94	224.63
395.31	224.63
395.69	224.67
396.06	224.69
396.44	224.71
396.82	224.72
397.19	224.80
397.57	224.81
397.95	224.86
398.32	224.85
398.70	224.90
399.07	224.96
399.45	225.00
399.82	225.04
400.20	225.07
400.58	225.13
400.95	225.15
401.33	225.23
401.70	225.36
402.08	225.45
402.45	225.53
402.83	225.64
403.20	225.74
403.58	225.83
403.95	225.96
404.33	226.09
404.71	226.22
405.08	226.41
405.46	226.55
405.83	226.72
406.21	226.89
406.58	227.09
406.96	227.28
407.33	227.50
407.70	227.76
408.08	228.09
408.45	228.39
408.83	228.71
409.20	229.01
409.58	229.27
409.95	229.63
410.33	230.03
410.70	230.39
411.08	230.83
411.45	231.29
411.82	231.75
412.20	232.27
412.57	232.90
412.95	233.40
413.32	234.05
413.69	234.71
414.07	235.42
414.44	236.20
414.82	236.98
415.19	237.90
415.56	238.83
415.94	239.80
416.31	240.88
416.68	241.98
417.06	243.24
417.43	244.42
417.81	245.79
418.18	247.18
418.55	248.71
418.93	250.29
419.30	251.95
419.67	253.71
420.04	255.53
420.42	257.42
420.79	259.60
421.16	261.81
421.54	264.05
421.91	266.39
422.28	268.83
422.66	271.45
423.03	273.95
423.40	276.58
423.77	279.39
424.15	282.27
424.52	285.27
424.89	288.52
425.26	291.75
425.64	294.75
426.01	298.11
426.38	301.53
426.75	305.06
427.13	308.68
427.50	312.46
427.87	316.38
428.24	320.34
428.61	324.14
428.99	328.21
429.36	332.70
429.73	336.97
430.10	341.23
430.47	345.57
430.85	350.05
431.22	354.82
431.59	359.71
431.96	364.47
432.33	369.74
432.70	374.73
433.08	380.64
433.45	386.23
433.82	391.72
434.19	397.86
434.56	403.89
434.93	409.70
435.30	415.46
435.68	421.93
436.05	428.28
436.42	434.62
436.79	440.39
437.16	446.63
437.53	453.32
437.90	460.00
438.27	466.54
438.64	473.64
439.01	480.05
439.38	485.94
439.75	491.61
440.13	498.10
440.50	504.29
440.87	509.16
441.24	514.53
441.61	520.45
441.98	524.81
442.35	530.01
442.72	535.33
443.09	540.43
443.46	543.75
443.83	546.22
444.20	548.32
444.57	551.39
444.94	553.24
445.31	555.15
445.68	556.86
446.05	558.17
446.42	558.09
446.79	557.91
447.16	557.76
447.53	557.66
447.90	555.83
448.27	554.12
448.64	551.35
449.01	549.53
449.37	545.51
449.74	541.87
450.11	537.15
450.48	531.94
450.85	526.70
451.22	522.25
451.59	517.90
451.96	513.94
452.33	508.10
452.70	502.90
453.07	496.55
453.43	490.20
453.80	484.04
454.17	478.12
454.54	472.64
454.91	466.42
455.28	460.57
455.65	455.05
456.02	449.15
456.38	444.41
456.75	438.30
457.12	433.36
457.49	428.37
457.86	423.62
458.23	419.43
458.59	414.82
458.96	410.07
459.33	405.87
459.70	401.60
460.07	398.35
460.43	394.53
460.80	390.95
461.17	387.79
461.54	384.39
461.91	381.21
462.27	377.97
462.64	375.34
463.01	372.31
463.38	369.26
463.74	366.52
464.11	364.07
464.48	361.85
464.85	359.48
465.21	357.66
465.58	355.65
465.95	353.35
466.32	351.50
466.68	349.71
467.05	347.91
467.42	346.16
467.78	344.29
468.15	342.55
468.52	341.27
468.88	339.58
469.25	338.05
469.62	336.83
469.98	335.50
470.35	334.33
470.72	333.27
471.08	332.20
471.45	331.31
471.82	330.33
472.18	329.32
472.55	328.66
472.92	327.86
473.28	327.23
473.65	326.59
474.02	325.97
474.38	325.47
474.75	325.20
475.11	324.79
475.48	324.65
475.85	324.51
476.21	324.47
476.58	324.49
476.94	324.70
477.31	324.84
477.67	325.01
478.04	325.30
478.41	325.66
478.77	326.14
479.14	326.49
479.50	327.08
479.87	327.80
480.23	328.52
480.60	329.21
480.96	329.94
481.33	330.93
481.69	331.92
482.06	332.90
482.42	333.83
482.79	334.94
483.15	336.20
483.52	337.62
483.88	338.99
484.25	340.45
484.61	341.97
484.98	343.61
485.34	345.45
485.71	347.35
486.07	349.38
486.44	351.40
486.80	353.64
487.17	355.93
487.53	358.46
487.90	361.08
488.26	363.92
488.62	366.92
488.99	369.93
489.35	373.07
489.72	376.47
490.08	380.04
490.44	383.71
490.81	387.54
491.17	391.46
491.54	395.66
491.90	399.96
492.26	404.60
492.63	409.48
492.99	414.53
493.36	419.72
493.72	425.18
494.08	430.78
494.45	436.71
494.81	442.84
495.17	449.11
495.54	455.74
495.90	462.68
496.26	469.75
496.63	477.08
496.99	484.73
497.35	492.74
497.72	501.02
498.08	509.47
498.44	518.20
498.80	527.50
499.17	537.01
499.53	546.87
499.89	556.95
500.26	567.24
500.62	577.81
500.98	589.09
501.34	600.52
501.71	612.50
502.07	624.70
502.43	637.32
502.79	650.23
503.16	663.58
503.52	677.12
503.88	691.07
504.24	705.42
504.60	720.01
504.97	735.04
505.33	750.50
505.69	766.90
506.05	783.47
506.41	800.02
506.78	816.89
507.14	834.25
507.50	852.21
507.86	870.57
508.22	889.23
508.59	907.92
508.95	927.29
509.31	947.13
509.67	967.71
510.03	988.47
510.39	1009.48
510.75	1030.69
511.12	1052.25
511.48	1074.01
511.84	1095.95
512.20	1118.27
512.56	1141.66
512.92	1165.13
513.28	1188.31
513.64	1211.87
514.00	1235.87
514.37	1260.14
514.73	1284.50
515.09	1308.62
515.45	1333.21
515.81	1358.30
516.17	1383.41
516.53	1408.21
516.89	1433.06
517.25	1458.10
517.61	1483.32
517.97	1508.76
518.33	1533.90
518.69	1559.12
519.05	1584.68
519.41	1610.38
519.77	1636.25
520.13	1661.30
520.49	1686.60
520.85	1712.14
521.21	1737.52
521.57	1763.44
521.93	1788.69
522.29	1814.70
522.65	1840.45
523.01	1865.96
523.37	1890.68
523.73	1916.09
524.09	1941.73
524.45	1967.22
524.81	1992.17
525.17	2017.03
525.53	2041.37
525.89	2065.76
526.25	2090.41
526.61	2114.52
526.97	2138.82
527.33	2163.12
527.68	2187.13
528.04	2210.38
528.40	2233.40
528.76	2256.62
529.12	2278.77
529.48	2301.26
529.84	2321.91
530.20	2343.13
530.56	2363.94
530.91	2384.85
531.27	2405.27
531.63	2424.90
531.99	2444.03
532.35	2462.85
532.71	2481.75
533.07	2501.16
533.42	2519.14
533.78	2537.40
534.14	2555.68
534.50	2573.11
534.86	2591.12
535.21	2607.32
535.57	2623.26
535.93	2638.72
536.29	2652.84
536.65	2667.93
537.00	2681.85
537.36	2696.27
537.72	2709.62
538.08	2722.50
538.44	2734.34
538.79	2746.24
539.15	2756.56
539.51	2766.82
539.87	2776.71
540.22	2784.36
540.58	2792.37
540.94	2800.71
541.29	2807.68
541.65	2813.52
542.01	2818.89
542.37	2822.44
542.72	2828.06
543.08	2833.07
543.44	2837.75
543.79	2841.80
544.15	2844.64
544.51	2847.62
544.87	2849.67
545.22	2851.40
545.58	2852.31
545.94	2853.63
546.29	2853.47
546.65	2853.26
547.01	2853.29
547.36	2853.30
547.72	2853.52
548.07	2852.22
548.43	2850.33
548.79	2847.76
549.14	2845.18
549.50	2843.46
549.86	2840.46
550.21	2835.23
550.57	2830.40
550.92	2824.27
551.28	2818.74
551.64	2813.32
551.99	2808.06
552.35	2802.46
552.70	2796.38
553.06	2791.02
553.41	2785.17
553.77	2778.74
554.13	2773.27
554.48	2766.48
554.84	2758.28
555.19	2750.32
555.55	2741.83
555.90	2733.94
556.26	2726.97
556.61	2719.33
556.97	2709.37
557.32	2700.55
557.68	2691.90
558.03	2682.82
558.39	2674.42
558.74	2665.93
559.10	2656.36
559.45	2646.37
559.81	2636.83
560.16	2626.52
560.52	2615.93
560.87	2606.35
561.23	2596.24
561.58	2585.59
561.94	2574.81
562.29	2563.52
562.64	2552.87
563.00	2542.46
563.35	2531.94
563.71	2520.43
564.06	2508.57
564.42	2497.68
564.77	2486.46
565.12	2475.32
565.48	2463.99
565.83	2453.24
566.19	2442.61
566.54	2431.34
566.89	2419.45
567.25	2407.40
567.60	2396.21
567.96	2384.53
568.31	2371.36
568.66	2358.38
569.02	2346.44
569.37	2334.15
569.72	2322.42
570.08	2310.00
570.43	2297.06
570.78	2283.72
571.14	2270.27
571.49	2257.56
571.84	2245.15
572.20	2231.52
572.55	2218.25
572.90	2204.82
573.26	2190.33
573.61	2175.33
573.96	2160.88
574.31	2146.65
574.67	2132.61
575.02	2118.21
575.37	2103.33
575.72	2088.77
576.08	2074.72
576.43	2059.64
576.78	2044.82
577.13	2030.74
577.49	2016.49
577.84	2002.69
578.19	1988.12
578.54	1973.22
578.90	1957.85
579.25	1942.19
579.60	1927.89
579.95	1913.21
580.30	1898.60
580.66	1884.36
581.01	1869.81
581.36	1855.48
581.71	1841.81
582.06	1827.55
582.42	1813.48
582.77	1800.05
583.12	1786.25
583.47	1772.63
583.82	1759.12
584.17	1745.51
584.53	1731.71
584.88	1718.00
585.23	1703.81
585.58	1690.18
585.93	1677.03
586.28	1664.70
586.63	1652.08
586.98	1638.85
587.34	1625.82
587.69	1612.30
588.04	1599.19
588.39	1586.60
588.74	1573.53
589.09	1560.21
589.44	1546.94
589.79	1534.11
590.14	1521.30
590.49	1508.68
590.84	1495.90
591.19	1483.70
591.54	1470.98
591.89	1458.16
592.25	1445.65
592.60	1432.90
592.95	1420.67
593.30	1408.71
593.65	1396.47
594.00	1384.56
594.35	1373.30
594.70	1361.42
595.05	1350.56
595.40	1339.30
595.75	1327.60
596.10	1316.74
596.45	1306.08
596.80	1295.88
597.15	1285.50
597.50	1275.03
597.85	1264.83
598.19	1254.78
598.54	1244.17
598.89	1234.34
599.24	1224.75
599.59	1215.03
599.94	1206.28
600.29	1197.36
600.64	1188.19
600.99	1178.45
601.34	1169.17
601.69	1159.39
602.04	1150.59
602.39	1141.66
602.74	1133.00
603.08	1124.54
603.43	1115.61
603.78	1106.64
604.13	1097.75
604.48	1088.82
604.83	1080.12
605.18	1071.35
605.53	1062.50
605.87	1053.82
606.22	1045.34
606.57	1036.64
606.92	1028.05
607.27	1019.25
607.62	1010.63
607.96	1002.16
608.31	994.72
608.66	986.83
609.01	979.35
609.36	971.81
609.70	964.03
610.05	956.11
610.40	948.56
610.75	941.04
611.10	933.79
611.44	926.23
611.79	918.90
612.14	911.25
612.49	903.79
612.83	896.76
613.18	889.73
613.53	882.56
613.88	875.50
614.22	868.99
614.57	862.28
614.92	855.59
615.27	848.94
615.61	842.15
615.96	835.55
616.31	828.91
616.65	822.16
617.00	815.65
617.35	809.32
617.70	802.98
618.04	796.75
618.39	790.49
618.74	784.56
619.08	778.52
619.43	772.67
619.78	766.79
620.12	760.79
620.47	754.97
620.82	749.27
621.16	743.81
621.51	738.01
621.85	732.23
622.20	726.51
622.55	720.95
622.89	715.33
623.24	709.78
623.59	704.27
623.93	698.83
624.28	693.54
624.62	688.21
624.97	682.89
625.32	677.66
625.66	672.31
626.01	666.92
626.35	661.69
626.70	656.51
627.04	651.56
627.39	646.64
627.73	641.82
628.08	637.20
628.43	632.45
628.77	627.78
629.12	623.25
629.46	618.86
629.81	614.27
630.15	609.62
630.50	605.14
630.84	600.87
631.19	596.75
631.53	592.65
631.88	588.47
632.22	584.36
632.57	580.49
632.91	576.57
633.26	572.75
633.60	568.97
633.95	565.29
634.29	561.47
634.64	557.63
634.98	553.73
635.32	549.95
635.67	546.30
636.01	542.62
636.36	538.97
636.70	535.47
637.05	532.00
637.39	528.70
637.73	525.25
638.08	521.85
638.42	518.42
638.77	514.91
639.11	511.35
639.45	507.88
639.80	504.40
640.14	501.10
640.49	497.74
640.83	494.27
641.17	490.88
641.52	487.62
641.86	484.34
642.20	481.24
642.55	477.99
642.89	474.86
643.23	471.88
643.58	469.14
643.92	466.27
644.26	463.41
644.61	460.54
644.95	457.70
645.29	454.81
645.64	451.91
645.98	449.14
646.32	446.55
646.66	443.94
647.01	441.30
647.35	438.71
647.69	436.03
648.04	433.54
648.38	431.05
648.72	428.52
649.06	426.08
649.41	423.62
649.75	421.17
650.09	418.76
650.43	416.35
650.78	413.91
651.12	411.47
651.46	409.14
651.80	406.90
652.14	404.73
652.49	402.56
652.83	400.45
653.17	398.31
653.51	396.23
653.85	394.22
654.20	392.14
654.54	390.02
654.88	388.08
655.22	386.15
655.56	384.20
655.90	382.34
656.25	380.49
656.59	378.67
656.93	376.93
657.27	375.22
657.61	373.42
657.95	371.69
658.29	369.96
658.64	368.26
658.98	366.55
659.32	364.84
659.66	363.26
660.00	361.68
660.34	360.13
660.68	358.54
661.02	356.88
661.36	355.35
661.70	353.86
662.05	352.33
662.39	350.82
662.73	349.40
663.07	348.00
663.41	346.62
663.75	345.25
664.09	343.89
664.43	342.44
664.77	341.11
665.11	339.71
665.45	338.40
665.79	337.08
666.13	335.75
666.47	334.41
666.81	333.03
667.15	331.64
667.49	330.34
667.83	329.09
668.17	327.88
668.51	326.68
668.85	325.50
669.19	324.41
669.53	323.23
669.87	322.03
670.21	320.86
670.55	319.71
670.89	318.63
671.23	317.53
671.57	316.44
671.91	315.40
672.25	314.41
672.58	313.40
672.92	312.38
673.26	311.42
673.60	310.46
673.94	309.49
674.28	308.59
674.62	307.67
674.96	306.71
675.30	305.82
675.64	304.89
675.97	303.99
676.31	303.05
676.65	302.14
676.99	301.30
677.33	300.41
677.67	299.54
678.01	298.61
678.34	297.75
678.68	296.94
679.02	296.10
679.36	295.26
679.70	294.44
680.04	293.63
680.37	292.83
680.71	292.06
681.05	291.33
681.39	290.56
681.73	289.75
682.06	288.99
682.40	288.24
682.74	287.52
683.08	286.81
683.42	286.10
683.75	285.44
684.09	284.71
684.43	284.02
684.77	283.32
685.10	282.67
685.44	281.99
685.78	281.32
686.12	280.68
686.45	280.03
686.79	279.38
687.13	278.75
687.46	278.10
687.80	277.47
688.14	276.80
688.48	276.19
688.81	275.58
689.15	275.01
689.49	274.41
689.82	273.81
690.16	273.17
690.50	272.59
690.83	272.00
691.17	271.43
691.51	270.88
691.84	270.34
692.18	269.78
692.52	269.21
692.85	268.66
693.19	268.14
693.52	267.61
693.86	267.09
694.20	266.57
694.53	266.08
694.87	265.58
695.21	265.10
695.54	264.60
695.88	264.11
696.21	263.58
696.55	263.11
696.88	262.63
697.22	262.16
697.56	261.70
697.89	261.19
698.23	260.71
698.56	260.22
698.90	259.78
699.23	259.32
699.57	258.90
699.90	258.47
700.24	258.01
700.58	257.59
700.91	257.19
701.25	256.87
701.58	256.50
701.92	256.13
702.25	255.74
702.59	255.34
702.92	254.96
703.26	254.59
703.59	254.21
703.93	253.93
704.26	253.58
704.60	253.22
704.93	252.88
705.26	252.53
705.60	252.22
705.93	251.86
706.27	251.57
706.60	251.25
706.94	250.96
707.27	250.60
707.61	250.26
707.94	249.92
708.27	249.52
708.61	249.16
708.94	248.82
709.28	248.51
709.61	248.21
709.94	247.93
710.28	247.65
710.61	247.38
710.95	247.02
711.28	246.81
711.61	246.54
711.95	246.30
712.28	246.03
712.61	245.76
712.95	245.55
713.28	245.35
713.61	245.08
713.95	244.81
714.28	244.59
714.61	244.35
714.95	244.12
715.28	243.88
715.61	243.65
715.95	243.43
716.28	243.21
716.61	243.01
716.95	242.78
717.28	242.57
717.61	242.35
717.94	242.14
718.28	241.86
718.61	241.65
718.94	241.42
719.27	241.23
719.61	241.05
719.94	240.83
720.27	240.58
720.60	240.40
720.94	240.21
721.27	240.03
721.60	239.87
721.93	239.69
722.27	239.55
722.60	239.39
722.93	239.20
723.26	239.04
723.59	238.85
723.93	238.69
724.26	238.54
724.59	238.38
724.92	238.22
725.25	238.10
725.59	237.95
725.92	237.82
726.25	237.68
726.58	237.52
726.91	237.37
727.24	237.24
727.57	237.10
727.91	236.94
728.24	236.82
728.57	236.67
728.90	236.55
729.23	236.38
729.56	236.29
729.89	236.16
730.22	236.02
730.55	235.89
730.89	235.76
731.22	235.62
731.55	235.50
731.88	235.38
732.21	235.24
732.54	235.12
732.87	235.00
733.20	234.89
733.53	234.78
733.86	234.68
734.19	234.56
734.52	234.46
734.85	234.43
735.18	234.30
735.51	234.22
735.84	234.12
736.17	234.05
736.50	233.90
736.83	233.91
737.16	233.82
737.49	233.73
737.82	233.64
738.15	233.56
738.48	233.47
738.81	233.37
739.14	233.27
739.47	233.17
739.80	233.07
740.13	232.99
740.46	232.89
740.79	232.78
741.12	232.69
741.45	232.58
741.78	232.44
742.11	232.38
742.44	232.27
742.77	232.20
743.10	232.10
743.43	232.01
743.75	231.82
744.08	231.90
744.41	231.81
744.74	231.72
745.07	231.61
745.40	231.56
745.73	231.52
746.06	231.45
746.39	231.39
746.71	231.31
747.04	231.23
747.37	231.15
747.70	231.10
748.03	231.03
748.36	230.98
748.68	230.91
749.01	230.81
749.34	230.75
749.67	230.68
750.00	230.63
750.33	230.64
750.65	230.59
750.98	230.37
751.31	230.31
751.64	230.26
751.97	230.26
752.29	230.19
752.62	230.08
752.95	230.01
753.28	229.93
753.60	229.87
753.93	229.83
754.26	229.78
754.59	229.68
754.91	229.61
755.24	229.54
755.57	229.52
755.90	229.46
756.22	229.39
756.55	229.32
756.88	229.24
757.20	229.11
757.53	229.03
757.86	228.97
758.19	228.92
758.51	228.87
758.84	228.76
759.17	228.70
759.49	228.66
759.82	228.66
760.15	228.62
760.47	228.58
760.80	228.50
761.13	228.47
761.45	228.43
761.78	228.39
762.11	228.35
762.43	228.25
762.76	228.21
763.08	228.18
763.41	228.14
763.74	228.11
764.06	228.07
764.39	228.03
764.71	227.99
765.04	227.94
765.37	227.89
765.69	227.85
766.02	227.81
766.34	227.76
766.67	227.69
767.00	227.67
767.32	227.68
767.65	227.71
767.97	227.66
768.30	227.63
768.62	227.59
768.95	227.55
769.27	227.51
769.60	227.49
769.92	227.44
770.25	227.39
770.57	227.33
770.90	227.30
771.22	227.26
771.55	227.23
771.87	227.20
772.20	227.16
772.52	227.22
772.85	227.31
773.17	227.28
773.50	227.25
773.82	227.20
774.15	227.12
774.47	227.02
774.80	226.98
775.12	226.96
775.45	226.93
775.77	226.91
776.09	226.89
776.42	226.87
776.74	226.87
777.07	226.85
777.39	226.83
777.72	226.80
778.04	226.79
778.36	226.75
778.69	226.73
779.01	226.72
779.33	226.61
779.66	226.46
779.98	226.43
780.31	226.42
780.63	226.44
780.95	226.44
781.28	226.42
781.60	226.39
781.92	226.38
782.25	226.36
782.57	226.33
782.89	226.31
783.22	226.28
783.54	226.24
783.86	226.23
784.19	226.21
784.51	226.22
784.83	226.19
785.16	226.17
785.48	226.16
785.80	226.14
786.12	226.13
786.45	226.12
786.77	226.11
787.09	226.09
787.42	226.03
787.74	226.02
788.06	226.01
788.38	225.99
788.71	225.96
789.03	225.95
789.35	225.95
789.67	225.92
789.99	225.90
790.32	225.88
790.64	225.87
790.96	225.95
791.28	225.90
791.61	225.88
791.93	225.87
792.25	225.86
792.57	225.92
792.89	225.88
793.21	225.88
793.54	225.85
793.86	225.83
794.18	225.82
794.50	225.79
794.82	225.77
795.14	225.78
795.47	225.78
795.79	225.77
796.11	225.74
796.43	225.73
796.75	225.72
797.07	225.71
797.39	225.69
797.71	225.60
798.04	225.59
798.36	225.59
798.68	225.58
799.00	225.58
799.32	225.51
799.64	225.52
799.96	225.51
800.28	225.52
800.60	225.51
800.92	225.50
801.24	225.49
801.56	225.50
801.89	225.47
802.21	225.46
802.53	225.44
802.85	225.45
803.17	225.49
803.49	225.46
803.81	225.44
804.13	225.43
804.45	225.40
804.77	225.40
805.09	225.39
805.41	225.37
805.73	225.34
806.05	225.31
806.37	225.29
806.69	225.27
807.01	225.25
807.33	225.25
807.65	225.21
807.97	225.24
808.28	225.22
808.60	225.21
808.92	225.19
809.24	225.24
809.56	225.22
809.88	225.17
810.20	225.17
810.52	225.19
810.84	225.17
811.16	225.16
811.48	225.14
811.80	225.17
812.12	225.16
812.43	225.17
812.75	225.18
813.07	225.16
813.39	225.16
813.71	225.14
814.03	225.13
814.35	225.13
814.67	225.08
814.98	225.07
815.30	225.06
815.62	225.03
815.94	224.96
816.26	224.97
816.58	224.94
816.89	224.95
817.21	224.92
817.53	224.92
817.85	224.92
818.17	224.92
818.48	224.87
818.80	224.89
819.12	224.86
819.44	224.84
819.76	224.83
820.07	224.82
820.39	224.82
820.71	224.82
821.03	224.82
821.34	224.80
821.66	224.81
821.98	224.81
822.30	224.81
822.61	224.87
822.93	224.85
823.25	224.84
823.57	224.83
823.88	224.84
824.20	224.83
824.52	224.84
824.83	224.84
825.15	224.83
825.47	224.81
825.79	224.82
826.10	224.81
826.42	224.80
826.74	224.80
827.05	224.79
827.37	224.79
827.69	224.78
828.00	224.79
828.32	224.78
828.64	224.76
828.95	224.82
829.27	224.78
829.58	224.78
829.90	224.79
830.22	224.80
830.53	224.77
830.85	224.76
831.17	224.73
831.48	224.72
831.80	224.72
832.11	224.71
832.43	224.69
832.75	224.69
833.06	224.75
833.38	224.72
833.69	224.72
834.01	224.72
834.32	224.71
834.64	224.70
834.96	224.69
835.27	224.69
835.59	224.65
835.90	224.63
836.22	224.62
836.53	224.60
836.85	224.58
837.16	224.68
837.48	224.68
837.79	224.71
838.11	224.71
838.42	224.71
838.74	224.72
839.05	224.71
839.37	224.70
839.68	224.63
840.00	224.63
840.31	224.64
840.63	224.63
840.94	224.62
841.26	224.61
841.57	224.60
841.88	224.61
842.20	224.60
842.51	224.58
842.83	224.58
843.14	224.67
843.46	224.67
843.77	224.61
844.08	224.60
844.40	224.57
844.71	224.56
845.03	224.55
845.34	224.54
845.65	224.53
845.97	224.54
846.28	224.55
846.60	224.56
846.91	224.54
847.22	224.53
847.54	224.55
847.85	224.56
848.16	224.55
848.48	224.53
848.79	224.56
849.10	224.58
849.42	224.58
849.73	224.48
850.04	224.48
850.36	224.45
850.67	224.46
850.98	224.47
851.30	224.47
851.61	224.47
851.92	224.46
852.23	224.50
852.55	224.50
852.86	224.49
853.17	224.50
853.49	224.52
853.80	224.54
854.11	224.55
854.42	224.56
854.74	224.55
855.05	224.55
855.36	224.50
855.67	224.50
855.99	224.50
856.30	224.62
856.61	224.61
856.92	224.62
857.23	224.62
857.55	224.60
857.86	224.59
858.17	224.61
858.48	224.60
858.79	224.58
859.11	224.59
859.42	224.58
859.73	224.57
860.04	224.56
860.35	224.53
860.66	224.49
860.98	224.49
861.29	224.50
861.60	224.49
861.91	224.52
862.22	224.50
862.53	224.49
862.84	224.36
863.16	224.38
863.47	224.37
863.78	224.35
864.09	224.36
864.40	224.37
864.71	224.36
865.02	224.38
865.33	224.36
865.64	224.34
865.95	224.35
866.27	224.41
866.58	224.40
866.89	224.41
867.20	224.41
867.51	224.40
867.82	224.39
868.13	224.42
868.44	224.39
868.75	224.41
869.06	224.42
869.37	224.43
869.68	224.40
869.99	224.42
870.30	224.43
870.61	224.43
870.92	224.42
871.23	224.41
871.54	224.43
871.85	224.45
872.16	224.46
872.47	224.45
872.78	224.39
873.09	224.40
873.40	224.39
873.71	224.40
874.02	224.41
874.33	224.40
874.64	224.37
874.95	224.39
875.26	224.37
875.56	224.36
875.87	224.36
876.18	224.35
876.49	224.45
876.80	224.44
877.11	224.42
877.42	224.42
877.73	224.42
878.04	224.41
878.35	224.40
878.66	224.40
878.96	224.40
879.27	224.40
879.58	224.39
879.89	224.38
880.20	224.41
880.51	224.41
880.82	224.41
881.12	224.41
881.43	224.39
881.74	224.38
882.05	224.38
882.36	224.37
882.67	224.38
882.97	224.27
883.28	224.27
883.59	224.27
883.90	224.28
884.21	224.29
884.51	224.28
884.82	224.27
885.13	224.26
885.44	224.26
885.74	224.26
886.05	224.25
886.36	224.25
886.67	224.22
886.98	224.27
887.28	224.27
887.59	224.27
887.90	224.27
888.20	224.27
888.51	224.29
888.82	224.28
889.13	224.28
889.43	224.37
889.74	224.36
890.05	224.36
890.35	224.34
890.66	224.33
890.97	224.32
891.28	224.31
891.58	224.31
891.89	224.32
892.20	224.31
892.50	224.30
892.81	224.29
893.12	224.29
893.42	224.23
893.73	224.23
894.04	224.23
894.34	224.24
894.65	224.24
894.95	224.23
895.26	224.23
895.57	224.27
895.87	224.17
896.18	224.19
896.48	224.20
896.79	224.20
897.10	224.21
897.40	224.21
897.71	224.22
898.01	224.22
898.32	224.23
898.63	224.23
898.93	224.23
899.24	224.23
899.54	224.23
899.85	224.22
900.15	224.22
900.46	224.22
900.76	224.22
901.07	224.22
901.38	224.22
901.68	224.23
901.99	224.17
902.29	224.18
902.60	224.17
902.90	224.16
903.21	224.16
903.51	224.15
903.82	224.17
904.12	224.17
904.43	224.17
904.73	224.16
905.03	224.17
905.34	224.26
905.64	224.25
905.95	224.25
906.25	224.25
906.56	224.25
906.86	224.25
907.17	224.24
907.47	224.25
907.77	224.24
908.08	224.21
908.38	224.22
908.69	224.23
908.99	224.25
909.30	224.25
909.60	224.25
909.90	224.25
910.21	224.22
910.51	224.20
910.81	224.20
911.12	224.20
911.42	224.21
911.73	224.10
912.03	224.11
912.33	224.13
912.64	224.12
912.94	224.11
913.24	224.10
913.55	224.09
913.85	224.08
914.15	224.10
914.46	224.12
914.76	224.11
915.06	224.10
915.37	224.08
915.67	224.07
915.97	224.07
916.27	224.05
916.58	224.06
916.88	224.06
917.18	224.05
917.49	224.12
917.79	224.12
918.09	224.13
918.39	224.16
918.70	224.15
919.00	224.15
919.30	224.20
919.60	224.19
919.91	224.18
920.21	224.19
920.51	224.17
920.81	224.15
921.12	224.17
921.42	224.16
921.72	224.17
922.02	224.18
922.32	224.19
922.63	224.19
922.93	224.25
923.23	224.25
923.53	224.24
923.83	224.17
924.13	224.18
924.44	224.18
924.74	224.19
925.04	224.22
925.34	224.22
925.64	224.17
925.94	224.17
926.24	224.23
926.55	224.22
926.85	224.24
927.15	224.24
927.45	224.24
927.75	224.24
928.05	224.24
928.35	224.23
928.65	224.24
928.95	224.25
929.26	224.20
929.56	224.21
929.86	224.23
930.16	224.22
930.46	224.20
930.76	224.21
931.06	224.16
931.36	224.13
931.66	224.14
931.96	224.16
932.26	224.16
932.56	224.12
932.86	224.12
933.16	224.12
933.46	224.11
933.76	224.10
934.06	224.12
934.36	224.16
934.66	224.15
934.96	224.14
935.26	224.14
935.56	224.16
935.86	224.13
936.16	224.11
936.46	224.10
936.76	224.10
937.06	224.09
937.36	224.10
937.66	224.10
937.96	224.09
938.26	224.07
938.56	224.06
938.86	224.07
939.16	224.09
939.46	224.09
939.76	224.10
940.06	224.10
940.35	224.08
940.65	224.03
940.95	224.04
941.25	224.02
941.55	224.01
941.85	224.00
942.15	224.02
942.45	224.05
942.75	224.04
943.04	224.04
943.34	224.06
943.64	224.05
943.94	224.04
944.24	224.04
944.54	224.04
944.84	224.04
945.13	224.02
945.43	224.00
945.73	224.00
946.03	223.99
946.33	223.97
946.62	223.96
946.92	223.96
947.22	223.96
947.52	223.97
947.82	223.98
948.11	223.97
948.41	223.95
948.71	223.92
949.01	223.93
949.31	223.92
949.60	223.90
949.90	223.93
950.20	223.92
950.50	223.92
950.79	223.91
951.09	223.93
951.39	223.92
951.69	223.91
951.98	223.93
952.28	223.94
952.58	223.93
952.87	223.94
953.17	223.95
953.47	223.94
953.76	223.94
954.06	223.92
954.36	223.91
954.66	223.91
954.95	223.93
955.25	223.94
955.55	223.95
955.84	223.94
956.14	223.94
956.44	223.95
956.73	223.94
957.03	223.95
957.32	223.94
957.62	223.94
957.92	223.96
958.21	223.95
958.51	224.07
958.81	224.08
959.10	224.10
959.40	224.11
959.69	224.12
959.99	224.14
960.29	224.14
960.58	224.14
960.88	224.18
961.17	224.17
961.47	224.17
961.76	224.17
962.06	224.18
962.36	224.17
962.65	224.18
962.95	224.19
963.24	224.17
963.54	224.18
963.83	224.19
964.13	224.18
964.42	224.17
964.72	224.08
965.01	224.08
965.31	224.07
965.60	224.05
965.90	224.11
966.19	224.08
966.49	224.09
966.78	224.08
967.08	224.07
967.37	224.07
967.67	224.05
967.96	224.07
968.26	224.06
968.55	224.08
968.85	224.07
969.14	224.07
969.43	224.07
969.73	224.06
970.02	224.06
970.32	224.05
970.61	224.04
970.91	224.01
971.20	223.99
971.49	223.99
971.79	224.00
972.08	223.93
972.38	223.94
972.67	223.94
972.96	223.95
973.26	223.93
973.55	223.96
973.85	223.96
974.14	223.95
974.43	223.95
974.73	223.93
975.02	223.93
975.31	223.93
975.61	223.92
975.90	223.91
976.19	223.91
976.49	223.91
976.78	223.92
977.07	223.92
977.37	223.93
977.66	223.94
977.95	223.92
978.24	223.93
978.54	223.95
978.83	223.94
979.12	223.93
979.42	223.94
979.71	223.91
980.00	223.91
980.29	223.92
980.59	223.89
980.88	223.92
981.17	223.92
981.46	223.92
981.76	223.92
982.05	223.95
982.34	223.96
982.63	223.95
982.93	223.96
983.22	223.98
983.51	223.98
983.80	224.00
984.09	224.01
984.39	224.01
984.68	223.99
984.97	224.00
985.26	223.99
985.55	224.00
985.85	223.98
986.14	223.99
986.43	224.00
986.72	224.00
987.01	223.97
987.30	223.97
987.59	223.96
987.89	223.96
988.18	223.93
988.47	223.92
988.76	223.91
989.05	223.90
989.34	223.88
989.63	223.90
989.92	223.88
990.22	223.87
990.51	223.87
990.80	223.86
991.09	223.87
991.38	223.88
991.67	223.86
991.96	223.86
992.25	223.86
992.54	223.83
992.83	223.83
993.12	223.83
993.41	223.85
993.70	223.89
993.99	223.91
994.28	223.93
994.58	223.95
994.87	223.94
995.16	223.94
995.45	223.93
995.74	223.89
996.03	223.90
996.32	223.92
996.61	223.94
996.90	223.94
997.19	223.93
997.48	223.93
997.77	223.92
998.06	223.93
998.34	223.92
998.63	223.92
998.92	223.93
999.21	223.94
999.50	223.94
999.79	223.90
1000.08	223.90
1000.37	223.90
1000.66	223.88
1000.95	223.91
1001.24	223.92
1001.53	223.93
1001.82	223.93
1002.11	223.91
1002.40	223.91
1002.68	223.93
1002.97	224.00
1003.26	223.99
1003.55	223.98
1003.84	223.99
1004.13	224.02
1004.42	224.02
1004.71	224.02
1004.99	224.01
1005.28	224.03
1005.57	224.02
1005.86	224.01
1006.15	224.01
1006.44	223.99
1006.72	224.01
1007.01	223.99
1007.30	223.98
1007.59	223.98
1007.88	223.98
1008.17	223.98
1008.45	223.96
1008.74	223.92
1009.03	223.87
1009.32	223.87
1009.60	223.88
1009.89	223.87
1010.18	223.82
1010.47	223.82
1010.76	223.82
1011.04	223.81
1011.33	223.81
1011.62	223.82
1011.91	223.83
1012.19	223.83
1012.48	223.84
1012.77	223.83
1013.05	223.87
1013.34	223.87
1013.63	223.86
1013.92	223.87
1014.20	223.86
1014.49	223.87
1014.78	223.89
1015.06	223.86
1015.35	223.86
1015.64	223.87
1015.92	223.89
1016.21	223.89
1016.50	223.90
1016.78	223.91
1017.07	223.92
1017.36	223.90
1017.64	223.88
1017.93	223.89
1018.22	223.88
1018.50	223.88
1018.79	223.88
1019.08	223.84
1019.36	223.84
1019.65	223.84
1019.93	223.86
1020.22	223.88
1020.51	223.93
1020.79	223.91
1021.08	223.71
1021.36	223.77
1021.65	223.86
1021.94	223.85
1022.22	223.85
1022.51	223.67
1022.79	224.36
1023.08	224.03
1023.36	225.07
1023.65	223.63
>>>>>End Processed Spectral Data<<<<<
