SpectraSuite Data File
++++++++++++++++++++++++++++++++++++
Date: Wed Sep 30 17:44:15 EDT 2015
User: lab3
Dark Spectrum Present: No
Reference Spectrum Present: No
Number of Sampled Component Spectra: 1
Spectrometers: USB2E7196
Integration Time (usec): 36000 (USB2E7196)
Spectra Averaged: 3000 (USB2E7196)
Boxcar Smoothing: 10 (USB2E7196)
Correct for Electrical Dark: No (USB2E7196)
Strobe/Lamp Enabled: No (USB2E7196)
Correct for Detector Non-linearity: No (USB2E7196)
Correct for Stray Light: No (USB2E7196)
Number of Pixels in Processed Spectrum: 2048
>>>>>Begin Processed Spectral Data<<<<<
339.09	0.00
339.48	210.80
339.86	212.39
340.24	213.66
340.63	215.19
341.01	218.15
341.39	217.88
341.78	219.20
342.16	220.37
342.54	220.88
342.93	209.42
343.31	220.00
343.69	220.54
344.07	221.00
344.46	221.43
344.84	221.81
345.22	222.04
345.60	222.29
345.99	222.49
346.37	222.63
346.75	222.73
347.13	222.81
347.52	222.88
347.90	222.96
348.28	223.00
348.66	223.05
349.05	223.05
349.43	223.10
349.81	223.16
350.19	223.22
350.57	223.29
350.96	223.37
351.34	223.46
351.72	223.56
352.10	223.67
352.48	223.75
352.87	223.81
353.25	223.88
353.63	223.94
354.01	224.00
354.39	224.08
354.77	224.16
355.15	224.26
355.54	224.31
355.92	224.35
356.30	224.43
356.68	224.57
357.06	224.64
357.44	224.69
357.82	224.75
358.20	224.86
358.58	224.92
358.97	224.98
359.35	225.06
359.73	225.14
360.11	225.18
360.49	225.24
360.87	225.29
361.25	225.34
361.63	225.43
362.01	225.47
362.39	225.50
362.77	225.54
363.15	225.57
363.53	225.60
363.91	225.63
364.29	225.65
364.67	225.57
365.05	225.60
365.43	225.64
365.81	225.66
366.19	225.67
366.57	225.72
366.95	225.72
367.33	225.69
367.71	225.67
368.09	225.69
368.47	225.68
368.85	225.68
369.23	225.68
369.61	225.63
369.99	225.64
370.37	225.64
370.75	225.69
371.13	225.66
371.51	225.62
371.89	225.59
372.27	225.57
372.65	225.55
373.03	225.50
373.41	225.46
373.78	225.41
374.16	225.32
374.54	225.24
374.92	225.18
375.30	225.14
375.68	225.08
376.06	225.04
376.44	224.98
376.82	224.93
377.19	224.88
377.57	224.83
377.95	224.75
378.33	224.69
378.71	224.54
379.09	224.49
379.47	224.46
379.84	224.40
380.22	224.34
380.60	224.26
380.98	224.21
381.36	224.16
381.73	224.09
382.11	224.06
382.49	224.02
382.87	223.96
383.25	223.92
383.62	224.00
384.00	223.94
384.38	223.90
384.76	223.89
385.13	223.87
385.51	223.83
385.89	223.79
386.27	223.75
386.64	223.73
387.02	223.68
387.40	223.64
387.78	223.62
388.15	223.59
388.53	223.56
388.91	223.53
389.29	223.50
389.66	223.49
390.04	223.46
390.42	223.45
390.79	223.43
391.17	223.41
391.55	223.28
391.92	223.27
392.30	223.26
392.68	223.22
393.05	223.20
393.43	223.20
393.81	223.20
394.18	223.18
394.56	223.19
394.94	223.22
395.31	223.21
395.69	223.25
396.06	223.28
396.44	223.30
396.82	223.31
397.19	223.39
397.57	223.39
397.95	223.43
398.32	223.42
398.70	223.47
399.07	223.52
399.45	223.56
399.82	223.61
400.20	223.64
400.58	223.69
400.95	223.70
401.33	223.78
401.70	223.91
402.08	223.98
402.45	224.06
402.83	224.15
403.20	224.24
403.58	224.32
403.95	224.44
404.33	224.57
404.71	224.69
405.08	224.86
405.46	225.00
405.83	225.16
406.21	225.32
406.58	225.51
406.96	225.69
407.33	225.90
407.70	226.13
408.08	226.45
408.45	226.73
408.83	227.03
409.20	227.30
409.58	227.54
409.95	227.88
410.33	228.25
410.70	228.59
411.08	229.00
411.45	229.43
411.82	229.86
412.20	230.35
412.57	230.94
412.95	231.40
413.32	232.00
413.69	232.62
414.07	233.28
414.44	233.98
414.82	234.71
415.19	235.57
415.56	236.42
415.94	237.31
416.31	238.32
416.68	239.33
417.06	240.50
417.43	241.61
417.81	242.88
418.18	244.17
418.55	245.59
418.93	247.06
419.30	248.59
419.67	250.22
420.04	251.90
420.42	253.66
420.79	255.70
421.16	257.75
421.54	259.83
421.91	262.01
422.28	264.28
422.66	266.72
423.03	269.05
423.40	271.51
423.77	274.14
424.15	276.82
424.52	279.62
424.89	282.66
425.26	285.67
425.64	288.46
426.01	291.61
426.38	294.82
426.75	298.14
427.13	301.55
427.50	305.11
427.87	308.81
428.24	312.54
428.61	316.12
428.99	319.98
429.36	324.21
429.73	328.26
430.10	332.31
430.47	336.44
430.85	340.69
431.22	345.21
431.59	349.87
431.96	354.41
432.33	359.42
432.70	364.19
433.08	369.82
433.45	375.14
433.82	380.36
434.19	386.21
434.56	391.95
434.93	397.48
435.30	402.95
435.68	409.09
436.05	415.11
436.42	421.13
436.79	426.63
437.16	432.55
437.53	438.88
437.90	445.19
438.27	451.36
438.64	458.05
439.01	464.08
439.38	469.58
439.75	474.91
440.13	480.97
440.50	486.71
440.87	491.25
441.24	496.23
441.61	501.73
441.98	505.75
442.35	510.54
442.72	515.42
443.09	520.09
443.46	523.10
443.83	525.30
444.20	527.15
444.57	529.88
444.94	531.46
445.31	533.12
445.68	534.58
446.05	535.64
446.42	535.43
446.79	535.12
447.16	534.84
447.53	534.62
447.90	532.78
448.27	531.07
448.64	528.37
449.01	526.58
449.37	522.74
449.74	519.23
450.11	514.72
450.48	509.78
450.85	504.81
451.22	500.58
451.59	496.45
451.96	492.68
452.33	487.19
452.70	482.32
453.07	476.38
453.43	470.42
453.80	464.68
454.17	459.15
454.54	454.03
454.91	448.26
455.28	442.82
455.65	437.69
456.02	432.25
456.38	427.85
456.75	422.17
457.12	417.58
457.49	412.96
457.86	408.56
458.23	404.73
458.59	400.48
458.96	396.10
459.33	392.26
459.70	388.36
460.07	385.36
460.43	381.85
460.80	378.54
461.17	375.65
461.54	372.51
461.91	369.59
462.27	366.62
462.64	364.18
463.01	361.39
463.38	358.58
463.74	356.01
464.11	353.72
464.48	351.67
464.85	349.46
465.21	347.78
465.58	345.92
465.95	343.76
466.32	342.04
466.68	340.36
467.05	338.67
467.42	337.02
467.78	335.26
468.15	333.62
468.52	332.40
468.88	330.81
469.25	329.34
469.62	328.18
469.98	326.93
470.35	325.80
470.72	324.79
471.08	323.75
471.45	322.90
471.82	321.98
472.18	321.01
472.55	320.37
472.92	319.59
473.28	318.99
473.65	318.36
474.02	317.77
474.38	317.27
474.75	317.00
475.11	316.59
475.48	316.43
475.85	316.27
476.21	316.22
476.58	316.23
476.94	316.41
477.31	316.53
477.67	316.67
478.04	316.92
478.41	317.24
478.77	317.70
479.14	318.02
479.50	318.56
479.87	319.22
480.23	319.90
480.60	320.56
480.96	321.24
481.33	322.16
481.69	323.09
482.06	324.03
482.42	324.91
482.79	325.97
483.15	327.18
483.52	328.53
483.88	329.85
484.25	331.25
484.61	332.70
484.98	334.27
485.34	336.03
485.71	337.85
486.07	339.79
486.44	341.72
486.80	343.87
487.17	346.08
487.53	348.50
487.90	351.02
488.26	353.75
488.62	356.62
488.99	359.50
489.35	362.51
489.72	365.75
490.08	369.16
490.44	372.67
490.81	376.33
491.17	380.10
491.54	384.12
491.90	388.25
492.26	392.68
492.63	397.35
492.99	402.23
493.36	407.22
493.72	412.46
494.08	417.86
494.45	423.56
494.81	429.44
495.17	435.44
495.54	441.81
495.90	448.48
496.26	455.30
496.63	462.34
496.99	469.69
497.35	477.41
497.72	485.40
498.08	493.54
498.44	501.93
498.80	510.86
499.17	520.03
499.53	529.52
499.89	539.24
500.26	549.15
500.62	559.32
500.98	570.17
501.34	581.15
501.71	592.65
502.07	604.40
502.43	616.54
502.79	629.02
503.16	641.92
503.52	654.97
503.88	668.38
504.24	682.23
504.60	696.33
504.97	710.81
505.33	725.71
505.69	741.50
506.05	757.50
506.41	773.53
506.78	789.86
507.14	806.70
507.50	824.08
507.86	841.85
508.22	859.89
508.59	877.99
508.95	896.80
509.31	916.07
509.67	935.99
510.03	956.15
510.39	976.56
510.75	997.14
511.12	1018.04
511.48	1039.24
511.84	1060.64
512.20	1082.35
512.56	1105.19
512.92	1128.13
513.28	1150.82
513.64	1173.87
514.00	1197.36
514.37	1221.15
514.73	1244.98
515.09	1268.64
515.45	1292.71
515.81	1317.37
516.17	1342.04
516.53	1366.46
516.89	1390.97
517.25	1415.68
517.61	1440.56
517.97	1465.67
518.33	1490.63
518.69	1515.74
519.05	1541.17
519.41	1566.68
519.77	1592.50
520.13	1617.55
520.49	1642.82
520.85	1668.33
521.21	1693.68
521.57	1719.61
521.93	1744.88
522.29	1770.93
522.65	1796.78
523.01	1822.49
523.37	1847.37
523.73	1873.02
524.09	1898.91
524.45	1924.58
524.81	1949.75
525.17	1974.84
525.53	1999.56
525.89	2024.24
526.25	2049.13
526.61	2073.42
526.97	2098.04
527.33	2122.60
527.68	2146.92
528.04	2170.58
528.40	2194.03
528.76	2217.74
529.12	2240.40
529.48	2263.54
529.84	2284.86
530.20	2306.60
530.56	2328.01
530.91	2349.58
531.27	2370.58
531.63	2390.91
531.99	2410.81
532.35	2430.62
532.71	2450.58
533.07	2470.98
533.42	2489.91
533.78	2509.14
534.14	2528.43
534.50	2546.84
534.86	2565.88
535.21	2583.20
535.57	2600.24
535.93	2616.64
536.29	2631.67
536.65	2647.59
537.00	2662.35
537.36	2677.79
537.72	2692.29
538.08	2706.46
538.44	2719.48
538.79	2732.75
539.15	2744.27
539.51	2755.59
539.87	2766.30
540.22	2774.74
540.58	2783.57
540.94	2792.86
541.29	2800.79
541.65	2807.72
542.01	2814.17
542.37	2818.68
542.72	2825.11
543.08	2830.96
543.44	2836.66
543.79	2841.84
544.15	2845.99
544.51	2850.08
544.87	2853.10
545.22	2855.84
545.58	2857.51
545.94	2859.71
546.29	2860.42
546.65	2861.07
547.01	2862.06
547.36	2863.15
547.72	2864.63
548.07	2864.39
548.43	2863.64
548.79	2862.16
549.14	2860.54
549.50	2859.62
549.86	2857.65
550.21	2853.47
550.57	2849.79
550.92	2844.67
551.28	2840.07
551.64	2835.38
551.99	2831.02
552.35	2826.38
552.70	2821.11
553.06	2816.56
553.41	2811.45
553.77	2805.61
554.13	2800.83
554.48	2794.79
554.84	2787.36
555.19	2779.95
555.55	2771.97
555.90	2764.49
556.26	2758.10
556.61	2751.11
556.97	2741.88
557.32	2733.83
557.68	2725.79
558.03	2717.17
558.39	2709.31
558.74	2701.52
559.10	2692.67
559.45	2683.39
559.81	2674.24
560.16	2664.54
560.52	2654.55
560.87	2645.58
561.23	2636.18
561.58	2626.30
561.94	2616.27
562.29	2605.56
562.64	2595.45
563.00	2585.66
563.35	2575.71
563.71	2564.61
564.06	2553.28
564.42	2542.87
564.77	2532.03
565.12	2521.26
565.48	2510.31
565.83	2499.96
566.19	2489.75
566.54	2478.88
566.89	2467.27
567.25	2455.76
567.60	2444.98
567.96	2433.70
568.31	2421.12
568.66	2408.63
569.02	2397.03
569.37	2385.28
569.72	2374.09
570.08	2362.09
570.43	2349.47
570.78	2336.50
571.14	2323.67
571.49	2311.36
571.84	2299.31
572.20	2285.96
572.55	2273.16
572.90	2260.09
573.26	2246.11
573.61	2231.49
573.96	2217.31
574.31	2203.34
574.67	2189.65
575.02	2175.46
575.37	2160.92
575.72	2146.57
576.08	2132.64
576.43	2117.63
576.78	2102.69
577.13	2088.55
577.49	2074.56
577.84	2061.04
578.19	2046.67
578.54	2031.82
578.90	2016.45
579.25	2000.85
579.60	1986.80
579.95	1972.28
580.30	1957.89
580.66	1943.69
581.01	1929.07
581.36	1914.86
581.71	1901.31
582.06	1887.11
582.42	1873.20
582.77	1859.84
583.12	1846.00
583.47	1832.39
583.82	1818.91
584.17	1805.25
584.53	1791.49
584.88	1777.73
585.23	1763.58
585.58	1750.00
585.93	1736.74
586.28	1724.39
586.63	1711.72
586.98	1698.23
587.34	1685.02
587.69	1671.32
588.04	1658.01
588.39	1645.28
588.74	1631.90
589.09	1618.37
589.44	1604.82
589.79	1591.72
590.14	1578.63
590.49	1565.76
590.84	1552.70
591.19	1540.24
591.54	1527.37
591.89	1514.29
592.25	1501.48
592.60	1488.37
592.95	1475.75
593.30	1463.56
593.65	1451.12
594.00	1439.02
594.35	1427.55
594.70	1415.24
595.05	1403.93
595.40	1392.36
595.75	1380.31
596.10	1369.15
596.45	1358.20
596.80	1347.69
597.15	1336.98
597.50	1326.19
597.85	1315.67
598.19	1305.32
598.54	1294.44
598.89	1284.27
599.24	1274.31
599.59	1264.22
599.94	1255.13
600.29	1245.89
600.64	1236.39
600.99	1226.24
601.34	1216.58
601.69	1206.44
602.04	1197.43
602.39	1188.36
602.74	1179.54
603.08	1170.93
603.43	1161.81
603.78	1152.51
604.13	1143.35
604.48	1134.09
604.83	1125.13
605.18	1116.06
605.53	1106.91
605.87	1097.85
606.22	1089.04
606.57	1080.04
606.92	1071.04
607.27	1061.88
607.62	1052.86
607.96	1044.05
608.31	1036.37
608.66	1028.22
609.01	1020.47
609.36	1012.57
609.70	1004.40
610.05	996.13
610.40	988.19
610.75	980.32
611.10	972.73
611.44	964.80
611.79	957.16
612.14	949.13
612.49	941.31
612.83	933.95
613.18	926.67
613.53	919.23
613.88	911.90
614.22	905.22
614.57	898.30
614.92	891.35
615.27	884.43
615.61	877.30
615.96	870.41
616.31	863.44
616.65	856.43
617.00	849.64
617.35	842.95
617.70	836.33
618.04	829.82
618.39	823.32
618.74	817.14
619.08	810.81
619.43	804.73
619.78	798.58
620.12	792.32
620.47	786.24
620.82	780.26
621.16	774.55
621.51	768.47
621.85	762.40
622.20	756.41
622.55	750.57
622.89	744.65
623.24	738.81
623.59	733.07
623.93	727.38
624.28	721.87
624.62	716.30
624.97	710.70
625.32	705.23
625.66	699.62
626.01	694.00
626.35	688.53
626.70	683.10
627.04	677.93
627.39	672.77
627.73	667.72
628.08	662.86
628.43	657.85
628.77	652.89
629.12	648.12
629.46	643.53
629.81	638.76
630.15	633.94
630.50	629.24
630.84	624.73
631.19	620.38
631.53	616.07
631.88	611.67
632.22	607.36
632.57	603.27
632.91	599.12
633.26	595.06
633.60	591.10
633.95	587.28
634.29	583.28
634.64	579.25
634.98	575.11
635.32	571.13
635.67	567.33
636.01	563.49
636.36	559.66
636.70	555.97
637.05	552.29
637.39	548.78
637.73	545.11
638.08	541.55
638.42	537.96
638.77	534.24
639.11	530.47
639.45	526.77
639.80	523.08
640.14	519.59
640.49	516.07
640.83	512.37
641.17	508.75
641.52	505.28
641.86	501.82
642.20	498.55
642.55	495.12
642.89	491.77
643.23	488.63
643.58	485.74
643.92	482.71
644.26	479.70
644.61	476.68
644.95	473.69
645.29	470.60
645.64	467.51
645.98	464.56
646.32	461.82
646.66	459.07
647.01	456.28
647.35	453.53
647.69	450.67
648.04	448.01
648.38	445.33
648.72	442.62
649.06	439.99
649.41	437.39
649.75	434.78
650.09	432.20
650.43	429.61
650.78	427.00
651.12	424.37
651.46	421.88
651.80	419.46
652.14	417.13
652.49	414.82
652.83	412.57
653.17	410.30
653.51	408.09
653.85	405.95
654.20	403.74
654.54	401.45
654.88	399.37
655.22	397.32
655.56	395.26
655.90	393.29
656.25	391.33
656.59	389.36
656.93	387.51
657.27	385.69
657.61	383.77
657.95	381.92
658.29	380.07
658.64	378.23
658.98	376.39
659.32	374.57
659.66	372.86
660.00	371.15
660.34	369.49
660.68	367.78
661.02	366.00
661.36	364.36
661.70	362.77
662.05	361.14
662.39	359.51
662.73	357.97
663.07	356.45
663.41	354.96
663.75	353.51
664.09	352.05
664.43	350.50
664.77	349.08
665.11	347.58
665.45	346.18
665.79	344.79
666.13	343.37
666.47	341.94
666.81	340.48
667.15	338.99
667.49	337.58
667.83	336.24
668.17	334.93
668.51	333.63
668.85	332.38
669.19	331.20
669.53	329.94
669.87	328.66
670.21	327.40
670.55	326.16
670.89	324.98
671.23	323.79
671.57	322.60
671.91	321.46
672.25	320.39
672.58	319.30
672.92	318.20
673.26	317.17
673.60	316.13
673.94	315.09
674.28	314.11
674.62	313.13
674.96	312.09
675.30	311.13
675.64	310.14
675.97	309.17
676.31	308.17
676.65	307.19
676.99	306.29
677.33	305.34
677.67	304.42
678.01	303.42
678.34	302.50
678.68	301.64
679.02	300.75
679.36	299.86
679.70	298.99
680.04	298.13
680.37	297.26
680.71	296.43
681.05	295.66
681.39	294.85
681.73	294.00
682.06	293.20
682.40	292.40
682.74	291.63
683.08	290.87
683.42	290.10
683.75	289.41
684.09	288.62
684.43	287.89
684.77	287.15
685.10	286.46
685.44	285.75
685.78	285.03
686.12	284.35
686.45	283.66
686.79	282.96
687.13	282.29
687.46	281.59
687.80	280.92
688.14	280.20
688.48	279.55
688.81	278.89
689.15	278.28
689.49	277.63
689.82	276.99
690.16	276.30
690.50	275.68
690.83	275.05
691.17	274.43
691.51	273.83
691.84	273.24
692.18	272.63
692.52	272.00
692.85	271.42
693.19	270.86
693.52	270.29
693.86	269.72
694.20	269.16
694.53	268.62
694.87	268.07
695.21	267.55
695.54	267.01
695.88	266.47
696.21	265.90
696.55	265.37
696.88	264.85
697.22	264.36
697.56	263.85
697.89	263.31
698.23	262.79
698.56	262.27
698.90	261.79
699.23	261.29
699.57	260.84
699.90	260.36
700.24	259.85
700.58	259.39
700.91	258.96
701.25	258.60
701.58	258.20
701.92	257.81
702.25	257.38
702.59	256.94
702.92	256.54
703.26	256.14
703.59	255.73
703.93	255.40
704.26	255.01
704.60	254.62
704.93	254.24
705.26	253.87
705.60	253.53
705.93	253.15
706.27	252.83
706.60	252.49
706.94	252.17
707.27	251.78
707.61	251.43
707.94	251.06
708.27	250.61
708.61	250.22
708.94	249.85
709.28	249.51
709.61	249.18
709.94	248.86
710.28	248.56
710.61	248.26
710.95	247.87
711.28	247.64
711.61	247.35
711.95	247.08
712.28	246.78
712.61	246.48
712.95	246.25
713.28	246.00
713.61	245.72
713.95	245.41
714.28	245.16
714.61	244.88
714.95	244.62
715.28	244.36
715.61	244.11
715.95	243.87
716.28	243.62
716.61	243.40
716.95	243.15
717.28	242.91
717.61	242.67
717.94	242.44
718.28	242.14
718.61	241.91
718.94	241.67
719.27	241.45
719.61	241.24
719.94	240.99
720.27	240.73
720.60	240.51
720.94	240.30
721.27	240.11
721.60	239.94
721.93	239.75
722.27	239.60
722.60	239.41
722.93	239.21
723.26	239.03
723.59	238.82
723.93	238.65
724.26	238.47
724.59	238.30
724.92	238.13
725.25	237.99
725.59	237.82
725.92	237.68
726.25	237.52
726.58	237.36
726.91	237.18
727.24	237.04
727.57	236.89
727.91	236.72
728.24	236.58
728.57	236.41
728.90	236.27
729.23	236.08
729.56	235.98
729.89	235.84
730.22	235.69
730.55	235.55
730.89	235.40
731.22	235.26
731.55	235.12
731.88	234.99
732.21	234.83
732.54	234.69
732.87	234.57
733.20	234.45
733.53	234.32
733.86	234.21
734.19	234.08
734.52	233.97
734.85	233.92
735.18	233.77
735.51	233.69
735.84	233.57
736.17	233.49
736.50	233.32
736.83	233.33
737.16	233.23
737.49	233.13
737.82	233.03
738.15	232.93
738.48	232.83
738.81	232.71
739.14	232.60
739.47	232.50
739.80	232.39
740.13	232.30
740.46	232.19
740.79	232.07
741.12	231.97
741.45	231.86
741.78	231.70
742.11	231.64
742.44	231.53
742.77	231.45
743.10	231.34
743.43	231.25
743.75	231.04
744.08	231.11
744.41	231.01
744.74	230.91
745.07	230.80
745.40	230.73
745.73	230.69
746.06	230.62
746.39	230.55
746.71	230.47
747.04	230.37
747.37	230.30
747.70	230.25
748.03	230.17
748.36	230.12
748.68	230.04
749.01	229.94
749.34	229.86
749.67	229.79
750.00	229.73
750.33	229.73
750.65	229.67
750.98	229.45
751.31	229.39
751.64	229.33
751.97	229.32
752.29	229.24
752.62	229.13
752.95	229.05
753.28	228.96
753.60	228.89
753.93	228.85
754.26	228.79
754.59	228.68
754.91	228.61
755.24	228.52
755.57	228.51
755.90	228.45
756.22	228.38
756.55	228.30
756.88	228.22
757.20	228.09
757.53	228.01
757.86	227.95
758.19	227.90
758.51	227.84
758.84	227.73
759.17	227.66
759.49	227.61
759.82	227.61
760.15	227.57
760.47	227.51
760.80	227.43
761.13	227.40
761.45	227.35
761.78	227.31
762.11	227.26
762.43	227.16
762.76	227.11
763.08	227.08
763.41	227.04
763.74	227.00
764.06	226.95
764.39	226.92
764.71	226.87
765.04	226.81
765.37	226.76
765.69	226.73
766.02	226.68
766.34	226.63
766.67	226.55
767.00	226.52
767.32	226.53
767.65	226.56
767.97	226.51
768.30	226.48
768.62	226.43
768.95	226.38
769.27	226.34
769.60	226.32
769.92	226.26
770.25	226.21
770.57	226.15
770.90	226.11
771.22	226.07
771.55	226.04
771.87	226.01
772.20	225.98
772.52	226.03
772.85	226.13
773.17	226.10
773.50	226.06
773.82	226.01
774.15	225.93
774.47	225.84
774.80	225.79
775.12	225.76
775.45	225.73
775.77	225.71
776.09	225.69
776.42	225.66
776.74	225.67
777.07	225.64
777.39	225.61
777.72	225.58
778.04	225.56
778.36	225.53
778.69	225.50
779.01	225.49
779.33	225.37
779.66	225.22
779.98	225.19
780.31	225.18
780.63	225.20
780.95	225.20
781.28	225.18
781.60	225.15
781.92	225.13
782.25	225.11
782.57	225.09
782.89	225.06
783.22	225.03
783.54	224.98
783.86	224.98
784.19	224.96
784.51	224.97
784.83	224.95
785.16	224.92
785.48	224.91
785.80	224.88
786.12	224.88
786.45	224.86
786.77	224.85
787.09	224.83
787.42	224.78
787.74	224.76
788.06	224.74
788.38	224.73
788.71	224.71
789.03	224.70
789.35	224.69
789.67	224.65
789.99	224.64
790.32	224.61
790.64	224.60
790.96	224.68
791.28	224.62
791.61	224.60
791.93	224.59
792.25	224.56
792.57	224.62
792.89	224.58
793.21	224.58
793.54	224.55
793.86	224.53
794.18	224.51
794.50	224.47
794.82	224.46
795.14	224.47
795.47	224.47
795.79	224.45
796.11	224.42
796.43	224.42
796.75	224.41
797.07	224.41
797.39	224.39
797.71	224.30
798.04	224.29
798.36	224.29
798.68	224.27
799.00	224.27
799.32	224.21
799.64	224.21
799.96	224.20
800.28	224.20
800.60	224.19
800.92	224.18
801.24	224.16
801.56	224.16
801.89	224.13
802.21	224.11
802.53	224.09
802.85	224.10
803.17	224.14
803.49	224.10
803.81	224.07
804.13	224.05
804.45	224.03
804.77	224.02
805.09	224.01
805.41	223.99
805.73	223.97
806.05	223.93
806.37	223.91
806.69	223.88
807.01	223.87
807.33	223.86
807.65	223.81
807.97	223.86
808.28	223.83
808.60	223.83
808.92	223.80
809.24	223.85
809.56	223.82
809.88	223.77
810.20	223.77
810.52	223.78
810.84	223.76
811.16	223.74
811.48	223.73
811.80	223.75
812.12	223.75
812.43	223.76
812.75	223.76
813.07	223.74
813.39	223.75
813.71	223.73
814.03	223.71
814.35	223.71
814.67	223.66
814.98	223.65
815.30	223.64
815.62	223.62
815.94	223.54
816.26	223.55
816.58	223.52
816.89	223.53
817.21	223.50
817.53	223.51
817.85	223.51
818.17	223.51
818.48	223.46
818.80	223.47
819.12	223.44
819.44	223.43
819.76	223.41
820.07	223.40
820.39	223.39
820.71	223.40
821.03	223.40
821.34	223.39
821.66	223.41
821.98	223.41
822.30	223.41
822.61	223.47
822.93	223.46
823.25	223.46
823.57	223.45
823.88	223.46
824.20	223.44
824.52	223.45
824.83	223.45
825.15	223.44
825.47	223.43
825.79	223.43
826.10	223.43
826.42	223.43
826.74	223.44
827.05	223.44
827.37	223.44
827.69	223.43
828.00	223.43
828.32	223.43
828.64	223.41
828.95	223.46
829.27	223.42
829.58	223.43
829.90	223.44
830.22	223.45
830.53	223.43
830.85	223.42
831.17	223.39
831.48	223.39
831.80	223.39
832.11	223.38
832.43	223.36
832.75	223.35
833.06	223.40
833.38	223.37
833.69	223.35
834.01	223.35
834.32	223.34
834.64	223.34
834.96	223.34
835.27	223.33
835.59	223.30
835.90	223.28
836.22	223.27
836.53	223.25
836.85	223.23
837.16	223.33
837.48	223.33
837.79	223.36
838.11	223.37
838.42	223.36
838.74	223.38
839.05	223.37
839.37	223.37
839.68	223.31
840.00	223.30
840.31	223.31
840.63	223.30
840.94	223.29
841.26	223.27
841.57	223.26
841.88	223.26
842.20	223.24
842.51	223.23
842.83	223.23
843.14	223.32
843.46	223.31
843.77	223.24
844.08	223.23
844.40	223.19
844.71	223.18
845.03	223.16
845.34	223.15
845.65	223.14
845.97	223.13
846.28	223.14
846.60	223.14
846.91	223.13
847.22	223.12
847.54	223.14
847.85	223.15
848.16	223.14
848.48	223.12
848.79	223.16
849.10	223.17
849.42	223.17
849.73	223.07
850.04	223.06
850.36	223.03
850.67	223.04
850.98	223.05
851.30	223.05
851.61	223.04
851.92	223.04
852.23	223.08
852.55	223.08
852.86	223.08
853.17	223.08
853.49	223.11
853.80	223.12
854.11	223.12
854.42	223.13
854.74	223.11
855.05	223.11
855.36	223.06
855.67	223.06
855.99	223.05
856.30	223.18
856.61	223.17
856.92	223.17
857.23	223.18
857.55	223.17
857.86	223.16
858.17	223.18
858.48	223.16
858.79	223.14
859.11	223.15
859.42	223.14
859.73	223.12
860.04	223.12
860.35	223.10
860.66	223.06
860.98	223.06
861.29	223.08
861.60	223.07
861.91	223.10
862.22	223.09
862.53	223.08
862.84	222.95
863.16	222.97
863.47	222.95
863.78	222.93
864.09	222.94
864.40	222.95
864.71	222.95
865.02	222.97
865.33	222.95
865.64	222.93
865.95	222.92
866.27	222.99
866.58	222.97
866.89	222.98
867.20	222.99
867.51	222.97
867.82	222.97
868.13	223.00
868.44	222.98
868.75	223.00
869.06	223.00
869.37	223.02
869.68	222.99
869.99	223.02
870.30	223.02
870.61	223.03
870.92	223.01
871.23	223.00
871.54	223.02
871.85	223.04
872.16	223.06
872.47	223.05
872.78	222.99
873.09	223.01
873.40	222.99
873.71	223.00
874.02	223.02
874.33	223.00
874.64	222.98
874.95	222.99
875.26	222.97
875.56	222.96
875.87	222.96
876.18	222.96
876.49	223.06
876.80	223.05
877.11	223.02
877.42	223.04
877.73	223.04
878.04	223.02
878.35	223.02
878.66	223.02
878.96	223.02
879.27	223.01
879.58	223.01
879.89	223.01
880.20	223.03
880.51	223.02
880.82	223.03
881.12	223.04
881.43	223.02
881.74	223.00
882.05	223.00
882.36	223.01
882.67	223.01
882.97	222.90
883.28	222.89
883.59	222.89
883.90	222.89
884.21	222.90
884.51	222.89
884.82	222.88
885.13	222.87
885.44	222.87
885.74	222.87
886.05	222.86
886.36	222.86
886.67	222.82
886.98	222.87
887.28	222.88
887.59	222.87
887.90	222.88
888.20	222.88
888.51	222.89
888.82	222.87
889.13	222.87
889.43	222.96
889.74	222.95
890.05	222.95
890.35	222.94
890.66	222.92
890.97	222.91
891.28	222.91
891.58	222.91
891.89	222.91
892.20	222.90
892.50	222.89
892.81	222.88
893.12	222.88
893.42	222.83
893.73	222.83
894.04	222.83
894.34	222.84
894.65	222.83
894.95	222.81
895.26	222.82
895.57	222.86
895.87	222.76
896.18	222.78
896.48	222.78
896.79	222.78
897.10	222.79
897.40	222.80
897.71	222.81
898.01	222.80
898.32	222.80
898.63	222.79
898.93	222.80
899.24	222.80
899.54	222.80
899.85	222.79
900.15	222.79
900.46	222.79
900.76	222.79
901.07	222.80
901.38	222.78
901.68	222.80
901.99	222.75
902.29	222.75
902.60	222.74
902.90	222.73
903.21	222.74
903.51	222.73
903.82	222.75
904.12	222.75
904.43	222.75
904.73	222.74
905.03	222.75
905.34	222.85
905.64	222.84
905.95	222.85
906.25	222.85
906.56	222.84
906.86	222.83
907.17	222.82
907.47	222.83
907.77	222.83
908.08	222.80
908.38	222.81
908.69	222.82
908.99	222.84
909.30	222.85
909.60	222.84
909.90	222.85
910.21	222.81
910.51	222.80
910.81	222.80
911.12	222.81
911.42	222.81
911.73	222.71
912.03	222.72
912.33	222.74
912.64	222.74
912.94	222.73
913.24	222.71
913.55	222.70
913.85	222.69
914.15	222.72
914.46	222.73
914.76	222.72
915.06	222.71
915.37	222.69
915.67	222.69
915.97	222.69
916.27	222.67
916.58	222.67
916.88	222.67
917.18	222.66
917.49	222.73
917.79	222.72
918.09	222.73
918.39	222.75
918.70	222.75
919.00	222.75
919.30	222.80
919.60	222.80
919.91	222.79
920.21	222.80
920.51	222.77
920.81	222.76
921.12	222.78
921.42	222.78
921.72	222.78
922.02	222.79
922.32	222.80
922.63	222.81
922.93	222.86
923.23	222.87
923.53	222.86
923.83	222.79
924.13	222.80
924.44	222.80
924.74	222.81
925.04	222.83
925.34	222.82
925.64	222.78
925.94	222.79
926.24	222.84
926.55	222.83
926.85	222.85
927.15	222.85
927.45	222.84
927.75	222.84
928.05	222.84
928.35	222.84
928.65	222.85
928.95	222.85
929.26	222.80
929.56	222.82
929.86	222.83
930.16	222.83
930.46	222.82
930.76	222.83
931.06	222.78
931.36	222.76
931.66	222.78
931.96	222.79
932.26	222.79
932.56	222.75
932.86	222.76
933.16	222.75
933.46	222.75
933.76	222.74
934.06	222.76
934.36	222.79
934.66	222.78
934.96	222.77
935.26	222.78
935.56	222.80
935.86	222.77
936.16	222.75
936.46	222.74
936.76	222.73
937.06	222.72
937.36	222.73
937.66	222.73
937.96	222.72
938.26	222.70
938.56	222.69
938.86	222.70
939.16	222.72
939.46	222.73
939.76	222.74
940.06	222.74
940.35	222.72
940.65	222.67
940.95	222.68
941.25	222.65
941.55	222.64
941.85	222.63
942.15	222.65
942.45	222.67
942.75	222.68
943.04	222.68
943.34	222.70
943.64	222.69
943.94	222.68
944.24	222.68
944.54	222.69
944.84	222.68
945.13	222.66
945.43	222.64
945.73	222.64
946.03	222.63
946.33	222.62
946.62	222.61
946.92	222.61
947.22	222.61
947.52	222.62
947.82	222.63
948.11	222.62
948.41	222.59
948.71	222.57
949.01	222.58
949.31	222.57
949.60	222.55
949.90	222.57
950.20	222.56
950.50	222.56
950.79	222.55
951.09	222.57
951.39	222.56
951.69	222.55
951.98	222.56
952.28	222.57
952.58	222.57
952.87	222.58
953.17	222.59
953.47	222.58
953.76	222.57
954.06	222.56
954.36	222.55
954.66	222.55
954.95	222.58
955.25	222.59
955.55	222.59
955.84	222.58
956.14	222.59
956.44	222.60
956.73	222.58
957.03	222.58
957.32	222.58
957.62	222.58
957.92	222.60
958.21	222.59
958.51	222.70
958.81	222.70
959.10	222.71
959.40	222.73
959.69	222.74
959.99	222.76
960.29	222.76
960.58	222.75
960.88	222.79
961.17	222.77
961.47	222.77
961.76	222.77
962.06	222.78
962.36	222.77
962.65	222.77
962.95	222.77
963.24	222.76
963.54	222.77
963.83	222.77
964.13	222.77
964.42	222.75
964.72	222.66
965.01	222.66
965.31	222.65
965.60	222.62
965.90	222.68
966.19	222.65
966.49	222.66
966.78	222.65
967.08	222.64
967.37	222.65
967.67	222.62
967.96	222.64
968.26	222.64
968.55	222.65
968.85	222.65
969.14	222.65
969.43	222.66
969.73	222.64
970.02	222.63
970.32	222.62
970.61	222.62
970.91	222.59
971.20	222.58
971.49	222.58
971.79	222.59
972.08	222.51
972.38	222.53
972.67	222.52
972.96	222.54
973.26	222.51
973.55	222.54
973.85	222.54
974.14	222.53
974.43	222.54
974.73	222.52
975.02	222.51
975.31	222.51
975.61	222.51
975.90	222.50
976.19	222.49
976.49	222.51
976.78	222.51
977.07	222.51
977.37	222.52
977.66	222.53
977.95	222.50
978.24	222.52
978.54	222.54
978.83	222.53
979.12	222.53
979.42	222.53
979.71	222.51
980.00	222.51
980.29	222.51
980.59	222.49
980.88	222.52
981.17	222.52
981.46	222.52
981.76	222.51
982.05	222.54
982.34	222.55
982.63	222.55
982.93	222.55
983.22	222.58
983.51	222.59
983.80	222.60
984.09	222.62
984.39	222.61
984.68	222.59
984.97	222.59
985.26	222.59
985.55	222.59
985.85	222.57
986.14	222.59
986.43	222.60
986.72	222.60
987.01	222.56
987.30	222.57
987.59	222.55
987.89	222.56
988.18	222.53
988.47	222.52
988.76	222.51
989.05	222.50
989.34	222.48
989.63	222.50
989.92	222.48
990.22	222.46
990.51	222.46
990.80	222.46
991.09	222.46
991.38	222.48
991.67	222.47
991.96	222.46
992.25	222.46
992.54	222.44
992.83	222.44
993.12	222.44
993.41	222.46
993.70	222.50
993.99	222.52
994.28	222.54
994.58	222.56
994.87	222.54
995.16	222.55
995.45	222.54
995.74	222.51
996.03	222.52
996.32	222.54
996.61	222.57
996.90	222.57
997.19	222.57
997.48	222.57
997.77	222.56
998.06	222.57
998.34	222.56
998.63	222.56
998.92	222.56
999.21	222.58
999.50	222.57
999.79	222.54
1000.08	222.54
1000.37	222.53
1000.66	222.52
1000.95	222.54
1001.24	222.55
1001.53	222.56
1001.82	222.56
1002.11	222.54
1002.40	222.55
1002.68	222.56
1002.97	222.63
1003.26	222.61
1003.55	222.60
1003.84	222.61
1004.13	222.64
1004.42	222.63
1004.71	222.63
1004.99	222.62
1005.28	222.65
1005.57	222.64
1005.86	222.63
1006.15	222.62
1006.44	222.60
1006.72	222.62
1007.01	222.61
1007.30	222.61
1007.59	222.59
1007.88	222.59
1008.17	222.60
1008.45	222.58
1008.74	222.54
1009.03	222.49
1009.32	222.49
1009.60	222.49
1009.89	222.48
1010.18	222.44
1010.47	222.43
1010.76	222.44
1011.04	222.44
1011.33	222.44
1011.62	222.45
1011.91	222.46
1012.19	222.46
1012.48	222.47
1012.77	222.46
1013.05	222.49
1013.34	222.49
1013.63	222.49
1013.92	222.49
1014.20	222.48
1014.49	222.49
1014.78	222.50
1015.06	222.47
1015.35	222.47
1015.64	222.48
1015.92	222.50
1016.21	222.51
1016.50	222.51
1016.78	222.51
1017.07	222.52
1017.36	222.50
1017.64	222.49
1017.93	222.50
1018.22	222.49
1018.50	222.49
1018.79	222.48
1019.08	222.45
1019.36	222.46
1019.65	222.45
1019.93	222.48
1020.22	222.49
1020.51	222.55
1020.79	222.54
1021.08	222.35
1021.36	222.31
1021.65	222.52
1021.94	222.38
1022.22	222.58
1022.51	222.30
1022.79	223.01
1023.08	222.62
1023.36	223.78
1023.65	222.31
>>>>>End Processed Spectral Data<<<<<
