SpectraSuite Data File
++++++++++++++++++++++++++++++++++++
Date: Thu Oct 01 07:26:18 EDT 2015
User: lab3
Dark Spectrum Present: No
Reference Spectrum Present: No
Number of Sampled Component Spectra: 1
Spectrometers: USB2E7196
Integration Time (usec): 36000 (USB2E7196)
Spectra Averaged: 10000 (USB2E7196)
Boxcar Smoothing: 10 (USB2E7196)
Correct for Electrical Dark: No (USB2E7196)
Strobe/Lamp Enabled: No (USB2E7196)
Correct for Detector Non-linearity: No (USB2E7196)
Correct for Stray Light: No (USB2E7196)
Number of Pixels in Processed Spectrum: 2048
>>>>>Begin Processed Spectral Data<<<<<
339.09	0.00
339.48	210.09
339.86	211.54
340.24	212.91
340.63	214.29
341.01	217.31
341.39	217.05
341.78	218.40
342.16	219.53
342.54	219.99
342.93	208.66
343.31	219.20
343.69	219.74
344.07	220.20
344.46	220.63
344.84	221.02
345.22	221.25
345.60	221.51
345.99	221.70
346.37	221.84
346.75	221.95
347.13	222.03
347.52	222.10
347.90	222.18
348.28	222.21
348.66	222.27
349.05	222.27
349.43	222.32
349.81	222.38
350.19	222.44
350.57	222.50
350.96	222.59
351.34	222.68
351.72	222.78
352.10	222.88
352.48	222.96
352.87	223.02
353.25	223.08
353.63	223.14
354.01	223.21
354.39	223.28
354.77	223.36
355.15	223.46
355.54	223.52
355.92	223.55
356.30	223.63
356.68	223.77
357.06	223.84
357.44	223.89
357.82	223.95
358.20	224.06
358.58	224.12
358.97	224.19
359.35	224.26
359.73	224.34
360.11	224.40
360.49	224.45
360.87	224.50
361.25	224.56
361.63	224.65
362.01	224.70
362.39	224.73
362.77	224.78
363.15	224.80
363.53	224.83
363.91	224.87
364.29	224.89
364.67	224.81
365.05	224.83
365.43	224.86
365.81	224.89
366.19	224.91
366.57	224.96
366.95	224.96
367.33	224.93
367.71	224.92
368.09	224.94
368.47	224.93
368.85	224.92
369.23	224.93
369.61	224.87
369.99	224.88
370.37	224.88
370.75	224.94
371.13	224.91
371.51	224.87
371.89	224.85
372.27	224.83
372.65	224.81
373.03	224.76
373.41	224.72
373.78	224.67
374.16	224.58
374.54	224.50
374.92	224.45
375.30	224.41
375.68	224.35
376.06	224.30
376.44	224.24
376.82	224.20
377.19	224.14
377.57	224.09
377.95	224.01
378.33	223.94
378.71	223.79
379.09	223.74
379.47	223.71
379.84	223.64
380.22	223.58
380.60	223.51
380.98	223.46
381.36	223.40
381.73	223.34
382.11	223.31
382.49	223.26
382.87	223.20
383.25	223.15
383.62	223.23
384.00	223.16
384.38	223.12
384.76	223.10
385.13	223.09
385.51	223.06
385.89	223.00
386.27	222.97
386.64	222.94
387.02	222.90
387.40	222.85
387.78	222.82
388.15	222.80
388.53	222.77
388.91	222.74
389.29	222.70
389.66	222.70
390.04	222.66
390.42	222.65
390.79	222.64
391.17	222.62
391.55	222.48
391.92	222.47
392.30	222.46
392.68	222.43
393.05	222.41
393.43	222.40
393.81	222.40
394.18	222.39
394.56	222.40
394.94	222.42
395.31	222.42
395.69	222.46
396.06	222.48
396.44	222.50
396.82	222.51
397.19	222.59
397.57	222.60
397.95	222.64
398.32	222.64
398.70	222.68
399.07	222.74
399.45	222.78
399.82	222.82
400.20	222.86
400.58	222.92
400.95	222.93
401.33	223.01
401.70	223.14
402.08	223.23
402.45	223.31
402.83	223.41
403.20	223.51
403.58	223.60
403.95	223.72
404.33	223.86
404.71	223.98
405.08	224.16
405.46	224.31
405.83	224.48
406.21	224.65
406.58	224.85
406.96	225.03
407.33	225.25
407.70	225.50
408.08	225.84
408.45	226.13
408.83	226.44
409.20	226.73
409.58	226.99
409.95	227.33
410.33	227.72
410.70	228.08
411.08	228.50
411.45	228.95
411.82	229.40
412.20	229.92
412.57	230.53
412.95	231.02
413.32	231.65
413.69	232.29
414.07	232.99
414.44	233.73
414.82	234.50
415.19	235.39
415.56	236.30
415.94	237.24
416.31	238.30
416.68	239.36
417.06	240.59
417.43	241.74
417.81	243.08
418.18	244.43
418.55	245.92
418.93	247.46
419.30	249.07
419.67	250.78
420.04	252.54
420.42	254.38
420.79	256.51
421.16	258.66
421.54	260.84
421.91	263.12
422.28	265.49
422.66	268.05
423.03	270.48
423.40	273.04
423.77	275.78
424.15	278.58
424.52	281.50
424.89	284.65
425.26	287.80
425.64	290.71
426.01	293.98
426.38	297.33
426.75	300.77
427.13	304.30
427.50	307.98
427.87	311.81
428.24	315.67
428.61	319.37
428.99	323.34
429.36	327.71
429.73	331.89
430.10	336.04
430.47	340.29
430.85	344.65
431.22	349.30
431.59	354.07
431.96	358.72
432.33	363.86
432.70	368.73
433.08	374.50
433.45	379.94
433.82	385.29
434.19	391.28
434.56	397.15
434.93	402.82
435.30	408.42
435.68	414.73
436.05	420.90
436.42	427.08
436.79	432.71
437.16	438.78
437.53	445.29
437.90	451.80
438.27	458.16
438.64	465.07
439.01	471.32
439.38	477.03
439.75	482.56
440.13	488.88
440.50	494.91
440.87	499.66
441.24	504.90
441.61	510.67
441.98	514.91
442.35	519.97
442.72	525.16
443.09	530.13
443.46	533.38
443.83	535.81
444.20	537.86
444.57	540.85
444.94	542.68
445.31	544.56
445.68	546.25
446.05	547.57
446.42	547.53
446.79	547.39
447.16	547.30
447.53	547.24
447.90	545.50
448.27	543.87
448.64	541.23
449.01	539.51
449.37	535.65
449.74	532.15
450.11	527.61
450.48	522.59
450.85	517.52
451.22	513.23
451.59	509.04
451.96	505.23
452.33	499.59
452.70	494.56
453.07	488.42
453.43	482.26
453.80	476.29
454.17	470.55
454.54	465.23
454.91	459.19
455.28	453.51
455.65	448.15
456.02	442.42
456.38	437.81
456.75	431.86
457.12	427.06
457.49	422.21
457.86	417.58
458.23	413.51
458.59	409.02
458.96	404.39
459.33	400.31
459.70	396.15
460.07	392.98
460.43	389.25
460.80	385.76
461.17	382.68
461.54	379.36
461.91	376.25
462.27	373.09
462.64	370.51
463.01	367.56
463.38	364.58
463.74	361.89
464.11	359.49
464.48	357.31
464.85	354.99
465.21	353.20
465.58	351.24
465.95	348.98
466.32	347.17
466.68	345.41
467.05	343.63
467.42	341.92
467.78	340.08
468.15	338.37
468.52	337.10
468.88	335.44
469.25	333.92
469.62	332.72
469.98	331.42
470.35	330.26
470.72	329.21
471.08	328.15
471.45	327.27
471.82	326.30
472.18	325.29
472.55	324.64
472.92	323.83
473.28	323.20
473.65	322.55
474.02	321.93
474.38	321.43
474.75	321.15
475.11	320.74
475.48	320.58
475.85	320.43
476.21	320.38
476.58	320.40
476.94	320.59
477.31	320.72
477.67	320.88
478.04	321.15
478.41	321.49
478.77	321.96
479.14	322.31
479.50	322.87
479.87	323.57
480.23	324.28
480.60	324.96
480.96	325.67
481.33	326.65
481.69	327.62
482.06	328.58
482.42	329.49
482.79	330.58
483.15	331.84
483.52	333.23
483.88	334.58
484.25	336.02
484.61	337.52
484.98	339.14
485.34	340.94
485.71	342.81
486.07	344.81
486.44	346.79
486.80	349.00
487.17	351.26
487.53	353.75
487.90	356.34
488.26	359.13
488.62	362.08
488.99	365.03
489.35	368.12
489.72	371.45
490.08	374.96
490.44	378.57
490.81	382.34
491.17	386.20
491.54	390.33
491.90	394.54
492.26	399.10
492.63	403.90
492.99	408.88
493.36	413.99
493.72	419.36
494.08	424.88
494.45	430.71
494.81	436.75
495.17	442.91
495.54	449.43
495.90	456.26
496.26	463.22
496.63	470.43
496.99	477.93
497.35	485.79
497.72	493.95
498.08	502.27
498.44	510.86
498.80	520.01
499.17	529.38
499.53	539.10
499.89	549.04
500.26	559.15
500.62	569.55
500.98	580.63
501.34	591.86
501.71	603.63
502.07	615.62
502.43	628.01
502.79	640.76
503.16	653.90
503.52	667.25
503.88	680.97
504.24	695.11
504.60	709.55
504.97	724.38
505.33	739.58
505.69	755.70
506.05	772.03
506.41	788.36
506.78	805.01
507.14	822.12
507.50	839.84
507.86	857.95
508.22	876.34
508.59	894.75
508.95	913.88
509.31	933.43
509.67	953.70
510.03	974.19
510.39	994.87
510.75	1015.82
511.12	1037.05
511.48	1058.62
511.84	1080.25
512.20	1102.19
512.56	1125.25
512.92	1148.54
513.28	1171.54
513.64	1194.82
514.00	1218.53
514.37	1242.58
514.73	1266.64
515.09	1290.49
515.45	1314.80
515.81	1339.65
516.17	1364.57
516.53	1389.14
516.89	1413.77
517.25	1438.60
517.61	1463.61
517.97	1488.81
518.33	1513.72
518.69	1538.78
519.05	1564.10
519.41	1589.55
519.77	1615.26
520.13	1640.17
520.49	1665.24
520.85	1690.51
521.21	1715.71
521.57	1741.50
521.93	1766.55
522.29	1792.47
522.65	1818.10
523.01	1843.49
523.37	1868.16
523.73	1893.43
524.09	1918.87
524.45	1944.26
524.81	1969.15
525.17	1993.95
525.53	2018.30
525.89	2042.66
526.25	2067.24
526.61	2091.25
526.97	2115.57
527.33	2139.78
527.68	2163.90
528.04	2187.11
528.40	2210.18
528.76	2233.43
529.12	2255.60
529.48	2278.14
529.84	2298.81
530.20	2320.10
530.56	2341.04
530.91	2362.01
531.27	2382.49
531.63	2402.31
531.99	2421.59
532.35	2440.48
532.71	2459.48
533.07	2479.09
533.42	2497.10
533.78	2515.57
534.14	2533.98
534.50	2551.58
534.86	2569.80
535.21	2586.09
535.57	2602.38
535.93	2617.87
536.29	2632.20
536.65	2647.34
537.00	2661.36
537.36	2675.92
537.72	2689.37
538.08	2702.50
538.44	2714.49
538.79	2726.66
539.15	2737.19
539.51	2747.67
539.87	2757.84
540.22	2765.91
540.58	2774.00
540.94	2782.75
541.29	2789.83
541.65	2795.97
542.01	2801.58
542.37	2805.32
542.72	2810.97
543.08	2816.12
543.44	2821.16
543.79	2825.32
544.15	2828.65
544.51	2831.91
544.87	2834.28
545.22	2836.25
545.58	2837.28
545.94	2838.74
546.29	2838.74
546.65	2838.92
547.01	2839.07
547.36	2839.37
547.72	2839.78
548.07	2838.74
548.43	2837.02
548.79	2834.69
549.14	2832.43
549.50	2830.73
549.86	2828.27
550.21	2823.31
550.57	2818.78
550.92	2812.86
551.28	2807.54
551.64	2802.13
551.99	2797.15
552.35	2791.75
552.70	2785.89
553.06	2780.77
553.41	2775.21
553.77	2769.13
554.13	2763.64
554.48	2757.31
554.84	2749.27
555.19	2741.40
555.55	2732.97
555.90	2725.10
556.26	2718.28
556.61	2710.82
556.97	2701.19
557.32	2692.36
557.68	2684.07
558.03	2675.07
558.39	2666.78
558.74	2658.66
559.10	2649.25
559.45	2639.52
559.81	2630.14
560.16	2620.13
560.52	2609.60
560.87	2600.06
561.23	2590.19
561.58	2579.79
561.94	2569.15
562.29	2558.02
562.64	2547.52
563.00	2537.40
563.35	2527.16
563.71	2516.01
564.06	2504.25
564.42	2493.57
564.77	2482.51
565.12	2471.58
565.48	2460.36
565.83	2449.77
566.19	2439.18
566.54	2428.30
566.89	2416.47
567.25	2404.61
567.60	2393.59
567.96	2382.19
568.31	2369.36
568.66	2356.40
569.02	2344.53
569.37	2332.43
569.72	2320.86
570.08	2308.57
570.43	2295.73
570.78	2282.60
571.14	2269.22
571.49	2256.71
571.84	2244.46
572.20	2230.88
572.55	2217.71
572.90	2204.46
573.26	2190.34
573.61	2175.68
573.96	2161.24
574.31	2147.19
574.67	2133.34
575.02	2119.05
575.37	2104.32
575.72	2089.90
576.08	2076.09
576.43	2061.26
576.78	2046.49
577.13	2032.55
577.49	2018.61
577.84	2005.05
578.19	1990.64
578.54	1975.89
578.90	1960.60
579.25	1945.08
579.60	1930.98
579.95	1916.46
580.30	1901.98
580.66	1887.82
581.01	1873.24
581.36	1859.05
581.71	1845.38
582.06	1831.26
582.42	1817.17
582.77	1803.88
583.12	1790.26
583.47	1776.65
583.82	1763.16
584.17	1749.57
584.53	1735.78
584.88	1722.03
585.23	1707.94
585.58	1694.36
585.93	1681.25
586.28	1668.95
586.63	1656.48
586.98	1643.29
587.34	1630.36
587.69	1616.91
588.04	1603.67
588.39	1591.13
588.74	1578.15
589.09	1564.88
589.44	1551.57
589.79	1538.87
590.14	1525.97
590.49	1513.32
590.84	1500.56
591.19	1488.44
591.54	1475.79
591.89	1463.02
592.25	1450.62
592.60	1437.78
592.95	1425.52
593.30	1413.52
593.65	1401.31
594.00	1389.29
594.35	1378.11
594.70	1366.09
595.05	1355.16
595.40	1344.10
595.75	1332.42
596.10	1321.51
596.45	1310.81
596.80	1300.58
597.15	1290.14
597.50	1279.72
597.85	1269.46
598.19	1259.40
598.54	1248.74
598.89	1238.84
599.24	1229.26
599.59	1219.43
599.94	1210.62
600.29	1201.69
600.64	1192.55
600.99	1182.83
601.34	1173.58
601.69	1163.73
602.04	1154.95
602.39	1145.99
602.74	1137.26
603.08	1128.80
603.43	1119.83
603.78	1110.78
604.13	1101.87
604.48	1092.88
604.83	1084.16
605.18	1075.36
605.53	1066.50
605.87	1057.77
606.22	1049.31
606.57	1040.57
606.92	1031.91
607.27	1023.15
607.62	1014.47
607.96	1005.96
608.31	998.43
608.66	990.48
609.01	982.96
609.36	975.38
609.70	967.59
610.05	959.62
610.40	952.01
610.75	944.54
611.10	937.33
611.44	929.73
611.79	922.44
612.14	914.79
612.49	907.26
612.83	900.21
613.18	893.21
613.53	886.02
613.88	878.91
614.22	872.38
614.57	865.69
614.92	858.98
615.27	852.32
615.61	845.51
615.96	838.93
616.31	832.27
616.65	825.51
617.00	818.99
617.35	812.62
617.70	806.27
618.04	799.97
618.39	793.70
618.74	787.77
619.08	781.64
619.43	775.79
619.78	769.96
620.12	763.94
620.47	758.08
620.82	752.29
621.16	746.83
621.51	741.02
621.85	735.21
622.20	729.42
622.55	723.83
622.89	718.18
623.24	712.58
623.59	707.06
623.93	701.58
624.28	696.25
624.62	690.91
624.97	685.55
625.32	680.31
625.66	674.92
626.01	669.55
626.35	664.31
626.70	659.10
627.04	654.04
627.39	649.06
627.73	644.20
628.08	639.55
628.43	634.80
628.77	630.10
629.12	625.53
629.46	621.14
629.81	616.58
630.15	611.90
630.50	607.37
630.84	603.03
631.19	598.86
631.53	594.75
631.88	590.51
632.22	586.38
632.57	582.48
632.91	578.53
633.26	574.68
633.60	570.88
633.95	567.18
634.29	563.37
634.64	559.50
634.98	555.55
635.32	551.76
635.67	548.10
636.01	544.39
636.36	540.71
636.70	537.18
637.05	533.65
637.39	530.31
637.73	526.86
638.08	523.45
638.42	520.03
638.77	516.47
639.11	512.92
639.45	509.41
639.80	505.87
640.14	502.53
640.49	499.14
640.83	495.66
641.17	492.21
641.52	488.93
641.86	485.64
642.20	482.51
642.55	479.24
642.89	476.05
643.23	473.05
643.58	470.27
643.92	467.38
644.26	464.52
644.61	461.64
644.95	458.78
645.29	455.88
645.64	452.94
645.98	450.14
646.32	447.50
646.66	444.86
647.01	442.21
647.35	439.60
647.69	436.88
648.04	434.31
648.38	431.78
648.72	429.21
649.06	426.70
649.41	424.22
649.75	421.73
650.09	419.28
650.43	416.83
650.78	414.36
651.12	411.88
651.46	409.50
651.80	407.22
652.14	405.01
652.49	402.80
652.83	400.65
653.17	398.48
653.51	396.39
653.85	394.36
654.20	392.27
654.54	390.10
654.88	388.12
655.22	386.20
655.56	384.24
655.90	382.37
656.25	380.52
656.59	378.67
656.93	376.91
657.27	375.19
657.61	373.37
657.95	371.62
658.29	369.87
658.64	368.16
658.98	366.42
659.32	364.70
659.66	363.10
660.00	361.50
660.34	359.94
660.68	358.31
661.02	356.63
661.36	355.05
661.70	353.56
662.05	352.04
662.39	350.50
662.73	349.05
663.07	347.63
663.41	346.23
663.75	344.85
664.09	343.48
664.43	342.02
664.77	340.67
665.11	339.26
665.45	337.92
665.79	336.58
666.13	335.23
666.47	333.86
666.81	332.47
667.15	331.05
667.49	329.74
667.83	328.48
668.17	327.25
668.51	326.04
668.85	324.85
669.19	323.72
669.53	322.53
669.87	321.32
670.21	320.13
670.55	318.96
670.89	317.87
671.23	316.74
671.57	315.63
671.91	314.57
672.25	313.57
672.58	312.56
672.92	311.52
673.26	310.55
673.60	309.59
673.94	308.61
674.28	307.69
674.62	306.77
674.96	305.80
675.30	304.90
675.64	303.97
675.97	303.06
676.31	302.11
676.65	301.19
676.99	300.33
677.33	299.41
677.67	298.54
678.01	297.60
678.34	296.72
678.68	295.91
679.02	295.06
679.36	294.22
679.70	293.38
680.04	292.58
680.37	291.76
680.71	290.98
681.05	290.23
681.39	289.46
681.73	288.64
682.06	287.86
682.40	287.10
682.74	286.36
683.08	285.65
683.42	284.92
683.75	284.26
684.09	283.52
684.43	282.83
684.77	282.12
685.10	281.46
685.44	280.79
685.78	280.10
686.12	279.45
686.45	278.79
686.79	278.13
687.13	277.50
687.46	276.83
687.80	276.19
688.14	275.51
688.48	274.89
688.81	274.27
689.15	273.70
689.49	273.09
689.82	272.49
690.16	271.84
690.50	271.25
690.83	270.65
691.17	270.08
691.51	269.52
691.84	268.98
692.18	268.40
692.52	267.82
692.85	267.26
693.19	266.75
693.52	266.21
693.86	265.68
694.20	265.15
694.53	264.65
694.87	264.14
695.21	263.65
695.54	263.16
695.88	262.66
696.21	262.13
696.55	261.65
696.88	261.16
697.22	260.69
697.56	260.22
697.89	259.70
698.23	259.22
698.56	258.72
698.90	258.28
699.23	257.81
699.57	257.38
699.90	256.95
700.24	256.48
700.58	256.05
700.91	255.65
701.25	255.33
701.58	254.96
701.92	254.59
702.25	254.19
702.59	253.78
702.92	253.39
703.26	253.01
703.59	252.63
703.93	252.34
704.26	251.99
704.60	251.63
704.93	251.28
705.26	250.93
705.60	250.62
705.93	250.25
706.27	249.95
706.60	249.64
706.94	249.34
707.27	248.98
707.61	248.64
707.94	248.29
708.27	247.87
708.61	247.51
708.94	247.17
709.28	246.85
709.61	246.55
709.94	246.26
710.28	245.97
710.61	245.70
710.95	245.33
711.28	245.11
711.61	244.83
711.95	244.59
712.28	244.31
712.61	244.02
712.95	243.82
713.28	243.60
713.61	243.33
713.95	243.05
714.28	242.82
714.61	242.57
714.95	242.33
715.28	242.09
715.61	241.85
715.95	241.63
716.28	241.40
716.61	241.19
716.95	240.96
717.28	240.75
717.61	240.52
717.94	240.30
718.28	240.01
718.61	239.80
718.94	239.57
719.27	239.37
719.61	239.18
719.94	238.96
720.27	238.71
720.60	238.51
720.94	238.32
721.27	238.14
721.60	237.98
721.93	237.80
722.27	237.65
722.60	237.49
722.93	237.30
723.26	237.13
723.59	236.94
723.93	236.79
724.26	236.63
724.59	236.47
724.92	236.32
725.25	236.19
725.59	236.04
725.92	235.91
726.25	235.76
726.58	235.61
726.91	235.45
727.24	235.32
727.57	235.17
727.91	235.01
728.24	234.88
728.57	234.73
728.90	234.60
729.23	234.43
729.56	234.34
729.89	234.21
730.22	234.06
730.55	233.93
730.89	233.80
731.22	233.66
731.55	233.53
731.88	233.40
732.21	233.26
732.54	233.13
732.87	233.02
733.20	232.91
733.53	232.80
733.86	232.69
734.19	232.57
734.52	232.47
734.85	232.44
735.18	232.30
735.51	232.23
735.84	232.12
736.17	232.04
736.50	231.88
736.83	231.90
737.16	231.81
737.49	231.72
737.82	231.62
738.15	231.54
738.48	231.45
738.81	231.35
739.14	231.24
739.47	231.14
739.80	231.04
740.13	230.95
740.46	230.84
740.79	230.73
741.12	230.64
741.45	230.53
741.78	230.39
742.11	230.33
742.44	230.22
742.77	230.14
743.10	230.04
743.43	229.95
743.75	229.76
744.08	229.83
744.41	229.74
744.74	229.65
745.07	229.55
745.40	229.49
745.73	229.45
746.06	229.38
746.39	229.32
746.71	229.24
747.04	229.16
747.37	229.09
747.70	229.03
748.03	228.96
748.36	228.91
748.68	228.83
749.01	228.74
749.34	228.67
749.67	228.60
750.00	228.55
750.33	228.57
750.65	228.51
750.98	228.30
751.31	228.24
751.64	228.18
751.97	228.18
752.29	228.11
752.62	227.99
752.95	227.92
753.28	227.84
753.60	227.78
753.93	227.74
754.26	227.68
754.59	227.59
754.91	227.51
755.24	227.44
755.57	227.43
755.90	227.37
756.22	227.30
756.55	227.22
756.88	227.14
757.20	227.01
757.53	226.93
757.86	226.87
758.19	226.83
758.51	226.77
758.84	226.67
759.17	226.60
759.49	226.56
759.82	226.57
760.15	226.53
760.47	226.48
760.80	226.41
761.13	226.38
761.45	226.33
761.78	226.29
762.11	226.25
762.43	226.15
762.76	226.11
763.08	226.08
763.41	226.05
763.74	226.01
764.06	225.97
764.39	225.94
764.71	225.89
765.04	225.84
765.37	225.79
765.69	225.75
766.02	225.71
766.34	225.66
766.67	225.58
767.00	225.56
767.32	225.58
767.65	225.61
767.97	225.56
768.30	225.53
768.62	225.49
768.95	225.44
769.27	225.40
769.60	225.38
769.92	225.33
770.25	225.28
770.57	225.22
770.90	225.18
771.22	225.14
771.55	225.11
771.87	225.09
772.20	225.06
772.52	225.12
772.85	225.21
773.17	225.18
773.50	225.15
773.82	225.10
774.15	225.02
774.47	224.93
774.80	224.89
775.12	224.86
775.45	224.83
775.77	224.81
776.09	224.79
776.42	224.76
776.74	224.77
777.07	224.74
777.39	224.72
777.72	224.69
778.04	224.69
778.36	224.65
778.69	224.63
779.01	224.61
779.33	224.49
779.66	224.35
779.98	224.32
780.31	224.30
780.63	224.32
780.95	224.31
781.28	224.29
781.60	224.27
781.92	224.24
782.25	224.22
782.57	224.20
782.89	224.17
783.22	224.14
783.54	224.09
783.86	224.08
784.19	224.06
784.51	224.07
784.83	224.04
785.16	224.01
785.48	223.99
785.80	223.98
786.12	223.97
786.45	223.95
786.77	223.94
787.09	223.92
787.42	223.86
787.74	223.85
788.06	223.84
788.38	223.81
788.71	223.79
789.03	223.78
789.35	223.78
789.67	223.75
789.99	223.75
790.32	223.72
790.64	223.72
790.96	223.80
791.28	223.75
791.61	223.73
791.93	223.72
792.25	223.70
792.57	223.76
792.89	223.73
793.21	223.72
793.54	223.69
793.86	223.67
794.18	223.66
794.50	223.63
794.82	223.61
795.14	223.62
795.47	223.63
795.79	223.61
796.11	223.58
796.43	223.56
796.75	223.55
797.07	223.55
797.39	223.53
797.71	223.43
798.04	223.42
798.36	223.42
798.68	223.41
799.00	223.41
799.32	223.35
799.64	223.36
799.96	223.34
800.28	223.36
800.60	223.34
800.92	223.34
801.24	223.32
801.56	223.32
801.89	223.30
802.21	223.29
802.53	223.26
802.85	223.28
803.17	223.32
803.49	223.29
803.81	223.27
804.13	223.25
804.45	223.23
804.77	223.22
805.09	223.21
805.41	223.20
805.73	223.17
806.05	223.13
806.37	223.12
806.69	223.09
807.01	223.08
807.33	223.08
807.65	223.03
807.97	223.07
808.28	223.05
808.60	223.04
808.92	223.01
809.24	223.07
809.56	223.05
809.88	223.00
810.20	223.00
810.52	223.01
810.84	222.99
811.16	222.97
811.48	222.96
811.80	222.99
812.12	222.97
812.43	222.99
812.75	222.99
813.07	222.97
813.39	222.97
813.71	222.95
814.03	222.93
814.35	222.94
814.67	222.88
814.98	222.87
815.30	222.87
815.62	222.85
815.94	222.77
816.26	222.78
816.58	222.76
816.89	222.76
817.21	222.73
817.53	222.74
817.85	222.74
818.17	222.73
818.48	222.68
818.80	222.70
819.12	222.67
819.44	222.66
819.76	222.64
820.07	222.63
820.39	222.63
820.71	222.64
821.03	222.63
821.34	222.62
821.66	222.63
821.98	222.64
822.30	222.63
822.61	222.69
822.93	222.66
823.25	222.66
823.57	222.64
823.88	222.65
824.20	222.64
824.52	222.66
824.83	222.65
825.15	222.63
825.47	222.62
825.79	222.63
826.10	222.62
826.42	222.61
826.74	222.61
827.05	222.61
827.37	222.61
827.69	222.59
828.00	222.60
828.32	222.59
828.64	222.57
828.95	222.63
829.27	222.59
829.58	222.59
829.90	222.61
830.22	222.61
830.53	222.59
830.85	222.58
831.17	222.55
831.48	222.55
831.80	222.55
832.11	222.55
832.43	222.53
832.75	222.52
833.06	222.58
833.38	222.55
833.69	222.54
834.01	222.54
834.32	222.54
834.64	222.52
834.96	222.52
835.27	222.51
835.59	222.48
835.90	222.46
836.22	222.45
836.53	222.43
836.85	222.41
837.16	222.52
837.48	222.52
837.79	222.55
838.11	222.56
838.42	222.55
838.74	222.56
839.05	222.55
839.37	222.55
839.68	222.48
840.00	222.48
840.31	222.49
840.63	222.48
840.94	222.47
841.26	222.46
841.57	222.46
841.88	222.46
842.20	222.45
842.51	222.43
842.83	222.43
843.14	222.52
843.46	222.52
843.77	222.45
844.08	222.45
844.40	222.41
844.71	222.40
845.03	222.39
845.34	222.38
845.65	222.37
845.97	222.37
846.28	222.37
846.60	222.38
846.91	222.36
847.22	222.36
847.54	222.38
847.85	222.39
848.16	222.38
848.48	222.36
848.79	222.40
849.10	222.41
849.42	222.41
849.73	222.31
850.04	222.31
850.36	222.27
850.67	222.29
850.98	222.29
851.30	222.30
851.61	222.30
851.92	222.29
852.23	222.33
852.55	222.33
852.86	222.33
853.17	222.34
853.49	222.36
853.80	222.38
854.11	222.38
854.42	222.39
854.74	222.38
855.05	222.38
855.36	222.32
855.67	222.32
855.99	222.32
856.30	222.45
856.61	222.45
856.92	222.45
857.23	222.45
857.55	222.43
857.86	222.43
858.17	222.44
858.48	222.42
858.79	222.40
859.11	222.41
859.42	222.40
859.73	222.38
860.04	222.37
860.35	222.34
860.66	222.31
860.98	222.31
861.29	222.32
861.60	222.32
861.91	222.34
862.22	222.33
862.53	222.31
862.84	222.19
863.16	222.21
863.47	222.19
863.78	222.18
864.09	222.19
864.40	222.19
864.71	222.19
865.02	222.20
865.33	222.19
865.64	222.17
865.95	222.17
866.27	222.24
866.58	222.23
866.89	222.24
867.20	222.24
867.51	222.22
867.82	222.21
868.13	222.25
868.44	222.22
868.75	222.24
869.06	222.24
869.37	222.25
869.68	222.23
869.99	222.25
870.30	222.26
870.61	222.27
870.92	222.25
871.23	222.24
871.54	222.25
871.85	222.28
872.16	222.30
872.47	222.29
872.78	222.22
873.09	222.24
873.40	222.22
873.71	222.23
874.02	222.24
874.33	222.23
874.64	222.20
874.95	222.22
875.26	222.20
875.56	222.19
875.87	222.18
876.18	222.18
876.49	222.28
876.80	222.26
877.11	222.24
877.42	222.25
877.73	222.25
878.04	222.23
878.35	222.23
878.66	222.23
878.96	222.23
879.27	222.22
879.58	222.22
879.89	222.21
880.20	222.24
880.51	222.24
880.82	222.24
881.12	222.25
881.43	222.22
881.74	222.21
882.05	222.21
882.36	222.21
882.67	222.22
882.97	222.11
883.28	222.10
883.59	222.10
883.90	222.11
884.21	222.12
884.51	222.11
884.82	222.10
885.13	222.09
885.44	222.09
885.74	222.09
886.05	222.08
886.36	222.09
886.67	222.05
886.98	222.10
887.28	222.10
887.59	222.10
887.90	222.11
888.20	222.10
888.51	222.12
888.82	222.10
889.13	222.11
889.43	222.20
889.74	222.19
890.05	222.19
890.35	222.18
890.66	222.16
890.97	222.15
891.28	222.13
891.58	222.13
891.89	222.13
892.20	222.12
892.50	222.11
892.81	222.11
893.12	222.10
893.42	222.05
893.73	222.05
894.04	222.05
894.34	222.06
894.65	222.06
894.95	222.05
895.26	222.06
895.57	222.09
895.87	221.99
896.18	222.01
896.48	222.01
896.79	222.01
897.10	222.03
897.40	222.04
897.71	222.05
898.01	222.04
898.32	222.05
898.63	222.05
898.93	222.05
899.24	222.06
899.54	222.05
899.85	222.05
900.15	222.04
900.46	222.04
900.76	222.04
901.07	222.04
901.38	222.03
901.68	222.04
901.99	221.99
902.29	222.00
902.60	221.99
902.90	221.98
903.21	221.97
903.51	221.97
903.82	221.98
904.12	221.98
904.43	221.99
904.73	221.98
905.03	221.99
905.34	222.09
905.64	222.07
905.95	222.08
906.25	222.08
906.56	222.07
906.86	222.07
907.17	222.06
907.47	222.06
907.77	222.05
908.08	222.03
908.38	222.04
908.69	222.04
908.99	222.06
909.30	222.07
909.60	222.07
909.90	222.07
910.21	222.04
910.51	222.02
910.81	222.02
911.12	222.02
911.42	222.02
911.73	221.91
912.03	221.93
912.33	221.94
912.64	221.93
912.94	221.92
913.24	221.91
913.55	221.90
913.85	221.90
914.15	221.92
914.46	221.94
914.76	221.92
915.06	221.92
915.37	221.90
915.67	221.89
915.97	221.89
916.27	221.87
916.58	221.87
916.88	221.87
917.18	221.87
917.49	221.93
917.79	221.93
918.09	221.95
918.39	221.97
918.70	221.96
919.00	221.97
919.30	222.02
919.60	222.01
919.91	222.00
920.21	222.01
920.51	221.98
920.81	221.98
921.12	221.99
921.42	221.99
921.72	222.00
922.02	222.01
922.32	222.02
922.63	222.02
922.93	222.08
923.23	222.09
923.53	222.08
923.83	222.01
924.13	222.02
924.44	222.01
924.74	222.03
925.04	222.05
925.34	222.05
925.64	222.00
925.94	222.01
926.24	222.06
926.55	222.05
926.85	222.07
927.15	222.07
927.45	222.06
927.75	222.06
928.05	222.06
928.35	222.05
928.65	222.06
928.95	222.07
929.26	222.02
929.56	222.04
929.86	222.05
930.16	222.04
930.46	222.04
930.76	222.04
931.06	221.99
931.36	221.97
931.66	221.98
931.96	222.00
932.26	222.00
932.56	221.96
932.86	221.97
933.16	221.97
933.46	221.96
933.76	221.94
934.06	221.97
934.36	222.00
934.66	221.99
934.96	221.97
935.26	221.98
935.56	221.99
935.86	221.97
936.16	221.95
936.46	221.95
936.76	221.94
937.06	221.92
937.36	221.93
937.66	221.94
937.96	221.93
938.26	221.91
938.56	221.90
938.86	221.90
939.16	221.92
939.46	221.93
939.76	221.94
940.06	221.93
940.35	221.91
940.65	221.86
940.95	221.87
941.25	221.85
941.55	221.83
941.85	221.82
942.15	221.85
942.45	221.87
942.75	221.87
943.04	221.87
943.34	221.89
943.64	221.88
943.94	221.86
944.24	221.86
944.54	221.86
944.84	221.86
945.13	221.84
945.43	221.82
945.73	221.82
946.03	221.81
946.33	221.80
946.62	221.79
946.92	221.79
947.22	221.80
947.52	221.81
947.82	221.82
948.11	221.81
948.41	221.79
948.71	221.76
949.01	221.77
949.31	221.76
949.60	221.75
949.90	221.77
950.20	221.77
950.50	221.76
950.79	221.76
951.09	221.78
951.39	221.77
951.69	221.76
951.98	221.78
952.28	221.78
952.58	221.78
952.87	221.78
953.17	221.80
953.47	221.78
953.76	221.78
954.06	221.76
954.36	221.75
954.66	221.75
954.95	221.77
955.25	221.78
955.55	221.79
955.84	221.77
956.14	221.78
956.44	221.78
956.73	221.77
957.03	221.77
957.32	221.77
957.62	221.76
957.92	221.79
958.21	221.78
958.51	221.90
958.81	221.91
959.10	221.92
959.40	221.94
959.69	221.95
959.99	221.96
960.29	221.96
960.58	221.96
960.88	222.00
961.17	221.98
961.47	221.99
961.76	221.98
962.06	222.00
962.36	221.99
962.65	222.00
962.95	222.01
963.24	222.00
963.54	222.00
963.83	222.01
964.13	222.00
964.42	221.99
964.72	221.91
965.01	221.90
965.31	221.90
965.60	221.87
965.90	221.93
966.19	221.90
966.49	221.91
966.78	221.91
967.08	221.90
967.37	221.90
967.67	221.88
967.96	221.90
968.26	221.89
968.55	221.91
968.85	221.90
969.14	221.90
969.43	221.90
969.73	221.89
970.02	221.88
970.32	221.88
970.61	221.86
970.91	221.83
971.20	221.82
971.49	221.81
971.79	221.82
972.08	221.75
972.38	221.76
972.67	221.75
972.96	221.77
973.26	221.75
973.55	221.78
973.85	221.78
974.14	221.77
974.43	221.77
974.73	221.75
975.02	221.75
975.31	221.75
975.61	221.74
975.90	221.74
976.19	221.73
976.49	221.74
976.78	221.74
977.07	221.74
977.37	221.75
977.66	221.76
977.95	221.75
978.24	221.76
978.54	221.78
978.83	221.77
979.12	221.77
979.42	221.77
979.71	221.75
980.00	221.75
980.29	221.75
980.59	221.73
980.88	221.76
981.17	221.75
981.46	221.75
981.76	221.76
982.05	221.79
982.34	221.79
982.63	221.79
982.93	221.80
983.22	221.82
983.51	221.82
983.80	221.84
984.09	221.85
984.39	221.84
984.68	221.83
984.97	221.83
985.26	221.82
985.55	221.83
985.85	221.81
986.14	221.83
986.43	221.84
986.72	221.84
987.01	221.80
987.30	221.80
987.59	221.79
987.89	221.80
988.18	221.77
988.47	221.77
988.76	221.75
989.05	221.74
989.34	221.72
989.63	221.75
989.92	221.73
990.22	221.71
990.51	221.71
990.80	221.71
991.09	221.72
991.38	221.73
991.67	221.72
991.96	221.71
992.25	221.71
992.54	221.69
992.83	221.69
993.12	221.69
993.41	221.71
993.70	221.75
993.99	221.76
994.28	221.78
994.58	221.79
994.87	221.78
995.16	221.78
995.45	221.77
995.74	221.73
996.03	221.75
996.32	221.77
996.61	221.79
996.90	221.79
997.19	221.78
997.48	221.78
997.77	221.77
998.06	221.78
998.34	221.76
998.63	221.76
998.92	221.77
999.21	221.79
999.50	221.79
999.79	221.75
1000.08	221.75
1000.37	221.74
1000.66	221.73
1000.95	221.76
1001.24	221.77
1001.53	221.78
1001.82	221.78
1002.11	221.75
1002.40	221.76
1002.68	221.78
1002.97	221.85
1003.26	221.83
1003.55	221.82
1003.84	221.83
1004.13	221.86
1004.42	221.86
1004.71	221.86
1004.99	221.85
1005.28	221.87
1005.57	221.86
1005.86	221.85
1006.15	221.85
1006.44	221.83
1006.72	221.84
1007.01	221.82
1007.30	221.82
1007.59	221.81
1007.88	221.81
1008.17	221.81
1008.45	221.79
1008.74	221.75
1009.03	221.70
1009.32	221.70
1009.60	221.70
1009.89	221.69
1010.18	221.65
1010.47	221.65
1010.76	221.65
1011.04	221.64
1011.33	221.64
1011.62	221.64
1011.91	221.65
1012.19	221.66
1012.48	221.66
1012.77	221.65
1013.05	221.69
1013.34	221.69
1013.63	221.69
1013.92	221.70
1014.20	221.69
1014.49	221.70
1014.78	221.71
1015.06	221.68
1015.35	221.67
1015.64	221.69
1015.92	221.70
1016.21	221.71
1016.50	221.71
1016.78	221.72
1017.07	221.73
1017.36	221.71
1017.64	221.69
1017.93	221.70
1018.22	221.69
1018.50	221.69
1018.79	221.69
1019.08	221.66
1019.36	221.67
1019.65	221.66
1019.93	221.68
1020.22	221.70
1020.51	221.75
1020.79	221.74
1021.08	221.56
1021.36	221.52
1021.65	221.72
1021.94	221.69
1022.22	221.79
1022.51	221.49
1022.79	222.18
1023.08	221.84
1023.36	222.92
1023.65	221.48
>>>>>End Processed Spectral Data<<<<<
