SpectraSuite Data File
++++++++++++++++++++++++++++++++++++
Date: Wed Sep 30 18:28:30 EDT 2015
User: lab3
Dark Spectrum Present: No
Reference Spectrum Present: No
Number of Sampled Component Spectra: 1
Spectrometers: USB2E7196
Integration Time (usec): 36000 (USB2E7196)
Spectra Averaged: 3000 (USB2E7196)
Boxcar Smoothing: 10 (USB2E7196)
Correct for Electrical Dark: No (USB2E7196)
Strobe/Lamp Enabled: No (USB2E7196)
Correct for Detector Non-linearity: No (USB2E7196)
Correct for Stray Light: No (USB2E7196)
Number of Pixels in Processed Spectrum: 2048
>>>>>Begin Processed Spectral Data<<<<<
339.09	0.00
339.48	210.53
339.86	212.06
340.24	213.42
340.63	214.95
341.01	217.83
341.39	217.52
341.78	218.94
342.16	220.14
342.54	220.62
342.93	209.16
343.31	219.73
343.69	220.27
344.07	220.72
344.46	221.15
344.84	221.53
345.22	221.77
345.60	222.03
345.99	222.21
346.37	222.34
346.75	222.45
347.13	222.53
347.52	222.59
347.90	222.67
348.28	222.71
348.66	222.76
349.05	222.76
349.43	222.81
349.81	222.87
350.19	222.93
350.57	222.99
350.96	223.06
351.34	223.15
351.72	223.25
352.10	223.36
352.48	223.43
352.87	223.49
353.25	223.55
353.63	223.61
354.01	223.68
354.39	223.76
354.77	223.83
355.15	223.93
355.54	223.98
355.92	224.01
356.30	224.09
356.68	224.22
357.06	224.29
357.44	224.34
357.82	224.40
358.20	224.51
358.58	224.56
358.97	224.63
359.35	224.71
359.73	224.78
360.11	224.83
360.49	224.88
360.87	224.93
361.25	224.99
361.63	225.07
362.01	225.12
362.39	225.15
362.77	225.20
363.15	225.22
363.53	225.25
363.91	225.29
364.29	225.31
364.67	225.24
365.05	225.26
365.43	225.29
365.81	225.32
366.19	225.33
366.57	225.39
366.95	225.38
367.33	225.35
367.71	225.34
368.09	225.36
368.47	225.35
368.85	225.34
369.23	225.34
369.61	225.29
369.99	225.30
370.37	225.29
370.75	225.35
371.13	225.32
371.51	225.28
371.89	225.26
372.27	225.23
372.65	225.20
373.03	225.16
373.41	225.12
373.78	225.07
374.16	224.98
374.54	224.90
374.92	224.84
375.30	224.81
375.68	224.75
376.06	224.70
376.44	224.65
376.82	224.60
377.19	224.56
377.57	224.50
377.95	224.42
378.33	224.36
378.71	224.22
379.09	224.17
379.47	224.14
379.84	224.08
380.22	224.01
380.60	223.95
380.98	223.91
381.36	223.86
381.73	223.79
382.11	223.76
382.49	223.73
382.87	223.66
383.25	223.61
383.62	223.69
384.00	223.62
384.38	223.59
384.76	223.57
385.13	223.55
385.51	223.52
385.89	223.46
386.27	223.43
386.64	223.41
387.02	223.36
387.40	223.32
387.78	223.28
388.15	223.26
388.53	223.23
388.91	223.20
389.29	223.16
389.66	223.15
390.04	223.11
390.42	223.10
390.79	223.09
391.17	223.07
391.55	222.94
391.92	222.92
392.30	222.92
392.68	222.88
393.05	222.85
393.43	222.85
393.81	222.85
394.18	222.83
394.56	222.83
394.94	222.86
395.31	222.86
395.69	222.90
396.06	222.91
396.44	222.93
396.82	222.94
397.19	223.01
397.57	223.03
397.95	223.07
398.32	223.07
398.70	223.11
399.07	223.17
399.45	223.20
399.82	223.24
400.20	223.28
400.58	223.34
400.95	223.35
401.33	223.43
401.70	223.56
402.08	223.65
402.45	223.73
402.83	223.83
403.20	223.92
403.58	224.00
403.95	224.12
404.33	224.25
404.71	224.38
405.08	224.56
405.46	224.70
405.83	224.86
406.21	225.02
406.58	225.21
406.96	225.39
407.33	225.61
407.70	225.84
408.08	226.16
408.45	226.44
408.83	226.75
409.20	227.02
409.58	227.26
409.95	227.60
410.33	227.97
410.70	228.31
411.08	228.72
411.45	229.14
411.82	229.58
412.20	230.08
412.57	230.67
412.95	231.13
413.32	231.73
413.69	232.34
414.07	233.00
414.44	233.71
414.82	234.44
415.19	235.29
415.56	236.16
415.94	237.05
416.31	238.06
416.68	239.06
417.06	240.24
417.43	241.34
417.81	242.62
418.18	243.90
418.55	245.31
418.93	246.78
419.30	248.32
419.67	249.94
420.04	251.62
420.42	253.37
420.79	255.40
421.16	257.45
421.54	259.53
421.91	261.70
422.28	263.97
422.66	266.40
423.03	268.73
423.40	271.17
423.77	273.79
424.15	276.47
424.52	279.26
424.89	282.27
425.26	285.28
425.64	288.07
426.01	291.20
426.38	294.41
426.75	297.72
427.13	301.11
427.50	304.66
427.87	308.34
428.24	312.06
428.61	315.61
428.99	319.44
429.36	323.65
429.73	327.68
430.10	331.70
430.47	335.80
430.85	340.02
431.22	344.51
431.59	349.14
431.96	353.63
432.33	358.60
432.70	363.33
433.08	368.92
433.45	374.18
433.82	379.35
434.19	385.14
434.56	390.82
434.93	396.29
435.30	401.71
435.68	407.80
436.05	413.76
436.42	419.72
436.79	425.16
437.16	431.01
437.53	437.29
437.90	443.55
438.27	449.67
438.64	456.30
439.01	462.32
439.38	467.78
439.75	473.06
440.13	479.10
440.50	484.83
440.87	489.35
441.24	494.32
441.61	499.81
441.98	503.83
442.35	508.60
442.72	513.49
443.09	518.18
443.46	521.20
443.83	523.44
444.20	525.34
444.57	528.08
444.94	529.72
445.31	531.40
445.68	532.91
446.05	534.04
446.42	533.88
446.79	533.62
447.16	533.41
447.53	533.27
447.90	531.51
448.27	529.85
448.64	527.24
449.01	525.53
449.37	521.75
449.74	518.32
450.11	513.92
450.48	509.07
450.85	504.17
451.22	500.01
451.59	495.94
451.96	492.24
452.33	486.84
452.70	482.02
453.07	476.13
453.43	470.23
453.80	464.53
454.17	459.05
454.54	453.97
454.91	448.24
455.28	442.82
455.65	437.72
456.02	432.30
456.38	427.93
456.75	422.25
457.12	417.71
457.49	413.11
457.86	408.71
458.23	404.88
458.59	400.64
458.96	396.26
459.33	392.43
459.70	388.52
460.07	385.52
460.43	382.01
460.80	378.72
461.17	375.81
461.54	372.69
461.91	369.76
462.27	366.78
462.64	364.34
463.01	361.54
463.38	358.71
463.74	356.15
464.11	353.86
464.48	351.80
464.85	349.60
465.21	347.91
465.58	346.05
465.95	343.89
466.32	342.15
466.68	340.47
467.05	338.76
467.42	337.12
467.78	335.34
468.15	333.71
468.52	332.49
468.88	330.91
469.25	329.44
469.62	328.28
469.98	327.01
470.35	325.90
470.72	324.88
471.08	323.86
471.45	323.01
471.82	322.08
472.18	321.10
472.55	320.46
472.92	319.68
473.28	319.06
473.65	318.43
474.02	317.84
474.38	317.35
474.75	317.07
475.11	316.66
475.48	316.50
475.85	316.33
476.21	316.26
476.58	316.26
476.94	316.44
477.31	316.55
477.67	316.69
478.04	316.93
478.41	317.25
478.77	317.69
479.14	318.01
479.50	318.55
479.87	319.22
480.23	319.89
480.60	320.54
480.96	321.21
481.33	322.14
481.69	323.07
482.06	323.99
482.42	324.88
482.79	325.93
483.15	327.13
483.52	328.49
483.88	329.80
484.25	331.19
484.61	332.65
484.98	334.22
485.34	335.97
485.71	337.78
486.07	339.72
486.44	341.65
486.80	343.79
487.17	345.99
487.53	348.40
487.90	350.91
488.26	353.63
488.62	356.49
488.99	359.37
489.35	362.36
489.72	365.60
490.08	368.99
490.44	372.48
490.81	376.14
491.17	379.88
491.54	383.88
491.90	387.98
492.26	392.39
492.63	397.03
492.99	401.88
493.36	406.85
493.72	412.10
494.08	417.46
494.45	423.14
494.81	429.02
495.17	435.02
495.54	441.35
495.90	448.00
496.26	454.79
496.63	461.80
496.99	469.09
497.35	476.76
497.72	484.69
498.08	492.83
498.44	501.21
498.80	510.12
499.17	519.25
499.53	528.70
499.89	538.38
500.26	548.25
500.62	558.39
500.98	569.18
501.34	580.10
501.71	591.55
502.07	603.22
502.43	615.28
502.79	627.70
503.16	640.53
503.52	653.54
503.88	666.89
504.24	680.68
504.60	694.76
504.97	709.20
505.33	724.04
505.69	739.73
506.05	755.65
506.41	771.62
506.78	787.92
507.14	804.70
507.50	822.06
507.86	839.76
508.22	857.72
508.59	875.71
508.95	894.44
509.31	913.61
509.67	933.46
510.03	953.55
510.39	973.84
510.75	994.36
511.12	1015.15
511.48	1036.32
511.84	1057.58
512.20	1079.15
512.56	1101.85
512.92	1124.81
513.28	1147.49
513.64	1170.44
514.00	1193.83
514.37	1217.51
514.73	1241.19
515.09	1264.76
515.45	1288.74
515.81	1313.27
516.17	1337.92
516.53	1362.24
516.89	1386.66
517.25	1411.24
517.61	1436.02
517.97	1461.04
518.33	1485.83
518.69	1510.86
519.05	1536.14
519.41	1561.58
519.77	1587.32
520.13	1612.26
520.49	1637.36
520.85	1662.67
521.21	1687.91
521.57	1713.73
521.93	1738.88
522.29	1764.87
522.65	1790.58
523.01	1816.15
523.37	1841.03
523.73	1866.49
524.09	1892.16
524.45	1917.79
524.81	1942.98
525.17	1968.07
525.53	1992.72
525.89	2017.35
526.25	2042.14
526.61	2066.38
526.97	2090.93
527.33	2115.41
527.68	2139.81
528.04	2163.38
528.40	2186.81
528.76	2210.46
529.12	2233.07
529.48	2256.18
529.84	2277.41
530.20	2299.23
530.56	2320.73
530.91	2342.29
531.27	2363.41
531.63	2383.92
531.99	2403.80
532.35	2423.41
532.71	2443.21
533.07	2463.64
533.42	2482.46
533.78	2501.77
534.14	2520.92
534.50	2539.33
534.86	2558.31
535.21	2575.45
535.57	2592.66
535.93	2608.96
536.29	2624.11
536.65	2639.95
537.00	2654.69
537.36	2670.09
537.72	2684.37
538.08	2698.48
538.44	2711.46
538.79	2724.60
539.15	2735.95
539.51	2747.25
539.87	2758.07
540.22	2766.79
540.58	2775.57
540.94	2785.08
541.29	2792.89
541.65	2799.91
542.01	2806.34
542.37	2810.88
542.72	2817.30
543.08	2823.10
543.44	2828.94
543.79	2833.89
544.15	2838.22
544.51	2842.31
544.87	2845.52
545.22	2848.29
545.58	2849.96
545.94	2852.08
546.29	2852.79
546.65	2853.79
547.01	2854.69
547.36	2855.91
547.72	2857.36
548.07	2857.21
548.43	2856.34
548.79	2854.90
549.14	2853.52
549.50	2852.54
549.86	2850.90
550.21	2846.75
550.57	2843.15
550.92	2837.98
551.28	2833.49
551.64	2828.72
551.99	2824.49
552.35	2819.80
552.70	2814.66
553.06	2810.19
553.41	2805.16
553.77	2799.54
554.13	2794.55
554.48	2788.82
554.84	2781.27
555.19	2773.73
555.55	2765.64
555.90	2758.04
556.26	2751.62
556.61	2744.53
556.97	2735.34
557.32	2727.02
557.68	2719.12
558.03	2710.40
558.39	2702.54
558.74	2694.90
559.10	2686.03
559.45	2676.87
559.81	2667.74
560.16	2658.13
560.52	2647.98
560.87	2638.82
561.23	2629.42
561.58	2619.50
561.94	2609.39
562.29	2598.77
562.64	2588.68
563.00	2578.99
563.35	2569.30
563.71	2558.52
564.06	2547.19
564.42	2536.93
564.77	2526.23
565.12	2515.58
565.48	2504.60
565.83	2494.21
566.19	2483.89
566.54	2473.21
566.89	2461.41
567.25	2449.94
567.60	2439.27
567.96	2428.16
568.31	2415.82
568.66	2403.19
569.02	2391.63
569.37	2379.87
569.72	2368.70
570.08	2356.64
570.43	2344.06
570.78	2331.11
571.14	2318.09
571.49	2305.81
571.84	2293.79
572.20	2280.26
572.55	2267.34
572.90	2254.36
573.26	2240.69
573.61	2226.33
573.96	2212.08
574.31	2198.28
574.67	2184.56
575.02	2170.34
575.37	2155.77
575.72	2141.49
576.08	2127.81
576.43	2113.01
576.78	2098.14
577.13	2084.06
577.49	2070.30
577.84	2056.88
578.19	2042.65
578.54	2027.93
578.90	2012.64
579.25	1997.10
579.60	1983.16
579.95	1968.77
580.30	1954.37
580.66	1940.12
581.01	1925.37
581.36	1911.18
581.71	1897.55
582.06	1883.48
582.42	1869.48
582.77	1856.23
583.12	1842.56
583.47	1828.83
583.82	1815.28
584.17	1801.58
584.53	1787.77
584.88	1773.92
585.23	1759.79
585.58	1746.15
585.93	1732.89
586.28	1720.45
586.63	1707.88
586.98	1694.49
587.34	1681.40
587.69	1667.78
588.04	1654.35
588.39	1641.62
588.74	1628.34
589.09	1614.84
589.44	1601.27
589.79	1588.31
590.14	1575.15
590.49	1562.20
590.84	1549.25
591.19	1536.88
591.54	1524.05
591.89	1511.04
592.25	1498.38
592.60	1485.23
592.95	1472.63
593.30	1460.36
593.65	1447.99
594.00	1435.73
594.35	1424.37
594.70	1412.00
595.05	1400.70
595.40	1389.32
595.75	1377.35
596.10	1366.16
596.45	1355.20
596.80	1344.72
597.15	1333.93
597.50	1323.18
597.85	1312.60
598.19	1302.25
598.54	1291.33
598.89	1281.14
599.24	1271.27
599.59	1261.09
599.94	1251.94
600.29	1242.74
600.64	1233.32
600.99	1223.25
601.34	1213.72
601.69	1203.53
602.04	1194.54
602.39	1185.43
602.74	1176.57
603.08	1167.99
603.43	1158.86
603.78	1149.53
604.13	1140.37
604.48	1131.16
604.83	1122.22
605.18	1113.18
605.53	1104.07
605.87	1095.06
606.22	1086.34
606.57	1077.32
606.92	1068.33
607.27	1059.31
607.62	1050.32
607.96	1041.53
608.31	1033.76
608.66	1025.59
609.01	1017.84
609.36	1009.99
609.70	1001.90
610.05	993.64
610.40	985.73
610.75	978.00
611.10	970.52
611.44	962.59
611.79	955.04
612.14	947.11
612.49	939.28
612.83	931.92
613.18	924.71
613.53	917.33
613.88	910.02
614.22	903.37
614.57	896.46
614.92	889.53
615.27	882.65
615.61	875.56
615.96	868.76
616.31	861.84
616.65	854.85
617.00	848.07
617.35	841.40
617.70	834.76
618.04	828.24
618.39	821.75
618.74	815.61
619.08	809.26
619.43	803.19
619.78	797.16
620.12	790.93
620.47	784.85
620.82	778.77
621.16	773.06
621.51	766.99
621.85	760.96
622.20	754.94
622.55	749.09
622.89	743.21
623.24	737.31
623.59	731.57
623.93	725.88
624.28	720.34
624.62	714.80
624.97	709.22
625.32	703.74
625.66	698.17
626.01	692.58
626.35	687.13
626.70	681.72
627.04	676.50
627.39	671.33
627.73	666.26
628.08	661.43
628.43	656.46
628.77	651.56
629.12	646.75
629.46	642.19
629.81	637.47
630.15	632.64
630.50	627.96
630.84	623.43
631.19	619.09
631.53	614.80
631.88	610.39
632.22	606.11
632.57	602.05
632.91	597.92
633.26	593.90
633.60	589.95
633.95	586.12
634.29	582.13
634.64	578.10
634.98	573.97
635.32	570.02
635.67	566.23
636.01	562.38
636.36	558.57
636.70	554.90
637.05	551.20
637.39	547.69
637.73	544.05
638.08	540.52
638.42	536.95
638.77	533.24
639.11	529.53
639.45	525.85
639.80	522.14
640.14	518.63
640.49	515.07
640.83	511.45
641.17	507.81
641.52	504.38
641.86	500.96
642.20	497.69
642.55	494.26
642.89	490.90
643.23	487.78
643.58	484.90
643.92	481.87
644.26	478.90
644.61	475.91
644.95	472.93
645.29	469.87
645.64	466.77
645.98	463.84
646.32	461.07
646.66	458.30
647.01	455.53
647.35	452.79
647.69	449.97
648.04	447.23
648.38	444.55
648.72	441.84
649.06	439.17
649.41	436.58
649.75	433.97
650.09	431.39
650.43	428.79
650.78	426.17
651.12	423.57
651.46	421.03
651.80	418.62
652.14	416.29
652.49	413.97
652.83	411.73
653.17	409.45
653.51	407.26
653.85	405.12
654.20	402.93
654.54	400.64
654.88	398.53
655.22	396.51
655.56	394.45
655.90	392.49
656.25	390.56
656.59	388.60
656.93	386.74
657.27	384.94
657.61	383.03
657.95	381.20
658.29	379.34
658.64	377.54
658.98	375.69
659.32	373.88
659.66	372.17
660.00	370.47
660.34	368.81
660.68	367.08
661.02	365.30
661.36	363.64
661.70	362.06
662.05	360.47
662.39	358.86
662.73	357.32
663.07	355.80
663.41	354.30
663.75	352.84
664.09	351.40
664.43	349.86
664.77	348.43
665.11	346.94
665.45	345.53
665.79	344.11
666.13	342.69
666.47	341.26
666.81	339.79
667.15	338.30
667.49	336.91
667.83	335.56
668.17	334.26
668.51	332.98
668.85	331.71
669.19	330.52
669.53	329.26
669.87	327.98
670.21	326.72
670.55	325.48
670.89	324.31
671.23	323.10
671.57	321.92
671.91	320.78
672.25	319.70
672.58	318.63
672.92	317.54
673.26	316.52
673.60	315.50
673.94	314.47
674.28	313.49
674.62	312.51
674.96	311.52
675.30	310.56
675.64	309.59
675.97	308.63
676.31	307.64
676.65	306.66
676.99	305.77
677.33	304.81
677.67	303.91
678.01	302.91
678.34	302.01
678.68	301.14
679.02	300.25
679.36	299.37
679.70	298.50
680.04	297.65
680.37	296.78
680.71	295.95
681.05	295.17
681.39	294.35
681.73	293.50
682.06	292.67
682.40	291.87
682.74	291.09
683.08	290.33
683.42	289.55
683.75	288.85
684.09	288.07
684.43	287.34
684.77	286.59
685.10	285.91
685.44	285.21
685.78	284.50
686.12	283.82
686.45	283.13
686.79	282.43
687.13	281.75
687.46	281.06
687.80	280.39
688.14	279.67
688.48	279.02
688.81	278.37
689.15	277.77
689.49	277.12
689.82	276.48
690.16	275.80
690.50	275.18
690.83	274.56
691.17	273.96
691.51	273.37
691.84	272.80
692.18	272.19
692.52	271.57
692.85	270.96
693.19	270.41
693.52	269.84
693.86	269.27
694.20	268.73
694.53	268.20
694.87	267.65
695.21	267.13
695.54	266.60
695.88	266.06
696.21	265.50
696.55	264.98
696.88	264.47
697.22	263.96
697.56	263.46
697.89	262.90
698.23	262.39
698.56	261.86
698.90	261.36
699.23	260.87
699.57	260.41
699.90	259.95
700.24	259.45
700.58	259.00
700.91	258.57
701.25	258.21
701.58	257.83
701.92	257.43
702.25	257.00
702.59	256.56
702.92	256.16
703.26	255.76
703.59	255.36
703.93	255.03
704.26	254.65
704.60	254.26
704.93	253.89
705.26	253.52
705.60	253.18
705.93	252.80
706.27	252.48
706.60	252.15
706.94	251.82
707.27	251.44
707.61	251.07
707.94	250.70
708.27	250.26
708.61	249.85
708.94	249.49
709.28	249.14
709.61	248.81
709.94	248.50
710.28	248.18
710.61	247.89
710.95	247.50
711.28	247.27
711.61	246.97
711.95	246.71
712.28	246.41
712.61	246.10
712.95	245.88
713.28	245.64
713.61	245.35
713.95	245.04
714.28	244.79
714.61	244.52
714.95	244.26
715.28	244.00
715.61	243.75
715.95	243.51
716.28	243.26
716.61	243.04
716.95	242.79
717.28	242.56
717.61	242.31
717.94	242.09
718.28	241.78
718.61	241.55
718.94	241.30
719.27	241.08
719.61	240.88
719.94	240.64
720.27	240.37
720.60	240.15
720.94	239.95
721.27	239.75
721.60	239.57
721.93	239.38
722.27	239.22
722.60	239.03
722.93	238.83
723.26	238.65
723.59	238.43
723.93	238.26
724.26	238.09
724.59	237.91
724.92	237.74
725.25	237.59
725.59	237.42
725.92	237.28
726.25	237.13
726.58	236.96
726.91	236.79
727.24	236.64
727.57	236.49
727.91	236.32
728.24	236.18
728.57	236.02
728.90	235.87
729.23	235.69
729.56	235.59
729.89	235.45
730.22	235.30
730.55	235.17
730.89	235.02
731.22	234.87
731.55	234.73
731.88	234.60
732.21	234.45
732.54	234.31
732.87	234.18
733.20	234.06
733.53	233.94
733.86	233.83
734.19	233.69
734.52	233.59
734.85	233.55
735.18	233.41
735.51	233.33
735.84	233.21
736.17	233.13
736.50	232.97
736.83	232.97
737.16	232.87
737.49	232.77
737.82	232.67
738.15	232.58
738.48	232.48
738.81	232.37
739.14	232.26
739.47	232.15
739.80	232.05
740.13	231.96
740.46	231.84
740.79	231.73
741.12	231.63
741.45	231.52
741.78	231.36
742.11	231.30
742.44	231.18
742.77	231.11
743.10	231.00
743.43	230.90
743.75	230.70
744.08	230.77
744.41	230.67
744.74	230.58
745.07	230.47
745.40	230.40
745.73	230.36
746.06	230.29
746.39	230.22
746.71	230.13
747.04	230.03
747.37	229.96
747.70	229.91
748.03	229.83
748.36	229.77
748.68	229.69
749.01	229.59
749.34	229.52
749.67	229.44
750.00	229.39
750.33	229.40
750.65	229.34
750.98	229.12
751.31	229.05
751.64	228.99
751.97	228.98
752.29	228.90
752.62	228.79
752.95	228.71
753.28	228.63
753.60	228.57
753.93	228.53
754.26	228.48
754.59	228.38
754.91	228.30
755.24	228.23
755.57	228.21
755.90	228.14
756.22	228.07
756.55	227.99
756.88	227.90
757.20	227.77
757.53	227.69
757.86	227.63
758.19	227.58
758.51	227.52
758.84	227.41
759.17	227.35
759.49	227.30
759.82	227.31
760.15	227.27
760.47	227.21
760.80	227.13
761.13	227.10
761.45	227.05
761.78	227.01
762.11	226.96
762.43	226.87
762.76	226.83
763.08	226.79
763.41	226.75
763.74	226.72
764.06	226.68
764.39	226.63
764.71	226.59
765.04	226.53
765.37	226.49
765.69	226.44
766.02	226.40
766.34	226.35
766.67	226.26
767.00	226.24
767.32	226.25
767.65	226.27
767.97	226.21
768.30	226.18
768.62	226.15
768.95	226.10
769.27	226.05
769.60	226.03
769.92	225.97
770.25	225.93
770.57	225.87
770.90	225.84
771.22	225.79
771.55	225.76
771.87	225.73
772.20	225.69
772.52	225.75
772.85	225.84
773.17	225.81
773.50	225.77
773.82	225.72
774.15	225.64
774.47	225.54
774.80	225.50
775.12	225.46
775.45	225.42
775.77	225.41
776.09	225.39
776.42	225.35
776.74	225.36
777.07	225.33
777.39	225.31
777.72	225.28
778.04	225.27
778.36	225.23
778.69	225.21
779.01	225.20
779.33	225.09
779.66	224.94
779.98	224.91
780.31	224.89
780.63	224.91
780.95	224.91
781.28	224.89
781.60	224.87
781.92	224.85
782.25	224.82
782.57	224.80
782.89	224.77
783.22	224.74
783.54	224.70
783.86	224.68
784.19	224.65
784.51	224.66
784.83	224.63
785.16	224.60
785.48	224.59
785.80	224.57
786.12	224.55
786.45	224.54
786.77	224.53
787.09	224.51
787.42	224.45
787.74	224.43
788.06	224.41
788.38	224.39
788.71	224.37
789.03	224.36
789.35	224.35
789.67	224.32
789.99	224.32
790.32	224.29
790.64	224.29
790.96	224.37
791.28	224.31
791.61	224.29
791.93	224.28
792.25	224.26
792.57	224.31
792.89	224.28
793.21	224.27
793.54	224.25
793.86	224.22
794.18	224.21
794.50	224.18
794.82	224.16
795.14	224.16
795.47	224.17
795.79	224.16
796.11	224.12
796.43	224.10
796.75	224.08
797.07	224.08
797.39	224.06
797.71	223.96
798.04	223.96
798.36	223.95
798.68	223.95
799.00	223.94
799.32	223.88
799.64	223.89
799.96	223.87
800.28	223.88
800.60	223.86
800.92	223.86
801.24	223.84
801.56	223.84
801.89	223.83
802.21	223.82
802.53	223.80
802.85	223.82
803.17	223.86
803.49	223.82
803.81	223.80
804.13	223.78
804.45	223.75
804.77	223.76
805.09	223.74
805.41	223.73
805.73	223.69
806.05	223.65
806.37	223.63
806.69	223.60
807.01	223.58
807.33	223.58
807.65	223.53
807.97	223.57
808.28	223.55
808.60	223.53
808.92	223.51
809.24	223.56
809.56	223.53
809.88	223.49
810.20	223.49
810.52	223.50
810.84	223.48
811.16	223.47
811.48	223.44
811.80	223.48
812.12	223.47
812.43	223.48
812.75	223.49
813.07	223.48
813.39	223.48
813.71	223.46
814.03	223.44
814.35	223.45
814.67	223.40
814.98	223.39
815.30	223.38
815.62	223.35
815.94	223.28
816.26	223.28
816.58	223.26
816.89	223.26
817.21	223.22
817.53	223.23
817.85	223.24
818.17	223.23
818.48	223.18
818.80	223.19
819.12	223.17
819.44	223.15
819.76	223.14
820.07	223.13
820.39	223.12
820.71	223.13
821.03	223.13
821.34	223.12
821.66	223.13
821.98	223.14
822.30	223.13
822.61	223.19
822.93	223.16
823.25	223.17
823.57	223.15
823.88	223.16
824.20	223.16
824.52	223.16
824.83	223.16
825.15	223.15
825.47	223.13
825.79	223.14
826.10	223.12
826.42	223.11
826.74	223.12
827.05	223.12
827.37	223.12
827.69	223.10
828.00	223.10
828.32	223.09
828.64	223.08
828.95	223.13
829.27	223.10
829.58	223.09
829.90	223.11
830.22	223.12
830.53	223.10
830.85	223.08
831.17	223.05
831.48	223.05
831.80	223.05
832.11	223.03
832.43	223.02
832.75	223.02
833.06	223.08
833.38	223.05
833.69	223.04
834.01	223.04
834.32	223.04
834.64	223.03
834.96	223.03
835.27	223.03
835.59	222.99
835.90	222.97
836.22	222.96
836.53	222.94
836.85	222.93
837.16	223.03
837.48	223.04
837.79	223.07
838.11	223.07
838.42	223.08
838.74	223.09
839.05	223.09
839.37	223.08
839.68	223.02
840.00	223.01
840.31	223.02
840.63	223.01
840.94	223.00
841.26	222.98
841.57	222.97
841.88	222.98
842.20	222.97
842.51	222.94
842.83	222.94
843.14	223.03
843.46	223.02
843.77	222.96
844.08	222.95
844.40	222.92
844.71	222.91
845.03	222.89
845.34	222.88
845.65	222.87
845.97	222.87
846.28	222.88
846.60	222.88
846.91	222.86
847.22	222.85
847.54	222.87
847.85	222.88
848.16	222.87
848.48	222.85
848.79	222.88
849.10	222.90
849.42	222.91
849.73	222.81
850.04	222.81
850.36	222.77
850.67	222.78
850.98	222.78
851.30	222.79
851.61	222.78
851.92	222.78
852.23	222.81
852.55	222.81
852.86	222.82
853.17	222.82
853.49	222.85
853.80	222.87
854.11	222.88
854.42	222.89
854.74	222.88
855.05	222.89
855.36	222.83
855.67	222.83
855.99	222.82
856.30	222.95
856.61	222.94
856.92	222.94
857.23	222.94
857.55	222.93
857.86	222.92
858.17	222.93
858.48	222.92
858.79	222.90
859.11	222.90
859.42	222.89
859.73	222.88
860.04	222.86
860.35	222.83
860.66	222.79
860.98	222.79
861.29	222.81
861.60	222.80
861.91	222.82
862.22	222.81
862.53	222.80
862.84	222.67
863.16	222.69
863.47	222.67
863.78	222.66
864.09	222.67
864.40	222.68
864.71	222.68
865.02	222.69
865.33	222.68
865.64	222.66
865.95	222.66
866.27	222.72
866.58	222.71
866.89	222.73
867.20	222.73
867.51	222.71
867.82	222.71
868.13	222.74
868.44	222.71
868.75	222.73
869.06	222.73
869.37	222.75
869.68	222.72
869.99	222.74
870.30	222.74
870.61	222.75
870.92	222.74
871.23	222.73
871.54	222.74
871.85	222.76
872.16	222.77
872.47	222.76
872.78	222.70
873.09	222.70
873.40	222.70
873.71	222.70
874.02	222.71
874.33	222.70
874.64	222.68
874.95	222.70
875.26	222.68
875.56	222.68
875.87	222.67
876.18	222.68
876.49	222.78
876.80	222.77
877.11	222.75
877.42	222.75
877.73	222.75
878.04	222.73
878.35	222.73
878.66	222.73
878.96	222.73
879.27	222.73
879.58	222.72
879.89	222.71
880.20	222.74
880.51	222.73
880.82	222.73
881.12	222.74
881.43	222.71
881.74	222.70
882.05	222.69
882.36	222.70
882.67	222.70
882.97	222.58
883.28	222.57
883.59	222.57
883.90	222.58
884.21	222.60
884.51	222.60
884.82	222.58
885.13	222.58
885.44	222.58
885.74	222.58
886.05	222.58
886.36	222.58
886.67	222.54
886.98	222.60
887.28	222.61
887.59	222.61
887.90	222.61
888.20	222.61
888.51	222.62
888.82	222.61
889.13	222.61
889.43	222.71
889.74	222.70
890.05	222.69
890.35	222.68
890.66	222.66
890.97	222.64
891.28	222.63
891.58	222.63
891.89	222.63
892.20	222.61
892.50	222.60
892.81	222.59
893.12	222.59
893.42	222.53
893.73	222.52
894.04	222.51
894.34	222.52
894.65	222.52
894.95	222.51
895.26	222.51
895.57	222.55
895.87	222.44
896.18	222.46
896.48	222.47
896.79	222.47
897.10	222.48
897.40	222.49
897.71	222.50
898.01	222.49
898.32	222.51
898.63	222.50
898.93	222.51
899.24	222.51
899.54	222.51
899.85	222.51
900.15	222.50
900.46	222.50
900.76	222.50
901.07	222.50
901.38	222.50
901.68	222.51
901.99	222.46
902.29	222.47
902.60	222.46
902.90	222.45
903.21	222.44
903.51	222.43
903.82	222.45
904.12	222.45
904.43	222.45
904.73	222.44
905.03	222.45
905.34	222.55
905.64	222.54
905.95	222.54
906.25	222.54
906.56	222.53
906.86	222.53
907.17	222.53
907.47	222.53
907.77	222.52
908.08	222.49
908.38	222.50
908.69	222.51
908.99	222.53
909.30	222.53
909.60	222.53
909.90	222.54
910.21	222.51
910.51	222.49
910.81	222.50
911.12	222.51
911.42	222.51
911.73	222.40
912.03	222.41
912.33	222.43
912.64	222.42
912.94	222.41
913.24	222.39
913.55	222.38
913.85	222.38
914.15	222.40
914.46	222.42
914.76	222.41
915.06	222.40
915.37	222.37
915.67	222.36
915.97	222.36
916.27	222.34
916.58	222.34
916.88	222.34
917.18	222.32
917.49	222.39
917.79	222.38
918.09	222.40
918.39	222.43
918.70	222.42
919.00	222.43
919.30	222.47
919.60	222.47
919.91	222.47
920.21	222.47
920.51	222.45
920.81	222.44
921.12	222.46
921.42	222.45
921.72	222.46
922.02	222.46
922.32	222.48
922.63	222.49
922.93	222.54
923.23	222.54
923.53	222.53
923.83	222.46
924.13	222.47
924.44	222.46
924.74	222.47
925.04	222.49
925.34	222.49
925.64	222.44
925.94	222.44
926.24	222.50
926.55	222.49
926.85	222.50
927.15	222.50
927.45	222.50
927.75	222.50
928.05	222.51
928.35	222.51
928.65	222.52
928.95	222.52
929.26	222.48
929.56	222.50
929.86	222.52
930.16	222.51
930.46	222.50
930.76	222.51
931.06	222.46
931.36	222.43
931.66	222.45
931.96	222.45
932.26	222.46
932.56	222.42
932.86	222.42
933.16	222.42
933.46	222.41
933.76	222.39
934.06	222.41
934.36	222.44
934.66	222.44
934.96	222.42
935.26	222.42
935.56	222.43
935.86	222.40
936.16	222.38
936.46	222.37
936.76	222.36
937.06	222.34
937.36	222.35
937.66	222.36
937.96	222.36
938.26	222.33
938.56	222.33
938.86	222.34
939.16	222.36
939.46	222.36
939.76	222.37
940.06	222.37
940.35	222.35
940.65	222.30
940.95	222.31
941.25	222.29
941.55	222.28
941.85	222.27
942.15	222.29
942.45	222.33
942.75	222.33
943.04	222.34
943.34	222.36
943.64	222.35
943.94	222.34
944.24	222.34
944.54	222.36
944.84	222.35
945.13	222.34
945.43	222.31
945.73	222.31
946.03	222.30
946.33	222.29
946.62	222.28
946.92	222.28
947.22	222.29
947.52	222.30
947.82	222.31
948.11	222.30
948.41	222.27
948.71	222.25
949.01	222.25
949.31	222.24
949.60	222.23
949.90	222.25
950.20	222.24
950.50	222.24
950.79	222.23
951.09	222.24
951.39	222.24
951.69	222.23
951.98	222.25
952.28	222.26
952.58	222.26
952.87	222.27
953.17	222.28
953.47	222.27
953.76	222.26
954.06	222.24
954.36	222.23
954.66	222.23
954.95	222.26
955.25	222.27
955.55	222.28
955.84	222.26
956.14	222.27
956.44	222.28
956.73	222.26
957.03	222.27
957.32	222.27
957.62	222.26
957.92	222.29
958.21	222.28
958.51	222.40
958.81	222.41
959.10	222.42
959.40	222.45
959.69	222.45
959.99	222.46
960.29	222.47
960.58	222.47
960.88	222.51
961.17	222.50
961.47	222.50
961.76	222.49
962.06	222.51
962.36	222.50
962.65	222.50
962.95	222.51
963.24	222.49
963.54	222.49
963.83	222.50
964.13	222.50
964.42	222.48
964.72	222.39
965.01	222.38
965.31	222.38
965.60	222.35
965.90	222.41
966.19	222.39
966.49	222.39
966.78	222.39
967.08	222.38
967.37	222.38
967.67	222.36
967.96	222.38
968.26	222.37
968.55	222.39
968.85	222.39
969.14	222.39
969.43	222.39
969.73	222.38
970.02	222.37
970.32	222.36
970.61	222.35
970.91	222.33
971.20	222.31
971.49	222.31
971.79	222.32
972.08	222.25
972.38	222.26
972.67	222.25
972.96	222.26
973.26	222.24
973.55	222.26
973.85	222.26
974.14	222.25
974.43	222.26
974.73	222.24
975.02	222.22
975.31	222.22
975.61	222.22
975.90	222.21
976.19	222.20
976.49	222.21
976.78	222.21
977.07	222.21
977.37	222.22
977.66	222.22
977.95	222.21
978.24	222.22
978.54	222.23
978.83	222.23
979.12	222.22
979.42	222.22
979.71	222.20
980.00	222.20
980.29	222.21
980.59	222.19
980.88	222.22
981.17	222.22
981.46	222.21
981.76	222.21
982.05	222.24
982.34	222.24
982.63	222.24
982.93	222.25
983.22	222.27
983.51	222.28
983.80	222.29
984.09	222.30
984.39	222.29
984.68	222.28
984.97	222.27
985.26	222.26
985.55	222.27
985.85	222.25
986.14	222.26
986.43	222.27
986.72	222.26
987.01	222.22
987.30	222.22
987.59	222.22
987.89	222.23
988.18	222.20
988.47	222.19
988.76	222.19
989.05	222.17
989.34	222.16
989.63	222.17
989.92	222.15
990.22	222.13
990.51	222.13
990.80	222.12
991.09	222.14
991.38	222.15
991.67	222.15
991.96	222.14
992.25	222.14
992.54	222.12
992.83	222.13
993.12	222.13
993.41	222.15
993.70	222.19
993.99	222.20
994.28	222.21
994.58	222.23
994.87	222.22
995.16	222.22
995.45	222.21
995.74	222.17
996.03	222.19
996.32	222.21
996.61	222.24
996.90	222.24
997.19	222.23
997.48	222.23
997.77	222.22
998.06	222.23
998.34	222.22
998.63	222.23
998.92	222.23
999.21	222.25
999.50	222.25
999.79	222.22
1000.08	222.21
1000.37	222.22
1000.66	222.21
1000.95	222.23
1001.24	222.24
1001.53	222.26
1001.82	222.26
1002.11	222.24
1002.40	222.25
1002.68	222.27
1002.97	222.35
1003.26	222.33
1003.55	222.32
1003.84	222.33
1004.13	222.37
1004.42	222.37
1004.71	222.36
1004.99	222.35
1005.28	222.36
1005.57	222.36
1005.86	222.35
1006.15	222.34
1006.44	222.32
1006.72	222.33
1007.01	222.31
1007.30	222.32
1007.59	222.30
1007.88	222.30
1008.17	222.31
1008.45	222.28
1008.74	222.24
1009.03	222.19
1009.32	222.19
1009.60	222.19
1009.89	222.19
1010.18	222.15
1010.47	222.15
1010.76	222.16
1011.04	222.16
1011.33	222.16
1011.62	222.17
1011.91	222.18
1012.19	222.18
1012.48	222.18
1012.77	222.18
1013.05	222.22
1013.34	222.21
1013.63	222.20
1013.92	222.21
1014.20	222.20
1014.49	222.21
1014.78	222.22
1015.06	222.18
1015.35	222.18
1015.64	222.20
1015.92	222.21
1016.21	222.21
1016.50	222.21
1016.78	222.22
1017.07	222.22
1017.36	222.20
1017.64	222.19
1017.93	222.21
1018.22	222.20
1018.50	222.19
1018.79	222.19
1019.08	222.15
1019.36	222.16
1019.65	222.16
1019.93	222.19
1020.22	222.20
1020.51	222.25
1020.79	222.24
1021.08	222.07
1021.36	221.93
1021.65	222.18
1021.94	222.10
1022.22	222.33
1022.51	222.08
1022.79	222.62
1023.08	222.19
1023.36	223.42
1023.65	221.95
>>>>>End Processed Spectral Data<<<<<
