SpectraSuite Data File
++++++++++++++++++++++++++++++++++++
Date: Thu Oct 01 03:26:42 EDT 2015
User: lab3
Dark Spectrum Present: No
Reference Spectrum Present: No
Number of Sampled Component Spectra: 1
Spectrometers: USB2E7196
Integration Time (usec): 36000 (USB2E7196)
Spectra Averaged: 10000 (USB2E7196)
Boxcar Smoothing: 10 (USB2E7196)
Correct for Electrical Dark: No (USB2E7196)
Strobe/Lamp Enabled: No (USB2E7196)
Correct for Detector Non-linearity: No (USB2E7196)
Correct for Stray Light: No (USB2E7196)
Number of Pixels in Processed Spectrum: 2048
>>>>>Begin Processed Spectral Data<<<<<
339.09	0.00
339.48	210.45
339.86	211.92
340.24	213.27
340.63	214.74
341.01	217.62
341.39	217.35
341.78	218.73
342.16	219.95
342.54	220.39
342.93	208.99
343.31	219.56
343.69	220.10
344.07	220.56
344.46	220.99
344.84	221.37
345.22	221.61
345.60	221.87
345.99	222.06
346.37	222.20
346.75	222.30
347.13	222.38
347.52	222.45
347.90	222.53
348.28	222.57
348.66	222.62
349.05	222.62
349.43	222.67
349.81	222.73
350.19	222.79
350.57	222.86
350.96	222.94
351.34	223.03
351.72	223.13
352.10	223.23
352.48	223.31
352.87	223.36
353.25	223.43
353.63	223.49
354.01	223.56
354.39	223.63
354.77	223.71
355.15	223.81
355.54	223.87
355.92	223.91
356.30	223.98
356.68	224.12
357.06	224.20
357.44	224.25
357.82	224.31
358.20	224.42
358.58	224.48
358.97	224.54
359.35	224.62
359.73	224.70
360.11	224.75
360.49	224.81
360.87	224.86
361.25	224.92
361.63	225.00
362.01	225.05
362.39	225.08
362.77	225.12
363.15	225.15
363.53	225.18
363.91	225.22
364.29	225.24
364.67	225.16
365.05	225.18
365.43	225.21
365.81	225.24
366.19	225.25
366.57	225.30
366.95	225.30
367.33	225.28
367.71	225.27
368.09	225.29
368.47	225.28
368.85	225.26
369.23	225.27
369.61	225.22
369.99	225.23
370.37	225.23
370.75	225.28
371.13	225.25
371.51	225.22
371.89	225.20
372.27	225.17
372.65	225.14
373.03	225.10
373.41	225.06
373.78	225.01
374.16	224.92
374.54	224.84
374.92	224.79
375.30	224.75
375.68	224.68
376.06	224.63
376.44	224.58
376.82	224.53
377.19	224.48
377.57	224.43
377.95	224.35
378.33	224.28
378.71	224.14
379.09	224.09
379.47	224.05
379.84	223.99
380.22	223.93
380.60	223.86
380.98	223.81
381.36	223.75
381.73	223.69
382.11	223.66
382.49	223.62
382.87	223.55
383.25	223.51
383.62	223.58
384.00	223.51
384.38	223.48
384.76	223.45
385.13	223.44
385.51	223.40
385.89	223.35
386.27	223.31
386.64	223.29
387.02	223.24
387.40	223.20
387.78	223.16
388.15	223.14
388.53	223.10
388.91	223.07
389.29	223.04
389.66	223.04
390.04	223.00
390.42	222.99
390.79	222.98
391.17	222.96
391.55	222.83
391.92	222.82
392.30	222.81
392.68	222.78
393.05	222.76
393.43	222.75
393.81	222.76
394.18	222.74
394.56	222.74
394.94	222.77
395.31	222.77
395.69	222.81
396.06	222.83
396.44	222.86
396.82	222.86
397.19	222.94
397.57	222.95
397.95	222.99
398.32	222.99
398.70	223.03
399.07	223.08
399.45	223.12
399.82	223.16
400.20	223.20
400.58	223.25
400.95	223.27
401.33	223.34
401.70	223.48
402.08	223.57
402.45	223.65
402.83	223.75
403.20	223.85
403.58	223.93
403.95	224.05
404.33	224.18
404.71	224.31
405.08	224.49
405.46	224.63
405.83	224.79
406.21	224.96
406.58	225.15
406.96	225.33
407.33	225.55
407.70	225.79
408.08	226.12
408.45	226.41
408.83	226.72
409.20	227.00
409.58	227.25
409.95	227.60
410.33	227.98
410.70	228.33
411.08	228.75
411.45	229.19
411.82	229.64
412.20	230.15
412.57	230.76
412.95	231.23
413.32	231.86
413.69	232.50
414.07	233.17
414.44	233.91
414.82	234.66
415.19	235.55
415.56	236.44
415.94	237.37
416.31	238.41
416.68	239.46
417.06	240.67
417.43	241.81
417.81	243.12
418.18	244.46
418.55	245.92
418.93	247.44
419.30	249.03
419.67	250.72
420.04	252.46
420.42	254.28
420.79	256.38
421.16	258.50
421.54	260.66
421.91	262.91
422.28	265.25
422.66	267.78
423.03	270.19
423.40	272.72
423.77	275.43
424.15	278.20
424.52	281.08
424.89	284.20
425.26	287.31
425.64	290.19
426.01	293.43
426.38	296.75
426.75	300.16
427.13	303.66
427.50	307.31
427.87	311.10
428.24	314.94
428.61	318.60
428.99	322.55
429.36	326.89
429.73	331.03
430.10	335.16
430.47	339.37
430.85	343.71
431.22	348.33
431.59	353.07
431.96	357.70
432.33	362.82
432.70	367.66
433.08	373.40
433.45	378.82
433.82	384.14
434.19	390.08
434.56	395.93
434.93	401.57
435.30	407.13
435.68	413.41
436.05	419.55
436.42	425.69
436.79	431.28
437.16	437.32
437.53	443.79
437.90	450.25
438.27	456.57
438.64	463.43
439.01	469.63
439.38	475.29
439.75	480.77
440.13	487.02
440.50	492.98
440.87	497.68
441.24	502.85
441.61	508.54
441.98	512.73
442.35	517.71
442.72	522.81
443.09	527.71
443.46	530.88
443.83	533.24
444.20	535.24
444.57	538.16
444.94	539.91
445.31	541.73
445.68	543.34
446.05	544.57
446.42	544.47
446.79	544.27
447.16	544.11
447.53	543.99
447.90	542.19
448.27	540.51
448.64	537.83
449.01	536.06
449.37	532.19
449.74	528.66
450.11	524.12
450.48	519.10
450.85	514.05
451.22	509.76
451.59	505.55
451.96	501.74
452.33	496.12
452.70	491.12
453.07	485.01
453.43	478.90
453.80	472.98
454.17	467.29
454.54	462.01
454.91	456.04
455.28	450.42
455.65	445.12
456.02	439.47
456.38	434.92
456.75	429.05
457.12	424.30
457.49	419.52
457.86	414.94
458.23	410.94
458.59	406.52
458.96	401.97
459.33	397.96
459.70	393.87
460.07	390.75
460.43	387.08
460.80	383.64
461.17	380.61
461.54	377.34
461.91	374.29
462.27	371.18
462.64	368.64
463.01	365.73
463.38	362.79
463.74	360.15
464.11	357.78
464.48	355.64
464.85	353.36
465.21	351.60
465.58	349.67
465.95	347.43
466.32	345.65
466.68	343.90
467.05	342.14
467.42	340.45
467.78	338.63
468.15	336.94
468.52	335.70
468.88	334.05
469.25	332.55
469.62	331.36
469.98	330.07
470.35	328.92
470.72	327.88
471.08	326.84
471.45	325.96
471.82	325.01
472.18	324.01
472.55	323.36
472.92	322.57
473.28	321.94
473.65	321.30
474.02	320.70
474.38	320.21
474.75	319.94
475.11	319.54
475.48	319.38
475.85	319.23
476.21	319.18
476.58	319.19
476.94	319.39
477.31	319.52
477.67	319.67
478.04	319.94
478.41	320.29
478.77	320.76
479.14	321.10
479.50	321.67
479.87	322.36
480.23	323.06
480.60	323.73
480.96	324.43
481.33	325.40
481.69	326.36
482.06	327.30
482.42	328.21
482.79	329.29
483.15	330.54
483.52	331.92
483.88	333.26
484.25	334.69
484.61	336.17
484.98	337.77
485.34	339.57
485.71	341.43
486.07	343.40
486.44	345.36
486.80	347.55
487.17	349.79
487.53	352.26
487.90	354.82
488.26	357.60
488.62	360.54
488.99	363.47
489.35	366.54
489.72	369.86
490.08	373.34
490.44	376.92
490.81	380.66
491.17	384.51
491.54	388.61
491.90	392.80
492.26	397.33
492.63	402.09
492.99	407.04
493.36	412.11
493.72	417.46
494.08	422.95
494.45	428.74
494.81	434.74
495.17	440.87
495.54	447.34
495.90	454.13
496.26	461.04
496.63	468.21
496.99	475.67
497.35	483.48
497.72	491.60
498.08	499.87
498.44	508.40
498.80	517.48
499.17	526.79
499.53	536.45
499.89	546.32
500.26	556.38
500.62	566.72
500.98	577.73
501.34	588.90
501.71	600.61
502.07	612.54
502.43	624.87
502.79	637.52
503.16	650.59
503.52	663.84
503.88	677.48
504.24	691.54
504.60	705.88
504.97	720.61
505.33	735.72
505.69	751.76
506.05	767.99
506.41	784.20
506.78	800.73
507.14	817.73
507.50	835.34
507.86	853.34
508.22	871.63
508.59	889.93
508.95	908.95
509.31	928.41
509.67	948.58
510.03	968.96
510.39	989.56
510.75	1010.40
511.12	1031.54
511.48	1052.97
511.84	1074.52
512.20	1096.38
512.56	1119.36
512.92	1142.49
513.28	1165.35
513.64	1188.55
514.00	1212.16
514.37	1236.11
514.73	1260.11
515.09	1283.88
515.45	1308.11
515.81	1332.90
516.17	1357.72
516.53	1382.22
516.89	1406.79
517.25	1431.56
517.61	1456.50
517.97	1481.64
518.33	1506.53
518.69	1531.53
519.05	1556.80
519.41	1582.21
519.77	1607.88
520.13	1632.78
520.49	1657.84
520.85	1683.15
521.21	1708.35
521.57	1734.16
521.93	1759.26
522.29	1785.17
522.65	1810.81
523.01	1836.26
523.37	1860.92
523.73	1886.29
524.09	1911.84
524.45	1937.21
524.81	1962.09
525.17	1986.91
525.53	2011.31
525.89	2035.75
526.25	2060.39
526.61	2084.51
526.97	2108.89
527.33	2133.20
527.68	2157.27
528.04	2180.59
528.40	2203.73
528.76	2227.05
529.12	2249.31
529.48	2271.94
529.84	2292.73
530.20	2314.10
530.56	2335.08
530.91	2356.13
531.27	2376.66
531.63	2396.52
531.99	2415.93
532.35	2435.04
532.71	2454.22
533.07	2473.94
533.42	2492.16
533.78	2510.71
534.14	2529.27
534.50	2546.99
534.86	2565.35
535.21	2581.89
535.57	2598.29
535.93	2614.02
536.29	2628.52
536.65	2643.87
537.00	2658.05
537.36	2672.80
537.72	2686.48
538.08	2699.80
538.44	2711.96
538.79	2724.37
539.15	2735.13
539.51	2745.78
539.87	2756.05
540.22	2764.14
540.58	2772.41
540.94	2781.18
541.29	2788.53
541.65	2794.84
542.01	2800.64
542.37	2804.57
542.72	2810.47
543.08	2815.84
543.44	2820.97
543.79	2825.32
544.15	2828.73
544.51	2832.18
544.87	2834.68
545.22	2836.82
545.58	2838.02
545.94	2839.69
546.29	2839.85
546.65	2840.07
547.01	2840.44
547.36	2840.86
547.72	2841.49
548.07	2840.65
548.43	2839.19
548.79	2837.05
549.14	2834.86
549.50	2833.41
549.86	2830.93
550.21	2826.09
550.57	2821.66
550.92	2815.96
551.28	2810.83
551.64	2805.65
551.99	2800.78
552.35	2795.54
552.70	2789.86
553.06	2784.91
553.41	2779.51
553.77	2773.46
554.13	2768.22
554.48	2761.92
554.84	2754.09
555.19	2746.44
555.55	2738.20
555.90	2730.55
556.26	2723.88
556.61	2716.63
556.97	2707.12
557.32	2698.56
557.68	2690.35
558.03	2681.50
558.39	2673.31
558.74	2665.23
559.10	2655.98
559.45	2646.34
559.81	2637.10
560.16	2627.12
560.52	2616.80
560.87	2607.49
561.23	2597.77
561.58	2587.53
561.94	2577.04
562.29	2566.10
562.64	2555.75
563.00	2545.66
563.35	2535.40
563.71	2524.22
564.06	2512.60
564.42	2501.97
564.77	2491.01
565.12	2480.16
565.48	2469.10
565.83	2458.69
566.19	2448.31
566.54	2437.47
566.89	2425.81
567.25	2414.04
567.60	2403.09
567.96	2391.66
568.31	2378.82
568.66	2366.04
569.02	2354.29
569.37	2342.29
569.72	2330.77
570.08	2318.53
570.43	2305.80
570.78	2292.75
571.14	2279.54
571.49	2267.05
571.84	2254.90
572.20	2241.48
572.55	2228.42
572.90	2215.20
573.26	2200.99
573.61	2186.24
573.96	2171.86
574.31	2157.81
574.67	2144.02
575.02	2129.82
575.37	2115.15
575.72	2100.73
576.08	2086.90
576.43	2072.00
576.78	2057.25
577.13	2043.31
577.49	2029.32
577.84	2015.74
578.19	2001.31
578.54	1986.54
578.90	1971.29
579.25	1955.73
579.60	1941.60
579.95	1927.10
580.30	1912.65
580.66	1898.53
581.01	1884.05
581.36	1869.86
581.71	1856.28
582.06	1842.14
582.42	1828.13
582.77	1814.85
583.12	1801.19
583.47	1787.62
583.82	1774.18
584.17	1760.60
584.53	1746.84
584.88	1733.15
585.23	1719.06
585.58	1705.52
585.93	1692.40
586.28	1680.11
586.63	1667.57
586.98	1654.36
587.34	1641.35
587.69	1627.86
588.04	1614.69
588.39	1602.15
588.74	1589.09
589.09	1575.79
589.44	1562.47
589.79	1549.64
590.14	1536.76
590.49	1524.09
590.84	1511.26
591.19	1499.07
591.54	1486.39
591.89	1473.56
592.25	1461.05
592.60	1448.19
592.95	1435.88
593.30	1423.89
593.65	1411.62
594.00	1399.65
594.35	1388.36
594.70	1376.35
595.05	1365.41
595.40	1354.20
595.75	1342.41
596.10	1331.48
596.45	1320.74
596.80	1310.47
597.15	1300.03
597.50	1289.53
597.85	1279.25
598.19	1269.16
598.54	1258.45
598.89	1248.50
599.24	1238.84
599.59	1228.98
599.94	1220.13
600.29	1211.15
600.64	1201.93
600.99	1192.13
601.34	1182.79
601.69	1172.91
602.04	1164.06
602.39	1155.05
602.74	1146.30
603.08	1137.80
603.43	1128.80
603.78	1119.71
604.13	1110.74
604.48	1101.69
604.83	1092.93
605.18	1084.10
605.53	1075.18
605.87	1066.40
606.22	1057.86
606.57	1049.09
606.92	1040.41
607.27	1031.55
607.62	1022.79
607.96	1014.22
608.31	1006.69
608.66	998.71
609.01	991.15
609.36	983.54
609.70	975.68
610.05	967.68
610.40	960.02
610.75	952.44
611.10	945.15
611.44	937.50
611.79	930.14
612.14	922.40
612.49	914.83
612.83	907.74
613.18	900.69
613.53	893.43
613.88	886.27
614.22	879.72
614.57	872.99
614.92	866.26
615.27	859.54
615.61	852.66
615.96	846.00
616.31	839.27
616.65	832.44
617.00	825.86
617.35	819.45
617.70	813.04
618.04	806.71
618.39	800.38
618.74	794.40
619.08	788.24
619.43	782.32
619.78	776.38
620.12	770.29
620.47	764.38
620.82	758.58
621.16	753.07
621.51	747.20
621.85	741.32
622.20	735.50
622.55	729.87
622.89	724.19
623.24	718.57
623.59	713.01
623.93	707.49
624.28	702.13
624.62	696.73
624.97	691.33
625.32	686.04
625.66	680.60
626.01	675.15
626.35	669.85
626.70	664.59
627.04	659.53
627.39	654.51
627.73	649.62
628.08	644.93
628.43	640.12
628.77	635.37
629.12	630.77
629.46	626.33
629.81	621.70
630.15	616.96
630.50	612.38
630.84	608.01
631.19	603.83
631.53	599.67
631.88	595.41
632.22	591.25
632.57	587.32
632.91	583.35
633.26	579.45
633.60	575.63
633.95	571.92
634.29	568.06
634.64	564.17
634.98	560.18
635.32	556.35
635.67	552.64
636.01	548.90
636.36	545.18
636.70	541.61
637.05	538.05
637.39	534.70
637.73	531.19
638.08	527.74
638.42	524.25
638.77	520.66
639.11	517.04
639.45	513.48
639.80	509.91
640.14	506.52
640.49	503.10
640.83	499.55
641.17	496.07
641.52	492.74
641.86	489.40
642.20	486.24
642.55	482.93
642.89	479.71
643.23	476.67
643.58	473.88
643.92	470.96
644.26	468.06
644.61	465.14
644.95	462.25
645.29	459.29
645.64	456.32
645.98	453.49
646.32	450.83
646.66	448.17
647.01	445.49
647.35	442.84
647.69	440.09
648.04	437.52
648.38	434.96
648.72	432.35
649.06	429.84
649.41	427.33
649.75	424.82
650.09	422.34
650.43	419.87
650.78	417.36
651.12	414.85
651.46	412.46
651.80	410.15
652.14	407.91
652.49	405.69
652.83	403.52
653.17	401.34
653.51	399.21
653.85	397.16
654.20	395.05
654.54	392.86
654.88	390.86
655.22	388.91
655.56	386.92
655.90	385.02
656.25	383.13
656.59	381.25
656.93	379.48
657.27	377.73
657.61	375.89
657.95	374.11
658.29	372.34
658.64	370.59
658.98	368.83
659.32	367.09
659.66	365.46
660.00	363.84
660.34	362.26
660.68	360.62
661.02	358.91
661.36	357.33
661.70	355.81
662.05	354.25
662.39	352.69
662.73	351.22
663.07	349.79
663.41	348.36
663.75	346.97
664.09	345.57
664.43	344.09
664.77	342.71
665.11	341.27
665.45	339.93
665.79	338.57
666.13	337.20
666.47	335.82
666.81	334.42
667.15	332.98
667.49	331.65
667.83	330.36
668.17	329.12
668.51	327.89
668.85	326.68
669.19	325.55
669.53	324.35
669.87	323.12
670.21	321.92
670.55	320.74
670.89	319.63
671.23	318.49
671.57	317.36
671.91	316.29
672.25	315.29
672.58	314.26
672.92	313.20
673.26	312.22
673.60	311.24
673.94	310.25
674.28	309.31
674.62	308.37
674.96	307.40
675.30	306.48
675.64	305.54
675.97	304.62
676.31	303.65
676.65	302.71
676.99	301.85
677.33	300.92
677.67	300.04
678.01	299.08
678.34	298.21
678.68	297.38
679.02	296.52
679.36	295.67
679.70	294.82
680.04	294.00
680.37	293.17
680.71	292.38
681.05	291.63
681.39	290.84
681.73	290.02
682.06	289.24
682.40	288.47
682.74	287.72
683.08	287.00
683.42	286.27
683.75	285.60
684.09	284.85
684.43	284.15
684.77	283.44
685.10	282.77
685.44	282.08
685.78	281.39
686.12	280.74
686.45	280.07
686.79	279.41
687.13	278.76
687.46	278.10
687.80	277.45
688.14	276.76
688.48	276.14
688.81	275.51
689.15	274.93
689.49	274.31
689.82	273.70
690.16	273.04
690.50	272.44
690.83	271.84
691.17	271.25
691.51	270.69
691.84	270.14
692.18	269.56
692.52	268.97
692.85	268.40
693.19	267.87
693.52	267.34
693.86	266.80
694.20	266.27
694.53	265.76
694.87	265.24
695.21	264.74
695.54	264.24
695.88	263.73
696.21	263.19
696.55	262.69
696.88	262.20
697.22	261.72
697.56	261.25
697.89	260.72
698.23	260.23
698.56	259.72
698.90	259.26
699.23	258.79
699.57	258.36
699.90	257.91
700.24	257.43
700.58	256.99
700.91	256.58
701.25	256.25
701.58	255.88
701.92	255.50
702.25	255.09
702.59	254.68
702.92	254.29
703.26	253.91
703.59	253.52
703.93	253.22
704.26	252.86
704.60	252.49
704.93	252.14
705.26	251.78
705.60	251.47
705.93	251.10
706.27	250.79
706.60	250.47
706.94	250.16
707.27	249.80
707.61	249.45
707.94	249.10
708.27	248.66
708.61	248.29
708.94	247.94
709.28	247.62
709.61	247.31
709.94	247.01
710.28	246.72
710.61	246.44
710.95	246.07
711.28	245.85
711.61	245.57
711.95	245.32
712.28	245.04
712.61	244.75
712.95	244.54
713.28	244.32
713.61	244.04
713.95	243.76
714.28	243.53
714.61	243.27
714.95	243.03
715.28	242.78
715.61	242.54
715.95	242.32
716.28	242.08
716.61	241.87
716.95	241.63
717.28	241.41
717.61	241.17
717.94	240.96
718.28	240.67
718.61	240.45
718.94	240.22
719.27	240.01
719.61	239.82
719.94	239.59
720.27	239.34
720.60	239.14
720.94	238.94
721.27	238.76
721.60	238.60
721.93	238.41
722.27	238.27
722.60	238.10
722.93	237.90
723.26	237.74
723.59	237.54
723.93	237.38
724.26	237.22
724.59	237.05
724.92	236.90
725.25	236.77
725.59	236.61
725.92	236.47
726.25	236.32
726.58	236.17
726.91	236.01
727.24	235.88
727.57	235.73
727.91	235.56
728.24	235.43
728.57	235.28
728.90	235.15
729.23	234.98
729.56	234.88
729.89	234.75
730.22	234.60
730.55	234.47
730.89	234.33
731.22	234.19
731.55	234.06
731.88	233.93
732.21	233.79
732.54	233.66
732.87	233.53
733.20	233.42
733.53	233.30
733.86	233.19
734.19	233.06
734.52	232.97
734.85	232.93
735.18	232.80
735.51	232.71
735.84	232.61
736.17	232.53
736.50	232.37
736.83	232.39
737.16	232.29
737.49	232.20
737.82	232.10
738.15	232.02
738.48	231.93
738.81	231.82
739.14	231.72
739.47	231.62
739.80	231.52
740.13	231.43
740.46	231.32
740.79	231.21
741.12	231.11
741.45	231.00
741.78	230.85
742.11	230.80
742.44	230.68
742.77	230.61
743.10	230.51
743.43	230.42
743.75	230.22
744.08	230.29
744.41	230.20
744.74	230.11
745.07	230.00
745.40	229.94
745.73	229.91
746.06	229.83
746.39	229.77
746.71	229.69
747.04	229.60
747.37	229.53
747.70	229.47
748.03	229.40
748.36	229.35
748.68	229.28
749.01	229.17
749.34	229.10
749.67	229.04
750.00	228.98
750.33	229.00
750.65	228.94
750.98	228.72
751.31	228.66
751.64	228.61
751.97	228.60
752.29	228.53
752.62	228.41
752.95	228.34
753.28	228.26
753.60	228.19
753.93	228.15
754.26	228.10
754.59	228.01
754.91	227.93
755.24	227.86
755.57	227.84
755.90	227.78
756.22	227.71
756.55	227.63
756.88	227.55
757.20	227.42
757.53	227.34
757.86	227.28
758.19	227.23
758.51	227.17
758.84	227.06
759.17	227.00
759.49	226.96
759.82	226.96
760.15	226.92
760.47	226.87
760.80	226.80
761.13	226.76
761.45	226.72
761.78	226.67
762.11	226.63
762.43	226.54
762.76	226.49
763.08	226.46
763.41	226.43
763.74	226.39
764.06	226.35
764.39	226.31
764.71	226.26
765.04	226.21
765.37	226.16
765.69	226.13
766.02	226.08
766.34	226.03
766.67	225.95
767.00	225.93
767.32	225.95
767.65	225.97
767.97	225.93
768.30	225.90
768.62	225.86
768.95	225.81
769.27	225.77
769.60	225.75
769.92	225.69
770.25	225.64
770.57	225.59
770.90	225.55
771.22	225.52
771.55	225.49
771.87	225.46
772.20	225.43
772.52	225.48
772.85	225.57
773.17	225.55
773.50	225.51
773.82	225.46
774.15	225.37
774.47	225.28
774.80	225.24
775.12	225.20
775.45	225.17
775.77	225.15
776.09	225.13
776.42	225.10
776.74	225.11
777.07	225.08
777.39	225.06
777.72	225.03
778.04	225.02
778.36	224.98
778.69	224.96
779.01	224.95
779.33	224.83
779.66	224.69
779.98	224.66
780.31	224.65
780.63	224.67
780.95	224.67
781.28	224.65
781.60	224.62
781.92	224.60
782.25	224.58
782.57	224.56
782.89	224.53
783.22	224.50
783.54	224.46
783.86	224.45
784.19	224.42
784.51	224.43
784.83	224.40
785.16	224.38
785.48	224.36
785.80	224.34
786.12	224.34
786.45	224.32
786.77	224.31
787.09	224.28
787.42	224.22
787.74	224.21
788.06	224.20
788.38	224.18
788.71	224.16
789.03	224.15
789.35	224.14
789.67	224.12
789.99	224.11
790.32	224.09
790.64	224.08
790.96	224.17
791.28	224.12
791.61	224.10
791.93	224.09
792.25	224.07
792.57	224.13
792.89	224.10
793.21	224.09
793.54	224.07
793.86	224.04
794.18	224.04
794.50	224.00
794.82	223.99
795.14	223.99
795.47	224.00
795.79	223.99
796.11	223.95
796.43	223.94
796.75	223.92
797.07	223.91
797.39	223.89
797.71	223.79
798.04	223.79
798.36	223.79
798.68	223.77
799.00	223.77
799.32	223.70
799.64	223.71
799.96	223.70
800.28	223.71
800.60	223.70
800.92	223.69
801.24	223.67
801.56	223.67
801.89	223.65
802.21	223.64
802.53	223.62
802.85	223.64
803.17	223.67
803.49	223.64
803.81	223.63
804.13	223.61
804.45	223.58
804.77	223.58
805.09	223.57
805.41	223.56
805.73	223.53
806.05	223.49
806.37	223.47
806.69	223.45
807.01	223.43
807.33	223.43
807.65	223.39
807.97	223.43
808.28	223.40
808.60	223.39
808.92	223.37
809.24	223.42
809.56	223.39
809.88	223.35
810.20	223.35
810.52	223.37
810.84	223.35
811.16	223.33
811.48	223.32
811.80	223.35
812.12	223.33
812.43	223.35
812.75	223.35
813.07	223.34
813.39	223.33
813.71	223.32
814.03	223.30
814.35	223.30
814.67	223.25
814.98	223.24
815.30	223.23
815.62	223.21
815.94	223.14
816.26	223.15
816.58	223.12
816.89	223.12
817.21	223.09
817.53	223.09
817.85	223.10
818.17	223.09
818.48	223.04
818.80	223.06
819.12	223.04
819.44	223.01
819.76	223.00
820.07	223.00
820.39	222.99
820.71	222.99
821.03	222.99
821.34	222.98
821.66	222.99
821.98	223.00
822.30	223.00
822.61	223.06
822.93	223.03
823.25	223.02
823.57	223.01
823.88	223.02
824.20	223.01
824.52	223.02
824.83	223.01
825.15	223.00
825.47	222.99
825.79	223.00
826.10	222.99
826.42	222.98
826.74	222.98
827.05	222.98
827.37	222.98
827.69	222.97
828.00	222.97
828.32	222.97
828.64	222.95
828.95	223.00
829.27	222.96
829.58	222.96
829.90	222.98
830.22	222.98
830.53	222.96
830.85	222.95
831.17	222.92
831.48	222.92
831.80	222.92
832.11	222.91
832.43	222.89
832.75	222.89
833.06	222.95
833.38	222.92
833.69	222.92
834.01	222.91
834.32	222.91
834.64	222.90
834.96	222.89
835.27	222.89
835.59	222.85
835.90	222.84
836.22	222.83
836.53	222.81
836.85	222.79
837.16	222.90
837.48	222.89
837.79	222.93
838.11	222.93
838.42	222.92
838.74	222.93
839.05	222.93
839.37	222.92
839.68	222.85
840.00	222.84
840.31	222.86
840.63	222.84
840.94	222.83
841.26	222.82
841.57	222.82
841.88	222.82
842.20	222.81
842.51	222.79
842.83	222.78
843.14	222.88
843.46	222.88
843.77	222.82
844.08	222.81
844.40	222.78
844.71	222.77
845.03	222.75
845.34	222.74
845.65	222.73
845.97	222.73
846.28	222.74
846.60	222.74
846.91	222.72
847.22	222.72
847.54	222.74
847.85	222.75
848.16	222.74
848.48	222.71
848.79	222.75
849.10	222.77
849.42	222.77
849.73	222.67
850.04	222.67
850.36	222.63
850.67	222.64
850.98	222.65
851.30	222.65
851.61	222.65
851.92	222.65
852.23	222.68
852.55	222.68
852.86	222.68
853.17	222.69
853.49	222.71
853.80	222.73
854.11	222.73
854.42	222.74
854.74	222.73
855.05	222.73
855.36	222.68
855.67	222.67
855.99	222.68
856.30	222.80
856.61	222.79
856.92	222.79
857.23	222.79
857.55	222.78
857.86	222.77
858.17	222.79
858.48	222.77
858.79	222.74
859.11	222.75
859.42	222.75
859.73	222.73
860.04	222.72
860.35	222.69
860.66	222.66
860.98	222.65
861.29	222.67
861.60	222.66
861.91	222.68
862.22	222.67
862.53	222.65
862.84	222.53
863.16	222.55
863.47	222.53
863.78	222.51
864.09	222.52
864.40	222.53
864.71	222.52
865.02	222.54
865.33	222.53
865.64	222.51
865.95	222.50
866.27	222.57
866.58	222.56
866.89	222.57
867.20	222.58
867.51	222.56
867.82	222.55
868.13	222.58
868.44	222.55
868.75	222.57
869.06	222.58
869.37	222.59
869.68	222.57
869.99	222.59
870.30	222.59
870.61	222.60
870.92	222.59
871.23	222.58
871.54	222.59
871.85	222.62
872.16	222.63
872.47	222.62
872.78	222.57
873.09	222.57
873.40	222.56
873.71	222.57
874.02	222.58
874.33	222.57
874.64	222.55
874.95	222.57
875.26	222.55
875.56	222.55
875.87	222.54
876.18	222.53
876.49	222.63
876.80	222.62
877.11	222.60
877.42	222.60
877.73	222.60
878.04	222.59
878.35	222.59
878.66	222.59
878.96	222.59
879.27	222.58
879.58	222.57
879.89	222.57
880.20	222.60
880.51	222.59
880.82	222.60
881.12	222.60
881.43	222.58
881.74	222.57
882.05	222.56
882.36	222.57
882.67	222.58
882.97	222.47
883.28	222.46
883.59	222.45
883.90	222.46
884.21	222.48
884.51	222.47
884.82	222.45
885.13	222.45
885.44	222.44
885.74	222.45
886.05	222.44
886.36	222.44
886.67	222.40
886.98	222.45
887.28	222.46
887.59	222.45
887.90	222.46
888.20	222.46
888.51	222.48
888.82	222.46
889.13	222.47
889.43	222.56
889.74	222.55
890.05	222.56
890.35	222.54
890.66	222.53
890.97	222.52
891.28	222.51
891.58	222.51
891.89	222.51
892.20	222.49
892.50	222.49
892.81	222.48
893.12	222.48
893.42	222.43
893.73	222.42
894.04	222.42
894.34	222.42
894.65	222.42
894.95	222.41
895.26	222.41
895.57	222.45
895.87	222.35
896.18	222.37
896.48	222.38
896.79	222.37
897.10	222.38
897.40	222.39
897.71	222.40
898.01	222.39
898.32	222.40
898.63	222.40
898.93	222.40
899.24	222.41
899.54	222.40
899.85	222.40
900.15	222.39
900.46	222.39
900.76	222.40
901.07	222.39
901.38	222.39
901.68	222.40
901.99	222.34
902.29	222.35
902.60	222.34
902.90	222.32
903.21	222.32
903.51	222.31
903.82	222.34
904.12	222.34
904.43	222.34
904.73	222.34
905.03	222.35
905.34	222.44
905.64	222.43
905.95	222.43
906.25	222.43
906.56	222.43
906.86	222.42
907.17	222.42
907.47	222.42
907.77	222.41
908.08	222.39
908.38	222.40
908.69	222.41
908.99	222.43
909.30	222.44
909.60	222.44
909.90	222.44
910.21	222.41
910.51	222.39
910.81	222.39
911.12	222.39
911.42	222.39
911.73	222.28
912.03	222.29
912.33	222.31
912.64	222.30
912.94	222.29
913.24	222.28
913.55	222.27
913.85	222.27
914.15	222.29
914.46	222.30
914.76	222.29
915.06	222.28
915.37	222.26
915.67	222.25
915.97	222.25
916.27	222.23
916.58	222.24
916.88	222.24
917.18	222.23
917.49	222.30
917.79	222.29
918.09	222.31
918.39	222.34
918.70	222.33
919.00	222.34
919.30	222.39
919.60	222.39
919.91	222.38
920.21	222.39
920.51	222.36
920.81	222.35
921.12	222.37
921.42	222.37
921.72	222.38
922.02	222.38
922.32	222.39
922.63	222.40
922.93	222.46
923.23	222.46
923.53	222.45
923.83	222.38
924.13	222.39
924.44	222.39
924.74	222.40
925.04	222.42
925.34	222.42
925.64	222.37
925.94	222.37
926.24	222.43
926.55	222.42
926.85	222.43
927.15	222.43
927.45	222.42
927.75	222.42
928.05	222.42
928.35	222.41
928.65	222.43
928.95	222.43
929.26	222.38
929.56	222.40
929.86	222.41
930.16	222.40
930.46	222.39
930.76	222.39
931.06	222.34
931.36	222.31
931.66	222.33
931.96	222.34
932.26	222.34
932.56	222.29
932.86	222.30
933.16	222.30
933.46	222.29
933.76	222.27
934.06	222.29
934.36	222.33
934.66	222.32
934.96	222.31
935.26	222.31
935.56	222.33
935.86	222.30
936.16	222.28
936.46	222.28
936.76	222.28
937.06	222.26
937.36	222.27
937.66	222.28
937.96	222.27
938.26	222.25
938.56	222.24
938.86	222.24
939.16	222.27
939.46	222.27
939.76	222.28
940.06	222.28
940.35	222.26
940.65	222.21
940.95	222.21
941.25	222.19
941.55	222.17
941.85	222.16
942.15	222.19
942.45	222.22
942.75	222.22
943.04	222.22
943.34	222.23
943.64	222.22
943.94	222.21
944.24	222.21
944.54	222.22
944.84	222.22
945.13	222.21
945.43	222.18
945.73	222.18
946.03	222.17
946.33	222.15
946.62	222.14
946.92	222.14
947.22	222.14
947.52	222.15
947.82	222.16
948.11	222.15
948.41	222.13
948.71	222.09
949.01	222.10
949.31	222.09
949.60	222.09
949.90	222.10
950.20	222.10
950.50	222.10
950.79	222.09
951.09	222.11
951.39	222.10
951.69	222.09
951.98	222.11
952.28	222.12
952.58	222.12
952.87	222.12
953.17	222.13
953.47	222.12
953.76	222.12
954.06	222.10
954.36	222.09
954.66	222.09
954.95	222.12
955.25	222.13
955.55	222.13
955.84	222.12
956.14	222.12
956.44	222.12
956.73	222.11
957.03	222.12
957.32	222.11
957.62	222.11
957.92	222.13
958.21	222.12
958.51	222.24
958.81	222.25
959.10	222.26
959.40	222.29
959.69	222.29
959.99	222.31
960.29	222.31
960.58	222.31
960.88	222.34
961.17	222.33
961.47	222.33
961.76	222.32
962.06	222.34
962.36	222.33
962.65	222.34
962.95	222.34
963.24	222.33
963.54	222.34
963.83	222.34
964.13	222.34
964.42	222.33
964.72	222.24
965.01	222.24
965.31	222.23
965.60	222.21
965.90	222.27
966.19	222.24
966.49	222.25
966.78	222.25
967.08	222.24
967.37	222.24
967.67	222.22
967.96	222.24
968.26	222.23
968.55	222.24
968.85	222.24
969.14	222.24
969.43	222.24
969.73	222.23
970.02	222.23
970.32	222.22
970.61	222.20
970.91	222.17
971.20	222.16
971.49	222.15
971.79	222.17
972.08	222.09
972.38	222.11
972.67	222.10
972.96	222.12
973.26	222.10
973.55	222.13
973.85	222.13
974.14	222.12
974.43	222.13
974.73	222.11
975.02	222.11
975.31	222.11
975.61	222.11
975.90	222.10
976.19	222.09
976.49	222.10
976.78	222.11
977.07	222.11
977.37	222.12
977.66	222.13
977.95	222.11
978.24	222.12
978.54	222.14
978.83	222.13
979.12	222.12
979.42	222.12
979.71	222.10
980.00	222.10
980.29	222.10
980.59	222.08
980.88	222.11
981.17	222.11
981.46	222.11
981.76	222.10
982.05	222.14
982.34	222.15
982.63	222.14
982.93	222.14
983.22	222.17
983.51	222.17
983.80	222.18
984.09	222.20
984.39	222.19
984.68	222.17
984.97	222.18
985.26	222.18
985.55	222.19
985.85	222.17
986.14	222.18
986.43	222.19
986.72	222.19
987.01	222.16
987.30	222.16
987.59	222.16
987.89	222.16
988.18	222.13
988.47	222.12
988.76	222.11
989.05	222.11
989.34	222.09
989.63	222.11
989.92	222.10
990.22	222.08
990.51	222.08
990.80	222.07
991.09	222.08
991.38	222.09
991.67	222.08
991.96	222.07
992.25	222.08
992.54	222.06
992.83	222.06
993.12	222.06
993.41	222.08
993.70	222.12
993.99	222.13
994.28	222.15
994.58	222.17
994.87	222.16
995.16	222.15
995.45	222.15
995.74	222.11
996.03	222.13
996.32	222.14
996.61	222.16
996.90	222.16
997.19	222.16
997.48	222.15
997.77	222.14
998.06	222.15
998.34	222.14
998.63	222.13
998.92	222.13
999.21	222.15
999.50	222.14
999.79	222.10
1000.08	222.10
1000.37	222.09
1000.66	222.08
1000.95	222.11
1001.24	222.11
1001.53	222.13
1001.82	222.13
1002.11	222.10
1002.40	222.11
1002.68	222.12
1002.97	222.19
1003.26	222.18
1003.55	222.17
1003.84	222.17
1004.13	222.21
1004.42	222.20
1004.71	222.21
1004.99	222.20
1005.28	222.23
1005.57	222.22
1005.86	222.21
1006.15	222.20
1006.44	222.19
1006.72	222.20
1007.01	222.18
1007.30	222.18
1007.59	222.16
1007.88	222.16
1008.17	222.17
1008.45	222.15
1008.74	222.11
1009.03	222.06
1009.32	222.06
1009.60	222.06
1009.89	222.06
1010.18	222.01
1010.47	222.01
1010.76	222.01
1011.04	222.01
1011.33	222.00
1011.62	222.01
1011.91	222.02
1012.19	222.02
1012.48	222.03
1012.77	222.02
1013.05	222.06
1013.34	222.06
1013.63	222.06
1013.92	222.07
1014.20	222.06
1014.49	222.06
1014.78	222.08
1015.06	222.04
1015.35	222.05
1015.64	222.06
1015.92	222.08
1016.21	222.09
1016.50	222.09
1016.78	222.10
1017.07	222.11
1017.36	222.09
1017.64	222.07
1017.93	222.08
1018.22	222.07
1018.50	222.07
1018.79	222.07
1019.08	222.03
1019.36	222.04
1019.65	222.02
1019.93	222.05
1020.22	222.07
1020.51	222.13
1020.79	222.11
1021.08	221.90
1021.36	221.84
1021.65	222.08
1021.94	222.03
1022.22	222.12
1022.51	221.81
1022.79	222.59
1023.08	222.26
1023.36	223.30
1023.65	221.84
>>>>>End Processed Spectral Data<<<<<
