SpectraSuite Data File
++++++++++++++++++++++++++++++++++++
Date: Thu Oct 01 09:59:54 EDT 2015
User: lab3
Dark Spectrum Present: No
Reference Spectrum Present: No
Number of Sampled Component Spectra: 1
Spectrometers: USB2E7196
Integration Time (usec): 36000 (USB2E7196)
Spectra Averaged: 10000 (USB2E7196)
Boxcar Smoothing: 10 (USB2E7196)
Correct for Electrical Dark: No (USB2E7196)
Strobe/Lamp Enabled: No (USB2E7196)
Correct for Detector Non-linearity: No (USB2E7196)
Correct for Stray Light: No (USB2E7196)
Number of Pixels in Processed Spectrum: 2048
>>>>>Begin Processed Spectral Data<<<<<
339.09	0.00
339.48	210.25
339.86	211.66
340.24	213.02
340.63	214.46
341.01	217.40
341.39	217.12
341.78	218.48
342.16	219.68
342.54	220.15
342.93	208.78
343.31	219.33
343.69	219.86
344.07	220.32
344.46	220.75
344.84	221.14
345.22	221.37
345.60	221.63
345.99	221.82
346.37	221.96
346.75	222.06
347.13	222.14
347.52	222.20
347.90	222.29
348.28	222.32
348.66	222.37
349.05	222.36
349.43	222.41
349.81	222.46
350.19	222.51
350.57	222.58
350.96	222.66
351.34	222.76
351.72	222.85
352.10	222.95
352.48	223.03
352.87	223.08
353.25	223.14
353.63	223.20
354.01	223.26
354.39	223.34
354.77	223.41
355.15	223.51
355.54	223.57
355.92	223.60
356.30	223.68
356.68	223.82
357.06	223.89
357.44	223.94
357.82	224.00
358.20	224.11
358.58	224.17
358.97	224.23
359.35	224.31
359.73	224.39
360.11	224.45
360.49	224.50
360.87	224.56
361.25	224.62
361.63	224.70
362.01	224.76
362.39	224.79
362.77	224.84
363.15	224.86
363.53	224.90
363.91	224.94
364.29	224.96
364.67	224.88
365.05	224.91
365.43	224.95
365.81	224.98
366.19	225.00
366.57	225.04
366.95	225.05
367.33	225.02
367.71	225.02
368.09	225.04
368.47	225.03
368.85	225.03
369.23	225.03
369.61	224.98
369.99	224.99
370.37	225.00
370.75	225.06
371.13	225.02
371.51	224.99
371.89	224.97
372.27	224.94
372.65	224.92
373.03	224.88
373.41	224.83
373.78	224.78
374.16	224.69
374.54	224.61
374.92	224.56
375.30	224.52
375.68	224.45
376.06	224.40
376.44	224.35
376.82	224.31
377.19	224.25
377.57	224.20
377.95	224.12
378.33	224.06
378.71	223.91
379.09	223.86
379.47	223.82
379.84	223.76
380.22	223.70
380.60	223.63
380.98	223.58
381.36	223.53
381.73	223.47
382.11	223.44
382.49	223.40
382.87	223.34
383.25	223.29
383.62	223.37
384.00	223.30
384.38	223.26
384.76	223.24
385.13	223.22
385.51	223.18
385.89	223.13
386.27	223.09
386.64	223.07
387.02	223.03
387.40	222.98
387.78	222.95
388.15	222.92
388.53	222.89
388.91	222.86
389.29	222.82
389.66	222.81
390.04	222.77
390.42	222.77
390.79	222.75
391.17	222.73
391.55	222.60
391.92	222.59
392.30	222.58
392.68	222.55
393.05	222.53
393.43	222.52
393.81	222.53
394.18	222.51
394.56	222.51
394.94	222.53
395.31	222.53
395.69	222.57
396.06	222.60
396.44	222.62
396.82	222.63
397.19	222.70
397.57	222.72
397.95	222.76
398.32	222.75
398.70	222.79
399.07	222.85
399.45	222.88
399.82	222.93
400.20	222.96
400.58	223.02
400.95	223.04
401.33	223.11
401.70	223.25
402.08	223.34
402.45	223.42
402.83	223.52
403.20	223.63
403.58	223.71
403.95	223.84
404.33	223.98
404.71	224.11
405.08	224.29
405.46	224.44
405.83	224.61
406.21	224.78
406.58	224.98
406.96	225.17
407.33	225.40
407.70	225.64
408.08	225.97
408.45	226.26
408.83	226.58
409.20	226.87
409.58	227.13
409.95	227.48
410.33	227.87
410.70	228.23
411.08	228.66
411.45	229.12
411.82	229.57
412.20	230.09
412.57	230.71
412.95	231.20
413.32	231.83
413.69	232.49
414.07	233.18
414.44	233.94
414.82	234.70
415.19	235.60
415.56	236.52
415.94	237.48
416.31	238.55
416.68	239.62
417.06	240.86
417.43	242.03
417.81	243.38
418.18	244.75
418.55	246.24
418.93	247.79
419.30	249.42
419.67	251.15
420.04	252.93
420.42	254.78
420.79	256.92
421.16	259.09
421.54	261.29
421.91	263.59
422.28	265.99
422.66	268.56
423.03	271.02
423.40	273.60
423.77	276.36
424.15	279.19
424.52	282.13
424.89	285.31
425.26	288.47
425.64	291.41
426.01	294.71
426.38	298.08
426.75	301.55
427.13	305.10
427.50	308.81
427.87	312.66
428.24	316.56
428.61	320.28
428.99	324.28
429.36	328.69
429.73	332.89
430.10	337.07
430.47	341.34
430.85	345.73
431.22	350.41
431.59	355.21
431.96	359.88
432.33	365.06
432.70	369.95
433.08	375.76
433.45	381.24
433.82	386.62
434.19	392.64
434.56	398.56
434.93	404.26
435.30	409.90
435.68	416.26
436.05	422.47
436.42	428.69
436.79	434.35
437.16	440.46
437.53	447.02
437.90	453.58
438.27	459.98
438.64	466.94
439.01	473.25
439.38	479.01
439.75	484.59
440.13	490.95
440.50	497.03
440.87	501.84
441.24	507.11
441.61	512.95
441.98	517.24
442.35	522.34
442.72	527.60
443.09	532.62
443.46	535.91
443.83	538.37
444.20	540.47
444.57	543.50
444.94	545.36
445.31	547.29
445.68	549.03
446.05	550.38
446.42	550.36
446.79	550.24
447.16	550.17
447.53	550.14
447.90	548.41
448.27	546.79
448.64	544.15
449.01	542.43
449.37	538.55
449.74	535.03
450.11	530.46
450.48	525.40
450.85	520.32
451.22	516.01
451.59	511.79
451.96	507.95
452.33	502.27
452.70	497.21
453.07	491.02
453.43	484.80
453.80	478.78
454.17	472.99
454.54	467.63
454.91	461.53
455.28	455.80
455.65	450.38
456.02	444.60
456.38	439.95
456.75	433.94
457.12	429.09
457.49	424.19
457.86	419.52
458.23	415.41
458.59	410.87
458.96	406.20
459.33	402.06
459.70	397.86
460.07	394.65
460.43	390.89
460.80	387.35
461.17	384.24
461.54	380.87
461.91	377.74
462.27	374.54
462.64	371.94
463.01	368.95
463.38	365.94
463.74	363.23
464.11	360.80
464.48	358.60
464.85	356.26
465.21	354.45
465.58	352.47
465.95	350.18
466.32	348.36
466.68	346.58
467.05	344.79
467.42	343.07
467.78	341.20
468.15	339.48
468.52	338.21
468.88	336.54
469.25	335.01
469.62	333.79
469.98	332.48
470.35	331.31
470.72	330.25
471.08	329.19
471.45	328.30
471.82	327.32
472.18	326.30
472.55	325.65
472.92	324.84
473.28	324.20
473.65	323.55
474.02	322.93
474.38	322.42
474.75	322.15
475.11	321.73
475.48	321.58
475.85	321.42
476.21	321.38
476.58	321.39
476.94	321.59
477.31	321.72
477.67	321.88
478.04	322.16
478.41	322.51
478.77	322.98
479.14	323.33
479.50	323.90
479.87	324.61
480.23	325.33
480.60	326.02
480.96	326.73
481.33	327.71
481.69	328.70
482.06	329.67
482.42	330.58
482.79	331.67
483.15	332.93
483.52	334.34
483.88	335.70
484.25	337.15
484.61	338.65
484.98	340.28
485.34	342.09
485.71	343.97
486.07	345.97
486.44	347.97
486.80	350.19
487.17	352.47
487.53	354.97
487.90	357.56
488.26	360.37
488.62	363.33
488.99	366.31
489.35	369.41
489.72	372.77
490.08	376.30
490.44	379.92
490.81	383.71
491.17	387.58
491.54	391.72
491.90	395.96
492.26	400.54
492.63	405.35
492.99	410.36
493.36	415.49
493.72	420.89
494.08	426.43
494.45	432.28
494.81	438.36
495.17	444.56
495.54	451.11
495.90	457.97
496.26	464.97
496.63	472.22
496.99	479.76
497.35	487.65
497.72	495.86
498.08	504.23
498.44	512.86
498.80	522.05
499.17	531.47
499.53	541.23
499.89	551.22
500.26	561.39
500.62	571.84
500.98	582.98
501.34	594.27
501.71	606.10
502.07	618.16
502.43	630.60
502.79	643.41
503.16	656.61
503.52	670.02
503.88	683.81
504.24	698.01
504.60	712.52
504.97	727.41
505.33	742.68
505.69	758.88
506.05	775.28
506.41	791.69
506.78	808.41
507.14	825.61
507.50	843.43
507.86	861.61
508.22	880.09
508.59	898.57
508.95	917.79
509.31	937.43
509.67	957.79
510.03	978.36
510.39	999.13
510.75	1020.15
511.12	1041.47
511.48	1063.12
511.84	1084.83
512.20	1106.85
512.56	1130.00
512.92	1153.37
513.28	1176.44
513.64	1199.81
514.00	1223.60
514.37	1247.72
514.73	1271.85
515.09	1295.79
515.45	1320.16
515.81	1345.09
516.17	1370.07
516.53	1394.71
516.89	1419.39
517.25	1444.26
517.61	1469.34
517.97	1494.60
518.33	1519.57
518.69	1544.69
519.05	1570.06
519.41	1595.56
519.77	1621.32
520.13	1646.27
520.49	1671.39
520.85	1696.71
521.21	1721.94
521.57	1747.76
521.93	1772.85
522.29	1798.79
522.65	1824.44
523.01	1849.83
523.37	1874.52
523.73	1899.79
524.09	1925.25
524.45	1950.67
524.81	1975.59
525.17	2000.38
525.53	2024.73
525.89	2049.08
526.25	2073.63
526.61	2097.63
526.97	2121.92
527.33	2146.13
527.68	2170.22
528.04	2193.39
528.40	2216.43
528.76	2239.65
529.12	2261.77
529.48	2284.31
529.84	2304.93
530.20	2326.16
530.56	2347.07
530.91	2367.98
531.27	2388.41
531.63	2408.18
531.99	2427.39
532.35	2446.21
532.71	2465.13
533.07	2484.69
533.42	2502.68
533.78	2521.08
534.14	2539.44
534.50	2556.97
534.86	2575.09
535.21	2591.28
535.57	2607.48
535.93	2622.90
536.29	2637.14
536.65	2652.22
537.00	2666.14
537.36	2680.62
537.72	2694.02
538.08	2707.05
538.44	2718.95
538.79	2731.02
539.15	2741.45
539.51	2751.82
539.87	2761.89
540.22	2769.88
540.58	2777.84
540.94	2786.45
541.29	2793.42
541.65	2799.46
542.01	2804.98
542.37	2808.63
542.72	2814.19
543.08	2819.27
543.44	2824.20
543.79	2828.25
544.15	2831.48
544.51	2834.63
544.87	2836.88
545.22	2838.73
545.58	2839.66
545.94	2841.02
546.29	2840.92
546.65	2840.98
547.01	2841.05
547.36	2841.24
547.72	2841.55
548.07	2840.41
548.43	2838.61
548.79	2836.18
549.14	2833.81
549.50	2832.03
549.86	2829.49
550.21	2824.46
550.57	2819.83
550.92	2813.82
551.28	2808.43
551.64	2802.91
551.99	2797.83
552.35	2792.35
552.70	2786.41
553.06	2781.18
553.41	2775.50
553.77	2769.37
554.13	2763.80
554.48	2757.38
554.84	2749.27
555.19	2741.30
555.55	2732.79
555.90	2724.84
556.26	2717.93
556.61	2710.36
556.97	2700.62
557.32	2691.70
557.68	2683.29
558.03	2674.22
558.39	2665.86
558.74	2657.66
559.10	2648.14
559.45	2638.36
559.81	2628.89
560.16	2618.79
560.52	2608.19
560.87	2598.60
561.23	2588.61
561.58	2578.12
561.94	2567.40
562.29	2556.18
562.64	2545.61
563.00	2535.40
563.35	2525.09
563.71	2513.88
564.06	2502.06
564.42	2491.32
564.77	2480.18
565.12	2469.17
565.48	2457.88
565.83	2447.21
566.19	2436.56
566.54	2425.60
566.89	2413.69
567.25	2401.77
567.60	2390.67
567.96	2379.23
568.31	2366.34
568.66	2353.33
569.02	2341.42
569.37	2329.24
569.72	2317.61
570.08	2305.23
570.43	2292.33
570.78	2279.13
571.14	2265.70
571.49	2253.12
571.84	2240.81
572.20	2227.20
572.55	2213.99
572.90	2200.68
573.26	2186.50
573.61	2171.79
573.96	2157.30
574.31	2143.22
574.67	2129.31
575.02	2115.00
575.37	2100.20
575.72	2085.72
576.08	2071.88
576.43	2057.02
576.78	2042.19
577.13	2028.23
577.49	2014.27
577.84	2000.69
578.19	1986.26
578.54	1971.49
578.90	1956.19
579.25	1940.63
579.60	1926.48
579.95	1911.93
580.30	1897.42
580.66	1883.23
581.01	1868.64
581.36	1854.40
581.71	1840.73
582.06	1826.58
582.42	1812.45
582.77	1799.15
583.12	1785.51
583.47	1771.88
583.82	1758.38
584.17	1744.79
584.53	1730.99
584.88	1717.22
585.23	1703.11
585.58	1689.52
585.93	1676.39
586.28	1664.08
586.63	1651.59
586.98	1638.40
587.34	1625.47
587.69	1612.03
588.04	1598.79
588.39	1586.25
588.74	1573.29
589.09	1560.00
589.44	1546.70
589.79	1534.00
590.14	1521.11
590.49	1508.46
590.84	1495.69
591.19	1483.58
591.54	1470.94
591.89	1458.20
592.25	1445.79
592.60	1432.98
592.95	1420.72
593.30	1408.73
593.65	1396.53
594.00	1384.54
594.35	1373.38
594.70	1361.38
595.05	1350.47
595.40	1339.41
595.75	1327.73
596.10	1316.82
596.45	1306.14
596.80	1295.94
597.15	1285.51
597.50	1275.11
597.85	1264.88
598.19	1254.84
598.54	1244.19
598.89	1234.32
599.24	1224.76
599.59	1214.95
599.94	1206.17
600.29	1197.26
600.64	1188.13
600.99	1178.44
601.34	1169.21
601.69	1159.38
602.04	1150.63
602.39	1141.66
602.74	1132.95
603.08	1124.51
603.43	1115.57
603.78	1106.56
604.13	1097.68
604.48	1088.72
604.83	1080.04
605.18	1071.27
605.53	1062.42
605.87	1053.72
606.22	1045.28
606.57	1036.55
606.92	1027.92
607.27	1019.20
607.62	1010.57
607.96	1002.09
608.31	994.58
608.66	986.65
609.01	979.16
609.36	971.62
609.70	963.87
610.05	955.95
610.40	948.37
610.75	940.94
611.10	933.75
611.44	926.16
611.79	918.89
612.14	911.26
612.49	903.76
612.83	896.73
613.18	889.76
613.53	882.58
613.88	875.50
614.22	869.00
614.57	862.31
614.92	855.61
615.27	848.96
615.61	842.16
615.96	835.62
616.31	828.97
616.65	822.21
617.00	815.71
617.35	809.36
617.70	803.02
618.04	796.74
618.39	790.49
618.74	784.57
619.08	778.49
619.43	772.65
619.78	766.84
620.12	760.83
620.47	755.00
620.82	749.25
621.16	743.80
621.51	738.01
621.85	732.22
622.20	726.47
622.55	720.90
622.89	715.29
623.24	709.70
623.59	704.19
623.93	698.74
624.28	693.43
624.62	688.11
624.97	682.77
625.32	677.56
625.66	672.20
626.01	666.85
626.35	661.62
626.70	656.43
627.04	651.41
627.39	646.47
627.73	641.63
628.08	637.00
628.43	632.26
628.77	627.58
629.12	623.03
629.46	618.67
629.81	614.12
630.15	609.46
630.50	604.97
630.84	600.65
631.19	596.51
631.53	592.42
631.88	588.21
632.22	584.09
632.57	580.21
632.91	576.28
633.26	572.44
633.60	568.67
633.95	564.98
634.29	561.18
634.64	557.33
634.98	553.39
635.32	549.63
635.67	545.98
636.01	542.30
636.36	538.64
636.70	535.12
637.05	531.60
637.39	528.28
637.73	524.85
638.08	521.47
638.42	518.06
638.77	514.51
639.11	510.98
639.45	507.50
639.80	503.98
640.14	500.65
640.49	497.29
640.83	493.83
641.17	490.40
641.52	487.14
641.86	483.88
642.20	480.76
642.55	477.50
642.89	474.32
643.23	471.35
643.58	468.59
643.92	465.72
644.26	462.88
644.61	460.02
644.95	457.17
645.29	454.28
645.64	451.36
645.98	448.57
646.32	445.94
646.66	443.31
647.01	440.67
647.35	438.08
647.69	435.38
648.04	432.82
648.38	430.30
648.72	427.74
649.06	425.25
649.41	422.79
649.75	420.32
650.09	417.88
650.43	415.44
650.78	412.99
651.12	410.53
651.46	408.16
651.80	405.88
652.14	403.69
652.49	401.50
652.83	399.37
653.17	397.23
653.51	395.15
653.85	393.13
654.20	391.06
654.54	388.90
654.88	386.93
655.22	385.03
655.56	383.08
655.90	381.23
656.25	379.39
656.59	377.55
656.93	375.80
657.27	374.10
657.61	372.29
657.95	370.55
658.29	368.82
658.64	367.12
658.98	365.40
659.32	363.69
659.66	362.09
660.00	360.51
660.34	358.96
660.68	357.35
661.02	355.68
661.36	354.12
661.70	352.63
662.05	351.12
662.39	349.59
662.73	348.16
663.07	346.75
663.41	345.36
663.75	343.98
664.09	342.63
664.43	341.19
664.77	339.84
665.11	338.43
665.45	337.10
665.79	335.76
666.13	334.42
666.47	333.06
666.81	331.69
667.15	330.27
667.49	328.97
667.83	327.70
668.17	326.48
668.51	325.29
668.85	324.10
669.19	322.98
669.53	321.80
669.87	320.59
670.21	319.41
670.55	318.24
670.89	317.16
671.23	316.03
671.57	314.93
671.91	313.87
672.25	312.88
672.58	311.88
672.92	310.85
673.26	309.88
673.60	308.93
673.94	307.96
674.28	307.05
674.62	306.13
674.96	305.18
675.30	304.28
675.64	303.35
675.97	302.44
676.31	301.50
676.65	300.58
676.99	299.73
677.33	298.83
677.67	297.97
678.01	297.02
678.34	296.15
678.68	295.35
679.02	294.51
679.36	293.67
679.70	292.83
680.04	292.03
680.37	291.23
680.71	290.45
681.05	289.72
681.39	288.94
681.73	288.13
682.06	287.36
682.40	286.60
682.74	285.87
683.08	285.17
683.42	284.44
683.75	283.79
684.09	283.05
684.43	282.36
684.77	281.66
685.10	281.01
685.44	280.35
685.78	279.66
686.12	279.02
686.45	278.37
686.79	277.71
687.13	277.08
687.46	276.42
687.80	275.78
688.14	275.11
688.48	274.49
688.81	273.88
689.15	273.32
689.49	272.71
689.82	272.12
690.16	271.47
690.50	270.89
690.83	270.30
691.17	269.73
691.51	269.18
691.84	268.65
692.18	268.08
692.52	267.50
692.85	266.95
693.19	266.43
693.52	265.90
693.86	265.37
694.20	264.86
694.53	264.36
694.87	263.86
695.21	263.37
695.54	262.89
695.88	262.39
696.21	261.86
696.55	261.38
696.88	260.90
697.22	260.44
697.56	259.98
697.89	259.46
698.23	258.98
698.56	258.48
698.90	258.03
699.23	257.56
699.57	257.14
699.90	256.71
700.24	256.24
700.58	255.82
700.91	255.43
701.25	255.10
701.58	254.74
701.92	254.37
702.25	253.98
702.59	253.57
702.92	253.19
703.26	252.82
703.59	252.44
703.93	252.15
704.26	251.80
704.60	251.43
704.93	251.09
705.26	250.74
705.60	250.43
705.93	250.07
706.27	249.77
706.60	249.46
706.94	249.16
707.27	248.81
707.61	248.47
707.94	248.12
708.27	247.70
708.61	247.33
708.94	247.00
709.28	246.68
709.61	246.37
709.94	246.09
710.28	245.80
710.61	245.53
710.95	245.16
711.28	244.95
711.61	244.67
711.95	244.43
712.28	244.15
712.61	243.87
712.95	243.67
713.28	243.46
713.61	243.19
713.95	242.91
714.28	242.69
714.61	242.44
714.95	242.21
715.28	241.97
715.61	241.74
715.95	241.52
716.28	241.29
716.61	241.09
716.95	240.86
717.28	240.64
717.61	240.42
717.94	240.20
718.28	239.92
718.61	239.71
718.94	239.48
719.27	239.28
719.61	239.10
719.94	238.88
720.27	238.63
720.60	238.43
720.94	238.24
721.27	238.07
721.60	237.91
721.93	237.73
722.27	237.59
722.60	237.42
722.93	237.23
723.26	237.07
723.59	236.88
723.93	236.73
724.26	236.57
724.59	236.41
724.92	236.26
725.25	236.14
725.59	235.99
725.92	235.86
726.25	235.71
726.58	235.56
726.91	235.40
727.24	235.27
727.57	235.13
727.91	234.97
728.24	234.84
728.57	234.69
728.90	234.56
729.23	234.39
729.56	234.30
729.89	234.17
730.22	234.02
730.55	233.89
730.89	233.76
731.22	233.63
731.55	233.50
731.88	233.37
732.21	233.23
732.54	233.10
732.87	232.99
733.20	232.88
733.53	232.77
733.86	232.67
734.19	232.55
734.52	232.46
734.85	232.43
735.18	232.29
735.51	232.22
735.84	232.11
736.17	232.04
736.50	231.88
736.83	231.91
737.16	231.82
737.49	231.73
737.82	231.63
738.15	231.56
738.48	231.47
738.81	231.37
739.14	231.26
739.47	231.16
739.80	231.06
740.13	230.98
740.46	230.88
740.79	230.77
741.12	230.68
741.45	230.57
741.78	230.43
742.11	230.37
742.44	230.26
742.77	230.19
743.10	230.08
743.43	230.00
743.75	229.80
744.08	229.88
744.41	229.79
744.74	229.71
745.07	229.60
745.40	229.54
745.73	229.51
746.06	229.44
746.39	229.38
746.71	229.30
747.04	229.22
747.37	229.14
747.70	229.09
748.03	229.02
748.36	228.97
748.68	228.90
749.01	228.80
749.34	228.74
749.67	228.67
750.00	228.62
750.33	228.64
750.65	228.58
750.98	228.37
751.31	228.30
751.64	228.25
751.97	228.25
752.29	228.18
752.62	228.07
752.95	227.99
753.28	227.92
753.60	227.85
753.93	227.82
754.26	227.76
754.59	227.67
754.91	227.59
755.24	227.52
755.57	227.51
755.90	227.45
756.22	227.38
756.55	227.30
756.88	227.23
757.20	227.10
757.53	227.01
757.86	226.95
758.19	226.91
758.51	226.85
758.84	226.74
759.17	226.68
759.49	226.64
759.82	226.64
760.15	226.60
760.47	226.56
760.80	226.48
761.13	226.45
761.45	226.41
761.78	226.36
762.11	226.32
762.43	226.22
762.76	226.18
763.08	226.15
763.41	226.11
763.74	226.07
764.06	226.03
764.39	226.00
764.71	225.96
765.04	225.90
765.37	225.86
765.69	225.82
766.02	225.78
766.34	225.73
766.67	225.66
767.00	225.64
767.32	225.66
767.65	225.68
767.97	225.63
768.30	225.60
768.62	225.56
768.95	225.51
769.27	225.48
769.60	225.45
769.92	225.40
770.25	225.35
770.57	225.30
770.90	225.27
771.22	225.22
771.55	225.19
771.87	225.17
772.20	225.14
772.52	225.20
772.85	225.29
773.17	225.26
773.50	225.22
773.82	225.17
774.15	225.09
774.47	224.99
774.80	224.95
775.12	224.93
775.45	224.90
775.77	224.88
776.09	224.86
776.42	224.84
776.74	224.85
777.07	224.82
777.39	224.79
777.72	224.76
778.04	224.75
778.36	224.72
778.69	224.69
779.01	224.68
779.33	224.56
779.66	224.42
779.98	224.39
780.31	224.37
780.63	224.39
780.95	224.39
781.28	224.37
781.60	224.35
781.92	224.33
782.25	224.31
782.57	224.29
782.89	224.26
783.22	224.23
783.54	224.18
783.86	224.18
784.19	224.15
784.51	224.17
784.83	224.13
785.16	224.11
785.48	224.10
785.80	224.08
786.12	224.07
786.45	224.05
786.77	224.05
787.09	224.02
787.42	223.96
787.74	223.94
788.06	223.93
788.38	223.91
788.71	223.88
789.03	223.87
789.35	223.86
789.67	223.83
789.99	223.83
790.32	223.80
790.64	223.80
790.96	223.89
791.28	223.84
791.61	223.82
791.93	223.82
792.25	223.79
792.57	223.85
792.89	223.82
793.21	223.81
793.54	223.79
793.86	223.77
794.18	223.76
794.50	223.73
794.82	223.72
795.14	223.72
795.47	223.73
795.79	223.72
796.11	223.68
796.43	223.67
796.75	223.66
797.07	223.65
797.39	223.63
797.71	223.53
798.04	223.52
798.36	223.52
798.68	223.50
799.00	223.50
799.32	223.44
799.64	223.45
799.96	223.44
800.28	223.45
800.60	223.44
800.92	223.43
801.24	223.42
801.56	223.41
801.89	223.39
802.21	223.39
802.53	223.36
802.85	223.38
803.17	223.42
803.49	223.39
803.81	223.37
804.13	223.35
804.45	223.34
804.77	223.34
805.09	223.32
805.41	223.31
805.73	223.28
806.05	223.24
806.37	223.23
806.69	223.21
807.01	223.19
807.33	223.19
807.65	223.15
807.97	223.19
808.28	223.16
808.60	223.15
808.92	223.13
809.24	223.19
809.56	223.16
809.88	223.11
810.20	223.11
810.52	223.13
810.84	223.11
811.16	223.09
811.48	223.07
811.80	223.10
812.12	223.09
812.43	223.11
812.75	223.11
813.07	223.09
813.39	223.09
813.71	223.07
814.03	223.05
814.35	223.06
814.67	223.01
814.98	223.00
815.30	222.99
815.62	222.97
815.94	222.89
816.26	222.90
816.58	222.87
816.89	222.88
817.21	222.85
817.53	222.85
817.85	222.86
818.17	222.85
818.48	222.80
818.80	222.82
819.12	222.80
819.44	222.78
819.76	222.76
820.07	222.75
820.39	222.75
820.71	222.75
821.03	222.75
821.34	222.74
821.66	222.75
821.98	222.75
822.30	222.75
822.61	222.81
822.93	222.79
823.25	222.78
823.57	222.77
823.88	222.78
824.20	222.77
824.52	222.79
824.83	222.78
825.15	222.77
825.47	222.75
825.79	222.75
826.10	222.75
826.42	222.74
826.74	222.75
827.05	222.74
827.37	222.74
827.69	222.73
828.00	222.72
828.32	222.72
828.64	222.70
828.95	222.75
829.27	222.72
829.58	222.71
829.90	222.73
830.22	222.73
830.53	222.71
830.85	222.69
831.17	222.66
831.48	222.66
831.80	222.66
832.11	222.65
832.43	222.63
832.75	222.63
833.06	222.69
833.38	222.66
833.69	222.65
834.01	222.65
834.32	222.65
834.64	222.64
834.96	222.63
835.27	222.63
835.59	222.58
835.90	222.57
836.22	222.56
836.53	222.54
836.85	222.52
837.16	222.63
837.48	222.63
837.79	222.66
838.11	222.66
838.42	222.66
838.74	222.67
839.05	222.66
839.37	222.65
839.68	222.59
840.00	222.59
840.31	222.60
840.63	222.59
840.94	222.57
841.26	222.56
841.57	222.56
841.88	222.57
842.20	222.55
842.51	222.53
842.83	222.53
843.14	222.63
843.46	222.62
843.77	222.56
844.08	222.55
844.40	222.52
844.71	222.50
845.03	222.49
845.34	222.48
845.65	222.47
845.97	222.48
846.28	222.48
846.60	222.48
846.91	222.47
847.22	222.47
847.54	222.49
847.85	222.50
848.16	222.49
848.48	222.46
848.79	222.50
849.10	222.52
849.42	222.52
849.73	222.42
850.04	222.42
850.36	222.38
850.67	222.39
850.98	222.40
851.30	222.40
851.61	222.40
851.92	222.40
852.23	222.43
852.55	222.43
852.86	222.43
853.17	222.43
853.49	222.45
853.80	222.47
854.11	222.47
854.42	222.48
854.74	222.47
855.05	222.48
855.36	222.42
855.67	222.42
855.99	222.42
856.30	222.55
856.61	222.54
856.92	222.55
857.23	222.55
857.55	222.53
857.86	222.52
858.17	222.54
858.48	222.53
858.79	222.50
859.11	222.51
859.42	222.50
859.73	222.48
860.04	222.47
860.35	222.44
860.66	222.41
860.98	222.40
861.29	222.41
861.60	222.41
861.91	222.43
862.22	222.41
862.53	222.39
862.84	222.27
863.16	222.29
863.47	222.27
863.78	222.25
864.09	222.26
864.40	222.27
864.71	222.27
865.02	222.29
865.33	222.28
865.64	222.26
865.95	222.25
866.27	222.32
866.58	222.31
866.89	222.33
867.20	222.33
867.51	222.31
867.82	222.30
868.13	222.33
868.44	222.31
868.75	222.33
869.06	222.33
869.37	222.35
869.68	222.32
869.99	222.34
870.30	222.35
870.61	222.36
870.92	222.34
871.23	222.33
871.54	222.34
871.85	222.37
872.16	222.38
872.47	222.37
872.78	222.31
873.09	222.31
873.40	222.30
873.71	222.31
874.02	222.32
874.33	222.31
874.64	222.29
874.95	222.30
875.26	222.28
875.56	222.27
875.87	222.27
876.18	222.26
876.49	222.36
876.80	222.35
877.11	222.33
877.42	222.34
877.73	222.34
878.04	222.32
878.35	222.32
878.66	222.32
878.96	222.32
879.27	222.32
879.58	222.31
879.89	222.31
880.20	222.33
880.51	222.33
880.82	222.33
881.12	222.33
881.43	222.31
881.74	222.30
882.05	222.29
882.36	222.30
882.67	222.30
882.97	222.19
883.28	222.18
883.59	222.17
883.90	222.18
884.21	222.19
884.51	222.19
884.82	222.17
885.13	222.16
885.44	222.16
885.74	222.16
886.05	222.16
886.36	222.16
886.67	222.12
886.98	222.17
887.28	222.18
887.59	222.18
887.90	222.19
888.20	222.19
888.51	222.20
888.82	222.18
889.13	222.19
889.43	222.28
889.74	222.28
890.05	222.28
890.35	222.26
890.66	222.24
890.97	222.23
891.28	222.22
891.58	222.22
891.89	222.22
892.20	222.21
892.50	222.20
892.81	222.19
893.12	222.19
893.42	222.13
893.73	222.13
894.04	222.13
894.34	222.13
894.65	222.13
894.95	222.12
895.26	222.13
895.57	222.17
895.87	222.07
896.18	222.09
896.48	222.09
896.79	222.09
897.10	222.10
897.40	222.11
897.71	222.12
898.01	222.11
898.32	222.12
898.63	222.12
898.93	222.13
899.24	222.14
899.54	222.13
899.85	222.13
900.15	222.12
900.46	222.12
900.76	222.13
901.07	222.13
901.38	222.12
901.68	222.13
901.99	222.08
902.29	222.09
902.60	222.08
902.90	222.07
903.21	222.07
903.51	222.06
903.82	222.08
904.12	222.08
904.43	222.08
904.73	222.08
905.03	222.08
905.34	222.18
905.64	222.17
905.95	222.18
906.25	222.17
906.56	222.17
906.86	222.17
907.17	222.16
907.47	222.16
907.77	222.16
908.08	222.13
908.38	222.14
908.69	222.14
908.99	222.17
909.30	222.17
909.60	222.17
909.90	222.18
910.21	222.15
910.51	222.13
910.81	222.13
911.12	222.14
911.42	222.14
911.73	222.03
912.03	222.03
912.33	222.05
912.64	222.05
912.94	222.04
913.24	222.02
913.55	222.01
913.85	222.00
914.15	222.03
914.46	222.04
914.76	222.04
915.06	222.03
915.37	222.01
915.67	222.00
915.97	222.00
916.27	221.98
916.58	221.98
916.88	221.98
917.18	221.97
917.49	222.04
917.79	222.04
918.09	222.06
918.39	222.08
918.70	222.08
919.00	222.08
919.30	222.13
919.60	222.13
919.91	222.12
920.21	222.13
920.51	222.10
920.81	222.09
921.12	222.10
921.42	222.10
921.72	222.11
922.02	222.12
922.32	222.13
922.63	222.14
922.93	222.20
923.23	222.20
923.53	222.19
923.83	222.12
924.13	222.13
924.44	222.13
924.74	222.14
925.04	222.16
925.34	222.16
925.64	222.12
925.94	222.12
926.24	222.18
926.55	222.17
926.85	222.18
927.15	222.18
927.45	222.18
927.75	222.18
928.05	222.18
928.35	222.17
928.65	222.18
928.95	222.19
929.26	222.14
929.56	222.15
929.86	222.16
930.16	222.16
930.46	222.15
930.76	222.15
931.06	222.10
931.36	222.07
931.66	222.08
931.96	222.10
932.26	222.10
932.56	222.06
932.86	222.06
933.16	222.06
933.46	222.06
933.76	222.04
934.06	222.06
934.36	222.09
934.66	222.09
934.96	222.07
935.26	222.08
935.56	222.09
935.86	222.06
936.16	222.05
936.46	222.05
936.76	222.04
937.06	222.03
937.36	222.04
937.66	222.05
937.96	222.04
938.26	222.01
938.56	222.01
938.86	222.01
939.16	222.04
939.46	222.04
939.76	222.05
940.06	222.05
940.35	222.03
940.65	221.97
940.95	221.98
941.25	221.96
941.55	221.95
941.85	221.94
942.15	221.96
942.45	221.98
942.75	221.98
943.04	221.99
943.34	222.01
943.64	221.99
943.94	221.98
944.24	221.98
944.54	221.99
944.84	221.98
945.13	221.97
945.43	221.95
945.73	221.94
946.03	221.94
946.33	221.93
946.62	221.92
946.92	221.92
947.22	221.92
947.52	221.93
947.82	221.95
948.11	221.94
948.41	221.91
948.71	221.88
949.01	221.89
949.31	221.88
949.60	221.87
949.90	221.88
950.20	221.88
950.50	221.87
950.79	221.87
951.09	221.88
951.39	221.88
951.69	221.87
951.98	221.88
952.28	221.88
952.58	221.88
952.87	221.89
953.17	221.90
953.47	221.89
953.76	221.89
954.06	221.87
954.36	221.86
954.66	221.86
954.95	221.88
955.25	221.89
955.55	221.90
955.84	221.88
956.14	221.88
956.44	221.89
956.73	221.88
957.03	221.88
957.32	221.88
957.62	221.88
957.92	221.90
958.21	221.89
958.51	222.01
958.81	222.02
959.10	222.03
959.40	222.05
959.69	222.06
959.99	222.07
960.29	222.08
960.58	222.07
960.88	222.11
961.17	222.10
961.47	222.11
961.76	222.10
962.06	222.12
962.36	222.11
962.65	222.11
962.95	222.12
963.24	222.11
963.54	222.11
963.83	222.12
964.13	222.11
964.42	222.10
964.72	222.01
965.01	222.01
965.31	222.00
965.60	221.98
965.90	222.04
966.19	222.02
966.49	222.02
966.78	222.02
967.08	222.00
967.37	222.01
967.67	221.99
967.96	222.01
968.26	222.00
968.55	222.02
968.85	222.01
969.14	222.01
969.43	222.01
969.73	222.00
970.02	221.99
970.32	221.98
970.61	221.97
970.91	221.94
971.20	221.92
971.49	221.91
971.79	221.92
972.08	221.84
972.38	221.85
972.67	221.85
972.96	221.87
973.26	221.85
973.55	221.88
973.85	221.87
974.14	221.86
974.43	221.87
974.73	221.85
975.02	221.84
975.31	221.84
975.61	221.84
975.90	221.83
976.19	221.82
976.49	221.83
976.78	221.84
977.07	221.84
977.37	221.85
977.66	221.86
977.95	221.84
978.24	221.85
978.54	221.87
978.83	221.86
979.12	221.86
979.42	221.85
979.71	221.83
980.00	221.83
980.29	221.83
980.59	221.81
980.88	221.84
981.17	221.83
981.46	221.84
981.76	221.83
982.05	221.87
982.34	221.87
982.63	221.87
982.93	221.87
983.22	221.90
983.51	221.90
983.80	221.91
984.09	221.92
984.39	221.91
984.68	221.90
984.97	221.90
985.26	221.90
985.55	221.90
985.85	221.88
986.14	221.90
986.43	221.91
986.72	221.91
987.01	221.87
987.30	221.87
987.59	221.87
987.89	221.87
988.18	221.83
988.47	221.83
988.76	221.82
989.05	221.81
989.34	221.79
989.63	221.82
989.92	221.80
990.22	221.78
990.51	221.78
990.80	221.77
991.09	221.78
991.38	221.80
991.67	221.78
991.96	221.77
992.25	221.78
992.54	221.76
992.83	221.76
993.12	221.76
993.41	221.78
993.70	221.81
993.99	221.83
994.28	221.85
994.58	221.86
994.87	221.85
995.16	221.85
995.45	221.85
995.74	221.81
996.03	221.82
996.32	221.84
996.61	221.86
996.90	221.86
997.19	221.86
997.48	221.85
997.77	221.85
998.06	221.86
998.34	221.85
998.63	221.85
998.92	221.85
999.21	221.87
999.50	221.87
999.79	221.83
1000.08	221.83
1000.37	221.83
1000.66	221.81
1000.95	221.84
1001.24	221.85
1001.53	221.86
1001.82	221.86
1002.11	221.83
1002.40	221.84
1002.68	221.86
1002.97	221.93
1003.26	221.92
1003.55	221.91
1003.84	221.92
1004.13	221.95
1004.42	221.94
1004.71	221.94
1004.99	221.93
1005.28	221.95
1005.57	221.95
1005.86	221.94
1006.15	221.93
1006.44	221.91
1006.72	221.93
1007.01	221.91
1007.30	221.91
1007.59	221.90
1007.88	221.90
1008.17	221.91
1008.45	221.89
1008.74	221.84
1009.03	221.79
1009.32	221.80
1009.60	221.80
1009.89	221.80
1010.18	221.75
1010.47	221.75
1010.76	221.75
1011.04	221.75
1011.33	221.75
1011.62	221.76
1011.91	221.76
1012.19	221.77
1012.48	221.77
1012.77	221.77
1013.05	221.81
1013.34	221.81
1013.63	221.80
1013.92	221.81
1014.20	221.80
1014.49	221.81
1014.78	221.82
1015.06	221.79
1015.35	221.79
1015.64	221.80
1015.92	221.82
1016.21	221.82
1016.50	221.83
1016.78	221.84
1017.07	221.85
1017.36	221.82
1017.64	221.81
1017.93	221.82
1018.22	221.81
1018.50	221.81
1018.79	221.80
1019.08	221.76
1019.36	221.77
1019.65	221.76
1019.93	221.79
1020.22	221.81
1020.51	221.86
1020.79	221.85
1021.08	221.64
1021.36	221.63
1021.65	221.81
1021.94	221.73
1022.22	221.87
1022.51	221.62
1022.79	222.30
1023.08	221.93
1023.36	223.04
1023.65	221.54
>>>>>End Processed Spectral Data<<<<<
