SpectraSuite Data File
++++++++++++++++++++++++++++++++++++
Date: Wed Sep 30 16:06:23 EDT 2015
User: lab3
Dark Spectrum Present: No
Reference Spectrum Present: No
Number of Sampled Component Spectra: 1
Spectrometers: USB2E7196
Integration Time (usec): 36000 (USB2E7196)
Spectra Averaged: 3000 (USB2E7196)
Boxcar Smoothing: 10 (USB2E7196)
Correct for Electrical Dark: No (USB2E7196)
Strobe/Lamp Enabled: No (USB2E7196)
Correct for Detector Non-linearity: No (USB2E7196)
Correct for Stray Light: No (USB2E7196)
Number of Pixels in Processed Spectrum: 2048
>>>>>Begin Processed Spectral Data<<<<<
339.09	0.00
339.48	212.01
339.86	213.50
340.24	214.89
340.63	216.34
341.01	219.28
341.39	218.85
341.78	220.31
342.16	221.46
342.54	222.01
342.93	210.51
343.31	221.15
343.69	221.68
344.07	222.14
344.46	222.57
344.84	222.96
345.22	223.19
345.60	223.46
345.99	223.64
346.37	223.78
346.75	223.89
347.13	223.97
347.52	224.04
347.90	224.12
348.28	224.15
348.66	224.21
349.05	224.21
349.43	224.25
349.81	224.30
350.19	224.36
350.57	224.42
350.96	224.50
351.34	224.59
351.72	224.68
352.10	224.79
352.48	224.86
352.87	224.91
353.25	224.98
353.63	225.04
354.01	225.11
354.39	225.18
354.77	225.25
355.15	225.34
355.54	225.40
355.92	225.43
356.30	225.50
356.68	225.63
357.06	225.71
357.44	225.76
357.82	225.82
358.20	225.93
358.58	225.99
358.97	226.06
359.35	226.14
359.73	226.22
360.11	226.27
360.49	226.33
360.87	226.37
361.25	226.43
361.63	226.51
362.01	226.55
362.39	226.59
362.77	226.64
363.15	226.67
363.53	226.70
363.91	226.74
364.29	226.77
364.67	226.69
365.05	226.72
365.43	226.75
365.81	226.78
366.19	226.80
366.57	226.86
366.95	226.85
367.33	226.83
367.71	226.83
368.09	226.84
368.47	226.84
368.85	226.85
369.23	226.86
369.61	226.81
369.99	226.83
370.37	226.82
370.75	226.88
371.13	226.84
371.51	226.81
371.89	226.79
372.27	226.77
372.65	226.75
373.03	226.71
373.41	226.66
373.78	226.60
374.16	226.51
374.54	226.43
374.92	226.38
375.30	226.34
375.68	226.27
376.06	226.23
376.44	226.17
376.82	226.12
377.19	226.06
377.57	226.01
377.95	225.92
378.33	225.86
378.71	225.71
379.09	225.67
379.47	225.63
379.84	225.56
380.22	225.50
380.60	225.42
380.98	225.37
381.36	225.32
381.73	225.26
382.11	225.24
382.49	225.18
382.87	225.12
383.25	225.07
383.62	225.14
384.00	225.07
384.38	225.03
384.76	225.01
385.13	225.00
385.51	224.95
385.89	224.90
386.27	224.86
386.64	224.84
387.02	224.79
387.40	224.74
387.78	224.72
388.15	224.69
388.53	224.67
388.91	224.63
389.29	224.60
389.66	224.59
390.04	224.55
390.42	224.55
390.79	224.53
391.17	224.51
391.55	224.38
391.92	224.37
392.30	224.37
392.68	224.34
393.05	224.32
393.43	224.32
393.81	224.32
394.18	224.30
394.56	224.30
394.94	224.33
395.31	224.32
395.69	224.36
396.06	224.38
396.44	224.40
396.82	224.40
397.19	224.48
397.57	224.49
397.95	224.52
398.32	224.51
398.70	224.55
399.07	224.61
399.45	224.65
399.82	224.68
400.20	224.71
400.58	224.76
400.95	224.78
401.33	224.85
401.70	224.98
402.08	225.08
402.45	225.15
402.83	225.25
403.20	225.34
403.58	225.42
403.95	225.54
404.33	225.67
404.71	225.80
405.08	225.97
405.46	226.11
405.83	226.27
406.21	226.45
406.58	226.63
406.96	226.81
407.33	227.02
407.70	227.26
408.08	227.59
408.45	227.86
408.83	228.17
409.20	228.44
409.58	228.69
409.95	229.03
410.33	229.40
410.70	229.75
411.08	230.17
411.45	230.60
411.82	231.04
412.20	231.54
412.57	232.14
412.95	232.61
413.32	233.22
413.69	233.84
414.07	234.50
414.44	235.23
414.82	235.97
415.19	236.83
415.56	237.72
415.94	238.62
416.31	239.65
416.68	240.68
417.06	241.86
417.43	242.98
417.81	244.27
418.18	245.58
418.55	247.01
418.93	248.49
419.30	250.06
419.67	251.70
420.04	253.40
420.42	255.17
420.79	257.23
421.16	259.30
421.54	261.41
421.91	263.62
422.28	265.91
422.66	268.38
423.03	270.75
423.40	273.22
423.77	275.88
424.15	278.60
424.52	281.43
424.89	284.51
425.26	287.56
425.64	290.40
426.01	293.58
426.38	296.84
426.75	300.22
427.13	303.66
427.50	307.28
427.87	311.04
428.24	314.83
428.61	318.46
428.99	322.37
429.36	326.65
429.73	330.76
430.10	334.86
430.47	339.04
430.85	343.34
431.22	347.94
431.59	352.65
431.96	357.25
432.33	362.33
432.70	367.15
433.08	372.87
433.45	378.27
433.82	383.58
434.19	389.51
434.56	395.33
434.93	400.94
435.30	406.48
435.68	412.71
436.05	418.82
436.42	424.92
436.79	430.48
437.16	436.50
437.53	442.92
437.90	449.33
438.27	455.60
438.64	462.39
439.01	468.51
439.38	474.10
439.75	479.51
440.13	485.64
440.50	491.48
440.87	496.05
441.24	501.08
441.61	506.65
441.98	510.70
442.35	515.54
442.72	520.49
443.09	525.22
443.46	528.25
443.83	530.47
444.20	532.34
444.57	535.08
444.94	536.67
445.31	538.31
445.68	539.75
446.05	540.81
446.42	540.57
446.79	540.22
447.16	539.94
447.53	539.69
447.90	537.81
448.27	536.06
448.64	533.32
449.01	531.50
449.37	527.58
449.74	524.03
450.11	519.45
450.48	514.43
450.85	509.38
451.22	505.10
451.59	500.88
451.96	497.05
452.33	491.49
452.70	486.54
453.07	480.53
453.43	474.52
453.80	468.70
454.17	463.10
454.54	457.92
454.91	452.07
455.28	446.56
455.65	441.39
456.02	435.87
456.38	431.42
456.75	425.67
457.12	421.06
457.49	416.39
457.86	411.96
458.23	408.08
458.59	403.79
458.96	399.38
459.33	395.51
459.70	391.58
460.07	388.58
460.43	385.03
460.80	381.71
461.17	378.78
461.54	375.64
461.91	372.69
462.27	369.68
462.64	367.23
463.01	364.42
463.38	361.58
463.74	358.99
464.11	356.70
464.48	354.64
464.85	352.42
465.21	350.72
465.58	348.83
465.95	346.65
466.32	344.91
466.68	343.21
467.05	341.52
467.42	339.86
467.78	338.09
468.15	336.43
468.52	335.21
468.88	333.61
469.25	332.13
469.62	330.97
469.98	329.71
470.35	328.59
470.72	327.57
471.08	326.54
471.45	325.69
471.82	324.75
472.18	323.77
472.55	323.13
472.92	322.35
473.28	321.75
473.65	321.12
474.02	320.53
474.38	320.04
474.75	319.76
475.11	319.36
475.48	319.21
475.85	319.06
476.21	319.01
476.58	319.02
476.94	319.20
477.31	319.33
477.67	319.48
478.04	319.74
478.41	320.09
478.77	320.55
479.14	320.89
479.50	321.45
479.87	322.15
480.23	322.84
480.60	323.51
480.96	324.21
481.33	325.15
481.69	326.10
482.06	327.06
482.42	327.96
482.79	329.05
483.15	330.28
483.52	331.66
483.88	333.00
484.25	334.43
484.61	335.92
484.98	337.51
485.34	339.30
485.71	341.16
486.07	343.13
486.44	345.09
486.80	347.27
487.17	349.51
487.53	351.97
487.90	354.54
488.26	357.31
488.62	360.23
488.99	363.18
489.35	366.26
489.72	369.56
490.08	373.05
490.44	376.62
490.81	380.36
491.17	384.20
491.54	388.30
491.90	392.50
492.26	397.04
492.63	401.79
492.99	406.74
493.36	411.81
493.72	417.14
494.08	422.64
494.45	428.41
494.81	434.39
495.17	440.51
495.54	446.96
495.90	453.74
496.26	460.65
496.63	467.79
496.99	475.25
497.35	483.07
497.72	491.17
498.08	499.42
498.44	507.94
498.80	516.97
499.17	526.24
499.53	535.81
499.89	545.60
500.26	555.61
500.62	565.88
500.98	576.84
501.34	587.92
501.71	599.56
502.07	611.40
502.43	623.66
502.79	636.20
503.16	649.18
503.52	662.29
503.88	675.78
504.24	689.73
504.60	703.87
504.97	718.40
505.33	733.36
505.69	749.19
506.05	765.22
506.41	781.27
506.78	797.62
507.14	814.47
507.50	831.84
507.86	849.60
508.22	867.62
508.59	885.69
508.95	904.47
509.31	923.70
509.67	943.60
510.03	963.70
510.39	984.02
510.75	1004.51
511.12	1025.32
511.48	1046.36
511.84	1067.61
512.20	1089.22
512.56	1111.91
512.92	1134.60
513.28	1157.03
513.64	1179.84
514.00	1203.08
514.37	1226.61
514.73	1250.18
515.09	1273.56
515.45	1297.36
515.81	1321.67
516.17	1345.95
516.53	1370.00
516.89	1394.09
517.25	1418.36
517.61	1442.81
517.97	1467.53
518.33	1492.05
518.69	1516.67
519.05	1541.63
519.41	1566.61
519.77	1591.87
520.13	1616.34
520.49	1641.09
520.85	1666.05
521.21	1690.79
521.57	1716.11
521.93	1740.70
522.29	1766.02
522.65	1791.15
523.01	1816.08
523.37	1840.18
523.73	1865.10
524.09	1890.21
524.45	1915.08
524.81	1939.40
525.17	1963.63
525.53	1987.41
525.89	2011.19
526.25	2035.19
526.61	2058.56
526.97	2082.27
527.33	2105.82
527.68	2129.08
528.04	2151.72
528.40	2174.13
528.76	2196.78
529.12	2218.39
529.48	2240.48
529.84	2260.77
530.20	2281.42
530.56	2301.71
530.91	2322.28
531.27	2342.22
531.63	2361.34
531.99	2380.13
532.35	2398.85
532.71	2417.67
533.07	2436.91
533.42	2454.75
533.78	2472.82
534.14	2490.97
534.50	2508.17
534.86	2526.02
535.21	2542.18
535.57	2557.92
535.93	2573.24
536.29	2587.07
536.65	2601.81
537.00	2615.45
537.36	2629.77
537.72	2643.17
538.08	2656.15
538.44	2668.07
538.79	2680.11
539.15	2690.51
539.51	2700.66
539.87	2710.12
540.22	2717.37
540.58	2725.13
540.94	2733.18
541.29	2740.01
541.65	2745.84
542.01	2751.20
542.37	2754.71
542.72	2760.24
543.08	2765.07
543.44	2769.63
543.79	2773.92
544.15	2776.95
544.51	2780.01
544.87	2782.05
545.22	2783.81
545.58	2784.68
545.94	2785.91
546.29	2785.77
546.65	2785.45
547.01	2785.58
547.36	2785.75
547.72	2786.31
548.07	2785.23
548.43	2783.71
548.79	2781.42
549.14	2779.00
549.50	2777.31
549.86	2774.40
550.21	2769.49
550.57	2765.06
550.92	2759.35
551.28	2754.04
551.64	2748.83
551.99	2743.80
552.35	2738.46
552.70	2732.61
553.06	2727.42
553.41	2721.73
553.77	2715.23
554.13	2709.98
554.48	2703.27
554.84	2695.41
555.19	2687.58
555.55	2679.23
555.90	2671.37
556.26	2664.54
556.61	2657.04
556.97	2647.51
557.32	2639.23
557.68	2630.75
558.03	2622.00
558.39	2613.88
558.74	2605.75
559.10	2596.70
559.45	2587.04
559.81	2577.63
560.16	2567.64
560.52	2557.51
560.87	2548.30
561.23	2538.68
561.58	2528.66
561.94	2518.57
562.29	2507.86
562.64	2497.67
563.00	2487.69
563.35	2477.61
563.71	2466.31
564.06	2455.03
564.42	2444.49
564.77	2433.62
565.12	2422.85
565.48	2411.88
565.83	2401.51
566.19	2391.31
566.54	2380.29
566.89	2368.86
567.25	2357.45
567.60	2346.77
567.96	2335.51
568.31	2323.02
568.66	2310.80
569.02	2299.41
569.37	2287.80
569.72	2276.72
570.08	2265.01
570.43	2252.74
570.78	2240.02
571.14	2227.57
571.49	2215.50
571.84	2203.68
572.20	2190.70
572.55	2178.22
572.90	2165.41
573.26	2151.68
573.61	2137.36
573.96	2123.63
574.31	2109.98
574.67	2096.62
575.02	2082.76
575.37	2068.62
575.72	2054.68
576.08	2041.02
576.43	2026.30
576.78	2011.79
577.13	1997.99
577.49	1984.27
577.84	1970.97
578.19	1956.93
578.54	1942.48
578.90	1927.64
579.25	1912.56
579.60	1898.89
579.95	1884.80
580.30	1870.86
580.66	1857.12
581.01	1843.03
581.36	1829.29
581.71	1816.28
582.06	1802.54
582.42	1789.19
582.77	1776.21
583.12	1762.86
583.47	1749.85
583.82	1736.98
584.17	1723.88
584.53	1710.74
584.88	1697.57
585.23	1683.98
585.58	1671.00
585.93	1658.27
586.28	1646.34
586.63	1634.10
586.98	1621.14
587.34	1608.38
587.69	1595.21
588.04	1582.54
588.39	1570.32
588.74	1557.47
589.09	1544.49
589.44	1531.59
589.79	1519.03
590.14	1506.57
590.49	1494.25
590.84	1481.79
591.19	1469.80
591.54	1457.44
591.89	1444.86
592.25	1432.58
592.60	1420.07
592.95	1408.07
593.30	1396.47
593.65	1384.65
594.00	1373.17
594.35	1362.19
594.70	1350.54
595.05	1339.78
595.40	1328.63
595.75	1317.14
596.10	1306.54
596.45	1296.12
596.80	1286.11
597.15	1275.93
597.50	1265.60
597.85	1255.60
598.19	1245.70
598.54	1235.38
598.89	1225.77
599.24	1216.30
599.59	1206.75
599.94	1198.15
600.29	1189.36
600.64	1180.29
600.99	1170.59
601.34	1161.38
601.69	1151.83
602.04	1143.29
602.39	1134.73
602.74	1126.39
603.08	1118.21
603.43	1109.58
603.78	1100.81
604.13	1092.15
604.48	1083.43
604.83	1074.97
605.18	1066.40
605.53	1057.75
605.87	1049.17
606.22	1040.79
606.57	1032.32
606.92	1023.81
607.27	1015.07
607.62	1006.56
607.96	998.27
608.31	991.03
608.66	983.41
609.01	976.05
609.36	968.62
609.70	960.90
610.05	953.11
610.40	945.65
610.75	938.17
611.10	930.98
611.44	923.52
611.79	916.26
612.14	908.67
612.49	901.32
612.83	894.37
613.18	887.48
613.53	880.50
613.88	873.61
614.22	867.34
614.57	860.83
614.92	854.29
615.27	847.78
615.61	841.11
615.96	834.58
616.31	828.00
616.65	821.41
617.00	815.01
617.35	808.74
617.70	802.51
618.04	796.42
618.39	790.28
618.74	784.45
619.08	778.50
619.43	772.77
619.78	766.96
620.12	761.09
620.47	755.39
620.82	749.78
621.16	744.40
621.51	738.63
621.85	732.94
622.20	727.34
622.55	721.85
622.89	716.25
623.24	710.78
623.59	705.40
623.93	700.06
624.28	694.87
624.62	689.63
624.97	684.37
625.32	679.21
625.66	673.93
626.01	668.64
626.35	663.48
626.70	658.40
627.04	653.57
627.39	648.74
627.73	644.01
628.08	639.46
628.43	634.73
628.77	630.08
629.12	625.60
629.46	621.24
629.81	616.71
630.15	612.17
630.50	607.74
630.84	603.50
631.19	599.42
631.53	595.34
631.88	591.21
632.22	587.16
632.57	583.31
632.91	579.41
633.26	575.60
633.60	571.87
633.95	568.29
634.29	564.50
634.64	560.69
634.98	556.81
635.32	553.05
635.67	549.47
636.01	545.87
636.36	542.28
636.70	538.84
637.05	535.42
637.39	532.13
637.73	528.67
638.08	525.31
638.42	521.90
638.77	518.42
639.11	514.84
639.45	511.37
639.80	507.93
640.14	504.64
640.49	501.30
640.83	497.82
641.17	494.42
641.52	491.15
641.86	487.87
642.20	484.80
642.55	481.55
642.89	478.40
643.23	475.42
643.58	472.71
643.92	469.81
644.26	466.96
644.61	464.11
644.95	461.29
645.29	458.37
645.64	455.47
645.98	452.70
646.32	450.14
646.66	447.52
647.01	444.88
647.35	442.29
647.69	439.60
648.04	437.12
648.38	434.60
648.72	432.05
649.06	429.61
649.41	427.15
649.75	424.70
650.09	422.29
650.43	419.87
650.78	417.40
651.12	414.93
651.46	412.58
651.80	410.33
652.14	408.13
652.49	405.97
652.83	403.85
653.17	401.70
653.51	399.62
653.85	397.61
654.20	395.52
654.54	393.37
654.88	391.41
655.22	389.46
655.56	387.50
655.90	385.65
656.25	383.78
656.59	381.94
656.93	380.20
657.27	378.47
657.61	376.67
657.95	374.92
658.29	373.19
658.64	371.44
658.98	369.70
659.32	367.98
659.66	366.37
660.00	364.75
660.34	363.20
660.68	361.57
661.02	359.89
661.36	358.36
661.70	356.85
662.05	355.31
662.39	353.78
662.73	352.33
663.07	350.90
663.41	349.51
663.75	348.12
664.09	346.73
664.43	345.26
664.77	343.92
665.11	342.51
665.45	341.18
665.79	339.86
666.13	338.51
666.47	337.18
666.81	335.80
667.15	334.40
667.49	333.07
667.83	331.82
668.17	330.58
668.51	329.35
668.85	328.16
669.19	327.05
669.53	325.86
669.87	324.65
670.21	323.47
670.55	322.28
670.89	321.19
671.23	320.06
671.57	318.95
671.91	317.88
672.25	316.87
672.58	315.85
672.92	314.82
673.26	313.85
673.60	312.87
673.94	311.89
674.28	310.97
674.62	310.03
674.96	309.06
675.30	308.16
675.64	307.24
675.97	306.33
676.31	305.38
676.65	304.47
676.99	303.62
677.33	302.72
677.67	301.86
678.01	300.92
678.34	300.06
678.68	299.24
679.02	298.40
679.36	297.56
679.70	296.72
680.04	295.91
680.37	295.08
680.71	294.31
681.05	293.57
681.39	292.80
681.73	292.00
682.06	291.23
682.40	290.47
682.74	289.73
683.08	289.01
683.42	288.30
683.75	287.64
684.09	286.90
684.43	286.20
684.77	285.49
685.10	284.84
685.44	284.16
685.78	283.48
686.12	282.84
686.45	282.18
686.79	281.52
687.13	280.87
687.46	280.21
687.80	279.57
688.14	278.90
688.48	278.28
688.81	277.66
689.15	277.09
689.49	276.48
689.82	275.88
690.16	275.22
690.50	274.62
690.83	274.02
691.17	273.43
691.51	272.85
691.84	272.30
692.18	271.71
692.52	271.12
692.85	270.55
693.19	270.03
693.52	269.49
693.86	268.96
694.20	268.44
694.53	267.93
694.87	267.41
695.21	266.90
695.54	266.39
695.88	265.87
696.21	265.33
696.55	264.83
696.88	264.33
697.22	263.85
697.56	263.37
697.89	262.84
698.23	262.36
698.56	261.87
698.90	261.41
699.23	260.93
699.57	260.50
699.90	260.04
700.24	259.56
700.58	259.12
700.91	258.71
701.25	258.37
701.58	258.00
701.92	257.61
702.25	257.21
702.59	256.79
702.92	256.40
703.26	256.01
703.59	255.61
703.93	255.31
704.26	254.94
704.60	254.57
704.93	254.22
705.26	253.86
705.60	253.53
705.93	253.16
706.27	252.85
706.60	252.52
706.94	252.20
707.27	251.83
707.61	251.47
707.94	251.12
708.27	250.68
708.61	250.30
708.94	249.94
709.28	249.61
709.61	249.29
709.94	249.00
710.28	248.70
710.61	248.42
710.95	248.04
711.28	247.82
711.61	247.53
711.95	247.26
712.28	246.97
712.61	246.68
712.95	246.46
713.28	246.24
713.61	245.96
713.95	245.68
714.28	245.44
714.61	245.19
714.95	244.94
715.28	244.69
715.61	244.44
715.95	244.22
716.28	243.98
716.61	243.78
716.95	243.53
717.28	243.30
717.61	243.07
717.94	242.85
718.28	242.56
718.61	242.33
718.94	242.10
719.27	241.90
719.61	241.70
719.94	241.47
720.27	241.20
720.60	240.99
720.94	240.79
721.27	240.60
721.60	240.43
721.93	240.25
722.27	240.09
722.60	239.92
722.93	239.73
723.26	239.54
723.59	239.35
723.93	239.19
724.26	239.02
724.59	238.85
724.92	238.69
725.25	238.56
725.59	238.40
725.92	238.26
726.25	238.10
726.58	237.95
726.91	237.78
727.24	237.65
727.57	237.50
727.91	237.34
728.24	237.20
728.57	237.04
728.90	236.91
729.23	236.73
729.56	236.63
729.89	236.49
730.22	236.35
730.55	236.21
730.89	236.07
731.22	235.93
731.55	235.79
731.88	235.66
732.21	235.51
732.54	235.37
732.87	235.25
733.20	235.14
733.53	235.02
733.86	234.91
734.19	234.78
734.52	234.68
734.85	234.64
735.18	234.50
735.51	234.42
735.84	234.31
736.17	234.23
736.50	234.06
736.83	234.08
737.16	233.98
737.49	233.88
737.82	233.78
738.15	233.70
738.48	233.60
738.81	233.50
739.14	233.39
739.47	233.29
739.80	233.18
740.13	233.09
740.46	232.98
740.79	232.87
741.12	232.77
741.45	232.66
741.78	232.51
742.11	232.45
742.44	232.34
742.77	232.26
743.10	232.16
743.43	232.07
743.75	231.88
744.08	231.94
744.41	231.85
744.74	231.76
745.07	231.65
745.40	231.59
745.73	231.56
746.06	231.48
746.39	231.42
746.71	231.33
747.04	231.25
747.37	231.17
747.70	231.13
748.03	231.06
748.36	231.01
748.68	230.94
749.01	230.83
749.34	230.76
749.67	230.70
750.00	230.64
750.33	230.65
750.65	230.59
750.98	230.37
751.31	230.31
751.64	230.25
751.97	230.24
752.29	230.17
752.62	230.05
752.95	229.99
753.28	229.91
753.60	229.84
753.93	229.79
754.26	229.74
754.59	229.63
754.91	229.55
755.24	229.48
755.57	229.47
755.90	229.40
756.22	229.34
756.55	229.26
756.88	229.18
757.20	229.06
757.53	228.98
757.86	228.92
758.19	228.87
758.51	228.81
758.84	228.71
759.17	228.65
759.49	228.61
759.82	228.60
760.15	228.57
760.47	228.51
760.80	228.44
761.13	228.41
761.45	228.36
761.78	228.33
762.11	228.29
762.43	228.18
762.76	228.15
763.08	228.11
763.41	228.07
763.74	228.04
764.06	227.99
764.39	227.95
764.71	227.90
765.04	227.84
765.37	227.79
765.69	227.75
766.02	227.70
766.34	227.65
766.67	227.58
767.00	227.55
767.32	227.57
767.65	227.59
767.97	227.55
768.30	227.51
768.62	227.46
768.95	227.41
769.27	227.38
769.60	227.35
769.92	227.29
770.25	227.24
770.57	227.18
770.90	227.14
771.22	227.10
771.55	227.07
771.87	227.04
772.20	227.01
772.52	227.06
772.85	227.16
773.17	227.13
773.50	227.08
773.82	227.03
774.15	226.95
774.47	226.85
774.80	226.81
775.12	226.78
775.45	226.75
775.77	226.73
776.09	226.71
776.42	226.67
776.74	226.68
777.07	226.65
777.39	226.63
777.72	226.60
778.04	226.59
778.36	226.56
778.69	226.54
779.01	226.52
779.33	226.40
779.66	226.26
779.98	226.23
780.31	226.21
780.63	226.24
780.95	226.24
781.28	226.22
781.60	226.20
781.92	226.18
782.25	226.16
782.57	226.14
782.89	226.11
783.22	226.09
783.54	226.05
783.86	226.04
784.19	226.01
784.51	226.03
784.83	226.00
785.16	225.98
785.48	225.95
785.80	225.94
786.12	225.93
786.45	225.91
786.77	225.90
787.09	225.89
787.42	225.83
787.74	225.81
788.06	225.79
788.38	225.78
788.71	225.75
789.03	225.75
789.35	225.75
789.67	225.72
789.99	225.71
790.32	225.67
790.64	225.67
790.96	225.75
791.28	225.70
791.61	225.68
791.93	225.67
792.25	225.66
792.57	225.71
792.89	225.68
793.21	225.68
793.54	225.65
793.86	225.63
794.18	225.62
794.50	225.58
794.82	225.57
795.14	225.57
795.47	225.58
795.79	225.56
796.11	225.52
796.43	225.51
796.75	225.49
797.07	225.49
797.39	225.47
797.71	225.37
798.04	225.36
798.36	225.36
798.68	225.34
799.00	225.34
799.32	225.28
799.64	225.29
799.96	225.28
800.28	225.29
800.60	225.27
800.92	225.26
801.24	225.26
801.56	225.25
801.89	225.23
802.21	225.22
802.53	225.20
802.85	225.22
803.17	225.26
803.49	225.23
803.81	225.20
804.13	225.19
804.45	225.17
804.77	225.17
805.09	225.15
805.41	225.13
805.73	225.10
806.05	225.06
806.37	225.04
806.69	225.02
807.01	225.00
807.33	225.00
807.65	224.95
807.97	224.99
808.28	224.96
808.60	224.94
808.92	224.92
809.24	224.98
809.56	224.94
809.88	224.90
810.20	224.90
810.52	224.91
810.84	224.90
811.16	224.88
811.48	224.86
811.80	224.89
812.12	224.89
812.43	224.91
812.75	224.91
813.07	224.89
813.39	224.88
813.71	224.87
814.03	224.85
814.35	224.85
814.67	224.80
814.98	224.79
815.30	224.78
815.62	224.77
815.94	224.69
816.26	224.70
816.58	224.68
816.89	224.68
817.21	224.64
817.53	224.64
817.85	224.64
818.17	224.64
818.48	224.58
818.80	224.59
819.12	224.57
819.44	224.55
819.76	224.54
820.07	224.53
820.39	224.52
820.71	224.53
821.03	224.52
821.34	224.51
821.66	224.52
821.98	224.52
822.30	224.51
822.61	224.57
822.93	224.55
823.25	224.55
823.57	224.54
823.88	224.55
824.20	224.55
824.52	224.56
824.83	224.55
825.15	224.54
825.47	224.52
825.79	224.53
826.10	224.52
826.42	224.51
826.74	224.53
827.05	224.52
827.37	224.51
827.69	224.51
828.00	224.51
828.32	224.50
828.64	224.49
828.95	224.54
829.27	224.50
829.58	224.50
829.90	224.51
830.22	224.51
830.53	224.49
830.85	224.48
831.17	224.45
831.48	224.45
831.80	224.46
832.11	224.45
832.43	224.43
832.75	224.43
833.06	224.49
833.38	224.46
833.69	224.45
834.01	224.46
834.32	224.45
834.64	224.44
834.96	224.45
835.27	224.44
835.59	224.41
835.90	224.39
836.22	224.38
836.53	224.36
836.85	224.35
837.16	224.45
837.48	224.45
837.79	224.48
838.11	224.49
838.42	224.48
838.74	224.49
839.05	224.48
839.37	224.48
839.68	224.41
840.00	224.40
840.31	224.41
840.63	224.40
840.94	224.39
841.26	224.38
841.57	224.37
841.88	224.37
842.20	224.36
842.51	224.34
842.83	224.34
843.14	224.43
843.46	224.42
843.77	224.36
844.08	224.36
844.40	224.32
844.71	224.30
845.03	224.29
845.34	224.28
845.65	224.28
845.97	224.28
846.28	224.28
846.60	224.29
846.91	224.27
847.22	224.27
847.54	224.29
847.85	224.29
848.16	224.28
848.48	224.26
848.79	224.30
849.10	224.31
849.42	224.31
849.73	224.21
850.04	224.22
850.36	224.19
850.67	224.20
850.98	224.21
851.30	224.22
851.61	224.22
851.92	224.21
852.23	224.24
852.55	224.24
852.86	224.24
853.17	224.25
853.49	224.27
853.80	224.29
854.11	224.29
854.42	224.30
854.74	224.30
855.05	224.30
855.36	224.25
855.67	224.26
855.99	224.26
856.30	224.38
856.61	224.38
856.92	224.38
857.23	224.38
857.55	224.37
857.86	224.36
858.17	224.38
858.48	224.35
858.79	224.33
859.11	224.34
859.42	224.33
859.73	224.31
860.04	224.30
860.35	224.27
860.66	224.24
860.98	224.23
861.29	224.24
861.60	224.23
861.91	224.25
862.22	224.24
862.53	224.22
862.84	224.09
863.16	224.11
863.47	224.09
863.78	224.08
864.09	224.08
864.40	224.09
864.71	224.09
865.02	224.11
865.33	224.10
865.64	224.09
865.95	224.09
866.27	224.14
866.58	224.14
866.89	224.16
867.20	224.16
867.51	224.15
867.82	224.15
868.13	224.18
868.44	224.15
868.75	224.17
869.06	224.18
869.37	224.20
869.68	224.18
869.99	224.20
870.30	224.20
870.61	224.21
870.92	224.19
871.23	224.18
871.54	224.19
871.85	224.22
872.16	224.23
872.47	224.22
872.78	224.17
873.09	224.17
873.40	224.16
873.71	224.16
874.02	224.17
874.33	224.15
874.64	224.13
874.95	224.15
875.26	224.13
875.56	224.12
875.87	224.11
876.18	224.11
876.49	224.20
876.80	224.19
877.11	224.17
877.42	224.18
877.73	224.18
878.04	224.16
878.35	224.15
878.66	224.16
878.96	224.16
879.27	224.15
879.58	224.14
879.89	224.14
880.20	224.17
880.51	224.17
880.82	224.17
881.12	224.18
881.43	224.16
881.74	224.14
882.05	224.14
882.36	224.14
882.67	224.15
882.97	224.03
883.28	224.02
883.59	224.03
883.90	224.03
884.21	224.05
884.51	224.04
884.82	224.02
885.13	224.02
885.44	224.02
885.74	224.02
886.05	224.01
886.36	224.01
886.67	223.97
886.98	224.02
887.28	224.03
887.59	224.03
887.90	224.03
888.20	224.03
888.51	224.05
888.82	224.03
889.13	224.04
889.43	224.14
889.74	224.13
890.05	224.13
890.35	224.11
890.66	224.08
890.97	224.07
891.28	224.06
891.58	224.07
891.89	224.07
892.20	224.06
892.50	224.05
892.81	224.04
893.12	224.04
893.42	223.98
893.73	223.98
894.04	223.98
894.34	223.98
894.65	223.97
894.95	223.96
895.26	223.96
895.57	224.00
895.87	223.89
896.18	223.91
896.48	223.92
896.79	223.92
897.10	223.94
897.40	223.94
897.71	223.96
898.01	223.94
898.32	223.95
898.63	223.95
898.93	223.96
899.24	223.96
899.54	223.95
899.85	223.95
900.15	223.95
900.46	223.95
900.76	223.96
901.07	223.96
901.38	223.95
901.68	223.96
901.99	223.91
902.29	223.92
902.60	223.90
902.90	223.90
903.21	223.90
903.51	223.88
903.82	223.90
904.12	223.90
904.43	223.90
904.73	223.89
905.03	223.90
905.34	223.99
905.64	223.98
905.95	223.99
906.25	223.99
906.56	223.98
906.86	223.98
907.17	223.96
907.47	223.97
907.77	223.97
908.08	223.94
908.38	223.95
908.69	223.95
908.99	223.97
909.30	223.97
909.60	223.97
909.90	223.98
910.21	223.95
910.51	223.93
910.81	223.94
911.12	223.94
911.42	223.94
911.73	223.83
912.03	223.85
912.33	223.86
912.64	223.85
912.94	223.84
913.24	223.83
913.55	223.82
913.85	223.82
914.15	223.84
914.46	223.86
914.76	223.85
915.06	223.84
915.37	223.81
915.67	223.81
915.97	223.82
916.27	223.79
916.58	223.79
916.88	223.79
917.18	223.78
917.49	223.84
917.79	223.84
918.09	223.86
918.39	223.87
918.70	223.87
919.00	223.88
919.30	223.93
919.60	223.92
919.91	223.91
920.21	223.91
920.51	223.88
920.81	223.87
921.12	223.89
921.42	223.89
921.72	223.89
922.02	223.90
922.32	223.91
922.63	223.92
922.93	223.97
923.23	223.98
923.53	223.97
923.83	223.91
924.13	223.92
924.44	223.91
924.74	223.93
925.04	223.96
925.34	223.96
925.64	223.92
925.94	223.92
926.24	223.98
926.55	223.97
926.85	223.98
927.15	223.98
927.45	223.97
927.75	223.97
928.05	223.98
928.35	223.97
928.65	223.99
928.95	224.00
929.26	223.95
929.56	223.96
929.86	223.97
930.16	223.96
930.46	223.95
930.76	223.96
931.06	223.90
931.36	223.87
931.66	223.89
931.96	223.90
932.26	223.91
932.56	223.85
932.86	223.86
933.16	223.86
933.46	223.86
933.76	223.84
934.06	223.86
934.36	223.90
934.66	223.89
934.96	223.87
935.26	223.88
935.56	223.90
935.86	223.88
936.16	223.86
936.46	223.86
936.76	223.85
937.06	223.84
937.36	223.84
937.66	223.85
937.96	223.84
938.26	223.81
938.56	223.80
938.86	223.81
939.16	223.83
939.46	223.84
939.76	223.84
940.06	223.84
940.35	223.83
940.65	223.78
940.95	223.78
941.25	223.76
941.55	223.75
941.85	223.73
942.15	223.75
942.45	223.79
942.75	223.78
943.04	223.79
943.34	223.81
943.64	223.81
943.94	223.79
944.24	223.79
944.54	223.80
944.84	223.81
945.13	223.79
945.43	223.77
945.73	223.77
946.03	223.76
946.33	223.75
946.62	223.74
946.92	223.74
947.22	223.74
947.52	223.75
947.82	223.76
948.11	223.75
948.41	223.73
948.71	223.70
949.01	223.71
949.31	223.70
949.60	223.68
949.90	223.70
950.20	223.70
950.50	223.70
950.79	223.69
951.09	223.70
951.39	223.70
951.69	223.69
951.98	223.71
952.28	223.72
952.58	223.71
952.87	223.71
953.17	223.72
953.47	223.71
953.76	223.71
954.06	223.69
954.36	223.67
954.66	223.66
954.95	223.69
955.25	223.70
955.55	223.71
955.84	223.70
956.14	223.70
956.44	223.70
956.73	223.69
957.03	223.70
957.32	223.70
957.62	223.69
957.92	223.71
958.21	223.70
958.51	223.82
958.81	223.84
959.10	223.85
959.40	223.87
959.69	223.88
959.99	223.89
960.29	223.89
960.58	223.90
960.88	223.94
961.17	223.92
961.47	223.93
961.76	223.92
962.06	223.93
962.36	223.92
962.65	223.92
962.95	223.93
963.24	223.92
963.54	223.92
963.83	223.93
964.13	223.92
964.42	223.91
964.72	223.82
965.01	223.81
965.31	223.80
965.60	223.77
965.90	223.84
966.19	223.82
966.49	223.83
966.78	223.82
967.08	223.81
967.37	223.81
967.67	223.79
967.96	223.81
968.26	223.80
968.55	223.81
968.85	223.81
969.14	223.80
969.43	223.80
969.73	223.79
970.02	223.78
970.32	223.78
970.61	223.77
970.91	223.74
971.20	223.72
971.49	223.72
971.79	223.73
972.08	223.65
972.38	223.67
972.67	223.66
972.96	223.67
973.26	223.65
973.55	223.68
973.85	223.68
974.14	223.67
974.43	223.68
974.73	223.66
975.02	223.65
975.31	223.65
975.61	223.65
975.90	223.64
976.19	223.63
976.49	223.63
976.78	223.64
977.07	223.64
977.37	223.65
977.66	223.66
977.95	223.65
978.24	223.65
978.54	223.67
978.83	223.66
979.12	223.65
979.42	223.66
979.71	223.64
980.00	223.64
980.29	223.64
980.59	223.62
980.88	223.65
981.17	223.65
981.46	223.64
981.76	223.64
982.05	223.67
982.34	223.69
982.63	223.69
982.93	223.69
983.22	223.72
983.51	223.72
983.80	223.74
984.09	223.75
984.39	223.74
984.68	223.73
984.97	223.73
985.26	223.73
985.55	223.73
985.85	223.71
986.14	223.73
986.43	223.74
986.72	223.74
987.01	223.70
987.30	223.71
987.59	223.70
987.89	223.71
988.18	223.68
988.47	223.68
988.76	223.66
989.05	223.65
989.34	223.63
989.63	223.65
989.92	223.63
990.22	223.62
990.51	223.62
990.80	223.61
991.09	223.62
991.38	223.63
991.67	223.62
991.96	223.62
992.25	223.62
992.54	223.60
992.83	223.60
993.12	223.60
993.41	223.61
993.70	223.66
993.99	223.68
994.28	223.70
994.58	223.71
994.87	223.70
995.16	223.70
995.45	223.70
995.74	223.67
996.03	223.68
996.32	223.70
996.61	223.71
996.90	223.72
997.19	223.72
997.48	223.72
997.77	223.71
998.06	223.72
998.34	223.71
998.63	223.71
998.92	223.71
999.21	223.73
999.50	223.73
999.79	223.69
1000.08	223.69
1000.37	223.68
1000.66	223.67
1000.95	223.69
1001.24	223.70
1001.53	223.71
1001.82	223.71
1002.11	223.69
1002.40	223.70
1002.68	223.71
1002.97	223.78
1003.26	223.77
1003.55	223.75
1003.84	223.76
1004.13	223.79
1004.42	223.79
1004.71	223.79
1004.99	223.79
1005.28	223.80
1005.57	223.79
1005.86	223.78
1006.15	223.77
1006.44	223.75
1006.72	223.77
1007.01	223.75
1007.30	223.76
1007.59	223.74
1007.88	223.75
1008.17	223.75
1008.45	223.73
1008.74	223.69
1009.03	223.64
1009.32	223.65
1009.60	223.65
1009.89	223.65
1010.18	223.61
1010.47	223.60
1010.76	223.60
1011.04	223.60
1011.33	223.60
1011.62	223.61
1011.91	223.61
1012.19	223.62
1012.48	223.62
1012.77	223.62
1013.05	223.65
1013.34	223.65
1013.63	223.65
1013.92	223.65
1014.20	223.65
1014.49	223.66
1014.78	223.68
1015.06	223.65
1015.35	223.64
1015.64	223.66
1015.92	223.67
1016.21	223.67
1016.50	223.67
1016.78	223.68
1017.07	223.69
1017.36	223.67
1017.64	223.66
1017.93	223.67
1018.22	223.65
1018.50	223.65
1018.79	223.65
1019.08	223.61
1019.36	223.61
1019.65	223.60
1019.93	223.63
1020.22	223.65
1020.51	223.70
1020.79	223.69
1021.08	223.42
1021.36	223.42
1021.65	223.65
1021.94	223.56
1022.22	223.67
1022.51	223.38
1022.79	224.17
1023.08	223.82
1023.36	224.92
1023.65	223.50
>>>>>End Processed Spectral Data<<<<<
