SpectraSuite Data File
++++++++++++++++++++++++++++++++++++
Date: Thu Oct 01 04:09:42 EDT 2015
User: lab3
Dark Spectrum Present: No
Reference Spectrum Present: No
Number of Sampled Component Spectra: 1
Spectrometers: USB2E7196
Integration Time (usec): 36000 (USB2E7196)
Spectra Averaged: 10000 (USB2E7196)
Boxcar Smoothing: 10 (USB2E7196)
Correct for Electrical Dark: No (USB2E7196)
Strobe/Lamp Enabled: No (USB2E7196)
Correct for Detector Non-linearity: No (USB2E7196)
Correct for Stray Light: No (USB2E7196)
Number of Pixels in Processed Spectrum: 2048
>>>>>Begin Processed Spectral Data<<<<<
339.09	0.00
339.48	210.73
339.86	212.25
340.24	213.55
340.63	215.10
341.01	217.91
341.39	217.69
341.78	219.05
342.16	220.26
342.54	220.76
342.93	209.31
343.31	219.89
343.69	220.43
344.07	220.89
344.46	221.32
344.84	221.70
345.22	221.94
345.60	222.20
345.99	222.40
346.37	222.53
346.75	222.64
347.13	222.72
347.52	222.78
347.90	222.86
348.28	222.90
348.66	222.96
349.05	222.96
349.43	223.01
349.81	223.07
350.19	223.12
350.57	223.19
350.96	223.27
351.34	223.36
351.72	223.46
352.10	223.56
352.48	223.64
352.87	223.69
353.25	223.75
353.63	223.81
354.01	223.87
354.39	223.94
354.77	224.02
355.15	224.12
355.54	224.17
355.92	224.20
356.30	224.28
356.68	224.41
357.06	224.49
357.44	224.53
357.82	224.59
358.20	224.70
358.58	224.76
358.97	224.82
359.35	224.90
359.73	224.98
360.11	225.03
360.49	225.09
360.87	225.14
361.25	225.20
361.63	225.28
362.01	225.33
362.39	225.36
362.77	225.41
363.15	225.43
363.53	225.47
363.91	225.50
364.29	225.52
364.67	225.45
365.05	225.47
365.43	225.50
365.81	225.53
366.19	225.55
366.57	225.60
366.95	225.60
367.33	225.57
367.71	225.57
368.09	225.58
368.47	225.57
368.85	225.56
369.23	225.57
369.61	225.51
369.99	225.53
370.37	225.53
370.75	225.58
371.13	225.54
371.51	225.50
371.89	225.48
372.27	225.46
372.65	225.43
373.03	225.39
373.41	225.34
373.78	225.29
374.16	225.20
374.54	225.12
374.92	225.07
375.30	225.02
375.68	224.96
376.06	224.91
376.44	224.86
376.82	224.82
377.19	224.77
377.57	224.72
377.95	224.63
378.33	224.57
378.71	224.43
379.09	224.38
379.47	224.35
379.84	224.28
380.22	224.22
380.60	224.16
380.98	224.10
381.36	224.05
381.73	223.99
382.11	223.96
382.49	223.91
382.87	223.86
383.25	223.81
383.62	223.89
384.00	223.82
384.38	223.78
384.76	223.76
385.13	223.75
385.51	223.71
385.89	223.66
386.27	223.63
386.64	223.61
387.02	223.56
387.40	223.51
387.78	223.49
388.15	223.46
388.53	223.43
388.91	223.40
389.29	223.37
389.66	223.36
390.04	223.33
390.42	223.32
390.79	223.31
391.17	223.28
391.55	223.15
391.92	223.14
392.30	223.14
392.68	223.11
393.05	223.09
393.43	223.08
393.81	223.08
394.18	223.06
394.56	223.06
394.94	223.09
395.31	223.09
395.69	223.13
396.06	223.16
396.44	223.18
396.82	223.19
397.19	223.27
397.57	223.28
397.95	223.32
398.32	223.31
398.70	223.35
399.07	223.41
399.45	223.45
399.82	223.49
400.20	223.52
400.58	223.57
400.95	223.59
401.33	223.67
401.70	223.80
402.08	223.89
402.45	223.97
402.83	224.07
403.20	224.17
403.58	224.25
403.95	224.38
404.33	224.51
404.71	224.64
405.08	224.82
405.46	224.96
405.83	225.12
406.21	225.30
406.58	225.49
406.96	225.68
407.33	225.89
407.70	226.13
408.08	226.46
408.45	226.75
408.83	227.06
409.20	227.35
409.58	227.61
409.95	227.96
410.33	228.33
410.70	228.69
411.08	229.10
411.45	229.55
411.82	230.00
412.20	230.51
412.57	231.12
412.95	231.59
413.32	232.22
413.69	232.86
414.07	233.54
414.44	234.28
414.82	235.03
415.19	235.92
415.56	236.81
415.94	237.74
416.31	238.79
416.68	239.84
417.06	241.06
417.43	242.19
417.81	243.51
418.18	244.85
418.55	246.32
418.93	247.84
419.30	249.42
419.67	251.11
420.04	252.85
420.42	254.66
420.79	256.75
421.16	258.88
421.54	261.03
421.91	263.28
422.28	265.62
422.66	268.15
423.03	270.55
423.40	273.08
423.77	275.79
424.15	278.56
424.52	281.44
424.89	284.55
425.26	287.65
425.64	290.53
426.01	293.77
426.38	297.07
426.75	300.47
427.13	303.96
427.50	307.61
427.87	311.39
428.24	315.22
428.61	318.88
428.99	322.81
429.36	327.14
429.73	331.27
430.10	335.38
430.47	339.58
430.85	343.90
431.22	348.49
431.59	353.21
431.96	357.81
432.33	362.90
432.70	367.73
433.08	373.44
433.45	378.82
433.82	384.11
434.19	390.04
434.56	395.85
434.93	401.46
435.30	407.00
435.68	413.24
436.05	419.34
436.42	425.44
436.79	431.00
437.16	437.00
437.53	443.43
437.90	449.86
438.27	456.14
438.64	462.97
439.01	469.14
439.38	474.78
439.75	480.24
440.13	486.47
440.50	492.40
440.87	497.09
441.24	502.25
441.61	507.93
441.98	512.11
442.35	517.08
442.72	522.18
443.09	527.08
443.46	530.27
443.83	532.64
444.20	534.65
444.57	537.59
444.94	539.38
445.31	541.21
445.68	542.87
446.05	544.14
446.42	544.08
446.79	543.91
447.16	543.79
447.53	543.72
447.90	541.98
448.27	540.36
448.64	537.72
449.01	536.00
449.37	532.19
449.74	528.72
450.11	524.23
450.48	519.26
450.85	514.26
451.22	510.02
451.59	505.87
451.96	502.10
452.33	496.52
452.70	491.56
453.07	485.50
453.43	479.42
453.80	473.53
454.17	467.88
454.54	462.64
454.91	456.70
455.28	451.11
455.65	445.83
456.02	440.19
456.38	435.65
456.75	429.79
457.12	425.06
457.49	420.28
457.86	415.71
458.23	411.71
458.59	407.29
458.96	402.74
459.33	398.73
459.70	394.64
460.07	391.52
460.43	387.86
460.80	384.42
461.17	381.38
461.54	378.10
461.91	375.04
462.27	371.93
462.64	369.39
463.01	366.47
463.38	363.53
463.74	360.89
464.11	358.52
464.48	356.38
464.85	354.10
465.21	352.35
465.58	350.41
465.95	348.17
466.32	346.39
466.68	344.64
467.05	342.89
467.42	341.20
467.78	339.37
468.15	337.69
468.52	336.44
468.88	334.80
469.25	333.30
469.62	332.11
469.98	330.82
470.35	329.68
470.72	328.64
471.08	327.59
471.45	326.72
471.82	325.76
472.18	324.75
472.55	324.10
472.92	323.30
473.28	322.68
473.65	322.04
474.02	321.43
474.38	320.93
474.75	320.65
475.11	320.24
475.48	320.08
475.85	319.92
476.21	319.87
476.58	319.88
476.94	320.07
477.31	320.20
477.67	320.36
478.04	320.62
478.41	320.97
478.77	321.43
479.14	321.77
479.50	322.33
479.87	323.02
480.23	323.72
480.60	324.40
480.96	325.10
481.33	326.06
481.69	327.03
482.06	327.99
482.42	328.89
482.79	329.98
483.15	331.22
483.52	332.61
483.88	333.95
484.25	335.37
484.61	336.86
484.98	338.46
485.34	340.25
485.71	342.11
486.07	344.09
486.44	346.06
486.80	348.25
487.17	350.50
487.53	352.96
487.90	355.53
488.26	358.31
488.62	361.23
488.99	364.17
489.35	367.23
489.72	370.54
490.08	374.02
490.44	377.59
490.81	381.33
491.17	385.16
491.54	389.25
491.90	393.43
492.26	397.96
492.63	402.71
492.99	407.65
493.36	412.71
493.72	418.05
494.08	423.52
494.45	429.30
494.81	435.28
495.17	441.40
495.54	447.85
495.90	454.62
496.26	461.53
496.63	468.68
496.99	476.12
497.35	483.92
497.72	492.02
498.08	500.28
498.44	508.81
498.80	517.88
499.17	527.17
499.53	536.82
499.89	546.67
500.26	556.71
500.62	567.02
500.98	578.01
501.34	589.16
501.71	600.84
502.07	612.75
502.43	625.05
502.79	637.69
503.16	650.74
503.52	663.96
503.88	677.58
504.24	691.60
504.60	705.92
504.97	720.63
505.33	735.72
505.69	751.73
506.05	767.92
506.41	784.12
506.78	800.63
507.14	817.60
507.50	835.19
507.86	853.16
508.22	871.42
508.59	889.69
508.95	908.66
509.31	928.09
509.67	948.22
510.03	968.55
510.39	989.10
510.75	1009.89
511.12	1030.98
511.48	1052.38
511.84	1073.89
512.20	1095.72
512.56	1118.62
512.92	1141.72
513.28	1164.54
513.64	1187.71
514.00	1211.26
514.37	1235.15
514.73	1259.08
515.09	1282.80
515.45	1306.98
515.81	1331.68
516.17	1356.45
516.53	1380.88
516.89	1405.38
517.25	1430.07
517.61	1454.95
517.97	1480.05
518.33	1504.86
518.69	1529.81
519.05	1555.02
519.41	1580.35
519.77	1605.94
520.13	1630.76
520.49	1655.75
520.85	1680.96
521.21	1706.06
521.57	1731.78
521.93	1756.78
522.29	1782.59
522.65	1808.14
523.01	1833.49
523.37	1858.10
523.73	1883.35
524.09	1908.79
524.45	1934.12
524.81	1958.98
525.17	1983.72
525.53	2008.03
525.89	2032.38
526.25	2056.93
526.61	2080.94
526.97	2105.23
527.33	2129.45
527.68	2153.48
528.04	2176.71
528.40	2199.76
528.76	2223.01
529.12	2245.21
529.48	2267.76
529.84	2288.49
530.20	2309.78
530.56	2330.69
530.91	2351.68
531.27	2372.19
531.63	2392.04
531.99	2411.35
532.35	2430.31
532.71	2449.39
533.07	2469.02
533.42	2487.15
533.78	2505.65
534.14	2524.15
534.50	2541.80
534.86	2560.07
535.21	2576.47
535.57	2592.78
535.93	2608.40
536.29	2622.83
536.65	2638.08
537.00	2652.21
537.36	2666.87
537.72	2680.48
538.08	2693.74
538.44	2705.84
538.79	2718.11
539.15	2728.74
539.51	2739.33
539.87	2749.57
540.22	2757.67
540.58	2765.88
540.94	2774.64
541.29	2781.90
541.65	2788.12
542.01	2793.85
542.37	2797.76
542.72	2803.63
543.08	2808.94
543.44	2814.06
543.79	2818.38
544.15	2821.79
544.51	2825.16
544.87	2827.66
545.22	2829.73
545.58	2830.89
545.94	2832.52
546.29	2832.69
546.65	2832.94
547.01	2833.27
547.36	2833.68
547.72	2834.27
548.07	2833.38
548.43	2831.84
548.79	2829.65
549.14	2827.51
549.50	2826.03
549.86	2823.59
550.21	2818.73
550.57	2814.33
550.92	2808.56
551.28	2803.39
551.64	2798.15
551.99	2793.29
552.35	2788.01
552.70	2782.30
553.06	2777.32
553.41	2771.85
553.77	2765.82
554.13	2760.53
554.48	2754.27
554.84	2746.39
555.19	2738.67
555.55	2730.38
555.90	2722.69
556.26	2715.99
556.61	2708.65
556.97	2699.10
557.32	2690.48
557.68	2682.26
558.03	2673.42
558.39	2665.27
558.74	2657.21
559.10	2647.95
559.45	2638.34
559.81	2629.12
560.16	2619.20
560.52	2608.82
560.87	2599.47
561.23	2589.73
561.58	2579.46
561.94	2568.96
562.29	2557.97
562.64	2547.61
563.00	2537.59
563.35	2527.42
563.71	2516.34
564.06	2504.74
564.42	2494.17
564.77	2483.23
565.12	2472.39
565.48	2461.28
565.83	2450.82
566.19	2440.40
566.54	2429.56
566.89	2417.88
567.25	2406.10
567.60	2395.18
567.96	2383.84
568.31	2371.06
568.66	2358.26
569.02	2346.52
569.37	2334.51
569.72	2323.02
570.08	2310.83
570.43	2298.11
570.78	2285.06
571.14	2271.81
571.49	2259.39
571.84	2247.23
572.20	2233.77
572.55	2220.73
572.90	2207.55
573.26	2193.44
573.61	2178.78
573.96	2164.45
574.31	2150.44
574.67	2136.66
575.02	2122.47
575.37	2107.82
575.72	2093.45
576.08	2079.67
576.43	2064.86
576.78	2050.16
577.13	2036.27
577.49	2022.36
577.84	2008.83
578.19	1994.46
578.54	1979.76
578.90	1964.50
579.25	1949.01
579.60	1934.95
579.95	1920.47
580.30	1906.07
580.66	1891.97
581.01	1877.48
581.36	1863.33
581.71	1849.76
582.06	1835.67
582.42	1821.64
582.77	1808.39
583.12	1794.78
583.47	1781.24
583.82	1767.82
584.17	1754.28
584.53	1740.56
584.88	1726.86
585.23	1712.81
585.58	1699.27
585.93	1686.19
586.28	1673.94
586.63	1661.45
586.98	1648.30
587.34	1635.37
587.69	1621.92
588.04	1608.73
588.39	1596.23
588.74	1583.25
589.09	1570.00
589.44	1556.72
589.79	1544.00
590.14	1531.15
590.49	1518.54
590.84	1505.76
591.19	1493.63
591.54	1480.97
591.89	1468.19
592.25	1455.75
592.60	1442.93
592.95	1430.67
593.30	1418.69
593.65	1406.48
594.00	1394.51
594.35	1383.29
594.70	1371.31
595.05	1360.40
595.40	1349.28
595.75	1337.57
596.10	1326.66
596.45	1315.96
596.80	1305.73
597.15	1295.29
597.50	1284.83
597.85	1274.56
598.19	1264.50
598.54	1253.83
598.89	1243.93
599.24	1234.33
599.59	1224.50
599.94	1215.69
600.29	1206.75
600.64	1197.57
600.99	1187.83
601.34	1178.55
601.69	1168.69
602.04	1159.88
602.39	1150.90
602.74	1142.18
603.08	1133.70
603.43	1124.72
603.78	1115.65
604.13	1106.73
604.48	1097.73
604.83	1089.02
605.18	1080.20
605.53	1071.32
605.87	1062.58
606.22	1054.08
606.57	1045.32
606.92	1036.67
607.27	1027.87
607.62	1019.18
607.96	1010.64
608.31	1003.12
608.66	995.16
609.01	987.63
609.36	980.05
609.70	972.24
610.05	964.27
610.40	956.64
610.75	949.13
611.10	941.89
611.44	934.27
611.79	926.94
612.14	919.26
612.49	911.71
612.83	904.63
613.18	897.61
613.53	890.38
613.88	883.27
614.22	876.72
614.57	870.01
614.92	863.29
615.27	856.61
615.61	849.77
615.96	843.15
616.31	836.48
616.65	829.68
617.00	823.13
617.35	816.73
617.70	810.36
618.04	804.06
618.39	797.76
618.74	791.80
619.08	785.67
619.43	779.78
619.78	773.92
620.12	767.87
620.47	762.00
620.82	756.21
621.16	750.72
621.51	744.88
621.85	739.04
622.20	733.25
622.55	727.65
622.89	721.98
623.24	716.38
623.59	710.83
623.93	705.34
624.28	699.98
624.62	694.61
624.97	689.23
625.32	683.96
625.66	678.55
626.01	673.14
626.35	667.86
626.70	662.63
627.04	657.58
627.39	652.58
627.73	647.71
628.08	643.05
628.43	638.27
628.77	633.55
629.12	628.99
629.46	624.57
629.81	619.97
630.15	615.27
630.50	610.72
630.84	606.37
631.19	602.20
631.53	598.07
631.88	593.83
632.22	589.69
632.57	585.77
632.91	581.82
633.26	577.94
633.60	574.14
633.95	570.43
634.29	566.59
634.64	562.72
634.98	558.75
635.32	554.93
635.67	551.25
636.01	547.51
636.36	543.81
636.70	540.26
637.05	536.71
637.39	533.36
637.73	529.88
638.08	526.45
638.42	523.00
638.77	519.42
639.11	515.84
639.45	512.29
639.80	508.74
640.14	505.38
640.49	501.98
640.83	498.46
641.17	495.00
641.52	491.69
641.86	488.37
642.20	485.22
642.55	481.94
642.89	478.73
643.23	475.72
643.58	472.93
643.92	470.02
644.26	467.14
644.61	464.24
644.95	461.36
645.29	458.43
645.64	455.47
645.98	452.65
646.32	449.99
646.66	447.34
647.01	444.66
647.35	442.03
647.69	439.29
648.04	436.71
648.38	434.15
648.72	431.56
649.06	429.04
649.41	426.54
649.75	424.04
650.09	421.58
650.43	419.11
650.78	416.62
651.12	414.13
651.46	411.74
651.80	409.44
652.14	407.22
652.49	405.00
652.83	402.84
653.17	400.66
653.51	398.55
653.85	396.51
654.20	394.40
654.54	392.22
654.88	390.23
655.22	388.29
655.56	386.31
655.90	384.44
656.25	382.57
656.59	380.70
656.93	378.93
657.27	377.19
657.61	375.36
657.95	373.59
658.29	371.84
658.64	370.11
658.98	368.36
659.32	366.63
659.66	365.00
660.00	363.40
660.34	361.82
660.68	360.19
661.02	358.50
661.36	356.92
661.70	355.41
662.05	353.87
662.39	352.32
662.73	350.87
663.07	349.43
663.41	348.02
663.75	346.63
664.09	345.24
664.43	343.77
664.77	342.41
665.11	340.98
665.45	339.63
665.79	338.28
666.13	336.92
666.47	335.55
666.81	334.15
667.15	332.72
667.49	331.39
667.83	330.11
668.17	328.87
668.51	327.65
668.85	326.45
669.19	325.32
669.53	324.12
669.87	322.90
670.21	321.70
670.55	320.53
670.89	319.42
671.23	318.29
671.57	317.17
671.91	316.09
672.25	315.09
672.58	314.07
672.92	313.02
673.26	312.04
673.60	311.06
673.94	310.08
674.28	309.16
674.62	308.22
674.96	307.25
675.30	306.35
675.64	305.41
675.97	304.49
676.31	303.54
676.65	302.61
676.99	301.74
677.33	300.83
677.67	299.95
678.01	299.00
678.34	298.12
678.68	297.29
679.02	296.44
679.36	295.59
679.70	294.75
680.04	293.93
680.37	293.11
680.71	292.32
681.05	291.57
681.39	290.79
681.73	289.97
682.06	289.18
682.40	288.42
682.74	287.67
683.08	286.95
683.42	286.21
683.75	285.55
684.09	284.80
684.43	284.10
684.77	283.39
685.10	282.73
685.44	282.05
685.78	281.36
686.12	280.71
686.45	280.05
686.79	279.39
687.13	278.76
687.46	278.09
687.80	277.45
688.14	276.77
688.48	276.14
688.81	275.52
689.15	274.94
689.49	274.32
689.82	273.72
690.16	273.07
690.50	272.48
690.83	271.88
691.17	271.31
691.51	270.75
691.84	270.20
692.18	269.62
692.52	269.04
692.85	268.47
693.19	267.95
693.52	267.41
693.86	266.87
694.20	266.34
694.53	265.84
694.87	265.32
695.21	264.83
695.54	264.33
695.88	263.82
696.21	263.28
696.55	262.80
696.88	262.30
697.22	261.83
697.56	261.36
697.89	260.83
698.23	260.34
698.56	259.84
698.90	259.38
699.23	258.91
699.57	258.48
699.90	258.04
700.24	257.56
700.58	257.13
700.91	256.73
701.25	256.39
701.58	256.03
701.92	255.65
702.25	255.24
702.59	254.83
702.92	254.45
703.26	254.07
703.59	253.68
703.93	253.38
704.26	253.02
704.60	252.65
704.93	252.30
705.26	251.95
705.60	251.63
705.93	251.26
706.27	250.96
706.60	250.64
706.94	250.33
707.27	249.97
707.61	249.62
707.94	249.27
708.27	248.85
708.61	248.48
708.94	248.13
709.28	247.81
709.61	247.49
709.94	247.20
710.28	246.91
710.61	246.63
710.95	246.26
711.28	246.04
711.61	245.76
711.95	245.52
712.28	245.24
712.61	244.95
712.95	244.74
713.28	244.52
713.61	244.25
713.95	243.97
714.28	243.74
714.61	243.48
714.95	243.24
715.28	243.00
715.61	242.76
715.95	242.54
716.28	242.30
716.61	242.10
716.95	241.86
717.28	241.64
717.61	241.41
717.94	241.19
718.28	240.90
718.61	240.69
718.94	240.46
719.27	240.25
719.61	240.06
719.94	239.84
720.27	239.58
720.60	239.39
720.94	239.19
721.27	239.00
721.60	238.84
721.93	238.65
722.27	238.50
722.60	238.34
722.93	238.15
723.26	237.98
723.59	237.79
723.93	237.63
724.26	237.48
724.59	237.31
724.92	237.15
725.25	237.03
725.59	236.86
725.92	236.73
726.25	236.58
726.58	236.43
726.91	236.27
727.24	236.13
727.57	235.99
727.91	235.83
728.24	235.70
728.57	235.55
728.90	235.42
729.23	235.25
729.56	235.15
729.89	235.01
730.22	234.87
730.55	234.74
730.89	234.60
731.22	234.46
731.55	234.33
731.88	234.20
732.21	234.05
732.54	233.93
732.87	233.81
733.20	233.70
733.53	233.59
733.86	233.48
734.19	233.35
734.52	233.26
734.85	233.22
735.18	233.09
735.51	233.01
735.84	232.91
736.17	232.83
736.50	232.67
736.83	232.69
737.16	232.60
737.49	232.50
737.82	232.40
738.15	232.33
738.48	232.23
738.81	232.13
739.14	232.03
739.47	231.93
739.80	231.83
740.13	231.74
740.46	231.63
740.79	231.52
741.12	231.43
741.45	231.32
741.78	231.18
742.11	231.12
742.44	231.00
742.77	230.93
743.10	230.82
743.43	230.74
743.75	230.54
744.08	230.61
744.41	230.52
744.74	230.43
745.07	230.32
745.40	230.26
745.73	230.22
746.06	230.15
746.39	230.08
746.71	230.00
747.04	229.91
747.37	229.83
747.70	229.78
748.03	229.71
748.36	229.65
748.68	229.58
749.01	229.48
749.34	229.41
749.67	229.34
750.00	229.28
750.33	229.30
750.65	229.24
750.98	229.02
751.31	228.96
751.64	228.90
751.97	228.90
752.29	228.82
752.62	228.71
752.95	228.64
753.28	228.56
753.60	228.50
753.93	228.46
754.26	228.40
754.59	228.31
754.91	228.23
755.24	228.16
755.57	228.13
755.90	228.07
756.22	228.00
756.55	227.92
756.88	227.84
757.20	227.71
757.53	227.62
757.86	227.56
758.19	227.52
758.51	227.46
758.84	227.35
759.17	227.29
759.49	227.25
759.82	227.25
760.15	227.21
760.47	227.16
760.80	227.09
761.13	227.06
761.45	227.01
761.78	226.97
762.11	226.93
762.43	226.83
762.76	226.79
763.08	226.76
763.41	226.72
763.74	226.69
764.06	226.64
764.39	226.61
764.71	226.57
765.04	226.51
765.37	226.46
765.69	226.43
766.02	226.39
766.34	226.34
766.67	226.26
767.00	226.23
767.32	226.25
767.65	226.28
767.97	226.22
768.30	226.20
768.62	226.16
768.95	226.11
769.27	226.07
769.60	226.05
769.92	226.00
770.25	225.95
770.57	225.90
770.90	225.86
771.22	225.82
771.55	225.78
771.87	225.76
772.20	225.73
772.52	225.78
772.85	225.87
773.17	225.85
773.50	225.81
773.82	225.76
774.15	225.68
774.47	225.58
774.80	225.54
775.12	225.51
775.45	225.48
775.77	225.46
776.09	225.45
776.42	225.42
776.74	225.42
777.07	225.39
777.39	225.37
777.72	225.34
778.04	225.33
778.36	225.30
778.69	225.27
779.01	225.26
779.33	225.14
779.66	225.00
779.98	224.97
780.31	224.96
780.63	224.98
780.95	224.98
781.28	224.96
781.60	224.93
781.92	224.91
782.25	224.89
782.57	224.87
782.89	224.84
783.22	224.81
783.54	224.77
783.86	224.76
784.19	224.74
784.51	224.75
784.83	224.72
785.16	224.70
785.48	224.68
785.80	224.66
786.12	224.65
786.45	224.63
786.77	224.63
787.09	224.60
787.42	224.55
787.74	224.54
788.06	224.52
788.38	224.50
788.71	224.48
789.03	224.47
789.35	224.46
789.67	224.44
789.99	224.43
790.32	224.40
790.64	224.40
790.96	224.48
791.28	224.43
791.61	224.41
791.93	224.40
792.25	224.38
792.57	224.44
792.89	224.41
793.21	224.40
793.54	224.38
793.86	224.36
794.18	224.34
794.50	224.31
794.82	224.29
795.14	224.30
795.47	224.30
795.79	224.29
796.11	224.26
796.43	224.24
796.75	224.23
797.07	224.22
797.39	224.20
797.71	224.10
798.04	224.10
798.36	224.10
798.68	224.08
799.00	224.08
799.32	224.02
799.64	224.02
799.96	224.01
800.28	224.02
800.60	224.00
800.92	224.00
801.24	223.99
801.56	223.99
801.89	223.96
802.21	223.96
802.53	223.93
802.85	223.94
803.17	223.98
803.49	223.95
803.81	223.93
804.13	223.92
804.45	223.89
804.77	223.89
805.09	223.88
805.41	223.86
805.73	223.83
806.05	223.79
806.37	223.77
806.69	223.75
807.01	223.73
807.33	223.73
807.65	223.69
807.97	223.73
808.28	223.71
808.60	223.70
808.92	223.67
809.24	223.73
809.56	223.71
809.88	223.66
810.20	223.66
810.52	223.67
810.84	223.65
811.16	223.63
811.48	223.62
811.80	223.65
812.12	223.63
812.43	223.65
812.75	223.65
813.07	223.64
813.39	223.64
813.71	223.62
814.03	223.60
814.35	223.60
814.67	223.55
814.98	223.54
815.30	223.53
815.62	223.51
815.94	223.44
816.26	223.45
816.58	223.42
816.89	223.43
817.21	223.40
817.53	223.40
817.85	223.40
818.17	223.40
818.48	223.35
818.80	223.36
819.12	223.34
819.44	223.32
819.76	223.31
820.07	223.30
820.39	223.30
820.71	223.30
821.03	223.30
821.34	223.29
821.66	223.30
821.98	223.30
822.30	223.29
822.61	223.35
822.93	223.32
823.25	223.32
823.57	223.31
823.88	223.32
824.20	223.31
824.52	223.32
824.83	223.32
825.15	223.31
825.47	223.30
825.79	223.30
826.10	223.30
826.42	223.29
826.74	223.30
827.05	223.29
827.37	223.28
827.69	223.27
828.00	223.28
828.32	223.27
828.64	223.25
828.95	223.30
829.27	223.27
829.58	223.27
829.90	223.29
830.22	223.29
830.53	223.27
830.85	223.26
831.17	223.23
831.48	223.22
831.80	223.23
832.11	223.23
832.43	223.21
832.75	223.21
833.06	223.27
833.38	223.24
833.69	223.23
834.01	223.23
834.32	223.23
834.64	223.22
834.96	223.22
835.27	223.21
835.59	223.18
835.90	223.16
836.22	223.16
836.53	223.13
836.85	223.12
837.16	223.22
837.48	223.22
837.79	223.26
838.11	223.26
838.42	223.25
838.74	223.26
839.05	223.25
839.37	223.25
839.68	223.18
840.00	223.18
840.31	223.19
840.63	223.18
840.94	223.16
841.26	223.15
841.57	223.15
841.88	223.15
842.20	223.13
842.51	223.12
842.83	223.11
843.14	223.21
843.46	223.20
843.77	223.14
844.08	223.13
844.40	223.09
844.71	223.08
845.03	223.07
845.34	223.06
845.65	223.05
845.97	223.05
846.28	223.05
846.60	223.05
846.91	223.03
847.22	223.03
847.54	223.05
847.85	223.06
848.16	223.04
848.48	223.02
848.79	223.06
849.10	223.07
849.42	223.07
849.73	222.97
850.04	222.97
850.36	222.94
850.67	222.95
850.98	222.95
851.30	222.96
851.61	222.95
851.92	222.95
852.23	222.98
852.55	222.98
852.86	222.98
853.17	222.99
853.49	223.01
853.80	223.03
854.11	223.03
854.42	223.05
854.74	223.04
855.05	223.04
855.36	222.99
855.67	222.99
855.99	222.99
856.30	223.11
856.61	223.10
856.92	223.10
857.23	223.11
857.55	223.09
857.86	223.08
858.17	223.10
858.48	223.09
858.79	223.06
859.11	223.07
859.42	223.06
859.73	223.04
860.04	223.04
860.35	223.00
860.66	222.97
860.98	222.97
861.29	222.98
861.60	222.97
861.91	222.99
862.22	222.98
862.53	222.96
862.84	222.84
863.16	222.86
863.47	222.85
863.78	222.83
864.09	222.85
864.40	222.85
864.71	222.85
865.02	222.87
865.33	222.85
865.64	222.83
865.95	222.83
866.27	222.90
866.58	222.89
866.89	222.90
867.20	222.90
867.51	222.88
867.82	222.87
868.13	222.90
868.44	222.88
868.75	222.90
869.06	222.91
869.37	222.92
869.68	222.90
869.99	222.92
870.30	222.92
870.61	222.93
870.92	222.91
871.23	222.90
871.54	222.91
871.85	222.94
872.16	222.96
872.47	222.95
872.78	222.89
873.09	222.90
873.40	222.89
873.71	222.90
874.02	222.91
874.33	222.90
874.64	222.88
874.95	222.89
875.26	222.88
875.56	222.87
875.87	222.86
876.18	222.86
876.49	222.95
876.80	222.94
877.11	222.92
877.42	222.93
877.73	222.93
878.04	222.91
878.35	222.90
878.66	222.91
878.96	222.91
879.27	222.90
879.58	222.89
879.89	222.89
880.20	222.91
880.51	222.91
880.82	222.91
881.12	222.91
881.43	222.89
881.74	222.87
882.05	222.87
882.36	222.87
882.67	222.88
882.97	222.76
883.28	222.75
883.59	222.75
883.90	222.76
884.21	222.77
884.51	222.77
884.82	222.75
885.13	222.74
885.44	222.74
885.74	222.74
886.05	222.73
886.36	222.74
886.67	222.70
886.98	222.75
887.28	222.76
887.59	222.76
887.90	222.76
888.20	222.76
888.51	222.78
888.82	222.76
889.13	222.77
889.43	222.86
889.74	222.85
890.05	222.85
890.35	222.84
890.66	222.82
890.97	222.81
891.28	222.81
891.58	222.80
891.89	222.81
892.20	222.80
892.50	222.78
892.81	222.77
893.12	222.77
893.42	222.72
893.73	222.72
894.04	222.72
894.34	222.73
894.65	222.73
894.95	222.72
895.26	222.73
895.57	222.77
895.87	222.66
896.18	222.68
896.48	222.69
896.79	222.68
897.10	222.70
897.40	222.70
897.71	222.71
898.01	222.70
898.32	222.71
898.63	222.71
898.93	222.72
899.24	222.72
899.54	222.72
899.85	222.72
900.15	222.71
900.46	222.71
900.76	222.72
901.07	222.71
901.38	222.71
901.68	222.72
901.99	222.67
902.29	222.67
902.60	222.67
902.90	222.66
903.21	222.66
903.51	222.64
903.82	222.66
904.12	222.66
904.43	222.67
904.73	222.66
905.03	222.67
905.34	222.76
905.64	222.76
905.95	222.75
906.25	222.75
906.56	222.75
906.86	222.75
907.17	222.73
907.47	222.74
907.77	222.73
908.08	222.71
908.38	222.72
908.69	222.72
908.99	222.74
909.30	222.75
909.60	222.74
909.90	222.75
910.21	222.72
910.51	222.71
910.81	222.70
911.12	222.71
911.42	222.71
911.73	222.60
912.03	222.61
912.33	222.63
912.64	222.62
912.94	222.61
913.24	222.59
913.55	222.58
913.85	222.58
914.15	222.60
914.46	222.61
914.76	222.60
915.06	222.59
915.37	222.57
915.67	222.56
915.97	222.56
916.27	222.54
916.58	222.55
916.88	222.55
917.18	222.54
917.49	222.61
917.79	222.60
918.09	222.62
918.39	222.65
918.70	222.64
919.00	222.64
919.30	222.70
919.60	222.69
919.91	222.68
920.21	222.68
920.51	222.66
920.81	222.65
921.12	222.67
921.42	222.66
921.72	222.67
922.02	222.67
922.32	222.68
922.63	222.69
922.93	222.74
923.23	222.75
923.53	222.74
923.83	222.67
924.13	222.68
924.44	222.67
924.74	222.68
925.04	222.71
925.34	222.71
925.64	222.66
925.94	222.66
926.24	222.72
926.55	222.71
926.85	222.72
927.15	222.72
927.45	222.72
927.75	222.72
928.05	222.72
928.35	222.71
928.65	222.72
928.95	222.73
929.26	222.68
929.56	222.70
929.86	222.71
930.16	222.70
930.46	222.69
930.76	222.70
931.06	222.65
931.36	222.62
931.66	222.63
931.96	222.64
932.26	222.65
932.56	222.61
932.86	222.62
933.16	222.61
933.46	222.61
933.76	222.59
934.06	222.61
934.36	222.65
934.66	222.64
934.96	222.63
935.26	222.63
935.56	222.65
935.86	222.62
936.16	222.60
936.46	222.59
936.76	222.59
937.06	222.57
937.36	222.58
937.66	222.58
937.96	222.57
938.26	222.55
938.56	222.54
938.86	222.55
939.16	222.57
939.46	222.58
939.76	222.59
940.06	222.58
940.35	222.57
940.65	222.52
940.95	222.53
941.25	222.50
941.55	222.49
941.85	222.48
942.15	222.50
942.45	222.53
942.75	222.52
943.04	222.53
943.34	222.55
943.64	222.54
943.94	222.53
944.24	222.53
944.54	222.54
944.84	222.54
945.13	222.52
945.43	222.50
945.73	222.49
946.03	222.48
946.33	222.48
946.62	222.46
946.92	222.46
947.22	222.47
947.52	222.48
947.82	222.49
948.11	222.48
948.41	222.46
948.71	222.43
949.01	222.44
949.31	222.42
949.60	222.41
949.90	222.43
950.20	222.43
950.50	222.42
950.79	222.41
951.09	222.43
951.39	222.43
951.69	222.42
951.98	222.44
952.28	222.45
952.58	222.44
952.87	222.45
953.17	222.46
953.47	222.45
953.76	222.44
954.06	222.43
954.36	222.42
954.66	222.42
954.95	222.45
955.25	222.46
955.55	222.47
955.84	222.46
956.14	222.46
956.44	222.47
956.73	222.46
957.03	222.46
957.32	222.46
957.62	222.45
957.92	222.48
958.21	222.46
958.51	222.58
958.81	222.59
959.10	222.61
959.40	222.62
959.69	222.63
959.99	222.65
960.29	222.65
960.58	222.65
960.88	222.68
961.17	222.67
961.47	222.68
961.76	222.67
962.06	222.69
962.36	222.67
962.65	222.68
962.95	222.69
963.24	222.68
963.54	222.68
963.83	222.69
964.13	222.68
964.42	222.67
964.72	222.58
965.01	222.58
965.31	222.57
965.60	222.54
965.90	222.61
966.19	222.58
966.49	222.59
966.78	222.59
967.08	222.57
967.37	222.57
967.67	222.55
967.96	222.57
968.26	222.56
968.55	222.57
968.85	222.56
969.14	222.56
969.43	222.56
969.73	222.55
970.02	222.54
970.32	222.53
970.61	222.52
970.91	222.49
971.20	222.47
971.49	222.47
971.79	222.48
972.08	222.40
972.38	222.42
972.67	222.41
972.96	222.42
973.26	222.40
973.55	222.43
973.85	222.43
974.14	222.42
974.43	222.42
974.73	222.40
975.02	222.40
975.31	222.40
975.61	222.39
975.90	222.39
976.19	222.38
976.49	222.39
976.78	222.40
977.07	222.40
977.37	222.41
977.66	222.42
977.95	222.41
978.24	222.42
978.54	222.43
978.83	222.43
979.12	222.42
979.42	222.43
979.71	222.40
980.00	222.40
980.29	222.40
980.59	222.39
980.88	222.41
981.17	222.41
981.46	222.41
981.76	222.41
982.05	222.44
982.34	222.45
982.63	222.45
982.93	222.45
983.22	222.47
983.51	222.47
983.80	222.49
984.09	222.50
984.39	222.49
984.68	222.48
984.97	222.48
985.26	222.48
985.55	222.49
985.85	222.47
986.14	222.48
986.43	222.49
986.72	222.49
987.01	222.46
987.30	222.46
987.59	222.45
987.89	222.45
988.18	222.42
988.47	222.41
988.76	222.40
989.05	222.39
989.34	222.38
989.63	222.41
989.92	222.39
990.22	222.37
990.51	222.38
990.80	222.37
991.09	222.38
991.38	222.39
991.67	222.38
991.96	222.37
992.25	222.37
992.54	222.36
992.83	222.36
993.12	222.35
993.41	222.37
993.70	222.42
993.99	222.43
994.28	222.45
994.58	222.47
994.87	222.46
995.16	222.46
995.45	222.45
995.74	222.41
996.03	222.42
996.32	222.44
996.61	222.45
996.90	222.45
997.19	222.44
997.48	222.45
997.77	222.43
998.06	222.44
998.34	222.43
998.63	222.43
998.92	222.44
999.21	222.46
999.50	222.46
999.79	222.42
1000.08	222.41
1000.37	222.41
1000.66	222.40
1000.95	222.42
1001.24	222.43
1001.53	222.44
1001.82	222.44
1002.11	222.42
1002.40	222.42
1002.68	222.44
1002.97	222.51
1003.26	222.50
1003.55	222.48
1003.84	222.49
1004.13	222.53
1004.42	222.52
1004.71	222.52
1004.99	222.51
1005.28	222.53
1005.57	222.53
1005.86	222.52
1006.15	222.51
1006.44	222.49
1006.72	222.51
1007.01	222.49
1007.30	222.49
1007.59	222.48
1007.88	222.48
1008.17	222.49
1008.45	222.47
1008.74	222.42
1009.03	222.37
1009.32	222.37
1009.60	222.38
1009.89	222.37
1010.18	222.33
1010.47	222.32
1010.76	222.32
1011.04	222.32
1011.33	222.31
1011.62	222.32
1011.91	222.33
1012.19	222.33
1012.48	222.34
1012.77	222.34
1013.05	222.37
1013.34	222.37
1013.63	222.37
1013.92	222.37
1014.20	222.37
1014.49	222.38
1014.78	222.39
1015.06	222.35
1015.35	222.36
1015.64	222.37
1015.92	222.39
1016.21	222.40
1016.50	222.40
1016.78	222.41
1017.07	222.42
1017.36	222.40
1017.64	222.38
1017.93	222.39
1018.22	222.38
1018.50	222.38
1018.79	222.37
1019.08	222.33
1019.36	222.34
1019.65	222.33
1019.93	222.36
1020.22	222.38
1020.51	222.42
1020.79	222.42
1021.08	222.18
1021.36	222.16
1021.65	222.36
1021.94	222.28
1022.22	222.47
1022.51	222.19
1022.79	222.89
1023.08	222.55
1023.36	223.55
1023.65	222.23
>>>>>End Processed Spectral Data<<<<<
