SpectraSuite Data File
++++++++++++++++++++++++++++++++++++
Date: Wed Sep 30 18:32:11 EDT 2015
User: lab3
Dark Spectrum Present: No
Reference Spectrum Present: No
Number of Sampled Component Spectra: 1
Spectrometers: USB2E7196
Integration Time (usec): 36000 (USB2E7196)
Spectra Averaged: 3000 (USB2E7196)
Boxcar Smoothing: 10 (USB2E7196)
Correct for Electrical Dark: No (USB2E7196)
Strobe/Lamp Enabled: No (USB2E7196)
Correct for Detector Non-linearity: No (USB2E7196)
Correct for Stray Light: No (USB2E7196)
Number of Pixels in Processed Spectrum: 2048
>>>>>Begin Processed Spectral Data<<<<<
339.09	0.00
339.48	210.51
339.86	211.86
340.24	213.28
340.63	214.74
341.01	217.56
341.39	217.40
341.78	218.64
342.16	219.85
342.54	220.44
342.93	209.00
343.31	219.56
343.69	220.10
344.07	220.56
344.46	220.99
344.84	221.38
345.22	221.62
345.60	221.88
345.99	222.08
346.37	222.22
346.75	222.33
347.13	222.41
347.52	222.48
347.90	222.56
348.28	222.60
348.66	222.65
349.05	222.65
349.43	222.70
349.81	222.76
350.19	222.81
350.57	222.89
350.96	222.97
351.34	223.06
351.72	223.15
352.10	223.25
352.48	223.32
352.87	223.38
353.25	223.44
353.63	223.50
354.01	223.56
354.39	223.64
354.77	223.72
355.15	223.82
355.54	223.87
355.92	223.91
356.30	223.98
356.68	224.12
357.06	224.19
357.44	224.25
357.82	224.30
358.20	224.42
358.58	224.47
358.97	224.54
359.35	224.62
359.73	224.69
360.11	224.74
360.49	224.80
360.87	224.85
361.25	224.90
361.63	224.99
362.01	225.05
362.39	225.08
362.77	225.12
363.15	225.14
363.53	225.17
363.91	225.21
364.29	225.24
364.67	225.16
365.05	225.19
365.43	225.21
365.81	225.24
366.19	225.25
366.57	225.30
366.95	225.29
367.33	225.27
367.71	225.26
368.09	225.28
368.47	225.27
368.85	225.26
369.23	225.27
369.61	225.21
369.99	225.22
370.37	225.22
370.75	225.27
371.13	225.24
371.51	225.20
371.89	225.18
372.27	225.15
372.65	225.13
373.03	225.09
373.41	225.04
373.78	224.99
374.16	224.90
374.54	224.83
374.92	224.78
375.30	224.73
375.68	224.67
376.06	224.62
376.44	224.57
376.82	224.52
377.19	224.47
377.57	224.42
377.95	224.33
378.33	224.26
378.71	224.12
379.09	224.07
379.47	224.03
379.84	223.97
380.22	223.90
380.60	223.83
380.98	223.78
381.36	223.73
381.73	223.67
382.11	223.64
382.49	223.60
382.87	223.54
383.25	223.49
383.62	223.57
384.00	223.50
384.38	223.46
384.76	223.44
385.13	223.42
385.51	223.38
385.89	223.33
386.27	223.30
386.64	223.27
387.02	223.22
387.40	223.18
387.78	223.15
388.15	223.14
388.53	223.10
388.91	223.07
389.29	223.04
389.66	223.03
390.04	222.99
390.42	222.98
390.79	222.95
391.17	222.94
391.55	222.80
391.92	222.79
392.30	222.79
392.68	222.75
393.05	222.73
393.43	222.73
393.81	222.73
394.18	222.72
394.56	222.72
394.94	222.75
395.31	222.74
395.69	222.78
396.06	222.81
396.44	222.83
396.82	222.84
397.19	222.92
397.57	222.92
397.95	222.96
398.32	222.96
398.70	223.01
399.07	223.07
399.45	223.10
399.82	223.15
400.20	223.19
400.58	223.25
400.95	223.26
401.33	223.34
401.70	223.47
402.08	223.56
402.45	223.64
402.83	223.75
403.20	223.85
403.58	223.92
403.95	224.04
404.33	224.17
404.71	224.29
405.08	224.47
405.46	224.61
405.83	224.77
406.21	224.93
406.58	225.11
406.96	225.29
407.33	225.51
407.70	225.74
408.08	226.06
408.45	226.33
408.83	226.63
409.20	226.91
409.58	227.15
409.95	227.48
410.33	227.86
410.70	228.19
411.08	228.60
411.45	229.03
411.82	229.46
412.20	229.95
412.57	230.55
412.95	231.00
413.32	231.61
413.69	232.23
414.07	232.89
414.44	233.61
414.82	234.34
415.19	235.20
415.56	236.06
415.94	236.96
416.31	237.97
416.68	238.98
417.06	240.15
417.43	241.25
417.81	242.53
418.18	243.82
418.55	245.23
418.93	246.69
419.30	248.23
419.67	249.87
420.04	251.55
420.42	253.30
420.79	255.33
421.16	257.37
421.54	259.46
421.91	261.64
422.28	263.91
422.66	266.35
423.03	268.67
423.40	271.12
423.77	273.74
424.15	276.43
424.52	279.22
424.89	282.26
425.26	285.27
425.64	288.06
426.01	291.20
426.38	294.43
426.75	297.75
427.13	301.16
427.50	304.71
427.87	308.41
428.24	312.15
428.61	315.73
428.99	319.57
429.36	323.80
429.73	327.85
430.10	331.88
430.47	336.00
430.85	340.23
431.22	344.73
431.59	349.37
431.96	353.89
432.33	358.89
432.70	363.62
433.08	369.23
433.45	374.52
433.82	379.72
434.19	385.53
434.56	391.26
434.93	396.75
435.30	402.19
435.68	408.30
436.05	414.29
436.42	420.29
436.79	425.76
437.16	431.65
437.53	437.95
437.90	444.24
438.27	450.38
438.64	457.06
439.01	463.10
439.38	468.61
439.75	473.91
440.13	479.97
440.50	485.73
440.87	490.26
441.24	495.24
441.61	500.76
441.98	504.79
442.35	509.56
442.72	514.48
443.09	519.19
443.46	522.22
443.83	524.45
444.20	526.31
444.57	529.07
444.94	530.68
445.31	532.36
445.68	533.86
446.05	534.99
446.42	534.82
446.79	534.54
447.16	534.30
447.53	534.13
447.90	532.34
448.27	530.66
448.64	528.02
449.01	526.27
449.37	522.46
449.74	518.98
450.11	514.54
450.48	509.62
450.85	504.68
451.22	500.48
451.59	496.40
451.96	492.69
452.33	487.24
452.70	482.39
453.07	476.47
453.43	470.55
453.80	464.80
454.17	459.30
454.54	454.20
454.91	448.44
455.28	443.00
455.65	437.87
456.02	432.42
456.38	428.03
456.75	422.36
457.12	417.80
457.49	413.20
457.86	408.79
458.23	404.94
458.59	400.70
458.96	396.33
459.33	392.47
459.70	388.53
460.07	385.53
460.43	382.01
460.80	378.70
461.17	375.79
461.54	372.65
461.91	369.71
462.27	366.72
462.64	364.28
463.01	361.49
463.38	358.66
463.74	356.10
464.11	353.82
464.48	351.74
464.85	349.52
465.21	347.82
465.58	345.96
465.95	343.80
466.32	342.07
466.68	340.37
467.05	338.67
467.42	337.03
467.78	335.25
468.15	333.61
468.52	332.39
468.88	330.80
469.25	329.33
469.62	328.17
469.98	326.91
470.35	325.79
470.72	324.77
471.08	323.75
471.45	322.90
471.82	321.95
472.18	320.98
472.55	320.35
472.92	319.57
473.28	318.95
473.65	318.32
474.02	317.72
474.38	317.23
474.75	316.95
475.11	316.54
475.48	316.38
475.85	316.22
476.21	316.16
476.58	316.17
476.94	316.35
477.31	316.45
477.67	316.59
478.04	316.83
478.41	317.16
478.77	317.60
479.14	317.92
479.50	318.46
479.87	319.13
480.23	319.81
480.60	320.46
480.96	321.14
481.33	322.07
481.69	323.01
482.06	323.93
482.42	324.81
482.79	325.86
483.15	327.07
483.52	328.42
483.88	329.73
484.25	331.13
484.61	332.59
484.98	334.16
485.34	335.92
485.71	337.73
486.07	339.67
486.44	341.61
486.80	343.76
487.17	345.96
487.53	348.37
487.90	350.89
488.26	353.61
488.62	356.49
488.99	359.36
489.35	362.38
489.72	365.62
490.08	369.03
490.44	372.52
490.81	376.19
491.17	379.96
491.54	383.98
491.90	388.09
492.26	392.51
492.63	397.18
492.99	402.03
493.36	407.03
493.72	412.27
494.08	417.65
494.45	423.33
494.81	429.22
495.17	435.22
495.54	441.55
495.90	448.22
496.26	455.00
496.63	462.03
496.99	469.34
497.35	477.01
497.72	485.00
498.08	493.14
498.44	501.53
498.80	510.44
499.17	519.58
499.53	529.06
499.89	538.77
500.26	548.65
500.62	558.81
500.98	569.63
501.34	580.59
501.71	592.06
502.07	603.77
502.43	615.86
502.79	628.33
503.16	641.19
503.52	654.22
503.88	667.59
504.24	681.41
504.60	695.51
504.97	710.00
505.33	724.83
505.69	740.57
506.05	756.52
506.41	772.52
506.78	788.83
507.14	805.62
507.50	823.01
507.86	840.75
508.22	858.72
508.59	876.70
508.95	895.44
509.31	914.61
509.67	934.47
510.03	954.60
510.39	974.91
510.75	995.45
511.12	1016.24
511.48	1037.44
511.84	1058.72
512.20	1080.30
512.56	1103.00
512.92	1125.98
513.28	1148.69
513.64	1171.66
514.00	1195.06
514.37	1218.76
514.73	1242.46
515.09	1266.05
515.45	1290.01
515.81	1314.59
516.17	1339.27
516.53	1363.61
516.89	1388.04
517.25	1412.64
517.61	1437.42
517.97	1462.44
518.33	1487.23
518.69	1512.29
519.05	1537.59
519.41	1563.02
519.77	1588.71
520.13	1613.66
520.49	1638.73
520.85	1664.01
521.21	1689.23
521.57	1715.05
521.93	1740.22
522.29	1766.22
522.65	1791.91
523.01	1817.43
523.37	1842.29
523.73	1867.76
524.09	1893.41
524.45	1918.99
524.81	1944.16
525.17	1969.22
525.53	1993.85
525.89	2018.48
526.25	2043.23
526.61	2067.40
526.97	2091.92
527.33	2116.40
527.68	2140.75
528.04	2164.26
528.40	2187.68
528.76	2211.27
529.12	2233.79
529.48	2256.83
529.84	2278.01
530.20	2299.77
530.56	2321.26
530.91	2342.75
531.27	2363.73
531.63	2384.11
531.99	2403.96
532.35	2423.52
532.71	2443.25
533.07	2463.63
533.42	2482.39
533.78	2501.62
534.14	2520.73
534.50	2539.09
534.86	2558.01
535.21	2575.15
535.57	2592.32
535.93	2608.54
536.29	2623.67
536.65	2639.47
537.00	2654.11
537.36	2669.42
537.72	2683.59
538.08	2697.61
538.44	2710.55
538.79	2723.64
539.15	2735.00
539.51	2746.25
539.87	2757.01
540.22	2765.68
540.58	2774.39
540.94	2783.82
541.29	2791.58
541.65	2798.57
542.01	2804.93
542.37	2809.41
542.72	2815.68
543.08	2821.35
543.44	2827.14
543.79	2832.00
544.15	2836.28
544.51	2840.33
544.87	2843.52
545.22	2846.27
545.58	2847.88
545.94	2849.96
546.29	2850.65
546.65	2851.58
547.01	2852.43
547.36	2853.57
547.72	2854.95
548.07	2854.75
548.43	2853.86
548.79	2852.37
549.14	2850.86
549.50	2849.79
549.86	2848.10
550.21	2843.95
550.57	2840.38
550.92	2835.14
551.28	2830.59
551.64	2825.75
551.99	2821.45
552.35	2816.69
552.70	2811.50
553.06	2806.98
553.41	2801.87
553.77	2796.21
554.13	2791.17
554.48	2785.44
554.84	2777.87
555.19	2770.32
555.55	2762.20
555.90	2754.56
556.26	2748.10
556.61	2741.05
556.97	2731.89
557.32	2723.58
557.68	2715.60
558.03	2706.84
558.39	2698.90
558.74	2691.22
559.10	2682.34
559.45	2673.16
559.81	2664.01
560.16	2654.39
560.52	2644.22
560.87	2635.06
561.23	2625.67
561.58	2615.74
561.94	2605.57
562.29	2594.96
562.64	2584.84
563.00	2575.09
563.35	2565.33
563.71	2554.54
564.06	2543.18
564.42	2532.87
564.77	2522.10
565.12	2511.46
565.48	2500.45
565.83	2490.09
566.19	2479.77
566.54	2469.14
566.89	2457.35
567.25	2445.84
567.60	2435.13
567.96	2424.03
568.31	2411.65
568.66	2399.00
569.02	2387.41
569.37	2375.64
569.72	2364.43
570.08	2352.36
570.43	2339.72
570.78	2326.80
571.14	2313.75
571.49	2301.46
571.84	2289.43
572.20	2275.96
572.55	2263.03
572.90	2250.07
573.26	2236.42
573.61	2222.06
573.96	2207.80
574.31	2193.98
574.67	2180.32
575.02	2166.14
575.37	2151.56
575.72	2137.30
576.08	2123.62
576.43	2108.84
576.78	2093.94
577.13	2079.88
577.49	2066.12
577.84	2052.75
578.19	2038.55
578.54	2023.80
578.90	2008.53
579.25	1993.02
579.60	1979.08
579.95	1964.72
580.30	1950.34
580.66	1936.07
581.01	1921.35
581.36	1907.15
581.71	1893.51
582.06	1879.43
582.42	1865.42
582.77	1852.24
583.12	1838.59
583.47	1824.89
583.82	1811.35
584.17	1797.67
584.53	1783.86
584.88	1770.03
585.23	1755.96
585.58	1742.34
585.93	1729.12
586.28	1716.70
586.63	1704.15
586.98	1690.73
587.34	1677.64
587.69	1664.04
588.04	1650.65
588.39	1637.94
588.74	1624.68
589.09	1611.23
589.44	1597.70
589.79	1584.77
590.14	1571.60
590.49	1558.66
590.84	1545.70
591.19	1533.37
591.54	1520.59
591.89	1507.62
592.25	1495.01
592.60	1481.87
592.95	1469.28
593.30	1457.05
593.65	1444.69
594.00	1432.44
594.35	1421.11
594.70	1408.77
595.05	1397.50
595.40	1386.15
595.75	1374.19
596.10	1363.04
596.45	1352.10
596.80	1341.62
597.15	1330.84
597.50	1320.11
597.85	1309.57
598.19	1299.20
598.54	1288.30
598.89	1278.10
599.24	1268.23
599.59	1258.03
599.94	1248.89
600.29	1239.70
600.64	1230.31
600.99	1220.29
601.34	1210.78
601.69	1200.63
602.04	1191.67
602.39	1182.57
602.74	1173.72
603.08	1165.15
603.43	1156.06
603.78	1146.74
604.13	1137.59
604.48	1128.41
604.83	1119.51
605.18	1110.48
605.53	1101.41
605.87	1092.41
606.22	1083.74
606.57	1074.74
606.92	1065.79
607.27	1056.79
607.62	1047.82
607.96	1039.04
608.31	1031.28
608.66	1023.11
609.01	1015.38
609.36	1007.53
609.70	999.46
610.05	991.20
610.40	983.32
610.75	975.59
611.10	968.14
611.44	960.23
611.79	952.70
612.14	944.79
612.49	936.97
612.83	929.65
613.18	922.45
613.53	915.07
613.88	907.77
614.22	901.14
614.57	894.26
614.92	887.36
615.27	880.49
615.61	873.42
615.96	866.63
616.31	859.72
616.65	852.78
617.00	846.06
617.35	839.42
617.70	832.81
618.04	826.30
618.39	819.83
618.74	813.72
619.08	807.38
619.43	801.31
619.78	795.30
620.12	789.08
620.47	783.03
620.82	776.99
621.16	771.30
621.51	765.24
621.85	759.22
622.20	753.21
622.55	747.38
622.89	741.51
623.24	735.65
623.59	729.95
623.93	724.26
624.28	718.73
624.62	713.19
624.97	707.62
625.32	702.16
625.66	696.59
626.01	691.02
626.35	685.59
626.70	680.18
627.04	674.96
627.39	669.81
627.73	664.74
628.08	659.92
628.43	654.98
628.77	650.08
629.12	645.28
629.46	640.74
629.81	636.04
630.15	631.23
630.50	626.56
630.84	622.03
631.19	617.69
631.53	613.40
631.88	609.02
632.22	604.72
632.57	600.67
632.91	596.57
633.26	592.55
633.60	588.60
633.95	584.81
634.29	580.87
634.64	576.85
634.98	572.73
635.32	568.80
635.67	565.03
636.01	561.19
636.36	557.39
636.70	553.73
637.05	550.03
637.39	546.52
637.73	542.91
638.08	539.37
638.42	535.83
638.77	532.13
639.11	528.45
639.45	524.78
639.80	521.10
640.14	517.59
640.49	514.05
640.83	510.44
641.17	506.82
641.52	503.38
641.86	499.96
642.20	496.70
642.55	493.28
642.89	489.91
643.23	486.80
643.58	483.93
643.92	480.91
644.26	477.93
644.61	474.96
644.95	471.99
645.29	468.93
645.64	465.84
645.98	462.90
646.32	460.13
646.66	457.37
647.01	454.59
647.35	451.87
647.69	449.05
648.04	446.31
648.38	443.63
648.72	440.93
649.06	438.27
649.41	435.69
649.75	433.09
650.09	430.52
650.43	427.93
650.78	425.32
651.12	422.73
651.46	420.21
651.80	417.81
652.14	415.49
652.49	413.18
652.83	410.94
653.17	408.67
653.51	406.48
653.85	404.35
654.20	402.18
654.54	399.90
654.88	397.81
655.22	395.79
655.56	393.75
655.90	391.79
656.25	389.87
656.59	387.91
656.93	386.06
657.27	384.26
657.61	382.36
657.95	380.52
658.29	378.68
658.64	376.89
658.98	375.04
659.32	373.23
659.66	371.52
660.00	369.84
660.34	368.19
660.68	366.48
661.02	364.70
661.36	363.04
661.70	361.45
662.05	359.85
662.39	358.24
662.73	356.71
663.07	355.20
663.41	353.71
663.75	352.26
664.09	350.83
664.43	349.32
664.77	347.89
665.11	346.41
665.45	345.00
665.79	343.58
666.13	342.18
666.47	340.75
666.81	339.31
667.15	337.81
667.49	336.42
667.83	335.08
668.17	333.80
668.51	332.52
668.85	331.28
669.19	330.08
669.53	328.83
669.87	327.55
670.21	326.29
670.55	325.06
670.89	323.90
671.23	322.69
671.57	321.49
671.91	320.35
672.25	319.28
672.58	318.21
672.92	317.11
673.26	316.09
673.60	315.07
673.94	314.04
674.28	313.08
674.62	312.10
674.96	311.10
675.30	310.15
675.64	309.18
675.97	308.23
676.31	307.25
676.65	306.28
676.99	305.39
677.33	304.43
677.67	303.52
678.01	302.54
678.34	301.63
678.68	300.78
679.02	299.89
679.36	299.01
679.70	298.15
680.04	297.30
680.37	296.44
680.71	295.61
681.05	294.82
681.39	294.01
681.73	293.16
682.06	292.35
682.40	291.55
682.74	290.77
683.08	290.01
683.42	289.24
683.75	288.54
684.09	287.76
684.43	287.04
684.77	286.30
685.10	285.61
685.44	284.90
685.78	284.18
686.12	283.51
686.45	282.81
686.79	282.11
687.13	281.44
687.46	280.75
687.80	280.08
688.14	279.37
688.48	278.71
688.81	278.06
689.15	277.46
689.49	276.81
689.82	276.18
690.16	275.51
690.50	274.89
690.83	274.26
691.17	273.65
691.51	273.07
691.84	272.50
692.18	271.89
692.52	271.28
692.85	270.68
693.19	270.13
693.52	269.58
693.86	269.02
694.20	268.47
694.53	267.94
694.87	267.39
695.21	266.86
695.54	266.34
695.88	265.80
696.21	265.24
696.55	264.72
696.88	264.20
697.22	263.70
697.56	263.20
697.89	262.66
698.23	262.14
698.56	261.61
698.90	261.12
699.23	260.63
699.57	260.18
699.90	259.71
700.24	259.21
700.58	258.76
700.91	258.34
701.25	257.98
701.58	257.59
701.92	257.19
702.25	256.77
702.59	256.33
702.92	255.93
703.26	255.53
703.59	255.12
703.93	254.80
704.26	254.41
704.60	254.01
704.93	253.65
705.26	253.28
705.60	252.94
705.93	252.55
706.27	252.22
706.60	251.88
706.94	251.56
707.27	251.18
707.61	250.81
707.94	250.43
708.27	249.98
708.61	249.58
708.94	249.22
709.28	248.88
709.61	248.55
709.94	248.24
710.28	247.93
710.61	247.63
710.95	247.25
711.28	247.02
711.61	246.73
711.95	246.45
712.28	246.16
712.61	245.86
712.95	245.63
713.28	245.39
713.61	245.10
713.95	244.81
714.28	244.56
714.61	244.30
714.95	244.05
715.28	243.79
715.61	243.54
715.95	243.30
716.28	243.05
716.61	242.83
716.95	242.59
717.28	242.36
717.61	242.12
717.94	241.89
718.28	241.59
718.61	241.36
718.94	241.12
719.27	240.90
719.61	240.69
719.94	240.45
720.27	240.19
720.60	239.98
720.94	239.77
721.27	239.57
721.60	239.40
721.93	239.20
722.27	239.04
722.60	238.86
722.93	238.66
723.26	238.48
723.59	238.27
723.93	238.10
724.26	237.92
724.59	237.75
724.92	237.58
725.25	237.44
725.59	237.26
725.92	237.11
726.25	236.96
726.58	236.80
726.91	236.62
727.24	236.48
727.57	236.33
727.91	236.16
728.24	236.03
728.57	235.86
728.90	235.73
729.23	235.54
729.56	235.45
729.89	235.30
730.22	235.15
730.55	235.01
730.89	234.87
731.22	234.73
731.55	234.58
731.88	234.45
732.21	234.29
732.54	234.17
732.87	234.04
733.20	233.91
733.53	233.79
733.86	233.68
734.19	233.55
734.52	233.44
734.85	233.40
735.18	233.26
735.51	233.17
735.84	233.06
736.17	232.98
736.50	232.81
736.83	232.83
737.16	232.73
737.49	232.63
737.82	232.52
738.15	232.43
738.48	232.33
738.81	232.22
739.14	232.11
739.47	232.00
739.80	231.90
740.13	231.80
740.46	231.69
740.79	231.58
741.12	231.49
741.45	231.37
741.78	231.22
742.11	231.15
742.44	231.03
742.77	230.96
743.10	230.85
743.43	230.76
743.75	230.55
744.08	230.62
744.41	230.52
744.74	230.43
745.07	230.31
745.40	230.25
745.73	230.20
746.06	230.13
746.39	230.07
746.71	229.98
747.04	229.88
747.37	229.81
747.70	229.75
748.03	229.67
748.36	229.63
748.68	229.55
749.01	229.44
749.34	229.37
749.67	229.29
750.00	229.24
750.33	229.25
750.65	229.19
750.98	228.98
751.31	228.92
751.64	228.87
751.97	228.86
752.29	228.79
752.62	228.67
752.95	228.60
753.28	228.51
753.60	228.45
753.93	228.41
754.26	228.35
754.59	228.25
754.91	228.18
755.24	228.10
755.57	228.09
755.90	228.03
756.22	227.95
756.55	227.87
756.88	227.79
757.20	227.66
757.53	227.57
757.86	227.50
758.19	227.45
758.51	227.39
758.84	227.29
759.17	227.22
759.49	227.18
759.82	227.18
760.15	227.13
760.47	227.08
760.80	227.00
761.13	226.97
761.45	226.93
761.78	226.88
762.11	226.82
762.43	226.72
762.76	226.68
763.08	226.65
763.41	226.61
763.74	226.57
764.06	226.53
764.39	226.49
764.71	226.45
765.04	226.40
765.37	226.34
765.69	226.30
766.02	226.26
766.34	226.20
766.67	226.12
767.00	226.10
767.32	226.12
767.65	226.14
767.97	226.09
768.30	226.05
768.62	226.01
768.95	225.96
769.27	225.92
769.60	225.89
769.92	225.83
770.25	225.78
770.57	225.72
770.90	225.68
771.22	225.64
771.55	225.61
771.87	225.58
772.20	225.54
772.52	225.60
772.85	225.69
773.17	225.66
773.50	225.62
773.82	225.57
774.15	225.48
774.47	225.39
774.80	225.34
775.12	225.31
775.45	225.28
775.77	225.26
776.09	225.24
776.42	225.22
776.74	225.22
777.07	225.18
777.39	225.16
777.72	225.12
778.04	225.10
778.36	225.06
778.69	225.03
779.01	225.01
779.33	224.90
779.66	224.75
779.98	224.73
780.31	224.71
780.63	224.73
780.95	224.73
781.28	224.71
781.60	224.68
781.92	224.66
782.25	224.64
782.57	224.62
782.89	224.59
783.22	224.56
783.54	224.52
783.86	224.50
784.19	224.48
784.51	224.49
784.83	224.46
785.16	224.44
785.48	224.42
785.80	224.40
786.12	224.39
786.45	224.37
786.77	224.37
787.09	224.34
787.42	224.29
787.74	224.27
788.06	224.26
788.38	224.25
788.71	224.22
789.03	224.20
789.35	224.20
789.67	224.17
789.99	224.16
790.32	224.14
790.64	224.14
790.96	224.23
791.28	224.18
791.61	224.15
791.93	224.15
792.25	224.13
792.57	224.18
792.89	224.15
793.21	224.15
793.54	224.11
793.86	224.08
794.18	224.07
794.50	224.03
794.82	224.02
795.14	224.02
795.47	224.02
795.79	224.01
796.11	223.97
796.43	223.96
796.75	223.94
797.07	223.93
797.39	223.91
797.71	223.80
798.04	223.80
798.36	223.80
798.68	223.78
799.00	223.78
799.32	223.72
799.64	223.72
799.96	223.71
800.28	223.73
800.60	223.72
800.92	223.71
801.24	223.69
801.56	223.69
801.89	223.67
802.21	223.67
802.53	223.64
802.85	223.66
803.17	223.70
803.49	223.67
803.81	223.65
804.13	223.63
804.45	223.61
804.77	223.61
805.09	223.60
805.41	223.58
805.73	223.55
806.05	223.51
806.37	223.50
806.69	223.48
807.01	223.46
807.33	223.46
807.65	223.42
807.97	223.46
808.28	223.44
808.60	223.44
808.92	223.40
809.24	223.46
809.56	223.44
809.88	223.39
810.20	223.39
810.52	223.41
810.84	223.39
811.16	223.38
811.48	223.36
811.80	223.39
812.12	223.38
812.43	223.39
812.75	223.39
813.07	223.37
813.39	223.37
813.71	223.35
814.03	223.33
814.35	223.33
814.67	223.28
814.98	223.27
815.30	223.25
815.62	223.24
815.94	223.16
816.26	223.17
816.58	223.15
816.89	223.15
817.21	223.12
817.53	223.12
817.85	223.12
818.17	223.11
818.48	223.06
818.80	223.08
819.12	223.06
819.44	223.04
819.76	223.02
820.07	223.02
820.39	223.01
820.71	223.01
821.03	223.01
821.34	223.00
821.66	223.01
821.98	223.01
822.30	223.01
822.61	223.07
822.93	223.04
823.25	223.03
823.57	223.02
823.88	223.03
824.20	223.02
824.52	223.03
824.83	223.02
825.15	223.01
825.47	223.00
825.79	223.00
826.10	223.00
826.42	223.00
826.74	223.00
827.05	223.00
827.37	223.00
827.69	222.99
828.00	222.99
828.32	222.98
828.64	222.96
828.95	223.01
829.27	222.98
829.58	222.98
829.90	222.99
830.22	223.00
830.53	222.98
830.85	222.97
831.17	222.94
831.48	222.93
831.80	222.93
832.11	222.92
832.43	222.90
832.75	222.90
833.06	222.96
833.38	222.93
833.69	222.92
834.01	222.92
834.32	222.91
834.64	222.90
834.96	222.90
835.27	222.89
835.59	222.85
835.90	222.83
836.22	222.83
836.53	222.81
836.85	222.79
837.16	222.89
837.48	222.89
837.79	222.92
838.11	222.93
838.42	222.92
838.74	222.93
839.05	222.92
839.37	222.91
839.68	222.85
840.00	222.85
840.31	222.87
840.63	222.85
840.94	222.85
841.26	222.83
841.57	222.83
841.88	222.84
842.20	222.82
842.51	222.80
842.83	222.80
843.14	222.89
843.46	222.89
843.77	222.83
844.08	222.83
844.40	222.79
844.71	222.77
845.03	222.77
845.34	222.75
845.65	222.75
845.97	222.75
846.28	222.75
846.60	222.75
846.91	222.73
847.22	222.73
847.54	222.75
847.85	222.76
848.16	222.75
848.48	222.73
848.79	222.77
849.10	222.78
849.42	222.79
849.73	222.69
850.04	222.69
850.36	222.66
850.67	222.67
850.98	222.67
851.30	222.68
851.61	222.67
851.92	222.67
852.23	222.70
852.55	222.71
852.86	222.70
853.17	222.71
853.49	222.73
853.80	222.75
854.11	222.75
854.42	222.77
854.74	222.76
855.05	222.76
855.36	222.71
855.67	222.70
855.99	222.70
856.30	222.82
856.61	222.82
856.92	222.81
857.23	222.81
857.55	222.79
857.86	222.78
858.17	222.80
858.48	222.79
858.79	222.76
859.11	222.76
859.42	222.75
859.73	222.74
860.04	222.73
860.35	222.70
860.66	222.67
860.98	222.66
861.29	222.67
861.60	222.66
861.91	222.69
862.22	222.67
862.53	222.65
862.84	222.53
863.16	222.55
863.47	222.55
863.78	222.53
864.09	222.54
864.40	222.55
864.71	222.55
865.02	222.56
865.33	222.55
865.64	222.53
865.95	222.53
866.27	222.59
866.58	222.58
866.89	222.59
867.20	222.59
867.51	222.58
867.82	222.58
868.13	222.61
868.44	222.60
868.75	222.62
869.06	222.63
869.37	222.64
869.68	222.61
869.99	222.63
870.30	222.63
870.61	222.64
870.92	222.63
871.23	222.61
871.54	222.62
871.85	222.65
872.16	222.66
872.47	222.66
872.78	222.60
873.09	222.61
873.40	222.59
873.71	222.60
874.02	222.61
874.33	222.58
874.64	222.55
874.95	222.57
875.26	222.54
875.56	222.53
875.87	222.53
876.18	222.52
876.49	222.62
876.80	222.61
877.11	222.59
877.42	222.60
877.73	222.61
878.04	222.59
878.35	222.59
878.66	222.59
878.96	222.59
879.27	222.59
879.58	222.58
879.89	222.59
880.20	222.61
880.51	222.60
880.82	222.61
881.12	222.61
881.43	222.59
881.74	222.58
882.05	222.58
882.36	222.58
882.67	222.59
882.97	222.47
883.28	222.46
883.59	222.47
883.90	222.47
884.21	222.48
884.51	222.47
884.82	222.45
885.13	222.45
885.44	222.45
885.74	222.45
886.05	222.44
886.36	222.43
886.67	222.40
886.98	222.45
887.28	222.47
887.59	222.47
887.90	222.47
888.20	222.47
888.51	222.48
888.82	222.47
889.13	222.47
889.43	222.56
889.74	222.56
890.05	222.55
890.35	222.55
890.66	222.53
890.97	222.53
891.28	222.52
891.58	222.52
891.89	222.52
892.20	222.51
892.50	222.49
892.81	222.49
893.12	222.49
893.42	222.44
893.73	222.43
894.04	222.43
894.34	222.43
894.65	222.43
894.95	222.42
895.26	222.42
895.57	222.46
895.87	222.36
896.18	222.37
896.48	222.38
896.79	222.37
897.10	222.38
897.40	222.38
897.71	222.38
898.01	222.37
898.32	222.39
898.63	222.38
898.93	222.39
899.24	222.39
899.54	222.39
899.85	222.38
900.15	222.38
900.46	222.38
900.76	222.39
901.07	222.39
901.38	222.39
901.68	222.40
901.99	222.34
902.29	222.35
902.60	222.33
902.90	222.32
903.21	222.32
903.51	222.31
903.82	222.33
904.12	222.33
904.43	222.34
904.73	222.33
905.03	222.34
905.34	222.43
905.64	222.43
905.95	222.43
906.25	222.43
906.56	222.43
906.86	222.42
907.17	222.42
907.47	222.42
907.77	222.40
908.08	222.38
908.38	222.39
908.69	222.40
908.99	222.42
909.30	222.43
909.60	222.43
909.90	222.43
910.21	222.40
910.51	222.38
910.81	222.38
911.12	222.39
911.42	222.38
911.73	222.28
912.03	222.27
912.33	222.29
912.64	222.29
912.94	222.27
913.24	222.25
913.55	222.24
913.85	222.23
914.15	222.25
914.46	222.26
914.76	222.25
915.06	222.24
915.37	222.22
915.67	222.21
915.97	222.22
916.27	222.20
916.58	222.20
916.88	222.21
917.18	222.20
917.49	222.27
917.79	222.27
918.09	222.28
918.39	222.31
918.70	222.31
919.00	222.31
919.30	222.36
919.60	222.36
919.91	222.36
920.21	222.36
920.51	222.34
920.81	222.34
921.12	222.35
921.42	222.34
921.72	222.35
922.02	222.35
922.32	222.37
922.63	222.38
922.93	222.43
923.23	222.44
923.53	222.43
923.83	222.35
924.13	222.36
924.44	222.36
924.74	222.38
925.04	222.40
925.34	222.40
925.64	222.36
925.94	222.35
926.24	222.41
926.55	222.40
926.85	222.41
927.15	222.41
927.45	222.41
927.75	222.42
928.05	222.42
928.35	222.41
928.65	222.42
928.95	222.43
929.26	222.37
929.56	222.39
929.86	222.40
930.16	222.40
930.46	222.39
930.76	222.40
931.06	222.34
931.36	222.31
931.66	222.32
931.96	222.32
932.26	222.34
932.56	222.30
932.86	222.30
933.16	222.30
933.46	222.29
933.76	222.28
934.06	222.30
934.36	222.33
934.66	222.33
934.96	222.32
935.26	222.32
935.56	222.34
935.86	222.31
936.16	222.30
936.46	222.29
936.76	222.29
937.06	222.27
937.36	222.28
937.66	222.29
937.96	222.28
938.26	222.26
938.56	222.26
938.86	222.26
939.16	222.29
939.46	222.30
939.76	222.30
940.06	222.30
940.35	222.28
940.65	222.23
940.95	222.24
941.25	222.22
941.55	222.20
941.85	222.18
942.15	222.21
942.45	222.23
942.75	222.23
943.04	222.24
943.34	222.26
943.64	222.25
943.94	222.23
944.24	222.23
944.54	222.23
944.84	222.23
945.13	222.21
945.43	222.19
945.73	222.18
946.03	222.17
946.33	222.16
946.62	222.15
946.92	222.15
947.22	222.15
947.52	222.16
947.82	222.17
948.11	222.15
948.41	222.13
948.71	222.10
949.01	222.11
949.31	222.09
949.60	222.09
949.90	222.10
950.20	222.10
950.50	222.10
950.79	222.10
951.09	222.11
951.39	222.10
951.69	222.09
951.98	222.11
952.28	222.12
952.58	222.12
952.87	222.12
953.17	222.13
953.47	222.12
953.76	222.12
954.06	222.10
954.36	222.09
954.66	222.08
954.95	222.12
955.25	222.12
955.55	222.13
955.84	222.12
956.14	222.13
956.44	222.13
956.73	222.11
957.03	222.12
957.32	222.12
957.62	222.13
957.92	222.15
958.21	222.14
958.51	222.25
958.81	222.27
959.10	222.28
959.40	222.30
959.69	222.30
959.99	222.32
960.29	222.33
960.58	222.33
960.88	222.37
961.17	222.35
961.47	222.36
961.76	222.35
962.06	222.36
962.36	222.35
962.65	222.36
962.95	222.37
963.24	222.36
963.54	222.37
963.83	222.37
964.13	222.36
964.42	222.35
964.72	222.26
965.01	222.26
965.31	222.25
965.60	222.23
965.90	222.29
966.19	222.26
966.49	222.27
966.78	222.27
967.08	222.26
967.37	222.27
967.67	222.25
967.96	222.27
968.26	222.26
968.55	222.28
968.85	222.27
969.14	222.27
969.43	222.28
969.73	222.27
970.02	222.27
970.32	222.26
970.61	222.25
970.91	222.22
971.20	222.21
971.49	222.20
971.79	222.21
972.08	222.14
972.38	222.16
972.67	222.15
972.96	222.16
973.26	222.14
973.55	222.18
973.85	222.17
974.14	222.15
974.43	222.15
974.73	222.13
975.02	222.13
975.31	222.13
975.61	222.12
975.90	222.11
976.19	222.10
976.49	222.11
976.78	222.12
977.07	222.11
977.37	222.12
977.66	222.13
977.95	222.11
978.24	222.13
978.54	222.15
978.83	222.14
979.12	222.13
979.42	222.14
979.71	222.11
980.00	222.11
980.29	222.11
980.59	222.10
980.88	222.13
981.17	222.13
981.46	222.12
981.76	222.12
982.05	222.15
982.34	222.16
982.63	222.16
982.93	222.16
983.22	222.19
983.51	222.19
983.80	222.20
984.09	222.22
984.39	222.20
984.68	222.19
984.97	222.19
985.26	222.18
985.55	222.18
985.85	222.16
986.14	222.18
986.43	222.19
986.72	222.17
987.01	222.14
987.30	222.15
987.59	222.14
987.89	222.15
988.18	222.11
988.47	222.10
988.76	222.09
989.05	222.08
989.34	222.05
989.63	222.07
989.92	222.06
990.22	222.05
990.51	222.04
990.80	222.03
991.09	222.04
991.38	222.05
991.67	222.05
991.96	222.04
992.25	222.04
992.54	222.02
992.83	222.03
993.12	222.02
993.41	222.04
993.70	222.08
993.99	222.10
994.28	222.11
994.58	222.13
994.87	222.12
995.16	222.12
995.45	222.12
995.74	222.08
996.03	222.09
996.32	222.11
996.61	222.13
996.90	222.13
997.19	222.13
997.48	222.13
997.77	222.12
998.06	222.13
998.34	222.13
998.63	222.12
998.92	222.13
999.21	222.15
999.50	222.14
999.79	222.11
1000.08	222.10
1000.37	222.10
1000.66	222.09
1000.95	222.11
1001.24	222.12
1001.53	222.13
1001.82	222.13
1002.11	222.11
1002.40	222.12
1002.68	222.14
1002.97	222.21
1003.26	222.20
1003.55	222.18
1003.84	222.19
1004.13	222.22
1004.42	222.21
1004.71	222.21
1004.99	222.20
1005.28	222.21
1005.57	222.21
1005.86	222.20
1006.15	222.19
1006.44	222.17
1006.72	222.19
1007.01	222.17
1007.30	222.17
1007.59	222.16
1007.88	222.16
1008.17	222.17
1008.45	222.14
1008.74	222.10
1009.03	222.05
1009.32	222.06
1009.60	222.06
1009.89	222.05
1010.18	222.01
1010.47	222.01
1010.76	222.02
1011.04	222.02
1011.33	222.01
1011.62	222.02
1011.91	222.03
1012.19	222.03
1012.48	222.03
1012.77	222.03
1013.05	222.07
1013.34	222.07
1013.63	222.07
1013.92	222.08
1014.20	222.07
1014.49	222.08
1014.78	222.09
1015.06	222.06
1015.35	222.06
1015.64	222.07
1015.92	222.08
1016.21	222.09
1016.50	222.10
1016.78	222.10
1017.07	222.12
1017.36	222.10
1017.64	222.09
1017.93	222.09
1018.22	222.09
1018.50	222.08
1018.79	222.08
1019.08	222.04
1019.36	222.04
1019.65	222.03
1019.93	222.06
1020.22	222.07
1020.51	222.12
1020.79	222.11
1021.08	222.03
1021.36	221.85
1021.65	222.08
1021.94	221.95
1022.22	222.11
1022.51	221.85
1022.79	222.64
1023.08	222.16
1023.36	223.23
1023.65	221.86
>>>>>End Processed Spectral Data<<<<<
