SpectraSuite Data File
++++++++++++++++++++++++++++++++++++
Date: Wed Sep 30 17:53:28 EDT 2015
User: lab3
Dark Spectrum Present: No
Reference Spectrum Present: No
Number of Sampled Component Spectra: 1
Spectrometers: USB2E7196
Integration Time (usec): 36000 (USB2E7196)
Spectra Averaged: 3000 (USB2E7196)
Boxcar Smoothing: 10 (USB2E7196)
Correct for Electrical Dark: No (USB2E7196)
Strobe/Lamp Enabled: No (USB2E7196)
Correct for Detector Non-linearity: No (USB2E7196)
Correct for Stray Light: No (USB2E7196)
Number of Pixels in Processed Spectrum: 2048
>>>>>Begin Processed Spectral Data<<<<<
339.09	0.00
339.48	211.00
339.86	212.59
340.24	213.79
340.63	215.36
341.01	218.23
341.39	218.09
341.78	219.23
342.16	220.56
342.54	221.02
342.93	209.59
343.31	220.18
343.69	220.71
344.07	221.18
344.46	221.61
344.84	221.99
345.22	222.23
345.60	222.49
345.99	222.69
346.37	222.82
346.75	222.92
347.13	223.00
347.52	223.06
347.90	223.15
348.28	223.19
348.66	223.25
349.05	223.25
349.43	223.29
349.81	223.35
350.19	223.40
350.57	223.47
350.96	223.55
351.34	223.65
351.72	223.75
352.10	223.86
352.48	223.93
352.87	223.98
353.25	224.04
353.63	224.11
354.01	224.17
354.39	224.25
354.77	224.33
355.15	224.43
355.54	224.49
355.92	224.52
356.30	224.60
356.68	224.74
357.06	224.81
357.44	224.87
357.82	224.93
358.20	225.03
358.58	225.10
358.97	225.16
359.35	225.24
359.73	225.31
360.11	225.37
360.49	225.43
360.87	225.48
361.25	225.55
361.63	225.64
362.01	225.69
362.39	225.72
362.77	225.77
363.15	225.80
363.53	225.84
363.91	225.87
364.29	225.89
364.67	225.81
365.05	225.84
365.43	225.87
365.81	225.90
366.19	225.92
366.57	225.96
366.95	225.97
367.33	225.95
367.71	225.95
368.09	225.96
368.47	225.95
368.85	225.94
369.23	225.94
369.61	225.89
369.99	225.90
370.37	225.90
370.75	225.95
371.13	225.92
371.51	225.88
371.89	225.86
372.27	225.83
372.65	225.80
373.03	225.77
373.41	225.72
373.78	225.67
374.16	225.58
374.54	225.50
374.92	225.44
375.30	225.40
375.68	225.33
376.06	225.28
376.44	225.24
376.82	225.19
377.19	225.14
377.57	225.09
377.95	225.00
378.33	224.95
378.71	224.81
379.09	224.75
379.47	224.72
379.84	224.65
380.22	224.59
380.60	224.52
380.98	224.47
381.36	224.41
381.73	224.35
382.11	224.32
382.49	224.28
382.87	224.22
383.25	224.17
383.62	224.24
384.00	224.17
384.38	224.13
384.76	224.11
385.13	224.10
385.51	224.06
385.89	224.01
386.27	223.97
386.64	223.94
387.02	223.90
387.40	223.85
387.78	223.83
388.15	223.80
388.53	223.78
388.91	223.75
389.29	223.71
389.66	223.71
390.04	223.66
390.42	223.65
390.79	223.63
391.17	223.62
391.55	223.48
391.92	223.47
392.30	223.47
392.68	223.43
393.05	223.42
393.43	223.41
393.81	223.41
394.18	223.39
394.56	223.39
394.94	223.42
395.31	223.42
395.69	223.45
396.06	223.47
396.44	223.49
396.82	223.50
397.19	223.57
397.57	223.58
397.95	223.63
398.32	223.63
398.70	223.67
399.07	223.73
399.45	223.77
399.82	223.80
400.20	223.84
400.58	223.89
400.95	223.89
401.33	223.96
401.70	224.10
402.08	224.18
402.45	224.27
402.83	224.37
403.20	224.46
403.58	224.54
403.95	224.66
404.33	224.79
404.71	224.91
405.08	225.08
405.46	225.22
405.83	225.38
406.21	225.54
406.58	225.73
406.96	225.90
407.33	226.11
407.70	226.34
408.08	226.67
408.45	226.94
408.83	227.24
409.20	227.50
409.58	227.75
409.95	228.09
410.33	228.44
410.70	228.78
411.08	229.18
411.45	229.61
411.82	230.04
412.20	230.54
412.57	231.13
412.95	231.59
413.32	232.19
413.69	232.81
414.07	233.47
414.44	234.18
414.82	234.91
415.19	235.77
415.56	236.64
415.94	237.53
416.31	238.55
416.68	239.57
417.06	240.74
417.43	241.84
417.81	243.11
418.18	244.40
418.55	245.82
418.93	247.29
419.30	248.83
419.67	250.46
420.04	252.14
420.42	253.89
420.79	255.93
421.16	257.98
421.54	260.06
421.91	262.23
422.28	264.49
422.66	266.94
423.03	269.27
423.40	271.72
423.77	274.35
424.15	277.04
424.52	279.84
424.89	282.87
425.26	285.89
425.64	288.68
426.01	291.83
426.38	295.05
426.75	298.38
427.13	301.79
427.50	305.34
427.87	309.05
428.24	312.80
428.61	316.38
428.99	320.24
429.36	324.48
429.73	328.54
430.10	332.58
430.47	336.72
430.85	340.96
431.22	345.49
431.59	350.14
431.96	354.67
432.33	359.68
432.70	364.45
433.08	370.08
433.45	375.39
433.82	380.61
434.19	386.45
434.56	392.18
434.93	397.71
435.30	403.16
435.68	409.30
436.05	415.29
436.42	421.29
436.79	426.77
437.16	432.68
437.53	439.00
437.90	445.31
438.27	451.48
438.64	458.16
439.01	464.19
439.38	469.69
439.75	475.01
440.13	481.07
440.50	486.82
440.87	491.35
441.24	496.32
441.61	501.81
441.98	505.83
442.35	510.62
442.72	515.52
443.09	520.21
443.46	523.21
443.83	525.43
444.20	527.29
444.57	530.01
444.94	531.59
445.31	533.24
445.68	534.71
446.05	535.79
446.42	535.58
446.79	535.27
447.16	535.01
447.53	534.80
447.90	532.97
448.27	531.25
448.64	528.57
449.01	526.81
449.37	522.98
449.74	519.47
450.11	514.98
450.48	510.03
450.85	505.06
451.22	500.85
451.59	496.71
451.96	492.95
452.33	487.48
452.70	482.61
453.07	476.68
453.43	470.73
453.80	464.97
454.17	459.45
454.54	454.33
454.91	448.55
455.28	443.10
455.65	437.98
456.02	432.53
456.38	428.12
456.75	422.44
457.12	417.86
457.49	413.25
457.86	408.85
458.23	405.01
458.59	400.76
458.96	396.38
459.33	392.54
459.70	388.63
460.07	385.65
460.43	382.12
460.80	378.82
461.17	375.92
461.54	372.78
461.91	369.86
462.27	366.89
462.64	364.45
463.01	361.66
463.38	358.84
463.74	356.28
464.11	354.00
464.48	351.93
464.85	349.72
465.21	348.03
465.58	346.16
465.95	344.01
466.32	342.28
466.68	340.59
467.05	338.89
467.42	337.25
467.78	335.48
468.15	333.85
468.52	332.64
468.88	331.05
469.25	329.59
469.62	328.43
469.98	327.16
470.35	326.05
470.72	325.03
471.08	324.00
471.45	323.16
471.82	322.23
472.18	321.26
472.55	320.63
472.92	319.86
473.28	319.24
473.65	318.62
474.02	318.03
474.38	317.54
474.75	317.26
475.11	316.85
475.48	316.70
475.85	316.53
476.21	316.48
476.58	316.48
476.94	316.67
477.31	316.78
477.67	316.92
478.04	317.17
478.41	317.49
478.77	317.95
479.14	318.26
479.50	318.81
479.87	319.49
480.23	320.17
480.60	320.81
480.96	321.49
481.33	322.42
481.69	323.35
482.06	324.28
482.42	325.16
482.79	326.22
483.15	327.42
483.52	328.78
483.88	330.09
484.25	331.49
484.61	332.94
484.98	334.51
485.34	336.27
485.71	338.08
486.07	340.02
486.44	341.95
486.80	344.11
487.17	346.30
487.53	348.73
487.90	351.25
488.26	353.97
488.62	356.85
488.99	359.73
489.35	362.74
489.72	366.01
490.08	369.43
490.44	372.94
490.81	376.62
491.17	380.40
491.54	384.43
491.90	388.56
492.26	393.00
492.63	397.68
492.99	402.54
493.36	407.55
493.72	412.81
494.08	418.21
494.45	423.91
494.81	429.80
495.17	435.81
495.54	442.18
495.90	448.86
496.26	455.68
496.63	462.74
496.99	470.09
497.35	477.78
497.72	485.77
498.08	493.94
498.44	502.33
498.80	511.27
499.17	520.43
499.53	529.92
499.89	539.64
500.26	549.55
500.62	559.73
500.98	570.57
501.34	581.54
501.71	593.04
502.07	604.78
502.43	616.94
502.79	629.41
503.16	642.30
503.52	655.36
503.88	668.76
504.24	682.62
504.60	696.72
504.97	711.20
505.33	726.11
505.69	741.91
506.05	757.92
506.41	773.94
506.78	790.27
507.14	807.11
507.50	824.50
507.86	842.30
508.22	860.34
508.59	878.44
508.95	897.28
509.31	916.55
509.67	936.51
510.03	956.68
510.39	977.12
510.75	997.73
511.12	1018.64
511.48	1039.84
511.84	1061.25
512.20	1083.00
512.56	1105.85
512.92	1128.80
513.28	1151.46
513.64	1174.52
514.00	1198.03
514.37	1221.83
514.73	1245.68
515.09	1269.33
515.45	1293.43
515.81	1318.12
516.17	1342.81
516.53	1367.26
516.89	1391.78
517.25	1416.50
517.61	1441.39
517.97	1466.50
518.33	1491.47
518.69	1516.59
519.05	1542.07
519.41	1567.58
519.77	1593.42
520.13	1618.51
520.49	1643.79
520.85	1669.32
521.21	1694.71
521.57	1720.69
521.93	1745.99
522.29	1772.04
522.65	1797.93
523.01	1823.64
523.37	1848.51
523.73	1874.21
524.09	1900.12
524.45	1925.81
524.81	1951.00
525.17	1976.13
525.53	2000.87
525.89	2025.59
526.25	2050.52
526.61	2074.82
526.97	2099.50
527.33	2124.05
527.68	2148.36
528.04	2172.09
528.40	2195.61
528.76	2219.34
529.12	2242.01
529.48	2265.16
529.84	2286.51
530.20	2308.27
530.56	2329.72
530.91	2351.36
531.27	2372.37
531.63	2392.72
531.99	2412.65
532.35	2432.47
532.71	2452.43
533.07	2472.85
533.42	2491.81
533.78	2511.03
534.14	2530.35
534.50	2548.80
534.86	2567.90
535.21	2585.28
535.57	2602.31
535.93	2618.77
536.29	2633.84
536.65	2649.80
537.00	2664.64
537.36	2680.14
537.72	2694.67
538.08	2708.79
538.44	2721.82
538.79	2735.09
539.15	2746.63
539.51	2757.96
539.87	2768.65
540.22	2777.12
540.58	2786.00
540.94	2795.27
541.29	2803.25
541.65	2810.21
542.01	2816.66
542.37	2821.18
542.72	2827.66
543.08	2833.54
543.44	2839.17
543.79	2844.39
544.15	2848.52
544.51	2852.60
544.87	2855.66
545.22	2858.45
545.58	2860.22
545.94	2862.45
546.29	2863.23
546.65	2863.87
547.01	2864.91
547.36	2866.00
547.72	2867.44
548.07	2867.22
548.43	2866.51
548.79	2865.03
549.14	2863.37
549.50	2862.50
549.86	2860.46
550.21	2856.27
550.57	2852.54
550.92	2847.48
551.28	2842.86
551.64	2838.22
551.99	2833.89
552.35	2829.18
552.70	2823.95
553.06	2819.37
553.41	2814.29
553.77	2808.39
554.13	2803.65
554.48	2797.55
554.84	2790.15
555.19	2782.77
555.55	2774.81
555.90	2767.34
556.26	2760.96
556.61	2754.02
556.97	2744.77
557.32	2736.78
557.68	2728.73
558.03	2720.21
558.39	2712.38
558.74	2704.54
559.10	2695.71
559.45	2686.35
559.81	2677.21
560.16	2667.47
560.52	2657.52
560.87	2648.56
561.23	2639.20
561.58	2629.29
561.94	2619.30
562.29	2608.65
562.64	2598.56
563.00	2588.74
563.35	2578.77
563.71	2567.62
564.06	2556.30
564.42	2545.87
564.77	2535.01
565.12	2524.24
565.48	2513.25
565.83	2502.90
566.19	2492.70
566.54	2481.79
566.89	2470.21
567.25	2458.70
567.60	2447.93
567.96	2436.65
568.31	2424.03
568.66	2411.56
569.02	2400.01
569.37	2388.23
569.72	2377.00
570.08	2365.02
570.43	2352.43
570.78	2339.48
571.14	2326.64
571.49	2314.32
571.84	2302.30
572.20	2288.95
572.55	2276.16
572.90	2263.10
573.26	2249.05
573.61	2234.42
573.96	2220.25
574.31	2206.28
574.67	2192.56
575.02	2178.36
575.37	2163.79
575.72	2149.41
576.08	2135.43
576.43	2120.36
576.78	2105.43
577.13	2091.27
577.49	2077.22
577.84	2063.62
578.19	2049.19
578.54	2034.34
578.90	2018.98
579.25	2003.30
579.60	1989.22
579.95	1974.67
580.30	1960.21
580.66	1946.02
581.01	1931.40
581.36	1917.17
581.71	1903.59
582.06	1889.36
582.42	1875.44
582.77	1862.03
583.12	1848.15
583.47	1834.55
583.82	1821.10
584.17	1807.42
584.53	1793.66
584.88	1779.91
585.23	1765.75
585.58	1752.19
585.93	1738.89
586.28	1726.47
586.63	1713.80
586.98	1700.29
587.34	1687.03
587.69	1673.34
588.04	1660.01
588.39	1647.26
588.74	1633.86
589.09	1620.35
589.44	1606.84
589.79	1593.73
590.14	1580.65
590.49	1567.77
590.84	1554.70
591.19	1542.23
591.54	1529.33
591.89	1516.23
592.25	1503.39
592.60	1490.26
592.95	1477.63
593.30	1465.47
593.65	1453.04
594.00	1440.95
594.35	1429.46
594.70	1417.17
595.05	1405.86
595.40	1394.24
595.75	1382.16
596.10	1370.99
596.45	1359.99
596.80	1349.45
597.15	1338.72
597.50	1327.89
597.85	1317.34
598.19	1306.98
598.54	1296.07
598.89	1285.91
599.24	1275.94
599.59	1265.85
599.94	1256.75
600.29	1247.50
600.64	1237.97
600.99	1227.79
601.34	1218.11
601.69	1207.99
602.04	1198.98
602.39	1189.90
602.74	1181.06
603.08	1172.44
603.43	1163.31
603.78	1154.01
604.13	1144.81
604.48	1135.55
604.83	1126.57
605.18	1117.51
605.53	1108.32
605.87	1099.24
606.22	1090.41
606.57	1081.39
606.92	1072.37
607.27	1063.16
607.62	1054.14
607.96	1045.33
608.31	1037.66
608.66	1029.51
609.01	1021.71
609.36	1013.79
609.70	1005.60
610.05	997.32
610.40	989.40
610.75	981.50
611.10	973.89
611.44	965.98
611.79	958.31
612.14	950.27
612.49	942.44
612.83	935.09
613.18	927.80
613.53	920.36
613.88	913.03
614.22	906.34
614.57	899.43
614.92	892.48
615.27	885.54
615.61	878.40
615.96	871.49
616.31	864.53
616.65	857.51
617.00	850.71
617.35	844.06
617.70	837.41
618.04	830.88
618.39	824.37
618.74	818.17
619.08	811.84
619.43	805.74
619.78	799.57
620.12	793.31
620.47	787.20
620.82	781.19
621.16	775.47
621.51	769.38
621.85	763.32
622.20	757.34
622.55	751.50
622.89	745.56
623.24	739.72
623.59	733.95
623.93	728.27
624.28	722.73
624.62	717.14
624.97	711.53
625.32	706.06
625.66	700.44
626.01	694.80
626.35	689.31
626.70	683.89
627.04	678.73
627.39	673.56
627.73	668.51
628.08	663.66
628.43	658.63
628.77	653.67
629.12	648.89
629.46	644.27
629.81	639.45
630.15	634.61
630.50	629.91
630.84	625.41
631.19	621.06
631.53	616.74
631.88	612.34
632.22	608.03
632.57	603.93
632.91	599.78
633.26	595.72
633.60	591.76
633.95	587.95
634.29	583.92
634.64	579.88
634.98	575.73
635.32	571.74
635.67	567.94
636.01	564.08
636.36	560.24
636.70	556.58
637.05	552.91
637.39	549.41
637.73	545.73
638.08	542.16
638.42	538.54
638.77	534.83
639.11	531.05
639.45	527.35
639.80	523.67
640.14	520.18
640.49	516.62
640.83	512.92
641.17	509.30
641.52	505.84
641.86	502.37
642.20	499.10
642.55	495.66
642.89	492.31
643.23	489.15
643.58	486.27
643.92	483.21
644.26	480.20
644.61	477.17
644.95	474.16
645.29	471.07
645.64	467.99
645.98	465.04
646.32	462.30
646.66	459.53
647.01	456.73
647.35	453.99
647.69	451.13
648.04	448.48
648.38	445.79
648.72	443.07
649.06	440.45
649.41	437.84
649.75	435.24
650.09	432.66
650.43	430.09
650.78	427.47
651.12	424.84
651.46	422.33
651.80	419.93
652.14	417.60
652.49	415.29
652.83	413.03
653.17	410.75
653.51	408.53
653.85	406.39
654.20	404.17
654.54	401.89
654.88	399.82
655.22	397.76
655.56	395.68
655.90	393.72
656.25	391.76
656.59	389.78
656.93	387.93
657.27	386.10
657.61	384.17
657.95	382.31
658.29	380.47
658.64	378.64
658.98	376.78
659.32	374.96
659.66	373.25
660.00	371.54
660.34	369.88
660.68	368.16
661.02	366.38
661.36	364.74
661.70	363.14
662.05	361.50
662.39	359.86
662.73	358.32
663.07	356.79
663.41	355.30
663.75	353.86
664.09	352.38
664.43	350.83
664.77	349.40
665.11	347.91
665.45	346.50
665.79	345.09
666.13	343.68
666.47	342.25
666.81	340.79
667.15	339.30
667.49	337.90
667.83	336.55
668.17	335.25
668.51	333.95
668.85	332.68
669.19	331.51
669.53	330.25
669.87	328.96
670.21	327.71
670.55	326.45
670.89	325.28
671.23	324.08
671.57	322.89
671.91	321.76
672.25	320.69
672.58	319.60
672.92	318.49
673.26	317.45
673.60	316.42
673.94	315.37
674.28	314.40
674.62	313.40
674.96	312.38
675.30	311.42
675.64	310.44
675.97	309.47
676.31	308.46
676.65	307.49
676.99	306.59
677.33	305.64
677.67	304.73
678.01	303.74
678.34	302.82
678.68	301.97
679.02	301.07
679.36	300.17
679.70	299.30
680.04	298.44
680.37	297.57
680.71	296.74
681.05	295.96
681.39	295.13
681.73	294.28
682.06	293.47
682.40	292.67
682.74	291.89
683.08	291.13
683.42	290.38
683.75	289.68
684.09	288.89
684.43	288.15
684.77	287.40
685.10	286.70
685.44	286.00
685.78	285.27
686.12	284.58
686.45	283.89
686.79	283.19
687.13	282.51
687.46	281.81
687.80	281.14
688.14	280.42
688.48	279.78
688.81	279.13
689.15	278.52
689.49	277.86
689.82	277.23
690.16	276.54
690.50	275.91
690.83	275.27
691.17	274.66
691.51	274.06
691.84	273.48
692.18	272.87
692.52	272.25
692.85	271.66
693.19	271.11
693.52	270.54
693.86	269.97
694.20	269.41
694.53	268.88
694.87	268.33
695.21	267.80
695.54	267.26
695.88	266.72
696.21	266.14
696.55	265.62
696.88	265.09
697.22	264.59
697.56	264.08
697.89	263.54
698.23	263.02
698.56	262.50
698.90	262.01
699.23	261.51
699.57	261.05
699.90	260.58
700.24	260.09
700.58	259.62
700.91	259.20
701.25	258.84
701.58	258.44
701.92	258.03
702.25	257.61
702.59	257.16
702.92	256.76
703.26	256.35
703.59	255.94
703.93	255.61
704.26	255.22
704.60	254.84
704.93	254.47
705.26	254.09
705.60	253.75
705.93	253.36
706.27	253.04
706.60	252.70
706.94	252.36
707.27	251.97
707.61	251.61
707.94	251.23
708.27	250.79
708.61	250.40
708.94	250.04
709.28	249.70
709.61	249.37
709.94	249.06
710.28	248.75
710.61	248.47
710.95	248.07
711.28	247.84
711.61	247.53
711.95	247.26
712.28	246.96
712.61	246.65
712.95	246.41
713.28	246.18
713.61	245.89
713.95	245.60
714.28	245.35
714.61	245.08
714.95	244.82
715.28	244.55
715.61	244.30
715.95	244.06
716.28	243.81
716.61	243.59
716.95	243.34
717.28	243.11
717.61	242.85
717.94	242.63
718.28	242.32
718.61	242.10
718.94	241.85
719.27	241.62
719.61	241.43
719.94	241.19
720.27	240.92
720.60	240.71
720.94	240.50
721.27	240.30
721.60	240.13
721.93	239.93
722.27	239.77
722.60	239.60
722.93	239.39
723.26	239.20
723.59	238.99
723.93	238.81
724.26	238.64
724.59	238.47
724.92	238.30
725.25	238.16
725.59	238.00
725.92	237.86
726.25	237.70
726.58	237.53
726.91	237.35
727.24	237.21
727.57	237.05
727.91	236.88
728.24	236.73
728.57	236.57
728.90	236.42
729.23	236.24
729.56	236.13
729.89	235.98
730.22	235.83
730.55	235.69
730.89	235.54
731.22	235.38
731.55	235.24
731.88	235.11
732.21	234.95
732.54	234.82
732.87	234.69
733.20	234.57
733.53	234.46
733.86	234.35
734.19	234.21
734.52	234.12
734.85	234.07
735.18	233.94
735.51	233.85
735.84	233.73
736.17	233.65
736.50	233.48
736.83	233.50
737.16	233.40
737.49	233.31
737.82	233.20
738.15	233.11
738.48	233.01
738.81	232.90
739.14	232.79
739.47	232.68
739.80	232.57
740.13	232.48
740.46	232.35
740.79	232.24
741.12	232.14
741.45	232.02
741.78	231.86
742.11	231.80
742.44	231.68
742.77	231.61
743.10	231.50
743.43	231.41
743.75	231.21
744.08	231.28
744.41	231.18
744.74	231.09
745.07	230.98
745.40	230.92
745.73	230.88
746.06	230.80
746.39	230.73
746.71	230.65
747.04	230.55
747.37	230.47
747.70	230.41
748.03	230.34
748.36	230.28
748.68	230.21
749.01	230.10
749.34	230.03
749.67	229.96
750.00	229.90
750.33	229.91
750.65	229.85
750.98	229.63
751.31	229.57
751.64	229.51
751.97	229.50
752.29	229.42
752.62	229.30
752.95	229.23
753.28	229.15
753.60	229.08
753.93	229.04
754.26	228.99
754.59	228.89
754.91	228.82
755.24	228.74
755.57	228.72
755.90	228.66
756.22	228.59
756.55	228.50
756.88	228.42
757.20	228.29
757.53	228.20
757.86	228.14
758.19	228.09
758.51	228.03
758.84	227.92
759.17	227.85
759.49	227.81
759.82	227.81
760.15	227.77
760.47	227.72
760.80	227.64
761.13	227.61
761.45	227.56
761.78	227.51
762.11	227.46
762.43	227.35
762.76	227.31
763.08	227.28
763.41	227.24
763.74	227.20
764.06	227.16
764.39	227.12
764.71	227.07
765.04	227.01
765.37	226.96
765.69	226.92
766.02	226.88
766.34	226.83
766.67	226.74
767.00	226.72
767.32	226.73
767.65	226.75
767.97	226.70
768.30	226.66
768.62	226.62
768.95	226.56
769.27	226.53
769.60	226.50
769.92	226.45
770.25	226.40
770.57	226.34
770.90	226.30
771.22	226.26
771.55	226.23
771.87	226.20
772.20	226.16
772.52	226.22
772.85	226.31
773.17	226.28
773.50	226.24
773.82	226.19
774.15	226.11
774.47	226.01
774.80	225.96
775.12	225.93
775.45	225.90
775.77	225.89
776.09	225.86
776.42	225.83
776.74	225.83
777.07	225.79
777.39	225.78
777.72	225.74
778.04	225.73
778.36	225.69
778.69	225.65
779.01	225.64
779.33	225.52
779.66	225.38
779.98	225.35
780.31	225.33
780.63	225.35
780.95	225.34
781.28	225.32
781.60	225.30
781.92	225.28
782.25	225.26
782.57	225.24
782.89	225.22
783.22	225.19
783.54	225.15
783.86	225.15
784.19	225.12
784.51	225.14
784.83	225.11
785.16	225.09
785.48	225.07
785.80	225.05
786.12	225.04
786.45	225.02
786.77	225.00
787.09	224.98
787.42	224.92
787.74	224.91
788.06	224.90
788.38	224.88
788.71	224.85
789.03	224.84
789.35	224.83
789.67	224.81
789.99	224.79
790.32	224.77
790.64	224.76
790.96	224.84
791.28	224.79
791.61	224.77
791.93	224.76
792.25	224.75
792.57	224.81
792.89	224.79
793.21	224.78
793.54	224.76
793.86	224.74
794.18	224.73
794.50	224.70
794.82	224.68
795.14	224.69
795.47	224.69
795.79	224.68
796.11	224.65
796.43	224.64
796.75	224.62
797.07	224.63
797.39	224.61
797.71	224.51
798.04	224.51
798.36	224.50
798.68	224.49
799.00	224.48
799.32	224.42
799.64	224.43
799.96	224.41
800.28	224.43
800.60	224.41
800.92	224.40
801.24	224.39
801.56	224.39
801.89	224.37
802.21	224.37
802.53	224.34
802.85	224.35
803.17	224.38
803.49	224.35
803.81	224.33
804.13	224.31
804.45	224.29
804.77	224.28
805.09	224.27
805.41	224.26
805.73	224.23
806.05	224.19
806.37	224.17
806.69	224.16
807.01	224.14
807.33	224.14
807.65	224.09
807.97	224.13
808.28	224.11
808.60	224.09
808.92	224.06
809.24	224.12
809.56	224.09
809.88	224.04
810.20	224.03
810.52	224.04
810.84	224.01
811.16	224.00
811.48	223.98
811.80	224.01
812.12	224.00
812.43	224.01
812.75	224.01
813.07	223.99
813.39	223.98
813.71	223.96
814.03	223.95
814.35	223.95
814.67	223.90
814.98	223.88
815.30	223.88
815.62	223.86
815.94	223.78
816.26	223.80
816.58	223.78
816.89	223.79
817.21	223.76
817.53	223.76
817.85	223.76
818.17	223.76
818.48	223.71
818.80	223.72
819.12	223.68
819.44	223.67
819.76	223.65
820.07	223.65
820.39	223.64
820.71	223.64
821.03	223.63
821.34	223.62
821.66	223.63
821.98	223.64
822.30	223.63
822.61	223.69
822.93	223.66
823.25	223.65
823.57	223.63
823.88	223.64
824.20	223.64
824.52	223.65
824.83	223.64
825.15	223.62
825.47	223.62
825.79	223.63
826.10	223.61
826.42	223.61
826.74	223.61
827.05	223.60
827.37	223.60
827.69	223.59
828.00	223.60
828.32	223.59
828.64	223.58
828.95	223.62
829.27	223.59
829.58	223.58
829.90	223.59
830.22	223.59
830.53	223.57
830.85	223.56
831.17	223.52
831.48	223.53
831.80	223.54
832.11	223.53
832.43	223.51
832.75	223.51
833.06	223.57
833.38	223.53
833.69	223.53
834.01	223.53
834.32	223.52
834.64	223.50
834.96	223.50
835.27	223.49
835.59	223.45
835.90	223.43
836.22	223.43
836.53	223.41
836.85	223.40
837.16	223.49
837.48	223.50
837.79	223.53
838.11	223.53
838.42	223.53
838.74	223.54
839.05	223.53
839.37	223.53
839.68	223.47
840.00	223.47
840.31	223.49
840.63	223.47
840.94	223.47
841.26	223.46
841.57	223.46
841.88	223.47
842.20	223.46
842.51	223.44
842.83	223.44
843.14	223.54
843.46	223.54
843.77	223.47
844.08	223.46
844.40	223.43
844.71	223.42
845.03	223.40
845.34	223.39
845.65	223.39
845.97	223.38
846.28	223.39
846.60	223.40
846.91	223.38
847.22	223.37
847.54	223.39
847.85	223.39
848.16	223.38
848.48	223.36
848.79	223.39
849.10	223.41
849.42	223.41
849.73	223.30
850.04	223.30
850.36	223.27
850.67	223.28
850.98	223.28
851.30	223.29
851.61	223.28
851.92	223.28
852.23	223.30
852.55	223.31
852.86	223.31
853.17	223.31
853.49	223.33
853.80	223.35
854.11	223.35
854.42	223.37
854.74	223.35
855.05	223.36
855.36	223.30
855.67	223.30
855.99	223.30
856.30	223.42
856.61	223.41
856.92	223.41
857.23	223.41
857.55	223.40
857.86	223.38
858.17	223.40
858.48	223.38
858.79	223.36
859.11	223.37
859.42	223.36
859.73	223.34
860.04	223.33
860.35	223.30
860.66	223.26
860.98	223.25
861.29	223.27
861.60	223.26
861.91	223.29
862.22	223.28
862.53	223.26
862.84	223.14
863.16	223.16
863.47	223.14
863.78	223.12
864.09	223.13
864.40	223.14
864.71	223.13
865.02	223.15
865.33	223.14
865.64	223.12
865.95	223.12
866.27	223.18
866.58	223.17
866.89	223.18
867.20	223.18
867.51	223.17
867.82	223.16
868.13	223.19
868.44	223.16
868.75	223.18
869.06	223.19
869.37	223.20
869.68	223.18
869.99	223.20
870.30	223.21
870.61	223.21
870.92	223.20
871.23	223.19
871.54	223.20
871.85	223.23
872.16	223.24
872.47	223.23
872.78	223.17
873.09	223.18
873.40	223.18
873.71	223.19
874.02	223.19
874.33	223.18
874.64	223.16
874.95	223.17
875.26	223.15
875.56	223.15
875.87	223.14
876.18	223.14
876.49	223.23
876.80	223.23
877.11	223.21
877.42	223.21
877.73	223.22
878.04	223.20
878.35	223.21
878.66	223.21
878.96	223.20
879.27	223.20
879.58	223.19
879.89	223.18
880.20	223.21
880.51	223.21
880.82	223.21
881.12	223.22
881.43	223.20
881.74	223.19
882.05	223.18
882.36	223.19
882.67	223.20
882.97	223.09
883.28	223.08
883.59	223.07
883.90	223.08
884.21	223.09
884.51	223.09
884.82	223.07
885.13	223.07
885.44	223.07
885.74	223.07
886.05	223.06
886.36	223.06
886.67	223.02
886.98	223.08
887.28	223.09
887.59	223.08
887.90	223.09
888.20	223.09
888.51	223.11
888.82	223.10
889.13	223.10
889.43	223.18
889.74	223.18
890.05	223.18
890.35	223.16
890.66	223.15
890.97	223.13
891.28	223.13
891.58	223.12
891.89	223.12
892.20	223.12
892.50	223.11
892.81	223.10
893.12	223.10
893.42	223.04
893.73	223.04
894.04	223.04
894.34	223.04
894.65	223.04
894.95	223.02
895.26	223.02
895.57	223.07
895.87	222.97
896.18	222.99
896.48	223.00
896.79	223.00
897.10	223.01
897.40	223.02
897.71	223.02
898.01	223.01
898.32	223.02
898.63	223.02
898.93	223.03
899.24	223.04
899.54	223.03
899.85	223.03
900.15	223.03
900.46	223.02
900.76	223.03
901.07	223.03
901.38	223.02
901.68	223.04
901.99	222.98
902.29	222.98
902.60	222.98
902.90	222.96
903.21	222.96
903.51	222.95
903.82	222.97
904.12	222.97
904.43	222.98
904.73	222.97
905.03	222.97
905.34	223.07
905.64	223.06
905.95	223.06
906.25	223.06
906.56	223.05
906.86	223.06
907.17	223.04
907.47	223.04
907.77	223.03
908.08	223.00
908.38	223.01
908.69	223.02
908.99	223.03
909.30	223.04
909.60	223.03
909.90	223.04
910.21	223.00
910.51	222.98
910.81	222.98
911.12	222.98
911.42	222.99
911.73	222.87
912.03	222.88
912.33	222.90
912.64	222.89
912.94	222.88
913.24	222.86
913.55	222.85
913.85	222.85
914.15	222.87
914.46	222.89
914.76	222.88
915.06	222.88
915.37	222.86
915.67	222.85
915.97	222.85
916.27	222.84
916.58	222.85
916.88	222.85
917.18	222.84
917.49	222.91
917.79	222.90
918.09	222.92
918.39	222.94
918.70	222.93
919.00	222.94
919.30	223.00
919.60	222.99
919.91	222.98
920.21	222.99
920.51	222.96
920.81	222.95
921.12	222.97
921.42	222.96
921.72	222.97
922.02	222.97
922.32	222.99
922.63	222.99
922.93	223.05
923.23	223.05
923.53	223.04
923.83	222.97
924.13	222.98
924.44	222.97
924.74	222.98
925.04	223.01
925.34	222.99
925.64	222.95
925.94	222.96
926.24	223.01
926.55	223.00
926.85	223.02
927.15	223.02
927.45	223.01
927.75	223.01
928.05	223.00
928.35	223.00
928.65	223.00
928.95	223.01
929.26	222.96
929.56	222.97
929.86	223.00
930.16	222.98
930.46	222.98
930.76	222.99
931.06	222.94
931.36	222.90
931.66	222.92
931.96	222.94
932.26	222.94
932.56	222.90
932.86	222.91
933.16	222.91
933.46	222.91
933.76	222.90
934.06	222.92
934.36	222.96
934.66	222.95
934.96	222.93
935.26	222.94
935.56	222.95
935.86	222.93
936.16	222.91
936.46	222.91
936.76	222.90
937.06	222.88
937.36	222.90
937.66	222.90
937.96	222.90
938.26	222.87
938.56	222.86
938.86	222.87
939.16	222.88
939.46	222.89
939.76	222.91
940.06	222.91
940.35	222.89
940.65	222.84
940.95	222.85
941.25	222.83
941.55	222.82
941.85	222.82
942.15	222.84
942.45	222.86
942.75	222.86
943.04	222.86
943.34	222.87
943.64	222.86
943.94	222.85
944.24	222.85
944.54	222.86
944.84	222.86
945.13	222.85
945.43	222.83
945.73	222.83
946.03	222.81
946.33	222.80
946.62	222.79
946.92	222.79
947.22	222.79
947.52	222.80
947.82	222.80
948.11	222.79
948.41	222.77
948.71	222.75
949.01	222.76
949.31	222.75
949.60	222.75
949.90	222.77
950.20	222.76
950.50	222.76
950.79	222.75
951.09	222.76
951.39	222.76
951.69	222.74
951.98	222.76
952.28	222.76
952.58	222.76
952.87	222.76
953.17	222.78
953.47	222.77
953.76	222.77
954.06	222.76
954.36	222.74
954.66	222.74
954.95	222.77
955.25	222.78
955.55	222.78
955.84	222.76
956.14	222.77
956.44	222.78
956.73	222.76
957.03	222.77
957.32	222.77
957.62	222.77
957.92	222.79
958.21	222.78
958.51	222.90
958.81	222.91
959.10	222.91
959.40	222.93
959.69	222.93
959.99	222.95
960.29	222.95
960.58	222.96
960.88	223.00
961.17	222.97
961.47	222.98
961.76	222.97
962.06	222.99
962.36	222.98
962.65	222.98
962.95	222.99
963.24	222.97
963.54	222.98
963.83	222.99
964.13	222.97
964.42	222.96
964.72	222.86
965.01	222.87
965.31	222.86
965.60	222.83
965.90	222.89
966.19	222.86
966.49	222.86
966.78	222.86
967.08	222.84
967.37	222.85
967.67	222.83
967.96	222.84
968.26	222.84
968.55	222.84
968.85	222.84
969.14	222.83
969.43	222.84
969.73	222.82
970.02	222.82
970.32	222.82
970.61	222.81
970.91	222.78
971.20	222.77
971.49	222.76
971.79	222.77
972.08	222.70
972.38	222.71
972.67	222.70
972.96	222.71
973.26	222.70
973.55	222.72
973.85	222.72
974.14	222.71
974.43	222.72
974.73	222.71
975.02	222.70
975.31	222.71
975.61	222.71
975.90	222.70
976.19	222.70
976.49	222.71
976.78	222.71
977.07	222.71
977.37	222.71
977.66	222.73
977.95	222.71
978.24	222.71
978.54	222.74
978.83	222.74
979.12	222.73
979.42	222.73
979.71	222.72
980.00	222.72
980.29	222.72
980.59	222.70
980.88	222.72
981.17	222.72
981.46	222.72
981.76	222.72
982.05	222.74
982.34	222.75
982.63	222.74
982.93	222.75
983.22	222.78
983.51	222.79
983.80	222.80
984.09	222.82
984.39	222.81
984.68	222.80
984.97	222.80
985.26	222.80
985.55	222.81
985.85	222.79
986.14	222.80
986.43	222.82
986.72	222.82
987.01	222.78
987.30	222.78
987.59	222.77
987.89	222.78
988.18	222.75
988.47	222.74
988.76	222.73
989.05	222.72
989.34	222.70
989.63	222.72
989.92	222.71
990.22	222.69
990.51	222.69
990.80	222.67
991.09	222.69
991.38	222.70
991.67	222.68
991.96	222.68
992.25	222.68
992.54	222.65
992.83	222.65
993.12	222.65
993.41	222.67
993.70	222.72
993.99	222.73
994.28	222.74
994.58	222.76
994.87	222.75
995.16	222.74
995.45	222.74
995.74	222.69
996.03	222.70
996.32	222.73
996.61	222.75
996.90	222.76
997.19	222.74
997.48	222.75
997.77	222.74
998.06	222.74
998.34	222.73
998.63	222.73
998.92	222.74
999.21	222.75
999.50	222.76
999.79	222.72
1000.08	222.72
1000.37	222.73
1000.66	222.72
1000.95	222.75
1001.24	222.75
1001.53	222.77
1001.82	222.77
1002.11	222.75
1002.40	222.76
1002.68	222.78
1002.97	222.85
1003.26	222.84
1003.55	222.82
1003.84	222.83
1004.13	222.87
1004.42	222.86
1004.71	222.86
1004.99	222.84
1005.28	222.86
1005.57	222.84
1005.86	222.84
1006.15	222.82
1006.44	222.81
1006.72	222.82
1007.01	222.80
1007.30	222.80
1007.59	222.79
1007.88	222.78
1008.17	222.79
1008.45	222.75
1008.74	222.71
1009.03	222.66
1009.32	222.67
1009.60	222.66
1009.89	222.66
1010.18	222.61
1010.47	222.61
1010.76	222.61
1011.04	222.61
1011.33	222.60
1011.62	222.62
1011.91	222.62
1012.19	222.62
1012.48	222.63
1012.77	222.63
1013.05	222.67
1013.34	222.66
1013.63	222.66
1013.92	222.67
1014.20	222.67
1014.49	222.68
1014.78	222.69
1015.06	222.66
1015.35	222.65
1015.64	222.67
1015.92	222.68
1016.21	222.69
1016.50	222.69
1016.78	222.70
1017.07	222.71
1017.36	222.69
1017.64	222.67
1017.93	222.68
1018.22	222.67
1018.50	222.67
1018.79	222.66
1019.08	222.62
1019.36	222.63
1019.65	222.62
1019.93	222.64
1020.22	222.66
1020.51	222.71
1020.79	222.69
1021.08	222.46
1021.36	222.50
1021.65	222.69
1021.94	222.57
1022.22	222.74
1022.51	222.49
1022.79	223.09
1023.08	222.82
1023.36	223.90
1023.65	222.41
>>>>>End Processed Spectral Data<<<<<
