SpectraSuite Data File
++++++++++++++++++++++++++++++++++++
Date: Thu Oct 01 00:22:23 EDT 2015
User: lab3
Dark Spectrum Present: No
Reference Spectrum Present: No
Number of Sampled Component Spectra: 1
Spectrometers: USB2E7196
Integration Time (usec): 36000 (USB2E7196)
Spectra Averaged: 10000 (USB2E7196)
Boxcar Smoothing: 10 (USB2E7196)
Correct for Electrical Dark: No (USB2E7196)
Strobe/Lamp Enabled: No (USB2E7196)
Correct for Detector Non-linearity: No (USB2E7196)
Correct for Stray Light: No (USB2E7196)
Number of Pixels in Processed Spectrum: 2048
>>>>>Begin Processed Spectral Data<<<<<
339.09	0.00
339.48	210.00
339.86	211.43
340.24	212.89
340.63	214.29
341.01	217.23
341.39	216.92
341.78	218.31
342.16	219.50
342.54	219.99
342.93	208.59
343.31	219.13
343.69	219.66
344.07	220.12
344.46	220.55
344.84	220.93
345.22	221.17
345.60	221.42
345.99	221.62
346.37	221.75
346.75	221.86
347.13	221.94
347.52	222.00
347.90	222.08
348.28	222.12
348.66	222.17
349.05	222.17
349.43	222.22
349.81	222.27
350.19	222.33
350.57	222.39
350.96	222.47
351.34	222.57
351.72	222.67
352.10	222.77
352.48	222.85
352.87	222.90
353.25	222.96
353.63	223.02
354.01	223.08
354.39	223.16
354.77	223.24
355.15	223.34
355.54	223.39
355.92	223.42
356.30	223.50
356.68	223.64
357.06	223.71
357.44	223.76
357.82	223.82
358.20	223.93
358.58	223.99
358.97	224.06
359.35	224.13
359.73	224.21
360.11	224.26
360.49	224.32
360.87	224.36
361.25	224.43
361.63	224.51
362.01	224.56
362.39	224.59
362.77	224.63
363.15	224.66
363.53	224.69
363.91	224.73
364.29	224.76
364.67	224.68
365.05	224.70
365.43	224.73
365.81	224.76
366.19	224.78
366.57	224.83
366.95	224.83
367.33	224.81
367.71	224.80
368.09	224.82
368.47	224.82
368.85	224.81
369.23	224.82
369.61	224.77
369.99	224.78
370.37	224.78
370.75	224.84
371.13	224.81
371.51	224.77
371.89	224.75
372.27	224.72
372.65	224.70
373.03	224.66
373.41	224.62
373.78	224.57
374.16	224.47
374.54	224.40
374.92	224.35
375.30	224.31
375.68	224.25
376.06	224.20
376.44	224.15
376.82	224.10
377.19	224.05
377.57	224.00
377.95	223.92
378.33	223.86
378.71	223.71
379.09	223.66
379.47	223.63
379.84	223.57
380.22	223.51
380.60	223.44
380.98	223.39
381.36	223.33
381.73	223.27
382.11	223.24
382.49	223.20
382.87	223.14
383.25	223.09
383.62	223.16
384.00	223.09
384.38	223.05
384.76	223.03
385.13	223.01
385.51	222.97
385.89	222.92
386.27	222.88
386.64	222.86
387.02	222.82
387.40	222.77
387.78	222.74
388.15	222.71
388.53	222.68
388.91	222.65
389.29	222.61
389.66	222.60
390.04	222.56
390.42	222.56
390.79	222.54
391.17	222.52
391.55	222.39
391.92	222.38
392.30	222.38
392.68	222.34
393.05	222.32
393.43	222.31
393.81	222.31
394.18	222.30
394.56	222.30
394.94	222.32
395.31	222.32
395.69	222.36
396.06	222.38
396.44	222.41
396.82	222.42
397.19	222.50
397.57	222.51
397.95	222.55
398.32	222.54
398.70	222.58
399.07	222.64
399.45	222.68
399.82	222.72
400.20	222.75
400.58	222.81
400.95	222.82
401.33	222.90
401.70	223.03
402.08	223.12
402.45	223.20
402.83	223.30
403.20	223.40
403.58	223.48
403.95	223.60
404.33	223.73
404.71	223.86
405.08	224.04
405.46	224.18
405.83	224.34
406.21	224.51
406.58	224.70
406.96	224.88
407.33	225.10
407.70	225.34
408.08	225.66
408.45	225.94
408.83	226.25
409.20	226.53
409.58	226.78
409.95	227.12
410.33	227.49
410.70	227.84
411.08	228.25
411.45	228.69
411.82	229.13
412.20	229.64
412.57	230.24
412.95	230.71
413.32	231.33
413.69	231.96
414.07	232.63
414.44	233.36
414.82	234.10
415.19	234.97
415.56	235.86
415.94	236.78
416.31	237.81
416.68	238.84
417.06	240.04
417.43	241.16
417.81	242.46
418.18	243.78
418.55	245.22
418.93	246.72
419.30	248.28
419.67	249.95
420.04	251.66
420.42	253.45
420.79	255.51
421.16	257.60
421.54	259.73
421.91	261.95
422.28	264.25
422.66	266.74
423.03	269.11
423.40	271.60
423.77	274.26
424.15	276.99
424.52	279.83
424.89	282.90
425.26	285.95
425.64	288.79
426.01	291.98
426.38	295.23
426.75	298.59
427.13	302.03
427.50	305.62
427.87	309.35
428.24	313.12
428.61	316.72
428.99	320.60
429.36	324.86
429.73	328.94
430.10	333.00
430.47	337.14
430.85	341.40
431.22	345.94
431.59	350.60
431.96	355.13
432.33	360.16
432.70	364.92
433.08	370.55
433.45	375.87
433.82	381.10
434.19	386.94
434.56	392.68
434.93	398.20
435.30	403.67
435.68	409.83
436.05	415.86
436.42	421.88
436.79	427.37
437.16	433.29
437.53	439.62
437.90	445.96
438.27	452.14
438.64	458.87
439.01	464.95
439.38	470.51
439.75	475.88
440.13	482.01
440.50	487.86
440.87	492.47
441.24	497.55
441.61	503.15
441.98	507.25
442.35	512.14
442.72	517.17
443.09	521.99
443.46	525.11
443.83	527.44
444.20	529.43
444.57	532.31
444.94	534.05
445.31	535.86
445.68	537.50
446.05	538.75
446.42	538.69
446.79	538.54
447.16	538.42
447.53	538.36
447.90	536.65
448.27	535.05
448.64	532.48
449.01	530.80
449.37	527.04
449.74	523.63
450.11	519.23
450.48	514.35
450.85	509.43
451.22	505.27
451.59	501.20
451.96	497.50
452.33	492.03
452.70	487.17
453.07	481.21
453.43	475.23
453.80	469.44
454.17	463.88
454.54	458.72
454.91	452.88
455.28	447.37
455.65	442.18
456.02	436.65
456.38	432.20
456.75	426.42
457.12	421.77
457.49	417.07
457.86	412.57
458.23	408.65
458.59	404.30
458.96	399.83
459.33	395.88
459.70	391.85
460.07	388.79
460.43	385.17
460.80	381.79
461.17	378.80
461.54	375.58
461.91	372.58
462.27	369.52
462.64	367.01
463.01	364.14
463.38	361.25
463.74	358.63
464.11	356.29
464.48	354.18
464.85	351.92
465.21	350.19
465.58	348.29
465.95	346.08
466.32	344.31
466.68	342.58
467.05	340.84
467.42	339.17
467.78	337.37
468.15	335.70
468.52	334.45
468.88	332.83
469.25	331.34
469.62	330.16
469.98	328.87
470.35	327.73
470.72	326.70
471.08	325.66
471.45	324.79
471.82	323.84
472.18	322.85
472.55	322.20
472.92	321.41
473.28	320.79
473.65	320.15
474.02	319.54
474.38	319.04
474.75	318.77
475.11	318.36
475.48	318.20
475.85	318.03
476.21	317.99
476.58	317.99
476.94	318.18
477.31	318.29
477.67	318.45
478.04	318.70
478.41	319.03
478.77	319.49
479.14	319.82
479.50	320.36
479.87	321.04
480.23	321.73
480.60	322.39
480.96	323.08
481.33	324.03
481.69	324.98
482.06	325.93
482.42	326.82
482.79	327.89
483.15	329.12
483.52	330.48
483.88	331.81
484.25	333.22
484.61	334.69
484.98	336.28
485.34	338.05
485.71	339.89
486.07	341.85
486.44	343.80
486.80	345.97
487.17	348.19
487.53	350.63
487.90	353.18
488.26	355.92
488.62	358.82
488.99	361.73
489.35	364.76
489.72	368.03
490.08	371.48
490.44	375.01
490.81	378.72
491.17	382.51
491.54	386.57
491.90	390.72
492.26	395.18
492.63	399.89
492.99	404.78
493.36	409.79
493.72	415.08
494.08	420.50
494.45	426.22
494.81	432.16
495.17	438.21
495.54	444.61
495.90	451.33
496.26	458.17
496.63	465.25
496.99	472.62
497.35	480.34
497.72	488.36
498.08	496.55
498.44	504.99
498.80	513.98
499.17	523.19
499.53	532.74
499.89	542.52
500.26	552.47
500.62	562.70
500.98	573.58
501.34	584.62
501.71	596.20
502.07	607.98
502.43	620.16
502.79	632.70
503.16	645.63
503.52	658.74
503.88	672.23
504.24	686.14
504.60	700.34
504.97	714.93
505.33	729.88
505.69	745.73
506.05	761.78
506.41	777.84
506.78	794.21
507.14	811.06
507.50	828.51
507.86	846.35
508.22	864.43
508.59	882.54
508.95	901.37
509.31	920.62
509.67	940.56
510.03	960.76
510.39	981.14
510.75	1001.76
511.12	1022.67
511.48	1043.93
511.84	1065.26
512.20	1086.90
512.56	1109.62
512.92	1132.60
513.28	1155.31
513.64	1178.31
514.00	1201.72
514.37	1225.47
514.73	1249.22
515.09	1272.81
515.45	1296.80
515.81	1321.37
516.17	1346.02
516.53	1370.33
516.89	1394.72
517.25	1419.30
517.61	1444.05
517.97	1469.01
518.33	1493.71
518.69	1518.58
519.05	1543.69
519.41	1568.93
519.77	1594.45
520.13	1619.22
520.49	1644.12
520.85	1669.23
521.21	1694.28
521.57	1719.94
521.93	1744.89
522.29	1770.70
522.65	1796.22
523.01	1821.54
523.37	1846.16
523.73	1871.38
524.09	1896.76
524.45	1922.08
524.81	1946.93
525.17	1971.70
525.53	1996.04
525.89	2020.43
526.25	2045.01
526.61	2069.03
526.97	2093.38
527.33	2117.63
527.68	2141.72
528.04	2164.95
528.40	2188.08
528.76	2211.39
529.12	2233.65
529.48	2256.28
529.84	2277.05
530.20	2298.44
530.56	2319.49
530.91	2340.59
531.27	2361.20
531.63	2381.19
531.99	2400.65
532.35	2419.74
532.71	2438.93
533.07	2458.77
533.42	2477.01
533.78	2495.71
534.14	2514.31
534.50	2532.09
534.86	2550.53
535.21	2567.12
535.57	2583.71
535.93	2599.47
536.29	2614.07
536.65	2629.45
537.00	2643.72
537.36	2658.53
537.72	2672.23
538.08	2685.71
538.44	2698.02
538.79	2710.50
539.15	2721.34
539.51	2732.13
539.87	2742.59
540.22	2750.95
540.58	2759.32
540.94	2768.32
541.29	2775.74
541.65	2782.24
542.01	2788.20
542.37	2792.28
542.72	2798.26
543.08	2803.70
543.44	2809.07
543.79	2813.51
544.15	2817.16
544.51	2820.77
544.87	2823.52
545.22	2825.81
545.58	2827.06
545.94	2828.79
546.29	2829.10
546.65	2829.60
547.01	2830.05
547.36	2830.66
547.72	2831.40
548.07	2830.71
548.43	2829.35
548.79	2827.37
549.14	2825.48
549.50	2824.09
549.86	2821.93
550.21	2817.28
550.57	2813.08
550.92	2807.49
551.28	2802.54
551.64	2797.44
551.99	2792.77
552.35	2787.66
552.70	2782.16
553.06	2777.40
553.41	2772.17
553.77	2766.36
554.13	2761.12
554.48	2755.09
554.84	2747.36
555.19	2739.77
555.55	2731.59
555.90	2723.96
556.26	2717.39
556.61	2710.15
556.97	2700.80
557.32	2692.26
557.68	2684.23
558.03	2675.46
558.39	2667.39
558.74	2659.54
559.10	2650.41
559.45	2641.01
559.81	2631.89
560.16	2622.11
560.52	2611.83
560.87	2602.53
561.23	2592.93
561.58	2582.86
561.94	2572.48
562.29	2561.64
562.64	2551.37
563.00	2541.47
563.35	2531.44
563.71	2520.48
564.06	2508.97
564.42	2498.54
564.77	2487.70
565.12	2476.96
565.48	2466.00
565.83	2455.67
566.19	2445.32
566.54	2434.66
566.89	2423.00
567.25	2411.32
567.60	2400.51
567.96	2389.27
568.31	2376.64
568.66	2363.87
569.02	2352.17
569.37	2340.27
569.72	2328.90
570.08	2316.80
570.43	2304.17
570.78	2291.24
571.14	2278.07
571.49	2265.71
571.84	2253.62
572.20	2240.25
572.55	2227.25
572.90	2214.14
573.26	2200.19
573.61	2185.65
573.96	2171.32
574.31	2157.39
574.67	2143.69
575.02	2129.57
575.37	2115.01
575.72	2100.75
576.08	2087.13
576.43	2072.45
576.78	2057.75
577.13	2043.87
577.49	2030.10
577.84	2016.67
578.19	2002.38
578.54	1987.73
578.90	1972.56
579.25	1957.12
579.60	1943.11
579.95	1928.75
580.30	1914.39
580.66	1900.29
581.01	1885.81
581.36	1871.72
581.71	1858.20
582.06	1844.18
582.42	1830.15
582.77	1816.93
583.12	1803.37
583.47	1789.81
583.82	1776.38
584.17	1762.87
584.53	1749.18
584.88	1735.44
585.23	1721.42
585.58	1707.90
585.93	1694.81
586.28	1682.54
586.63	1670.11
586.98	1656.93
587.34	1644.01
587.69	1630.57
588.04	1617.33
588.39	1604.82
588.74	1591.81
589.09	1578.51
589.44	1565.20
589.79	1552.50
590.14	1539.60
590.49	1526.90
590.84	1514.10
591.19	1501.96
591.54	1489.29
591.89	1476.48
592.25	1464.05
592.60	1451.16
592.95	1438.85
593.30	1426.83
593.65	1414.60
594.00	1402.53
594.35	1391.34
594.70	1379.25
595.05	1368.30
595.40	1357.20
595.75	1345.47
596.10	1334.49
596.45	1323.74
596.80	1313.45
597.15	1302.94
597.50	1292.46
597.85	1282.18
598.19	1272.07
598.54	1261.34
598.89	1251.37
599.24	1241.71
599.59	1231.79
599.94	1222.91
600.29	1213.92
600.64	1204.69
600.99	1194.92
601.34	1185.62
601.69	1175.66
602.04	1166.83
602.39	1157.80
602.74	1149.02
603.08	1140.51
603.43	1131.52
603.78	1122.37
604.13	1113.41
604.48	1104.37
604.83	1095.61
605.18	1086.73
605.53	1077.81
605.87	1069.02
606.22	1060.49
606.57	1051.70
606.92	1042.98
607.27	1034.15
607.62	1025.40
607.96	1016.83
608.31	1009.23
608.66	1001.20
609.01	993.63
609.36	986.00
609.70	978.16
610.05	970.13
610.40	962.46
610.75	954.92
611.10	947.67
611.44	939.98
611.79	932.64
612.14	924.89
612.49	917.29
612.83	910.18
613.18	903.14
613.53	895.90
613.88	888.72
614.22	882.16
614.57	875.42
614.92	868.66
615.27	861.92
615.61	855.06
615.96	848.43
616.31	841.70
616.65	834.85
617.00	828.27
617.35	821.83
617.70	815.40
618.04	809.04
618.39	802.71
618.74	796.71
619.08	790.52
619.43	784.60
619.78	778.73
620.12	772.63
620.47	766.70
620.82	760.83
621.16	755.30
621.51	749.43
621.85	743.54
622.20	737.71
622.55	732.06
622.89	726.36
623.24	720.69
623.59	715.12
623.93	709.59
624.28	704.20
624.62	698.79
624.97	693.37
625.32	688.06
625.66	682.61
626.01	677.17
626.35	671.87
626.70	666.60
627.04	661.49
627.39	656.45
627.73	651.52
628.08	646.83
628.43	642.02
628.77	637.27
629.12	632.65
629.46	628.22
629.81	623.61
630.15	618.86
630.50	614.28
630.84	609.87
631.19	605.66
631.53	601.50
631.88	597.22
632.22	593.04
632.57	589.11
632.91	585.12
633.26	581.23
633.60	577.41
633.95	573.69
634.29	569.84
634.64	565.93
634.98	561.93
635.32	558.09
635.67	554.39
636.01	550.63
636.36	546.89
636.70	543.31
637.05	539.71
637.39	536.33
637.73	532.82
638.08	529.37
638.42	525.89
638.77	522.27
639.11	518.66
639.45	515.08
639.80	511.49
640.14	508.10
640.49	504.64
640.83	501.10
641.17	497.57
641.52	494.23
641.86	490.89
642.20	487.71
642.55	484.39
642.89	481.13
643.23	478.09
643.58	475.28
643.92	472.35
644.26	469.45
644.61	466.53
644.95	463.63
645.29	460.67
645.64	457.67
645.98	454.82
646.32	452.13
646.66	449.46
647.01	446.75
647.35	444.09
647.69	441.33
648.04	438.70
648.38	436.12
648.72	433.49
649.06	430.94
649.41	428.41
649.75	425.89
650.09	423.39
650.43	420.88
650.78	418.36
651.12	415.84
651.46	413.41
651.80	411.08
652.14	408.82
652.49	406.59
652.83	404.40
653.17	402.21
653.51	400.08
653.85	398.01
654.20	395.89
654.54	393.68
654.88	391.66
655.22	389.71
655.56	387.71
655.90	385.82
656.25	383.93
656.59	382.04
656.93	380.25
657.27	378.50
657.61	376.65
657.95	374.87
658.29	373.09
658.64	371.34
658.98	369.57
659.32	367.83
659.66	366.18
660.00	364.56
660.34	362.96
660.68	361.30
661.02	359.58
661.36	357.98
661.70	356.45
662.05	354.90
662.39	353.34
662.73	351.86
663.07	350.41
663.41	348.97
663.75	347.57
664.09	346.17
664.43	344.68
664.77	343.30
665.11	341.85
665.45	340.49
665.79	339.12
666.13	337.75
666.47	336.35
666.81	334.94
667.15	333.49
667.49	332.15
667.83	330.85
668.17	329.60
668.51	328.37
668.85	327.16
669.19	326.02
669.53	324.80
669.87	323.56
670.21	322.36
670.55	321.16
670.89	320.05
671.23	318.90
671.57	317.76
671.91	316.67
672.25	315.65
672.58	314.62
672.92	313.56
673.26	312.57
673.60	311.59
673.94	310.59
674.28	309.65
674.62	308.72
674.96	307.74
675.30	306.82
675.64	305.87
675.97	304.95
676.31	303.98
676.65	303.04
676.99	302.17
677.33	301.23
677.67	300.35
678.01	299.39
678.34	298.50
678.68	297.67
679.02	296.81
679.36	295.95
679.70	295.10
680.04	294.28
680.37	293.44
680.71	292.64
681.05	291.89
681.39	291.09
681.73	290.26
682.06	289.47
682.40	288.69
682.74	287.94
683.08	287.21
683.42	286.47
683.75	285.79
684.09	285.04
684.43	284.34
684.77	283.61
685.10	282.95
685.44	282.26
685.78	281.56
686.12	280.91
686.45	280.23
686.79	279.57
687.13	278.92
687.46	278.25
687.80	277.60
688.14	276.91
688.48	276.27
688.81	275.64
689.15	275.06
689.49	274.43
689.82	273.82
690.16	273.16
690.50	272.56
690.83	271.95
691.17	271.37
691.51	270.80
691.84	270.25
692.18	269.66
692.52	269.07
692.85	268.50
693.19	267.97
693.52	267.43
693.86	266.88
694.20	266.34
694.53	265.83
694.87	265.31
695.21	264.81
695.54	264.31
695.88	263.79
696.21	263.25
696.55	262.74
696.88	262.24
697.22	261.76
697.56	261.28
697.89	260.75
698.23	260.25
698.56	259.74
698.90	259.27
699.23	258.79
699.57	258.35
699.90	257.90
700.24	257.42
700.58	256.98
700.91	256.57
701.25	256.23
701.58	255.85
701.92	255.47
702.25	255.06
702.59	254.64
702.92	254.25
703.26	253.86
703.59	253.47
703.93	253.17
704.26	252.80
704.60	252.43
704.93	252.07
705.26	251.71
705.60	251.39
705.93	251.02
706.27	250.71
706.60	250.39
706.94	250.09
707.27	249.72
707.61	249.37
707.94	249.01
708.27	248.58
708.61	248.20
708.94	247.85
709.28	247.52
709.61	247.20
709.94	246.90
710.28	246.60
710.61	246.32
710.95	245.94
711.28	245.72
711.61	245.43
711.95	245.17
712.28	244.89
712.61	244.59
712.95	244.38
713.28	244.15
713.61	243.87
713.95	243.58
714.28	243.34
714.61	243.08
714.95	242.83
715.28	242.58
715.61	242.34
715.95	242.11
716.28	241.87
716.61	241.66
716.95	241.42
717.28	241.20
717.61	240.96
717.94	240.74
718.28	240.45
718.61	240.23
718.94	239.99
719.27	239.78
719.61	239.58
719.94	239.35
720.27	239.10
720.60	238.90
720.94	238.70
721.27	238.51
721.60	238.35
721.93	238.15
722.27	238.01
722.60	237.84
722.93	237.64
723.26	237.48
723.59	237.28
723.93	237.11
724.26	236.95
724.59	236.78
724.92	236.62
725.25	236.49
725.59	236.33
725.92	236.20
726.25	236.05
726.58	235.90
726.91	235.73
727.24	235.60
727.57	235.45
727.91	235.29
728.24	235.15
728.57	234.99
728.90	234.86
729.23	234.69
729.56	234.59
729.89	234.45
730.22	234.30
730.55	234.17
730.89	234.02
731.22	233.88
731.55	233.75
731.88	233.62
732.21	233.47
732.54	233.34
732.87	233.21
733.20	233.10
733.53	232.98
733.86	232.87
734.19	232.74
734.52	232.65
734.85	232.61
735.18	232.47
735.51	232.39
735.84	232.28
736.17	232.20
736.50	232.05
736.83	232.06
737.16	231.96
737.49	231.87
737.82	231.77
738.15	231.69
738.48	231.60
738.81	231.49
739.14	231.38
739.47	231.28
739.80	231.17
740.13	231.08
740.46	230.97
740.79	230.86
741.12	230.76
741.45	230.65
741.78	230.50
742.11	230.44
742.44	230.32
742.77	230.25
743.10	230.14
743.43	230.05
743.75	229.85
744.08	229.92
744.41	229.83
744.74	229.74
745.07	229.63
745.40	229.57
745.73	229.54
746.06	229.46
746.39	229.40
746.71	229.32
747.04	229.23
747.37	229.16
747.70	229.11
748.03	229.04
748.36	228.99
748.68	228.92
749.01	228.81
749.34	228.74
749.67	228.67
750.00	228.62
750.33	228.63
750.65	228.58
750.98	228.36
751.31	228.29
751.64	228.23
751.97	228.23
752.29	228.15
752.62	228.04
752.95	227.97
753.28	227.89
753.60	227.82
753.93	227.78
754.26	227.73
754.59	227.63
754.91	227.55
755.24	227.48
755.57	227.46
755.90	227.40
756.22	227.33
756.55	227.26
756.88	227.18
757.20	227.05
757.53	226.96
757.86	226.90
758.19	226.85
758.51	226.79
758.84	226.68
759.17	226.62
759.49	226.58
759.82	226.58
760.15	226.54
760.47	226.49
760.80	226.41
761.13	226.38
761.45	226.33
761.78	226.29
762.11	226.24
762.43	226.14
762.76	226.10
763.08	226.06
763.41	226.03
763.74	225.99
764.06	225.94
764.39	225.90
764.71	225.86
765.04	225.81
765.37	225.76
765.69	225.72
766.02	225.68
766.34	225.63
766.67	225.55
767.00	225.52
767.32	225.54
767.65	225.56
767.97	225.52
768.30	225.49
768.62	225.45
768.95	225.41
769.27	225.37
769.60	225.35
769.92	225.29
770.25	225.24
770.57	225.19
770.90	225.15
771.22	225.11
771.55	225.08
771.87	225.05
772.20	225.02
772.52	225.08
772.85	225.17
773.17	225.15
773.50	225.11
773.82	225.06
774.15	224.98
774.47	224.88
774.80	224.84
775.12	224.81
775.45	224.78
775.77	224.76
776.09	224.74
776.42	224.71
776.74	224.72
777.07	224.69
777.39	224.67
777.72	224.63
778.04	224.62
778.36	224.59
778.69	224.57
779.01	224.55
779.33	224.44
779.66	224.29
779.98	224.26
780.31	224.24
780.63	224.26
780.95	224.27
781.28	224.24
781.60	224.21
781.92	224.19
782.25	224.17
782.57	224.15
782.89	224.12
783.22	224.10
783.54	224.05
783.86	224.04
784.19	224.02
784.51	224.03
784.83	224.00
785.16	223.98
785.48	223.96
785.80	223.94
786.12	223.93
786.45	223.91
786.77	223.90
787.09	223.88
787.42	223.82
787.74	223.81
788.06	223.79
788.38	223.78
788.71	223.75
789.03	223.74
789.35	223.74
789.67	223.71
789.99	223.70
790.32	223.68
790.64	223.67
790.96	223.76
791.28	223.70
791.61	223.69
791.93	223.68
792.25	223.66
792.57	223.72
792.89	223.69
793.21	223.68
793.54	223.66
793.86	223.64
794.18	223.63
794.50	223.59
794.82	223.58
795.14	223.58
795.47	223.59
795.79	223.57
796.11	223.54
796.43	223.52
796.75	223.51
797.07	223.50
797.39	223.49
797.71	223.38
798.04	223.38
798.36	223.37
798.68	223.35
799.00	223.35
799.32	223.29
799.64	223.29
799.96	223.28
800.28	223.29
800.60	223.28
800.92	223.27
801.24	223.26
801.56	223.26
801.89	223.23
802.21	223.23
802.53	223.20
802.85	223.22
803.17	223.26
803.49	223.23
803.81	223.21
804.13	223.19
804.45	223.17
804.77	223.17
805.09	223.16
805.41	223.15
805.73	223.12
806.05	223.08
806.37	223.07
806.69	223.05
807.01	223.03
807.33	223.03
807.65	222.99
807.97	223.03
808.28	223.00
808.60	222.99
808.92	222.97
809.24	223.03
809.56	223.00
809.88	222.95
810.20	222.95
810.52	222.96
810.84	222.94
811.16	222.93
811.48	222.92
811.80	222.94
812.12	222.93
812.43	222.94
812.75	222.94
813.07	222.93
813.39	222.93
813.71	222.90
814.03	222.89
814.35	222.88
814.67	222.84
814.98	222.82
815.30	222.81
815.62	222.79
815.94	222.72
816.26	222.72
816.58	222.69
816.89	222.70
817.21	222.67
817.53	222.67
817.85	222.67
818.17	222.66
818.48	222.62
818.80	222.64
819.12	222.61
819.44	222.59
819.76	222.57
820.07	222.56
820.39	222.56
820.71	222.57
821.03	222.56
821.34	222.55
821.66	222.56
821.98	222.57
822.30	222.57
822.61	222.63
822.93	222.60
823.25	222.60
823.57	222.59
823.88	222.59
824.20	222.59
824.52	222.60
824.83	222.59
825.15	222.58
825.47	222.56
825.79	222.57
826.10	222.57
826.42	222.57
826.74	222.57
827.05	222.57
827.37	222.56
827.69	222.56
828.00	222.56
828.32	222.55
828.64	222.53
828.95	222.58
829.27	222.55
829.58	222.55
829.90	222.56
830.22	222.57
830.53	222.55
830.85	222.53
831.17	222.50
831.48	222.50
831.80	222.50
832.11	222.49
832.43	222.48
832.75	222.47
833.06	222.53
833.38	222.50
833.69	222.49
834.01	222.49
834.32	222.48
834.64	222.47
834.96	222.46
835.27	222.46
835.59	222.42
835.90	222.40
836.22	222.39
836.53	222.36
836.85	222.35
837.16	222.45
837.48	222.45
837.79	222.49
838.11	222.49
838.42	222.49
838.74	222.50
839.05	222.49
839.37	222.49
839.68	222.42
840.00	222.42
840.31	222.43
840.63	222.42
840.94	222.40
841.26	222.39
841.57	222.39
841.88	222.40
842.20	222.38
842.51	222.36
842.83	222.36
843.14	222.45
843.46	222.45
843.77	222.39
844.08	222.38
844.40	222.34
844.71	222.33
845.03	222.32
845.34	222.30
845.65	222.30
845.97	222.30
846.28	222.31
846.60	222.31
846.91	222.29
847.22	222.29
847.54	222.31
847.85	222.32
848.16	222.31
848.48	222.29
848.79	222.32
849.10	222.34
849.42	222.34
849.73	222.24
850.04	222.24
850.36	222.20
850.67	222.22
850.98	222.21
851.30	222.22
851.61	222.22
851.92	222.22
852.23	222.25
852.55	222.25
852.86	222.25
853.17	222.25
853.49	222.27
853.80	222.29
854.11	222.29
854.42	222.30
854.74	222.29
855.05	222.29
855.36	222.24
855.67	222.24
855.99	222.23
856.30	222.36
856.61	222.35
856.92	222.36
857.23	222.36
857.55	222.35
857.86	222.34
858.17	222.35
858.48	222.33
858.79	222.31
859.11	222.32
859.42	222.31
859.73	222.29
860.04	222.29
860.35	222.25
860.66	222.22
860.98	222.21
861.29	222.23
861.60	222.22
861.91	222.24
862.22	222.22
862.53	222.21
862.84	222.08
863.16	222.10
863.47	222.08
863.78	222.07
864.09	222.08
864.40	222.09
864.71	222.08
865.02	222.10
865.33	222.08
865.64	222.07
865.95	222.07
866.27	222.13
866.58	222.12
866.89	222.14
867.20	222.14
867.51	222.12
867.82	222.11
868.13	222.14
868.44	222.12
868.75	222.13
869.06	222.14
869.37	222.15
869.68	222.12
869.99	222.14
870.30	222.14
870.61	222.15
870.92	222.13
871.23	222.12
871.54	222.13
871.85	222.16
872.16	222.17
872.47	222.16
872.78	222.10
873.09	222.11
873.40	222.10
873.71	222.11
874.02	222.12
874.33	222.11
874.64	222.09
874.95	222.11
875.26	222.09
875.56	222.09
875.87	222.08
876.18	222.08
876.49	222.18
876.80	222.17
877.11	222.15
877.42	222.16
877.73	222.16
878.04	222.14
878.35	222.14
878.66	222.13
878.96	222.13
879.27	222.13
879.58	222.12
879.89	222.12
880.20	222.14
880.51	222.13
880.82	222.14
881.12	222.14
881.43	222.11
881.74	222.10
882.05	222.10
882.36	222.10
882.67	222.11
882.97	222.00
883.28	221.99
883.59	221.99
883.90	222.00
884.21	222.01
884.51	222.01
884.82	221.99
885.13	221.99
885.44	221.98
885.74	221.99
886.05	221.98
886.36	221.98
886.67	221.95
886.98	222.00
887.28	222.01
887.59	222.01
887.90	222.02
888.20	222.02
888.51	222.04
888.82	222.02
889.13	222.03
889.43	222.12
889.74	222.11
890.05	222.11
890.35	222.10
890.66	222.08
890.97	222.07
891.28	222.06
891.58	222.06
891.89	222.06
892.20	222.05
892.50	222.04
892.81	222.03
893.12	222.03
893.42	221.98
893.73	221.98
894.04	221.97
894.34	221.98
894.65	221.98
894.95	221.97
895.26	221.97
895.57	222.01
895.87	221.91
896.18	221.93
896.48	221.93
896.79	221.93
897.10	221.95
897.40	221.96
897.71	221.97
898.01	221.96
898.32	221.97
898.63	221.97
898.93	221.98
899.24	221.98
899.54	221.98
899.85	221.98
900.15	221.96
900.46	221.97
900.76	221.97
901.07	221.97
901.38	221.96
901.68	221.97
901.99	221.92
902.29	221.93
902.60	221.92
902.90	221.91
903.21	221.91
903.51	221.89
903.82	221.91
904.12	221.91
904.43	221.91
904.73	221.90
905.03	221.91
905.34	222.01
905.64	222.00
905.95	222.00
906.25	222.00
906.56	222.00
906.86	221.99
907.17	221.98
907.47	221.99
907.77	221.98
908.08	221.96
908.38	221.96
908.69	221.97
908.99	221.99
909.30	221.99
909.60	221.99
909.90	222.00
910.21	221.97
910.51	221.95
910.81	221.95
911.12	221.96
911.42	221.96
911.73	221.85
912.03	221.86
912.33	221.88
912.64	221.87
912.94	221.87
913.24	221.85
913.55	221.84
913.85	221.84
914.15	221.86
914.46	221.87
914.76	221.86
915.06	221.85
915.37	221.83
915.67	221.83
915.97	221.83
916.27	221.81
916.58	221.82
916.88	221.81
917.18	221.80
917.49	221.87
917.79	221.86
918.09	221.88
918.39	221.90
918.70	221.89
919.00	221.90
919.30	221.94
919.60	221.94
919.91	221.93
920.21	221.94
920.51	221.91
920.81	221.91
921.12	221.93
921.42	221.92
921.72	221.93
922.02	221.94
922.32	221.95
922.63	221.95
922.93	222.01
923.23	222.02
923.53	222.01
923.83	221.94
924.13	221.95
924.44	221.94
924.74	221.96
925.04	221.98
925.34	221.98
925.64	221.93
925.94	221.93
926.24	221.99
926.55	221.98
926.85	222.00
927.15	222.00
927.45	221.99
927.75	221.99
928.05	221.99
928.35	221.98
928.65	222.00
928.95	222.01
929.26	221.95
929.56	221.98
929.86	221.99
930.16	221.98
930.46	221.97
930.76	221.98
931.06	221.93
931.36	221.90
931.66	221.92
931.96	221.93
932.26	221.93
932.56	221.89
932.86	221.89
933.16	221.89
933.46	221.88
933.76	221.87
934.06	221.89
934.36	221.92
934.66	221.92
934.96	221.90
935.26	221.90
935.56	221.92
935.86	221.89
936.16	221.87
936.46	221.86
936.76	221.86
937.06	221.84
937.36	221.85
937.66	221.86
937.96	221.85
938.26	221.82
938.56	221.82
938.86	221.82
939.16	221.84
939.46	221.85
939.76	221.86
940.06	221.85
940.35	221.83
940.65	221.78
940.95	221.79
941.25	221.77
941.55	221.76
941.85	221.75
942.15	221.78
942.45	221.81
942.75	221.80
943.04	221.81
943.34	221.83
943.64	221.82
943.94	221.81
944.24	221.81
944.54	221.82
944.84	221.81
945.13	221.79
945.43	221.77
945.73	221.77
946.03	221.76
946.33	221.76
946.62	221.74
946.92	221.74
947.22	221.75
947.52	221.76
947.82	221.77
948.11	221.75
948.41	221.73
948.71	221.70
949.01	221.71
949.31	221.70
949.60	221.68
949.90	221.70
950.20	221.71
950.50	221.70
950.79	221.69
951.09	221.72
951.39	221.71
951.69	221.71
951.98	221.72
952.28	221.73
952.58	221.73
952.87	221.73
953.17	221.75
953.47	221.73
953.76	221.73
954.06	221.71
954.36	221.70
954.66	221.70
954.95	221.73
955.25	221.74
955.55	221.75
955.84	221.73
956.14	221.73
956.44	221.74
956.73	221.72
957.03	221.74
957.32	221.73
957.62	221.73
957.92	221.75
958.21	221.73
958.51	221.85
958.81	221.87
959.10	221.88
959.40	221.90
959.69	221.91
959.99	221.92
960.29	221.92
960.58	221.92
960.88	221.96
961.17	221.94
961.47	221.94
961.76	221.93
962.06	221.95
962.36	221.94
962.65	221.94
962.95	221.95
963.24	221.94
963.54	221.94
963.83	221.95
964.13	221.94
964.42	221.93
964.72	221.84
965.01	221.84
965.31	221.83
965.60	221.80
965.90	221.86
966.19	221.84
966.49	221.84
966.78	221.84
967.08	221.83
967.37	221.83
967.67	221.81
967.96	221.83
968.26	221.82
968.55	221.83
968.85	221.83
969.14	221.82
969.43	221.82
969.73	221.81
970.02	221.80
970.32	221.79
970.61	221.78
970.91	221.75
971.20	221.73
971.49	221.72
971.79	221.73
972.08	221.65
972.38	221.66
972.67	221.66
972.96	221.67
973.26	221.65
973.55	221.68
973.85	221.67
974.14	221.66
974.43	221.67
974.73	221.65
975.02	221.64
975.31	221.64
975.61	221.65
975.90	221.64
976.19	221.63
976.49	221.64
976.78	221.65
977.07	221.65
977.37	221.66
977.66	221.67
977.95	221.66
978.24	221.67
978.54	221.69
978.83	221.68
979.12	221.67
979.42	221.67
979.71	221.65
980.00	221.65
980.29	221.66
980.59	221.64
980.88	221.66
981.17	221.67
981.46	221.67
981.76	221.66
982.05	221.70
982.34	221.71
982.63	221.71
982.93	221.70
983.22	221.73
983.51	221.73
983.80	221.75
984.09	221.76
984.39	221.75
984.68	221.74
984.97	221.74
985.26	221.74
985.55	221.75
985.85	221.73
986.14	221.75
986.43	221.76
986.72	221.76
987.01	221.72
987.30	221.72
987.59	221.72
987.89	221.72
988.18	221.69
988.47	221.68
988.76	221.67
989.05	221.66
989.34	221.64
989.63	221.67
989.92	221.65
990.22	221.63
990.51	221.63
990.80	221.62
991.09	221.63
991.38	221.65
991.67	221.63
991.96	221.62
992.25	221.62
992.54	221.61
992.83	221.61
993.12	221.61
993.41	221.63
993.70	221.67
993.99	221.68
994.28	221.70
994.58	221.71
994.87	221.70
995.16	221.70
995.45	221.70
995.74	221.66
996.03	221.68
996.32	221.70
996.61	221.72
996.90	221.72
997.19	221.71
997.48	221.71
997.77	221.71
998.06	221.71
998.34	221.71
998.63	221.70
998.92	221.70
999.21	221.72
999.50	221.72
999.79	221.68
1000.08	221.68
1000.37	221.68
1000.66	221.66
1000.95	221.69
1001.24	221.70
1001.53	221.72
1001.82	221.72
1002.11	221.69
1002.40	221.70
1002.68	221.71
1002.97	221.79
1003.26	221.77
1003.55	221.75
1003.84	221.77
1004.13	221.80
1004.42	221.79
1004.71	221.79
1004.99	221.78
1005.28	221.80
1005.57	221.79
1005.86	221.78
1006.15	221.77
1006.44	221.76
1006.72	221.77
1007.01	221.75
1007.30	221.75
1007.59	221.73
1007.88	221.73
1008.17	221.74
1008.45	221.71
1008.74	221.67
1009.03	221.62
1009.32	221.63
1009.60	221.63
1009.89	221.62
1010.18	221.58
1010.47	221.58
1010.76	221.57
1011.04	221.58
1011.33	221.57
1011.62	221.58
1011.91	221.59
1012.19	221.59
1012.48	221.60
1012.77	221.60
1013.05	221.64
1013.34	221.64
1013.63	221.63
1013.92	221.64
1014.20	221.64
1014.49	221.64
1014.78	221.65
1015.06	221.62
1015.35	221.62
1015.64	221.63
1015.92	221.64
1016.21	221.65
1016.50	221.66
1016.78	221.67
1017.07	221.68
1017.36	221.67
1017.64	221.65
1017.93	221.66
1018.22	221.65
1018.50	221.65
1018.79	221.64
1019.08	221.60
1019.36	221.61
1019.65	221.60
1019.93	221.63
1020.22	221.64
1020.51	221.70
1020.79	221.69
1021.08	221.48
1021.36	221.42
1021.65	221.64
1021.94	221.56
1022.22	221.69
1022.51	221.40
1022.79	222.16
1023.08	221.81
1023.36	222.90
1023.65	221.42
>>>>>End Processed Spectral Data<<<<<
