SpectraSuite Data File
++++++++++++++++++++++++++++++++++++
Date: Wed Sep 30 22:31:48 EDT 2015
User: lab3
Dark Spectrum Present: No
Reference Spectrum Present: No
Number of Sampled Component Spectra: 1
Spectrometers: USB2E7196
Integration Time (usec): 36000 (USB2E7196)
Spectra Averaged: 10000 (USB2E7196)
Boxcar Smoothing: 10 (USB2E7196)
Correct for Electrical Dark: No (USB2E7196)
Strobe/Lamp Enabled: No (USB2E7196)
Correct for Detector Non-linearity: No (USB2E7196)
Correct for Stray Light: No (USB2E7196)
Number of Pixels in Processed Spectrum: 2048
>>>>>Begin Processed Spectral Data<<<<<
339.09	0.00
339.48	209.71
339.86	211.15
340.24	212.56
340.63	213.97
341.01	216.92
341.39	216.62
341.78	218.01
342.16	219.24
342.54	219.65
342.93	208.30
343.31	218.83
343.69	219.37
344.07	219.83
344.46	220.26
344.84	220.65
345.22	220.88
345.60	221.13
345.99	221.33
346.37	221.46
346.75	221.57
347.13	221.65
347.52	221.71
347.90	221.79
348.28	221.83
348.66	221.88
349.05	221.88
349.43	221.93
349.81	221.98
350.19	222.04
350.57	222.10
350.96	222.19
351.34	222.27
351.72	222.37
352.10	222.47
352.48	222.55
352.87	222.60
353.25	222.67
353.63	222.73
354.01	222.79
354.39	222.87
354.77	222.94
355.15	223.05
355.54	223.10
355.92	223.13
356.30	223.21
356.68	223.35
357.06	223.43
357.44	223.48
357.82	223.54
358.20	223.66
358.58	223.72
358.97	223.78
359.35	223.87
359.73	223.94
360.11	224.00
360.49	224.06
360.87	224.11
361.25	224.17
361.63	224.25
362.01	224.30
362.39	224.33
362.77	224.38
363.15	224.41
363.53	224.45
363.91	224.48
364.29	224.51
364.67	224.43
365.05	224.46
365.43	224.49
365.81	224.52
366.19	224.54
366.57	224.58
366.95	224.59
367.33	224.56
367.71	224.56
368.09	224.58
368.47	224.57
368.85	224.56
369.23	224.57
369.61	224.52
369.99	224.54
370.37	224.53
370.75	224.59
371.13	224.56
371.51	224.52
371.89	224.50
372.27	224.47
372.65	224.45
373.03	224.41
373.41	224.37
373.78	224.32
374.16	224.22
374.54	224.15
374.92	224.10
375.30	224.06
375.68	223.99
376.06	223.94
376.44	223.89
376.82	223.85
377.19	223.80
377.57	223.74
377.95	223.66
378.33	223.60
378.71	223.46
379.09	223.41
379.47	223.37
379.84	223.31
380.22	223.25
380.60	223.18
380.98	223.13
381.36	223.07
381.73	223.01
382.11	222.98
382.49	222.94
382.87	222.87
383.25	222.82
383.62	222.90
384.00	222.83
384.38	222.79
384.76	222.77
385.13	222.75
385.51	222.71
385.89	222.66
386.27	222.62
386.64	222.60
387.02	222.55
387.40	222.50
387.78	222.48
388.15	222.45
388.53	222.42
388.91	222.39
389.29	222.35
389.66	222.34
390.04	222.30
390.42	222.29
390.79	222.27
391.17	222.25
391.55	222.12
391.92	222.10
392.30	222.10
392.68	222.07
393.05	222.04
393.43	222.04
393.81	222.04
394.18	222.02
394.56	222.02
394.94	222.05
395.31	222.05
395.69	222.09
396.06	222.11
396.44	222.13
396.82	222.14
397.19	222.21
397.57	222.22
397.95	222.26
398.32	222.26
398.70	222.30
399.07	222.35
399.45	222.38
399.82	222.42
400.20	222.46
400.58	222.51
400.95	222.53
401.33	222.60
401.70	222.74
402.08	222.83
402.45	222.90
402.83	223.00
403.20	223.10
403.58	223.18
403.95	223.30
404.33	223.43
404.71	223.56
405.08	223.74
405.46	223.88
405.83	224.04
406.21	224.21
406.58	224.40
406.96	224.58
407.33	224.80
407.70	225.04
408.08	225.36
408.45	225.64
408.83	225.94
409.20	226.22
409.58	226.47
409.95	226.81
410.33	227.18
410.70	227.52
411.08	227.93
411.45	228.37
411.82	228.80
412.20	229.31
412.57	229.90
412.95	230.37
413.32	230.98
413.69	231.60
414.07	232.27
414.44	232.99
414.82	233.73
415.19	234.60
415.56	235.47
415.94	236.38
416.31	237.41
416.68	238.43
417.06	239.62
417.43	240.74
417.81	242.03
418.18	243.33
418.55	244.76
418.93	246.25
419.30	247.80
419.67	249.46
420.04	251.16
420.42	252.93
420.79	254.98
421.16	257.05
421.54	259.16
421.91	261.36
422.28	263.65
422.66	266.12
423.03	268.46
423.40	270.94
423.77	273.59
424.15	276.29
424.52	279.11
424.89	282.16
425.26	285.19
425.64	288.00
426.01	291.17
426.38	294.40
426.75	297.74
427.13	301.15
427.50	304.72
427.87	308.43
428.24	312.17
428.61	315.75
428.99	319.61
429.36	323.84
429.73	327.88
430.10	331.92
430.47	336.04
430.85	340.27
431.22	344.78
431.59	349.41
431.96	353.92
432.33	358.91
432.70	363.65
433.08	369.25
433.45	374.54
433.82	379.73
434.19	385.54
434.56	391.24
434.93	396.73
435.30	402.17
435.68	408.28
436.05	414.27
436.42	420.25
436.79	425.70
437.16	431.59
437.53	437.89
437.90	444.19
438.27	450.34
438.64	457.02
439.01	463.06
439.38	468.58
439.75	473.91
440.13	479.99
440.50	485.79
440.87	490.36
441.24	495.39
441.61	500.95
441.98	505.03
442.35	509.86
442.72	514.85
443.09	519.63
443.46	522.74
443.83	525.04
444.20	527.00
444.57	529.86
444.94	531.59
445.31	533.38
445.68	534.99
446.05	536.23
446.42	536.16
446.79	535.99
447.16	535.87
447.53	535.80
447.90	534.11
448.27	532.51
448.64	529.95
449.01	528.28
449.37	524.55
449.74	521.15
450.11	516.78
450.48	511.93
450.85	507.04
451.22	502.90
451.59	498.85
451.96	495.19
452.33	489.76
452.70	484.92
453.07	479.01
453.43	473.08
453.80	467.34
454.17	461.82
454.54	456.70
454.91	450.91
455.28	445.45
455.65	440.30
456.02	434.82
456.38	430.40
456.75	424.68
457.12	420.07
457.49	415.42
457.86	410.97
458.23	407.07
458.59	402.76
458.96	398.33
459.33	394.41
459.70	390.41
460.07	387.37
460.43	383.79
460.80	380.43
461.17	377.46
461.54	374.27
461.91	371.29
462.27	368.25
462.64	365.77
463.01	362.93
463.38	360.06
463.74	357.45
464.11	355.13
464.48	353.03
464.85	350.79
465.21	349.07
465.58	347.18
465.95	344.99
466.32	343.23
466.68	341.52
467.05	339.80
467.42	338.14
467.78	336.35
468.15	334.69
468.52	333.46
468.88	331.84
469.25	330.36
469.62	329.19
469.98	327.91
470.35	326.77
470.72	325.75
471.08	324.70
471.45	323.84
471.82	322.89
472.18	321.90
472.55	321.26
472.92	320.47
473.28	319.85
473.65	319.20
474.02	318.60
474.38	318.10
474.75	317.82
475.11	317.40
475.48	317.24
475.85	317.08
476.21	317.02
476.58	317.02
476.94	317.21
477.31	317.32
477.67	317.46
478.04	317.71
478.41	318.04
478.77	318.49
479.14	318.82
479.50	319.36
479.87	320.04
480.23	320.72
480.60	321.37
480.96	322.05
481.33	323.00
481.69	323.95
482.06	324.88
482.42	325.76
482.79	326.82
483.15	328.04
483.52	329.40
483.88	330.72
484.25	332.13
484.61	333.59
484.98	335.17
485.34	336.93
485.71	338.77
486.07	340.72
486.44	342.66
486.80	344.82
487.17	347.03
487.53	349.46
487.90	351.99
488.26	354.73
488.62	357.61
488.99	360.50
489.35	363.52
489.72	366.78
490.08	370.21
490.44	373.73
490.81	377.41
491.17	381.19
491.54	385.22
491.90	389.35
492.26	393.79
492.63	398.47
492.99	403.34
493.36	408.34
493.72	413.61
494.08	419.01
494.45	424.70
494.81	430.61
495.17	436.64
495.54	443.01
495.90	449.69
496.26	456.50
496.63	463.55
496.99	470.87
497.35	478.55
497.72	486.54
498.08	494.68
498.44	503.09
498.80	512.04
499.17	521.22
499.53	530.73
499.89	540.48
500.26	550.38
500.62	560.56
500.98	571.40
501.34	582.38
501.71	593.90
502.07	605.64
502.43	617.76
502.79	630.25
503.16	643.12
503.52	656.19
503.88	669.62
504.24	683.48
504.60	697.64
504.97	712.19
505.33	727.07
505.69	742.86
506.05	758.84
506.41	774.83
506.78	791.14
507.14	807.93
507.50	825.31
507.86	843.08
508.22	861.11
508.59	879.15
508.95	897.92
509.31	917.10
509.67	936.97
510.03	957.09
510.39	977.39
510.75	997.94
511.12	1018.78
511.48	1039.97
511.84	1061.24
512.20	1082.79
512.56	1105.41
512.92	1128.34
513.28	1150.99
513.64	1173.94
514.00	1197.30
514.37	1220.99
514.73	1244.66
515.09	1268.19
515.45	1292.12
515.81	1316.63
516.17	1341.21
516.53	1365.47
516.89	1389.81
517.25	1414.33
517.61	1439.03
517.97	1463.96
518.33	1488.60
518.69	1513.43
519.05	1538.50
519.41	1563.70
519.77	1589.19
520.13	1613.94
520.49	1638.82
520.85	1663.91
521.21	1688.93
521.57	1714.59
521.93	1739.51
522.29	1765.32
522.65	1790.84
523.01	1816.14
523.37	1840.78
523.73	1866.01
524.09	1891.39
524.45	1916.72
524.81	1941.59
525.17	1966.38
525.53	1990.73
525.89	2015.16
526.25	2039.78
526.61	2063.82
526.97	2088.21
527.33	2112.47
527.68	2136.62
528.04	2159.86
528.40	2183.04
528.76	2206.41
529.12	2228.70
529.48	2251.39
529.84	2272.24
530.20	2293.70
530.56	2314.82
530.91	2335.99
531.27	2356.68
531.63	2376.75
531.99	2396.30
532.35	2415.47
532.71	2434.75
533.07	2454.69
533.42	2472.97
533.78	2491.75
534.14	2510.45
534.50	2528.34
534.86	2546.85
535.21	2563.54
535.57	2580.27
535.93	2596.10
536.29	2610.81
536.65	2626.30
537.00	2640.66
537.36	2655.53
537.72	2669.32
538.08	2682.91
538.44	2695.32
538.79	2707.89
539.15	2718.85
539.51	2729.74
539.87	2740.30
540.22	2748.80
540.58	2757.28
540.94	2766.46
541.29	2773.99
541.65	2780.62
542.01	2786.68
542.37	2790.89
542.72	2796.95
543.08	2802.49
543.44	2807.99
543.79	2812.50
544.15	2816.31
544.51	2820.04
544.87	2822.93
545.22	2825.34
545.58	2826.69
545.94	2828.49
546.29	2828.91
546.65	2829.54
547.01	2830.07
547.36	2830.82
547.72	2831.67
548.07	2831.08
548.43	2829.80
548.79	2827.90
549.14	2826.14
549.50	2824.78
549.86	2822.81
550.21	2818.26
550.57	2814.17
550.92	2808.65
551.28	2803.78
551.64	2798.72
551.99	2794.15
552.35	2789.12
552.70	2783.71
553.06	2779.03
553.41	2773.90
553.77	2768.18
554.13	2762.97
554.48	2757.07
554.84	2749.39
555.19	2741.85
555.55	2733.72
555.90	2726.13
556.26	2719.63
556.61	2712.46
556.97	2703.23
557.32	2694.70
557.68	2686.75
558.03	2678.04
558.39	2670.00
558.74	2662.27
559.10	2653.21
559.45	2643.90
559.81	2634.85
560.16	2625.16
560.52	2614.92
560.87	2605.68
561.23	2596.16
561.58	2586.15
561.94	2575.84
562.29	2565.07
562.64	2554.89
563.00	2545.05
563.35	2535.11
563.71	2524.24
564.06	2512.77
564.42	2502.38
564.77	2491.58
565.12	2480.92
565.48	2469.99
565.83	2459.75
566.19	2449.44
566.54	2438.88
566.89	2427.23
567.25	2415.58
567.60	2404.80
567.96	2393.64
568.31	2381.07
568.66	2368.34
569.02	2356.69
569.37	2344.85
569.72	2333.54
570.08	2321.45
570.43	2308.85
570.78	2295.95
571.14	2282.83
571.49	2270.51
571.84	2258.49
572.20	2245.16
572.55	2232.17
572.90	2219.07
573.26	2205.19
573.61	2190.70
573.96	2176.37
574.31	2162.47
574.67	2148.83
575.02	2134.72
575.37	2120.20
575.72	2105.97
576.08	2092.39
576.43	2077.75
576.78	2063.04
577.13	2049.15
577.49	2035.43
577.84	2022.03
578.19	2007.79
578.54	1993.14
578.90	1977.98
579.25	1962.53
579.60	1948.55
579.95	1934.23
580.30	1919.90
580.66	1905.81
581.01	1891.32
581.36	1877.24
581.71	1863.73
582.06	1849.71
582.42	1835.69
582.77	1822.46
583.12	1808.94
583.47	1795.35
583.82	1781.91
584.17	1768.38
584.53	1754.69
584.88	1740.92
585.23	1726.91
585.58	1713.39
585.93	1700.28
586.28	1687.98
586.63	1675.56
586.98	1662.36
587.34	1649.43
587.69	1635.98
588.04	1622.70
588.39	1610.17
588.74	1597.16
589.09	1583.84
589.44	1570.49
589.79	1557.77
590.14	1544.86
590.49	1532.12
590.84	1519.31
591.19	1507.16
591.54	1494.49
591.89	1481.67
592.25	1469.24
592.60	1456.31
592.95	1443.96
593.30	1431.91
593.65	1419.69
594.00	1407.59
594.35	1396.37
594.70	1384.24
595.05	1373.25
595.40	1362.16
595.75	1350.40
596.10	1339.39
596.45	1328.60
596.80	1318.30
597.15	1307.74
597.50	1297.22
597.85	1286.89
598.19	1276.75
598.54	1265.99
598.89	1255.98
599.24	1246.30
599.59	1236.33
599.94	1227.41
600.29	1218.40
600.64	1209.16
600.99	1199.34
601.34	1190.02
601.69	1180.01
602.04	1171.17
602.39	1162.12
602.74	1153.30
603.08	1144.76
603.43	1135.73
603.78	1126.56
604.13	1117.55
604.48	1108.48
604.83	1099.70
605.18	1090.79
605.53	1081.85
605.87	1073.02
606.22	1064.47
606.57	1055.64
606.92	1046.89
607.27	1038.05
607.62	1029.24
607.96	1020.64
608.31	1013.00
608.66	1004.94
609.01	997.34
609.36	989.67
609.70	981.79
610.05	973.74
610.40	966.03
610.75	958.47
611.10	951.20
611.44	943.50
611.79	936.13
612.14	928.38
612.49	920.74
612.83	913.60
613.18	906.54
613.53	899.28
613.88	892.07
614.22	885.48
614.57	878.72
614.92	871.94
615.27	865.18
615.61	858.26
615.96	851.60
616.31	844.85
616.65	838.00
617.00	831.40
617.35	824.92
617.70	818.46
618.04	812.08
618.39	805.72
618.74	799.70
619.08	793.47
619.43	787.52
619.78	781.63
620.12	775.51
620.47	769.57
620.82	763.66
621.16	758.12
621.51	752.22
621.85	746.31
622.20	740.44
622.55	734.78
622.89	729.07
623.24	723.38
623.59	717.80
623.93	712.24
624.28	706.81
624.62	701.39
624.97	695.94
625.32	690.60
625.66	685.13
626.01	679.66
626.35	674.35
626.70	669.04
627.04	663.91
627.39	658.84
627.73	653.88
628.08	649.15
628.43	644.31
628.77	639.55
629.12	634.90
629.46	630.46
629.81	625.82
630.15	621.06
630.50	616.46
630.84	612.02
631.19	607.78
631.53	603.61
631.88	599.30
632.22	595.10
632.57	591.15
632.91	587.15
633.26	583.25
633.60	579.41
633.95	575.67
634.29	571.80
634.64	567.88
634.98	563.86
635.32	560.01
635.67	556.29
636.01	552.51
636.36	548.77
636.70	545.17
637.05	541.55
637.39	538.13
637.73	534.60
638.08	531.13
638.42	527.64
638.77	523.99
639.11	520.37
639.45	516.77
639.80	513.15
640.14	509.72
640.49	506.26
640.83	502.69
641.17	499.15
641.52	495.79
641.86	492.43
642.20	489.23
642.55	485.89
642.89	482.62
643.23	479.55
643.58	476.72
643.92	473.76
644.26	470.86
644.61	467.94
644.95	465.03
645.29	462.05
645.64	459.05
645.98	456.18
646.32	453.47
646.66	450.79
647.01	448.08
647.35	445.41
647.69	442.63
648.04	439.98
648.38	437.38
648.72	434.73
649.06	432.15
649.41	429.62
649.75	427.07
650.09	424.55
650.43	422.03
650.78	419.50
651.12	416.97
651.46	414.52
651.80	412.17
652.14	409.90
652.49	407.64
652.83	405.45
653.17	403.23
653.51	401.09
653.85	399.01
654.20	396.88
654.54	394.65
654.88	392.62
655.22	390.65
655.56	388.65
655.90	386.74
656.25	384.84
656.59	382.94
656.93	381.13
657.27	379.37
657.61	377.51
657.95	375.72
658.29	373.92
658.64	372.17
658.98	370.39
659.32	368.63
659.66	366.97
660.00	365.33
660.34	363.72
660.68	362.05
661.02	360.32
661.36	358.70
661.70	357.16
662.05	355.61
662.39	354.03
662.73	352.54
663.07	351.08
663.41	349.64
663.75	348.22
664.09	346.81
664.43	345.32
664.77	343.93
665.11	342.47
665.45	341.09
665.79	339.71
666.13	338.33
666.47	336.92
666.81	335.49
667.15	334.04
667.49	332.68
667.83	331.38
668.17	330.12
668.51	328.88
668.85	327.66
669.19	326.50
669.53	325.28
669.87	324.03
670.21	322.82
670.55	321.62
670.89	320.50
671.23	319.33
671.57	318.18
671.91	317.09
672.25	316.06
672.58	315.04
672.92	313.97
673.26	312.97
673.60	311.98
673.94	310.98
674.28	310.04
674.62	309.09
674.96	308.10
675.30	307.18
675.64	306.23
675.97	305.30
676.31	304.32
676.65	303.38
676.99	302.49
677.33	301.55
677.67	300.67
678.01	299.70
678.34	298.81
678.68	297.97
679.02	297.10
679.36	296.24
679.70	295.38
680.04	294.56
680.37	293.72
680.71	292.91
681.05	292.15
681.39	291.35
681.73	290.52
682.06	289.73
682.40	288.94
682.74	288.18
683.08	287.45
683.42	286.70
683.75	286.03
684.09	285.27
684.43	284.57
684.77	283.84
685.10	283.18
685.44	282.49
685.78	281.78
686.12	281.12
686.45	280.44
686.79	279.77
687.13	279.11
687.46	278.44
687.80	277.79
688.14	277.09
688.48	276.45
688.81	275.81
689.15	275.23
689.49	274.60
689.82	273.98
690.16	273.32
690.50	272.71
690.83	272.11
691.17	271.52
691.51	270.94
691.84	270.39
692.18	269.80
692.52	269.20
692.85	268.62
693.19	268.09
693.52	267.54
693.86	267.00
694.20	266.46
694.53	265.95
694.87	265.42
695.21	264.91
695.54	264.41
695.88	263.90
696.21	263.35
696.55	262.85
696.88	262.35
697.22	261.86
697.56	261.39
697.89	260.85
698.23	260.35
698.56	259.83
698.90	259.36
699.23	258.88
699.57	258.43
699.90	257.98
700.24	257.49
700.58	257.05
700.91	256.63
701.25	256.29
701.58	255.91
701.92	255.52
702.25	255.11
702.59	254.69
702.92	254.29
703.26	253.90
703.59	253.50
703.93	253.19
704.26	252.82
704.60	252.44
704.93	252.08
705.26	251.72
705.60	251.39
705.93	251.01
706.27	250.70
706.60	250.38
706.94	250.07
707.27	249.70
707.61	249.34
707.94	248.97
708.27	248.54
708.61	248.15
708.94	247.79
709.28	247.46
709.61	247.13
709.94	246.83
710.28	246.54
710.61	246.26
710.95	245.88
711.28	245.65
711.61	245.36
711.95	245.11
712.28	244.82
712.61	244.52
712.95	244.31
713.28	244.08
713.61	243.80
713.95	243.51
714.28	243.27
714.61	243.01
714.95	242.77
715.28	242.51
715.61	242.27
715.95	242.03
716.28	241.79
716.61	241.58
716.95	241.33
717.28	241.10
717.61	240.86
717.94	240.63
718.28	240.34
718.61	240.11
718.94	239.87
719.27	239.66
719.61	239.47
719.94	239.23
720.27	238.97
720.60	238.76
720.94	238.57
721.27	238.38
721.60	238.21
721.93	238.02
722.27	237.86
722.60	237.70
722.93	237.50
723.26	237.33
723.59	237.13
723.93	236.96
724.26	236.80
724.59	236.63
724.92	236.47
725.25	236.34
725.59	236.18
725.92	236.04
726.25	235.88
726.58	235.72
726.91	235.56
727.24	235.42
727.57	235.27
727.91	235.11
728.24	234.97
728.57	234.81
728.90	234.68
729.23	234.51
729.56	234.41
729.89	234.27
730.22	234.12
730.55	233.99
730.89	233.84
731.22	233.70
731.55	233.56
731.88	233.43
732.21	233.28
732.54	233.15
732.87	233.03
733.20	232.92
733.53	232.80
733.86	232.69
734.19	232.56
734.52	232.46
734.85	232.43
735.18	232.28
735.51	232.20
735.84	232.09
736.17	232.00
736.50	231.84
736.83	231.86
737.16	231.76
737.49	231.67
737.82	231.57
738.15	231.49
738.48	231.39
738.81	231.29
739.14	231.18
739.47	231.07
739.80	230.97
740.13	230.87
740.46	230.76
740.79	230.65
741.12	230.56
741.45	230.44
741.78	230.29
742.11	230.23
742.44	230.11
742.77	230.04
743.10	229.93
743.43	229.84
743.75	229.64
744.08	229.71
744.41	229.62
744.74	229.53
745.07	229.42
745.40	229.35
745.73	229.32
746.06	229.25
746.39	229.19
746.71	229.10
747.04	229.01
747.37	228.94
747.70	228.89
748.03	228.82
748.36	228.76
748.68	228.69
749.01	228.58
749.34	228.51
749.67	228.45
750.00	228.39
750.33	228.40
750.65	228.35
750.98	228.12
751.31	228.06
751.64	228.00
751.97	227.99
752.29	227.92
752.62	227.80
752.95	227.73
753.28	227.64
753.60	227.58
753.93	227.54
754.26	227.48
754.59	227.38
754.91	227.31
755.24	227.23
755.57	227.22
755.90	227.15
756.22	227.09
756.55	227.01
756.88	226.93
757.20	226.79
757.53	226.71
757.86	226.65
758.19	226.60
758.51	226.55
758.84	226.44
759.17	226.37
759.49	226.33
759.82	226.33
760.15	226.29
760.47	226.24
760.80	226.16
761.13	226.13
761.45	226.08
761.78	226.03
762.11	225.99
762.43	225.89
762.76	225.85
763.08	225.82
763.41	225.78
763.74	225.74
764.06	225.70
764.39	225.66
764.71	225.62
765.04	225.56
765.37	225.51
765.69	225.47
766.02	225.43
766.34	225.38
766.67	225.30
767.00	225.27
767.32	225.29
767.65	225.31
767.97	225.26
768.30	225.24
768.62	225.20
768.95	225.14
769.27	225.11
769.60	225.08
769.92	225.03
770.25	224.97
770.57	224.92
770.90	224.88
771.22	224.84
771.55	224.81
771.87	224.79
772.20	224.76
772.52	224.82
772.85	224.91
773.17	224.88
773.50	224.84
773.82	224.80
774.15	224.72
774.47	224.62
774.80	224.58
775.12	224.55
775.45	224.52
775.77	224.50
776.09	224.48
776.42	224.45
776.74	224.46
777.07	224.43
777.39	224.41
777.72	224.38
778.04	224.37
778.36	224.33
778.69	224.31
779.01	224.29
779.33	224.17
779.66	224.03
779.98	224.00
780.31	223.98
780.63	224.00
780.95	223.99
781.28	223.97
781.60	223.95
781.92	223.93
782.25	223.91
782.57	223.88
782.89	223.85
783.22	223.82
783.54	223.78
783.86	223.77
784.19	223.74
784.51	223.76
784.83	223.72
785.16	223.70
785.48	223.68
785.80	223.67
786.12	223.65
786.45	223.64
786.77	223.62
787.09	223.60
787.42	223.54
787.74	223.53
788.06	223.52
788.38	223.51
788.71	223.48
789.03	223.47
789.35	223.47
789.67	223.44
789.99	223.43
790.32	223.40
790.64	223.40
790.96	223.48
791.28	223.42
791.61	223.41
791.93	223.40
792.25	223.38
792.57	223.44
792.89	223.41
793.21	223.40
793.54	223.38
793.86	223.35
794.18	223.34
794.50	223.31
794.82	223.29
795.14	223.29
795.47	223.30
795.79	223.29
796.11	223.25
796.43	223.24
796.75	223.23
797.07	223.22
797.39	223.20
797.71	223.11
798.04	223.10
798.36	223.10
798.68	223.08
799.00	223.08
799.32	223.02
799.64	223.02
799.96	223.01
800.28	223.02
800.60	223.01
800.92	223.01
801.24	222.99
801.56	222.98
801.89	222.96
802.21	222.95
802.53	222.92
802.85	222.94
803.17	222.98
803.49	222.95
803.81	222.93
804.13	222.91
804.45	222.89
804.77	222.89
805.09	222.88
805.41	222.86
805.73	222.83
806.05	222.79
806.37	222.77
806.69	222.75
807.01	222.73
807.33	222.73
807.65	222.68
807.97	222.72
808.28	222.70
808.60	222.69
808.92	222.67
809.24	222.73
809.56	222.70
809.88	222.65
810.20	222.65
810.52	222.66
810.84	222.64
811.16	222.62
811.48	222.60
811.80	222.63
812.12	222.62
812.43	222.64
812.75	222.63
813.07	222.62
813.39	222.62
813.71	222.60
814.03	222.58
814.35	222.59
814.67	222.53
814.98	222.52
815.30	222.51
815.62	222.49
815.94	222.42
816.26	222.42
816.58	222.40
816.89	222.41
817.21	222.37
817.53	222.38
817.85	222.38
818.17	222.37
818.48	222.32
818.80	222.34
819.12	222.31
819.44	222.29
819.76	222.27
820.07	222.27
820.39	222.27
820.71	222.27
821.03	222.27
821.34	222.25
821.66	222.26
821.98	222.27
822.30	222.26
822.61	222.32
822.93	222.30
823.25	222.29
823.57	222.28
823.88	222.29
824.20	222.28
824.52	222.30
824.83	222.29
825.15	222.28
825.47	222.26
825.79	222.27
826.10	222.26
826.42	222.26
826.74	222.26
827.05	222.26
827.37	222.25
827.69	222.24
828.00	222.25
828.32	222.24
828.64	222.22
828.95	222.27
829.27	222.24
829.58	222.24
829.90	222.25
830.22	222.25
830.53	222.24
830.85	222.22
831.17	222.20
831.48	222.19
831.80	222.20
832.11	222.19
832.43	222.17
832.75	222.17
833.06	222.23
833.38	222.20
833.69	222.19
834.01	222.19
834.32	222.19
834.64	222.18
834.96	222.18
835.27	222.18
835.59	222.14
835.90	222.12
836.22	222.12
836.53	222.09
836.85	222.08
837.16	222.18
837.48	222.18
837.79	222.21
838.11	222.21
838.42	222.20
838.74	222.21
839.05	222.20
839.37	222.20
839.68	222.13
840.00	222.13
840.31	222.14
840.63	222.13
840.94	222.11
841.26	222.10
841.57	222.10
841.88	222.10
842.20	222.08
842.51	222.07
842.83	222.07
843.14	222.16
843.46	222.16
843.77	222.10
844.08	222.09
844.40	222.05
844.71	222.04
845.03	222.03
845.34	222.02
845.65	222.02
845.97	222.02
846.28	222.02
846.60	222.03
846.91	222.00
847.22	222.00
847.54	222.03
847.85	222.03
848.16	222.02
848.48	222.00
848.79	222.04
849.10	222.05
849.42	222.06
849.73	221.95
850.04	221.95
850.36	221.91
850.67	221.93
850.98	221.93
851.30	221.94
851.61	221.94
851.92	221.94
852.23	221.97
852.55	221.97
852.86	221.97
853.17	221.98
853.49	222.01
853.80	222.03
854.11	222.02
854.42	222.03
854.74	222.02
855.05	222.03
855.36	221.97
855.67	221.97
855.99	221.97
856.30	222.09
856.61	222.09
856.92	222.09
857.23	222.09
857.55	222.08
857.86	222.07
858.17	222.09
858.48	222.07
858.79	222.04
859.11	222.05
859.42	222.04
859.73	222.02
860.04	222.01
860.35	221.98
860.66	221.95
860.98	221.95
861.29	221.96
861.60	221.95
861.91	221.98
862.22	221.96
862.53	221.94
862.84	221.82
863.16	221.84
863.47	221.82
863.78	221.80
864.09	221.81
864.40	221.81
864.71	221.81
865.02	221.82
865.33	221.81
865.64	221.80
865.95	221.80
866.27	221.86
866.58	221.85
866.89	221.86
867.20	221.86
867.51	221.84
867.82	221.84
868.13	221.87
868.44	221.84
868.75	221.86
869.06	221.87
869.37	221.88
869.68	221.85
869.99	221.88
870.30	221.88
870.61	221.89
870.92	221.88
871.23	221.87
871.54	221.88
871.85	221.91
872.16	221.92
872.47	221.92
872.78	221.86
873.09	221.87
873.40	221.86
873.71	221.87
874.02	221.88
874.33	221.87
874.64	221.84
874.95	221.86
875.26	221.84
875.56	221.84
875.87	221.83
876.18	221.83
876.49	221.92
876.80	221.91
877.11	221.89
877.42	221.89
877.73	221.90
878.04	221.88
878.35	221.88
878.66	221.87
878.96	221.87
879.27	221.87
879.58	221.85
879.89	221.85
880.20	221.87
880.51	221.86
880.82	221.87
881.12	221.87
881.43	221.85
881.74	221.84
882.05	221.84
882.36	221.84
882.67	221.85
882.97	221.74
883.28	221.73
883.59	221.73
883.90	221.74
884.21	221.75
884.51	221.74
884.82	221.72
885.13	221.72
885.44	221.72
885.74	221.72
886.05	221.72
886.36	221.72
886.67	221.68
886.98	221.74
887.28	221.74
887.59	221.74
887.90	221.74
888.20	221.74
888.51	221.76
888.82	221.74
889.13	221.75
889.43	221.84
889.74	221.83
890.05	221.84
890.35	221.82
890.66	221.81
890.97	221.80
891.28	221.79
891.58	221.79
891.89	221.79
892.20	221.78
892.50	221.78
892.81	221.77
893.12	221.77
893.42	221.71
893.73	221.71
894.04	221.71
894.34	221.72
894.65	221.71
894.95	221.70
895.26	221.71
895.57	221.75
895.87	221.64
896.18	221.66
896.48	221.67
896.79	221.67
897.10	221.68
897.40	221.69
897.71	221.70
898.01	221.69
898.32	221.70
898.63	221.70
898.93	221.70
899.24	221.70
899.54	221.70
899.85	221.70
900.15	221.69
900.46	221.69
900.76	221.70
901.07	221.70
901.38	221.69
901.68	221.70
901.99	221.65
902.29	221.66
902.60	221.65
902.90	221.64
903.21	221.63
903.51	221.62
903.82	221.64
904.12	221.64
904.43	221.65
904.73	221.64
905.03	221.65
905.34	221.74
905.64	221.73
905.95	221.74
906.25	221.74
906.56	221.74
906.86	221.73
907.17	221.72
907.47	221.72
907.77	221.71
908.08	221.69
908.38	221.69
908.69	221.70
908.99	221.71
909.30	221.72
909.60	221.72
909.90	221.73
910.21	221.70
910.51	221.68
910.81	221.68
911.12	221.68
911.42	221.68
911.73	221.57
912.03	221.59
912.33	221.61
912.64	221.60
912.94	221.59
913.24	221.58
913.55	221.57
913.85	221.56
914.15	221.58
914.46	221.60
914.76	221.59
915.06	221.58
915.37	221.56
915.67	221.55
915.97	221.55
916.27	221.53
916.58	221.54
916.88	221.53
917.18	221.53
917.49	221.60
917.79	221.59
918.09	221.60
918.39	221.63
918.70	221.62
919.00	221.62
919.30	221.66
919.60	221.66
919.91	221.65
920.21	221.65
920.51	221.63
920.81	221.62
921.12	221.64
921.42	221.63
921.72	221.64
922.02	221.65
922.32	221.66
922.63	221.66
922.93	221.72
923.23	221.73
923.53	221.72
923.83	221.64
924.13	221.65
924.44	221.65
924.74	221.66
925.04	221.68
925.34	221.68
925.64	221.63
925.94	221.63
926.24	221.69
926.55	221.68
926.85	221.70
927.15	221.70
927.45	221.69
927.75	221.69
928.05	221.69
928.35	221.68
928.65	221.69
928.95	221.70
929.26	221.65
929.56	221.67
929.86	221.68
930.16	221.67
930.46	221.66
930.76	221.66
931.06	221.61
931.36	221.59
931.66	221.60
931.96	221.61
932.26	221.62
932.56	221.58
932.86	221.58
933.16	221.58
933.46	221.57
933.76	221.56
934.06	221.57
934.36	221.61
934.66	221.61
934.96	221.59
935.26	221.60
935.56	221.61
935.86	221.58
936.16	221.57
936.46	221.56
936.76	221.55
937.06	221.54
937.36	221.55
937.66	221.55
937.96	221.55
938.26	221.52
938.56	221.52
938.86	221.52
939.16	221.54
939.46	221.55
939.76	221.56
940.06	221.56
940.35	221.54
940.65	221.49
940.95	221.50
941.25	221.48
941.55	221.47
941.85	221.46
942.15	221.48
942.45	221.51
942.75	221.51
943.04	221.52
943.34	221.54
943.64	221.52
943.94	221.51
944.24	221.51
944.54	221.52
944.84	221.51
945.13	221.50
945.43	221.48
945.73	221.47
946.03	221.46
946.33	221.45
946.62	221.44
946.92	221.44
947.22	221.44
947.52	221.45
947.82	221.46
948.11	221.45
948.41	221.42
948.71	221.39
949.01	221.40
949.31	221.39
949.60	221.38
949.90	221.39
950.20	221.39
950.50	221.39
950.79	221.38
951.09	221.39
951.39	221.40
951.69	221.39
951.98	221.41
952.28	221.42
952.58	221.42
952.87	221.42
953.17	221.43
953.47	221.42
953.76	221.42
954.06	221.40
954.36	221.39
954.66	221.39
954.95	221.42
955.25	221.42
955.55	221.43
955.84	221.42
956.14	221.43
956.44	221.44
956.73	221.42
957.03	221.43
957.32	221.42
957.62	221.42
957.92	221.44
958.21	221.42
958.51	221.54
958.81	221.56
959.10	221.57
959.40	221.59
959.69	221.60
959.99	221.62
960.29	221.62
960.58	221.61
960.88	221.66
961.17	221.64
961.47	221.64
961.76	221.64
962.06	221.65
962.36	221.64
962.65	221.65
962.95	221.66
963.24	221.65
963.54	221.65
963.83	221.65
964.13	221.65
964.42	221.64
964.72	221.54
965.01	221.54
965.31	221.53
965.60	221.50
965.90	221.57
966.19	221.54
966.49	221.55
966.78	221.55
967.08	221.54
967.37	221.54
967.67	221.52
967.96	221.54
968.26	221.53
968.55	221.54
968.85	221.54
969.14	221.53
969.43	221.54
969.73	221.53
970.02	221.53
970.32	221.52
970.61	221.50
970.91	221.47
971.20	221.46
971.49	221.45
971.79	221.46
972.08	221.39
972.38	221.40
972.67	221.40
972.96	221.41
973.26	221.39
973.55	221.42
973.85	221.42
974.14	221.40
974.43	221.41
974.73	221.39
975.02	221.38
975.31	221.38
975.61	221.38
975.90	221.37
976.19	221.36
976.49	221.37
976.78	221.38
977.07	221.38
977.37	221.39
977.66	221.40
977.95	221.39
978.24	221.39
978.54	221.41
978.83	221.40
979.12	221.39
979.42	221.39
979.71	221.37
980.00	221.37
980.29	221.38
980.59	221.36
980.88	221.39
981.17	221.39
981.46	221.39
981.76	221.39
982.05	221.42
982.34	221.43
982.63	221.43
982.93	221.43
983.22	221.45
983.51	221.46
983.80	221.47
984.09	221.49
984.39	221.47
984.68	221.46
984.97	221.47
985.26	221.46
985.55	221.47
985.85	221.45
986.14	221.47
986.43	221.48
986.72	221.48
987.01	221.45
987.30	221.44
987.59	221.44
987.89	221.44
988.18	221.41
988.47	221.40
988.76	221.39
989.05	221.38
989.34	221.37
989.63	221.39
989.92	221.37
990.22	221.36
990.51	221.36
990.80	221.35
991.09	221.35
991.38	221.37
991.67	221.36
991.96	221.35
992.25	221.35
992.54	221.33
992.83	221.33
993.12	221.33
993.41	221.35
993.70	221.39
993.99	221.41
994.28	221.42
994.58	221.44
994.87	221.43
995.16	221.43
995.45	221.42
995.74	221.38
996.03	221.40
996.32	221.41
996.61	221.44
996.90	221.44
997.19	221.43
997.48	221.43
997.77	221.42
998.06	221.43
998.34	221.42
998.63	221.42
998.92	221.42
999.21	221.44
999.50	221.43
999.79	221.40
1000.08	221.39
1000.37	221.39
1000.66	221.37
1000.95	221.40
1001.24	221.41
1001.53	221.42
1001.82	221.42
1002.11	221.39
1002.40	221.40
1002.68	221.42
1002.97	221.49
1003.26	221.48
1003.55	221.47
1003.84	221.48
1004.13	221.51
1004.42	221.50
1004.71	221.50
1004.99	221.50
1005.28	221.52
1005.57	221.50
1005.86	221.49
1006.15	221.49
1006.44	221.47
1006.72	221.48
1007.01	221.46
1007.30	221.46
1007.59	221.45
1007.88	221.45
1008.17	221.46
1008.45	221.44
1008.74	221.40
1009.03	221.34
1009.32	221.34
1009.60	221.34
1009.89	221.33
1010.18	221.29
1010.47	221.28
1010.76	221.28
1011.04	221.28
1011.33	221.27
1011.62	221.28
1011.91	221.30
1012.19	221.30
1012.48	221.31
1012.77	221.30
1013.05	221.34
1013.34	221.34
1013.63	221.34
1013.92	221.34
1014.20	221.34
1014.49	221.35
1014.78	221.36
1015.06	221.33
1015.35	221.33
1015.64	221.35
1015.92	221.36
1016.21	221.37
1016.50	221.37
1016.78	221.38
1017.07	221.39
1017.36	221.37
1017.64	221.36
1017.93	221.36
1018.22	221.35
1018.50	221.35
1018.79	221.34
1019.08	221.30
1019.36	221.31
1019.65	221.30
1019.93	221.32
1020.22	221.34
1020.51	221.39
1020.79	221.38
1021.08	221.17
1021.36	221.13
1021.65	221.36
1021.94	221.25
1022.22	221.38
1022.51	221.09
1022.79	221.81
1023.08	221.56
1023.36	222.57
1023.65	221.10
>>>>>End Processed Spectral Data<<<<<
