SpectraSuite Data File
++++++++++++++++++++++++++++++++++++
Date: Wed Sep 30 16:52:29 EDT 2015
User: lab3
Dark Spectrum Present: No
Reference Spectrum Present: No
Number of Sampled Component Spectra: 1
Spectrometers: USB2E7196
Integration Time (usec): 36000 (USB2E7196)
Spectra Averaged: 3000 (USB2E7196)
Boxcar Smoothing: 10 (USB2E7196)
Correct for Electrical Dark: No (USB2E7196)
Strobe/Lamp Enabled: No (USB2E7196)
Correct for Detector Non-linearity: No (USB2E7196)
Correct for Stray Light: No (USB2E7196)
Number of Pixels in Processed Spectrum: 2048
>>>>>Begin Processed Spectral Data<<<<<
339.09	0.00
339.48	210.79
339.86	212.24
340.24	213.55
340.63	214.95
341.01	217.88
341.39	217.69
341.78	219.01
342.16	220.05
342.54	220.71
342.93	209.26
343.31	219.83
343.69	220.37
344.07	220.83
344.46	221.26
344.84	221.65
345.22	221.89
345.60	222.14
345.99	222.33
346.37	222.47
346.75	222.58
347.13	222.65
347.52	222.71
347.90	222.79
348.28	222.82
348.66	222.87
349.05	222.87
349.43	222.91
349.81	222.96
350.19	223.01
350.57	223.08
350.96	223.16
351.34	223.25
351.72	223.34
352.10	223.44
352.48	223.50
352.87	223.54
353.25	223.60
353.63	223.66
354.01	223.71
354.39	223.79
354.77	223.86
355.15	223.96
355.54	224.01
355.92	224.04
356.30	224.11
356.68	224.24
357.06	224.32
357.44	224.36
357.82	224.43
358.20	224.54
358.58	224.60
358.97	224.66
359.35	224.74
359.73	224.82
360.11	224.87
360.49	224.93
360.87	224.98
361.25	225.05
361.63	225.13
362.01	225.18
362.39	225.21
362.77	225.25
363.15	225.28
363.53	225.31
363.91	225.34
364.29	225.36
364.67	225.28
365.05	225.30
365.43	225.34
365.81	225.37
366.19	225.37
366.57	225.42
366.95	225.42
367.33	225.38
367.71	225.38
368.09	225.40
368.47	225.39
368.85	225.38
369.23	225.39
369.61	225.33
369.99	225.35
370.37	225.34
370.75	225.40
371.13	225.37
371.51	225.33
371.89	225.32
372.27	225.30
372.65	225.28
373.03	225.24
373.41	225.19
373.78	225.14
374.16	225.05
374.54	224.97
374.92	224.92
375.30	224.88
375.68	224.81
376.06	224.76
376.44	224.71
376.82	224.66
377.19	224.61
377.57	224.57
377.95	224.48
378.33	224.43
378.71	224.28
379.09	224.23
379.47	224.20
379.84	224.13
380.22	224.07
380.60	224.00
380.98	223.96
381.36	223.91
381.73	223.85
382.11	223.82
382.49	223.78
382.87	223.72
383.25	223.68
383.62	223.76
384.00	223.69
384.38	223.65
384.76	223.63
385.13	223.62
385.51	223.57
385.89	223.52
386.27	223.48
386.64	223.46
387.02	223.42
387.40	223.37
387.78	223.35
388.15	223.32
388.53	223.29
388.91	223.25
389.29	223.22
389.66	223.21
390.04	223.17
390.42	223.16
390.79	223.15
391.17	223.13
391.55	223.01
391.92	222.99
392.30	222.99
392.68	222.96
393.05	222.94
393.43	222.94
393.81	222.95
394.18	222.93
394.56	222.93
394.94	222.95
395.31	222.95
395.69	222.99
396.06	223.00
396.44	223.03
396.82	223.04
397.19	223.12
397.57	223.13
397.95	223.17
398.32	223.17
398.70	223.21
399.07	223.26
399.45	223.29
399.82	223.34
400.20	223.36
400.58	223.41
400.95	223.42
401.33	223.50
401.70	223.63
402.08	223.71
402.45	223.79
402.83	223.89
403.20	223.99
403.58	224.07
403.95	224.18
404.33	224.31
404.71	224.43
405.08	224.60
405.46	224.74
405.83	224.90
406.21	225.07
406.58	225.26
406.96	225.44
407.33	225.66
407.70	225.89
408.08	226.21
408.45	226.50
408.83	226.81
409.20	227.08
409.58	227.32
409.95	227.66
410.33	228.03
410.70	228.37
411.08	228.79
411.45	229.21
411.82	229.65
412.20	230.15
412.57	230.75
412.95	231.21
413.32	231.81
413.69	232.43
414.07	233.09
414.44	233.80
414.82	234.54
415.19	235.40
415.56	236.26
415.94	237.16
416.31	238.17
416.68	239.19
417.06	240.36
417.43	241.47
417.81	242.74
418.18	244.03
418.55	245.44
418.93	246.90
419.30	248.44
419.67	250.08
420.04	251.76
420.42	253.51
420.79	255.54
421.16	257.59
421.54	259.68
421.91	261.85
422.28	264.11
422.66	266.54
423.03	268.85
423.40	271.29
423.77	273.90
424.15	276.57
424.52	279.35
424.89	282.37
425.26	285.37
425.64	288.15
426.01	291.27
426.38	294.48
426.75	297.79
427.13	301.17
427.50	304.70
427.87	308.37
428.24	312.09
428.61	315.64
428.99	319.46
429.36	323.65
429.73	327.67
430.10	331.67
430.47	335.76
430.85	339.96
431.22	344.44
431.59	349.03
431.96	353.52
432.33	358.48
432.70	363.18
433.08	368.74
433.45	373.98
433.82	379.14
434.19	384.89
434.56	390.55
434.93	395.99
435.30	401.38
435.68	407.43
436.05	413.35
436.42	419.28
436.79	424.69
437.16	430.52
437.53	436.77
437.90	443.00
438.27	449.08
438.64	455.68
439.01	461.66
439.38	467.11
439.75	472.36
440.13	478.37
440.50	484.08
440.87	488.57
441.24	493.52
441.61	498.99
441.98	502.99
442.35	507.75
442.72	512.64
443.09	517.33
443.46	520.38
443.83	522.62
444.20	524.53
444.57	527.30
444.94	528.95
445.31	530.68
445.68	532.23
446.05	533.41
446.42	533.30
446.79	533.10
447.16	532.95
447.53	532.86
447.90	531.15
448.27	529.57
448.64	527.03
449.01	525.38
449.37	521.68
449.74	518.32
450.11	513.98
450.48	509.18
450.85	504.35
451.22	500.26
451.59	496.26
451.96	492.62
452.33	487.26
452.70	482.49
453.07	476.65
453.43	470.81
453.80	465.15
454.17	459.72
454.54	454.67
454.91	448.95
455.28	443.58
455.65	438.53
456.02	433.13
456.38	428.78
456.75	423.14
457.12	418.61
457.49	414.02
457.86	409.65
458.23	405.82
458.59	401.59
458.96	397.24
459.33	393.39
459.70	389.48
460.07	386.50
460.43	382.99
460.80	379.70
461.17	376.79
461.54	373.66
461.91	370.73
462.27	367.75
462.64	365.32
463.01	362.51
463.38	359.69
463.74	357.12
464.11	354.83
464.48	352.76
464.85	350.55
465.21	348.86
465.58	346.99
465.95	344.84
466.32	343.11
466.68	341.41
467.05	339.71
467.42	338.07
467.78	336.30
468.15	334.67
468.52	333.45
468.88	331.87
469.25	330.39
469.62	329.23
469.98	327.97
470.35	326.85
470.72	325.83
471.08	324.79
471.45	323.94
471.82	323.00
472.18	322.03
472.55	321.39
472.92	320.60
473.28	319.99
473.65	319.35
474.02	318.75
474.38	318.25
474.75	317.97
475.11	317.56
475.48	317.39
475.85	317.22
476.21	317.16
476.58	317.14
476.94	317.32
477.31	317.43
477.67	317.56
478.04	317.80
478.41	318.12
478.77	318.56
479.14	318.88
479.50	319.42
479.87	320.10
480.23	320.77
480.60	321.42
480.96	322.09
481.33	323.02
481.69	323.95
482.06	324.88
482.42	325.75
482.79	326.81
483.15	328.03
483.52	329.37
483.88	330.68
484.25	332.09
484.61	333.54
484.98	335.12
485.34	336.87
485.71	338.69
486.07	340.64
486.44	342.57
486.80	344.72
487.17	346.92
487.53	349.33
487.90	351.84
488.26	354.57
488.62	357.45
488.99	360.32
489.35	363.32
489.72	366.57
490.08	369.98
490.44	373.48
490.81	377.14
491.17	380.91
491.54	384.93
491.90	389.05
492.26	393.46
492.63	398.13
492.99	402.99
493.36	407.97
493.72	413.20
494.08	418.58
494.45	424.26
494.81	430.13
495.17	436.13
495.54	442.46
495.90	449.12
496.26	455.90
496.63	462.94
496.99	470.26
497.35	477.93
497.72	485.87
498.08	493.99
498.44	502.36
498.80	511.25
499.17	520.37
499.53	529.81
499.89	539.51
500.26	549.37
500.62	559.50
500.98	570.29
501.34	581.22
501.71	592.66
502.07	604.33
502.43	616.40
502.79	628.81
503.16	641.63
503.52	654.60
503.88	667.92
504.24	681.66
504.60	695.69
504.97	710.08
505.33	724.86
505.69	740.55
506.05	756.44
506.41	772.36
506.78	788.58
507.14	805.28
507.50	822.55
507.86	840.18
508.22	858.06
508.59	875.99
508.95	894.63
509.31	913.70
509.67	933.47
510.03	953.44
510.39	973.63
510.75	994.05
511.12	1014.72
511.48	1035.77
511.84	1056.94
512.20	1078.43
512.56	1101.02
512.92	1123.80
513.28	1146.28
513.64	1169.08
514.00	1192.34
514.37	1215.86
514.73	1239.40
515.09	1262.77
515.45	1286.56
515.81	1310.92
516.17	1335.35
516.53	1359.49
516.89	1383.73
517.25	1408.09
517.61	1432.70
517.97	1457.52
518.33	1482.15
518.69	1507.00
519.05	1532.09
519.41	1557.27
519.77	1582.75
520.13	1607.48
520.49	1632.39
520.85	1657.48
521.21	1682.44
521.57	1708.00
521.93	1732.88
522.29	1758.56
522.65	1784.02
523.01	1809.30
523.37	1833.83
523.73	1858.96
524.09	1884.36
524.45	1909.63
524.81	1934.47
525.17	1959.14
525.53	1983.45
525.89	2007.66
526.25	2032.05
526.61	2055.88
526.97	2080.06
527.33	2104.13
527.68	2128.06
528.04	2151.22
528.40	2174.26
528.76	2197.49
529.12	2219.65
529.48	2242.32
529.84	2263.19
530.20	2284.51
530.56	2305.52
530.91	2326.69
531.27	2347.34
531.63	2367.32
531.99	2386.79
532.35	2406.09
532.71	2425.56
533.07	2445.51
533.42	2464.01
533.78	2482.87
534.14	2501.69
534.50	2519.67
534.86	2538.26
535.21	2555.07
535.57	2571.74
535.93	2587.64
536.29	2602.29
536.65	2617.76
537.00	2632.14
537.36	2647.16
537.72	2661.17
538.08	2674.94
538.44	2687.59
538.79	2700.43
539.15	2711.50
539.51	2722.40
539.87	2732.69
540.22	2740.90
540.58	2749.33
540.94	2758.31
541.29	2765.78
541.65	2772.34
542.01	2778.42
542.37	2782.60
542.72	2788.64
543.08	2794.15
543.44	2799.56
543.79	2804.36
544.15	2808.30
544.51	2812.06
544.87	2814.87
545.22	2817.34
545.58	2818.72
545.94	2820.56
546.29	2820.97
546.65	2821.50
547.01	2822.20
547.36	2823.11
547.72	2824.28
548.07	2823.85
548.43	2822.83
548.79	2821.16
549.14	2819.43
549.50	2818.25
549.86	2816.23
550.21	2811.91
550.57	2808.12
550.92	2802.80
551.28	2798.08
551.64	2793.17
551.99	2788.66
552.35	2783.80
552.70	2778.42
553.06	2773.68
553.41	2768.42
553.77	2762.57
554.13	2757.49
554.48	2751.43
554.84	2743.83
555.19	2736.26
555.55	2728.04
555.90	2720.36
556.26	2713.77
556.61	2706.61
556.97	2697.30
557.32	2689.07
557.68	2680.97
558.03	2672.23
558.39	2664.31
558.74	2656.47
559.10	2647.55
559.45	2638.23
559.81	2629.01
560.16	2619.30
560.52	2609.20
560.87	2600.09
561.23	2590.64
561.58	2580.74
561.94	2570.72
562.29	2560.04
562.64	2549.91
563.00	2540.23
563.35	2530.43
563.71	2519.54
564.06	2508.25
564.42	2497.94
564.77	2487.18
565.12	2476.50
565.48	2465.49
565.83	2455.15
566.19	2444.90
566.54	2434.14
566.89	2422.57
567.25	2411.17
567.60	2400.54
567.96	2389.47
568.31	2377.07
568.66	2364.61
569.02	2353.13
569.37	2341.41
569.72	2330.30
570.08	2318.42
570.43	2305.94
570.78	2293.11
571.14	2280.29
571.49	2268.11
571.84	2256.14
572.20	2242.81
572.55	2230.13
572.90	2217.28
573.26	2203.60
573.61	2189.32
573.96	2175.27
574.31	2161.57
574.67	2148.04
575.02	2133.93
575.37	2119.50
575.72	2105.39
576.08	2091.72
576.43	2076.99
576.78	2062.28
577.13	2048.38
577.49	2034.63
577.84	2021.32
578.19	2007.21
578.54	1992.65
578.90	1977.54
579.25	1962.24
579.60	1948.43
579.95	1934.17
580.30	1919.99
580.66	1906.03
581.01	1891.53
581.36	1877.55
581.71	1864.13
582.06	1850.22
582.42	1836.48
582.77	1823.44
583.12	1809.88
583.47	1796.50
583.82	1783.22
584.17	1769.80
584.53	1756.24
584.88	1742.71
585.23	1728.79
585.58	1715.40
585.93	1702.34
586.28	1690.19
586.63	1677.81
586.98	1664.61
587.34	1651.65
587.69	1638.23
588.04	1625.05
588.39	1612.57
588.74	1599.49
589.09	1586.20
589.44	1572.90
589.79	1560.12
590.14	1547.22
590.49	1534.58
590.84	1521.77
591.19	1509.59
591.54	1496.95
591.89	1484.16
592.25	1471.63
592.60	1458.77
592.95	1446.40
593.30	1434.43
593.65	1422.23
594.00	1410.29
594.35	1399.11
594.70	1387.01
595.05	1375.90
595.40	1364.67
595.75	1352.88
596.10	1341.93
596.45	1331.23
596.80	1320.90
597.15	1310.37
597.50	1299.79
597.85	1289.42
598.19	1279.26
598.54	1268.60
598.89	1258.63
599.24	1248.92
599.59	1239.00
599.94	1230.08
600.29	1221.05
600.64	1211.77
600.99	1201.89
601.34	1192.46
601.69	1182.48
602.04	1173.69
602.39	1164.78
602.74	1156.13
603.08	1147.72
603.43	1138.76
603.78	1129.62
604.13	1120.66
604.48	1111.62
604.83	1102.86
605.18	1094.03
605.53	1085.13
605.87	1076.25
606.22	1067.66
606.57	1058.82
606.92	1049.99
607.27	1041.07
607.62	1032.28
607.96	1023.70
608.31	1016.16
608.66	1008.21
609.01	1000.65
609.36	992.95
609.70	985.01
610.05	976.93
610.40	969.18
610.75	961.58
611.10	954.21
611.44	946.49
611.79	939.09
612.14	931.28
612.49	923.63
612.83	916.44
613.18	909.36
613.53	902.12
613.88	894.97
614.22	888.48
614.57	881.72
614.92	874.95
615.27	868.19
615.61	861.24
615.96	854.55
616.31	847.78
616.65	840.96
617.00	834.36
617.35	827.84
617.70	821.38
618.04	815.02
618.39	808.68
618.74	802.66
619.08	796.45
619.43	790.53
619.78	784.62
620.12	778.51
620.47	772.58
620.82	766.69
621.16	761.13
621.51	755.22
621.85	749.31
622.20	743.45
622.55	737.76
622.89	732.00
623.24	726.26
623.59	720.65
623.93	715.09
624.28	709.68
624.62	704.25
624.97	698.79
625.32	693.46
625.66	688.01
626.01	682.54
626.35	677.23
626.70	671.95
627.04	666.87
627.39	661.85
627.73	656.92
628.08	652.21
628.43	647.33
628.77	642.51
629.12	637.85
629.46	633.38
629.81	628.75
630.15	624.02
630.50	619.45
630.84	615.03
631.19	610.81
631.53	606.62
631.88	602.35
632.22	598.16
632.57	594.18
632.91	590.15
633.26	586.20
633.60	582.33
633.95	578.59
634.29	574.70
634.64	570.76
634.98	566.72
635.32	562.85
635.67	559.15
636.01	555.41
636.36	551.68
636.70	548.11
637.05	544.49
637.39	541.09
637.73	537.53
638.08	534.07
638.42	530.58
638.77	526.95
639.11	523.29
639.45	519.69
639.80	516.08
640.14	512.65
640.49	509.19
640.83	505.63
641.17	502.09
641.52	498.72
641.86	495.35
642.20	492.16
642.55	488.81
642.89	485.55
643.23	482.48
643.58	479.66
643.92	476.68
644.26	473.77
644.61	470.83
644.95	467.92
645.29	464.93
645.64	461.89
645.98	459.01
646.32	456.31
646.66	453.60
647.01	450.87
647.35	448.21
647.69	445.43
648.04	442.79
648.38	440.18
648.72	437.53
649.06	434.94
649.41	432.42
649.75	429.87
650.09	427.35
650.43	424.82
650.78	422.27
651.12	419.73
651.46	417.26
651.80	414.91
652.14	412.63
652.49	410.37
652.83	408.18
653.17	405.98
653.51	403.83
653.85	401.75
654.20	399.61
654.54	397.37
654.88	395.32
655.22	393.33
655.56	391.31
655.90	389.39
656.25	387.48
656.59	385.56
656.93	383.74
657.27	381.95
657.61	380.09
657.95	378.29
658.29	376.48
658.64	374.70
658.98	372.88
659.32	371.12
659.66	369.46
660.00	367.79
660.34	366.16
660.68	364.48
661.02	362.73
661.36	361.11
661.70	359.56
662.05	357.99
662.39	356.40
662.73	354.91
663.07	353.44
663.41	352.00
663.75	350.57
664.09	349.15
664.43	347.67
664.77	346.27
665.11	344.81
665.45	343.43
665.79	342.05
666.13	340.68
666.47	339.28
666.81	337.85
667.15	336.40
667.49	335.03
667.83	333.72
668.17	332.46
668.51	331.21
668.85	329.97
669.19	328.80
669.53	327.57
669.87	326.31
670.21	325.07
670.55	323.85
670.89	322.71
671.23	321.54
671.57	320.36
671.91	319.25
672.25	318.19
672.58	317.13
672.92	316.06
673.26	315.05
673.60	314.05
673.94	313.03
674.28	312.08
674.62	311.12
674.96	310.12
675.30	309.18
675.64	308.23
675.97	307.29
676.31	306.32
676.65	305.38
676.99	304.49
677.33	303.55
677.67	302.66
678.01	301.68
678.34	300.78
678.68	299.95
679.02	299.08
679.36	298.22
679.70	297.36
680.04	296.52
680.37	295.67
680.71	294.85
681.05	294.09
681.39	293.29
681.73	292.45
682.06	291.66
682.40	290.87
682.74	290.10
683.08	289.36
683.42	288.61
683.75	287.92
684.09	287.16
684.43	286.45
684.77	285.72
685.10	285.05
685.44	284.37
685.78	283.66
686.12	283.00
686.45	282.32
686.79	281.64
687.13	280.99
687.46	280.30
687.80	279.64
688.14	278.94
688.48	278.30
688.81	277.67
689.15	277.07
689.49	276.44
689.82	275.82
690.16	275.15
690.50	274.54
690.83	273.92
691.17	273.32
691.51	272.73
691.84	272.16
692.18	271.57
692.52	270.96
692.85	270.37
693.19	269.83
693.52	269.28
693.86	268.73
694.20	268.18
694.53	267.67
694.87	267.12
695.21	266.61
695.54	266.09
695.88	265.56
696.21	265.01
696.55	264.49
696.88	263.99
697.22	263.49
697.56	263.00
697.89	262.46
698.23	261.95
698.56	261.43
698.90	260.95
699.23	260.46
699.57	260.01
699.90	259.55
700.24	259.06
700.58	258.61
700.91	258.19
701.25	257.84
701.58	257.44
701.92	257.05
702.25	256.64
702.59	256.20
702.92	255.80
703.26	255.40
703.59	255.00
703.93	254.68
704.26	254.29
704.60	253.90
704.93	253.54
705.26	253.17
705.60	252.84
705.93	252.46
706.27	252.15
706.60	251.82
706.94	251.49
707.27	251.11
707.61	250.74
707.94	250.37
708.27	249.93
708.61	249.55
708.94	249.18
709.28	248.84
709.61	248.52
709.94	248.21
710.28	247.91
710.61	247.63
710.95	247.24
711.28	247.02
711.61	246.73
711.95	246.46
712.28	246.18
712.61	245.87
712.95	245.65
713.28	245.41
713.61	245.12
713.95	244.82
714.28	244.58
714.61	244.31
714.95	244.06
715.28	243.80
715.61	243.56
715.95	243.33
716.28	243.08
716.61	242.87
716.95	242.62
717.28	242.39
717.61	242.15
717.94	241.92
718.28	241.62
718.61	241.40
718.94	241.17
719.27	240.95
719.61	240.76
719.94	240.51
720.27	240.24
720.60	240.03
720.94	239.83
721.27	239.64
721.60	239.47
721.93	239.27
722.27	239.12
722.60	238.94
722.93	238.73
723.26	238.56
723.59	238.34
723.93	238.18
724.26	238.01
724.59	237.83
724.92	237.68
725.25	237.53
725.59	237.36
725.92	237.21
726.25	237.05
726.58	236.89
726.91	236.73
727.24	236.59
727.57	236.44
727.91	236.27
728.24	236.14
728.57	235.98
728.90	235.84
729.23	235.67
729.56	235.57
729.89	235.43
730.22	235.28
730.55	235.14
730.89	235.00
731.22	234.85
731.55	234.71
731.88	234.57
732.21	234.43
732.54	234.29
732.87	234.17
733.20	234.05
733.53	233.93
733.86	233.81
734.19	233.68
734.52	233.58
734.85	233.54
735.18	233.39
735.51	233.31
735.84	233.20
736.17	233.11
736.50	232.94
736.83	232.96
737.16	232.85
737.49	232.76
737.82	232.65
738.15	232.57
738.48	232.47
738.81	232.37
739.14	232.25
739.47	232.14
739.80	232.04
740.13	231.95
740.46	231.84
740.79	231.72
741.12	231.63
741.45	231.52
741.78	231.37
742.11	231.31
742.44	231.19
742.77	231.11
743.10	231.00
743.43	230.91
743.75	230.71
744.08	230.79
744.41	230.69
744.74	230.60
745.07	230.49
745.40	230.42
745.73	230.38
746.06	230.30
746.39	230.24
746.71	230.15
747.04	230.07
747.37	229.99
747.70	229.93
748.03	229.85
748.36	229.80
748.68	229.72
749.01	229.61
749.34	229.54
749.67	229.46
750.00	229.41
750.33	229.41
750.65	229.35
750.98	229.13
751.31	229.06
751.64	229.00
751.97	228.99
752.29	228.91
752.62	228.80
752.95	228.72
753.28	228.64
753.60	228.58
753.93	228.53
754.26	228.47
754.59	228.37
754.91	228.30
755.24	228.22
755.57	228.20
755.90	228.14
756.22	228.07
756.55	227.99
756.88	227.92
757.20	227.79
757.53	227.70
757.86	227.63
758.19	227.59
758.51	227.53
758.84	227.42
759.17	227.35
759.49	227.31
759.82	227.31
760.15	227.26
760.47	227.21
760.80	227.13
761.13	227.10
761.45	227.05
761.78	227.00
762.11	226.95
762.43	226.85
762.76	226.81
763.08	226.77
763.41	226.73
763.74	226.69
764.06	226.63
764.39	226.60
764.71	226.56
765.04	226.50
765.37	226.45
765.69	226.41
766.02	226.36
766.34	226.30
766.67	226.22
767.00	226.20
767.32	226.21
767.65	226.24
767.97	226.18
768.30	226.15
768.62	226.12
768.95	226.07
769.27	226.03
769.60	226.02
769.92	225.97
770.25	225.92
770.57	225.86
770.90	225.83
771.22	225.79
771.55	225.75
771.87	225.73
772.20	225.69
772.52	225.75
772.85	225.84
773.17	225.82
773.50	225.78
773.82	225.73
774.15	225.65
774.47	225.56
774.80	225.52
775.12	225.48
775.45	225.45
775.77	225.44
776.09	225.41
776.42	225.38
776.74	225.39
777.07	225.36
777.39	225.34
777.72	225.31
778.04	225.30
778.36	225.27
778.69	225.24
779.01	225.23
779.33	225.11
779.66	224.97
779.98	224.93
780.31	224.92
780.63	224.94
780.95	224.94
781.28	224.92
781.60	224.90
781.92	224.88
782.25	224.87
782.57	224.84
782.89	224.81
783.22	224.78
783.54	224.74
783.86	224.73
784.19	224.70
784.51	224.71
784.83	224.68
785.16	224.66
785.48	224.64
785.80	224.63
786.12	224.63
786.45	224.61
786.77	224.61
787.09	224.59
787.42	224.53
787.74	224.51
788.06	224.49
788.38	224.47
788.71	224.46
789.03	224.44
789.35	224.43
789.67	224.41
789.99	224.40
790.32	224.37
790.64	224.37
790.96	224.46
791.28	224.40
791.61	224.38
791.93	224.37
792.25	224.34
792.57	224.40
792.89	224.36
793.21	224.36
793.54	224.33
793.86	224.30
794.18	224.30
794.50	224.26
794.82	224.25
795.14	224.25
795.47	224.25
795.79	224.23
796.11	224.19
796.43	224.18
796.75	224.16
797.07	224.16
797.39	224.14
797.71	224.04
798.04	224.03
798.36	224.03
798.68	224.03
799.00	224.03
799.32	223.96
799.64	223.97
799.96	223.95
800.28	223.97
800.60	223.96
800.92	223.95
801.24	223.93
801.56	223.93
801.89	223.91
802.21	223.90
802.53	223.88
802.85	223.90
803.17	223.93
803.49	223.90
803.81	223.89
804.13	223.87
804.45	223.85
804.77	223.84
805.09	223.83
805.41	223.80
805.73	223.77
806.05	223.74
806.37	223.72
806.69	223.70
807.01	223.67
807.33	223.67
807.65	223.63
807.97	223.66
808.28	223.64
808.60	223.63
808.92	223.61
809.24	223.67
809.56	223.63
809.88	223.59
810.20	223.59
810.52	223.60
810.84	223.57
811.16	223.56
811.48	223.54
811.80	223.56
812.12	223.56
812.43	223.57
812.75	223.57
813.07	223.56
813.39	223.56
813.71	223.54
814.03	223.52
814.35	223.52
814.67	223.47
814.98	223.45
815.30	223.45
815.62	223.43
815.94	223.35
816.26	223.36
816.58	223.34
816.89	223.34
817.21	223.31
817.53	223.31
817.85	223.31
818.17	223.31
818.48	223.26
818.80	223.28
819.12	223.24
819.44	223.22
819.76	223.20
820.07	223.19
820.39	223.18
820.71	223.18
821.03	223.18
821.34	223.17
821.66	223.18
821.98	223.18
822.30	223.17
822.61	223.23
822.93	223.20
823.25	223.20
823.57	223.18
823.88	223.19
824.20	223.19
824.52	223.21
824.83	223.20
825.15	223.19
825.47	223.18
825.79	223.19
826.10	223.18
826.42	223.18
826.74	223.17
827.05	223.16
827.37	223.16
827.69	223.15
828.00	223.15
828.32	223.14
828.64	223.12
828.95	223.18
829.27	223.14
829.58	223.13
829.90	223.14
830.22	223.14
830.53	223.12
830.85	223.10
831.17	223.06
831.48	223.06
831.80	223.06
832.11	223.05
832.43	223.04
832.75	223.03
833.06	223.09
833.38	223.06
833.69	223.06
834.01	223.05
834.32	223.05
834.64	223.04
834.96	223.04
835.27	223.04
835.59	223.00
835.90	222.99
836.22	222.99
836.53	222.96
836.85	222.95
837.16	223.05
837.48	223.05
837.79	223.09
838.11	223.09
838.42	223.08
838.74	223.09
839.05	223.08
839.37	223.07
839.68	223.01
840.00	223.01
840.31	223.02
840.63	223.01
840.94	223.00
841.26	222.99
841.57	222.98
841.88	222.99
842.20	222.97
842.51	222.96
842.83	222.95
843.14	223.05
843.46	223.04
843.77	222.98
844.08	222.98
844.40	222.94
844.71	222.93
845.03	222.92
845.34	222.90
845.65	222.90
845.97	222.90
846.28	222.91
846.60	222.91
846.91	222.89
847.22	222.89
847.54	222.91
847.85	222.92
848.16	222.92
848.48	222.90
848.79	222.94
849.10	222.95
849.42	222.96
849.73	222.86
850.04	222.86
850.36	222.83
850.67	222.84
850.98	222.84
851.30	222.84
851.61	222.83
851.92	222.83
852.23	222.86
852.55	222.86
852.86	222.86
853.17	222.87
853.49	222.90
853.80	222.91
854.11	222.92
854.42	222.93
854.74	222.92
855.05	222.92
855.36	222.87
855.67	222.87
855.99	222.87
856.30	222.99
856.61	222.99
856.92	222.99
857.23	222.99
857.55	222.99
857.86	222.98
858.17	223.00
858.48	222.98
858.79	222.96
859.11	222.97
859.42	222.96
859.73	222.94
860.04	222.93
860.35	222.91
860.66	222.87
860.98	222.85
861.29	222.87
861.60	222.86
861.91	222.88
862.22	222.85
862.53	222.83
862.84	222.71
863.16	222.73
863.47	222.71
863.78	222.70
864.09	222.70
864.40	222.70
864.71	222.69
865.02	222.71
865.33	222.70
865.64	222.68
865.95	222.68
866.27	222.74
866.58	222.73
866.89	222.75
867.20	222.75
867.51	222.73
867.82	222.72
868.13	222.76
868.44	222.74
868.75	222.76
869.06	222.77
869.37	222.78
869.68	222.75
869.99	222.77
870.30	222.78
870.61	222.79
870.92	222.78
871.23	222.78
871.54	222.79
871.85	222.82
872.16	222.83
872.47	222.83
872.78	222.77
873.09	222.78
873.40	222.77
873.71	222.77
874.02	222.78
874.33	222.77
874.64	222.75
874.95	222.76
875.26	222.74
875.56	222.74
875.87	222.73
876.18	222.73
876.49	222.82
876.80	222.81
877.11	222.79
877.42	222.79
877.73	222.80
878.04	222.77
878.35	222.76
878.66	222.76
878.96	222.76
879.27	222.75
879.58	222.74
879.89	222.73
880.20	222.77
880.51	222.77
880.82	222.77
881.12	222.78
881.43	222.75
881.74	222.74
882.05	222.74
882.36	222.75
882.67	222.76
882.97	222.65
883.28	222.65
883.59	222.64
883.90	222.66
884.21	222.67
884.51	222.66
884.82	222.65
885.13	222.64
885.44	222.64
885.74	222.64
886.05	222.64
886.36	222.65
886.67	222.61
886.98	222.67
887.28	222.68
887.59	222.67
887.90	222.67
888.20	222.67
888.51	222.69
888.82	222.67
889.13	222.67
889.43	222.76
889.74	222.75
890.05	222.74
890.35	222.73
890.66	222.71
890.97	222.70
891.28	222.70
891.58	222.70
891.89	222.71
892.20	222.69
892.50	222.68
892.81	222.67
893.12	222.67
893.42	222.61
893.73	222.60
894.04	222.60
894.34	222.60
894.65	222.60
894.95	222.59
895.26	222.59
895.57	222.64
895.87	222.54
896.18	222.56
896.48	222.56
896.79	222.56
897.10	222.58
897.40	222.58
897.71	222.58
898.01	222.57
898.32	222.58
898.63	222.58
898.93	222.58
899.24	222.58
899.54	222.58
899.85	222.59
900.15	222.58
900.46	222.58
900.76	222.59
901.07	222.59
901.38	222.59
901.68	222.61
901.99	222.55
902.29	222.56
902.60	222.54
902.90	222.53
903.21	222.53
903.51	222.52
903.82	222.55
904.12	222.54
904.43	222.55
904.73	222.55
905.03	222.55
905.34	222.65
905.64	222.65
905.95	222.65
906.25	222.65
906.56	222.64
906.86	222.64
907.17	222.63
907.47	222.63
907.77	222.62
908.08	222.59
908.38	222.61
908.69	222.61
908.99	222.63
909.30	222.65
909.60	222.64
909.90	222.65
910.21	222.62
910.51	222.61
910.81	222.61
911.12	222.61
911.42	222.61
911.73	222.51
912.03	222.51
912.33	222.53
912.64	222.52
912.94	222.52
913.24	222.50
913.55	222.49
913.85	222.49
914.15	222.51
914.46	222.52
914.76	222.51
915.06	222.50
915.37	222.47
915.67	222.46
915.97	222.47
916.27	222.45
916.58	222.44
916.88	222.44
917.18	222.44
917.49	222.50
917.79	222.49
918.09	222.51
918.39	222.53
918.70	222.53
919.00	222.53
919.30	222.57
919.60	222.57
919.91	222.57
920.21	222.57
920.51	222.54
920.81	222.54
921.12	222.56
921.42	222.55
921.72	222.56
922.02	222.56
922.32	222.58
922.63	222.58
922.93	222.64
923.23	222.64
923.53	222.62
923.83	222.56
924.13	222.57
924.44	222.56
924.74	222.57
925.04	222.59
925.34	222.59
925.64	222.54
925.94	222.55
926.24	222.60
926.55	222.59
926.85	222.61
927.15	222.60
927.45	222.60
927.75	222.60
928.05	222.60
928.35	222.59
928.65	222.60
928.95	222.61
929.26	222.56
929.56	222.58
929.86	222.60
930.16	222.59
930.46	222.58
930.76	222.58
931.06	222.53
931.36	222.50
931.66	222.52
931.96	222.53
932.26	222.54
932.56	222.49
932.86	222.50
933.16	222.50
933.46	222.49
933.76	222.48
934.06	222.50
934.36	222.53
934.66	222.52
934.96	222.50
935.26	222.51
935.56	222.53
935.86	222.50
936.16	222.47
936.46	222.46
936.76	222.46
937.06	222.45
937.36	222.46
937.66	222.46
937.96	222.45
938.26	222.42
938.56	222.41
938.86	222.41
939.16	222.44
939.46	222.45
939.76	222.45
940.06	222.46
940.35	222.44
940.65	222.39
940.95	222.40
941.25	222.38
941.55	222.36
941.85	222.35
942.15	222.38
942.45	222.41
942.75	222.41
943.04	222.41
943.34	222.44
943.64	222.43
943.94	222.42
944.24	222.42
944.54	222.44
944.84	222.44
945.13	222.43
945.43	222.41
945.73	222.40
946.03	222.39
946.33	222.38
946.62	222.37
946.92	222.36
947.22	222.37
947.52	222.38
947.82	222.39
948.11	222.38
948.41	222.36
948.71	222.33
949.01	222.34
949.31	222.34
949.60	222.33
949.90	222.34
950.20	222.34
950.50	222.34
950.79	222.33
951.09	222.35
951.39	222.34
951.69	222.33
951.98	222.34
952.28	222.35
952.58	222.35
952.87	222.36
953.17	222.37
953.47	222.36
953.76	222.36
954.06	222.34
954.36	222.33
954.66	222.33
954.95	222.36
955.25	222.37
955.55	222.38
955.84	222.37
956.14	222.37
956.44	222.37
956.73	222.36
957.03	222.37
957.32	222.36
957.62	222.36
957.92	222.38
958.21	222.37
958.51	222.49
958.81	222.50
959.10	222.51
959.40	222.53
959.69	222.53
959.99	222.55
960.29	222.56
960.58	222.55
960.88	222.58
961.17	222.56
961.47	222.57
961.76	222.56
962.06	222.57
962.36	222.56
962.65	222.57
962.95	222.58
963.24	222.56
963.54	222.57
963.83	222.58
964.13	222.57
964.42	222.56
964.72	222.47
965.01	222.47
965.31	222.46
965.60	222.44
965.90	222.50
966.19	222.47
966.49	222.47
966.78	222.47
967.08	222.46
967.37	222.46
967.67	222.43
967.96	222.46
968.26	222.44
968.55	222.46
968.85	222.45
969.14	222.45
969.43	222.45
969.73	222.44
970.02	222.43
970.32	222.42
970.61	222.41
970.91	222.37
971.20	222.36
971.49	222.35
971.79	222.37
972.08	222.29
972.38	222.31
972.67	222.30
972.96	222.31
973.26	222.29
973.55	222.32
973.85	222.32
974.14	222.30
974.43	222.31
974.73	222.30
975.02	222.29
975.31	222.29
975.61	222.30
975.90	222.29
976.19	222.28
976.49	222.29
976.78	222.30
977.07	222.30
977.37	222.31
977.66	222.31
977.95	222.30
978.24	222.31
978.54	222.33
978.83	222.32
979.12	222.31
979.42	222.31
979.71	222.29
980.00	222.28
980.29	222.30
980.59	222.27
980.88	222.30
981.17	222.30
981.46	222.29
981.76	222.29
982.05	222.31
982.34	222.32
982.63	222.31
982.93	222.31
983.22	222.33
983.51	222.34
983.80	222.36
984.09	222.37
984.39	222.36
984.68	222.35
984.97	222.36
985.26	222.36
985.55	222.36
985.85	222.35
986.14	222.36
986.43	222.38
986.72	222.37
987.01	222.34
987.30	222.35
987.59	222.35
987.89	222.35
988.18	222.33
988.47	222.32
988.76	222.31
989.05	222.30
989.34	222.29
989.63	222.32
989.92	222.29
990.22	222.28
990.51	222.27
990.80	222.26
991.09	222.27
991.38	222.29
991.67	222.29
991.96	222.27
992.25	222.27
992.54	222.25
992.83	222.26
993.12	222.26
993.41	222.27
993.70	222.31
993.99	222.33
994.28	222.34
994.58	222.37
994.87	222.35
995.16	222.35
995.45	222.34
995.74	222.30
996.03	222.32
996.32	222.34
996.61	222.36
996.90	222.36
997.19	222.36
997.48	222.35
997.77	222.33
998.06	222.34
998.34	222.32
998.63	222.32
998.92	222.33
999.21	222.35
999.50	222.34
999.79	222.31
1000.08	222.31
1000.37	222.30
1000.66	222.29
1000.95	222.32
1001.24	222.34
1001.53	222.35
1001.82	222.34
1002.11	222.32
1002.40	222.33
1002.68	222.35
1002.97	222.42
1003.26	222.41
1003.55	222.40
1003.84	222.41
1004.13	222.45
1004.42	222.45
1004.71	222.44
1004.99	222.43
1005.28	222.45
1005.57	222.44
1005.86	222.42
1006.15	222.41
1006.44	222.40
1006.72	222.41
1007.01	222.39
1007.30	222.39
1007.59	222.37
1007.88	222.38
1008.17	222.38
1008.45	222.36
1008.74	222.31
1009.03	222.26
1009.32	222.26
1009.60	222.27
1009.89	222.25
1010.18	222.21
1010.47	222.21
1010.76	222.21
1011.04	222.21
1011.33	222.21
1011.62	222.21
1011.91	222.22
1012.19	222.23
1012.48	222.23
1012.77	222.23
1013.05	222.26
1013.34	222.27
1013.63	222.26
1013.92	222.27
1014.20	222.26
1014.49	222.26
1014.78	222.28
1015.06	222.24
1015.35	222.24
1015.64	222.25
1015.92	222.27
1016.21	222.28
1016.50	222.28
1016.78	222.28
1017.07	222.30
1017.36	222.27
1017.64	222.26
1017.93	222.27
1018.22	222.26
1018.50	222.25
1018.79	222.24
1019.08	222.21
1019.36	222.21
1019.65	222.20
1019.93	222.23
1020.22	222.25
1020.51	222.31
1020.79	222.29
1021.08	222.04
1021.36	222.08
1021.65	222.12
1021.94	222.21
1022.22	222.39
1022.51	221.95
1022.79	222.79
1023.08	222.46
1023.36	223.55
1023.65	221.99
>>>>>End Processed Spectral Data<<<<<
