SpectraSuite Data File
++++++++++++++++++++++++++++++++++++
Date: Wed Sep 30 15:17:31 EDT 2015
User: lab3
Dark Spectrum Present: No
Reference Spectrum Present: No
Number of Sampled Component Spectra: 1
Spectrometers: USB2E7196
Integration Time (usec): 36000 (USB2E7196)
Spectra Averaged: 1500 (USB2E7196)
Boxcar Smoothing: 10 (USB2E7196)
Correct for Electrical Dark: No (USB2E7196)
Strobe/Lamp Enabled: No (USB2E7196)
Correct for Detector Non-linearity: No (USB2E7196)
Correct for Stray Light: No (USB2E7196)
Number of Pixels in Processed Spectrum: 2048
>>>>>Begin Processed Spectral Data<<<<<
339.09	0.00
339.48	211.38
339.86	212.74
340.24	214.23
340.63	215.47
341.01	218.44
341.39	218.24
341.78	219.62
342.16	220.74
342.54	221.18
342.93	209.79
343.31	220.40
343.69	220.93
344.07	221.40
344.46	221.82
344.84	222.20
345.22	222.44
345.60	222.70
345.99	222.89
346.37	223.02
346.75	223.13
347.13	223.21
347.52	223.28
347.90	223.36
348.28	223.39
348.66	223.45
349.05	223.45
349.43	223.49
349.81	223.55
350.19	223.61
350.57	223.68
350.96	223.75
351.34	223.84
351.72	223.94
352.10	224.03
352.48	224.10
352.87	224.17
353.25	224.24
353.63	224.30
354.01	224.37
354.39	224.46
354.77	224.54
355.15	224.64
355.54	224.71
355.92	224.75
356.30	224.83
356.68	224.98
357.06	225.06
357.44	225.11
357.82	225.18
358.20	225.29
358.58	225.36
358.97	225.42
359.35	225.51
359.73	225.59
360.11	225.66
360.49	225.73
360.87	225.78
361.25	225.85
361.63	225.94
362.01	225.99
362.39	226.02
362.77	226.07
363.15	226.09
363.53	226.13
363.91	226.17
364.29	226.20
364.67	226.12
365.05	226.15
365.43	226.19
365.81	226.22
366.19	226.24
366.57	226.29
366.95	226.30
367.33	226.27
367.71	226.27
368.09	226.29
368.47	226.28
368.85	226.27
369.23	226.28
369.61	226.22
369.99	226.23
370.37	226.23
370.75	226.29
371.13	226.26
371.51	226.22
371.89	226.20
372.27	226.18
372.65	226.15
373.03	226.11
373.41	226.07
373.78	226.02
374.16	225.94
374.54	225.86
374.92	225.82
375.30	225.78
375.68	225.71
376.06	225.65
376.44	225.59
376.82	225.55
377.19	225.49
377.57	225.44
377.95	225.36
378.33	225.29
378.71	225.15
379.09	225.10
379.47	225.06
379.84	224.99
380.22	224.92
380.60	224.84
380.98	224.79
381.36	224.73
381.73	224.67
382.11	224.63
382.49	224.57
382.87	224.51
383.25	224.46
383.62	224.53
384.00	224.47
384.38	224.43
384.76	224.41
385.13	224.40
385.51	224.35
385.89	224.29
386.27	224.26
386.64	224.22
387.02	224.17
387.40	224.12
387.78	224.09
388.15	224.07
388.53	224.05
388.91	224.01
389.29	223.97
389.66	223.96
390.04	223.92
390.42	223.91
390.79	223.89
391.17	223.87
391.55	223.74
391.92	223.73
392.30	223.72
392.68	223.68
393.05	223.66
393.43	223.66
393.81	223.66
394.18	223.64
394.56	223.65
394.94	223.67
395.31	223.67
395.69	223.70
396.06	223.72
396.44	223.74
396.82	223.75
397.19	223.83
397.57	223.84
397.95	223.89
398.32	223.88
398.70	223.93
399.07	223.98
399.45	224.02
399.82	224.06
400.20	224.10
400.58	224.15
400.95	224.17
401.33	224.25
401.70	224.38
402.08	224.47
402.45	224.54
402.83	224.66
403.20	224.75
403.58	224.84
403.95	224.97
404.33	225.10
404.71	225.22
405.08	225.40
405.46	225.54
405.83	225.70
406.21	225.88
406.58	226.08
406.96	226.26
407.33	226.48
407.70	226.72
408.08	227.05
408.45	227.34
408.83	227.65
409.20	227.93
409.58	228.19
409.95	228.54
410.33	228.92
410.70	229.27
411.08	229.69
411.45	230.13
411.82	230.56
412.20	231.08
412.57	231.69
412.95	232.18
413.32	232.80
413.69	233.45
414.07	234.13
414.44	234.85
414.82	235.61
415.19	236.49
415.56	237.39
415.94	238.31
416.31	239.35
416.68	240.39
417.06	241.61
417.43	242.75
417.81	244.06
418.18	245.39
418.55	246.85
418.93	248.37
419.30	249.96
419.67	251.65
420.04	253.39
420.42	255.20
420.79	257.30
421.16	259.42
421.54	261.58
421.91	263.84
422.28	266.19
422.66	268.73
423.03	271.14
423.40	273.66
423.77	276.37
424.15	279.17
424.52	282.06
424.89	285.20
425.26	288.31
425.64	291.21
426.01	294.47
426.38	297.81
426.75	301.26
427.13	304.80
427.50	308.50
427.87	312.34
428.24	316.23
428.61	319.95
428.99	323.97
429.36	328.35
429.73	332.55
430.10	336.74
430.47	341.02
430.85	345.43
431.22	350.13
431.59	354.96
431.96	359.66
432.33	364.89
432.70	369.84
433.08	375.72
433.45	381.24
433.82	386.68
434.19	392.78
434.56	398.74
434.93	404.51
435.30	410.22
435.68	416.61
436.05	422.85
436.42	429.11
436.79	434.78
437.16	440.95
437.53	447.52
437.90	454.09
438.27	460.51
438.64	467.44
439.01	473.73
439.38	479.46
439.75	485.02
440.13	491.32
440.50	497.28
440.87	501.98
441.24	507.16
441.61	512.84
441.98	516.97
442.35	521.92
442.72	526.99
443.09	531.78
443.46	534.84
443.83	537.12
444.20	539.02
444.57	541.83
444.94	543.44
445.31	545.14
445.68	546.62
446.05	547.70
446.42	547.47
446.79	547.14
447.16	546.86
447.53	546.59
447.90	544.67
448.27	542.89
448.64	540.07
449.01	538.23
449.37	534.26
449.74	530.64
450.11	526.00
450.48	520.87
450.85	515.73
451.22	511.38
451.59	507.07
451.96	503.16
452.33	497.47
452.70	492.40
453.07	486.25
453.43	480.07
453.80	474.08
454.17	468.37
454.54	463.05
454.91	457.06
455.28	451.40
455.65	446.06
456.02	440.40
456.38	435.84
456.75	429.93
457.12	425.19
457.49	420.42
457.86	415.85
458.23	411.85
458.59	407.47
458.96	402.97
459.33	399.02
459.70	394.99
460.07	391.94
460.43	388.34
460.80	384.97
461.17	382.01
461.54	378.81
461.91	375.80
462.27	372.73
462.64	370.22
463.01	367.34
463.38	364.47
463.74	361.85
464.11	359.54
464.48	357.44
464.85	355.17
465.21	353.41
465.58	351.48
465.95	349.29
466.32	347.52
466.68	345.77
467.05	344.03
467.42	342.34
467.78	340.51
468.15	338.81
468.52	337.56
468.88	335.94
469.25	334.45
469.62	333.28
469.98	332.01
470.35	330.86
470.72	329.85
471.08	328.80
471.45	327.95
471.82	326.98
472.18	325.96
472.55	325.33
472.92	324.55
473.28	323.93
473.65	323.28
474.02	322.68
474.38	322.18
474.75	321.88
475.11	321.47
475.48	321.33
475.85	321.18
476.21	321.12
476.58	321.12
476.94	321.32
477.31	321.43
477.67	321.57
478.04	321.83
478.41	322.17
478.77	322.63
479.14	322.94
479.50	323.50
479.87	324.20
480.23	324.91
480.60	325.61
480.96	326.33
481.33	327.31
481.69	328.29
482.06	329.26
482.42	330.21
482.79	331.33
483.15	332.61
483.52	334.07
483.88	335.45
484.25	336.93
484.61	338.46
484.98	340.11
485.34	341.97
485.71	343.89
486.07	345.93
486.44	347.97
486.80	350.24
487.17	352.55
487.53	355.10
487.90	357.71
488.26	360.53
488.62	363.53
488.99	366.58
489.35	369.75
489.72	373.16
490.08	376.75
490.44	380.39
490.81	384.19
491.17	388.11
491.54	392.32
491.90	396.59
492.26	401.20
492.63	406.04
492.99	411.06
493.36	416.24
493.72	421.69
494.08	427.31
494.45	433.23
494.81	439.36
495.17	445.61
495.54	452.24
495.90	459.19
496.26	466.29
496.63	473.60
496.99	481.22
497.35	489.15
497.72	497.34
498.08	505.80
498.44	514.49
498.80	523.64
499.17	533.08
499.53	542.86
499.89	552.85
500.26	563.11
500.62	573.56
500.98	584.69
501.34	595.98
501.71	607.76
502.07	619.77
502.43	632.09
502.79	644.83
503.16	657.98
503.52	671.29
503.88	684.90
504.24	698.93
504.60	713.15
504.97	727.82
505.33	742.86
505.69	758.72
506.05	774.79
506.41	791.02
506.78	807.45
507.14	824.49
507.50	841.84
507.86	859.50
508.22	877.52
508.59	895.62
508.95	914.37
509.31	933.61
509.67	953.65
510.03	973.97
510.39	994.42
510.75	1014.94
511.12	1035.65
511.48	1056.73
511.84	1078.16
512.20	1099.71
512.56	1122.12
512.92	1144.72
513.28	1167.15
513.64	1189.95
514.00	1213.12
514.37	1236.75
514.73	1260.30
515.09	1283.62
515.45	1307.20
515.81	1331.35
516.17	1355.58
516.53	1379.41
516.89	1403.25
517.25	1426.99
517.61	1450.92
517.97	1475.15
518.33	1499.34
518.69	1523.88
519.05	1548.70
519.41	1573.27
519.77	1598.44
520.13	1622.93
520.49	1647.62
520.85	1672.12
521.21	1696.38
521.57	1721.22
521.93	1745.09
522.29	1769.31
522.65	1793.57
523.01	1817.86
523.37	1841.22
523.73	1865.34
524.09	1889.58
524.45	1913.59
524.81	1937.34
525.17	1960.73
525.53	1983.67
525.89	2006.31
526.25	2029.01
526.61	2050.82
526.97	2073.09
527.33	2095.02
527.68	2116.73
528.04	2137.77
528.40	2158.83
528.76	2179.93
529.12	2200.05
529.48	2221.13
529.84	2240.61
530.20	2260.35
530.56	2279.32
530.91	2298.97
531.27	2317.59
531.63	2335.58
531.99	2353.11
532.35	2370.37
532.71	2387.93
533.07	2405.96
533.42	2422.99
533.78	2440.38
534.14	2457.83
534.50	2474.23
534.86	2491.06
535.21	2506.02
535.57	2520.81
535.93	2535.09
536.29	2548.46
536.65	2562.35
537.00	2574.91
537.36	2587.93
537.72	2600.07
538.08	2612.21
538.44	2622.98
538.79	2634.04
539.15	2643.41
539.51	2652.42
539.87	2660.57
540.22	2666.80
540.58	2673.00
540.94	2679.58
541.29	2684.54
541.65	2688.72
542.01	2693.14
542.37	2695.91
542.72	2700.51
543.08	2704.35
543.44	2707.75
543.79	2710.27
544.15	2711.69
544.51	2712.93
544.87	2713.80
545.22	2714.21
545.58	2713.95
545.94	2713.65
546.29	2711.97
546.65	2710.93
547.01	2710.05
547.36	2709.42
547.72	2709.14
548.07	2707.66
548.43	2705.16
548.79	2701.99
549.14	2698.95
549.50	2696.04
549.86	2692.34
550.21	2686.85
550.57	2681.94
550.92	2675.87
551.28	2670.40
551.64	2664.67
551.99	2659.07
552.35	2653.05
552.70	2646.61
553.06	2640.60
553.41	2634.57
553.77	2627.83
554.13	2621.51
554.48	2614.46
554.84	2606.15
555.19	2597.38
555.55	2588.18
555.90	2579.64
556.26	2571.85
556.61	2563.36
556.97	2552.83
557.32	2543.51
557.68	2534.41
558.03	2524.81
558.39	2515.79
558.74	2506.88
559.10	2497.13
559.45	2487.01
559.81	2477.04
560.16	2466.63
560.52	2455.84
560.87	2445.72
561.23	2435.38
561.58	2424.92
561.94	2414.28
562.29	2403.05
562.64	2392.52
563.00	2382.06
563.35	2371.89
563.71	2360.82
564.06	2349.73
564.42	2339.53
564.77	2328.73
565.12	2317.67
565.48	2306.08
565.83	2295.13
566.19	2284.27
566.54	2273.12
566.89	2261.38
567.25	2250.02
567.60	2239.79
567.96	2229.11
568.31	2217.15
568.66	2205.18
569.02	2193.62
569.37	2181.97
569.72	2171.14
570.08	2159.94
570.43	2148.09
570.78	2135.54
571.14	2123.29
571.49	2111.52
571.84	2099.54
572.20	2086.62
572.55	2074.50
572.90	2062.33
573.26	2049.70
573.61	2036.35
573.96	2023.64
574.31	2011.00
574.67	1998.05
575.02	1984.35
575.37	1970.52
575.72	1956.97
576.08	1943.61
576.43	1929.37
576.78	1915.40
577.13	1901.80
577.49	1888.11
577.84	1875.20
578.19	1861.74
578.54	1847.98
578.90	1833.70
579.25	1819.19
579.60	1805.86
579.95	1792.05
580.30	1778.68
580.66	1765.21
581.01	1751.77
581.36	1738.10
581.71	1725.02
582.06	1711.94
582.42	1699.21
582.77	1686.62
583.12	1673.86
583.47	1661.61
583.82	1649.27
584.17	1636.29
584.53	1623.47
584.88	1610.80
585.23	1597.47
585.58	1584.88
585.93	1572.69
586.28	1561.05
586.63	1549.48
586.98	1537.05
587.34	1525.03
587.69	1512.41
588.04	1500.27
588.39	1488.45
588.74	1476.27
589.09	1464.21
589.44	1451.68
589.79	1439.50
590.14	1427.56
590.49	1415.65
590.84	1403.72
591.19	1392.57
591.54	1381.15
591.89	1369.41
592.25	1358.01
592.60	1346.40
592.95	1334.96
593.30	1323.64
593.65	1312.34
594.00	1301.33
594.35	1291.05
594.70	1279.77
595.05	1269.20
595.40	1258.38
595.75	1247.24
596.10	1237.00
596.45	1226.74
596.80	1217.12
597.15	1207.12
597.50	1197.01
597.85	1187.47
598.19	1177.89
598.54	1168.05
598.89	1158.82
599.24	1149.98
599.59	1140.95
599.94	1132.74
600.29	1124.29
600.64	1115.77
600.99	1106.52
601.34	1097.66
601.69	1088.63
602.04	1080.61
602.39	1072.45
602.74	1064.52
603.08	1056.88
603.43	1048.86
603.78	1040.84
604.13	1032.81
604.48	1024.81
604.83	1017.11
605.18	1009.11
605.53	1001.20
605.87	993.10
606.22	985.37
606.57	977.36
606.92	969.24
607.27	961.19
607.62	953.39
607.96	945.79
608.31	939.29
608.66	932.47
609.01	925.75
609.36	918.82
609.70	911.83
610.05	904.67
610.40	897.72
610.75	890.81
611.10	884.08
611.44	877.08
611.79	870.39
612.14	863.41
612.49	856.54
612.83	850.08
613.18	843.77
613.53	837.35
613.88	831.05
614.22	825.19
614.57	819.16
614.92	813.10
615.27	807.03
615.61	800.67
615.96	794.57
616.31	788.31
616.65	782.05
617.00	776.03
617.35	770.13
617.70	764.32
618.04	758.66
618.39	752.95
618.74	747.52
619.08	741.88
619.43	736.40
619.78	730.86
620.12	725.19
620.47	719.82
620.82	714.52
621.16	709.35
621.51	703.98
621.85	698.63
622.20	693.32
622.55	687.98
622.89	682.59
623.24	677.29
623.59	672.23
623.93	667.41
624.28	662.64
624.62	657.79
624.97	652.84
625.32	648.01
625.66	643.17
626.01	638.36
626.35	633.66
626.70	629.01
627.04	624.66
627.39	620.19
627.73	615.72
628.08	611.41
628.43	606.98
628.77	602.56
629.12	598.29
629.46	594.20
629.81	590.09
630.15	586.00
630.50	582.05
630.84	578.18
631.19	574.30
631.53	570.55
631.88	566.73
632.22	562.95
632.57	559.34
632.91	555.62
633.26	551.91
633.60	548.29
633.95	544.82
634.29	541.17
634.64	537.61
634.98	534.01
635.32	530.50
635.67	527.21
636.01	523.88
636.36	520.57
636.70	517.39
637.05	514.21
637.39	511.12
637.73	507.85
638.08	504.68
638.42	501.54
638.77	498.23
639.11	494.89
639.45	491.68
639.80	488.47
640.14	485.38
640.49	482.33
640.83	479.18
641.17	476.07
641.52	473.09
641.86	470.08
642.20	467.19
642.55	464.18
642.89	461.25
643.23	458.50
643.58	455.95
643.92	453.22
644.26	450.55
644.61	447.87
644.95	445.24
645.29	442.54
645.64	439.80
645.98	437.22
646.32	434.81
646.66	432.33
647.01	429.88
647.35	427.50
647.69	425.05
648.04	422.75
648.38	420.41
648.72	418.03
649.06	415.70
649.41	413.44
649.75	411.19
650.09	408.91
650.43	406.60
650.78	404.26
651.12	401.99
651.46	399.79
651.80	397.71
652.14	395.67
652.49	393.69
652.83	391.76
653.17	389.80
653.51	387.92
653.85	386.09
654.20	384.15
654.54	382.15
654.88	380.31
655.22	378.50
655.56	376.68
655.90	374.91
656.25	373.18
656.59	371.45
656.93	369.82
657.27	368.25
657.61	366.64
657.95	365.09
658.29	363.47
658.64	361.85
658.98	360.21
659.32	358.54
659.66	357.01
660.00	355.46
660.34	353.97
660.68	352.39
661.02	350.79
661.36	349.31
661.70	347.91
662.05	346.44
662.39	344.99
662.73	343.64
663.07	342.30
663.41	341.00
663.75	339.69
664.09	338.39
664.43	337.01
664.77	335.73
665.11	334.37
665.45	333.09
665.79	331.86
666.13	330.63
666.47	329.44
666.81	328.18
667.15	326.91
667.49	325.68
667.83	324.51
668.17	323.37
668.51	322.24
668.85	321.13
669.19	320.10
669.53	318.97
669.87	317.82
670.21	316.74
670.55	315.63
670.89	314.60
671.23	313.55
671.57	312.50
671.91	311.49
672.25	310.54
672.58	309.63
672.92	308.69
673.26	307.79
673.60	306.84
673.94	305.90
674.28	305.02
674.62	304.15
674.96	303.25
675.30	302.39
675.64	301.54
675.97	300.69
676.31	299.81
676.65	298.98
676.99	298.22
677.33	297.39
677.67	296.60
678.01	295.73
678.34	294.94
678.68	294.20
679.02	293.42
679.36	292.64
679.70	291.83
680.04	291.04
680.37	290.27
680.71	289.55
681.05	288.87
681.39	288.16
681.73	287.43
682.06	286.72
682.40	286.02
682.74	285.35
683.08	284.68
683.42	284.00
683.75	283.38
684.09	282.69
684.43	282.04
684.77	281.40
685.10	280.78
685.44	280.15
685.78	279.51
686.12	278.91
686.45	278.29
686.79	277.69
687.13	277.10
687.46	276.50
687.80	275.92
688.14	275.30
688.48	274.73
688.81	274.14
689.15	273.62
689.49	273.03
689.82	272.46
690.16	271.86
690.50	271.31
690.83	270.74
691.17	270.17
691.51	269.61
691.84	269.07
692.18	268.53
692.52	267.96
692.85	267.43
693.19	266.95
693.52	266.44
693.86	265.95
694.20	265.46
694.53	264.97
694.87	264.46
695.21	263.97
695.54	263.47
695.88	262.99
696.21	262.46
696.55	262.00
696.88	261.53
697.22	261.08
697.56	260.64
697.89	260.15
698.23	259.71
698.56	259.26
698.90	258.84
699.23	258.40
699.57	258.01
699.90	257.59
700.24	257.16
700.58	256.76
700.91	256.37
701.25	256.04
701.58	255.68
701.92	255.33
702.25	254.94
702.59	254.55
702.92	254.18
703.26	253.81
703.59	253.44
703.93	253.15
704.26	252.80
704.60	252.44
704.93	252.07
705.26	251.72
705.60	251.41
705.93	251.06
706.27	250.77
706.60	250.46
706.94	250.17
707.27	249.82
707.61	249.48
707.94	249.14
708.27	248.75
708.61	248.39
708.94	248.05
709.28	247.76
709.61	247.46
709.94	247.18
710.28	246.91
710.61	246.64
710.95	246.27
711.28	246.06
711.61	245.78
711.95	245.54
712.28	245.26
712.61	244.98
712.95	244.77
713.28	244.55
713.61	244.29
713.95	244.00
714.28	243.77
714.61	243.53
714.95	243.28
715.28	243.04
715.61	242.80
715.95	242.58
716.28	242.35
716.61	242.15
716.95	241.93
717.28	241.71
717.61	241.49
717.94	241.29
718.28	241.01
718.61	240.80
718.94	240.59
719.27	240.39
719.61	240.21
719.94	239.99
720.27	239.74
720.60	239.55
720.94	239.37
721.27	239.20
721.60	239.05
721.93	238.87
722.27	238.74
722.60	238.58
722.93	238.39
723.26	238.22
723.59	238.02
723.93	237.86
724.26	237.71
724.59	237.55
724.92	237.40
725.25	237.27
725.59	237.11
725.92	236.97
726.25	236.82
726.58	236.67
726.91	236.51
727.24	236.38
727.57	236.22
727.91	236.06
728.24	235.92
728.57	235.76
728.90	235.63
729.23	235.46
729.56	235.38
729.89	235.26
730.22	235.12
730.55	235.00
730.89	234.87
731.22	234.73
731.55	234.60
731.88	234.47
732.21	234.33
732.54	234.21
732.87	234.10
733.20	233.99
733.53	233.88
733.86	233.79
734.19	233.66
734.52	233.57
734.85	233.54
735.18	233.42
735.51	233.34
735.84	233.24
736.17	233.17
736.50	233.01
736.83	233.03
737.16	232.93
737.49	232.84
737.82	232.73
738.15	232.67
738.48	232.59
738.81	232.50
739.14	232.41
739.47	232.32
739.80	232.21
740.13	232.12
740.46	232.02
740.79	231.91
741.12	231.83
741.45	231.72
741.78	231.58
742.11	231.51
742.44	231.41
742.77	231.33
743.10	231.22
743.43	231.13
743.75	230.93
744.08	231.01
744.41	230.91
744.74	230.83
745.07	230.72
745.40	230.66
745.73	230.62
746.06	230.56
746.39	230.50
746.71	230.42
747.04	230.34
747.37	230.27
747.70	230.21
748.03	230.14
748.36	230.09
748.68	230.02
749.01	229.92
749.34	229.85
749.67	229.79
750.00	229.75
750.33	229.77
750.65	229.72
750.98	229.50
751.31	229.45
751.64	229.39
751.97	229.37
752.29	229.29
752.62	229.19
752.95	229.10
753.28	229.03
753.60	228.97
753.93	228.92
754.26	228.88
754.59	228.78
754.91	228.70
755.24	228.63
755.57	228.62
755.90	228.56
756.22	228.49
756.55	228.41
756.88	228.33
757.20	228.21
757.53	228.13
757.86	228.07
758.19	228.02
758.51	227.97
758.84	227.87
759.17	227.80
759.49	227.76
759.82	227.77
760.15	227.73
760.47	227.69
760.80	227.61
761.13	227.57
761.45	227.54
761.78	227.51
762.11	227.47
762.43	227.37
762.76	227.33
763.08	227.30
763.41	227.25
763.74	227.22
764.06	227.18
764.39	227.15
764.71	227.10
765.04	227.06
765.37	227.01
765.69	226.97
766.02	226.94
766.34	226.89
766.67	226.81
767.00	226.78
767.32	226.80
767.65	226.82
767.97	226.78
768.30	226.75
768.62	226.71
768.95	226.66
769.27	226.62
769.60	226.59
769.92	226.54
770.25	226.49
770.57	226.44
770.90	226.39
771.22	226.35
771.55	226.32
771.87	226.29
772.20	226.26
772.52	226.32
772.85	226.41
773.17	226.38
773.50	226.34
773.82	226.29
774.15	226.21
774.47	226.12
774.80	226.08
775.12	226.06
775.45	226.02
775.77	226.01
776.09	226.00
776.42	225.96
776.74	225.98
777.07	225.96
777.39	225.94
777.72	225.91
778.04	225.90
778.36	225.87
778.69	225.85
779.01	225.83
779.33	225.72
779.66	225.58
779.98	225.55
780.31	225.55
780.63	225.58
780.95	225.58
781.28	225.57
781.60	225.55
781.92	225.52
782.25	225.51
782.57	225.49
782.89	225.46
783.22	225.44
783.54	225.40
783.86	225.39
784.19	225.36
784.51	225.39
784.83	225.36
785.16	225.33
785.48	225.32
785.80	225.31
786.12	225.31
786.45	225.29
786.77	225.28
787.09	225.26
787.42	225.20
787.74	225.18
788.06	225.16
788.38	225.14
788.71	225.12
789.03	225.12
789.35	225.11
789.67	225.09
789.99	225.08
790.32	225.05
790.64	225.05
790.96	225.13
791.28	225.09
791.61	225.07
791.93	225.06
792.25	225.04
792.57	225.09
792.89	225.05
793.21	225.05
793.54	225.02
793.86	224.99
794.18	224.98
794.50	224.94
794.82	224.94
795.14	224.94
795.47	224.94
795.79	224.93
796.11	224.89
796.43	224.87
796.75	224.85
797.07	224.85
797.39	224.83
797.71	224.73
798.04	224.72
798.36	224.72
798.68	224.71
799.00	224.71
799.32	224.65
799.64	224.66
799.96	224.64
800.28	224.66
800.60	224.64
800.92	224.64
801.24	224.63
801.56	224.62
801.89	224.59
802.21	224.58
802.53	224.56
802.85	224.58
803.17	224.62
803.49	224.59
803.81	224.57
804.13	224.55
804.45	224.53
804.77	224.53
805.09	224.52
805.41	224.49
805.73	224.46
806.05	224.42
806.37	224.40
806.69	224.39
807.01	224.37
807.33	224.37
807.65	224.32
807.97	224.36
808.28	224.33
808.60	224.32
808.92	224.30
809.24	224.35
809.56	224.33
809.88	224.28
810.20	224.28
810.52	224.30
810.84	224.27
811.16	224.26
811.48	224.24
811.80	224.27
812.12	224.26
812.43	224.28
812.75	224.28
813.07	224.27
813.39	224.27
813.71	224.24
814.03	224.23
814.35	224.25
814.67	224.19
814.98	224.18
815.30	224.18
815.62	224.16
815.94	224.10
816.26	224.10
816.58	224.07
816.89	224.08
817.21	224.05
817.53	224.06
817.85	224.06
818.17	224.05
818.48	224.01
818.80	224.02
819.12	223.99
819.44	223.96
819.76	223.94
820.07	223.93
820.39	223.93
820.71	223.93
821.03	223.92
821.34	223.92
821.66	223.93
821.98	223.94
822.30	223.93
822.61	223.99
822.93	223.97
823.25	223.98
823.57	223.97
823.88	223.99
824.20	223.98
824.52	223.99
824.83	223.99
825.15	223.97
825.47	223.96
825.79	223.97
826.10	223.97
826.42	223.97
826.74	223.98
827.05	223.97
827.37	223.97
827.69	223.96
828.00	223.97
828.32	223.96
828.64	223.93
828.95	223.99
829.27	223.94
829.58	223.94
829.90	223.95
830.22	223.96
830.53	223.93
830.85	223.91
831.17	223.88
831.48	223.88
831.80	223.88
832.11	223.87
832.43	223.85
832.75	223.85
833.06	223.90
833.38	223.88
833.69	223.87
834.01	223.86
834.32	223.85
834.64	223.84
834.96	223.83
835.27	223.83
835.59	223.79
835.90	223.78
836.22	223.76
836.53	223.73
836.85	223.71
837.16	223.82
837.48	223.82
837.79	223.85
838.11	223.85
838.42	223.85
838.74	223.87
839.05	223.85
839.37	223.84
839.68	223.77
840.00	223.77
840.31	223.78
840.63	223.77
840.94	223.76
841.26	223.75
841.57	223.74
841.88	223.74
842.20	223.73
842.51	223.71
842.83	223.72
843.14	223.81
843.46	223.81
843.77	223.74
844.08	223.74
844.40	223.70
844.71	223.68
845.03	223.67
845.34	223.66
845.65	223.65
845.97	223.65
846.28	223.66
846.60	223.67
846.91	223.65
847.22	223.65
847.54	223.67
847.85	223.68
848.16	223.67
848.48	223.65
848.79	223.69
849.10	223.70
849.42	223.71
849.73	223.62
850.04	223.62
850.36	223.58
850.67	223.59
850.98	223.59
851.30	223.60
851.61	223.60
851.92	223.59
852.23	223.63
852.55	223.63
852.86	223.63
853.17	223.64
853.49	223.67
853.80	223.68
854.11	223.70
854.42	223.70
854.74	223.70
855.05	223.70
855.36	223.64
855.67	223.64
855.99	223.63
856.30	223.75
856.61	223.75
856.92	223.75
857.23	223.75
857.55	223.75
857.86	223.75
858.17	223.75
858.48	223.74
858.79	223.72
859.11	223.72
859.42	223.72
859.73	223.70
860.04	223.69
860.35	223.66
860.66	223.62
860.98	223.62
861.29	223.64
861.60	223.63
861.91	223.66
862.22	223.64
862.53	223.63
862.84	223.51
863.16	223.52
863.47	223.50
863.78	223.48
864.09	223.49
864.40	223.50
864.71	223.51
865.02	223.52
865.33	223.50
865.64	223.48
865.95	223.47
866.27	223.54
866.58	223.52
866.89	223.52
867.20	223.52
867.51	223.50
867.82	223.49
868.13	223.52
868.44	223.50
868.75	223.52
869.06	223.52
869.37	223.53
869.68	223.50
869.99	223.53
870.30	223.53
870.61	223.54
870.92	223.51
871.23	223.50
871.54	223.51
871.85	223.53
872.16	223.54
872.47	223.54
872.78	223.48
873.09	223.48
873.40	223.48
873.71	223.49
874.02	223.49
874.33	223.47
874.64	223.45
874.95	223.45
875.26	223.44
875.56	223.44
875.87	223.44
876.18	223.43
876.49	223.53
876.80	223.52
877.11	223.50
877.42	223.50
877.73	223.51
878.04	223.49
878.35	223.49
878.66	223.48
878.96	223.47
879.27	223.47
879.58	223.47
879.89	223.47
880.20	223.49
880.51	223.48
880.82	223.48
881.12	223.48
881.43	223.47
881.74	223.45
882.05	223.44
882.36	223.44
882.67	223.45
882.97	223.33
883.28	223.32
883.59	223.31
883.90	223.32
884.21	223.34
884.51	223.34
884.82	223.32
885.13	223.33
885.44	223.33
885.74	223.33
886.05	223.32
886.36	223.32
886.67	223.28
886.98	223.34
887.28	223.35
887.59	223.35
887.90	223.35
888.20	223.35
888.51	223.37
888.82	223.35
889.13	223.35
889.43	223.44
889.74	223.44
890.05	223.44
890.35	223.43
890.66	223.40
890.97	223.40
891.28	223.39
891.58	223.39
891.89	223.38
892.20	223.37
892.50	223.36
892.81	223.36
893.12	223.35
893.42	223.30
893.73	223.30
894.04	223.29
894.34	223.31
894.65	223.31
894.95	223.30
895.26	223.31
895.57	223.36
895.87	223.26
896.18	223.27
896.48	223.27
896.79	223.27
897.10	223.29
897.40	223.30
897.71	223.31
898.01	223.30
898.32	223.30
898.63	223.29
898.93	223.30
899.24	223.30
899.54	223.29
899.85	223.29
900.15	223.29
900.46	223.28
900.76	223.29
901.07	223.30
901.38	223.29
901.68	223.30
901.99	223.24
902.29	223.24
902.60	223.24
902.90	223.23
903.21	223.23
903.51	223.23
903.82	223.24
904.12	223.23
904.43	223.23
904.73	223.23
905.03	223.23
905.34	223.34
905.64	223.34
905.95	223.35
906.25	223.34
906.56	223.34
906.86	223.34
907.17	223.32
907.47	223.32
907.77	223.31
908.08	223.28
908.38	223.30
908.69	223.31
908.99	223.32
909.30	223.34
909.60	223.33
909.90	223.33
910.21	223.31
910.51	223.29
910.81	223.29
911.12	223.29
911.42	223.29
911.73	223.17
912.03	223.18
912.33	223.19
912.64	223.18
912.94	223.16
913.24	223.15
913.55	223.15
913.85	223.14
914.15	223.16
914.46	223.18
914.76	223.17
915.06	223.16
915.37	223.14
915.67	223.12
915.97	223.13
916.27	223.11
916.58	223.12
916.88	223.12
917.18	223.12
917.49	223.19
917.79	223.19
918.09	223.21
918.39	223.24
918.70	223.23
919.00	223.24
919.30	223.29
919.60	223.29
919.91	223.28
920.21	223.28
920.51	223.26
920.81	223.25
921.12	223.26
921.42	223.26
921.72	223.28
922.02	223.28
922.32	223.29
922.63	223.29
922.93	223.34
923.23	223.35
923.53	223.35
923.83	223.29
924.13	223.30
924.44	223.31
924.74	223.31
925.04	223.33
925.34	223.33
925.64	223.29
925.94	223.30
926.24	223.35
926.55	223.34
926.85	223.36
927.15	223.36
927.45	223.36
927.75	223.36
928.05	223.35
928.35	223.35
928.65	223.37
928.95	223.38
929.26	223.33
929.56	223.34
929.86	223.36
930.16	223.36
930.46	223.35
930.76	223.36
931.06	223.32
931.36	223.29
931.66	223.31
931.96	223.32
932.26	223.32
932.56	223.28
932.86	223.29
933.16	223.29
933.46	223.28
933.76	223.26
934.06	223.29
934.36	223.32
934.66	223.32
934.96	223.30
935.26	223.31
935.56	223.33
935.86	223.30
936.16	223.27
936.46	223.25
936.76	223.24
937.06	223.22
937.36	223.22
937.66	223.23
937.96	223.21
938.26	223.19
938.56	223.19
938.86	223.19
939.16	223.21
939.46	223.23
939.76	223.23
940.06	223.24
940.35	223.23
940.65	223.19
940.95	223.20
941.25	223.18
941.55	223.16
941.85	223.15
942.15	223.18
942.45	223.20
942.75	223.21
943.04	223.21
943.34	223.23
943.64	223.21
943.94	223.20
944.24	223.21
944.54	223.21
944.84	223.20
945.13	223.19
945.43	223.16
945.73	223.16
946.03	223.14
946.33	223.13
946.62	223.11
946.92	223.10
947.22	223.10
947.52	223.11
947.82	223.12
948.11	223.11
948.41	223.08
948.71	223.05
949.01	223.06
949.31	223.04
949.60	223.05
949.90	223.06
950.20	223.06
950.50	223.05
950.79	223.04
951.09	223.05
951.39	223.05
951.69	223.04
951.98	223.05
952.28	223.06
952.58	223.05
952.87	223.06
953.17	223.07
953.47	223.07
953.76	223.06
954.06	223.04
954.36	223.04
954.66	223.04
954.95	223.07
955.25	223.08
955.55	223.09
955.84	223.07
956.14	223.08
956.44	223.09
956.73	223.08
957.03	223.09
957.32	223.09
957.62	223.09
957.92	223.11
958.21	223.11
958.51	223.23
958.81	223.25
959.10	223.25
959.40	223.27
959.69	223.28
959.99	223.30
960.29	223.31
960.58	223.32
960.88	223.35
961.17	223.33
961.47	223.34
961.76	223.32
962.06	223.35
962.36	223.34
962.65	223.33
962.95	223.35
963.24	223.34
963.54	223.33
963.83	223.34
964.13	223.33
964.42	223.31
964.72	223.23
965.01	223.22
965.31	223.22
965.60	223.19
965.90	223.25
966.19	223.22
966.49	223.22
966.78	223.21
967.08	223.20
967.37	223.20
967.67	223.19
967.96	223.21
968.26	223.20
968.55	223.21
968.85	223.21
969.14	223.21
969.43	223.22
969.73	223.20
970.02	223.20
970.32	223.20
970.61	223.19
970.91	223.15
971.20	223.14
971.49	223.13
971.79	223.13
972.08	223.06
972.38	223.07
972.67	223.07
972.96	223.08
973.26	223.06
973.55	223.10
973.85	223.08
974.14	223.08
974.43	223.09
974.73	223.07
975.02	223.07
975.31	223.06
975.61	223.06
975.90	223.05
976.19	223.04
976.49	223.04
976.78	223.06
977.07	223.07
977.37	223.07
977.66	223.08
977.95	223.07
978.24	223.07
978.54	223.10
978.83	223.09
979.12	223.08
979.42	223.08
979.71	223.05
980.00	223.05
980.29	223.05
980.59	223.03
980.88	223.06
981.17	223.06
981.46	223.06
981.76	223.05
982.05	223.09
982.34	223.09
982.63	223.09
982.93	223.08
983.22	223.10
983.51	223.11
983.80	223.12
984.09	223.13
984.39	223.13
984.68	223.11
984.97	223.11
985.26	223.10
985.55	223.12
985.85	223.10
986.14	223.12
986.43	223.13
986.72	223.13
987.01	223.10
987.30	223.09
987.59	223.09
987.89	223.09
988.18	223.06
988.47	223.05
988.76	223.04
989.05	223.03
989.34	223.02
989.63	223.03
989.92	223.03
990.22	223.01
990.51	223.01
990.80	223.00
991.09	223.01
991.38	223.03
991.67	223.02
991.96	223.02
992.25	223.03
992.54	223.01
992.83	223.00
993.12	223.00
993.41	223.01
993.70	223.05
993.99	223.07
994.28	223.09
994.58	223.11
994.87	223.10
995.16	223.11
995.45	223.10
995.74	223.06
996.03	223.08
996.32	223.09
996.61	223.11
996.90	223.11
997.19	223.09
997.48	223.10
997.77	223.08
998.06	223.08
998.34	223.07
998.63	223.07
998.92	223.08
999.21	223.10
999.50	223.10
999.79	223.07
1000.08	223.06
1000.37	223.06
1000.66	223.04
1000.95	223.06
1001.24	223.07
1001.53	223.09
1001.82	223.09
1002.11	223.07
1002.40	223.09
1002.68	223.11
1002.97	223.17
1003.26	223.17
1003.55	223.15
1003.84	223.16
1004.13	223.19
1004.42	223.18
1004.71	223.18
1004.99	223.17
1005.28	223.19
1005.57	223.18
1005.86	223.17
1006.15	223.16
1006.44	223.14
1006.72	223.16
1007.01	223.14
1007.30	223.13
1007.59	223.13
1007.88	223.12
1008.17	223.11
1008.45	223.09
1008.74	223.04
1009.03	222.99
1009.32	222.99
1009.60	223.00
1009.89	222.99
1010.18	222.95
1010.47	222.95
1010.76	222.94
1011.04	222.94
1011.33	222.93
1011.62	222.94
1011.91	222.94
1012.19	222.95
1012.48	222.96
1012.77	222.95
1013.05	222.99
1013.34	222.99
1013.63	222.98
1013.92	223.00
1014.20	222.99
1014.49	222.99
1014.78	223.02
1015.06	222.99
1015.35	222.98
1015.64	222.98
1015.92	223.01
1016.21	223.01
1016.50	223.01
1016.78	223.02
1017.07	223.04
1017.36	223.02
1017.64	223.01
1017.93	223.01
1018.22	223.00
1018.50	222.99
1018.79	222.98
1019.08	222.95
1019.36	222.96
1019.65	222.95
1019.93	222.98
1020.22	222.99
1020.51	223.04
1020.79	223.02
1021.08	222.89
1021.36	222.67
1021.65	222.94
1021.94	222.98
1022.22	223.07
1022.51	222.77
1022.79	223.55
1023.08	223.09
1023.36	224.13
1023.65	222.70
>>>>>End Processed Spectral Data<<<<<
