SpectraSuite Data File
++++++++++++++++++++++++++++++++++++
Date: Wed Sep 30 17:47:56 EDT 2015
User: lab3
Dark Spectrum Present: No
Reference Spectrum Present: No
Number of Sampled Component Spectra: 1
Spectrometers: USB2E7196
Integration Time (usec): 36000 (USB2E7196)
Spectra Averaged: 3000 (USB2E7196)
Boxcar Smoothing: 10 (USB2E7196)
Correct for Electrical Dark: No (USB2E7196)
Strobe/Lamp Enabled: No (USB2E7196)
Correct for Detector Non-linearity: No (USB2E7196)
Correct for Stray Light: No (USB2E7196)
Number of Pixels in Processed Spectrum: 2048
>>>>>Begin Processed Spectral Data<<<<<
339.09	0.00
339.48	211.02
339.86	212.51
340.24	213.86
340.63	215.28
341.01	218.16
341.39	217.93
341.78	219.34
342.16	220.43
342.54	220.95
342.93	209.54
343.31	220.13
343.69	220.66
344.07	221.12
344.46	221.55
344.84	221.93
345.22	222.17
345.60	222.43
345.99	222.61
346.37	222.75
346.75	222.86
347.13	222.92
347.52	223.00
347.90	223.07
348.28	223.11
348.66	223.16
349.05	223.16
349.43	223.21
349.81	223.26
350.19	223.31
350.57	223.38
350.96	223.45
351.34	223.54
351.72	223.63
352.10	223.74
352.48	223.82
352.87	223.87
353.25	223.94
353.63	224.00
354.01	224.07
354.39	224.14
354.77	224.22
355.15	224.32
355.54	224.37
355.92	224.41
356.30	224.48
356.68	224.62
357.06	224.69
357.44	224.74
357.82	224.80
358.20	224.92
358.58	224.97
358.97	225.04
359.35	225.12
359.73	225.19
360.11	225.25
360.49	225.31
360.87	225.36
361.25	225.41
361.63	225.49
362.01	225.54
362.39	225.58
362.77	225.62
363.15	225.65
363.53	225.68
363.91	225.71
364.29	225.74
364.67	225.66
365.05	225.68
365.43	225.71
365.81	225.74
366.19	225.76
366.57	225.81
366.95	225.81
367.33	225.79
367.71	225.78
368.09	225.80
368.47	225.79
368.85	225.79
369.23	225.80
369.61	225.75
369.99	225.76
370.37	225.75
370.75	225.82
371.13	225.79
371.51	225.75
371.89	225.73
372.27	225.70
372.65	225.68
373.03	225.65
373.41	225.61
373.78	225.55
374.16	225.46
374.54	225.39
374.92	225.34
375.30	225.29
375.68	225.23
376.06	225.18
376.44	225.12
376.82	225.08
377.19	225.03
377.57	224.98
377.95	224.89
378.33	224.83
378.71	224.68
379.09	224.63
379.47	224.60
379.84	224.55
380.22	224.49
380.60	224.43
380.98	224.37
381.36	224.32
381.73	224.26
382.11	224.23
382.49	224.19
382.87	224.12
383.25	224.07
383.62	224.15
384.00	224.09
384.38	224.04
384.76	224.02
385.13	224.00
385.51	223.96
385.89	223.91
386.27	223.87
386.64	223.85
387.02	223.80
387.40	223.76
387.78	223.72
388.15	223.69
388.53	223.66
388.91	223.64
389.29	223.60
389.66	223.59
390.04	223.56
390.42	223.55
390.79	223.55
391.17	223.52
391.55	223.40
391.92	223.38
392.30	223.38
392.68	223.34
393.05	223.33
393.43	223.33
393.81	223.33
394.18	223.31
394.56	223.31
394.94	223.33
395.31	223.33
395.69	223.37
396.06	223.39
396.44	223.41
396.82	223.42
397.19	223.50
397.57	223.50
397.95	223.54
398.32	223.54
398.70	223.57
399.07	223.63
399.45	223.66
399.82	223.70
400.20	223.73
400.58	223.78
400.95	223.80
401.33	223.86
401.70	224.00
402.08	224.09
402.45	224.16
402.83	224.27
403.20	224.36
403.58	224.44
403.95	224.56
404.33	224.68
404.71	224.80
405.08	224.97
405.46	225.12
405.83	225.28
406.21	225.44
406.58	225.62
406.96	225.80
407.33	226.02
407.70	226.25
408.08	226.57
408.45	226.85
408.83	227.14
409.20	227.43
409.58	227.67
409.95	228.01
410.33	228.37
410.70	228.70
411.08	229.11
411.45	229.53
411.82	229.97
412.20	230.46
412.57	231.05
412.95	231.51
413.32	232.11
413.69	232.73
414.07	233.39
414.44	234.10
414.82	234.84
415.19	235.69
415.56	236.56
415.94	237.45
416.31	238.46
416.68	239.47
417.06	240.64
417.43	241.74
417.81	243.01
418.18	244.31
418.55	245.73
418.93	247.20
419.30	248.74
419.67	250.38
420.04	252.06
420.42	253.82
420.79	255.85
421.16	257.91
421.54	259.99
421.91	262.17
422.28	264.44
422.66	266.88
423.03	269.21
423.40	271.66
423.77	274.29
424.15	276.98
424.52	279.79
424.89	282.81
425.26	285.82
425.64	288.62
426.01	291.77
426.38	295.00
426.75	298.31
427.13	301.72
427.50	305.28
427.87	308.98
428.24	312.72
428.61	316.30
428.99	320.17
429.36	324.41
429.73	328.46
430.10	332.51
430.47	336.64
430.85	340.89
431.22	345.42
431.59	350.08
431.96	354.62
432.33	359.64
432.70	364.42
433.08	370.06
433.45	375.39
433.82	380.62
434.19	386.45
434.56	392.20
434.93	397.74
435.30	403.21
435.68	409.37
436.05	415.40
436.42	421.43
436.79	426.91
437.16	432.82
437.53	439.17
437.90	445.50
438.27	451.68
438.64	458.39
439.01	464.43
439.38	469.95
439.75	475.27
440.13	481.34
440.50	487.11
440.87	491.64
441.24	496.63
441.61	502.13
441.98	506.16
442.35	510.94
442.72	515.84
443.09	520.52
443.46	523.52
443.83	525.72
444.20	527.57
444.57	530.30
444.94	531.90
445.31	533.53
445.68	534.98
446.05	536.05
446.42	535.81
446.79	535.50
447.16	535.23
447.53	534.99
447.90	533.14
448.27	531.43
448.64	528.74
449.01	526.94
449.37	523.08
449.74	519.56
450.11	515.06
450.48	510.10
450.85	505.13
451.22	500.90
451.59	496.76
451.96	492.98
452.33	487.48
452.70	482.60
453.07	476.65
453.43	470.69
453.80	464.93
454.17	459.40
454.54	454.26
454.91	448.48
455.28	443.05
455.65	437.91
456.02	432.44
456.38	428.04
456.75	422.35
457.12	417.77
457.49	413.17
457.86	408.76
458.23	404.90
458.59	400.65
458.96	396.28
459.33	392.43
459.70	388.52
460.07	385.52
460.43	381.99
460.80	378.70
461.17	375.79
461.54	372.67
461.91	369.74
462.27	366.76
462.64	364.33
463.01	361.52
463.38	358.70
463.74	356.14
464.11	353.86
464.48	351.80
464.85	349.60
465.21	347.91
465.58	346.05
465.95	343.90
466.32	342.18
466.68	340.49
467.05	338.80
467.42	337.16
467.78	335.40
468.15	333.77
468.52	332.54
468.88	330.95
469.25	329.48
469.62	328.32
469.98	327.07
470.35	325.95
470.72	324.94
471.08	323.91
471.45	323.06
471.82	322.13
472.18	321.15
472.55	320.52
472.92	319.74
473.28	319.12
473.65	318.49
474.02	317.89
474.38	317.40
474.75	317.12
475.11	316.70
475.48	316.55
475.85	316.40
476.21	316.35
476.58	316.35
476.94	316.54
477.31	316.65
477.67	316.79
478.04	317.04
478.41	317.36
478.77	317.82
479.14	318.15
479.50	318.70
479.87	319.38
480.23	320.05
480.60	320.71
480.96	321.39
481.33	322.33
481.69	323.26
482.06	324.19
482.42	325.07
482.79	326.13
483.15	327.34
483.52	328.69
483.88	330.00
484.25	331.39
484.61	332.84
484.98	334.42
485.34	336.16
485.71	337.98
486.07	339.93
486.44	341.84
486.80	343.99
487.17	346.18
487.53	348.61
487.90	351.13
488.26	353.85
488.62	356.72
488.99	359.60
489.35	362.62
489.72	365.87
490.08	369.29
490.44	372.79
490.81	376.48
491.17	380.25
491.54	384.29
491.90	388.42
492.26	392.86
492.63	397.54
492.99	402.41
493.36	407.41
493.72	412.67
494.08	418.07
494.45	423.77
494.81	429.67
495.17	435.68
495.54	442.04
495.90	448.72
496.26	455.55
496.63	462.61
496.99	469.96
497.35	477.68
497.72	485.67
498.08	493.83
498.44	502.23
498.80	511.17
499.17	520.34
499.53	529.83
499.89	539.55
500.26	549.47
500.62	559.66
500.98	570.51
501.34	581.49
501.71	593.01
502.07	604.75
502.43	616.90
502.79	629.38
503.16	642.29
503.52	655.35
503.88	668.75
504.24	682.61
504.60	696.73
504.97	711.24
505.33	726.15
505.69	741.96
506.05	757.96
506.41	774.02
506.78	790.37
507.14	807.21
507.50	824.61
507.86	842.39
508.22	860.45
508.59	878.54
508.95	897.38
509.31	916.66
509.67	936.62
510.03	956.81
510.39	977.22
510.75	997.83
511.12	1018.74
511.48	1039.94
511.84	1061.36
512.20	1083.07
512.56	1105.90
512.92	1128.87
513.28	1151.54
513.64	1174.61
514.00	1198.09
514.37	1221.87
514.73	1245.70
515.09	1269.37
515.45	1293.45
515.81	1318.12
516.17	1342.84
516.53	1367.28
516.89	1391.81
517.25	1416.54
517.61	1441.47
517.97	1466.63
518.33	1491.60
518.69	1516.74
519.05	1542.21
519.41	1567.73
519.77	1593.54
520.13	1618.63
520.49	1643.91
520.85	1669.46
521.21	1694.83
521.57	1720.81
521.93	1746.11
522.29	1772.19
522.65	1798.09
523.01	1823.84
523.37	1848.73
523.73	1874.41
524.09	1900.29
524.45	1925.96
524.81	1951.17
525.17	1976.25
525.53	2000.98
525.89	2025.68
526.25	2050.60
526.61	2074.93
526.97	2099.58
527.33	2124.18
527.68	2148.51
528.04	2172.20
528.40	2195.68
528.76	2219.42
529.12	2242.08
529.48	2265.25
529.84	2286.61
530.20	2308.37
530.56	2329.80
530.91	2351.43
531.27	2372.45
531.63	2392.81
531.99	2412.75
532.35	2432.56
532.71	2452.52
533.07	2472.96
533.42	2491.93
533.78	2511.19
534.14	2530.47
534.50	2548.91
534.86	2567.99
535.21	2585.35
535.57	2602.41
535.93	2618.84
536.29	2633.89
536.65	2649.83
537.00	2664.61
537.36	2680.08
537.72	2694.58
538.08	2708.75
538.44	2721.75
538.79	2735.04
539.15	2746.54
539.51	2757.86
539.87	2768.58
540.22	2777.05
540.58	2785.86
540.94	2795.13
541.29	2803.05
541.65	2810.03
542.01	2816.47
542.37	2820.98
542.72	2827.44
543.08	2833.33
543.44	2839.00
543.79	2844.20
544.15	2848.33
544.51	2852.42
544.87	2855.47
545.22	2858.24
545.58	2859.93
545.94	2862.15
546.29	2862.88
546.65	2863.57
547.01	2864.61
547.36	2865.67
547.72	2867.13
548.07	2866.94
548.43	2866.19
548.79	2864.73
549.14	2863.09
549.50	2862.22
549.86	2860.23
550.21	2856.01
550.57	2852.28
550.92	2847.18
551.28	2842.55
551.64	2837.92
551.99	2833.53
552.35	2828.87
552.70	2823.62
553.06	2819.04
553.41	2813.94
553.77	2808.12
554.13	2803.32
554.48	2797.24
554.84	2789.82
555.19	2782.41
555.55	2774.41
555.90	2766.96
556.26	2760.56
556.61	2753.56
556.97	2744.32
557.32	2736.29
557.68	2728.25
558.03	2719.65
558.39	2711.81
558.74	2703.99
559.10	2695.17
559.45	2685.88
559.81	2676.69
560.16	2666.96
560.52	2656.96
560.87	2647.97
561.23	2638.53
561.58	2628.64
561.94	2618.62
562.29	2607.95
562.64	2597.85
563.00	2588.05
563.35	2578.05
563.71	2566.94
564.06	2555.64
564.42	2545.19
564.77	2534.34
565.12	2523.58
565.48	2512.59
565.83	2502.26
566.19	2492.03
566.54	2481.11
566.89	2469.52
567.25	2458.02
567.60	2447.24
567.96	2435.97
568.31	2423.38
568.66	2410.92
569.02	2399.34
569.37	2387.54
569.72	2376.32
570.08	2364.31
570.43	2351.68
570.78	2338.72
571.14	2325.88
571.49	2313.56
571.84	2301.50
572.20	2288.15
572.55	2275.35
572.90	2262.30
573.26	2248.27
573.61	2233.69
573.96	2219.50
574.31	2205.54
574.67	2191.81
575.02	2177.59
575.37	2163.01
575.72	2148.66
576.08	2134.71
576.43	2119.68
576.78	2104.78
577.13	2090.62
577.49	2076.60
577.84	2063.07
578.19	2048.68
578.54	2033.82
578.90	2018.45
579.25	2002.84
579.60	1988.76
579.95	1974.23
580.30	1959.76
580.66	1945.56
581.01	1930.90
581.36	1916.66
581.71	1903.07
582.06	1888.87
582.42	1874.96
582.77	1861.61
583.12	1847.76
583.47	1834.15
583.82	1820.66
584.17	1807.00
584.53	1793.20
584.88	1779.44
585.23	1765.25
585.58	1751.66
585.93	1738.36
586.28	1725.94
586.63	1713.27
586.98	1699.75
587.34	1686.49
587.69	1672.86
588.04	1659.53
588.39	1646.80
588.74	1633.44
589.09	1619.92
589.44	1606.42
589.79	1593.30
590.14	1580.20
590.49	1567.31
590.84	1554.25
591.19	1541.77
591.54	1528.84
591.89	1515.79
592.25	1502.98
592.60	1489.86
592.95	1477.27
593.30	1465.08
593.65	1452.67
594.00	1440.55
594.35	1429.09
594.70	1416.79
595.05	1405.46
595.40	1393.86
595.75	1381.78
596.10	1370.59
596.45	1359.62
596.80	1349.06
597.15	1338.34
597.50	1327.52
597.85	1316.98
598.19	1306.61
598.54	1295.72
598.89	1285.55
599.24	1275.56
599.59	1265.45
599.94	1256.34
600.29	1247.09
600.64	1237.59
600.99	1227.40
601.34	1217.75
601.69	1207.60
602.04	1198.60
602.39	1189.50
602.74	1180.66
603.08	1172.03
603.43	1162.90
603.78	1153.59
604.13	1144.40
604.48	1135.15
604.83	1126.18
605.18	1117.13
605.53	1107.97
605.87	1098.90
606.22	1090.08
606.57	1081.09
606.92	1072.09
607.27	1062.92
607.62	1053.87
607.96	1045.06
608.31	1037.39
608.66	1029.22
609.01	1021.45
609.36	1013.55
609.70	1005.38
610.05	997.11
610.40	989.19
610.75	981.33
611.10	973.72
611.44	965.79
611.79	958.14
612.14	950.10
612.49	942.25
612.83	934.89
613.18	927.58
613.53	920.13
613.88	912.80
614.22	906.11
614.57	899.19
614.92	892.24
615.27	885.30
615.61	878.15
615.96	871.26
616.31	864.28
616.65	857.25
617.00	850.48
617.35	843.80
617.70	837.16
618.04	830.64
618.39	824.12
618.74	817.95
619.08	811.59
619.43	805.50
619.78	799.35
620.12	793.06
620.47	786.99
620.82	780.99
621.16	775.27
621.51	769.18
621.85	763.10
622.20	757.10
622.55	751.27
622.89	745.34
623.24	739.48
623.59	733.73
623.93	728.02
624.28	722.49
624.62	716.90
624.97	711.30
625.32	705.82
625.66	700.22
626.01	694.58
626.35	689.10
626.70	683.67
627.04	678.48
627.39	673.33
627.73	668.28
628.08	663.43
628.43	658.41
628.77	653.45
629.12	648.67
629.46	644.08
629.81	639.28
630.15	634.45
630.50	629.75
630.84	625.24
631.19	620.90
631.53	616.56
631.88	612.16
632.22	607.85
632.57	603.76
632.91	599.60
633.26	595.54
633.60	591.59
633.95	587.79
634.29	583.80
634.64	579.75
634.98	575.60
635.32	571.62
635.67	567.81
636.01	563.97
636.36	560.14
636.70	556.45
637.05	552.77
637.39	549.25
637.73	545.60
638.08	542.03
638.42	538.44
638.77	534.73
639.11	530.95
639.45	527.25
639.80	523.57
640.14	520.06
640.49	516.52
640.83	512.84
641.17	509.22
641.52	505.74
641.86	502.28
642.20	499.02
642.55	495.60
642.89	492.25
643.23	489.10
643.58	486.21
643.92	483.17
644.26	480.17
644.61	477.15
644.95	474.14
645.29	471.05
645.64	467.95
645.98	465.00
646.32	462.27
646.66	459.51
647.01	456.70
647.35	453.97
647.69	451.11
648.04	448.42
648.38	445.73
648.72	443.00
649.06	440.37
649.41	437.77
649.75	435.16
650.09	432.58
650.43	430.00
650.78	427.37
651.12	424.74
651.46	422.24
651.80	419.82
652.14	417.49
652.49	415.18
652.83	412.93
653.17	410.64
653.51	408.41
653.85	406.28
654.20	404.08
654.54	401.80
654.88	399.71
655.22	397.66
655.56	395.59
655.90	393.63
656.25	391.66
656.59	389.69
656.93	387.82
657.27	385.99
657.61	384.07
657.95	382.22
658.29	380.38
658.64	378.54
658.98	376.69
659.32	374.87
659.66	373.16
660.00	371.44
660.34	369.79
660.68	368.06
661.02	366.27
661.36	364.62
661.70	363.02
662.05	361.39
662.39	359.76
662.73	358.22
663.07	356.69
663.41	355.21
663.75	353.75
664.09	352.29
664.43	350.75
664.77	349.31
665.11	347.81
665.45	346.40
665.79	344.99
666.13	343.56
666.47	342.13
666.81	340.67
667.15	339.19
667.49	337.78
667.83	336.44
668.17	335.14
668.51	333.85
668.85	332.59
669.19	331.41
669.53	330.15
669.87	328.85
670.21	327.60
670.55	326.35
670.89	325.18
671.23	323.98
671.57	322.78
671.91	321.65
672.25	320.58
672.58	319.48
672.92	318.37
673.26	317.33
673.60	316.31
673.94	315.26
674.28	314.27
674.62	313.28
674.96	312.25
675.30	311.29
675.64	310.31
675.97	309.34
676.31	308.33
676.65	307.36
676.99	306.46
677.33	305.51
677.67	304.60
678.01	303.61
678.34	302.69
678.68	301.84
679.02	300.94
679.36	300.06
679.70	299.19
680.04	298.34
680.37	297.47
680.71	296.63
681.05	295.86
681.39	295.04
681.73	294.19
682.06	293.39
682.40	292.58
682.74	291.80
683.08	291.04
683.42	290.27
683.75	289.58
684.09	288.79
684.43	288.06
684.77	287.31
685.10	286.61
685.44	285.89
685.78	285.16
686.12	284.47
686.45	283.77
686.79	283.08
687.13	282.40
687.46	281.70
687.80	281.03
688.14	280.31
688.48	279.66
688.81	279.00
689.15	278.39
689.49	277.74
689.82	277.11
690.16	276.42
690.50	275.79
690.83	275.15
691.17	274.54
691.51	273.93
691.84	273.36
692.18	272.75
692.52	272.13
692.85	271.54
693.19	270.99
693.52	270.42
693.86	269.86
694.20	269.30
694.53	268.77
694.87	268.21
695.21	267.69
695.54	267.15
695.88	266.61
696.21	266.05
696.55	265.53
696.88	265.00
697.22	264.50
697.56	263.99
697.89	263.44
698.23	262.93
698.56	262.40
698.90	261.91
699.23	261.42
699.57	260.96
699.90	260.48
700.24	259.98
700.58	259.51
700.91	259.08
701.25	258.72
701.58	258.33
701.92	257.93
702.25	257.51
702.59	257.08
702.92	256.67
703.26	256.26
703.59	255.84
703.93	255.53
704.26	255.14
704.60	254.75
704.93	254.38
705.26	254.00
705.60	253.67
705.93	253.28
706.27	252.96
706.60	252.62
706.94	252.30
707.27	251.90
707.61	251.54
707.94	251.17
708.27	250.72
708.61	250.33
708.94	249.96
709.28	249.62
709.61	249.28
709.94	248.97
710.28	248.67
710.61	248.38
710.95	247.98
711.28	247.75
711.61	247.45
711.95	247.17
712.28	246.88
712.61	246.56
712.95	246.33
713.28	246.10
713.61	245.81
713.95	245.50
714.28	245.27
714.61	245.00
714.95	244.74
715.28	244.48
715.61	244.22
715.95	243.99
716.28	243.74
716.61	243.52
716.95	243.27
717.28	243.03
717.61	242.78
717.94	242.55
718.28	242.24
718.61	242.02
718.94	241.77
719.27	241.55
719.61	241.35
719.94	241.11
720.27	240.83
720.60	240.62
720.94	240.41
721.27	240.21
721.60	240.04
721.93	239.84
722.27	239.68
722.60	239.51
722.93	239.29
723.26	239.10
723.59	238.90
723.93	238.73
724.26	238.56
724.59	238.38
724.92	238.21
725.25	238.08
725.59	237.91
725.92	237.76
726.25	237.60
726.58	237.43
726.91	237.26
727.24	237.12
727.57	236.97
727.91	236.80
728.24	236.65
728.57	236.49
728.90	236.35
729.23	236.16
729.56	236.06
729.89	235.93
730.22	235.78
730.55	235.63
730.89	235.48
731.22	235.33
731.55	235.19
731.88	235.06
732.21	234.90
732.54	234.76
732.87	234.64
733.20	234.52
733.53	234.40
733.86	234.29
734.19	234.16
734.52	234.05
734.85	234.01
735.18	233.88
735.51	233.79
735.84	233.67
736.17	233.59
736.50	233.43
736.83	233.44
737.16	233.33
737.49	233.24
737.82	233.14
738.15	233.05
738.48	232.96
738.81	232.85
739.14	232.74
739.47	232.62
739.80	232.50
740.13	232.42
740.46	232.30
740.79	232.19
741.12	232.09
741.45	231.97
741.78	231.82
742.11	231.75
742.44	231.63
742.77	231.55
743.10	231.43
743.43	231.34
743.75	231.14
744.08	231.20
744.41	231.10
744.74	231.01
745.07	230.89
745.40	230.82
745.73	230.78
746.06	230.70
746.39	230.64
746.71	230.56
747.04	230.47
747.37	230.38
747.70	230.32
748.03	230.25
748.36	230.20
748.68	230.12
749.01	230.01
749.34	229.94
749.67	229.87
750.00	229.81
750.33	229.82
750.65	229.77
750.98	229.54
751.31	229.47
751.64	229.41
751.97	229.40
752.29	229.32
752.62	229.21
752.95	229.13
753.28	229.05
753.60	228.99
753.93	228.95
754.26	228.89
754.59	228.80
754.91	228.72
755.24	228.64
755.57	228.62
755.90	228.56
756.22	228.49
756.55	228.41
756.88	228.33
757.20	228.20
757.53	228.10
757.86	228.04
758.19	227.99
758.51	227.93
758.84	227.82
759.17	227.75
759.49	227.71
759.82	227.72
760.15	227.68
760.47	227.62
760.80	227.54
761.13	227.51
761.45	227.46
761.78	227.41
762.11	227.37
762.43	227.27
762.76	227.22
763.08	227.18
763.41	227.14
763.74	227.10
764.06	227.05
764.39	227.02
764.71	226.97
765.04	226.91
765.37	226.87
765.69	226.83
766.02	226.78
766.34	226.73
766.67	226.64
767.00	226.62
767.32	226.62
767.65	226.65
767.97	226.59
768.30	226.56
768.62	226.51
768.95	226.46
769.27	226.42
769.60	226.40
769.92	226.35
770.25	226.30
770.57	226.24
770.90	226.20
771.22	226.15
771.55	226.12
771.87	226.10
772.20	226.06
772.52	226.11
772.85	226.21
773.17	226.18
773.50	226.14
773.82	226.08
774.15	226.00
774.47	225.90
774.80	225.86
775.12	225.82
775.45	225.79
775.77	225.77
776.09	225.75
776.42	225.73
776.74	225.73
777.07	225.69
777.39	225.68
777.72	225.65
778.04	225.64
778.36	225.60
778.69	225.58
779.01	225.56
779.33	225.45
779.66	225.30
779.98	225.27
780.31	225.26
780.63	225.29
780.95	225.29
781.28	225.27
781.60	225.25
781.92	225.22
782.25	225.20
782.57	225.18
782.89	225.15
783.22	225.13
783.54	225.08
783.86	225.08
784.19	225.05
784.51	225.06
784.83	225.03
785.16	225.01
785.48	224.99
785.80	224.97
786.12	224.95
786.45	224.93
786.77	224.93
787.09	224.90
787.42	224.85
787.74	224.83
788.06	224.82
788.38	224.80
788.71	224.78
789.03	224.77
789.35	224.77
789.67	224.74
789.99	224.73
790.32	224.71
790.64	224.70
790.96	224.78
791.28	224.73
791.61	224.72
791.93	224.70
792.25	224.68
792.57	224.74
792.89	224.72
793.21	224.72
793.54	224.69
793.86	224.67
794.18	224.66
794.50	224.62
794.82	224.61
795.14	224.62
795.47	224.63
795.79	224.61
796.11	224.58
796.43	224.57
796.75	224.55
797.07	224.54
797.39	224.53
797.71	224.43
798.04	224.42
798.36	224.41
798.68	224.39
799.00	224.39
799.32	224.32
799.64	224.32
799.96	224.31
800.28	224.31
800.60	224.30
800.92	224.30
801.24	224.29
801.56	224.28
801.89	224.26
802.21	224.25
802.53	224.22
802.85	224.23
803.17	224.27
803.49	224.24
803.81	224.22
804.13	224.20
804.45	224.17
804.77	224.18
805.09	224.17
805.41	224.15
805.73	224.13
806.05	224.10
806.37	224.08
806.69	224.06
807.01	224.04
807.33	224.04
807.65	223.98
807.97	224.02
808.28	223.99
808.60	223.98
808.92	223.96
809.24	224.02
809.56	223.99
809.88	223.95
810.20	223.95
810.52	223.96
810.84	223.94
811.16	223.93
811.48	223.91
811.80	223.94
812.12	223.94
812.43	223.94
812.75	223.94
813.07	223.93
813.39	223.93
813.71	223.91
814.03	223.88
814.35	223.89
814.67	223.84
814.98	223.83
815.30	223.82
815.62	223.79
815.94	223.72
816.26	223.73
816.58	223.70
816.89	223.70
817.21	223.66
817.53	223.67
817.85	223.67
818.17	223.66
818.48	223.61
818.80	223.62
819.12	223.61
819.44	223.59
819.76	223.57
820.07	223.56
820.39	223.56
820.71	223.56
821.03	223.56
821.34	223.55
821.66	223.56
821.98	223.56
822.30	223.55
822.61	223.60
822.93	223.58
823.25	223.57
823.57	223.56
823.88	223.57
824.20	223.56
824.52	223.57
824.83	223.57
825.15	223.56
825.47	223.54
825.79	223.55
826.10	223.54
826.42	223.53
826.74	223.54
827.05	223.54
827.37	223.54
827.69	223.53
828.00	223.53
828.32	223.52
828.64	223.51
828.95	223.57
829.27	223.54
829.58	223.53
829.90	223.55
830.22	223.55
830.53	223.53
830.85	223.51
831.17	223.49
831.48	223.48
831.80	223.48
832.11	223.47
832.43	223.46
832.75	223.46
833.06	223.52
833.38	223.49
833.69	223.48
834.01	223.48
834.32	223.48
834.64	223.47
834.96	223.46
835.27	223.46
835.59	223.42
835.90	223.40
836.22	223.40
836.53	223.38
836.85	223.37
837.16	223.48
837.48	223.48
837.79	223.51
838.11	223.52
838.42	223.51
838.74	223.52
839.05	223.50
839.37	223.50
839.68	223.43
840.00	223.42
840.31	223.43
840.63	223.42
840.94	223.41
841.26	223.40
841.57	223.39
841.88	223.40
842.20	223.39
842.51	223.37
842.83	223.36
843.14	223.46
843.46	223.45
843.77	223.39
844.08	223.38
844.40	223.35
844.71	223.33
845.03	223.33
845.34	223.32
845.65	223.32
845.97	223.33
846.28	223.33
846.60	223.34
846.91	223.32
847.22	223.32
847.54	223.34
847.85	223.35
848.16	223.34
848.48	223.31
848.79	223.35
849.10	223.36
849.42	223.37
849.73	223.27
850.04	223.27
850.36	223.23
850.67	223.25
850.98	223.25
851.30	223.25
851.61	223.25
851.92	223.25
852.23	223.27
852.55	223.27
852.86	223.27
853.17	223.27
853.49	223.30
853.80	223.31
854.11	223.31
854.42	223.32
854.74	223.31
855.05	223.31
855.36	223.26
855.67	223.25
855.99	223.25
856.30	223.37
856.61	223.36
856.92	223.36
857.23	223.36
857.55	223.35
857.86	223.34
858.17	223.36
858.48	223.34
858.79	223.32
859.11	223.32
859.42	223.31
859.73	223.29
860.04	223.28
860.35	223.25
860.66	223.21
860.98	223.21
861.29	223.22
861.60	223.21
861.91	223.24
862.22	223.23
862.53	223.21
862.84	223.08
863.16	223.10
863.47	223.09
863.78	223.07
864.09	223.08
864.40	223.09
864.71	223.09
865.02	223.10
865.33	223.08
865.64	223.07
865.95	223.06
866.27	223.13
866.58	223.12
866.89	223.13
867.20	223.13
867.51	223.12
867.82	223.11
868.13	223.14
868.44	223.11
868.75	223.14
869.06	223.14
869.37	223.15
869.68	223.12
869.99	223.15
870.30	223.15
870.61	223.16
870.92	223.15
871.23	223.13
871.54	223.14
871.85	223.17
872.16	223.18
872.47	223.17
872.78	223.11
873.09	223.13
873.40	223.12
873.71	223.13
874.02	223.13
874.33	223.13
874.64	223.10
874.95	223.12
875.26	223.10
875.56	223.10
875.87	223.09
876.18	223.09
876.49	223.18
876.80	223.16
877.11	223.14
877.42	223.14
877.73	223.15
878.04	223.13
878.35	223.12
878.66	223.12
878.96	223.12
879.27	223.11
879.58	223.10
879.89	223.09
880.20	223.12
880.51	223.11
880.82	223.10
881.12	223.11
881.43	223.09
881.74	223.07
882.05	223.07
882.36	223.08
882.67	223.08
882.97	222.97
883.28	222.97
883.59	222.97
883.90	222.98
884.21	222.99
884.51	222.98
884.82	222.97
885.13	222.97
885.44	222.97
885.74	222.97
886.05	222.97
886.36	222.97
886.67	222.93
886.98	222.99
887.28	223.00
887.59	223.00
887.90	223.00
888.20	223.00
888.51	223.01
888.82	223.01
889.13	223.02
889.43	223.11
889.74	223.11
890.05	223.10
890.35	223.09
890.66	223.07
890.97	223.06
891.28	223.05
891.58	223.06
891.89	223.06
892.20	223.04
892.50	223.03
892.81	223.03
893.12	223.03
893.42	222.97
893.73	222.97
894.04	222.96
894.34	222.97
894.65	222.98
894.95	222.97
895.26	222.97
895.57	223.01
895.87	222.91
896.18	222.92
896.48	222.93
896.79	222.92
897.10	222.94
897.40	222.94
897.71	222.95
898.01	222.94
898.32	222.96
898.63	222.96
898.93	222.97
899.24	222.97
899.54	222.96
899.85	222.96
900.15	222.95
900.46	222.95
900.76	222.95
901.07	222.95
901.38	222.94
901.68	222.94
901.99	222.89
902.29	222.90
902.60	222.89
902.90	222.88
903.21	222.88
903.51	222.87
903.82	222.89
904.12	222.89
904.43	222.89
904.73	222.88
905.03	222.89
905.34	222.99
905.64	222.98
905.95	222.98
906.25	222.98
906.56	222.98
906.86	222.98
907.17	222.98
907.47	222.98
907.77	222.98
908.08	222.95
908.38	222.96
908.69	222.96
908.99	222.98
909.30	222.99
909.60	222.99
909.90	223.00
910.21	222.97
910.51	222.95
910.81	222.95
911.12	222.96
911.42	222.96
911.73	222.85
912.03	222.86
912.33	222.89
912.64	222.88
912.94	222.87
913.24	222.85
913.55	222.85
913.85	222.84
914.15	222.86
914.46	222.87
914.76	222.87
915.06	222.86
915.37	222.84
915.67	222.84
915.97	222.83
916.27	222.81
916.58	222.82
916.88	222.82
917.18	222.82
917.49	222.89
917.79	222.88
918.09	222.90
918.39	222.91
918.70	222.90
919.00	222.90
919.30	222.95
919.60	222.94
919.91	222.93
920.21	222.94
920.51	222.92
920.81	222.92
921.12	222.93
921.42	222.93
921.72	222.94
922.02	222.94
922.32	222.96
922.63	222.96
922.93	223.01
923.23	223.02
923.53	223.01
923.83	222.94
924.13	222.95
924.44	222.95
924.74	222.97
925.04	222.99
925.34	222.99
925.64	222.94
925.94	222.95
926.24	223.01
926.55	223.00
926.85	223.01
927.15	223.01
927.45	223.01
927.75	223.01
928.05	223.00
928.35	223.00
928.65	223.01
928.95	223.02
929.26	222.98
929.56	222.99
929.86	223.00
930.16	222.99
930.46	222.99
930.76	222.98
931.06	222.93
931.36	222.90
931.66	222.92
931.96	222.93
932.26	222.94
932.56	222.90
932.86	222.90
933.16	222.89
933.46	222.88
933.76	222.86
934.06	222.88
934.36	222.92
934.66	222.91
934.96	222.89
935.26	222.89
935.56	222.90
935.86	222.87
936.16	222.86
936.46	222.84
936.76	222.84
937.06	222.82
937.36	222.83
937.66	222.83
937.96	222.82
938.26	222.80
938.56	222.79
938.86	222.79
939.16	222.81
939.46	222.82
939.76	222.83
940.06	222.82
940.35	222.79
940.65	222.74
940.95	222.75
941.25	222.73
941.55	222.71
941.85	222.70
942.15	222.72
942.45	222.74
942.75	222.75
943.04	222.75
943.34	222.77
943.64	222.76
943.94	222.75
944.24	222.74
944.54	222.75
944.84	222.75
945.13	222.74
945.43	222.72
945.73	222.71
946.03	222.70
946.33	222.70
946.62	222.70
946.92	222.70
947.22	222.70
947.52	222.71
947.82	222.71
948.11	222.70
948.41	222.68
948.71	222.66
949.01	222.66
949.31	222.65
949.60	222.64
949.90	222.66
950.20	222.65
950.50	222.65
950.79	222.64
951.09	222.66
951.39	222.66
951.69	222.65
951.98	222.67
952.28	222.68
952.58	222.67
952.87	222.67
953.17	222.68
953.47	222.67
953.76	222.66
954.06	222.66
954.36	222.64
954.66	222.64
954.95	222.67
955.25	222.68
955.55	222.69
955.84	222.68
956.14	222.68
956.44	222.69
956.73	222.67
957.03	222.68
957.32	222.67
957.62	222.67
957.92	222.69
958.21	222.67
958.51	222.79
958.81	222.81
959.10	222.82
959.40	222.85
959.69	222.85
959.99	222.87
960.29	222.86
960.58	222.86
960.88	222.90
961.17	222.89
961.47	222.89
961.76	222.87
962.06	222.89
962.36	222.88
962.65	222.88
962.95	222.89
963.24	222.88
963.54	222.88
963.83	222.89
964.13	222.88
964.42	222.87
964.72	222.78
965.01	222.78
965.31	222.76
965.60	222.74
965.90	222.81
966.19	222.78
966.49	222.79
966.78	222.79
967.08	222.79
967.37	222.78
967.67	222.77
967.96	222.79
968.26	222.79
968.55	222.79
968.85	222.79
969.14	222.79
969.43	222.79
969.73	222.78
970.02	222.77
970.32	222.76
970.61	222.75
970.91	222.72
971.20	222.71
971.49	222.70
971.79	222.71
972.08	222.63
972.38	222.65
972.67	222.65
972.96	222.66
973.26	222.64
973.55	222.68
973.85	222.67
974.14	222.66
974.43	222.67
974.73	222.66
975.02	222.66
975.31	222.66
975.61	222.66
975.90	222.65
976.19	222.65
976.49	222.66
976.78	222.67
977.07	222.67
977.37	222.68
977.66	222.69
977.95	222.68
978.24	222.69
978.54	222.70
978.83	222.69
979.12	222.69
979.42	222.69
979.71	222.66
980.00	222.66
980.29	222.67
980.59	222.64
980.88	222.67
981.17	222.67
981.46	222.67
981.76	222.67
982.05	222.69
982.34	222.70
982.63	222.70
982.93	222.69
983.22	222.72
983.51	222.73
983.80	222.74
984.09	222.76
984.39	222.75
984.68	222.74
984.97	222.74
985.26	222.74
985.55	222.74
985.85	222.72
986.14	222.74
986.43	222.75
986.72	222.75
987.01	222.72
987.30	222.71
987.59	222.70
987.89	222.71
988.18	222.68
988.47	222.67
988.76	222.66
989.05	222.66
989.34	222.64
989.63	222.66
989.92	222.65
990.22	222.63
990.51	222.62
990.80	222.62
991.09	222.62
991.38	222.63
991.67	222.62
991.96	222.62
992.25	222.61
992.54	222.59
992.83	222.60
993.12	222.60
993.41	222.61
993.70	222.66
993.99	222.67
994.28	222.68
994.58	222.70
994.87	222.69
995.16	222.69
995.45	222.67
995.74	222.63
996.03	222.65
996.32	222.66
996.61	222.69
996.90	222.68
997.19	222.68
997.48	222.67
997.77	222.67
998.06	222.67
998.34	222.66
998.63	222.66
998.92	222.67
999.21	222.68
999.50	222.68
999.79	222.64
1000.08	222.64
1000.37	222.64
1000.66	222.63
1000.95	222.65
1001.24	222.66
1001.53	222.67
1001.82	222.68
1002.11	222.65
1002.40	222.66
1002.68	222.68
1002.97	222.76
1003.26	222.75
1003.55	222.73
1003.84	222.74
1004.13	222.77
1004.42	222.77
1004.71	222.77
1004.99	222.76
1005.28	222.78
1005.57	222.77
1005.86	222.76
1006.15	222.76
1006.44	222.74
1006.72	222.75
1007.01	222.73
1007.30	222.73
1007.59	222.72
1007.88	222.72
1008.17	222.73
1008.45	222.71
1008.74	222.66
1009.03	222.61
1009.32	222.61
1009.60	222.62
1009.89	222.61
1010.18	222.56
1010.47	222.56
1010.76	222.56
1011.04	222.57
1011.33	222.56
1011.62	222.58
1011.91	222.59
1012.19	222.58
1012.48	222.60
1012.77	222.60
1013.05	222.63
1013.34	222.63
1013.63	222.62
1013.92	222.63
1014.20	222.62
1014.49	222.63
1014.78	222.64
1015.06	222.61
1015.35	222.60
1015.64	222.62
1015.92	222.64
1016.21	222.65
1016.50	222.65
1016.78	222.66
1017.07	222.67
1017.36	222.65
1017.64	222.63
1017.93	222.64
1018.22	222.63
1018.50	222.63
1018.79	222.62
1019.08	222.59
1019.36	222.60
1019.65	222.60
1019.93	222.62
1020.22	222.64
1020.51	222.68
1020.79	222.67
1021.08	222.50
1021.36	222.53
1021.65	222.60
1021.94	222.60
1022.22	222.75
1022.51	222.43
1022.79	223.05
1023.08	222.74
1023.36	223.74
1023.65	222.39
>>>>>End Processed Spectral Data<<<<<
