SpectraSuite Data File
++++++++++++++++++++++++++++++++++++
Date: Thu Oct 01 13:28:48 EDT 2015
User: lab3
Dark Spectrum Present: No
Reference Spectrum Present: No
Number of Sampled Component Spectra: 1
Spectrometers: USB2E7196
Integration Time (usec): 36000 (USB2E7196)
Spectra Averaged: 10000 (USB2E7196)
Boxcar Smoothing: 10 (USB2E7196)
Correct for Electrical Dark: No (USB2E7196)
Strobe/Lamp Enabled: No (USB2E7196)
Correct for Detector Non-linearity: No (USB2E7196)
Correct for Stray Light: No (USB2E7196)
Number of Pixels in Processed Spectrum: 2048
>>>>>Begin Processed Spectral Data<<<<<
339.09	0.00
339.48	211.74
339.86	213.21
340.24	214.59
340.63	216.00
341.01	218.88
341.39	218.64
341.78	219.99
342.16	221.24
342.54	221.70
342.93	210.22
343.31	220.84
343.69	221.38
344.07	221.84
344.46	222.26
344.84	222.65
345.22	222.89
345.60	223.14
345.99	223.34
346.37	223.48
346.75	223.58
347.13	223.66
347.52	223.72
347.90	223.80
348.28	223.84
348.66	223.90
349.05	223.90
349.43	223.94
349.81	224.00
350.19	224.06
350.57	224.12
350.96	224.20
351.34	224.30
351.72	224.39
352.10	224.50
352.48	224.57
352.87	224.63
353.25	224.69
353.63	224.75
354.01	224.82
354.39	224.89
354.77	224.97
355.15	225.07
355.54	225.12
355.92	225.16
356.30	225.23
356.68	225.37
357.06	225.45
357.44	225.50
357.82	225.56
358.20	225.66
358.58	225.72
358.97	225.79
359.35	225.87
359.73	225.95
360.11	226.00
360.49	226.05
360.87	226.10
361.25	226.16
361.63	226.24
362.01	226.29
362.39	226.33
362.77	226.37
363.15	226.40
363.53	226.43
363.91	226.47
364.29	226.49
364.67	226.41
365.05	226.44
365.43	226.47
365.81	226.50
366.19	226.52
366.57	226.57
366.95	226.56
367.33	226.54
367.71	226.53
368.09	226.55
368.47	226.54
368.85	226.54
369.23	226.55
369.61	226.49
369.99	226.50
370.37	226.50
370.75	226.56
371.13	226.52
371.51	226.48
371.89	226.46
372.27	226.44
372.65	226.41
373.03	226.37
373.41	226.33
373.78	226.28
374.16	226.18
374.54	226.11
374.92	226.06
375.30	226.02
375.68	225.95
376.06	225.90
376.44	225.85
376.82	225.81
377.19	225.75
377.57	225.70
377.95	225.62
378.33	225.56
378.71	225.42
379.09	225.37
379.47	225.34
379.84	225.28
380.22	225.21
380.60	225.15
380.98	225.10
381.36	225.05
381.73	224.99
382.11	224.96
382.49	224.92
382.87	224.85
383.25	224.81
383.62	224.88
384.00	224.82
384.38	224.77
384.76	224.76
385.13	224.74
385.51	224.70
385.89	224.65
386.27	224.61
386.64	224.59
387.02	224.54
387.40	224.50
387.78	224.47
388.15	224.44
388.53	224.41
388.91	224.37
389.29	224.34
389.66	224.33
390.04	224.29
390.42	224.28
390.79	224.27
391.17	224.25
391.55	224.13
391.92	224.11
392.30	224.11
392.68	224.08
393.05	224.06
393.43	224.06
393.81	224.07
394.18	224.05
394.56	224.05
394.94	224.07
395.31	224.08
395.69	224.11
396.06	224.14
396.44	224.17
396.82	224.18
397.19	224.26
397.57	224.27
397.95	224.31
398.32	224.31
398.70	224.36
399.07	224.41
399.45	224.45
399.82	224.49
400.20	224.53
400.58	224.59
400.95	224.60
401.33	224.68
401.70	224.81
402.08	224.90
402.45	224.99
402.83	225.09
403.20	225.20
403.58	225.29
403.95	225.41
404.33	225.55
404.71	225.68
405.08	225.86
405.46	226.01
405.83	226.18
406.21	226.36
406.58	226.55
406.96	226.76
407.33	226.98
407.70	227.23
408.08	227.57
408.45	227.87
408.83	228.19
409.20	228.48
409.58	228.75
409.95	229.11
410.33	229.50
410.70	229.87
411.08	230.30
411.45	230.76
411.82	231.22
412.20	231.75
412.57	232.38
412.95	232.88
413.32	233.52
413.69	234.18
414.07	234.89
414.44	235.66
414.82	236.44
415.19	237.36
415.56	238.29
415.94	239.26
416.31	240.34
416.68	241.43
417.06	242.69
417.43	243.88
417.81	245.25
418.18	246.64
418.55	248.16
418.93	249.74
419.30	251.40
419.67	253.16
420.04	254.98
420.42	256.87
420.79	259.05
421.16	261.26
421.54	263.49
421.91	265.82
422.28	268.25
422.66	270.87
423.03	273.36
423.40	275.98
423.77	278.80
424.15	281.67
424.52	284.66
424.89	287.89
425.26	291.11
425.64	294.09
426.01	297.44
426.38	300.86
426.75	304.38
427.13	307.98
427.50	311.74
427.87	315.65
428.24	319.59
428.61	323.37
428.99	327.43
429.36	331.89
429.73	336.15
430.10	340.40
430.47	344.73
430.85	349.18
431.22	353.92
431.59	358.78
431.96	363.53
432.33	368.78
432.70	373.74
433.08	379.62
433.45	385.18
433.82	390.65
434.19	396.75
434.56	402.75
434.93	408.54
435.30	414.27
435.68	420.71
436.05	427.02
436.42	433.33
436.79	439.08
437.16	445.29
437.53	451.94
437.90	458.60
438.27	465.10
438.64	472.18
439.01	478.58
439.38	484.43
439.75	490.09
440.13	496.55
440.50	502.72
440.87	507.58
441.24	512.93
441.61	518.84
441.98	523.20
442.35	528.39
442.72	533.71
443.09	538.80
443.46	542.12
443.83	544.61
444.20	546.73
444.57	549.80
444.94	551.68
445.31	553.63
445.68	555.36
446.05	556.72
446.42	556.68
446.79	556.52
447.16	556.43
447.53	556.37
447.90	554.59
448.27	552.92
448.64	550.21
449.01	548.44
449.37	544.49
449.74	540.90
450.11	536.23
450.48	531.07
450.85	525.89
451.22	521.49
451.59	517.18
451.96	513.26
452.33	507.47
452.70	502.31
453.07	496.00
453.43	489.69
453.80	483.54
454.17	477.65
454.54	472.20
454.91	466.00
455.28	460.18
455.65	454.68
456.02	448.81
456.38	444.08
456.75	437.97
457.12	433.05
457.49	428.06
457.86	423.31
458.23	419.14
458.59	414.53
458.96	409.79
459.33	405.60
459.70	401.34
460.07	398.09
460.43	394.27
460.80	390.69
461.17	387.52
461.54	384.12
461.91	380.95
462.27	377.71
462.64	375.07
463.01	372.04
463.38	368.98
463.74	366.24
464.11	363.79
464.48	361.58
464.85	359.21
465.21	357.39
465.58	355.38
465.95	353.07
466.32	351.23
466.68	349.43
467.05	347.62
467.42	345.87
467.78	344.00
468.15	342.26
468.52	340.97
468.88	339.29
469.25	337.75
469.62	336.52
469.98	335.20
470.35	334.03
470.72	332.97
471.08	331.91
471.45	331.02
471.82	330.04
472.18	329.01
472.55	328.35
472.92	327.54
473.28	326.92
473.65	326.26
474.02	325.64
474.38	325.15
474.75	324.89
475.11	324.47
475.48	324.33
475.85	324.18
476.21	324.14
476.58	324.16
476.94	324.37
477.31	324.51
477.67	324.68
478.04	324.96
478.41	325.32
478.77	325.79
479.14	326.14
479.50	326.72
479.87	327.44
480.23	328.16
480.60	328.86
480.96	329.58
481.33	330.56
481.69	331.56
482.06	332.53
482.42	333.45
482.79	334.56
483.15	335.83
483.52	337.25
483.88	338.63
484.25	340.08
484.61	341.60
484.98	343.23
485.34	345.07
485.71	346.96
486.07	348.98
486.44	351.00
486.80	353.23
487.17	355.52
487.53	358.04
487.90	360.66
488.26	363.50
488.62	366.49
488.99	369.49
489.35	372.63
489.72	376.02
490.08	379.58
490.44	383.24
490.81	387.06
491.17	390.97
491.54	395.16
491.90	399.44
492.26	404.06
492.63	408.93
492.99	413.98
493.36	419.15
493.72	424.60
494.08	430.19
494.45	436.11
494.81	442.24
495.17	448.50
495.54	455.11
495.90	462.03
496.26	469.09
496.63	476.40
496.99	484.02
497.35	492.00
497.72	500.27
498.08	508.69
498.44	517.40
498.80	526.68
499.17	536.17
499.53	546.02
499.89	556.09
500.26	566.34
500.62	576.89
500.98	588.14
501.34	599.54
501.71	611.49
502.07	623.66
502.43	636.23
502.79	649.12
503.16	662.45
503.52	675.97
503.88	689.88
504.24	704.20
504.60	718.80
504.97	733.80
505.33	749.23
505.69	765.59
506.05	782.12
506.41	798.65
506.78	815.50
507.14	832.82
507.50	850.76
507.86	869.08
508.22	887.70
508.59	906.35
508.95	925.70
509.31	945.50
509.67	966.04
510.03	986.76
510.39	1007.70
510.75	1028.87
511.12	1050.36
511.48	1072.11
511.84	1094.00
512.20	1116.22
512.56	1139.58
512.92	1163.03
513.28	1186.18
513.64	1209.68
514.00	1233.62
514.37	1257.84
514.73	1282.13
515.09	1306.21
515.45	1330.75
515.81	1355.79
516.17	1380.85
516.53	1405.60
516.89	1430.37
517.25	1455.34
517.61	1480.52
517.97	1505.91
518.33	1531.01
518.69	1556.21
519.05	1581.70
519.41	1607.33
519.77	1633.18
520.13	1658.17
520.49	1683.40
520.85	1708.89
521.21	1734.23
521.57	1760.11
521.93	1785.29
522.29	1811.25
522.65	1836.94
523.01	1862.39
523.37	1887.09
523.73	1912.45
524.09	1938.01
524.45	1963.46
524.81	1988.38
525.17	2013.21
525.53	2037.52
525.89	2061.83
526.25	2086.41
526.61	2110.47
526.97	2134.73
527.33	2158.96
527.68	2182.98
528.04	2206.18
528.40	2229.12
528.76	2252.28
529.12	2274.40
529.48	2296.87
529.84	2317.47
530.20	2338.65
530.56	2359.40
530.91	2380.28
531.27	2400.66
531.63	2420.30
531.99	2439.41
532.35	2458.20
532.71	2477.05
533.07	2496.43
533.42	2514.40
533.78	2532.66
534.14	2550.91
534.50	2568.30
534.86	2586.29
535.21	2602.39
535.57	2618.32
535.93	2633.74
536.29	2647.84
536.65	2662.87
537.00	2676.74
537.36	2691.18
537.72	2704.53
538.08	2717.45
538.44	2729.25
538.79	2741.13
539.15	2751.41
539.51	2761.64
539.87	2771.54
540.22	2779.23
540.58	2787.19
540.94	2795.53
541.29	2802.44
541.65	2808.29
542.01	2813.65
542.37	2817.18
542.72	2822.76
543.08	2827.76
543.44	2832.47
543.79	2836.50
544.15	2839.40
544.51	2842.36
544.87	2844.42
545.22	2846.11
545.58	2846.96
545.94	2848.24
546.29	2848.05
546.65	2847.86
547.01	2847.88
547.36	2847.90
547.72	2848.09
548.07	2846.80
548.43	2844.89
548.79	2842.34
549.14	2839.79
549.50	2838.05
549.86	2835.14
550.21	2829.94
550.57	2825.11
550.92	2818.96
551.28	2813.43
551.64	2807.96
551.99	2802.73
552.35	2797.09
552.70	2791.01
553.06	2785.68
553.41	2779.83
553.77	2773.48
554.13	2767.97
554.48	2761.26
554.84	2753.04
555.19	2745.06
555.55	2736.53
555.90	2728.60
556.26	2721.60
556.61	2713.95
556.97	2703.98
557.32	2695.08
557.68	2686.48
558.03	2677.40
558.39	2669.02
558.74	2660.60
559.10	2651.01
559.45	2641.04
559.81	2631.52
560.16	2621.24
560.52	2610.60
560.87	2601.00
561.23	2590.89
561.58	2580.25
561.94	2569.46
562.29	2558.12
562.64	2547.44
563.00	2537.08
563.35	2526.60
563.71	2515.20
564.06	2503.32
564.42	2492.47
564.77	2481.29
565.12	2470.17
565.48	2458.83
565.83	2448.09
566.19	2437.41
566.54	2426.20
566.89	2414.29
567.25	2402.25
567.60	2391.08
567.96	2379.46
568.31	2366.35
568.66	2353.35
569.02	2341.42
569.37	2329.15
569.72	2317.46
570.08	2305.08
570.43	2292.17
570.78	2278.85
571.14	2265.34
571.49	2252.70
571.84	2240.31
572.20	2226.65
572.55	2213.37
572.90	2199.96
573.26	2185.50
573.61	2170.58
573.96	2156.12
574.31	2141.96
574.67	2127.96
575.02	2113.57
575.37	2098.70
575.72	2084.17
576.08	2070.18
576.43	2055.16
576.78	2040.34
577.13	2026.30
577.49	2012.13
577.84	1998.36
578.19	1983.81
578.54	1968.99
578.90	1953.61
579.25	1937.99
579.60	1923.74
579.95	1909.10
580.30	1894.52
580.66	1880.34
581.01	1865.78
581.36	1851.48
581.71	1837.80
582.06	1823.57
582.42	1809.46
582.77	1796.08
583.12	1782.33
583.47	1768.71
583.82	1755.22
584.17	1741.61
584.53	1727.81
584.88	1714.09
585.23	1699.93
585.58	1686.34
585.93	1673.18
586.28	1660.88
586.63	1648.32
586.98	1635.12
587.34	1622.14
587.69	1608.68
588.04	1595.53
588.39	1582.97
588.74	1569.95
589.09	1556.64
589.44	1543.40
589.79	1530.66
590.14	1517.83
590.49	1505.23
590.84	1492.45
591.19	1480.29
591.54	1467.60
591.89	1454.84
592.25	1442.38
592.60	1429.63
592.95	1417.41
593.30	1405.46
593.65	1393.24
594.00	1381.31
594.35	1370.08
594.70	1358.18
595.05	1347.31
595.40	1336.15
595.75	1324.47
596.10	1313.61
596.45	1302.97
596.80	1292.77
597.15	1282.40
597.50	1271.98
597.85	1261.78
598.19	1251.77
598.54	1241.18
598.89	1231.37
599.24	1221.81
599.59	1212.07
599.94	1203.33
600.29	1194.44
600.64	1185.30
600.99	1175.59
601.34	1166.34
601.69	1156.57
602.04	1147.80
602.39	1138.87
602.74	1130.19
603.08	1121.75
603.43	1112.83
603.78	1103.85
604.13	1094.99
604.48	1086.07
604.83	1077.40
605.18	1068.66
605.53	1059.83
605.87	1051.16
606.22	1042.70
606.57	1034.00
606.92	1025.44
607.27	1016.68
607.62	1008.09
607.96	999.64
608.31	992.21
608.66	984.33
609.01	976.86
609.36	969.36
609.70	961.61
610.05	953.73
610.40	946.20
610.75	938.74
611.10	931.53
611.44	923.98
611.79	916.70
612.14	909.07
612.49	901.60
612.83	894.59
613.18	887.60
613.53	880.44
613.88	873.40
614.22	866.88
614.57	860.20
614.92	853.51
615.27	846.88
615.61	840.09
615.96	833.52
616.31	826.90
616.65	820.15
617.00	813.65
617.35	807.33
617.70	801.00
618.04	794.77
618.39	788.53
618.74	782.62
619.08	776.57
619.43	770.74
619.78	764.90
620.12	758.90
620.47	753.09
620.82	747.39
621.16	741.95
621.51	736.18
621.85	730.41
622.20	724.70
622.55	719.16
622.89	713.55
623.24	708.00
623.59	702.50
623.93	697.08
624.28	691.81
624.62	686.49
624.97	681.18
625.32	675.96
625.66	670.61
626.01	665.27
626.35	660.05
626.70	654.88
627.04	649.93
627.39	645.03
627.73	640.23
628.08	635.62
628.43	630.90
628.77	626.23
629.12	621.72
629.46	617.34
629.81	612.78
630.15	608.13
630.50	603.66
630.84	599.40
631.19	595.28
631.53	591.20
631.88	587.03
632.22	582.93
632.57	579.07
632.91	575.16
633.26	571.33
633.60	567.56
633.95	563.88
634.29	560.07
634.64	556.22
634.98	552.32
635.32	548.57
635.67	544.93
636.01	541.25
636.36	537.62
636.70	534.13
637.05	530.65
637.39	527.37
637.73	523.93
638.08	520.55
638.42	517.13
638.77	513.60
639.11	510.07
639.45	506.60
639.80	503.12
640.14	499.82
640.49	496.48
640.83	493.02
641.17	489.64
641.52	486.39
641.86	483.14
642.20	480.04
642.55	476.80
642.89	473.66
643.23	470.71
643.58	467.97
643.92	465.12
644.26	462.28
644.61	459.44
644.95	456.61
645.29	453.73
645.64	450.83
645.98	448.07
646.32	445.48
646.66	442.88
647.01	440.26
647.35	437.68
647.69	435.00
648.04	432.50
648.38	430.02
648.72	427.49
649.06	425.05
649.41	422.59
649.75	420.15
650.09	417.73
650.43	415.32
650.78	412.89
651.12	410.45
651.46	408.12
651.80	405.87
652.14	403.69
652.49	401.52
652.83	399.42
653.17	397.29
653.51	395.21
653.85	393.20
654.20	391.13
654.54	389.00
654.88	387.07
655.22	385.16
655.56	383.21
655.90	381.36
656.25	379.51
656.59	377.70
656.93	375.96
657.27	374.26
657.61	372.46
657.95	370.72
658.29	369.00
658.64	367.31
658.98	365.60
659.32	363.90
659.66	362.32
660.00	360.75
660.34	359.21
660.68	357.61
661.02	355.96
661.36	354.42
661.70	352.94
662.05	351.43
662.39	349.91
662.73	348.50
663.07	347.10
663.41	345.72
663.75	344.36
664.09	342.99
664.43	341.56
664.77	340.23
665.11	338.84
665.45	337.53
665.79	336.21
666.13	334.87
666.47	333.54
666.81	332.17
667.15	330.78
667.49	329.48
667.83	328.23
668.17	327.03
668.51	325.83
668.85	324.65
669.19	323.55
669.53	322.38
669.87	321.18
670.21	320.01
670.55	318.86
670.89	317.79
671.23	316.68
671.57	315.60
671.91	314.56
672.25	313.57
672.58	312.57
672.92	311.55
673.26	310.59
673.60	309.63
673.94	308.67
674.28	307.77
674.62	306.85
674.96	305.90
675.30	305.00
675.64	304.08
675.97	303.19
676.31	302.25
676.65	301.35
676.99	300.51
677.33	299.62
677.67	298.76
678.01	297.83
678.34	296.97
678.68	296.17
679.02	295.32
679.36	294.49
679.70	293.67
680.04	292.88
680.37	292.08
680.71	291.31
681.05	290.58
681.39	289.81
681.73	289.01
682.06	288.24
682.40	287.49
682.74	286.77
683.08	286.07
683.42	285.36
683.75	284.71
684.09	283.97
684.43	283.29
684.77	282.59
685.10	281.95
685.44	281.28
685.78	280.61
686.12	279.98
686.45	279.33
686.79	278.68
687.13	278.05
687.46	277.40
687.80	276.77
688.14	276.11
688.48	275.50
688.81	274.90
689.15	274.34
689.49	273.73
689.82	273.15
690.16	272.50
690.50	271.92
690.83	271.33
691.17	270.77
691.51	270.22
691.84	269.68
692.18	269.12
692.52	268.55
692.85	267.99
693.19	267.48
693.52	266.95
693.86	266.42
694.20	265.91
694.53	265.42
694.87	264.90
695.21	264.42
695.54	263.94
695.88	263.45
696.21	262.92
696.55	262.45
696.88	261.96
697.22	261.51
697.56	261.05
697.89	260.54
698.23	260.06
698.56	259.57
698.90	259.13
699.23	258.67
699.57	258.25
699.90	257.82
700.24	257.37
700.58	256.95
700.91	256.56
701.25	256.24
701.58	255.87
701.92	255.50
702.25	255.11
702.59	254.71
702.92	254.34
703.26	253.96
703.59	253.59
703.93	253.30
704.26	252.96
704.60	252.60
704.93	252.27
705.26	251.93
705.60	251.62
705.93	251.26
706.27	250.97
706.60	250.66
706.94	250.37
707.27	250.02
707.61	249.68
707.94	249.35
708.27	248.94
708.61	248.59
708.94	248.25
709.28	247.94
709.61	247.64
709.94	247.36
710.28	247.08
710.61	246.81
710.95	246.45
711.28	246.25
711.61	245.97
711.95	245.73
712.28	245.46
712.61	245.18
712.95	244.98
713.28	244.77
713.61	244.51
713.95	244.24
714.28	244.02
714.61	243.77
714.95	243.54
715.28	243.31
715.61	243.07
715.95	242.86
716.28	242.63
716.61	242.44
716.95	242.21
717.28	242.00
717.61	241.78
717.94	241.57
718.28	241.29
718.61	241.08
718.94	240.85
719.27	240.66
719.61	240.48
719.94	240.26
720.27	240.01
720.60	239.82
720.94	239.63
721.27	239.46
721.60	239.30
721.93	239.12
722.27	238.98
722.60	238.83
722.93	238.64
723.26	238.47
723.59	238.28
723.93	238.13
724.26	237.98
724.59	237.81
724.92	237.66
725.25	237.54
725.59	237.39
725.92	237.26
726.25	237.12
726.58	236.97
726.91	236.81
727.24	236.68
727.57	236.54
727.91	236.38
728.24	236.26
728.57	236.11
728.90	235.98
729.23	235.81
729.56	235.72
729.89	235.60
730.22	235.46
730.55	235.33
730.89	235.19
731.22	235.06
731.55	234.94
731.88	234.82
732.21	234.68
732.54	234.56
732.87	234.44
733.20	234.33
733.53	234.22
733.86	234.12
734.19	234.00
734.52	233.91
734.85	233.87
735.18	233.74
735.51	233.66
735.84	233.56
736.17	233.49
736.50	233.33
736.83	233.35
737.16	233.26
737.49	233.18
737.82	233.08
738.15	233.00
738.48	232.91
738.81	232.80
739.14	232.70
739.47	232.60
739.80	232.51
740.13	232.42
740.46	232.32
740.79	232.21
741.12	232.13
741.45	232.02
741.78	231.88
742.11	231.82
742.44	231.71
742.77	231.64
743.10	231.54
743.43	231.45
743.75	231.26
744.08	231.34
744.41	231.24
744.74	231.16
745.07	231.06
745.40	231.00
745.73	230.97
746.06	230.90
746.39	230.84
746.71	230.76
747.04	230.68
747.37	230.61
747.70	230.56
748.03	230.49
748.36	230.44
748.68	230.37
749.01	230.27
749.34	230.21
749.67	230.14
750.00	230.09
750.33	230.11
750.65	230.06
750.98	229.84
751.31	229.78
751.64	229.73
751.97	229.72
752.29	229.65
752.62	229.54
752.95	229.47
753.28	229.39
753.60	229.32
753.93	229.28
754.26	229.23
754.59	229.13
754.91	229.06
755.24	228.99
755.57	228.98
755.90	228.92
756.22	228.85
756.55	228.78
756.88	228.70
757.20	228.57
757.53	228.49
757.86	228.43
758.19	228.38
758.51	228.32
758.84	228.22
759.17	228.16
759.49	228.12
759.82	228.13
760.15	228.09
760.47	228.05
760.80	227.97
761.13	227.94
761.45	227.90
761.78	227.86
762.11	227.82
762.43	227.72
762.76	227.68
763.08	227.64
763.41	227.61
763.74	227.57
764.06	227.53
764.39	227.49
764.71	227.44
765.04	227.39
765.37	227.34
765.69	227.30
766.02	227.26
766.34	227.21
766.67	227.13
767.00	227.10
767.32	227.12
767.65	227.14
767.97	227.09
768.30	227.06
768.62	227.02
768.95	226.98
769.27	226.94
769.60	226.92
769.92	226.87
770.25	226.82
770.57	226.77
770.90	226.73
771.22	226.69
771.55	226.66
771.87	226.64
772.20	226.60
772.52	226.66
772.85	226.75
773.17	226.72
773.50	226.69
773.82	226.64
774.15	226.56
774.47	226.47
774.80	226.43
775.12	226.39
775.45	226.36
775.77	226.34
776.09	226.32
776.42	226.29
776.74	226.30
777.07	226.27
777.39	226.26
777.72	226.22
778.04	226.21
778.36	226.18
778.69	226.16
779.01	226.15
779.33	226.04
779.66	225.90
779.98	225.87
780.31	225.86
780.63	225.88
780.95	225.89
781.28	225.86
781.60	225.83
781.92	225.81
782.25	225.80
782.57	225.78
782.89	225.75
783.22	225.73
783.54	225.68
783.86	225.67
784.19	225.65
784.51	225.66
784.83	225.63
785.16	225.61
785.48	225.59
785.80	225.57
786.12	225.57
786.45	225.55
786.77	225.54
787.09	225.51
787.42	225.46
787.74	225.44
788.06	225.43
788.38	225.41
788.71	225.39
789.03	225.38
789.35	225.38
789.67	225.35
789.99	225.35
790.32	225.32
790.64	225.32
790.96	225.40
791.28	225.35
791.61	225.33
791.93	225.32
792.25	225.30
792.57	225.36
792.89	225.33
793.21	225.33
793.54	225.30
793.86	225.28
794.18	225.27
794.50	225.24
794.82	225.23
795.14	225.23
795.47	225.24
795.79	225.23
796.11	225.20
796.43	225.19
796.75	225.17
797.07	225.17
797.39	225.15
797.71	225.06
798.04	225.05
798.36	225.05
798.68	225.03
799.00	225.03
799.32	224.97
799.64	224.98
799.96	224.97
800.28	224.98
800.60	224.96
800.92	224.95
801.24	224.94
801.56	224.94
801.89	224.92
802.21	224.92
802.53	224.89
802.85	224.91
803.17	224.94
803.49	224.91
803.81	224.90
804.13	224.88
804.45	224.85
804.77	224.85
805.09	224.84
805.41	224.82
805.73	224.80
806.05	224.76
806.37	224.73
806.69	224.72
807.01	224.70
807.33	224.70
807.65	224.65
807.97	224.69
808.28	224.67
808.60	224.65
808.92	224.63
809.24	224.68
809.56	224.65
809.88	224.61
810.20	224.61
810.52	224.62
810.84	224.60
811.16	224.59
811.48	224.57
811.80	224.60
812.12	224.59
812.43	224.60
812.75	224.60
813.07	224.58
813.39	224.58
813.71	224.56
814.03	224.54
814.35	224.55
814.67	224.50
814.98	224.48
815.30	224.48
815.62	224.45
815.94	224.38
816.26	224.39
816.58	224.36
816.89	224.36
817.21	224.33
817.53	224.33
817.85	224.34
818.17	224.33
818.48	224.28
818.80	224.30
819.12	224.28
819.44	224.26
819.76	224.25
820.07	224.24
820.39	224.23
820.71	224.23
821.03	224.23
821.34	224.22
821.66	224.23
821.98	224.24
822.30	224.23
822.61	224.29
822.93	224.27
823.25	224.27
823.57	224.25
823.88	224.26
824.20	224.25
824.52	224.26
824.83	224.26
825.15	224.25
825.47	224.23
825.79	224.24
826.10	224.23
826.42	224.23
826.74	224.23
827.05	224.23
827.37	224.23
827.69	224.22
828.00	224.22
828.32	224.22
828.64	224.20
828.95	224.26
829.27	224.22
829.58	224.22
829.90	224.24
830.22	224.24
830.53	224.23
830.85	224.21
831.17	224.18
831.48	224.18
831.80	224.18
832.11	224.18
832.43	224.16
832.75	224.16
833.06	224.22
833.38	224.19
833.69	224.19
834.01	224.19
834.32	224.18
834.64	224.17
834.96	224.16
835.27	224.16
835.59	224.12
835.90	224.11
836.22	224.10
836.53	224.08
836.85	224.06
837.16	224.16
837.48	224.16
837.79	224.19
838.11	224.20
838.42	224.19
838.74	224.20
839.05	224.19
839.37	224.19
839.68	224.12
840.00	224.12
840.31	224.13
840.63	224.12
840.94	224.11
841.26	224.10
841.57	224.10
841.88	224.10
842.20	224.09
842.51	224.07
842.83	224.07
843.14	224.16
843.46	224.16
843.77	224.10
844.08	224.10
844.40	224.06
844.71	224.05
845.03	224.04
845.34	224.03
845.65	224.02
845.97	224.02
846.28	224.03
846.60	224.03
846.91	224.02
847.22	224.01
847.54	224.03
847.85	224.04
848.16	224.03
848.48	224.01
848.79	224.05
849.10	224.06
849.42	224.06
849.73	223.96
850.04	223.96
850.36	223.92
850.67	223.93
850.98	223.94
851.30	223.94
851.61	223.94
851.92	223.93
852.23	223.97
852.55	223.97
852.86	223.97
853.17	223.98
853.49	224.00
853.80	224.01
854.11	224.02
854.42	224.03
854.74	224.02
855.05	224.02
855.36	223.97
855.67	223.96
855.99	223.96
856.30	224.08
856.61	224.08
856.92	224.08
857.23	224.08
857.55	224.07
857.86	224.06
858.17	224.08
858.48	224.07
858.79	224.04
859.11	224.05
859.42	224.04
859.73	224.02
860.04	224.01
860.35	223.98
860.66	223.95
860.98	223.94
861.29	223.95
861.60	223.95
861.91	223.97
862.22	223.96
862.53	223.94
862.84	223.82
863.16	223.83
863.47	223.82
863.78	223.80
864.09	223.81
864.40	223.82
864.71	223.81
865.02	223.82
865.33	223.81
865.64	223.79
865.95	223.79
866.27	223.85
866.58	223.84
866.89	223.85
867.20	223.85
867.51	223.83
867.82	223.82
868.13	223.86
868.44	223.83
868.75	223.85
869.06	223.85
869.37	223.87
869.68	223.84
869.99	223.86
870.30	223.86
870.61	223.87
870.92	223.85
871.23	223.84
871.54	223.85
871.85	223.87
872.16	223.89
872.47	223.88
872.78	223.82
873.09	223.83
873.40	223.82
873.71	223.83
874.02	223.84
874.33	223.83
874.64	223.81
874.95	223.83
875.26	223.80
875.56	223.80
875.87	223.79
876.18	223.78
876.49	223.88
876.80	223.87
877.11	223.85
877.42	223.86
877.73	223.86
878.04	223.84
878.35	223.84
878.66	223.84
878.96	223.84
879.27	223.83
879.58	223.82
879.89	223.82
880.20	223.84
880.51	223.83
880.82	223.83
881.12	223.84
881.43	223.82
881.74	223.81
882.05	223.80
882.36	223.81
882.67	223.82
882.97	223.71
883.28	223.70
883.59	223.70
883.90	223.71
884.21	223.72
884.51	223.71
884.82	223.70
885.13	223.69
885.44	223.69
885.74	223.69
886.05	223.69
886.36	223.69
886.67	223.65
886.98	223.71
887.28	223.71
887.59	223.71
887.90	223.71
888.20	223.71
888.51	223.73
888.82	223.71
889.13	223.71
889.43	223.80
889.74	223.79
890.05	223.79
890.35	223.78
890.66	223.76
890.97	223.75
891.28	223.74
891.58	223.74
891.89	223.74
892.20	223.72
892.50	223.71
892.81	223.71
893.12	223.71
893.42	223.65
893.73	223.65
894.04	223.65
894.34	223.66
894.65	223.66
894.95	223.64
895.26	223.65
895.57	223.69
895.87	223.59
896.18	223.61
896.48	223.61
896.79	223.61
897.10	223.62
897.40	223.63
897.71	223.64
898.01	223.64
898.32	223.65
898.63	223.65
898.93	223.65
899.24	223.66
899.54	223.65
899.85	223.65
900.15	223.64
900.46	223.64
900.76	223.65
901.07	223.64
901.38	223.64
901.68	223.65
901.99	223.60
902.29	223.61
902.60	223.60
902.90	223.59
903.21	223.59
903.51	223.58
903.82	223.60
904.12	223.60
904.43	223.61
904.73	223.60
905.03	223.60
905.34	223.70
905.64	223.70
905.95	223.70
906.25	223.70
906.56	223.70
906.86	223.70
907.17	223.69
907.47	223.70
907.77	223.69
908.08	223.67
908.38	223.68
908.69	223.68
908.99	223.70
909.30	223.71
909.60	223.71
909.90	223.72
910.21	223.69
910.51	223.67
910.81	223.67
911.12	223.68
911.42	223.68
911.73	223.57
912.03	223.58
912.33	223.60
912.64	223.59
912.94	223.58
913.24	223.57
913.55	223.55
913.85	223.54
914.15	223.57
914.46	223.58
914.76	223.57
915.06	223.57
915.37	223.55
915.67	223.54
915.97	223.54
916.27	223.52
916.58	223.52
916.88	223.52
917.18	223.51
917.49	223.57
917.79	223.57
918.09	223.58
918.39	223.61
918.70	223.60
919.00	223.61
919.30	223.66
919.60	223.65
919.91	223.64
920.21	223.65
920.51	223.62
920.81	223.61
921.12	223.63
921.42	223.63
921.72	223.63
922.02	223.64
922.32	223.65
922.63	223.65
922.93	223.71
923.23	223.71
923.53	223.70
923.83	223.63
924.13	223.64
924.44	223.64
924.74	223.65
925.04	223.67
925.34	223.67
925.64	223.62
925.94	223.62
926.24	223.68
926.55	223.67
926.85	223.68
927.15	223.68
927.45	223.68
927.75	223.68
928.05	223.68
928.35	223.67
928.65	223.68
928.95	223.69
929.26	223.64
929.56	223.66
929.86	223.67
930.16	223.66
930.46	223.65
930.76	223.65
931.06	223.60
931.36	223.58
931.66	223.60
931.96	223.61
932.26	223.62
932.56	223.57
932.86	223.58
933.16	223.58
933.46	223.57
933.76	223.55
934.06	223.57
934.36	223.61
934.66	223.61
934.96	223.59
935.26	223.59
935.56	223.61
935.86	223.58
936.16	223.57
936.46	223.56
936.76	223.56
937.06	223.55
937.36	223.56
937.66	223.56
937.96	223.55
938.26	223.52
938.56	223.51
938.86	223.52
939.16	223.54
939.46	223.55
939.76	223.55
940.06	223.55
940.35	223.53
940.65	223.48
940.95	223.49
941.25	223.47
941.55	223.46
941.85	223.45
942.15	223.47
942.45	223.50
942.75	223.50
943.04	223.50
943.34	223.52
943.64	223.51
943.94	223.50
944.24	223.50
944.54	223.51
944.84	223.50
945.13	223.49
945.43	223.47
945.73	223.46
946.03	223.45
946.33	223.44
946.62	223.43
946.92	223.43
947.22	223.44
947.52	223.45
947.82	223.46
948.11	223.45
948.41	223.42
948.71	223.39
949.01	223.40
949.31	223.39
949.60	223.38
949.90	223.40
950.20	223.40
950.50	223.39
950.79	223.38
951.09	223.40
951.39	223.40
951.69	223.40
951.98	223.41
952.28	223.42
952.58	223.42
952.87	223.42
953.17	223.44
953.47	223.42
953.76	223.42
954.06	223.40
954.36	223.39
954.66	223.39
954.95	223.41
955.25	223.42
955.55	223.42
955.84	223.40
956.14	223.40
956.44	223.41
956.73	223.40
957.03	223.41
957.32	223.41
957.62	223.40
957.92	223.42
958.21	223.41
958.51	223.53
958.81	223.54
959.10	223.55
959.40	223.57
959.69	223.57
959.99	223.59
960.29	223.59
960.58	223.59
960.88	223.63
961.17	223.62
961.47	223.63
961.76	223.62
962.06	223.64
962.36	223.63
962.65	223.63
962.95	223.63
963.24	223.62
963.54	223.62
963.83	223.63
964.13	223.62
964.42	223.61
964.72	223.53
965.01	223.53
965.31	223.52
965.60	223.49
965.90	223.56
966.19	223.53
966.49	223.54
966.78	223.54
967.08	223.53
967.37	223.53
967.67	223.51
967.96	223.53
968.26	223.53
968.55	223.54
968.85	223.54
969.14	223.53
969.43	223.53
969.73	223.52
970.02	223.52
970.32	223.51
970.61	223.49
970.91	223.46
971.20	223.45
971.49	223.44
971.79	223.45
972.08	223.37
972.38	223.38
972.67	223.37
972.96	223.39
973.26	223.37
973.55	223.40
973.85	223.39
974.14	223.38
974.43	223.39
974.73	223.37
975.02	223.36
975.31	223.36
975.61	223.36
975.90	223.35
976.19	223.35
976.49	223.36
976.78	223.36
977.07	223.37
977.37	223.37
977.66	223.39
977.95	223.37
978.24	223.38
978.54	223.40
978.83	223.40
979.12	223.39
979.42	223.39
979.71	223.37
980.00	223.37
980.29	223.37
980.59	223.35
980.88	223.38
981.17	223.37
981.46	223.37
981.76	223.37
982.05	223.40
982.34	223.41
982.63	223.41
982.93	223.41
983.22	223.43
983.51	223.44
983.80	223.45
984.09	223.46
984.39	223.45
984.68	223.43
984.97	223.44
985.26	223.43
985.55	223.44
985.85	223.42
986.14	223.43
986.43	223.44
986.72	223.43
987.01	223.40
987.30	223.40
987.59	223.40
987.89	223.40
988.18	223.37
988.47	223.36
988.76	223.35
989.05	223.35
989.34	223.33
989.63	223.35
989.92	223.34
990.22	223.33
990.51	223.33
990.80	223.32
991.09	223.33
991.38	223.34
991.67	223.33
991.96	223.33
992.25	223.33
992.54	223.31
992.83	223.31
993.12	223.31
993.41	223.32
993.70	223.36
993.99	223.38
994.28	223.40
994.58	223.42
994.87	223.41
995.16	223.40
995.45	223.39
995.74	223.36
996.03	223.37
996.32	223.39
996.61	223.41
996.90	223.41
997.19	223.40
997.48	223.40
997.77	223.39
998.06	223.40
998.34	223.39
998.63	223.40
998.92	223.40
999.21	223.42
999.50	223.42
999.79	223.38
1000.08	223.38
1000.37	223.38
1000.66	223.36
1000.95	223.39
1001.24	223.40
1001.53	223.41
1001.82	223.40
1002.11	223.38
1002.40	223.39
1002.68	223.41
1002.97	223.48
1003.26	223.47
1003.55	223.45
1003.84	223.46
1004.13	223.49
1004.42	223.49
1004.71	223.48
1004.99	223.48
1005.28	223.49
1005.57	223.49
1005.86	223.48
1006.15	223.47
1006.44	223.45
1006.72	223.46
1007.01	223.45
1007.30	223.44
1007.59	223.43
1007.88	223.43
1008.17	223.44
1008.45	223.42
1008.74	223.38
1009.03	223.33
1009.32	223.34
1009.60	223.34
1009.89	223.33
1010.18	223.29
1010.47	223.29
1010.76	223.29
1011.04	223.29
1011.33	223.29
1011.62	223.29
1011.91	223.30
1012.19	223.31
1012.48	223.31
1012.77	223.31
1013.05	223.35
1013.34	223.34
1013.63	223.34
1013.92	223.34
1014.20	223.34
1014.49	223.34
1014.78	223.35
1015.06	223.32
1015.35	223.32
1015.64	223.33
1015.92	223.35
1016.21	223.35
1016.50	223.35
1016.78	223.36
1017.07	223.37
1017.36	223.36
1017.64	223.34
1017.93	223.34
1018.22	223.33
1018.50	223.33
1018.79	223.33
1019.08	223.29
1019.36	223.30
1019.65	223.29
1019.93	223.31
1020.22	223.33
1020.51	223.38
1020.79	223.36
1021.08	223.18
1021.36	223.16
1021.65	223.27
1021.94	223.28
1022.22	223.36
1022.51	223.11
1022.79	223.81
1023.08	223.46
1023.36	224.48
1023.65	223.06
>>>>>End Processed Spectral Data<<<<<
