SpectraSuite Data File
++++++++++++++++++++++++++++++++++++
Date: Wed Sep 30 18:34:02 EDT 2015
User: lab3
Dark Spectrum Present: No
Reference Spectrum Present: No
Number of Sampled Component Spectra: 1
Spectrometers: USB2E7196
Integration Time (usec): 36000 (USB2E7196)
Spectra Averaged: 3000 (USB2E7196)
Boxcar Smoothing: 10 (USB2E7196)
Correct for Electrical Dark: No (USB2E7196)
Strobe/Lamp Enabled: No (USB2E7196)
Correct for Detector Non-linearity: No (USB2E7196)
Correct for Stray Light: No (USB2E7196)
Number of Pixels in Processed Spectrum: 2048
>>>>>Begin Processed Spectral Data<<<<<
339.09	0.00
339.48	210.42
339.86	211.91
340.24	213.24
340.63	214.74
341.01	217.66
341.39	217.36
341.78	218.66
342.16	219.94
342.54	220.35
342.93	208.97
343.31	219.53
343.69	220.07
344.07	220.52
344.46	220.95
344.84	221.33
345.22	221.57
345.60	221.82
345.99	222.02
346.37	222.16
346.75	222.26
347.13	222.34
347.52	222.41
347.90	222.49
348.28	222.52
348.66	222.58
349.05	222.58
349.43	222.62
349.81	222.68
350.19	222.74
350.57	222.81
350.96	222.89
351.34	222.99
351.72	223.07
352.10	223.18
352.48	223.26
352.87	223.31
353.25	223.38
353.63	223.45
354.01	223.51
354.39	223.59
354.77	223.66
355.15	223.76
355.54	223.82
355.92	223.86
356.30	223.94
356.68	224.08
357.06	224.15
357.44	224.21
357.82	224.27
358.20	224.38
358.58	224.44
358.97	224.50
359.35	224.58
359.73	224.66
360.11	224.71
360.49	224.77
360.87	224.82
361.25	224.87
361.63	224.95
362.01	225.00
362.39	225.02
362.77	225.07
363.15	225.10
363.53	225.14
363.91	225.17
364.29	225.18
364.67	225.11
365.05	225.13
365.43	225.16
365.81	225.18
366.19	225.19
366.57	225.24
366.95	225.24
367.33	225.21
367.71	225.21
368.09	225.22
368.47	225.22
368.85	225.21
369.23	225.22
369.61	225.17
369.99	225.18
370.37	225.18
370.75	225.24
371.13	225.20
371.51	225.17
371.89	225.14
372.27	225.12
372.65	225.10
373.03	225.06
373.41	225.02
373.78	224.98
374.16	224.88
374.54	224.80
374.92	224.75
375.30	224.71
375.68	224.65
376.06	224.60
376.44	224.55
376.82	224.50
377.19	224.44
377.57	224.39
377.95	224.30
378.33	224.25
378.71	224.11
379.09	224.06
379.47	224.02
379.84	223.95
380.22	223.89
380.60	223.81
380.98	223.76
381.36	223.69
381.73	223.63
382.11	223.61
382.49	223.57
382.87	223.51
383.25	223.46
383.62	223.53
384.00	223.46
384.38	223.43
384.76	223.40
385.13	223.39
385.51	223.35
385.89	223.30
386.27	223.26
386.64	223.24
387.02	223.18
387.40	223.14
387.78	223.11
388.15	223.08
388.53	223.06
388.91	223.03
389.29	223.00
389.66	223.00
390.04	222.96
390.42	222.95
390.79	222.92
391.17	222.90
391.55	222.77
391.92	222.76
392.30	222.76
392.68	222.73
393.05	222.71
393.43	222.70
393.81	222.71
394.18	222.69
394.56	222.69
394.94	222.72
395.31	222.72
395.69	222.75
396.06	222.78
396.44	222.80
396.82	222.80
397.19	222.88
397.57	222.89
397.95	222.93
398.32	222.93
398.70	222.97
399.07	223.03
399.45	223.07
399.82	223.10
400.20	223.13
400.58	223.19
400.95	223.20
401.33	223.27
401.70	223.40
402.08	223.48
402.45	223.56
402.83	223.66
403.20	223.75
403.58	223.84
403.95	223.95
404.33	224.07
404.71	224.20
405.08	224.37
405.46	224.51
405.83	224.66
406.21	224.82
406.58	225.00
406.96	225.18
407.33	225.39
407.70	225.62
408.08	225.94
408.45	226.22
408.83	226.52
409.20	226.79
409.58	227.04
409.95	227.37
410.33	227.74
410.70	228.08
411.08	228.49
411.45	228.91
411.82	229.34
412.20	229.84
412.57	230.43
412.95	230.89
413.32	231.50
413.69	232.12
414.07	232.77
414.44	233.49
414.82	234.22
415.19	235.08
415.56	235.95
415.94	236.84
416.31	237.86
416.68	238.87
417.06	240.05
417.43	241.15
417.81	242.42
418.18	243.72
418.55	245.14
418.93	246.60
419.30	248.14
419.67	249.78
420.04	251.47
420.42	253.24
420.79	255.27
421.16	257.32
421.54	259.41
421.91	261.59
422.28	263.86
422.66	266.31
423.03	268.64
423.40	271.09
423.77	273.72
424.15	276.40
424.52	279.21
424.89	282.24
425.26	285.25
425.64	288.04
426.01	291.19
426.38	294.41
426.75	297.75
427.13	301.17
427.50	304.71
427.87	308.41
428.24	312.14
428.61	315.72
428.99	319.58
429.36	323.81
429.73	327.87
430.10	331.90
430.47	336.03
430.85	340.27
431.22	344.78
431.59	349.42
431.96	353.95
432.33	358.97
432.70	363.72
433.08	369.34
433.45	374.66
433.82	379.87
434.19	385.69
434.56	391.40
434.93	396.90
435.30	402.36
435.68	408.49
436.05	414.49
436.42	420.49
436.79	425.96
437.16	431.87
437.53	438.19
437.90	444.49
438.27	450.65
438.64	457.32
439.01	463.37
439.38	468.89
439.75	474.20
440.13	480.26
440.50	486.02
440.87	490.55
441.24	495.54
441.61	501.05
441.98	505.09
442.35	509.87
442.72	514.80
443.09	519.50
443.46	522.52
443.83	524.74
444.20	526.62
444.57	529.36
444.94	530.96
445.31	532.62
445.68	534.11
446.05	535.21
446.42	535.03
446.79	534.74
447.16	534.49
447.53	534.31
447.90	532.50
448.27	530.81
448.64	528.16
449.01	526.39
449.37	522.57
449.74	519.09
450.11	514.63
450.48	509.71
450.85	504.76
451.22	500.55
451.59	496.46
451.96	492.71
452.33	487.26
452.70	482.41
453.07	476.48
453.43	470.55
453.80	464.82
454.17	459.31
454.54	454.21
454.91	448.46
455.28	443.01
455.65	437.87
456.02	432.42
456.38	428.01
456.75	422.34
457.12	417.76
457.49	413.15
457.86	408.74
458.23	404.89
458.59	400.65
458.96	396.27
459.33	392.41
459.70	388.49
460.07	385.49
460.43	381.96
460.80	378.66
461.17	375.74
461.54	372.60
461.91	369.67
462.27	366.68
462.64	364.22
463.01	361.43
463.38	358.62
463.74	356.05
464.11	353.77
464.48	351.70
464.85	349.49
465.21	347.79
465.58	345.92
465.95	343.76
466.32	342.02
466.68	340.33
467.05	338.63
467.42	336.98
467.78	335.21
468.15	333.56
468.52	332.35
468.88	330.75
469.25	329.29
469.62	328.13
469.98	326.86
470.35	325.74
470.72	324.73
471.08	323.70
471.45	322.84
471.82	321.90
472.18	320.92
472.55	320.29
472.92	319.51
473.28	318.90
473.65	318.27
474.02	317.67
474.38	317.19
474.75	316.90
475.11	316.50
475.48	316.35
475.85	316.19
476.21	316.13
476.58	316.12
476.94	316.31
477.31	316.41
477.67	316.56
478.04	316.80
478.41	317.11
478.77	317.55
479.14	317.87
479.50	318.41
479.87	319.08
480.23	319.75
480.60	320.40
480.96	321.08
481.33	322.01
481.69	322.93
482.06	323.86
482.42	324.73
482.79	325.79
483.15	326.99
483.52	328.34
483.88	329.67
484.25	331.07
484.61	332.53
484.98	334.09
485.34	335.85
485.71	337.66
486.07	339.61
486.44	341.54
486.80	343.69
487.17	345.88
487.53	348.30
487.90	350.82
488.26	353.54
488.62	356.42
488.99	359.30
489.35	362.32
489.72	365.56
490.08	368.98
490.44	372.47
490.81	376.15
491.17	379.91
491.54	383.92
491.90	388.05
492.26	392.46
492.63	397.12
492.99	401.97
493.36	406.97
493.72	412.22
494.08	417.61
494.45	423.29
494.81	429.19
495.17	435.20
495.54	441.55
495.90	448.22
496.26	455.03
496.63	462.07
496.99	469.38
497.35	477.06
497.72	485.04
498.08	493.18
498.44	501.56
498.80	510.49
499.17	519.64
499.53	529.11
499.89	538.83
500.26	548.72
500.62	558.88
500.98	569.71
501.34	580.67
501.71	592.15
502.07	603.87
502.43	615.96
502.79	628.41
503.16	641.27
503.52	654.31
503.88	667.68
504.24	681.49
504.60	695.60
504.97	710.09
505.33	724.94
505.69	740.68
506.05	756.66
506.41	772.67
506.78	788.99
507.14	805.82
507.50	823.21
507.86	840.95
508.22	858.95
508.59	876.98
508.95	895.74
509.31	914.93
509.67	934.80
510.03	954.94
510.39	975.29
510.75	995.85
511.12	1016.68
511.48	1037.89
511.84	1059.20
512.20	1080.82
512.56	1103.51
512.92	1126.51
513.28	1149.22
513.64	1172.19
514.00	1195.60
514.37	1219.32
514.73	1243.00
515.09	1266.57
515.45	1290.57
515.81	1315.15
516.17	1339.80
516.53	1364.15
516.89	1388.60
517.25	1413.20
517.61	1437.99
517.97	1463.01
518.33	1487.81
518.69	1512.87
519.05	1538.16
519.41	1563.58
519.77	1589.29
520.13	1614.25
520.49	1639.33
520.85	1664.65
521.21	1689.88
521.57	1715.70
521.93	1740.87
522.29	1766.89
522.65	1792.63
523.01	1818.16
523.37	1843.02
523.73	1868.50
524.09	1894.14
524.45	1919.72
524.81	1944.89
525.17	1969.98
525.53	1994.60
525.89	2019.22
526.25	2043.98
526.61	2068.17
526.97	2092.71
527.33	2117.15
527.68	2141.54
528.04	2165.06
528.40	2188.47
528.76	2212.08
529.12	2234.64
529.48	2257.67
529.84	2278.86
530.20	2300.60
530.56	2322.08
530.91	2343.59
531.27	2364.60
531.63	2385.00
531.99	2404.84
532.35	2424.40
532.71	2444.13
533.07	2464.52
533.42	2483.29
533.78	2502.53
534.14	2521.67
534.50	2540.04
534.86	2558.97
535.21	2576.11
535.57	2593.29
535.93	2609.53
536.29	2624.63
536.65	2640.42
537.00	2655.10
537.36	2670.39
537.72	2684.59
538.08	2698.64
538.44	2711.55
538.79	2724.65
539.15	2736.01
539.51	2747.28
539.87	2758.05
540.22	2766.67
540.58	2775.39
540.94	2784.79
541.29	2792.52
541.65	2799.44
542.01	2805.75
542.37	2810.24
542.72	2816.50
543.08	2822.17
543.44	2827.92
543.79	2832.80
544.15	2837.05
544.51	2841.11
544.87	2844.26
545.22	2846.96
545.58	2848.55
545.94	2850.59
546.29	2851.26
546.65	2852.17
547.01	2853.05
547.36	2854.19
547.72	2855.58
548.07	2855.39
548.43	2854.48
548.79	2852.98
549.14	2851.53
549.50	2850.49
549.86	2848.81
550.21	2844.66
550.57	2841.04
550.92	2835.84
551.28	2831.27
551.64	2826.41
551.99	2822.08
552.35	2817.34
552.70	2812.15
553.06	2807.61
553.41	2802.55
553.77	2796.88
554.13	2791.87
554.48	2786.08
554.84	2778.50
555.19	2770.94
555.55	2762.80
555.90	2755.16
556.26	2748.70
556.61	2741.64
556.97	2732.45
557.32	2724.09
557.68	2716.11
558.03	2707.36
558.39	2699.41
558.74	2691.73
559.10	2682.81
559.45	2673.62
559.81	2664.47
560.16	2654.89
560.52	2644.71
560.87	2635.53
561.23	2626.12
561.58	2616.17
561.94	2605.99
562.29	2595.33
562.64	2585.22
563.00	2575.49
563.35	2565.72
563.71	2554.89
564.06	2543.52
564.42	2533.21
564.77	2522.46
565.12	2511.79
565.48	2500.79
565.83	2490.42
566.19	2480.08
566.54	2469.45
566.89	2457.68
567.25	2446.18
567.60	2435.44
567.96	2424.32
568.31	2411.94
568.66	2399.26
569.02	2387.64
569.37	2375.84
569.72	2364.61
570.08	2352.51
570.43	2339.88
570.78	2326.96
571.14	2313.95
571.49	2301.64
571.84	2289.61
572.20	2276.13
572.55	2263.21
572.90	2250.21
573.26	2236.53
573.61	2222.16
573.96	2207.89
574.31	2194.05
574.67	2180.43
575.02	2166.19
575.37	2151.62
575.72	2137.34
576.08	2123.67
576.43	2108.89
576.78	2094.03
577.13	2080.00
577.49	2066.23
577.84	2052.86
578.19	2038.62
578.54	2023.86
578.90	2008.59
579.25	1993.06
579.60	1979.11
579.95	1964.73
580.30	1950.36
580.66	1936.13
581.01	1921.43
581.36	1907.24
581.71	1893.62
582.06	1879.48
582.42	1865.49
582.77	1852.28
583.12	1838.61
583.47	1824.93
583.82	1811.40
584.17	1797.72
584.53	1783.92
584.88	1770.10
585.23	1755.99
585.58	1742.40
585.93	1729.17
586.28	1716.76
586.63	1704.21
586.98	1690.79
587.34	1677.70
587.69	1664.09
588.04	1650.67
588.39	1637.96
588.74	1624.72
589.09	1611.25
589.44	1597.72
589.79	1584.78
590.14	1571.64
590.49	1558.75
590.84	1545.79
591.19	1533.45
591.54	1520.67
591.89	1507.68
592.25	1495.04
592.60	1481.89
592.95	1469.30
593.30	1457.07
593.65	1444.71
594.00	1432.47
594.35	1421.14
594.70	1408.81
595.05	1397.55
595.40	1386.19
595.75	1374.20
596.10	1363.03
596.45	1352.09
596.80	1341.62
597.15	1330.86
597.50	1320.10
597.85	1309.54
598.19	1299.19
598.54	1288.28
598.89	1278.09
599.24	1268.23
599.59	1258.06
599.94	1248.94
600.29	1239.75
600.64	1230.35
600.99	1220.32
601.34	1210.81
601.69	1200.65
602.04	1191.68
602.39	1182.57
602.74	1173.72
603.08	1165.14
603.43	1156.04
603.78	1146.73
604.13	1137.57
604.48	1128.39
604.83	1119.49
605.18	1110.45
605.53	1101.37
605.87	1092.37
606.22	1083.66
606.57	1074.65
606.92	1065.70
607.27	1056.70
607.62	1047.73
607.96	1038.95
608.31	1031.17
608.66	1023.02
609.01	1015.27
609.36	1007.44
609.70	999.35
610.05	991.11
610.40	983.23
610.75	975.53
611.10	968.07
611.44	960.17
611.79	952.63
612.14	944.71
612.49	936.88
612.83	929.57
613.18	922.36
613.53	914.99
613.88	907.70
614.22	901.04
614.57	894.16
614.92	887.24
615.27	880.37
615.61	873.32
615.96	866.51
616.31	859.61
616.65	852.64
617.00	845.92
617.35	839.29
617.70	832.70
618.04	826.17
618.39	819.69
618.74	813.57
619.08	807.24
619.43	801.18
619.78	795.19
620.12	788.95
620.47	782.90
620.82	776.86
621.16	771.18
621.51	765.15
621.85	759.11
622.20	753.11
622.55	747.30
622.89	741.43
623.24	735.57
623.59	729.86
623.93	724.17
624.28	718.63
624.62	713.09
624.97	707.50
625.32	702.05
625.66	696.47
626.01	690.91
626.35	685.47
626.70	680.08
627.04	674.85
627.39	669.71
627.73	664.65
628.08	659.83
628.43	654.88
628.77	649.98
629.12	645.20
629.46	640.66
629.81	635.95
630.15	631.15
630.50	626.48
630.84	621.95
631.19	617.63
631.53	613.34
631.88	608.97
632.22	604.69
632.57	600.64
632.91	596.54
633.26	592.52
633.60	588.58
633.95	584.76
634.29	580.81
634.64	576.78
634.98	572.67
635.32	568.73
635.67	564.95
636.01	561.11
636.36	557.30
636.70	553.65
637.05	549.96
637.39	546.44
637.73	542.83
638.08	539.30
638.42	535.75
638.77	532.06
639.11	528.36
639.45	524.67
639.80	520.99
640.14	517.49
640.49	513.96
640.83	510.35
641.17	506.72
641.52	503.30
641.86	499.88
642.20	496.62
642.55	493.21
642.89	489.84
643.23	486.73
643.58	483.85
643.92	480.82
644.26	477.87
644.61	474.89
644.95	471.92
645.29	468.86
645.64	465.78
645.98	462.85
646.32	460.08
646.66	457.33
647.01	454.54
647.35	451.82
647.69	448.99
648.04	446.25
648.38	443.59
648.72	440.88
649.06	438.23
649.41	435.64
649.75	433.03
650.09	430.47
650.43	427.88
650.78	425.28
651.12	422.68
651.46	420.14
651.80	417.73
652.14	415.41
652.49	413.10
652.83	410.85
653.17	408.59
653.51	406.41
653.85	404.28
654.20	402.11
654.54	399.83
654.88	397.73
655.22	395.71
655.56	393.67
655.90	391.71
656.25	389.77
656.59	387.81
656.93	385.96
657.27	384.18
657.61	382.27
657.95	380.43
658.29	378.60
658.64	376.80
658.98	374.96
659.32	373.16
659.66	371.47
660.00	369.78
660.34	368.13
660.68	366.41
661.02	364.64
661.36	362.98
661.70	361.39
662.05	359.80
662.39	358.20
662.73	356.66
663.07	355.15
663.41	353.66
663.75	352.21
664.09	350.78
664.43	349.26
664.77	347.84
665.11	346.35
665.45	344.94
665.79	343.52
666.13	342.11
666.47	340.68
666.81	339.21
667.15	337.73
667.49	336.33
667.83	335.00
668.17	333.72
668.51	332.45
668.85	331.20
669.19	330.00
669.53	328.74
669.87	327.47
670.21	326.23
670.55	325.00
670.89	323.84
671.23	322.63
671.57	321.44
671.91	320.30
672.25	319.23
672.58	318.17
672.92	317.08
673.26	316.05
673.60	315.03
673.94	314.01
674.28	313.03
674.62	312.05
674.96	311.04
675.30	310.08
675.64	309.11
675.97	308.15
676.31	307.16
676.65	306.20
676.99	305.30
677.33	304.33
677.67	303.42
678.01	302.44
678.34	301.52
678.68	300.67
679.02	299.79
679.36	298.91
679.70	298.03
680.04	297.19
680.37	296.32
680.71	295.48
681.05	294.70
681.39	293.89
681.73	293.04
682.06	292.23
682.40	291.43
682.74	290.64
683.08	289.88
683.42	289.11
683.75	288.41
684.09	287.64
684.43	286.92
684.77	286.18
685.10	285.50
685.44	284.80
685.78	284.08
686.12	283.40
686.45	282.71
686.79	282.01
687.13	281.34
687.46	280.65
687.80	279.98
688.14	279.26
688.48	278.61
688.81	277.96
689.15	277.36
689.49	276.72
689.82	276.09
690.16	275.42
690.50	274.80
690.83	274.17
691.17	273.57
691.51	272.98
691.84	272.41
692.18	271.80
692.52	271.18
692.85	270.60
693.19	270.04
693.52	269.48
693.86	268.93
694.20	268.38
694.53	267.86
694.87	267.32
695.21	266.81
695.54	266.29
695.88	265.76
696.21	265.20
696.55	264.68
696.88	264.16
697.22	263.66
697.56	263.17
697.89	262.63
698.23	262.11
698.56	261.58
698.90	261.09
699.23	260.60
699.57	260.14
699.90	259.67
700.24	259.18
700.58	258.73
700.91	258.30
701.25	257.94
701.58	257.56
701.92	257.17
702.25	256.74
702.59	256.30
702.92	255.90
703.26	255.49
703.59	255.09
703.93	254.77
704.26	254.38
704.60	253.99
704.93	253.62
705.26	253.24
705.60	252.91
705.93	252.53
706.27	252.20
706.60	251.87
706.94	251.55
707.27	251.16
707.61	250.80
707.94	250.42
708.27	249.97
708.61	249.58
708.94	249.21
709.28	248.87
709.61	248.54
709.94	248.23
710.28	247.92
710.61	247.63
710.95	247.24
711.28	247.01
711.61	246.71
711.95	246.44
712.28	246.15
712.61	245.84
712.95	245.61
713.28	245.38
713.61	245.08
713.95	244.78
714.28	244.54
714.61	244.27
714.95	244.02
715.28	243.75
715.61	243.50
715.95	243.26
716.28	243.01
716.61	242.79
716.95	242.54
717.28	242.30
717.61	242.07
717.94	241.84
718.28	241.54
718.61	241.31
718.94	241.06
719.27	240.85
719.61	240.65
719.94	240.42
720.27	240.15
720.60	239.94
720.94	239.74
721.27	239.54
721.60	239.36
721.93	239.17
722.27	239.02
722.60	238.85
722.93	238.65
723.26	238.46
723.59	238.25
723.93	238.08
724.26	237.91
724.59	237.72
724.92	237.55
725.25	237.42
725.59	237.25
725.92	237.10
726.25	236.94
726.58	236.79
726.91	236.62
727.24	236.47
727.57	236.32
727.91	236.15
728.24	236.01
728.57	235.85
728.90	235.71
729.23	235.53
729.56	235.43
729.89	235.28
730.22	235.13
730.55	234.99
730.89	234.84
731.22	234.69
731.55	234.55
731.88	234.42
732.21	234.26
732.54	234.12
732.87	234.00
733.20	233.88
733.53	233.75
733.86	233.65
734.19	233.51
734.52	233.40
734.85	233.36
735.18	233.21
735.51	233.12
735.84	233.00
736.17	232.92
736.50	232.75
736.83	232.76
737.16	232.66
737.49	232.56
737.82	232.45
738.15	232.37
738.48	232.27
738.81	232.17
739.14	232.07
739.47	231.96
739.80	231.85
740.13	231.75
740.46	231.63
740.79	231.51
741.12	231.42
741.45	231.30
741.78	231.15
742.11	231.09
742.44	230.98
742.77	230.90
743.10	230.80
743.43	230.71
743.75	230.51
744.08	230.58
744.41	230.49
744.74	230.41
745.07	230.30
745.40	230.23
745.73	230.19
746.06	230.11
746.39	230.04
746.71	229.96
747.04	229.87
747.37	229.80
747.70	229.75
748.03	229.67
748.36	229.61
748.68	229.54
749.01	229.43
749.34	229.37
749.67	229.29
750.00	229.24
750.33	229.24
750.65	229.18
750.98	228.96
751.31	228.89
751.64	228.83
751.97	228.81
752.29	228.74
752.62	228.63
752.95	228.55
753.28	228.48
753.60	228.41
753.93	228.37
754.26	228.32
754.59	228.22
754.91	228.15
755.24	228.07
755.57	228.05
755.90	227.98
756.22	227.90
756.55	227.83
756.88	227.73
757.20	227.60
757.53	227.51
757.86	227.46
758.19	227.41
758.51	227.35
758.84	227.25
759.17	227.19
759.49	227.15
759.82	227.14
760.15	227.10
760.47	227.05
760.80	226.97
761.13	226.92
761.45	226.87
761.78	226.82
762.11	226.78
762.43	226.68
762.76	226.63
763.08	226.60
763.41	226.56
763.74	226.53
764.06	226.48
764.39	226.44
764.71	226.39
765.04	226.33
765.37	226.28
765.69	226.23
766.02	226.18
766.34	226.13
766.67	226.05
767.00	226.02
767.32	226.04
767.65	226.06
767.97	226.01
768.30	225.98
768.62	225.94
768.95	225.89
769.27	225.85
769.60	225.83
769.92	225.77
770.25	225.71
770.57	225.65
770.90	225.61
771.22	225.57
771.55	225.54
771.87	225.52
772.20	225.48
772.52	225.54
772.85	225.63
773.17	225.59
773.50	225.55
773.82	225.50
774.15	225.41
774.47	225.31
774.80	225.27
775.12	225.24
775.45	225.20
775.77	225.19
776.09	225.16
776.42	225.13
776.74	225.14
777.07	225.11
777.39	225.09
777.72	225.06
778.04	225.05
778.36	225.01
778.69	224.98
779.01	224.97
779.33	224.85
779.66	224.71
779.98	224.68
780.31	224.67
780.63	224.69
780.95	224.69
781.28	224.67
781.60	224.64
781.92	224.62
782.25	224.59
782.57	224.57
782.89	224.54
783.22	224.51
783.54	224.47
783.86	224.46
784.19	224.43
784.51	224.45
784.83	224.42
785.16	224.39
785.48	224.38
785.80	224.36
786.12	224.35
786.45	224.33
786.77	224.33
787.09	224.30
787.42	224.24
787.74	224.23
788.06	224.21
788.38	224.20
788.71	224.18
789.03	224.18
789.35	224.17
789.67	224.15
789.99	224.14
790.32	224.11
790.64	224.11
790.96	224.19
791.28	224.14
791.61	224.11
791.93	224.11
792.25	224.08
792.57	224.15
792.89	224.11
793.21	224.10
793.54	224.08
793.86	224.06
794.18	224.05
794.50	224.01
794.82	224.00
795.14	224.00
795.47	224.00
795.79	223.99
796.11	223.96
796.43	223.94
796.75	223.92
797.07	223.92
797.39	223.90
797.71	223.80
798.04	223.79
798.36	223.79
798.68	223.77
799.00	223.77
799.32	223.70
799.64	223.71
799.96	223.70
800.28	223.71
800.60	223.70
800.92	223.69
801.24	223.68
801.56	223.68
801.89	223.66
802.21	223.65
802.53	223.62
802.85	223.63
803.17	223.67
803.49	223.65
803.81	223.62
804.13	223.61
804.45	223.59
804.77	223.59
805.09	223.58
805.41	223.56
805.73	223.53
806.05	223.49
806.37	223.47
806.69	223.45
807.01	223.43
807.33	223.42
807.65	223.38
807.97	223.41
808.28	223.39
808.60	223.37
808.92	223.35
809.24	223.40
809.56	223.37
809.88	223.33
810.20	223.33
810.52	223.34
810.84	223.32
811.16	223.30
811.48	223.28
811.80	223.30
812.12	223.29
812.43	223.31
812.75	223.31
813.07	223.29
813.39	223.29
813.71	223.27
814.03	223.26
814.35	223.25
814.67	223.21
814.98	223.20
815.30	223.19
815.62	223.16
815.94	223.09
816.26	223.10
816.58	223.08
816.89	223.07
817.21	223.05
817.53	223.05
817.85	223.06
818.17	223.05
818.48	223.00
818.80	223.02
819.12	223.00
819.44	222.97
819.76	222.96
820.07	222.95
820.39	222.94
820.71	222.95
821.03	222.94
821.34	222.93
821.66	222.93
821.98	222.93
822.30	222.93
822.61	222.99
822.93	222.97
823.25	222.96
823.57	222.95
823.88	222.96
824.20	222.95
824.52	222.96
824.83	222.95
825.15	222.93
825.47	222.92
825.79	222.92
826.10	222.91
826.42	222.91
826.74	222.92
827.05	222.92
827.37	222.92
827.69	222.91
828.00	222.91
828.32	222.92
828.64	222.90
828.95	222.96
829.27	222.92
829.58	222.92
829.90	222.93
830.22	222.93
830.53	222.91
830.85	222.90
831.17	222.87
831.48	222.86
831.80	222.87
832.11	222.86
832.43	222.85
832.75	222.84
833.06	222.90
833.38	222.87
833.69	222.86
834.01	222.85
834.32	222.85
834.64	222.84
834.96	222.83
835.27	222.83
835.59	222.80
835.90	222.79
836.22	222.78
836.53	222.76
836.85	222.75
837.16	222.84
837.48	222.85
837.79	222.88
838.11	222.88
838.42	222.88
838.74	222.89
839.05	222.88
839.37	222.87
839.68	222.80
840.00	222.80
840.31	222.82
840.63	222.81
840.94	222.79
841.26	222.78
841.57	222.77
841.88	222.77
842.20	222.75
842.51	222.73
842.83	222.72
843.14	222.81
843.46	222.80
843.77	222.75
844.08	222.74
844.40	222.70
844.71	222.69
845.03	222.68
845.34	222.67
845.65	222.67
845.97	222.67
846.28	222.68
846.60	222.69
846.91	222.67
847.22	222.66
847.54	222.69
847.85	222.69
848.16	222.68
848.48	222.66
848.79	222.69
849.10	222.71
849.42	222.72
849.73	222.62
850.04	222.62
850.36	222.58
850.67	222.60
850.98	222.60
851.30	222.61
851.61	222.60
851.92	222.59
852.23	222.63
852.55	222.63
852.86	222.62
853.17	222.62
853.49	222.64
853.80	222.67
854.11	222.67
854.42	222.68
854.74	222.68
855.05	222.69
855.36	222.64
855.67	222.64
855.99	222.63
856.30	222.76
856.61	222.75
856.92	222.75
857.23	222.75
857.55	222.74
857.86	222.74
858.17	222.76
858.48	222.74
858.79	222.71
859.11	222.72
859.42	222.72
859.73	222.70
860.04	222.70
860.35	222.66
860.66	222.63
860.98	222.62
861.29	222.63
861.60	222.61
861.91	222.64
862.22	222.62
862.53	222.61
862.84	222.48
863.16	222.51
863.47	222.49
863.78	222.47
864.09	222.48
864.40	222.48
864.71	222.47
865.02	222.49
865.33	222.48
865.64	222.46
865.95	222.46
866.27	222.52
866.58	222.51
866.89	222.53
867.20	222.53
867.51	222.51
867.82	222.52
868.13	222.55
868.44	222.52
868.75	222.54
869.06	222.54
869.37	222.55
869.68	222.52
869.99	222.54
870.30	222.55
870.61	222.56
870.92	222.54
871.23	222.53
871.54	222.54
871.85	222.56
872.16	222.58
872.47	222.58
872.78	222.52
873.09	222.53
873.40	222.52
873.71	222.53
874.02	222.53
874.33	222.52
874.64	222.49
874.95	222.51
875.26	222.49
875.56	222.49
875.87	222.49
876.18	222.48
876.49	222.59
876.80	222.57
877.11	222.55
877.42	222.56
877.73	222.56
878.04	222.55
878.35	222.54
878.66	222.54
878.96	222.54
879.27	222.53
879.58	222.52
879.89	222.51
880.20	222.54
880.51	222.53
880.82	222.54
881.12	222.55
881.43	222.53
881.74	222.51
882.05	222.50
882.36	222.51
882.67	222.51
882.97	222.39
883.28	222.39
883.59	222.39
883.90	222.40
884.21	222.40
884.51	222.40
884.82	222.38
885.13	222.37
885.44	222.37
885.74	222.37
886.05	222.37
886.36	222.37
886.67	222.34
886.98	222.39
887.28	222.39
887.59	222.39
887.90	222.39
888.20	222.40
888.51	222.42
888.82	222.40
889.13	222.41
889.43	222.50
889.74	222.49
890.05	222.48
890.35	222.47
890.66	222.46
890.97	222.45
891.28	222.44
891.58	222.44
891.89	222.44
892.20	222.42
892.50	222.41
892.81	222.40
893.12	222.40
893.42	222.35
893.73	222.35
894.04	222.35
894.34	222.35
894.65	222.34
894.95	222.33
895.26	222.33
895.57	222.38
895.87	222.28
896.18	222.30
896.48	222.31
896.79	222.31
897.10	222.32
897.40	222.33
897.71	222.34
898.01	222.33
898.32	222.34
898.63	222.34
898.93	222.35
899.24	222.35
899.54	222.35
899.85	222.34
900.15	222.34
900.46	222.33
900.76	222.34
901.07	222.34
901.38	222.34
901.68	222.34
901.99	222.29
902.29	222.29
902.60	222.27
902.90	222.27
903.21	222.26
903.51	222.25
903.82	222.27
904.12	222.28
904.43	222.28
904.73	222.28
905.03	222.28
905.34	222.39
905.64	222.38
905.95	222.38
906.25	222.38
906.56	222.38
906.86	222.38
907.17	222.37
907.47	222.38
907.77	222.37
908.08	222.35
908.38	222.36
908.69	222.36
908.99	222.39
909.30	222.40
909.60	222.40
909.90	222.41
910.21	222.37
910.51	222.36
910.81	222.37
911.12	222.37
911.42	222.37
911.73	222.26
912.03	222.27
912.33	222.29
912.64	222.29
912.94	222.27
913.24	222.25
913.55	222.25
913.85	222.25
914.15	222.27
914.46	222.28
914.76	222.28
915.06	222.27
915.37	222.25
915.67	222.25
915.97	222.24
916.27	222.22
916.58	222.23
916.88	222.23
917.18	222.21
917.49	222.28
917.79	222.28
918.09	222.30
918.39	222.33
918.70	222.32
919.00	222.33
919.30	222.38
919.60	222.38
919.91	222.37
920.21	222.38
920.51	222.35
920.81	222.35
921.12	222.35
921.42	222.35
921.72	222.36
922.02	222.36
922.32	222.38
922.63	222.39
922.93	222.45
923.23	222.45
923.53	222.44
923.83	222.37
924.13	222.37
924.44	222.37
924.74	222.38
925.04	222.39
925.34	222.39
925.64	222.34
925.94	222.34
926.24	222.40
926.55	222.38
926.85	222.40
927.15	222.40
927.45	222.40
927.75	222.39
928.05	222.39
928.35	222.38
928.65	222.39
928.95	222.39
929.26	222.33
929.56	222.36
929.86	222.37
930.16	222.36
930.46	222.35
930.76	222.35
931.06	222.30
931.36	222.27
931.66	222.28
931.96	222.30
932.26	222.31
932.56	222.26
932.86	222.27
933.16	222.27
933.46	222.26
933.76	222.25
934.06	222.27
934.36	222.30
934.66	222.29
934.96	222.28
935.26	222.28
935.56	222.30
935.86	222.26
936.16	222.24
936.46	222.23
936.76	222.23
937.06	222.21
937.36	222.22
937.66	222.23
937.96	222.22
938.26	222.19
938.56	222.19
938.86	222.19
939.16	222.21
939.46	222.20
939.76	222.21
940.06	222.21
940.35	222.18
940.65	222.13
940.95	222.14
941.25	222.11
941.55	222.10
941.85	222.09
942.15	222.12
942.45	222.15
942.75	222.15
943.04	222.15
943.34	222.17
943.64	222.15
943.94	222.14
944.24	222.14
944.54	222.15
944.84	222.14
945.13	222.14
945.43	222.11
945.73	222.11
946.03	222.10
946.33	222.09
946.62	222.08
946.92	222.08
947.22	222.08
947.52	222.09
947.82	222.11
948.11	222.10
948.41	222.08
948.71	222.05
949.01	222.06
949.31	222.05
949.60	222.05
949.90	222.06
950.20	222.06
950.50	222.05
950.79	222.05
951.09	222.06
951.39	222.06
951.69	222.05
951.98	222.07
952.28	222.08
952.58	222.08
952.87	222.08
953.17	222.10
953.47	222.09
953.76	222.09
954.06	222.07
954.36	222.05
954.66	222.05
954.95	222.08
955.25	222.08
955.55	222.10
955.84	222.07
956.14	222.08
956.44	222.09
956.73	222.07
957.03	222.08
957.32	222.08
957.62	222.08
957.92	222.10
958.21	222.08
958.51	222.20
958.81	222.22
959.10	222.24
959.40	222.25
959.69	222.26
959.99	222.27
960.29	222.28
960.58	222.27
960.88	222.32
961.17	222.30
961.47	222.31
961.76	222.30
962.06	222.32
962.36	222.30
962.65	222.31
962.95	222.32
963.24	222.31
963.54	222.31
963.83	222.32
964.13	222.31
964.42	222.31
964.72	222.22
965.01	222.22
965.31	222.21
965.60	222.18
965.90	222.24
966.19	222.22
966.49	222.23
966.78	222.22
967.08	222.21
967.37	222.21
967.67	222.19
967.96	222.21
968.26	222.21
968.55	222.23
968.85	222.22
969.14	222.22
969.43	222.21
969.73	222.20
970.02	222.19
970.32	222.19
970.61	222.17
970.91	222.15
971.20	222.13
971.49	222.12
971.79	222.13
972.08	222.05
972.38	222.06
972.67	222.05
972.96	222.07
973.26	222.05
973.55	222.08
973.85	222.07
974.14	222.06
974.43	222.07
974.73	222.05
975.02	222.05
975.31	222.05
975.61	222.05
975.90	222.05
976.19	222.04
976.49	222.05
976.78	222.05
977.07	222.05
977.37	222.06
977.66	222.07
977.95	222.06
978.24	222.07
978.54	222.09
978.83	222.08
979.12	222.07
979.42	222.08
979.71	222.06
980.00	222.05
980.29	222.06
980.59	222.03
980.88	222.06
981.17	222.05
981.46	222.04
981.76	222.04
982.05	222.07
982.34	222.08
982.63	222.08
982.93	222.07
983.22	222.10
983.51	222.11
983.80	222.12
984.09	222.14
984.39	222.13
984.68	222.11
984.97	222.13
985.26	222.12
985.55	222.12
985.85	222.11
986.14	222.12
986.43	222.14
986.72	222.14
987.01	222.10
987.30	222.11
987.59	222.10
987.89	222.11
988.18	222.08
988.47	222.07
988.76	222.06
989.05	222.05
989.34	222.03
989.63	222.06
989.92	222.04
990.22	222.02
990.51	222.02
990.80	222.02
991.09	222.02
991.38	222.03
991.67	222.02
991.96	222.01
992.25	222.02
992.54	221.99
992.83	222.00
993.12	222.00
993.41	222.01
993.70	222.06
993.99	222.07
994.28	222.08
994.58	222.10
994.87	222.09
995.16	222.09
995.45	222.08
995.74	222.04
996.03	222.05
996.32	222.07
996.61	222.09
996.90	222.09
997.19	222.08
997.48	222.09
997.77	222.08
998.06	222.09
998.34	222.07
998.63	222.07
998.92	222.08
999.21	222.10
999.50	222.09
999.79	222.06
1000.08	222.05
1000.37	222.05
1000.66	222.04
1000.95	222.06
1001.24	222.07
1001.53	222.08
1001.82	222.09
1002.11	222.06
1002.40	222.07
1002.68	222.09
1002.97	222.16
1003.26	222.15
1003.55	222.13
1003.84	222.14
1004.13	222.17
1004.42	222.17
1004.71	222.16
1004.99	222.16
1005.28	222.18
1005.57	222.16
1005.86	222.16
1006.15	222.15
1006.44	222.13
1006.72	222.15
1007.01	222.13
1007.30	222.12
1007.59	222.11
1007.88	222.10
1008.17	222.11
1008.45	222.09
1008.74	222.04
1009.03	222.00
1009.32	222.00
1009.60	222.01
1009.89	222.01
1010.18	221.96
1010.47	221.96
1010.76	221.96
1011.04	221.96
1011.33	221.95
1011.62	221.97
1011.91	221.98
1012.19	221.99
1012.48	221.99
1012.77	221.99
1013.05	222.03
1013.34	222.03
1013.63	222.03
1013.92	222.04
1014.20	222.03
1014.49	222.04
1014.78	222.05
1015.06	222.01
1015.35	222.02
1015.64	222.03
1015.92	222.05
1016.21	222.06
1016.50	222.06
1016.78	222.07
1017.07	222.07
1017.36	222.06
1017.64	222.04
1017.93	222.04
1018.22	222.03
1018.50	222.03
1018.79	222.03
1019.08	222.00
1019.36	222.01
1019.65	222.00
1019.93	222.02
1020.22	222.04
1020.51	222.08
1020.79	222.07
1021.08	221.87
1021.36	221.89
1021.65	222.08
1021.94	221.95
1022.22	222.10
1022.51	221.78
1022.79	222.52
1023.08	222.02
1023.36	223.23
1023.65	221.76
>>>>>End Processed Spectral Data<<<<<
