SpectraSuite Data File
++++++++++++++++++++++++++++++++++++
Date: Wed Sep 30 16:46:57 EDT 2015
User: lab3
Dark Spectrum Present: No
Reference Spectrum Present: No
Number of Sampled Component Spectra: 1
Spectrometers: USB2E7196
Integration Time (usec): 36000 (USB2E7196)
Spectra Averaged: 3000 (USB2E7196)
Boxcar Smoothing: 10 (USB2E7196)
Correct for Electrical Dark: No (USB2E7196)
Strobe/Lamp Enabled: No (USB2E7196)
Correct for Detector Non-linearity: No (USB2E7196)
Correct for Stray Light: No (USB2E7196)
Number of Pixels in Processed Spectrum: 2048
>>>>>Begin Processed Spectral Data<<<<<
339.09	0.00
339.48	210.84
339.86	212.41
340.24	213.66
340.63	215.16
341.01	218.04
341.39	217.80
341.78	219.18
342.16	220.31
342.54	220.84
342.93	209.39
343.31	219.98
343.69	220.51
344.07	220.97
344.46	221.40
344.84	221.79
345.22	222.03
345.60	222.28
345.99	222.47
346.37	222.61
346.75	222.72
347.13	222.80
347.52	222.86
347.90	222.95
348.28	222.99
348.66	223.04
349.05	223.04
349.43	223.09
349.81	223.15
350.19	223.21
350.57	223.28
350.96	223.36
351.34	223.45
351.72	223.54
352.10	223.65
352.48	223.73
352.87	223.78
353.25	223.84
353.63	223.91
354.01	223.97
354.39	224.05
354.77	224.12
355.15	224.22
355.54	224.27
355.92	224.30
356.30	224.38
356.68	224.52
357.06	224.59
357.44	224.64
357.82	224.70
358.20	224.80
358.58	224.87
358.97	224.93
359.35	225.01
359.73	225.09
360.11	225.14
360.49	225.20
360.87	225.24
361.25	225.29
361.63	225.38
362.01	225.43
362.39	225.45
362.77	225.50
363.15	225.52
363.53	225.55
363.91	225.58
364.29	225.61
364.67	225.53
365.05	225.55
365.43	225.57
365.81	225.61
366.19	225.62
366.57	225.66
366.95	225.66
367.33	225.63
367.71	225.63
368.09	225.64
368.47	225.63
368.85	225.62
369.23	225.62
369.61	225.57
369.99	225.58
370.37	225.57
370.75	225.63
371.13	225.60
371.51	225.56
371.89	225.53
372.27	225.51
372.65	225.48
373.03	225.44
373.41	225.40
373.78	225.34
374.16	225.25
374.54	225.18
374.92	225.13
375.30	225.09
375.68	225.02
376.06	224.98
376.44	224.93
376.82	224.88
377.19	224.83
377.57	224.78
377.95	224.69
378.33	224.64
378.71	224.50
379.09	224.45
379.47	224.41
379.84	224.36
380.22	224.29
380.60	224.21
380.98	224.16
381.36	224.11
381.73	224.05
382.11	224.02
382.49	223.98
382.87	223.91
383.25	223.86
383.62	223.94
384.00	223.87
384.38	223.83
384.76	223.81
385.13	223.80
385.51	223.76
385.89	223.72
386.27	223.68
386.64	223.66
387.02	223.61
387.40	223.58
387.78	223.55
388.15	223.52
388.53	223.49
388.91	223.46
389.29	223.42
389.66	223.42
390.04	223.38
390.42	223.37
390.79	223.36
391.17	223.33
391.55	223.20
391.92	223.19
392.30	223.19
392.68	223.16
393.05	223.13
393.43	223.13
393.81	223.13
394.18	223.10
394.56	223.10
394.94	223.13
395.31	223.12
395.69	223.16
396.06	223.19
396.44	223.22
396.82	223.23
397.19	223.30
397.57	223.31
397.95	223.35
398.32	223.35
398.70	223.39
399.07	223.45
399.45	223.48
399.82	223.52
400.20	223.56
400.58	223.61
400.95	223.63
401.33	223.70
401.70	223.84
402.08	223.92
402.45	224.01
402.83	224.11
403.20	224.20
403.58	224.29
403.95	224.40
404.33	224.53
404.71	224.65
405.08	224.83
405.46	224.98
405.83	225.13
406.21	225.31
406.58	225.49
406.96	225.67
407.33	225.89
407.70	226.13
408.08	226.45
408.45	226.73
408.83	227.03
409.20	227.30
409.58	227.56
409.95	227.90
410.33	228.26
410.70	228.60
411.08	229.01
411.45	229.44
411.82	229.88
412.20	230.38
412.57	230.97
412.95	231.43
413.32	232.03
413.69	232.66
414.07	233.32
414.44	234.04
414.82	234.77
415.19	235.64
415.56	236.51
415.94	237.41
416.31	238.42
416.68	239.43
417.06	240.62
417.43	241.72
417.81	243.00
418.18	244.30
418.55	245.72
418.93	247.19
419.30	248.72
419.67	250.36
420.04	252.05
420.42	253.80
420.79	255.84
421.16	257.89
421.54	259.97
421.91	262.15
422.28	264.40
422.66	266.83
423.03	269.14
423.40	271.59
423.77	274.19
424.15	276.87
424.52	279.65
424.89	282.66
425.26	285.66
425.64	288.43
426.01	291.56
426.38	294.75
426.75	298.06
427.13	301.45
427.50	304.98
427.87	308.65
428.24	312.36
428.61	315.90
428.99	319.73
429.36	323.93
429.73	327.95
430.10	331.96
430.47	336.06
430.85	340.26
431.22	344.74
431.59	349.36
431.96	353.84
432.33	358.82
432.70	363.53
433.08	369.08
433.45	374.34
433.82	379.50
434.19	385.27
434.56	390.93
434.93	396.38
435.30	401.77
435.68	407.83
436.05	413.75
436.42	419.69
436.79	425.10
437.16	430.94
437.53	437.18
437.90	443.41
438.27	449.50
438.64	456.11
439.01	462.09
439.38	467.55
439.75	472.81
440.13	478.81
440.50	484.52
440.87	489.02
441.24	493.98
441.61	499.46
441.98	503.47
442.35	508.23
442.72	513.12
443.09	517.81
443.46	520.85
443.83	523.11
444.20	525.02
444.57	527.78
444.94	529.43
445.31	531.14
445.68	532.69
446.05	533.87
446.42	533.76
446.79	533.56
447.16	533.40
447.53	533.30
447.90	531.60
448.27	530.02
448.64	527.48
449.01	525.83
449.37	522.12
449.74	518.75
450.11	514.41
450.48	509.61
450.85	504.78
451.22	500.69
451.59	496.67
451.96	493.02
452.33	487.67
452.70	482.89
453.07	477.07
453.43	471.21
453.80	465.55
454.17	460.11
454.54	455.06
454.91	449.35
455.28	443.97
455.65	438.89
456.02	433.48
456.38	429.12
456.75	423.47
457.12	418.93
457.49	414.34
457.86	409.95
458.23	406.13
458.59	401.90
458.96	397.54
459.33	393.69
459.70	389.79
460.07	386.79
460.43	383.28
460.80	379.99
461.17	377.08
461.54	373.96
461.91	371.02
462.27	368.03
462.64	365.58
463.01	362.78
463.38	359.95
463.74	357.38
464.11	355.08
464.48	353.02
464.85	350.81
465.21	349.13
465.58	347.27
465.95	345.10
466.32	343.36
466.68	341.67
467.05	339.98
467.42	338.34
467.78	336.57
468.15	334.94
468.52	333.72
468.88	332.13
469.25	330.66
469.62	329.50
469.98	328.24
470.35	327.12
470.72	326.11
471.08	325.08
471.45	324.22
471.82	323.28
472.18	322.30
472.55	321.65
472.92	320.86
473.28	320.24
473.65	319.60
474.02	319.01
474.38	318.51
474.75	318.22
475.11	317.80
475.48	317.64
475.85	317.46
476.21	317.40
476.58	317.39
476.94	317.55
477.31	317.66
477.67	317.79
478.04	318.03
478.41	318.35
478.77	318.80
479.14	319.13
479.50	319.67
479.87	320.35
480.23	321.03
480.60	321.68
480.96	322.35
481.33	323.28
481.69	324.22
482.06	325.15
482.42	326.02
482.79	327.09
483.15	328.29
483.52	329.65
483.88	330.96
484.25	332.36
484.61	333.83
484.98	335.40
485.34	337.16
485.71	339.00
486.07	340.94
486.44	342.87
486.80	345.03
487.17	347.22
487.53	349.64
487.90	352.16
488.26	354.88
488.62	357.76
488.99	360.65
489.35	363.65
489.72	366.91
490.08	370.34
490.44	373.85
490.81	377.52
491.17	381.29
491.54	385.32
491.90	389.44
492.26	393.87
492.63	398.54
492.99	403.40
493.36	408.38
493.72	413.63
494.08	419.02
494.45	424.69
494.81	430.59
495.17	436.60
495.54	442.94
495.90	449.61
496.26	456.40
496.63	463.44
496.99	470.76
497.35	478.44
497.72	486.38
498.08	494.50
498.44	502.88
498.80	511.77
499.17	520.91
499.53	530.36
499.89	540.05
500.26	549.92
500.62	560.05
500.98	570.84
501.34	581.76
501.71	593.23
502.07	604.92
502.43	616.98
502.79	629.39
503.16	642.22
503.52	655.21
503.88	668.52
504.24	682.28
504.60	696.32
504.97	710.71
505.33	725.49
505.69	741.19
506.05	757.08
506.41	773.00
506.78	789.23
507.14	805.94
507.50	823.21
507.86	840.85
508.22	858.75
508.59	876.70
508.95	895.36
509.31	914.45
509.67	934.21
510.03	954.21
510.39	974.43
510.75	994.81
511.12	1015.48
511.48	1036.51
511.84	1057.68
512.20	1079.16
512.56	1101.76
512.92	1124.53
513.28	1146.99
513.64	1169.79
514.00	1193.03
514.37	1216.53
514.73	1240.08
515.09	1263.46
515.45	1287.27
515.81	1311.62
516.17	1336.02
516.53	1360.11
516.89	1384.31
517.25	1408.68
517.61	1433.25
517.97	1458.05
518.33	1482.68
518.69	1507.52
519.05	1532.61
519.41	1557.78
519.77	1583.23
520.13	1607.92
520.49	1632.83
520.85	1657.93
521.21	1682.88
521.57	1708.45
521.93	1733.32
522.29	1758.98
522.65	1784.41
523.01	1809.67
523.37	1834.15
523.73	1859.32
524.09	1884.73
524.45	1909.99
524.81	1934.80
525.17	1959.43
525.53	1983.71
525.89	2007.93
526.25	2032.28
526.61	2056.07
526.97	2080.24
527.33	2104.29
527.68	2128.19
528.04	2151.33
528.40	2174.30
528.76	2197.45
529.12	2219.60
529.48	2242.26
529.84	2263.04
530.20	2284.34
530.56	2305.27
530.91	2326.42
531.27	2347.01
531.63	2366.93
531.99	2386.32
532.35	2405.57
532.71	2425.00
533.07	2444.93
533.42	2463.35
533.78	2482.18
534.14	2500.98
534.50	2518.88
534.86	2537.43
535.21	2554.20
535.57	2570.79
535.93	2586.68
536.29	2601.33
536.65	2616.73
537.00	2631.06
537.36	2646.07
537.72	2660.02
538.08	2673.76
538.44	2686.34
538.79	2699.10
539.15	2710.11
539.51	2720.99
539.87	2731.28
540.22	2739.41
540.58	2747.79
540.94	2756.72
541.29	2764.15
541.65	2770.67
542.01	2776.70
542.37	2780.82
542.72	2786.82
543.08	2792.30
543.44	2797.66
543.79	2802.43
544.15	2806.31
544.51	2810.01
544.87	2812.77
545.22	2815.21
545.58	2816.56
545.94	2818.37
546.29	2818.77
546.65	2819.30
547.01	2819.94
547.36	2820.75
547.72	2821.89
548.07	2821.42
548.43	2820.37
548.79	2818.65
549.14	2816.91
549.50	2815.72
549.86	2813.64
550.21	2809.30
550.57	2805.44
550.92	2800.14
551.28	2795.38
551.64	2790.44
551.99	2785.90
552.35	2780.99
552.70	2775.58
553.06	2770.83
553.41	2765.53
553.77	2759.61
554.13	2754.51
554.48	2748.42
554.84	2740.83
555.19	2733.24
555.55	2724.99
555.90	2717.30
556.26	2710.68
556.61	2703.46
556.97	2694.09
557.32	2685.85
557.68	2677.72
558.03	2668.97
558.39	2661.05
558.74	2653.21
559.10	2644.29
559.45	2634.96
559.81	2625.75
560.16	2616.01
560.52	2605.86
560.87	2596.79
561.23	2587.33
561.58	2577.39
561.94	2567.37
562.29	2556.67
562.64	2546.55
563.00	2536.84
563.35	2527.03
563.71	2516.15
564.06	2504.85
564.42	2494.55
564.77	2483.77
565.12	2473.11
565.48	2462.14
565.83	2451.76
566.19	2441.52
566.54	2430.71
566.89	2419.13
567.25	2407.74
567.60	2397.10
567.96	2386.00
568.31	2373.58
568.66	2361.14
569.02	2349.71
569.37	2338.01
569.72	2326.91
570.08	2315.02
570.43	2302.58
570.78	2289.76
571.14	2276.96
571.49	2264.83
571.84	2252.92
572.20	2239.65
572.55	2226.98
572.90	2214.13
573.26	2200.46
573.61	2186.16
573.96	2172.16
574.31	2158.45
574.67	2144.89
575.02	2130.84
575.37	2116.47
575.72	2102.39
576.08	2088.70
576.43	2073.94
576.78	2059.26
577.13	2045.33
577.49	2031.61
577.84	2018.28
578.19	2004.17
578.54	1989.62
578.90	1974.54
579.25	1959.22
579.60	1945.41
579.95	1931.13
580.30	1916.95
580.66	1902.98
581.01	1888.51
581.36	1874.53
581.71	1861.17
582.06	1847.26
582.42	1833.56
582.77	1820.49
583.12	1806.93
583.47	1793.59
583.82	1780.33
584.17	1766.91
584.53	1753.40
584.88	1739.86
585.23	1725.98
585.58	1712.63
585.93	1699.59
586.28	1687.44
586.63	1675.05
586.98	1661.87
587.34	1648.94
587.69	1635.57
588.04	1622.41
588.39	1609.94
588.74	1596.90
589.09	1583.61
589.44	1570.38
589.79	1557.62
590.14	1544.74
590.49	1532.09
590.84	1519.32
591.19	1507.16
591.54	1494.53
591.89	1481.73
592.25	1469.26
592.60	1456.38
592.95	1444.04
593.30	1432.09
593.65	1419.91
594.00	1408.02
594.35	1396.85
594.70	1384.78
595.05	1373.67
595.40	1362.46
595.75	1350.69
596.10	1339.76
596.45	1329.07
596.80	1318.76
597.15	1308.23
597.50	1297.70
597.85	1287.38
598.19	1277.23
598.54	1266.58
598.89	1256.63
599.24	1246.97
599.59	1237.04
599.94	1228.17
600.29	1219.17
600.64	1209.90
600.99	1200.05
601.34	1190.62
601.69	1180.68
602.04	1171.92
602.39	1163.04
602.74	1154.39
603.08	1145.99
603.43	1137.04
603.78	1127.95
604.13	1118.98
604.48	1109.98
604.83	1101.26
605.18	1092.44
605.53	1083.56
605.87	1074.72
606.22	1066.15
606.57	1057.32
606.92	1048.53
607.27	1039.64
607.62	1030.86
607.96	1022.26
608.31	1014.73
608.66	1006.80
609.01	999.23
609.36	991.54
609.70	983.61
610.05	975.55
610.40	967.84
610.75	960.25
611.10	952.88
611.44	945.18
611.79	937.77
612.14	929.97
612.49	922.33
612.83	915.16
613.18	908.09
613.53	900.87
613.88	893.75
614.22	887.26
614.57	880.51
614.92	873.74
615.27	867.01
615.61	860.10
615.96	853.43
616.31	846.68
616.65	839.85
617.00	833.27
617.35	826.77
617.70	820.32
618.04	813.99
618.39	807.68
618.74	801.67
619.08	795.50
619.43	789.58
619.78	783.67
620.12	777.57
620.47	771.65
620.82	765.79
621.16	760.23
621.51	754.34
621.85	748.44
622.20	742.62
622.55	736.95
622.89	731.19
623.24	725.47
623.59	719.87
623.93	714.32
624.28	708.94
624.62	703.54
624.97	698.10
625.32	692.77
625.66	687.32
626.01	681.86
626.35	676.55
626.70	671.28
627.04	666.23
627.39	661.22
627.73	656.30
628.08	651.61
628.43	646.75
628.77	641.94
629.12	637.30
629.46	632.84
629.81	628.20
630.15	623.50
630.50	618.94
630.84	614.57
631.19	610.36
631.53	606.16
631.88	601.89
632.22	597.70
632.57	593.73
632.91	589.70
633.26	585.77
633.60	581.93
633.95	578.21
634.29	574.31
634.64	570.35
634.98	566.33
635.32	562.47
635.67	558.77
636.01	555.02
636.36	551.29
636.70	547.72
637.05	544.12
637.39	540.71
637.73	537.16
638.08	533.68
638.42	530.20
638.77	526.59
639.11	522.94
639.45	519.34
639.80	515.73
640.14	512.32
640.49	508.85
640.83	505.28
641.17	501.75
641.52	498.39
641.86	495.04
642.20	491.85
642.55	488.51
642.89	485.24
643.23	482.19
643.58	479.37
643.92	476.41
644.26	473.49
644.61	470.55
644.95	467.64
645.29	464.65
645.64	461.62
645.98	458.75
646.32	456.06
646.66	453.38
647.01	450.66
647.35	448.00
647.69	445.24
648.04	442.60
648.38	439.99
648.72	437.33
649.06	434.77
649.41	432.23
649.75	429.69
650.09	427.18
650.43	424.66
650.78	422.12
651.12	419.57
651.46	417.12
651.80	414.77
652.14	412.50
652.49	410.24
652.83	408.05
653.17	405.84
653.51	403.69
653.85	401.60
654.20	399.46
654.54	397.23
654.88	395.18
655.22	393.19
655.56	391.17
655.90	389.26
656.25	387.35
656.59	385.44
656.93	383.62
657.27	381.84
657.61	379.98
657.95	378.18
658.29	376.37
658.64	374.59
658.98	372.79
659.32	371.02
659.66	369.36
660.00	367.70
660.34	366.08
660.68	364.39
661.02	362.65
661.36	361.04
661.70	359.49
662.05	357.92
662.39	356.33
662.73	354.84
663.07	353.38
663.41	351.92
663.75	350.51
664.09	349.11
664.43	347.62
664.77	346.23
665.11	344.76
665.45	343.39
665.79	342.01
666.13	340.63
666.47	339.23
666.81	337.80
667.15	336.35
667.49	334.99
667.83	333.68
668.17	332.41
668.51	331.14
668.85	329.92
669.19	328.76
669.53	327.54
669.87	326.28
670.21	325.05
670.55	323.83
670.89	322.69
671.23	321.51
671.57	320.34
671.91	319.24
672.25	318.19
672.58	317.14
672.92	316.07
673.26	315.07
673.60	314.08
673.94	313.07
674.28	312.12
674.62	311.15
674.96	310.17
675.30	309.24
675.64	308.29
675.97	307.35
676.31	306.38
676.65	305.44
676.99	304.57
677.33	303.64
677.67	302.75
678.01	301.79
678.34	300.89
678.68	300.06
679.02	299.19
679.36	298.33
679.70	297.48
680.04	296.65
680.37	295.80
680.71	294.97
681.05	294.22
681.39	293.42
681.73	292.59
682.06	291.80
682.40	291.01
682.74	290.25
683.08	289.50
683.42	288.74
683.75	288.06
684.09	287.29
684.43	286.57
684.77	285.85
685.10	285.17
685.44	284.47
685.78	283.77
686.12	283.10
686.45	282.42
686.79	281.74
687.13	281.08
687.46	280.41
687.80	279.76
688.14	279.05
688.48	278.41
688.81	277.77
689.15	277.18
689.49	276.54
689.82	275.92
690.16	275.25
690.50	274.63
690.83	274.02
691.17	273.42
691.51	272.84
691.84	272.28
692.18	271.68
692.52	271.07
692.85	270.49
693.19	269.95
693.52	269.39
693.86	268.84
694.20	268.29
694.53	267.76
694.87	267.22
695.21	266.70
695.54	266.18
695.88	265.65
696.21	265.10
696.55	264.59
696.88	264.09
697.22	263.60
697.56	263.12
697.89	262.57
698.23	262.07
698.56	261.55
698.90	261.08
699.23	260.60
699.57	260.15
699.90	259.69
700.24	259.20
700.58	258.76
700.91	258.33
701.25	257.98
701.58	257.60
701.92	257.21
702.25	256.79
702.59	256.37
702.92	255.97
703.26	255.58
703.59	255.17
703.93	254.85
704.26	254.48
704.60	254.09
704.93	253.72
705.26	253.35
705.60	253.02
705.93	252.63
706.27	252.32
706.60	251.98
706.94	251.66
707.27	251.28
707.61	250.91
707.94	250.55
708.27	250.11
708.61	249.73
708.94	249.37
709.28	249.04
709.61	248.71
709.94	248.40
710.28	248.10
710.61	247.82
710.95	247.43
711.28	247.19
711.61	246.89
711.95	246.63
712.28	246.35
712.61	246.05
712.95	245.82
713.28	245.58
713.61	245.30
713.95	245.01
714.28	244.77
714.61	244.49
714.95	244.24
715.28	243.97
715.61	243.72
715.95	243.48
716.28	243.23
716.61	243.01
716.95	242.77
717.28	242.54
717.61	242.30
717.94	242.07
718.28	241.78
718.61	241.56
718.94	241.32
719.27	241.10
719.61	240.90
719.94	240.66
720.27	240.40
720.60	240.19
720.94	239.99
721.27	239.80
721.60	239.63
721.93	239.44
722.27	239.29
722.60	239.12
722.93	238.92
723.26	238.75
723.59	238.54
723.93	238.36
724.26	238.19
724.59	238.01
724.92	237.85
725.25	237.71
725.59	237.54
725.92	237.40
726.25	237.24
726.58	237.08
726.91	236.91
727.24	236.76
727.57	236.61
727.91	236.44
728.24	236.30
728.57	236.14
728.90	236.00
729.23	235.82
729.56	235.72
729.89	235.58
730.22	235.43
730.55	235.28
730.89	235.15
731.22	235.00
731.55	234.87
731.88	234.73
732.21	234.57
732.54	234.44
732.87	234.31
733.20	234.19
733.53	234.07
733.86	233.96
734.19	233.83
734.52	233.73
734.85	233.68
735.18	233.54
735.51	233.46
735.84	233.34
736.17	233.25
736.50	233.09
736.83	233.10
737.16	232.99
737.49	232.90
737.82	232.79
738.15	232.71
738.48	232.61
738.81	232.51
739.14	232.40
739.47	232.30
739.80	232.20
740.13	232.11
740.46	232.00
740.79	231.88
741.12	231.79
741.45	231.67
741.78	231.52
742.11	231.46
742.44	231.34
742.77	231.25
743.10	231.15
743.43	231.05
743.75	230.85
744.08	230.92
744.41	230.82
744.74	230.74
745.07	230.61
745.40	230.55
745.73	230.51
746.06	230.43
746.39	230.38
746.71	230.28
747.04	230.19
747.37	230.12
747.70	230.07
748.03	229.99
748.36	229.93
748.68	229.86
749.01	229.76
749.34	229.68
749.67	229.61
750.00	229.56
750.33	229.57
750.65	229.52
750.98	229.29
751.31	229.23
751.64	229.17
751.97	229.16
752.29	229.08
752.62	228.97
752.95	228.89
753.28	228.80
753.60	228.73
753.93	228.70
754.26	228.64
754.59	228.54
754.91	228.46
755.24	228.39
755.57	228.37
755.90	228.30
756.22	228.24
756.55	228.16
756.88	228.07
757.20	227.93
757.53	227.85
757.86	227.79
758.19	227.74
758.51	227.69
758.84	227.58
759.17	227.52
759.49	227.47
759.82	227.47
760.15	227.43
760.47	227.39
760.80	227.31
761.13	227.27
761.45	227.23
761.78	227.18
762.11	227.14
762.43	227.04
762.76	227.00
763.08	226.97
763.41	226.93
763.74	226.90
764.06	226.85
764.39	226.81
764.71	226.76
765.04	226.71
765.37	226.65
765.69	226.62
766.02	226.58
766.34	226.53
766.67	226.45
767.00	226.43
767.32	226.44
767.65	226.47
767.97	226.42
768.30	226.39
768.62	226.35
768.95	226.29
769.27	226.25
769.60	226.22
769.92	226.17
770.25	226.11
770.57	226.06
770.90	226.03
771.22	225.99
771.55	225.97
771.87	225.94
772.20	225.91
772.52	225.97
772.85	226.06
773.17	226.03
773.50	225.99
773.82	225.93
774.15	225.86
774.47	225.76
774.80	225.72
775.12	225.69
775.45	225.67
775.77	225.64
776.09	225.62
776.42	225.60
776.74	225.60
777.07	225.58
777.39	225.55
777.72	225.51
778.04	225.50
778.36	225.46
778.69	225.44
779.01	225.42
779.33	225.30
779.66	225.16
779.98	225.13
780.31	225.11
780.63	225.13
780.95	225.12
781.28	225.10
781.60	225.08
781.92	225.05
782.25	225.03
782.57	225.02
782.89	224.99
783.22	224.96
783.54	224.92
783.86	224.91
784.19	224.88
784.51	224.89
784.83	224.86
785.16	224.84
785.48	224.83
785.80	224.80
786.12	224.79
786.45	224.77
786.77	224.77
787.09	224.75
787.42	224.69
787.74	224.68
788.06	224.67
788.38	224.65
788.71	224.62
789.03	224.60
789.35	224.60
789.67	224.56
789.99	224.55
790.32	224.52
790.64	224.52
790.96	224.60
791.28	224.55
791.61	224.53
791.93	224.53
792.25	224.51
792.57	224.56
792.89	224.53
793.21	224.52
793.54	224.50
793.86	224.47
794.18	224.45
794.50	224.42
794.82	224.40
795.14	224.40
795.47	224.41
795.79	224.39
796.11	224.35
796.43	224.34
796.75	224.33
797.07	224.34
797.39	224.31
797.71	224.22
798.04	224.21
798.36	224.20
798.68	224.19
799.00	224.18
799.32	224.12
799.64	224.13
799.96	224.11
800.28	224.12
800.60	224.10
800.92	224.10
801.24	224.09
801.56	224.08
801.89	224.06
802.21	224.05
802.53	224.02
802.85	224.04
803.17	224.08
803.49	224.05
803.81	224.02
804.13	224.01
804.45	223.99
804.77	223.99
805.09	223.98
805.41	223.97
805.73	223.93
806.05	223.90
806.37	223.88
806.69	223.87
807.01	223.85
807.33	223.85
807.65	223.80
807.97	223.84
808.28	223.81
808.60	223.79
808.92	223.77
809.24	223.83
809.56	223.80
809.88	223.76
810.20	223.75
810.52	223.76
810.84	223.74
811.16	223.72
811.48	223.70
811.80	223.73
812.12	223.72
812.43	223.74
812.75	223.74
813.07	223.72
813.39	223.72
813.71	223.70
814.03	223.69
814.35	223.69
814.67	223.64
814.98	223.64
815.30	223.64
815.62	223.61
815.94	223.54
816.26	223.55
816.58	223.52
816.89	223.53
817.21	223.49
817.53	223.49
817.85	223.49
818.17	223.49
818.48	223.43
818.80	223.45
819.12	223.42
819.44	223.40
819.76	223.39
820.07	223.38
820.39	223.38
820.71	223.38
821.03	223.37
821.34	223.36
821.66	223.37
821.98	223.37
822.30	223.36
822.61	223.43
822.93	223.40
823.25	223.39
823.57	223.38
823.88	223.40
824.20	223.39
824.52	223.40
824.83	223.40
825.15	223.39
825.47	223.38
825.79	223.40
826.10	223.38
826.42	223.38
826.74	223.38
827.05	223.38
827.37	223.38
827.69	223.37
828.00	223.38
828.32	223.38
828.64	223.36
828.95	223.41
829.27	223.38
829.58	223.38
829.90	223.40
830.22	223.40
830.53	223.38
830.85	223.38
831.17	223.35
831.48	223.34
831.80	223.34
832.11	223.33
832.43	223.31
832.75	223.30
833.06	223.36
833.38	223.32
833.69	223.32
834.01	223.33
834.32	223.32
834.64	223.30
834.96	223.30
835.27	223.30
835.59	223.26
835.90	223.24
836.22	223.24
836.53	223.22
836.85	223.20
837.16	223.30
837.48	223.30
837.79	223.33
838.11	223.34
838.42	223.34
838.74	223.35
839.05	223.34
839.37	223.34
839.68	223.28
840.00	223.28
840.31	223.28
840.63	223.27
840.94	223.26
841.26	223.25
841.57	223.24
841.88	223.24
842.20	223.22
842.51	223.20
842.83	223.21
843.14	223.29
843.46	223.29
843.77	223.23
844.08	223.22
844.40	223.18
844.71	223.16
845.03	223.15
845.34	223.14
845.65	223.13
845.97	223.13
846.28	223.14
846.60	223.14
846.91	223.11
847.22	223.11
847.54	223.13
847.85	223.13
848.16	223.12
848.48	223.10
848.79	223.14
849.10	223.15
849.42	223.14
849.73	223.05
850.04	223.05
850.36	223.01
850.67	223.03
850.98	223.04
851.30	223.05
851.61	223.05
851.92	223.04
852.23	223.08
852.55	223.08
852.86	223.09
853.17	223.10
853.49	223.13
853.80	223.15
854.11	223.15
854.42	223.16
854.74	223.16
855.05	223.16
855.36	223.11
855.67	223.11
855.99	223.11
856.30	223.23
856.61	223.22
856.92	223.22
857.23	223.22
857.55	223.20
857.86	223.18
858.17	223.20
858.48	223.18
858.79	223.16
859.11	223.16
859.42	223.15
859.73	223.13
860.04	223.12
860.35	223.09
860.66	223.06
860.98	223.05
861.29	223.07
861.60	223.06
861.91	223.08
862.22	223.07
862.53	223.06
862.84	222.93
863.16	222.95
863.47	222.94
863.78	222.92
864.09	222.93
864.40	222.94
864.71	222.94
865.02	222.95
865.33	222.94
865.64	222.92
865.95	222.92
866.27	222.99
866.58	222.98
866.89	222.99
867.20	222.99
867.51	222.98
867.82	222.96
868.13	223.00
868.44	222.99
868.75	223.01
869.06	223.01
869.37	223.03
869.68	223.00
869.99	223.02
870.30	223.03
870.61	223.04
870.92	223.03
871.23	223.02
871.54	223.03
871.85	223.06
872.16	223.07
872.47	223.06
872.78	223.00
873.09	223.01
873.40	222.99
873.71	223.00
874.02	223.00
874.33	222.99
874.64	222.96
874.95	222.97
875.26	222.95
875.56	222.94
875.87	222.94
876.18	222.93
876.49	223.04
876.80	223.02
877.11	223.00
877.42	223.00
877.73	223.00
878.04	222.98
878.35	222.98
878.66	222.98
878.96	222.98
879.27	222.98
879.58	222.97
879.89	222.96
880.20	222.99
880.51	222.99
880.82	222.99
881.12	222.99
881.43	222.96
881.74	222.95
882.05	222.95
882.36	222.95
882.67	222.95
882.97	222.83
883.28	222.83
883.59	222.83
883.90	222.84
884.21	222.86
884.51	222.85
884.82	222.83
885.13	222.83
885.44	222.83
885.74	222.82
886.05	222.82
886.36	222.83
886.67	222.79
886.98	222.84
887.28	222.85
887.59	222.85
887.90	222.85
888.20	222.85
888.51	222.86
888.82	222.85
889.13	222.85
889.43	222.94
889.74	222.93
890.05	222.93
890.35	222.91
890.66	222.89
890.97	222.89
891.28	222.88
891.58	222.87
891.89	222.87
892.20	222.86
892.50	222.85
892.81	222.84
893.12	222.84
893.42	222.79
893.73	222.80
894.04	222.79
894.34	222.80
894.65	222.79
894.95	222.78
895.26	222.79
895.57	222.82
895.87	222.72
896.18	222.74
896.48	222.74
896.79	222.73
897.10	222.74
897.40	222.75
897.71	222.76
898.01	222.75
898.32	222.77
898.63	222.76
898.93	222.77
899.24	222.77
899.54	222.76
899.85	222.75
900.15	222.75
900.46	222.75
900.76	222.76
901.07	222.76
901.38	222.75
901.68	222.76
901.99	222.71
902.29	222.72
902.60	222.71
902.90	222.71
903.21	222.71
903.51	222.70
903.82	222.72
904.12	222.71
904.43	222.72
904.73	222.71
905.03	222.72
905.34	222.81
905.64	222.81
905.95	222.81
906.25	222.81
906.56	222.80
906.86	222.80
907.17	222.79
907.47	222.80
907.77	222.78
908.08	222.76
908.38	222.77
908.69	222.77
908.99	222.79
909.30	222.79
909.60	222.79
909.90	222.80
910.21	222.77
910.51	222.76
910.81	222.76
911.12	222.77
911.42	222.77
911.73	222.66
912.03	222.67
912.33	222.70
912.64	222.69
912.94	222.68
913.24	222.67
913.55	222.67
913.85	222.66
914.15	222.68
914.46	222.70
914.76	222.69
915.06	222.69
915.37	222.67
915.67	222.66
915.97	222.66
916.27	222.64
916.58	222.64
916.88	222.64
917.18	222.63
917.49	222.70
917.79	222.69
918.09	222.71
918.39	222.73
918.70	222.72
919.00	222.72
919.30	222.77
919.60	222.77
919.91	222.76
920.21	222.76
920.51	222.74
920.81	222.73
921.12	222.75
921.42	222.74
921.72	222.75
922.02	222.75
922.32	222.76
922.63	222.76
922.93	222.82
923.23	222.83
923.53	222.81
923.83	222.74
924.13	222.75
924.44	222.74
924.74	222.76
925.04	222.78
925.34	222.77
925.64	222.73
925.94	222.73
926.24	222.79
926.55	222.78
926.85	222.79
927.15	222.78
927.45	222.78
927.75	222.78
928.05	222.78
928.35	222.78
928.65	222.79
928.95	222.80
929.26	222.75
929.56	222.77
929.86	222.78
930.16	222.77
930.46	222.77
930.76	222.77
931.06	222.72
931.36	222.70
931.66	222.72
931.96	222.73
932.26	222.73
932.56	222.69
932.86	222.70
933.16	222.70
933.46	222.70
933.76	222.68
934.06	222.69
934.36	222.72
934.66	222.72
934.96	222.71
935.26	222.71
935.56	222.73
935.86	222.70
936.16	222.69
936.46	222.68
936.76	222.67
937.06	222.66
937.36	222.66
937.66	222.67
937.96	222.66
938.26	222.63
938.56	222.62
938.86	222.62
939.16	222.64
939.46	222.64
939.76	222.65
940.06	222.65
940.35	222.64
940.65	222.59
940.95	222.59
941.25	222.56
941.55	222.55
941.85	222.55
942.15	222.57
942.45	222.60
942.75	222.60
943.04	222.61
943.34	222.63
943.64	222.61
943.94	222.60
944.24	222.59
944.54	222.60
944.84	222.61
945.13	222.59
945.43	222.57
945.73	222.56
946.03	222.55
946.33	222.54
946.62	222.53
946.92	222.52
947.22	222.52
947.52	222.53
947.82	222.55
948.11	222.54
948.41	222.52
948.71	222.49
949.01	222.49
949.31	222.48
949.60	222.47
949.90	222.49
950.20	222.48
950.50	222.48
950.79	222.48
951.09	222.49
951.39	222.49
951.69	222.48
951.98	222.49
952.28	222.50
952.58	222.50
952.87	222.51
953.17	222.53
953.47	222.52
953.76	222.52
954.06	222.49
954.36	222.47
954.66	222.48
954.95	222.50
955.25	222.51
955.55	222.52
955.84	222.51
956.14	222.52
956.44	222.53
956.73	222.51
957.03	222.52
957.32	222.52
957.62	222.52
957.92	222.54
958.21	222.54
958.51	222.66
958.81	222.67
959.10	222.68
959.40	222.70
959.69	222.70
959.99	222.72
960.29	222.72
960.58	222.72
960.88	222.75
961.17	222.74
961.47	222.75
961.76	222.74
962.06	222.75
962.36	222.74
962.65	222.74
962.95	222.74
963.24	222.73
963.54	222.74
963.83	222.74
964.13	222.73
964.42	222.71
964.72	222.63
965.01	222.63
965.31	222.62
965.60	222.59
965.90	222.66
966.19	222.63
966.49	222.64
966.78	222.64
967.08	222.63
967.37	222.63
967.67	222.61
967.96	222.63
968.26	222.62
968.55	222.63
968.85	222.63
969.14	222.63
969.43	222.63
969.73	222.62
970.02	222.61
970.32	222.61
970.61	222.60
970.91	222.56
971.20	222.55
971.49	222.54
971.79	222.55
972.08	222.48
972.38	222.49
972.67	222.47
972.96	222.49
973.26	222.47
973.55	222.50
973.85	222.49
974.14	222.48
974.43	222.49
974.73	222.47
975.02	222.46
975.31	222.46
975.61	222.45
975.90	222.45
976.19	222.44
976.49	222.45
976.78	222.45
977.07	222.45
977.37	222.45
977.66	222.46
977.95	222.44
978.24	222.45
978.54	222.47
978.83	222.47
979.12	222.46
979.42	222.46
979.71	222.44
980.00	222.45
980.29	222.45
980.59	222.43
980.88	222.46
981.17	222.45
981.46	222.46
981.76	222.47
982.05	222.51
982.34	222.52
982.63	222.51
982.93	222.51
983.22	222.54
983.51	222.55
983.80	222.56
984.09	222.58
984.39	222.57
984.68	222.55
984.97	222.56
985.26	222.55
985.55	222.56
985.85	222.54
986.14	222.55
986.43	222.56
986.72	222.56
987.01	222.53
987.30	222.53
987.59	222.52
987.89	222.52
988.18	222.49
988.47	222.47
988.76	222.47
989.05	222.46
989.34	222.45
989.63	222.48
989.92	222.47
990.22	222.45
990.51	222.46
990.80	222.44
991.09	222.45
991.38	222.47
991.67	222.46
991.96	222.45
992.25	222.45
992.54	222.43
992.83	222.42
993.12	222.43
993.41	222.45
993.70	222.50
993.99	222.51
994.28	222.53
994.58	222.55
994.87	222.54
995.16	222.54
995.45	222.53
995.74	222.49
996.03	222.51
996.32	222.52
996.61	222.54
996.90	222.54
997.19	222.53
997.48	222.54
997.77	222.52
998.06	222.53
998.34	222.52
998.63	222.53
998.92	222.54
999.21	222.55
999.50	222.55
999.79	222.51
1000.08	222.51
1000.37	222.50
1000.66	222.48
1000.95	222.51
1001.24	222.51
1001.53	222.53
1001.82	222.52
1002.11	222.50
1002.40	222.51
1002.68	222.52
1002.97	222.59
1003.26	222.59
1003.55	222.57
1003.84	222.58
1004.13	222.62
1004.42	222.62
1004.71	222.61
1004.99	222.60
1005.28	222.62
1005.57	222.61
1005.86	222.60
1006.15	222.59
1006.44	222.58
1006.72	222.59
1007.01	222.57
1007.30	222.57
1007.59	222.55
1007.88	222.56
1008.17	222.57
1008.45	222.54
1008.74	222.50
1009.03	222.45
1009.32	222.46
1009.60	222.46
1009.89	222.45
1010.18	222.41
1010.47	222.40
1010.76	222.41
1011.04	222.42
1011.33	222.41
1011.62	222.42
1011.91	222.43
1012.19	222.44
1012.48	222.44
1012.77	222.44
1013.05	222.47
1013.34	222.47
1013.63	222.47
1013.92	222.47
1014.20	222.46
1014.49	222.46
1014.78	222.48
1015.06	222.44
1015.35	222.44
1015.64	222.45
1015.92	222.46
1016.21	222.46
1016.50	222.46
1016.78	222.47
1017.07	222.48
1017.36	222.46
1017.64	222.44
1017.93	222.45
1018.22	222.44
1018.50	222.44
1018.79	222.44
1019.08	222.41
1019.36	222.41
1019.65	222.40
1019.93	222.43
1020.22	222.44
1020.51	222.49
1020.79	222.48
1021.08	222.27
1021.36	222.38
1021.65	222.48
1021.94	222.42
1022.22	222.50
1022.51	222.14
1022.79	222.93
1023.08	222.52
1023.36	223.65
1023.65	222.16
>>>>>End Processed Spectral Data<<<<<
