SpectraSuite Data File
++++++++++++++++++++++++++++++++++++
Date: Thu Oct 01 10:42:55 EDT 2015
User: lab3
Dark Spectrum Present: No
Reference Spectrum Present: No
Number of Sampled Component Spectra: 1
Spectrometers: USB2E7196
Integration Time (usec): 36000 (USB2E7196)
Spectra Averaged: 10000 (USB2E7196)
Boxcar Smoothing: 10 (USB2E7196)
Correct for Electrical Dark: No (USB2E7196)
Strobe/Lamp Enabled: No (USB2E7196)
Correct for Detector Non-linearity: No (USB2E7196)
Correct for Stray Light: No (USB2E7196)
Number of Pixels in Processed Spectrum: 2048
>>>>>Begin Processed Spectral Data<<<<<
339.09	0.00
339.48	211.68
339.86	213.13
340.24	214.56
340.63	215.91
341.01	218.82
341.39	218.62
341.78	219.96
342.16	221.15
342.54	221.65
342.93	210.16
343.31	220.78
343.69	221.32
344.07	221.78
344.46	222.20
344.84	222.59
345.22	222.83
345.60	223.09
345.99	223.28
346.37	223.42
346.75	223.52
347.13	223.60
347.52	223.67
347.90	223.75
348.28	223.78
348.66	223.84
349.05	223.84
349.43	223.89
349.81	223.95
350.19	224.00
350.57	224.07
350.96	224.15
351.34	224.25
351.72	224.34
352.10	224.45
352.48	224.52
352.87	224.58
353.25	224.64
353.63	224.70
354.01	224.77
354.39	224.84
354.77	224.92
355.15	225.02
355.54	225.08
355.92	225.11
356.30	225.19
356.68	225.33
357.06	225.41
357.44	225.47
357.82	225.53
358.20	225.64
358.58	225.70
358.97	225.76
359.35	225.84
359.73	225.92
360.11	225.97
360.49	226.03
360.87	226.08
361.25	226.14
361.63	226.22
362.01	226.27
362.39	226.30
362.77	226.35
363.15	226.38
363.53	226.41
363.91	226.44
364.29	226.47
364.67	226.39
365.05	226.41
365.43	226.44
365.81	226.47
366.19	226.48
366.57	226.54
366.95	226.54
367.33	226.52
367.71	226.51
368.09	226.53
368.47	226.53
368.85	226.52
369.23	226.53
369.61	226.48
369.99	226.50
370.37	226.49
370.75	226.55
371.13	226.52
371.51	226.48
371.89	226.46
372.27	226.43
372.65	226.41
373.03	226.37
373.41	226.33
373.78	226.28
374.16	226.19
374.54	226.11
374.92	226.06
375.30	226.02
375.68	225.95
376.06	225.90
376.44	225.84
376.82	225.80
377.19	225.75
377.57	225.69
377.95	225.61
378.33	225.55
378.71	225.41
379.09	225.36
379.47	225.33
379.84	225.26
380.22	225.20
380.60	225.13
380.98	225.08
381.36	225.03
381.73	224.97
382.11	224.94
382.49	224.89
382.87	224.83
383.25	224.79
383.62	224.86
384.00	224.80
384.38	224.75
384.76	224.73
385.13	224.71
385.51	224.67
385.89	224.62
386.27	224.59
386.64	224.56
387.02	224.52
387.40	224.47
387.78	224.44
388.15	224.41
388.53	224.38
388.91	224.35
389.29	224.31
389.66	224.30
390.04	224.27
390.42	224.26
390.79	224.24
391.17	224.23
391.55	224.10
391.92	224.08
392.30	224.09
392.68	224.05
393.05	224.03
393.43	224.02
393.81	224.03
394.18	224.01
394.56	224.01
394.94	224.04
395.31	224.03
395.69	224.07
396.06	224.10
396.44	224.12
396.82	224.13
397.19	224.20
397.57	224.22
397.95	224.26
398.32	224.26
398.70	224.30
399.07	224.36
399.45	224.39
399.82	224.43
400.20	224.47
400.58	224.53
400.95	224.54
401.33	224.62
401.70	224.75
402.08	224.85
402.45	224.93
402.83	225.03
403.20	225.13
403.58	225.22
403.95	225.34
404.33	225.48
404.71	225.61
405.08	225.79
405.46	225.94
405.83	226.11
406.21	226.28
406.58	226.48
406.96	226.67
407.33	226.89
407.70	227.14
408.08	227.48
408.45	227.78
408.83	228.09
409.20	228.38
409.58	228.65
409.95	229.01
410.33	229.39
410.70	229.76
411.08	230.19
411.45	230.64
411.82	231.10
412.20	231.62
412.57	232.25
412.95	232.75
413.32	233.39
413.69	234.05
414.07	234.75
414.44	235.51
414.82	236.29
415.19	237.20
415.56	238.12
415.94	239.08
416.31	240.16
416.68	241.24
417.06	242.49
417.43	243.67
417.81	245.03
418.18	246.41
418.55	247.92
418.93	249.49
419.30	251.13
419.67	252.88
420.04	254.68
420.42	256.55
420.79	258.71
421.16	260.90
421.54	263.12
421.91	265.45
422.28	267.86
422.66	270.47
423.03	272.95
423.40	275.56
423.77	278.35
424.15	281.20
424.52	284.18
424.89	287.41
425.26	290.61
425.64	293.58
426.01	296.91
426.38	300.32
426.75	303.83
427.13	307.42
427.50	311.17
427.87	315.08
428.24	319.02
428.61	322.79
428.99	326.85
429.36	331.30
429.73	335.55
430.10	339.79
430.47	344.11
430.85	348.56
431.22	353.31
431.59	358.18
431.96	362.92
432.33	368.17
432.70	373.13
433.08	379.02
433.45	384.58
433.82	390.04
434.19	396.15
434.56	402.16
434.93	407.95
435.30	413.67
435.68	420.11
436.05	426.42
436.42	432.73
436.79	438.47
437.16	444.67
437.53	451.33
437.90	457.98
438.27	464.48
438.64	471.54
439.01	477.92
439.38	483.75
439.75	489.40
440.13	495.83
440.50	501.97
440.87	506.81
441.24	512.14
441.61	518.02
441.98	522.33
442.35	527.48
442.72	532.75
443.09	537.80
443.46	541.08
443.83	543.52
444.20	545.59
444.57	548.61
444.94	550.43
445.31	552.31
445.68	553.98
446.05	555.25
446.42	555.15
446.79	554.93
447.16	554.77
447.53	554.65
447.90	552.81
448.27	551.09
448.64	548.31
449.01	546.49
449.37	542.48
449.74	538.85
450.11	534.15
450.48	528.97
450.85	523.75
451.22	519.31
451.59	514.97
451.96	511.03
452.33	505.22
452.70	500.05
453.07	493.75
453.43	487.44
453.80	481.33
454.17	475.45
454.54	470.00
454.91	463.83
455.28	458.03
455.65	452.55
456.02	446.70
456.38	442.00
456.75	435.93
457.12	431.04
457.49	426.09
457.86	421.37
458.23	417.23
458.59	412.65
458.96	407.95
459.33	403.80
459.70	399.58
460.07	396.36
460.43	392.57
460.80	389.03
461.17	385.89
461.54	382.51
461.91	379.36
462.27	376.16
462.64	373.54
463.01	370.54
463.38	367.52
463.74	364.80
464.11	362.36
464.48	360.16
464.85	357.81
465.21	356.00
465.58	354.01
465.95	351.73
466.32	349.90
466.68	348.12
467.05	346.33
467.42	344.59
467.78	342.72
468.15	340.99
468.52	339.71
468.88	338.04
469.25	336.52
469.62	335.31
469.98	333.99
470.35	332.82
470.72	331.77
471.08	330.71
471.45	329.82
471.82	328.85
472.18	327.84
472.55	327.18
472.92	326.38
473.28	325.76
473.65	325.11
474.02	324.50
474.38	324.00
474.75	323.73
475.11	323.32
475.48	323.18
475.85	323.03
476.21	323.00
476.58	323.01
476.94	323.23
477.31	323.37
477.67	323.53
478.04	323.82
478.41	324.18
478.77	324.65
479.14	325.01
479.50	325.59
479.87	326.30
480.23	327.02
480.60	327.71
480.96	328.43
481.33	329.42
481.69	330.40
482.06	331.37
482.42	332.29
482.79	333.39
483.15	334.66
483.52	336.07
483.88	337.44
484.25	338.89
484.61	340.40
484.98	342.03
485.34	343.86
485.71	345.75
486.07	347.77
486.44	349.78
486.80	352.00
487.17	354.29
487.53	356.80
487.90	359.41
488.26	362.24
488.62	365.23
488.99	368.22
489.35	371.35
489.72	374.74
490.08	378.29
490.44	381.95
490.81	385.77
491.17	389.68
491.54	393.85
491.90	398.13
492.26	402.75
492.63	407.60
492.99	412.63
493.36	417.80
493.72	423.25
494.08	428.83
494.45	434.74
494.81	440.85
495.17	447.09
495.54	453.70
495.90	460.60
496.26	467.65
496.63	474.95
496.99	482.55
497.35	490.53
497.72	498.78
498.08	507.19
498.44	515.87
498.80	525.13
499.17	534.62
499.53	544.44
499.89	554.49
500.26	564.74
500.62	575.27
500.98	586.49
501.34	597.88
501.71	609.81
502.07	621.97
502.43	634.53
502.79	647.41
503.16	660.71
503.52	674.20
503.88	688.11
504.24	702.42
504.60	717.00
504.97	731.97
505.33	747.39
505.69	763.73
506.05	780.24
506.41	796.74
506.78	813.55
507.14	830.85
507.50	848.75
507.86	867.06
508.22	885.67
508.59	904.29
508.95	923.61
509.31	943.40
509.67	963.91
510.03	984.62
510.39	1005.55
510.75	1026.73
511.12	1048.22
511.48	1069.93
511.84	1091.82
512.20	1114.05
512.56	1137.37
512.92	1160.78
513.28	1183.91
513.64	1207.42
514.00	1231.36
514.37	1255.60
514.73	1279.92
515.09	1304.00
515.45	1328.54
515.81	1353.60
516.17	1378.69
516.53	1403.45
516.89	1428.26
517.25	1453.28
517.61	1478.48
517.97	1503.88
518.33	1529.00
518.69	1554.22
519.05	1579.75
519.41	1605.40
519.77	1631.29
520.13	1656.35
520.49	1681.66
520.85	1707.19
521.21	1732.59
521.57	1758.52
521.93	1783.77
522.29	1809.80
522.65	1835.57
523.01	1861.10
523.37	1885.83
523.73	1911.28
524.09	1936.95
524.45	1962.45
524.81	1987.41
525.17	2012.31
525.53	2036.71
525.89	2061.15
526.25	2085.84
526.61	2110.00
526.97	2134.35
527.33	2158.67
527.68	2182.73
528.04	2206.04
528.40	2229.12
528.76	2252.40
529.12	2274.61
529.48	2297.18
529.84	2317.89
530.20	2339.17
530.56	2360.05
530.91	2381.03
531.27	2401.49
531.63	2421.17
531.99	2440.41
532.35	2459.34
532.71	2478.33
533.07	2497.83
533.42	2515.93
533.78	2534.26
534.14	2552.62
534.50	2570.18
534.86	2588.31
535.21	2604.61
535.57	2620.67
535.93	2636.23
536.29	2650.47
536.65	2665.66
537.00	2679.63
537.36	2694.16
537.72	2707.61
538.08	2720.59
538.44	2732.50
538.79	2744.55
539.15	2755.02
539.51	2765.39
539.87	2775.38
540.22	2783.12
540.58	2791.21
540.94	2799.60
541.29	2806.67
541.65	2812.64
542.01	2818.10
542.37	2821.73
542.72	2827.47
543.08	2832.55
543.44	2837.33
543.79	2841.45
544.15	2844.40
544.51	2847.51
544.87	2849.64
545.22	2851.47
545.58	2852.46
545.94	2853.86
546.29	2853.76
546.65	2853.63
547.01	2853.74
547.36	2853.82
547.72	2854.14
548.07	2852.94
548.43	2851.18
548.79	2848.70
549.14	2846.20
549.50	2844.52
549.86	2841.63
550.21	2836.44
550.57	2831.70
550.92	2825.65
551.28	2820.19
551.64	2814.82
551.99	2809.63
552.35	2804.11
552.70	2798.09
553.06	2792.84
553.41	2787.09
553.77	2780.74
554.13	2775.31
554.48	2768.61
554.84	2760.49
555.19	2752.58
555.55	2744.13
555.90	2736.29
556.26	2729.40
556.61	2721.85
556.97	2712.00
557.32	2703.23
557.68	2694.68
558.03	2685.62
558.39	2677.26
558.74	2668.85
559.10	2659.35
559.45	2649.41
559.81	2639.92
560.16	2629.68
560.52	2619.15
560.87	2609.67
561.23	2599.63
561.58	2589.09
561.94	2578.36
562.29	2567.14
562.64	2556.57
563.00	2546.22
563.35	2535.72
563.71	2524.25
564.06	2512.45
564.42	2501.58
564.77	2490.41
565.12	2479.33
565.48	2468.08
565.83	2457.39
566.19	2446.82
566.54	2435.66
566.89	2423.83
567.25	2411.83
567.60	2400.69
567.96	2389.01
568.31	2375.87
568.66	2362.93
569.02	2351.01
569.37	2338.78
569.72	2327.08
570.08	2314.68
570.43	2301.78
570.78	2288.51
571.14	2275.11
571.49	2262.43
571.84	2250.09
572.20	2236.50
572.55	2223.24
572.90	2209.85
573.26	2195.37
573.61	2180.40
573.96	2165.92
574.31	2151.71
574.67	2137.72
575.02	2123.34
575.37	2108.50
575.72	2093.95
576.08	2079.91
576.43	2064.83
576.78	2050.00
577.13	2035.93
577.49	2021.73
577.84	2007.93
578.19	1993.35
578.54	1978.45
578.90	1963.09
579.25	1947.41
579.60	1933.11
579.95	1918.46
580.30	1903.84
580.66	1889.63
581.01	1875.10
581.36	1860.79
581.71	1847.13
582.06	1832.88
582.42	1818.81
582.77	1805.40
583.12	1791.63
583.47	1778.03
583.82	1764.56
584.17	1750.93
584.53	1737.12
584.88	1723.40
585.23	1709.24
585.58	1695.63
585.93	1682.46
586.28	1670.12
586.63	1657.51
586.98	1644.25
587.34	1631.22
587.69	1617.71
588.04	1604.59
588.39	1591.98
588.74	1578.89
589.09	1565.56
589.44	1552.25
589.79	1539.39
590.14	1526.54
590.49	1513.88
590.84	1501.06
591.19	1488.83
591.54	1476.09
591.89	1463.25
592.25	1450.72
592.60	1437.90
592.95	1425.63
593.30	1413.66
593.65	1401.41
594.00	1389.48
594.35	1378.18
594.70	1366.25
595.05	1355.35
595.40	1344.06
595.75	1332.34
596.10	1321.45
596.45	1310.75
596.80	1300.55
597.15	1290.15
597.50	1279.67
597.85	1269.45
598.19	1259.38
598.54	1248.73
598.89	1238.87
599.24	1229.24
599.59	1219.47
599.94	1210.70
600.29	1201.76
600.64	1192.56
600.99	1182.77
601.34	1173.47
601.69	1163.67
602.04	1154.84
602.39	1145.88
602.74	1137.19
603.08	1128.70
603.43	1119.75
603.78	1110.74
604.13	1101.81
604.48	1092.84
604.83	1084.12
605.18	1075.33
605.53	1066.44
605.87	1057.72
606.22	1049.21
606.57	1040.50
606.92	1031.89
607.27	1023.06
607.62	1014.39
607.96	1005.89
608.31	998.43
608.66	990.51
609.01	982.99
609.36	975.44
609.70	967.63
610.05	959.68
610.40	952.08
610.75	944.53
611.10	937.26
611.44	929.68
611.79	922.32
612.14	914.63
612.49	907.13
612.83	900.08
613.18	893.05
613.53	885.84
613.88	878.75
614.22	872.21
614.57	865.51
614.92	858.80
615.27	852.12
615.61	845.29
615.96	838.67
616.31	832.00
616.65	825.22
617.00	818.68
617.35	812.33
617.70	805.97
618.04	799.70
618.39	793.41
618.74	787.45
619.08	781.38
619.43	775.49
619.78	769.59
620.12	763.56
620.47	757.71
620.82	751.99
621.16	746.51
621.51	740.68
621.85	734.86
622.20	729.12
622.55	723.54
622.89	717.91
623.24	712.33
623.59	706.80
623.93	701.35
624.28	696.04
624.62	690.69
624.97	685.35
625.32	680.10
625.66	674.72
626.01	669.31
626.35	664.05
626.70	658.86
627.04	653.90
627.39	648.95
627.73	644.11
628.08	639.47
628.43	634.70
628.77	630.00
629.12	625.45
629.46	621.03
629.81	616.43
630.15	611.73
630.50	607.22
630.84	602.92
631.19	598.78
631.53	594.66
631.88	590.45
632.22	586.31
632.57	582.43
632.91	578.48
633.26	574.63
633.60	570.83
633.95	567.14
634.29	563.29
634.64	559.43
634.98	555.50
635.32	551.70
635.67	548.03
636.01	544.34
636.36	540.68
636.70	537.15
637.05	533.66
637.39	530.35
637.73	526.87
638.08	523.46
638.42	520.01
638.77	516.46
639.11	512.88
639.45	509.39
639.80	505.89
640.14	502.58
640.49	499.20
640.83	495.70
641.17	492.29
641.52	489.01
641.86	485.71
642.20	482.59
642.55	479.32
642.89	476.16
643.23	473.16
643.58	470.40
643.92	467.52
644.26	464.65
644.61	461.77
644.95	458.92
645.29	456.01
645.64	453.08
645.98	450.30
646.32	447.70
646.66	445.07
647.01	442.42
647.35	439.81
647.69	437.11
648.04	434.60
648.38	432.08
648.72	429.53
649.06	427.08
649.41	424.61
649.75	422.14
650.09	419.71
650.43	417.28
650.78	414.82
651.12	412.35
651.46	410.00
651.80	407.74
652.14	405.55
652.49	403.36
652.83	401.25
653.17	399.09
653.51	396.99
653.85	394.98
654.20	392.88
654.54	390.74
654.88	388.79
655.22	386.86
655.56	384.89
655.90	383.03
656.25	381.16
656.59	379.32
656.93	377.58
657.27	375.85
657.61	374.04
657.95	372.30
658.29	370.56
658.64	368.84
658.98	367.11
659.32	365.40
659.66	363.80
660.00	362.20
660.34	360.65
660.68	359.04
661.02	357.36
661.36	355.82
661.70	354.32
662.05	352.78
662.39	351.26
662.73	349.82
663.07	348.41
663.41	347.02
663.75	345.64
664.09	344.26
664.43	342.80
664.77	341.45
665.11	340.05
665.45	338.72
665.79	337.40
666.13	336.05
666.47	334.70
666.81	333.32
667.15	331.92
667.49	330.61
667.83	329.35
668.17	328.14
668.51	326.93
668.85	325.74
669.19	324.64
669.53	323.45
669.87	322.24
670.21	321.07
670.55	319.90
670.89	318.81
671.23	317.70
671.57	316.60
671.91	315.55
672.25	314.56
672.58	313.54
672.92	312.50
673.26	311.53
673.60	310.56
673.94	309.59
674.28	308.67
674.62	307.74
674.96	306.78
675.30	305.88
675.64	304.95
675.97	304.04
676.31	303.09
676.65	302.18
676.99	301.33
677.33	300.42
677.67	299.56
678.01	298.62
678.34	297.75
678.68	296.95
679.02	296.09
679.36	295.26
679.70	294.42
680.04	293.62
680.37	292.81
680.71	292.04
681.05	291.31
681.39	290.53
681.73	289.73
682.06	288.96
682.40	288.20
682.74	287.47
683.08	286.77
683.42	286.04
683.75	285.39
684.09	284.65
684.43	283.95
684.77	283.25
685.10	282.60
685.44	281.92
685.78	281.24
686.12	280.59
686.45	279.93
686.79	279.28
687.13	278.65
687.46	277.99
687.80	277.36
688.14	276.68
688.48	276.06
688.81	275.45
689.15	274.88
689.49	274.27
689.82	273.68
690.16	273.03
690.50	272.44
690.83	271.85
691.17	271.28
691.51	270.72
691.84	270.18
692.18	269.61
692.52	269.04
692.85	268.48
693.19	267.96
693.52	267.43
693.86	266.91
694.20	266.38
694.53	265.89
694.87	265.38
695.21	264.89
695.54	264.39
695.88	263.90
696.21	263.36
696.55	262.88
696.88	262.40
697.22	261.93
697.56	261.47
697.89	260.95
698.23	260.47
698.56	259.98
698.90	259.53
699.23	259.07
699.57	258.65
699.90	258.22
700.24	257.75
700.58	257.32
700.91	256.93
701.25	256.60
701.58	256.24
701.92	255.86
702.25	255.47
702.59	255.06
702.92	254.68
703.26	254.32
703.59	253.93
703.93	253.64
704.26	253.29
704.60	252.92
704.93	252.58
705.26	252.23
705.60	251.92
705.93	251.56
706.27	251.26
706.60	250.95
706.94	250.64
707.27	250.29
707.61	249.95
707.94	249.60
708.27	249.19
708.61	248.83
708.94	248.49
709.28	248.18
709.61	247.87
709.94	247.58
710.28	247.29
710.61	247.02
710.95	246.65
711.28	246.45
711.61	246.18
711.95	245.93
712.28	245.65
712.61	245.37
712.95	245.16
713.28	244.95
713.61	244.68
713.95	244.41
714.28	244.19
714.61	243.94
714.95	243.71
715.28	243.46
715.61	243.23
715.95	243.01
716.28	242.79
716.61	242.59
716.95	242.36
717.28	242.14
717.61	241.92
717.94	241.71
718.28	241.43
718.61	241.22
718.94	240.99
719.27	240.79
719.61	240.61
719.94	240.39
720.27	240.14
720.60	239.95
720.94	239.76
721.27	239.58
721.60	239.42
721.93	239.24
722.27	239.10
722.60	238.94
722.93	238.75
723.26	238.58
723.59	238.39
723.93	238.23
724.26	238.08
724.59	237.91
724.92	237.76
725.25	237.64
725.59	237.49
725.92	237.35
726.25	237.20
726.58	237.06
726.91	236.90
727.24	236.77
727.57	236.63
727.91	236.47
728.24	236.34
728.57	236.19
728.90	236.07
729.23	235.90
729.56	235.81
729.89	235.68
730.22	235.53
730.55	235.41
730.89	235.27
731.22	235.14
731.55	235.01
731.88	234.88
732.21	234.74
732.54	234.62
732.87	234.50
733.20	234.39
733.53	234.28
733.86	234.17
734.19	234.05
734.52	233.96
734.85	233.92
735.18	233.78
735.51	233.71
735.84	233.60
736.17	233.53
736.50	233.38
736.83	233.40
737.16	233.31
737.49	233.22
737.82	233.13
738.15	233.05
738.48	232.95
738.81	232.85
739.14	232.75
739.47	232.65
739.80	232.55
740.13	232.47
740.46	232.36
740.79	232.26
741.12	232.17
741.45	232.06
741.78	231.92
742.11	231.86
742.44	231.75
742.77	231.68
743.10	231.58
743.43	231.49
743.75	231.30
744.08	231.38
744.41	231.28
744.74	231.20
745.07	231.09
745.40	231.04
745.73	231.00
746.06	230.93
746.39	230.87
746.71	230.80
747.04	230.71
747.37	230.63
747.70	230.58
748.03	230.52
748.36	230.47
748.68	230.39
749.01	230.29
749.34	230.23
749.67	230.16
750.00	230.11
750.33	230.13
750.65	230.07
750.98	229.85
751.31	229.79
751.64	229.74
751.97	229.73
752.29	229.66
752.62	229.54
752.95	229.47
753.28	229.39
753.60	229.33
753.93	229.29
754.26	229.24
754.59	229.14
754.91	229.07
755.24	228.99
755.57	228.99
755.90	228.93
756.22	228.86
756.55	228.78
756.88	228.70
757.20	228.58
757.53	228.49
757.86	228.44
758.19	228.39
758.51	228.33
758.84	228.23
759.17	228.17
759.49	228.13
759.82	228.13
760.15	228.10
760.47	228.05
760.80	227.97
761.13	227.94
761.45	227.90
761.78	227.85
762.11	227.82
762.43	227.71
762.76	227.67
763.08	227.63
763.41	227.60
763.74	227.56
764.06	227.52
764.39	227.48
764.71	227.44
765.04	227.38
765.37	227.33
765.69	227.29
766.02	227.25
766.34	227.20
766.67	227.12
767.00	227.10
767.32	227.12
767.65	227.14
767.97	227.09
768.30	227.06
768.62	227.02
768.95	226.97
769.27	226.94
769.60	226.91
769.92	226.86
770.25	226.81
770.57	226.76
770.90	226.72
771.22	226.67
771.55	226.64
771.87	226.62
772.20	226.59
772.52	226.64
772.85	226.74
773.17	226.71
773.50	226.67
773.82	226.62
774.15	226.54
774.47	226.44
774.80	226.41
775.12	226.38
775.45	226.35
775.77	226.33
776.09	226.31
776.42	226.28
776.74	226.29
777.07	226.26
777.39	226.24
777.72	226.21
778.04	226.20
778.36	226.18
778.69	226.15
779.01	226.14
779.33	226.03
779.66	225.89
779.98	225.86
780.31	225.84
780.63	225.86
780.95	225.86
781.28	225.84
781.60	225.81
781.92	225.80
782.25	225.78
782.57	225.75
782.89	225.73
783.22	225.71
783.54	225.67
783.86	225.66
784.19	225.63
784.51	225.65
784.83	225.62
785.16	225.59
785.48	225.58
785.80	225.56
786.12	225.56
786.45	225.54
786.77	225.53
787.09	225.51
787.42	225.45
787.74	225.44
788.06	225.43
788.38	225.41
788.71	225.39
789.03	225.38
789.35	225.37
789.67	225.35
789.99	225.34
790.32	225.31
790.64	225.31
790.96	225.39
791.28	225.34
791.61	225.33
791.93	225.32
792.25	225.30
792.57	225.37
792.89	225.34
793.21	225.33
793.54	225.31
793.86	225.29
794.18	225.28
794.50	225.25
794.82	225.23
795.14	225.24
795.47	225.24
795.79	225.23
796.11	225.19
796.43	225.18
796.75	225.16
797.07	225.16
797.39	225.14
797.71	225.04
798.04	225.03
798.36	225.03
798.68	225.01
799.00	225.01
799.32	224.95
799.64	224.95
799.96	224.93
800.28	224.94
800.60	224.92
800.92	224.92
801.24	224.90
801.56	224.90
801.89	224.88
802.21	224.87
802.53	224.84
802.85	224.86
803.17	224.90
803.49	224.87
803.81	224.85
804.13	224.83
804.45	224.81
804.77	224.81
805.09	224.80
805.41	224.78
805.73	224.75
806.05	224.71
806.37	224.70
806.69	224.68
807.01	224.67
807.33	224.67
807.65	224.63
807.97	224.67
808.28	224.64
808.60	224.64
808.92	224.62
809.24	224.67
809.56	224.65
809.88	224.60
810.20	224.60
810.52	224.61
810.84	224.59
811.16	224.57
811.48	224.55
811.80	224.59
812.12	224.57
812.43	224.59
812.75	224.59
813.07	224.57
813.39	224.57
813.71	224.55
814.03	224.54
814.35	224.53
814.67	224.49
814.98	224.47
815.30	224.47
815.62	224.44
815.94	224.37
816.26	224.38
816.58	224.35
816.89	224.36
817.21	224.33
817.53	224.33
817.85	224.33
818.17	224.33
818.48	224.28
818.80	224.29
819.12	224.27
819.44	224.25
819.76	224.23
820.07	224.23
820.39	224.22
820.71	224.22
821.03	224.22
821.34	224.21
821.66	224.22
821.98	224.23
822.30	224.22
822.61	224.28
822.93	224.25
823.25	224.25
823.57	224.24
823.88	224.25
824.20	224.24
824.52	224.26
824.83	224.25
825.15	224.24
825.47	224.23
825.79	224.24
826.10	224.23
826.42	224.22
826.74	224.23
827.05	224.22
827.37	224.22
827.69	224.21
828.00	224.21
828.32	224.21
828.64	224.19
828.95	224.24
829.27	224.21
829.58	224.21
829.90	224.22
830.22	224.23
830.53	224.21
830.85	224.20
831.17	224.16
831.48	224.16
831.80	224.16
832.11	224.15
832.43	224.14
832.75	224.13
833.06	224.19
833.38	224.16
833.69	224.16
834.01	224.16
834.32	224.16
834.64	224.14
834.96	224.14
835.27	224.14
835.59	224.10
835.90	224.08
836.22	224.07
836.53	224.04
836.85	224.03
837.16	224.13
837.48	224.13
837.79	224.16
838.11	224.16
838.42	224.16
838.74	224.17
839.05	224.16
839.37	224.16
839.68	224.09
840.00	224.09
840.31	224.09
840.63	224.08
840.94	224.07
841.26	224.06
841.57	224.05
841.88	224.06
842.20	224.04
842.51	224.02
842.83	224.02
843.14	224.11
843.46	224.11
843.77	224.05
844.08	224.04
844.40	224.01
844.71	223.99
845.03	223.98
845.34	223.97
845.65	223.96
845.97	223.96
846.28	223.97
846.60	223.98
846.91	223.96
847.22	223.95
847.54	223.98
847.85	223.99
848.16	223.97
848.48	223.95
848.79	223.99
849.10	224.00
849.42	224.00
849.73	223.90
850.04	223.90
850.36	223.86
850.67	223.88
850.98	223.88
851.30	223.89
851.61	223.88
851.92	223.88
852.23	223.91
852.55	223.91
852.86	223.91
853.17	223.92
853.49	223.94
853.80	223.96
854.11	223.96
854.42	223.97
854.74	223.97
855.05	223.97
855.36	223.92
855.67	223.92
855.99	223.92
856.30	224.04
856.61	224.04
856.92	224.04
857.23	224.04
857.55	224.03
857.86	224.02
858.17	224.03
858.48	224.02
858.79	223.99
859.11	224.00
859.42	223.99
859.73	223.98
860.04	223.97
860.35	223.94
860.66	223.91
860.98	223.90
861.29	223.91
861.60	223.90
861.91	223.93
862.22	223.92
862.53	223.90
862.84	223.78
863.16	223.80
863.47	223.78
863.78	223.77
864.09	223.78
864.40	223.79
864.71	223.78
865.02	223.80
865.33	223.78
865.64	223.77
865.95	223.77
866.27	223.83
866.58	223.82
866.89	223.83
867.20	223.83
867.51	223.81
867.82	223.80
868.13	223.83
868.44	223.81
868.75	223.83
869.06	223.83
869.37	223.85
869.68	223.82
869.99	223.84
870.30	223.84
870.61	223.85
870.92	223.83
871.23	223.82
871.54	223.83
871.85	223.86
872.16	223.87
872.47	223.86
872.78	223.81
873.09	223.81
873.40	223.81
873.71	223.81
874.02	223.82
874.33	223.81
874.64	223.78
874.95	223.80
875.26	223.78
875.56	223.77
875.87	223.76
876.18	223.76
876.49	223.86
876.80	223.85
877.11	223.83
877.42	223.83
877.73	223.83
878.04	223.81
878.35	223.81
878.66	223.81
878.96	223.81
879.27	223.80
879.58	223.79
879.89	223.79
880.20	223.81
880.51	223.80
880.82	223.81
881.12	223.81
881.43	223.79
881.74	223.77
882.05	223.76
882.36	223.77
882.67	223.77
882.97	223.66
883.28	223.65
883.59	223.64
883.90	223.65
884.21	223.66
884.51	223.66
884.82	223.64
885.13	223.64
885.44	223.63
885.74	223.63
886.05	223.63
886.36	223.63
886.67	223.59
886.98	223.65
887.28	223.65
887.59	223.65
887.90	223.66
888.20	223.66
888.51	223.68
888.82	223.66
889.13	223.67
889.43	223.76
889.74	223.76
890.05	223.76
890.35	223.75
890.66	223.73
890.97	223.73
891.28	223.72
891.58	223.72
891.89	223.72
892.20	223.71
892.50	223.70
892.81	223.69
893.12	223.69
893.42	223.64
893.73	223.64
894.04	223.64
894.34	223.64
894.65	223.64
894.95	223.63
895.26	223.64
895.57	223.68
895.87	223.57
896.18	223.59
896.48	223.60
896.79	223.60
897.10	223.61
897.40	223.61
897.71	223.62
898.01	223.61
898.32	223.62
898.63	223.63
898.93	223.63
899.24	223.64
899.54	223.63
899.85	223.63
900.15	223.63
900.46	223.63
900.76	223.64
901.07	223.64
901.38	223.63
901.68	223.64
901.99	223.59
902.29	223.60
902.60	223.59
902.90	223.58
903.21	223.58
903.51	223.57
903.82	223.59
904.12	223.59
904.43	223.59
904.73	223.59
905.03	223.59
905.34	223.69
905.64	223.68
905.95	223.68
906.25	223.68
906.56	223.67
906.86	223.67
907.17	223.66
907.47	223.66
907.77	223.65
908.08	223.63
908.38	223.64
908.69	223.64
908.99	223.66
909.30	223.66
909.60	223.66
909.90	223.67
910.21	223.64
910.51	223.62
910.81	223.62
911.12	223.62
911.42	223.62
911.73	223.52
912.03	223.52
912.33	223.54
912.64	223.53
912.94	223.52
913.24	223.51
913.55	223.50
913.85	223.49
914.15	223.51
914.46	223.53
914.76	223.52
915.06	223.51
915.37	223.49
915.67	223.48
915.97	223.48
916.27	223.45
916.58	223.46
916.88	223.45
917.18	223.45
917.49	223.51
917.79	223.51
918.09	223.53
918.39	223.55
918.70	223.54
919.00	223.55
919.30	223.60
919.60	223.59
919.91	223.58
920.21	223.58
920.51	223.56
920.81	223.55
921.12	223.57
921.42	223.57
921.72	223.57
922.02	223.58
922.32	223.60
922.63	223.60
922.93	223.65
923.23	223.66
923.53	223.65
923.83	223.58
924.13	223.59
924.44	223.59
924.74	223.60
925.04	223.62
925.34	223.62
925.64	223.58
925.94	223.58
926.24	223.64
926.55	223.63
926.85	223.64
927.15	223.64
927.45	223.63
927.75	223.63
928.05	223.64
928.35	223.62
928.65	223.64
928.95	223.65
929.26	223.60
929.56	223.62
929.86	223.63
930.16	223.63
930.46	223.61
930.76	223.62
931.06	223.57
931.36	223.55
931.66	223.56
931.96	223.58
932.26	223.58
932.56	223.54
932.86	223.54
933.16	223.54
933.46	223.54
933.76	223.52
934.06	223.54
934.36	223.58
934.66	223.57
934.96	223.56
935.26	223.55
935.56	223.57
935.86	223.54
936.16	223.53
936.46	223.52
936.76	223.52
937.06	223.50
937.36	223.51
937.66	223.51
937.96	223.51
938.26	223.48
938.56	223.48
938.86	223.48
939.16	223.51
939.46	223.52
939.76	223.52
940.06	223.52
940.35	223.51
940.65	223.46
940.95	223.47
941.25	223.44
941.55	223.43
941.85	223.42
942.15	223.44
942.45	223.47
942.75	223.47
943.04	223.48
943.34	223.49
943.64	223.48
943.94	223.46
944.24	223.46
944.54	223.47
944.84	223.47
945.13	223.45
945.43	223.43
945.73	223.42
946.03	223.41
946.33	223.40
946.62	223.38
946.92	223.38
947.22	223.38
947.52	223.39
947.82	223.40
948.11	223.39
948.41	223.37
948.71	223.33
949.01	223.34
949.31	223.33
949.60	223.32
949.90	223.34
950.20	223.33
950.50	223.33
950.79	223.32
951.09	223.34
951.39	223.34
951.69	223.33
951.98	223.35
952.28	223.35
952.58	223.35
952.87	223.35
953.17	223.37
953.47	223.35
953.76	223.35
954.06	223.33
954.36	223.32
954.66	223.32
954.95	223.35
955.25	223.35
955.55	223.36
955.84	223.35
956.14	223.35
956.44	223.36
956.73	223.34
957.03	223.35
957.32	223.35
957.62	223.35
957.92	223.37
958.21	223.36
958.51	223.48
958.81	223.49
959.10	223.50
959.40	223.52
959.69	223.53
959.99	223.54
960.29	223.55
960.58	223.54
960.88	223.58
961.17	223.57
961.47	223.58
961.76	223.57
962.06	223.59
962.36	223.58
962.65	223.59
962.95	223.60
963.24	223.59
963.54	223.59
963.83	223.60
964.13	223.59
964.42	223.58
964.72	223.49
965.01	223.49
965.31	223.48
965.60	223.45
965.90	223.51
966.19	223.49
966.49	223.50
966.78	223.49
967.08	223.48
967.37	223.48
967.67	223.46
967.96	223.48
968.26	223.47
968.55	223.48
968.85	223.48
969.14	223.48
969.43	223.48
969.73	223.47
970.02	223.46
970.32	223.46
970.61	223.44
970.91	223.41
971.20	223.40
971.49	223.39
971.79	223.40
972.08	223.33
972.38	223.34
972.67	223.33
972.96	223.35
973.26	223.33
973.55	223.36
973.85	223.36
974.14	223.35
974.43	223.36
974.73	223.34
975.02	223.33
975.31	223.33
975.61	223.33
975.90	223.32
976.19	223.31
976.49	223.32
976.78	223.33
977.07	223.33
977.37	223.34
977.66	223.35
977.95	223.33
978.24	223.34
978.54	223.36
978.83	223.35
979.12	223.34
979.42	223.34
979.71	223.32
980.00	223.31
980.29	223.32
980.59	223.30
980.88	223.32
981.17	223.32
981.46	223.32
981.76	223.32
982.05	223.36
982.34	223.36
982.63	223.36
982.93	223.36
983.22	223.39
983.51	223.39
983.80	223.40
984.09	223.42
984.39	223.41
984.68	223.39
984.97	223.40
985.26	223.39
985.55	223.40
985.85	223.38
986.14	223.40
986.43	223.41
986.72	223.41
987.01	223.37
987.30	223.37
987.59	223.37
987.89	223.37
988.18	223.34
988.47	223.33
988.76	223.32
989.05	223.31
989.34	223.29
989.63	223.32
989.92	223.30
990.22	223.28
990.51	223.28
990.80	223.28
991.09	223.29
991.38	223.30
991.67	223.29
991.96	223.28
992.25	223.28
992.54	223.26
992.83	223.26
993.12	223.26
993.41	223.28
993.70	223.32
993.99	223.33
994.28	223.35
994.58	223.36
994.87	223.35
995.16	223.35
995.45	223.35
995.74	223.31
996.03	223.32
996.32	223.34
996.61	223.36
996.90	223.36
997.19	223.35
997.48	223.35
997.77	223.34
998.06	223.35
998.34	223.34
998.63	223.34
998.92	223.35
999.21	223.36
999.50	223.36
999.79	223.32
1000.08	223.32
1000.37	223.32
1000.66	223.30
1000.95	223.33
1001.24	223.34
1001.53	223.35
1001.82	223.35
1002.11	223.33
1002.40	223.33
1002.68	223.36
1002.97	223.43
1003.26	223.42
1003.55	223.40
1003.84	223.41
1004.13	223.44
1004.42	223.44
1004.71	223.44
1004.99	223.44
1005.28	223.46
1005.57	223.45
1005.86	223.44
1006.15	223.43
1006.44	223.42
1006.72	223.43
1007.01	223.42
1007.30	223.41
1007.59	223.40
1007.88	223.41
1008.17	223.41
1008.45	223.39
1008.74	223.35
1009.03	223.30
1009.32	223.30
1009.60	223.30
1009.89	223.29
1010.18	223.25
1010.47	223.24
1010.76	223.24
1011.04	223.24
1011.33	223.24
1011.62	223.24
1011.91	223.25
1012.19	223.26
1012.48	223.27
1012.77	223.26
1013.05	223.29
1013.34	223.29
1013.63	223.29
1013.92	223.29
1014.20	223.29
1014.49	223.29
1014.78	223.30
1015.06	223.27
1015.35	223.27
1015.64	223.28
1015.92	223.30
1016.21	223.31
1016.50	223.32
1016.78	223.33
1017.07	223.33
1017.36	223.32
1017.64	223.30
1017.93	223.31
1018.22	223.30
1018.50	223.29
1018.79	223.29
1019.08	223.25
1019.36	223.26
1019.65	223.25
1019.93	223.28
1020.22	223.29
1020.51	223.35
1020.79	223.33
1021.08	223.18
1021.36	223.07
1021.65	223.33
1021.94	223.22
1022.22	223.37
1022.51	223.10
1022.79	223.75
1023.08	223.43
1023.36	224.53
1023.65	223.08
>>>>>End Processed Spectral Data<<<<<
