SpectraSuite Data File
++++++++++++++++++++++++++++++++++++
Date: Wed Sep 30 18:22:58 EDT 2015
User: lab3
Dark Spectrum Present: No
Reference Spectrum Present: No
Number of Sampled Component Spectra: 1
Spectrometers: USB2E7196
Integration Time (usec): 36000 (USB2E7196)
Spectra Averaged: 3000 (USB2E7196)
Boxcar Smoothing: 10 (USB2E7196)
Correct for Electrical Dark: No (USB2E7196)
Strobe/Lamp Enabled: No (USB2E7196)
Correct for Detector Non-linearity: No (USB2E7196)
Correct for Stray Light: No (USB2E7196)
Number of Pixels in Processed Spectrum: 2048
>>>>>Begin Processed Spectral Data<<<<<
339.09	0.00
339.48	210.67
339.86	212.06
340.24	213.45
340.63	214.93
341.01	217.86
341.39	217.56
341.78	218.92
342.16	220.12
342.54	220.62
342.93	209.19
343.31	219.76
343.69	220.29
344.07	220.76
344.46	221.18
344.84	221.57
345.22	221.80
345.60	222.06
345.99	222.26
346.37	222.40
346.75	222.50
347.13	222.57
347.52	222.63
347.90	222.72
348.28	222.75
348.66	222.81
349.05	222.81
349.43	222.85
349.81	222.91
350.19	222.97
350.57	223.03
350.96	223.12
351.34	223.21
351.72	223.31
352.10	223.42
352.48	223.50
352.87	223.55
353.25	223.62
353.63	223.68
354.01	223.74
354.39	223.82
354.77	223.90
355.15	224.01
355.54	224.07
355.92	224.12
356.30	224.19
356.68	224.33
357.06	224.41
357.44	224.46
357.82	224.53
358.20	224.64
358.58	224.71
358.97	224.77
359.35	224.85
359.73	224.92
360.11	224.98
360.49	225.04
360.87	225.09
361.25	225.16
361.63	225.24
362.01	225.29
362.39	225.32
362.77	225.37
363.15	225.39
363.53	225.43
363.91	225.46
364.29	225.48
364.67	225.42
365.05	225.44
365.43	225.47
365.81	225.50
366.19	225.51
366.57	225.56
366.95	225.56
367.33	225.53
367.71	225.52
368.09	225.54
368.47	225.54
368.85	225.53
369.23	225.53
369.61	225.48
369.99	225.49
370.37	225.49
370.75	225.55
371.13	225.52
371.51	225.47
371.89	225.45
372.27	225.42
372.65	225.39
373.03	225.35
373.41	225.31
373.78	225.27
374.16	225.17
374.54	225.10
374.92	225.05
375.30	225.01
375.68	224.95
376.06	224.91
376.44	224.85
376.82	224.80
377.19	224.76
377.57	224.71
377.95	224.62
378.33	224.56
378.71	224.41
379.09	224.36
379.47	224.33
379.84	224.26
380.22	224.20
380.60	224.13
380.98	224.08
381.36	224.03
381.73	223.97
382.11	223.94
382.49	223.89
382.87	223.84
383.25	223.78
383.62	223.85
384.00	223.79
384.38	223.75
384.76	223.73
385.13	223.71
385.51	223.67
385.89	223.62
386.27	223.58
386.64	223.56
387.02	223.51
387.40	223.46
387.78	223.43
388.15	223.40
388.53	223.37
388.91	223.34
389.29	223.30
389.66	223.29
390.04	223.25
390.42	223.24
390.79	223.23
391.17	223.21
391.55	223.08
391.92	223.06
392.30	223.06
392.68	223.03
393.05	223.00
393.43	222.99
393.81	222.99
394.18	222.97
394.56	222.97
394.94	223.00
395.31	223.00
395.69	223.03
396.06	223.06
396.44	223.08
396.82	223.09
397.19	223.17
397.57	223.18
397.95	223.22
398.32	223.22
398.70	223.26
399.07	223.31
399.45	223.34
399.82	223.38
400.20	223.42
400.58	223.47
400.95	223.48
401.33	223.55
401.70	223.67
402.08	223.77
402.45	223.84
402.83	223.94
403.20	224.04
403.58	224.12
403.95	224.24
404.33	224.37
404.71	224.49
405.08	224.66
405.46	224.80
405.83	224.96
406.21	225.13
406.58	225.31
406.96	225.49
407.33	225.70
407.70	225.94
408.08	226.26
408.45	226.53
408.83	226.84
409.20	227.12
409.58	227.38
409.95	227.71
410.33	228.07
410.70	228.42
411.08	228.83
411.45	229.27
411.82	229.70
412.20	230.20
412.57	230.79
412.95	231.24
413.32	231.85
413.69	232.47
414.07	233.12
414.44	233.83
414.82	234.56
415.19	235.42
415.56	236.28
415.94	237.18
416.31	238.20
416.68	239.21
417.06	240.38
417.43	241.48
417.81	242.73
418.18	244.02
418.55	245.43
418.93	246.89
419.30	248.42
419.67	250.06
420.04	251.73
420.42	253.48
420.79	255.51
421.16	257.56
421.54	259.62
421.91	261.80
422.28	264.05
422.66	266.48
423.03	268.79
423.40	271.23
423.77	273.83
424.15	276.50
424.52	279.29
424.89	282.30
425.26	285.30
425.64	288.09
426.01	291.22
426.38	294.42
426.75	297.72
427.13	301.09
427.50	304.62
427.87	308.28
428.24	311.99
428.61	315.53
428.99	319.35
429.36	323.55
429.73	327.57
430.10	331.58
430.47	335.68
430.85	339.88
431.22	344.35
431.59	348.96
431.96	353.44
432.33	358.39
432.70	363.10
433.08	368.66
433.45	373.90
433.82	379.06
434.19	384.82
434.56	390.48
434.93	395.94
435.30	401.34
435.68	407.41
436.05	413.34
436.42	419.26
436.79	424.69
437.16	430.51
437.53	436.77
437.90	443.00
438.27	449.08
438.64	455.70
439.01	461.67
439.38	467.14
439.75	472.40
440.13	478.42
440.50	484.12
440.87	488.62
441.24	493.57
441.61	499.04
441.98	503.03
442.35	507.79
442.72	512.68
443.09	517.35
443.46	520.39
443.83	522.63
444.20	524.53
444.57	527.28
444.94	528.92
445.31	530.62
445.68	532.15
446.05	533.32
446.42	533.19
446.79	532.96
447.16	532.77
447.53	532.64
447.90	530.91
448.27	529.29
448.64	526.72
449.01	525.04
449.37	521.30
449.74	517.91
450.11	513.56
450.48	508.72
450.85	503.85
451.22	499.73
451.59	495.70
451.96	492.04
452.33	486.66
452.70	481.87
453.07	476.02
453.43	470.14
453.80	464.46
454.17	459.00
454.54	453.95
454.91	448.23
455.28	442.84
455.65	437.76
456.02	432.35
456.38	427.99
456.75	422.34
457.12	417.80
457.49	413.22
457.86	408.83
458.23	405.01
458.59	400.78
458.96	396.42
459.33	392.58
459.70	388.66
460.07	385.68
460.43	382.16
460.80	378.86
461.17	375.96
461.54	372.83
461.91	369.91
462.27	366.93
462.64	364.49
463.01	361.71
463.38	358.88
463.74	356.32
464.11	354.03
464.48	351.97
464.85	349.77
465.21	348.07
465.58	346.21
465.95	344.05
466.32	342.32
466.68	340.64
467.05	338.95
467.42	337.32
467.78	335.54
468.15	333.92
468.52	332.70
468.88	331.11
469.25	329.64
469.62	328.48
469.98	327.23
470.35	326.11
470.72	325.09
471.08	324.07
471.45	323.22
471.82	322.28
472.18	321.31
472.55	320.68
472.92	319.90
473.28	319.29
473.65	318.65
474.02	318.05
474.38	317.56
474.75	317.28
475.11	316.86
475.48	316.71
475.85	316.53
476.21	316.47
476.58	316.47
476.94	316.64
477.31	316.75
477.67	316.89
478.04	317.12
478.41	317.43
478.77	317.88
479.14	318.20
479.50	318.73
479.87	319.41
480.23	320.08
480.60	320.73
480.96	321.39
481.33	322.32
481.69	323.26
482.06	324.18
482.42	325.05
482.79	326.10
483.15	327.30
483.52	328.65
483.88	329.95
484.25	331.34
484.61	332.79
484.98	334.36
485.34	336.10
485.71	337.92
486.07	339.86
486.44	341.78
486.80	343.91
487.17	346.09
487.53	348.48
487.90	350.99
488.26	353.70
488.62	356.56
488.99	359.43
489.35	362.43
489.72	365.66
490.08	369.05
490.44	372.54
490.81	376.19
491.17	379.95
491.54	383.96
491.90	388.06
492.26	392.46
492.63	397.10
492.99	401.94
493.36	406.90
493.72	412.12
494.08	417.49
494.45	423.16
494.81	429.03
495.17	435.02
495.54	441.33
495.90	447.96
496.26	454.74
496.63	461.75
496.99	469.03
497.35	476.68
497.72	484.62
498.08	492.72
498.44	501.08
498.80	509.96
499.17	519.07
499.53	528.50
499.89	538.17
500.26	548.03
500.62	558.16
500.98	568.95
501.34	579.86
501.71	591.31
502.07	602.96
502.43	615.03
502.79	627.43
503.16	640.25
503.52	653.26
503.88	666.59
504.24	680.36
504.60	694.42
504.97	708.84
505.33	723.65
505.69	739.36
506.05	755.27
506.41	771.23
506.78	787.48
507.14	804.24
507.50	821.56
507.86	839.25
508.22	857.19
508.59	875.17
508.95	893.89
509.31	913.05
509.67	932.90
510.03	952.97
510.39	973.28
510.75	993.77
511.12	1014.53
511.48	1035.68
511.84	1056.94
512.20	1078.51
512.56	1101.21
512.92	1124.13
513.28	1146.74
513.64	1169.67
514.00	1193.04
514.37	1216.72
514.73	1240.41
515.09	1263.98
515.45	1287.93
515.81	1312.48
516.17	1337.08
516.53	1361.40
516.89	1385.80
517.25	1410.39
517.61	1435.18
517.97	1460.21
518.33	1485.06
518.69	1510.11
519.05	1535.44
519.41	1560.87
519.77	1586.58
520.13	1611.54
520.49	1636.69
520.85	1662.06
521.21	1687.34
521.57	1713.16
521.93	1738.34
522.29	1764.33
522.65	1790.09
523.01	1815.70
523.37	1840.51
523.73	1866.07
524.09	1891.81
524.45	1917.45
524.81	1942.63
525.17	1967.66
525.53	1992.32
525.89	2016.95
526.25	2041.73
526.61	2065.94
526.97	2090.51
527.33	2115.03
527.68	2139.37
528.04	2162.97
528.40	2186.44
528.76	2210.07
529.12	2232.72
529.48	2255.83
529.84	2277.14
530.20	2298.90
530.56	2320.35
530.91	2341.95
531.27	2362.96
531.63	2383.37
531.99	2403.26
532.35	2422.92
532.71	2442.82
533.07	2463.23
533.42	2482.11
533.78	2501.39
534.14	2520.66
534.50	2539.10
534.86	2558.14
535.21	2575.39
535.57	2592.52
535.93	2608.88
536.29	2624.00
536.65	2639.92
537.00	2654.67
537.36	2670.08
537.72	2684.51
538.08	2698.71
538.44	2711.72
538.79	2724.95
539.15	2736.42
539.51	2747.76
539.87	2758.57
540.22	2767.15
540.58	2776.02
540.94	2785.43
541.29	2793.33
541.65	2800.33
542.01	2806.80
542.37	2811.34
542.72	2817.77
543.08	2823.60
543.44	2829.41
543.79	2834.54
544.15	2838.79
544.51	2842.95
544.87	2846.11
545.22	2848.90
545.58	2850.61
545.94	2852.85
546.29	2853.63
546.65	2854.49
547.01	2855.52
547.36	2856.75
547.72	2858.26
548.07	2858.08
548.43	2857.31
548.79	2855.93
549.14	2854.44
549.50	2853.55
549.86	2851.82
550.21	2847.73
550.57	2844.17
550.92	2839.02
551.28	2834.52
551.64	2829.83
551.99	2825.56
552.35	2820.94
552.70	2815.80
553.06	2811.31
553.41	2806.25
553.77	2800.58
554.13	2795.73
554.48	2789.86
554.84	2782.43
555.19	2775.04
555.55	2767.02
555.90	2759.54
556.26	2753.17
556.61	2746.19
556.97	2737.02
557.32	2728.90
557.68	2720.94
558.03	2712.31
558.39	2704.53
558.74	2696.83
559.10	2688.02
559.45	2678.83
559.81	2669.72
560.16	2660.08
560.52	2650.04
560.87	2641.03
561.23	2631.66
561.58	2621.80
561.94	2611.76
562.29	2601.09
562.64	2590.98
563.00	2581.32
563.35	2571.50
563.71	2560.57
564.06	2549.26
564.42	2538.93
564.77	2528.15
565.12	2517.51
565.48	2506.54
565.83	2496.21
566.19	2485.94
566.54	2475.16
566.89	2463.51
567.25	2451.98
567.60	2441.24
567.96	2430.07
568.31	2417.59
568.66	2405.03
569.02	2393.45
569.37	2381.71
569.72	2370.56
570.08	2358.56
570.43	2345.95
570.78	2333.03
571.14	2320.12
571.49	2307.87
571.84	2295.86
572.20	2282.42
572.55	2269.53
572.90	2256.51
573.26	2242.66
573.61	2228.19
573.96	2214.01
574.31	2200.13
574.67	2186.47
575.02	2172.30
575.37	2157.74
575.72	2143.44
576.08	2129.66
576.43	2114.80
576.78	2099.91
577.13	2085.79
577.49	2071.94
577.84	2058.48
578.19	2044.20
578.54	2029.42
578.90	2014.08
579.25	1998.52
579.60	1984.55
579.95	1970.11
580.30	1955.75
580.66	1941.55
581.01	1926.87
581.36	1912.68
581.71	1899.09
582.06	1884.95
582.42	1870.99
582.77	1857.71
583.12	1843.96
583.47	1830.31
583.82	1816.79
584.17	1803.10
584.53	1789.32
584.88	1775.50
585.23	1761.34
585.58	1747.74
585.93	1734.45
586.28	1722.06
586.63	1709.44
586.98	1696.00
587.34	1682.84
587.69	1669.20
588.04	1655.79
588.39	1643.09
588.74	1629.78
589.09	1616.26
589.44	1602.77
589.79	1589.77
590.14	1576.65
590.49	1563.76
590.84	1550.75
591.19	1538.33
591.54	1525.50
591.89	1512.49
592.25	1499.74
592.60	1486.64
592.95	1474.04
593.30	1461.85
593.65	1449.43
594.00	1437.25
594.35	1425.85
594.70	1413.52
595.05	1402.21
595.40	1390.77
595.75	1378.75
596.10	1367.56
596.45	1356.61
596.80	1346.08
597.15	1335.31
597.50	1324.54
597.85	1313.96
598.19	1303.62
598.54	1292.73
598.89	1282.53
599.24	1272.61
599.59	1262.48
599.94	1253.35
600.29	1244.13
600.64	1234.68
600.99	1224.59
601.34	1215.02
601.69	1204.86
602.04	1195.88
602.39	1186.77
602.74	1177.96
603.08	1169.37
603.43	1160.25
603.78	1150.93
604.13	1141.76
604.48	1132.54
604.83	1123.61
605.18	1114.58
605.53	1105.46
605.87	1096.42
606.22	1087.65
606.57	1078.62
606.92	1069.65
607.27	1060.58
607.62	1051.58
607.96	1042.77
608.31	1035.05
608.66	1026.87
609.01	1019.11
609.36	1011.25
609.70	1003.13
610.05	994.85
610.40	986.92
610.75	979.12
611.10	971.58
611.44	963.68
611.79	956.10
612.14	948.10
612.49	940.25
612.83	932.90
613.18	925.66
613.53	918.24
613.88	910.91
614.22	904.22
614.57	897.31
614.92	890.35
615.27	883.43
615.61	876.33
615.96	869.48
616.31	862.53
616.65	855.53
617.00	848.76
617.35	842.08
617.70	835.48
618.04	828.96
618.39	822.46
618.74	816.30
619.08	809.93
619.43	803.87
619.78	797.81
620.12	791.54
620.47	785.48
620.82	779.44
621.16	773.75
621.51	767.68
621.85	761.61
622.20	755.62
622.55	749.79
622.89	743.89
623.24	738.03
623.59	732.29
623.93	726.58
624.28	721.04
624.62	715.48
624.97	709.88
625.32	704.40
625.66	698.80
626.01	693.19
626.35	687.75
626.70	682.32
627.04	677.10
627.39	671.95
627.73	666.88
628.08	662.05
628.43	657.07
628.77	652.13
629.12	647.36
629.46	642.79
629.81	638.04
630.15	633.20
630.50	628.51
630.84	624.00
631.19	619.66
631.53	615.36
631.88	610.96
632.22	606.67
632.57	602.59
632.91	598.46
633.26	594.43
633.60	590.47
633.95	586.64
634.29	582.65
634.64	578.62
634.98	574.48
635.32	570.51
635.67	566.70
636.01	562.85
636.36	559.03
636.70	555.35
637.05	551.65
637.39	548.15
637.73	544.50
638.08	540.93
638.42	537.36
638.77	533.64
639.11	529.90
639.45	526.20
639.80	522.51
640.14	519.00
640.49	515.45
640.83	511.80
641.17	508.18
641.52	504.74
641.86	501.29
642.20	498.02
642.55	494.60
642.89	491.24
643.23	488.11
643.58	485.23
643.92	482.20
644.26	479.22
644.61	476.21
644.95	473.21
645.29	470.15
645.64	467.05
645.98	464.11
646.32	461.35
646.66	458.59
647.01	455.80
647.35	453.07
647.69	450.23
648.04	447.51
648.38	444.84
648.72	442.10
649.06	439.46
649.41	436.86
649.75	434.26
650.09	431.67
650.43	429.08
650.78	426.46
651.12	423.84
651.46	421.32
651.80	418.90
652.14	416.57
652.49	414.26
652.83	412.01
653.17	409.73
653.51	407.52
653.85	405.39
654.20	403.20
654.54	400.91
654.88	398.81
655.22	396.78
655.56	394.71
655.90	392.75
656.25	390.81
656.59	388.85
656.93	386.99
657.27	385.19
657.61	383.28
657.95	381.44
658.29	379.59
658.64	377.76
658.98	375.92
659.32	374.11
659.66	372.40
660.00	370.71
660.34	369.05
660.68	367.33
661.02	365.54
661.36	363.88
661.70	362.29
662.05	360.68
662.39	359.06
662.73	357.52
663.07	356.01
663.41	354.52
663.75	353.07
664.09	351.61
664.43	350.07
664.77	348.64
665.11	347.15
665.45	345.75
665.79	344.34
666.13	342.92
666.47	341.48
666.81	340.03
667.15	338.53
667.49	337.14
667.83	335.80
668.17	334.51
668.51	333.24
668.85	331.98
669.19	330.79
669.53	329.53
669.87	328.25
670.21	326.98
670.55	325.75
670.89	324.58
671.23	323.38
671.57	322.19
671.91	321.06
672.25	319.99
672.58	318.91
672.92	317.81
673.26	316.78
673.60	315.76
673.94	314.72
674.28	313.74
674.62	312.75
674.96	311.73
675.30	310.76
675.64	309.79
675.97	308.82
676.31	307.82
676.65	306.85
676.99	305.95
677.33	304.99
677.67	304.08
678.01	303.08
678.34	302.16
678.68	301.31
679.02	300.42
679.36	299.53
679.70	298.65
680.04	297.79
680.37	296.93
680.71	296.09
681.05	295.32
681.39	294.51
681.73	293.66
682.06	292.86
682.40	292.06
682.74	291.27
683.08	290.51
683.42	289.74
683.75	289.03
684.09	288.26
684.43	287.53
684.77	286.79
685.10	286.10
685.44	285.39
685.78	284.67
686.12	283.98
686.45	283.29
686.79	282.60
687.13	281.94
687.46	281.24
687.80	280.57
688.14	279.85
688.48	279.19
688.81	278.54
689.15	277.93
689.49	277.28
689.82	276.65
690.16	275.97
690.50	275.34
690.83	274.72
691.17	274.11
691.51	273.52
691.84	272.93
692.18	272.32
692.52	271.71
692.85	271.10
693.19	270.55
693.52	269.99
693.86	269.42
694.20	268.85
694.53	268.32
694.87	267.76
695.21	267.24
695.54	266.71
695.88	266.17
696.21	265.60
696.55	265.08
696.88	264.56
697.22	264.06
697.56	263.57
697.89	263.02
698.23	262.50
698.56	261.97
698.90	261.49
699.23	261.00
699.57	260.54
699.90	260.07
700.24	259.57
700.58	259.12
700.91	258.69
701.25	258.34
701.58	257.94
701.92	257.55
702.25	257.12
702.59	256.69
702.92	256.29
703.26	255.89
703.59	255.47
703.93	255.15
704.26	254.76
704.60	254.37
704.93	254.00
705.26	253.63
705.60	253.29
705.93	252.90
706.27	252.58
706.60	252.24
706.94	251.92
707.27	251.53
707.61	251.16
707.94	250.79
708.27	250.35
708.61	249.96
708.94	249.59
709.28	249.25
709.61	248.92
709.94	248.61
710.28	248.31
710.61	248.02
710.95	247.64
711.28	247.41
711.61	247.12
711.95	246.86
712.28	246.56
712.61	246.25
712.95	246.04
713.28	245.80
713.61	245.51
713.95	245.21
714.28	244.97
714.61	244.69
714.95	244.43
715.28	244.17
715.61	243.92
715.95	243.68
716.28	243.43
716.61	243.21
716.95	242.96
717.28	242.73
717.61	242.48
717.94	242.24
718.28	241.93
718.61	241.70
718.94	241.46
719.27	241.24
719.61	241.03
719.94	240.79
720.27	240.51
720.60	240.31
720.94	240.11
721.27	239.91
721.60	239.74
721.93	239.54
722.27	239.39
722.60	239.20
722.93	239.00
723.26	238.82
723.59	238.61
723.93	238.43
724.26	238.26
724.59	238.08
724.92	237.91
725.25	237.77
725.59	237.60
725.92	237.46
726.25	237.30
726.58	237.13
726.91	236.96
727.24	236.81
727.57	236.66
727.91	236.49
728.24	236.36
728.57	236.19
728.90	236.06
729.23	235.88
729.56	235.77
729.89	235.63
730.22	235.48
730.55	235.34
730.89	235.19
731.22	235.05
731.55	234.90
731.88	234.77
732.21	234.62
732.54	234.48
732.87	234.35
733.20	234.23
733.53	234.11
733.86	234.01
734.19	233.88
734.52	233.77
734.85	233.72
735.18	233.57
735.51	233.49
735.84	233.36
736.17	233.27
736.50	233.11
736.83	233.12
737.16	233.02
737.49	232.92
737.82	232.82
738.15	232.73
738.48	232.63
738.81	232.52
739.14	232.41
739.47	232.31
739.80	232.20
740.13	232.11
740.46	231.99
740.79	231.87
741.12	231.77
741.45	231.66
741.78	231.50
742.11	231.44
742.44	231.32
742.77	231.24
743.10	231.14
743.43	231.04
743.75	230.83
744.08	230.91
744.41	230.81
744.74	230.71
745.07	230.59
745.40	230.52
745.73	230.48
746.06	230.40
746.39	230.33
746.71	230.25
747.04	230.15
747.37	230.08
747.70	230.02
748.03	229.95
748.36	229.89
748.68	229.82
749.01	229.71
749.34	229.64
749.67	229.57
750.00	229.51
750.33	229.52
750.65	229.47
750.98	229.25
751.31	229.18
751.64	229.13
751.97	229.12
752.29	229.04
752.62	228.92
752.95	228.85
753.28	228.77
753.60	228.70
753.93	228.66
754.26	228.60
754.59	228.50
754.91	228.42
755.24	228.35
755.57	228.33
755.90	228.27
756.22	228.19
756.55	228.11
756.88	228.03
757.20	227.89
757.53	227.79
757.86	227.73
758.19	227.68
758.51	227.62
758.84	227.51
759.17	227.45
759.49	227.40
759.82	227.40
760.15	227.35
760.47	227.30
760.80	227.23
761.13	227.20
761.45	227.15
761.78	227.10
762.11	227.06
762.43	226.95
762.76	226.91
763.08	226.89
763.41	226.83
763.74	226.80
764.06	226.76
764.39	226.73
764.71	226.68
765.04	226.63
765.37	226.57
765.69	226.53
766.02	226.48
766.34	226.43
766.67	226.35
767.00	226.33
767.32	226.34
767.65	226.37
767.97	226.31
768.30	226.28
768.62	226.24
768.95	226.19
769.27	226.15
769.60	226.12
769.92	226.06
770.25	226.02
770.57	225.97
770.90	225.93
771.22	225.88
771.55	225.85
771.87	225.82
772.20	225.79
772.52	225.85
772.85	225.94
773.17	225.91
773.50	225.87
773.82	225.82
774.15	225.74
774.47	225.64
774.80	225.61
775.12	225.58
775.45	225.55
775.77	225.53
776.09	225.51
776.42	225.48
776.74	225.49
777.07	225.46
777.39	225.43
777.72	225.40
778.04	225.39
778.36	225.36
778.69	225.34
779.01	225.32
779.33	225.20
779.66	225.06
779.98	225.03
780.31	225.01
780.63	225.04
780.95	225.04
781.28	225.02
781.60	224.98
781.92	224.96
782.25	224.94
782.57	224.92
782.89	224.89
783.22	224.87
783.54	224.83
783.86	224.82
784.19	224.79
784.51	224.81
784.83	224.77
785.16	224.74
785.48	224.72
785.80	224.71
786.12	224.70
786.45	224.68
786.77	224.68
787.09	224.65
787.42	224.59
787.74	224.58
788.06	224.57
788.38	224.55
788.71	224.52
789.03	224.51
789.35	224.51
789.67	224.48
789.99	224.47
790.32	224.45
790.64	224.45
790.96	224.53
791.28	224.47
791.61	224.46
791.93	224.46
792.25	224.44
792.57	224.50
792.89	224.47
793.21	224.47
793.54	224.44
793.86	224.41
794.18	224.40
794.50	224.36
794.82	224.35
795.14	224.35
795.47	224.36
795.79	224.34
796.11	224.31
796.43	224.29
796.75	224.27
797.07	224.26
797.39	224.24
797.71	224.14
798.04	224.14
798.36	224.13
798.68	224.10
799.00	224.10
799.32	224.03
799.64	224.04
799.96	224.02
800.28	224.03
800.60	224.02
800.92	224.02
801.24	224.00
801.56	223.99
801.89	223.96
802.21	223.96
802.53	223.93
802.85	223.94
803.17	223.97
803.49	223.94
803.81	223.92
804.13	223.90
804.45	223.88
804.77	223.87
805.09	223.86
805.41	223.85
805.73	223.82
806.05	223.77
806.37	223.76
806.69	223.74
807.01	223.71
807.33	223.71
807.65	223.66
807.97	223.69
808.28	223.67
808.60	223.66
808.92	223.64
809.24	223.70
809.56	223.66
809.88	223.62
810.20	223.63
810.52	223.64
810.84	223.62
811.16	223.60
811.48	223.58
811.80	223.62
812.12	223.60
812.43	223.61
812.75	223.62
813.07	223.60
813.39	223.61
813.71	223.59
814.03	223.57
814.35	223.57
814.67	223.52
814.98	223.52
815.30	223.51
815.62	223.49
815.94	223.41
816.26	223.42
816.58	223.40
816.89	223.40
817.21	223.37
817.53	223.37
817.85	223.37
818.17	223.37
818.48	223.32
818.80	223.34
819.12	223.31
819.44	223.29
819.76	223.27
820.07	223.26
820.39	223.26
820.71	223.26
821.03	223.26
821.34	223.24
821.66	223.24
821.98	223.24
822.30	223.23
822.61	223.30
822.93	223.28
823.25	223.27
823.57	223.26
823.88	223.27
824.20	223.26
824.52	223.28
824.83	223.27
825.15	223.26
825.47	223.24
825.79	223.26
826.10	223.25
826.42	223.25
826.74	223.25
827.05	223.24
827.37	223.24
827.69	223.23
828.00	223.24
828.32	223.25
828.64	223.23
828.95	223.28
829.27	223.24
829.58	223.24
829.90	223.25
830.22	223.25
830.53	223.23
830.85	223.22
831.17	223.19
831.48	223.19
831.80	223.19
832.11	223.18
832.43	223.16
832.75	223.16
833.06	223.21
833.38	223.18
833.69	223.18
834.01	223.18
834.32	223.18
834.64	223.16
834.96	223.15
835.27	223.15
835.59	223.11
835.90	223.10
836.22	223.09
836.53	223.07
836.85	223.05
837.16	223.16
837.48	223.16
837.79	223.19
838.11	223.19
838.42	223.19
838.74	223.19
839.05	223.18
839.37	223.18
839.68	223.12
840.00	223.12
840.31	223.13
840.63	223.12
840.94	223.11
841.26	223.09
841.57	223.09
841.88	223.09
842.20	223.07
842.51	223.06
842.83	223.05
843.14	223.15
843.46	223.14
843.77	223.08
844.08	223.07
844.40	223.03
844.71	223.02
845.03	223.01
845.34	223.00
845.65	223.00
845.97	223.00
846.28	223.01
846.60	223.01
846.91	222.99
847.22	222.99
847.54	223.01
847.85	223.02
848.16	223.01
848.48	222.99
848.79	223.02
849.10	223.03
849.42	223.04
849.73	222.94
850.04	222.93
850.36	222.90
850.67	222.91
850.98	222.91
851.30	222.92
851.61	222.91
851.92	222.91
852.23	222.94
852.55	222.95
852.86	222.94
853.17	222.93
853.49	222.95
853.80	222.97
854.11	222.97
854.42	222.98
854.74	222.97
855.05	222.97
855.36	222.92
855.67	222.92
855.99	222.92
856.30	223.04
856.61	223.03
856.92	223.03
857.23	223.04
857.55	223.02
857.86	223.01
858.17	223.03
858.48	223.01
858.79	222.98
859.11	222.98
859.42	222.98
859.73	222.97
860.04	222.97
860.35	222.94
860.66	222.91
860.98	222.90
861.29	222.91
861.60	222.91
861.91	222.93
862.22	222.92
862.53	222.90
862.84	222.78
863.16	222.80
863.47	222.78
863.78	222.77
864.09	222.78
864.40	222.79
864.71	222.79
865.02	222.81
865.33	222.80
865.64	222.78
865.95	222.78
866.27	222.85
866.58	222.83
866.89	222.84
867.20	222.85
867.51	222.83
867.82	222.83
868.13	222.87
868.44	222.84
868.75	222.86
869.06	222.87
869.37	222.88
869.68	222.85
869.99	222.87
870.30	222.87
870.61	222.88
870.92	222.86
871.23	222.86
871.54	222.86
871.85	222.88
872.16	222.90
872.47	222.89
872.78	222.83
873.09	222.84
873.40	222.83
873.71	222.83
874.02	222.84
874.33	222.83
874.64	222.79
874.95	222.81
875.26	222.79
875.56	222.79
875.87	222.79
876.18	222.78
876.49	222.88
876.80	222.88
877.11	222.85
877.42	222.86
877.73	222.86
878.04	222.84
878.35	222.85
878.66	222.84
878.96	222.84
879.27	222.84
879.58	222.83
879.89	222.83
880.20	222.86
880.51	222.85
880.82	222.85
881.12	222.86
881.43	222.84
881.74	222.83
882.05	222.82
882.36	222.81
882.67	222.83
882.97	222.71
883.28	222.70
883.59	222.70
883.90	222.70
884.21	222.72
884.51	222.71
884.82	222.69
885.13	222.69
885.44	222.69
885.74	222.69
886.05	222.69
886.36	222.68
886.67	222.64
886.98	222.70
887.28	222.71
887.59	222.71
887.90	222.71
888.20	222.71
888.51	222.74
888.82	222.73
889.13	222.73
889.43	222.82
889.74	222.82
890.05	222.82
890.35	222.81
890.66	222.79
890.97	222.78
891.28	222.77
891.58	222.77
891.89	222.77
892.20	222.76
892.50	222.74
892.81	222.74
893.12	222.74
893.42	222.69
893.73	222.68
894.04	222.68
894.34	222.69
894.65	222.69
894.95	222.67
895.26	222.67
895.57	222.71
895.87	222.61
896.18	222.63
896.48	222.64
896.79	222.64
897.10	222.66
897.40	222.66
897.71	222.67
898.01	222.65
898.32	222.67
898.63	222.66
898.93	222.67
899.24	222.68
899.54	222.67
899.85	222.67
900.15	222.66
900.46	222.66
900.76	222.66
901.07	222.65
901.38	222.65
901.68	222.67
901.99	222.61
902.29	222.62
902.60	222.61
902.90	222.59
903.21	222.59
903.51	222.58
903.82	222.60
904.12	222.60
904.43	222.61
904.73	222.59
905.03	222.60
905.34	222.69
905.64	222.68
905.95	222.68
906.25	222.68
906.56	222.67
906.86	222.67
907.17	222.66
907.47	222.67
907.77	222.66
908.08	222.63
908.38	222.64
908.69	222.65
908.99	222.66
909.30	222.66
909.60	222.66
909.90	222.66
910.21	222.63
910.51	222.62
910.81	222.62
911.12	222.63
911.42	222.64
911.73	222.53
912.03	222.54
912.33	222.56
912.64	222.55
912.94	222.54
913.24	222.53
913.55	222.52
913.85	222.52
914.15	222.54
914.46	222.55
914.76	222.55
915.06	222.53
915.37	222.52
915.67	222.51
915.97	222.52
916.27	222.49
916.58	222.50
916.88	222.50
917.18	222.49
917.49	222.55
917.79	222.55
918.09	222.56
918.39	222.58
918.70	222.58
919.00	222.59
919.30	222.64
919.60	222.64
919.91	222.62
920.21	222.63
920.51	222.61
920.81	222.61
921.12	222.63
921.42	222.63
921.72	222.64
922.02	222.65
922.32	222.66
922.63	222.67
922.93	222.73
923.23	222.73
923.53	222.72
923.83	222.65
924.13	222.66
924.44	222.66
924.74	222.68
925.04	222.70
925.34	222.70
925.64	222.65
925.94	222.66
926.24	222.72
926.55	222.70
926.85	222.72
927.15	222.72
927.45	222.71
927.75	222.71
928.05	222.71
928.35	222.70
928.65	222.71
928.95	222.71
929.26	222.66
929.56	222.68
929.86	222.69
930.16	222.69
930.46	222.68
930.76	222.68
931.06	222.62
931.36	222.59
931.66	222.61
931.96	222.62
932.26	222.62
932.56	222.58
932.86	222.58
933.16	222.58
933.46	222.57
933.76	222.55
934.06	222.56
934.36	222.60
934.66	222.59
934.96	222.58
935.26	222.58
935.56	222.59
935.86	222.56
936.16	222.54
936.46	222.53
936.76	222.53
937.06	222.51
937.36	222.53
937.66	222.53
937.96	222.52
938.26	222.50
938.56	222.50
938.86	222.50
939.16	222.52
939.46	222.51
939.76	222.53
940.06	222.53
940.35	222.52
940.65	222.46
940.95	222.48
941.25	222.45
941.55	222.43
941.85	222.42
942.15	222.45
942.45	222.48
942.75	222.47
943.04	222.48
943.34	222.50
943.64	222.49
943.94	222.47
944.24	222.47
944.54	222.47
944.84	222.46
945.13	222.45
945.43	222.44
945.73	222.44
946.03	222.42
946.33	222.41
946.62	222.40
946.92	222.41
947.22	222.41
947.52	222.42
947.82	222.44
948.11	222.42
948.41	222.40
948.71	222.37
949.01	222.38
949.31	222.38
949.60	222.36
949.90	222.37
950.20	222.37
950.50	222.37
950.79	222.37
951.09	222.39
951.39	222.38
951.69	222.36
951.98	222.38
952.28	222.39
952.58	222.39
952.87	222.38
953.17	222.40
953.47	222.38
953.76	222.37
954.06	222.36
954.36	222.35
954.66	222.35
954.95	222.37
955.25	222.38
955.55	222.39
955.84	222.38
956.14	222.39
956.44	222.40
956.73	222.38
957.03	222.39
957.32	222.39
957.62	222.38
957.92	222.41
958.21	222.39
958.51	222.51
958.81	222.53
959.10	222.54
959.40	222.56
959.69	222.57
959.99	222.59
960.29	222.60
960.58	222.60
960.88	222.63
961.17	222.61
961.47	222.62
961.76	222.61
962.06	222.63
962.36	222.61
962.65	222.62
962.95	222.63
963.24	222.61
963.54	222.61
963.83	222.62
964.13	222.62
964.42	222.61
964.72	222.51
965.01	222.50
965.31	222.50
965.60	222.46
965.90	222.52
966.19	222.49
966.49	222.50
966.78	222.49
967.08	222.48
967.37	222.48
967.67	222.45
967.96	222.47
968.26	222.46
968.55	222.47
968.85	222.46
969.14	222.46
969.43	222.46
969.73	222.45
970.02	222.44
970.32	222.43
970.61	222.41
970.91	222.39
971.20	222.37
971.49	222.37
971.79	222.38
972.08	222.30
972.38	222.32
972.67	222.30
972.96	222.32
973.26	222.30
973.55	222.33
973.85	222.33
974.14	222.32
974.43	222.32
974.73	222.31
975.02	222.30
975.31	222.30
975.61	222.30
975.90	222.29
976.19	222.28
976.49	222.30
976.78	222.31
977.07	222.30
977.37	222.31
977.66	222.32
977.95	222.30
978.24	222.31
978.54	222.33
978.83	222.32
979.12	222.31
979.42	222.31
979.71	222.30
980.00	222.30
980.29	222.30
980.59	222.29
980.88	222.31
981.17	222.31
981.46	222.31
981.76	222.30
982.05	222.33
982.34	222.34
982.63	222.34
982.93	222.34
983.22	222.37
983.51	222.38
983.80	222.40
984.09	222.41
984.39	222.40
984.68	222.39
984.97	222.41
985.26	222.40
985.55	222.41
985.85	222.39
986.14	222.40
986.43	222.41
986.72	222.41
987.01	222.37
987.30	222.38
987.59	222.38
987.89	222.39
988.18	222.36
988.47	222.36
988.76	222.34
989.05	222.34
989.34	222.32
989.63	222.34
989.92	222.32
990.22	222.31
990.51	222.31
990.80	222.29
991.09	222.30
991.38	222.31
991.67	222.30
991.96	222.29
992.25	222.30
992.54	222.28
992.83	222.28
993.12	222.28
993.41	222.30
993.70	222.34
993.99	222.35
994.28	222.36
994.58	222.38
994.87	222.37
995.16	222.37
995.45	222.36
995.74	222.31
996.03	222.33
996.32	222.34
996.61	222.37
996.90	222.37
997.19	222.36
997.48	222.36
997.77	222.34
998.06	222.34
998.34	222.33
998.63	222.33
998.92	222.34
999.21	222.35
999.50	222.34
999.79	222.30
1000.08	222.30
1000.37	222.30
1000.66	222.27
1000.95	222.30
1001.24	222.31
1001.53	222.32
1001.82	222.33
1002.11	222.30
1002.40	222.31
1002.68	222.33
1002.97	222.40
1003.26	222.39
1003.55	222.38
1003.84	222.40
1004.13	222.43
1004.42	222.43
1004.71	222.43
1004.99	222.42
1005.28	222.45
1005.57	222.45
1005.86	222.45
1006.15	222.43
1006.44	222.42
1006.72	222.44
1007.01	222.41
1007.30	222.41
1007.59	222.41
1007.88	222.41
1008.17	222.41
1008.45	222.39
1008.74	222.34
1009.03	222.29
1009.32	222.29
1009.60	222.29
1009.89	222.27
1010.18	222.23
1010.47	222.23
1010.76	222.23
1011.04	222.23
1011.33	222.22
1011.62	222.22
1011.91	222.23
1012.19	222.23
1012.48	222.24
1012.77	222.24
1013.05	222.28
1013.34	222.27
1013.63	222.27
1013.92	222.28
1014.20	222.27
1014.49	222.29
1014.78	222.29
1015.06	222.27
1015.35	222.27
1015.64	222.29
1015.92	222.31
1016.21	222.31
1016.50	222.31
1016.78	222.32
1017.07	222.32
1017.36	222.31
1017.64	222.30
1017.93	222.31
1018.22	222.30
1018.50	222.30
1018.79	222.29
1019.08	222.26
1019.36	222.27
1019.65	222.26
1019.93	222.28
1020.22	222.30
1020.51	222.35
1020.79	222.34
1021.08	222.14
1021.36	222.15
1021.65	222.28
1021.94	222.34
1022.22	222.42
1022.51	222.12
1022.79	222.79
1023.08	222.41
1023.36	223.57
1023.65	222.08
>>>>>End Processed Spectral Data<<<<<
