SpectraSuite Data File
++++++++++++++++++++++++++++++++++++
Date: Thu Oct 01 12:21:13 EDT 2015
User: lab3
Dark Spectrum Present: No
Reference Spectrum Present: No
Number of Sampled Component Spectra: 1
Spectrometers: USB2E7196
Integration Time (usec): 36000 (USB2E7196)
Spectra Averaged: 10000 (USB2E7196)
Boxcar Smoothing: 10 (USB2E7196)
Correct for Electrical Dark: No (USB2E7196)
Strobe/Lamp Enabled: No (USB2E7196)
Correct for Detector Non-linearity: No (USB2E7196)
Correct for Stray Light: No (USB2E7196)
Number of Pixels in Processed Spectrum: 2048
>>>>>Begin Processed Spectral Data<<<<<
339.09	0.00
339.48	210.67
339.86	212.18
340.24	213.52
340.63	214.97
341.01	217.93
341.39	217.72
341.78	219.00
342.16	220.23
342.54	220.72
342.93	209.26
343.31	219.84
343.69	220.38
344.07	220.84
344.46	221.27
344.84	221.66
345.22	221.89
345.60	222.15
345.99	222.34
346.37	222.48
346.75	222.58
347.13	222.66
347.52	222.73
347.90	222.81
348.28	222.85
348.66	222.91
349.05	222.91
349.43	222.97
349.81	223.02
350.19	223.08
350.57	223.15
350.96	223.23
351.34	223.32
351.72	223.42
352.10	223.52
352.48	223.60
352.87	223.65
353.25	223.72
353.63	223.78
354.01	223.85
354.39	223.93
354.77	224.00
355.15	224.10
355.54	224.15
355.92	224.18
356.30	224.26
356.68	224.40
357.06	224.47
357.44	224.52
357.82	224.58
358.20	224.69
358.58	224.75
358.97	224.82
359.35	224.90
359.73	224.97
360.11	225.02
360.49	225.08
360.87	225.13
361.25	225.19
361.63	225.27
362.01	225.32
362.39	225.35
362.77	225.40
363.15	225.42
363.53	225.45
363.91	225.49
364.29	225.51
364.67	225.43
365.05	225.45
365.43	225.48
365.81	225.51
366.19	225.52
366.57	225.57
366.95	225.57
367.33	225.55
367.71	225.55
368.09	225.56
368.47	225.55
368.85	225.54
369.23	225.55
369.61	225.49
369.99	225.51
370.37	225.50
370.75	225.56
371.13	225.52
371.51	225.48
371.89	225.46
372.27	225.44
372.65	225.41
373.03	225.37
373.41	225.33
373.78	225.28
374.16	225.18
374.54	225.11
374.92	225.06
375.30	225.01
375.68	224.94
376.06	224.90
376.44	224.84
376.82	224.80
377.19	224.74
377.57	224.69
377.95	224.61
378.33	224.55
378.71	224.40
379.09	224.36
379.47	224.32
379.84	224.26
380.22	224.20
380.60	224.13
380.98	224.08
381.36	224.03
381.73	223.97
382.11	223.94
382.49	223.90
382.87	223.84
383.25	223.80
383.62	223.88
384.00	223.81
384.38	223.77
384.76	223.75
385.13	223.73
385.51	223.69
385.89	223.64
386.27	223.60
386.64	223.59
387.02	223.53
387.40	223.49
387.78	223.46
388.15	223.44
388.53	223.40
388.91	223.37
389.29	223.34
389.66	223.33
390.04	223.29
390.42	223.28
390.79	223.27
391.17	223.24
391.55	223.11
391.92	223.10
392.30	223.10
392.68	223.06
393.05	223.05
393.43	223.04
393.81	223.05
394.18	223.03
394.56	223.03
394.94	223.06
395.31	223.06
395.69	223.10
396.06	223.12
396.44	223.14
396.82	223.15
397.19	223.23
397.57	223.24
397.95	223.28
398.32	223.28
398.70	223.32
399.07	223.38
399.45	223.42
399.82	223.46
400.20	223.50
400.58	223.55
400.95	223.57
401.33	223.65
401.70	223.78
402.08	223.88
402.45	223.95
402.83	224.06
403.20	224.16
403.58	224.25
403.95	224.37
404.33	224.51
404.71	224.64
405.08	224.83
405.46	224.97
405.83	225.14
406.21	225.32
406.58	225.52
406.96	225.71
407.33	225.93
407.70	226.18
408.08	226.51
408.45	226.81
408.83	227.13
409.20	227.42
409.58	227.69
409.95	228.05
410.33	228.44
410.70	228.81
411.08	229.24
411.45	229.70
411.82	230.16
412.20	230.68
412.57	231.31
412.95	231.80
413.32	232.45
413.69	233.11
414.07	233.81
414.44	234.57
414.82	235.35
415.19	236.26
415.56	237.19
415.94	238.15
416.31	239.23
416.68	240.31
417.06	241.57
417.43	242.74
417.81	244.10
418.18	245.48
418.55	246.99
418.93	248.56
419.30	250.21
419.67	251.96
420.04	253.77
420.42	255.64
420.79	257.81
421.16	260.01
421.54	262.23
421.91	264.56
422.28	266.98
422.66	269.59
423.03	272.07
423.40	274.68
423.77	277.48
424.15	280.34
424.52	283.32
424.89	286.54
425.26	289.76
425.64	292.73
426.01	296.07
426.38	299.48
426.75	302.99
427.13	306.58
427.50	310.34
427.87	314.23
428.24	318.17
428.61	321.94
428.99	326.00
429.36	330.45
429.73	334.70
430.10	338.93
430.47	343.24
430.85	347.70
431.22	352.43
431.59	357.29
431.96	362.02
432.33	367.27
432.70	372.22
433.08	378.10
433.45	383.65
433.82	389.10
434.19	395.20
434.56	401.19
434.93	406.97
435.30	412.68
435.68	419.12
436.05	425.42
436.42	431.72
436.79	437.46
437.16	443.66
437.53	450.30
437.90	456.96
438.27	463.45
438.64	470.51
439.01	476.90
439.38	482.75
439.75	488.40
440.13	494.86
440.50	501.02
440.87	505.88
441.24	511.23
441.61	517.13
441.98	521.48
442.35	526.65
442.72	531.96
443.09	537.05
443.46	540.36
443.83	542.85
444.20	544.96
444.57	548.02
444.94	549.89
445.31	551.82
445.68	553.55
446.05	554.89
446.42	554.86
446.79	554.70
447.16	554.60
447.53	554.53
447.90	552.74
448.27	551.07
448.64	548.35
449.01	546.58
449.37	542.63
449.74	539.04
450.11	534.39
450.48	529.24
450.85	524.06
451.22	519.67
451.59	515.36
451.96	511.44
452.33	505.66
452.70	500.51
453.07	494.21
453.43	487.91
453.80	481.78
454.17	475.90
454.54	470.45
454.91	464.27
455.28	458.46
455.65	452.97
456.02	447.11
456.38	442.39
456.75	436.30
457.12	431.38
457.49	426.42
457.86	421.67
458.23	417.51
458.59	412.91
458.96	408.18
459.33	404.00
459.70	399.76
460.07	396.52
460.43	392.71
460.80	389.14
461.17	385.99
461.54	382.60
461.91	379.42
462.27	376.19
462.64	373.56
463.01	370.55
463.38	367.50
463.74	364.76
464.11	362.31
464.48	360.10
464.85	357.73
465.21	355.91
465.58	353.91
465.95	351.61
466.32	349.76
466.68	347.96
467.05	346.16
467.42	344.42
467.78	342.55
468.15	340.82
468.52	339.53
468.88	337.86
469.25	336.32
469.62	335.10
469.98	333.78
470.35	332.60
470.72	331.54
471.08	330.47
471.45	329.58
471.82	328.60
472.18	327.58
472.55	326.92
472.92	326.10
473.28	325.47
473.65	324.82
474.02	324.21
474.38	323.71
474.75	323.43
475.11	323.02
475.48	322.87
475.85	322.71
476.21	322.67
476.58	322.68
476.94	322.88
477.31	323.03
477.67	323.19
478.04	323.47
478.41	323.83
478.77	324.30
479.14	324.65
479.50	325.23
479.87	325.96
480.23	326.68
480.60	327.37
480.96	328.08
481.33	329.07
481.69	330.05
482.06	331.03
482.42	331.94
482.79	333.05
483.15	334.32
483.52	335.73
483.88	337.10
484.25	338.56
484.61	340.07
484.98	341.70
485.34	343.53
485.71	345.42
486.07	347.44
486.44	349.46
486.80	351.69
487.17	353.97
487.53	356.48
487.90	359.09
488.26	361.93
488.62	364.92
488.99	367.92
489.35	371.05
489.72	374.43
490.08	377.99
490.44	381.64
490.81	385.45
491.17	389.36
491.54	393.53
491.90	397.81
492.26	402.42
492.63	407.28
492.99	412.32
493.36	417.49
493.72	422.93
494.08	428.51
494.45	434.41
494.81	440.53
495.17	446.78
495.54	453.37
495.90	460.29
496.26	467.33
496.63	474.63
496.99	482.22
497.35	490.19
497.72	498.45
498.08	506.87
498.44	515.56
498.80	524.82
499.17	534.30
499.53	544.14
499.89	554.20
500.26	564.45
500.62	574.97
500.98	586.19
501.34	597.57
501.71	609.51
502.07	621.66
502.43	634.20
502.79	647.09
503.16	660.40
503.52	673.90
503.88	687.79
504.24	702.09
504.60	716.68
504.97	731.67
505.33	747.07
505.69	763.39
506.05	779.90
506.41	796.42
506.78	813.24
507.14	830.54
507.50	848.46
507.86	866.75
508.22	885.34
508.59	903.97
508.95	923.29
509.31	943.06
509.67	963.56
510.03	984.27
510.39	1005.18
510.75	1026.33
511.12	1047.79
511.48	1069.56
511.84	1091.41
512.20	1113.60
512.56	1136.89
512.92	1160.35
513.28	1183.52
513.64	1207.02
514.00	1230.95
514.37	1255.20
514.73	1279.48
515.09	1303.54
515.45	1328.06
515.81	1353.11
516.17	1378.20
516.53	1402.96
516.89	1427.75
517.25	1452.74
517.61	1477.91
517.97	1503.29
518.33	1528.40
518.69	1553.61
519.05	1579.09
519.41	1604.70
519.77	1630.58
520.13	1655.62
520.49	1680.84
520.85	1706.29
521.21	1731.63
521.57	1757.52
521.93	1782.69
522.29	1808.70
522.65	1834.44
523.01	1859.93
523.37	1884.64
523.73	1910.00
524.09	1935.56
524.45	1961.03
524.81	1985.98
525.17	2010.83
525.53	2035.20
525.89	2059.58
526.25	2084.19
526.61	2108.26
526.97	2132.58
527.33	2156.82
527.68	2180.90
528.04	2204.12
528.40	2227.15
528.76	2250.37
529.12	2272.54
529.48	2295.07
529.84	2315.72
530.20	2336.95
530.56	2357.80
530.91	2378.75
531.27	2399.18
531.63	2418.89
531.99	2438.08
532.35	2456.93
532.71	2475.86
533.07	2495.34
533.42	2513.32
533.78	2531.66
534.14	2549.99
534.50	2567.48
534.86	2585.53
535.21	2601.70
535.57	2617.80
535.93	2633.23
536.29	2647.43
536.65	2662.48
537.00	2676.37
537.36	2690.82
537.72	2704.17
538.08	2717.14
538.44	2728.97
538.79	2740.96
539.15	2751.33
539.51	2761.61
539.87	2771.57
540.22	2779.38
540.58	2787.36
540.94	2795.83
541.29	2802.78
541.65	2808.73
542.01	2814.17
542.37	2817.76
542.72	2823.31
543.08	2828.34
543.44	2833.15
543.79	2837.14
544.15	2840.20
544.51	2843.24
544.87	2845.37
545.22	2847.14
545.58	2847.98
545.94	2849.28
546.29	2849.09
546.65	2849.00
547.01	2849.02
547.36	2849.10
547.72	2849.34
548.07	2848.10
548.43	2846.21
548.79	2843.68
549.14	2841.18
549.50	2839.37
549.86	2836.64
550.21	2831.49
550.57	2826.71
550.92	2820.61
551.28	2815.11
551.64	2809.59
551.99	2804.42
552.35	2798.85
552.70	2792.81
553.06	2787.51
553.41	2781.75
553.77	2775.48
554.13	2769.92
554.48	2763.35
554.84	2755.16
555.19	2747.15
555.55	2738.59
555.90	2730.62
556.26	2723.64
556.61	2716.00
556.97	2706.13
557.32	2697.19
557.68	2688.68
558.03	2679.55
558.39	2671.13
558.74	2662.80
559.10	2653.24
559.45	2643.31
559.81	2633.78
560.16	2623.56
560.52	2612.94
560.87	2603.32
561.23	2593.26
561.58	2582.65
561.94	2571.85
562.29	2560.53
562.64	2549.87
563.00	2539.55
563.35	2529.11
563.71	2517.76
564.06	2505.88
564.42	2495.06
564.77	2483.86
565.12	2472.76
565.48	2461.43
565.83	2450.71
566.19	2440.04
566.54	2428.92
566.89	2417.00
567.25	2404.99
567.60	2393.82
567.96	2382.24
568.31	2369.20
568.66	2356.17
569.02	2344.20
569.37	2331.98
569.72	2320.28
570.08	2307.87
570.43	2294.92
570.78	2281.65
571.14	2268.17
571.49	2255.51
571.84	2243.11
572.20	2229.45
572.55	2216.16
572.90	2202.77
573.26	2188.40
573.61	2173.52
573.96	2159.01
574.31	2144.85
574.67	2130.85
575.02	2116.47
575.37	2101.62
575.72	2087.08
576.08	2073.13
576.43	2058.18
576.78	2043.31
577.13	2029.29
577.49	2015.20
577.84	2001.51
578.19	1986.99
578.54	1972.15
578.90	1956.78
579.25	1941.16
579.60	1926.93
579.95	1912.31
580.30	1897.73
580.66	1883.53
581.01	1868.92
581.36	1854.61
581.71	1840.90
582.06	1826.70
582.42	1812.56
582.77	1799.20
583.12	1785.46
583.47	1771.83
583.82	1758.29
584.17	1744.65
584.53	1730.81
584.88	1717.03
585.23	1702.87
585.58	1689.25
585.93	1676.07
586.28	1663.75
586.63	1651.22
586.98	1638.00
587.34	1625.02
587.69	1611.54
588.04	1598.31
588.39	1585.75
588.74	1572.74
589.09	1559.41
589.44	1546.10
589.79	1533.35
590.14	1520.46
590.49	1507.81
590.84	1494.99
591.19	1482.83
591.54	1470.14
591.89	1457.38
592.25	1444.93
592.60	1432.12
592.95	1419.85
593.30	1407.87
593.65	1395.65
594.00	1383.68
594.35	1372.48
594.70	1360.50
595.05	1349.60
595.40	1338.47
595.75	1326.79
596.10	1315.90
596.45	1305.23
596.80	1295.02
597.15	1284.61
597.50	1274.19
597.85	1263.97
598.19	1253.94
598.54	1243.31
598.89	1233.47
599.24	1223.90
599.59	1214.10
599.94	1205.34
600.29	1196.44
600.64	1187.29
600.99	1177.58
601.34	1168.31
601.69	1158.49
602.04	1149.72
602.39	1140.76
602.74	1132.06
603.08	1123.61
603.43	1114.67
603.78	1105.67
604.13	1096.77
604.48	1087.81
604.83	1079.12
605.18	1070.33
605.53	1061.48
605.87	1052.77
606.22	1044.31
606.57	1035.58
606.92	1026.97
607.27	1018.23
607.62	1009.60
607.96	1001.12
608.31	993.64
608.66	985.73
609.01	978.24
609.36	970.70
609.70	962.94
610.05	955.02
610.40	947.45
610.75	940.00
611.10	932.79
611.44	925.22
611.79	917.94
612.14	910.31
612.49	902.83
612.83	895.82
613.18	888.83
613.53	881.66
613.88	874.59
614.22	868.07
614.57	861.37
614.92	854.67
615.27	848.03
615.61	841.24
615.96	834.67
616.31	828.03
616.65	821.28
617.00	814.77
617.35	808.44
617.70	802.11
618.04	795.83
618.39	789.59
618.74	783.66
619.08	777.58
619.43	771.75
619.78	765.92
620.12	759.90
620.47	754.08
620.82	748.35
621.16	742.90
621.51	737.12
621.85	731.33
622.20	725.59
622.55	720.02
622.89	714.41
623.24	708.84
623.59	703.32
623.93	697.88
624.28	692.58
624.62	687.25
624.97	681.92
625.32	676.70
625.66	671.35
626.01	665.99
626.35	660.76
626.70	655.59
627.04	650.60
627.39	645.67
627.73	640.84
628.08	636.22
628.43	631.48
628.77	626.80
629.12	622.26
629.46	617.89
629.81	613.33
630.15	608.67
630.50	604.18
630.84	599.88
631.19	595.75
631.53	591.66
631.88	587.47
632.22	583.35
632.57	579.47
632.91	575.55
633.26	571.71
633.60	567.94
633.95	564.25
634.29	560.43
634.64	556.58
634.98	552.67
635.32	548.91
635.67	545.27
636.01	541.58
636.36	537.94
636.70	534.43
637.05	530.93
637.39	527.63
637.73	524.19
638.08	520.81
638.42	517.39
638.77	513.85
639.11	510.32
639.45	506.85
639.80	503.35
640.14	500.03
640.49	496.68
640.83	493.22
641.17	489.81
641.52	486.55
641.86	483.28
642.20	480.17
642.55	476.92
642.89	473.76
643.23	470.79
643.58	468.03
643.92	465.17
644.26	462.33
644.61	459.48
644.95	456.64
645.29	453.75
645.64	450.83
645.98	448.05
646.32	445.44
646.66	442.83
647.01	440.20
647.35	437.62
647.69	434.93
648.04	432.40
648.38	429.90
648.72	427.36
649.06	424.89
649.41	422.44
649.75	419.99
650.09	417.55
650.43	415.13
650.78	412.69
651.12	410.24
651.46	407.89
651.80	405.63
652.14	403.44
652.49	401.26
652.83	399.15
653.17	397.01
653.51	394.93
653.85	392.92
654.20	390.86
654.54	388.71
654.88	386.76
655.22	384.85
655.56	382.90
655.90	381.05
656.25	379.21
656.59	377.37
656.93	375.63
657.27	373.93
657.61	372.13
657.95	370.39
658.29	368.67
658.64	366.97
658.98	365.25
659.32	363.55
659.66	361.96
660.00	360.38
660.34	358.84
660.68	357.24
661.02	355.58
661.36	354.02
661.70	352.54
662.05	351.03
662.39	349.51
662.73	348.08
663.07	346.68
663.41	345.29
663.75	343.93
664.09	342.57
664.43	341.12
664.77	339.78
665.11	338.38
665.45	337.05
665.79	335.73
666.13	334.39
666.47	333.05
666.81	331.67
667.15	330.27
667.49	328.97
667.83	327.71
668.17	326.50
668.51	325.31
668.85	324.13
669.19	323.02
669.53	321.85
669.87	320.65
670.21	319.47
670.55	318.31
670.89	317.23
671.23	316.12
671.57	315.03
671.91	313.98
672.25	313.00
672.58	312.00
672.92	310.97
673.26	310.01
673.60	309.05
673.94	308.08
674.28	307.18
674.62	306.26
674.96	305.31
675.30	304.41
675.64	303.48
675.97	302.58
676.31	301.64
676.65	300.72
676.99	299.88
677.33	298.97
677.67	298.12
678.01	297.18
678.34	296.32
678.68	295.51
679.02	294.67
679.36	293.83
679.70	293.00
680.04	292.21
680.37	291.40
680.71	290.63
681.05	289.90
681.39	289.13
681.73	288.32
682.06	287.55
682.40	286.80
682.74	286.07
683.08	285.37
683.42	284.65
683.75	284.00
684.09	283.26
684.43	282.58
684.77	281.88
685.10	281.23
685.44	280.56
685.78	279.88
686.12	279.25
686.45	278.60
686.79	277.94
687.13	277.32
687.46	276.66
687.80	276.03
688.14	275.35
688.48	274.74
688.81	274.12
689.15	273.57
689.49	272.96
689.82	272.37
690.16	271.72
690.50	271.14
690.83	270.55
691.17	269.99
691.51	269.44
691.84	268.91
692.18	268.34
692.52	267.76
692.85	267.21
693.19	266.69
693.52	266.16
693.86	265.64
694.20	265.12
694.53	264.63
694.87	264.12
695.21	263.64
695.54	263.15
695.88	262.66
696.21	262.13
696.55	261.65
696.88	261.17
697.22	260.71
697.56	260.25
697.89	259.73
698.23	259.25
698.56	258.76
698.90	258.31
699.23	257.85
699.57	257.43
699.90	257.00
700.24	256.53
700.58	256.12
700.91	255.72
701.25	255.40
701.58	255.03
701.92	254.66
702.25	254.28
702.59	253.88
702.92	253.50
703.26	253.13
703.59	252.75
703.93	252.46
704.26	252.11
704.60	251.75
704.93	251.42
705.26	251.07
705.60	250.76
705.93	250.40
706.27	250.11
706.60	249.80
706.94	249.50
707.27	249.15
707.61	248.82
707.94	248.47
708.27	248.07
708.61	247.71
708.94	247.38
709.28	247.06
709.61	246.76
709.94	246.47
710.28	246.19
710.61	245.93
710.95	245.56
711.28	245.35
711.61	245.08
711.95	244.84
712.28	244.57
712.61	244.29
712.95	244.09
713.28	243.87
713.61	243.60
713.95	243.33
714.28	243.11
714.61	242.86
714.95	242.63
715.28	242.39
715.61	242.16
715.95	241.94
716.28	241.72
716.61	241.52
716.95	241.29
717.28	241.07
717.61	240.85
717.94	240.64
718.28	240.36
718.61	240.15
718.94	239.92
719.27	239.72
719.61	239.54
719.94	239.32
720.27	239.07
720.60	238.88
720.94	238.69
721.27	238.51
721.60	238.35
721.93	238.18
722.27	238.03
722.60	237.87
722.93	237.68
723.26	237.52
723.59	237.33
723.93	237.17
724.26	237.02
724.59	236.86
724.92	236.71
725.25	236.58
725.59	236.44
725.92	236.31
726.25	236.16
726.58	236.01
726.91	235.86
727.24	235.73
727.57	235.59
727.91	235.44
728.24	235.31
728.57	235.16
728.90	235.03
729.23	234.87
729.56	234.78
729.89	234.65
730.22	234.51
730.55	234.38
730.89	234.25
731.22	234.11
731.55	233.98
731.88	233.86
732.21	233.72
732.54	233.60
732.87	233.48
733.20	233.37
733.53	233.26
733.86	233.16
734.19	233.03
734.52	232.94
734.85	232.90
735.18	232.77
735.51	232.70
735.84	232.59
736.17	232.52
736.50	232.36
736.83	232.39
737.16	232.30
737.49	232.21
737.82	232.12
738.15	232.04
738.48	231.95
738.81	231.85
739.14	231.74
739.47	231.64
739.80	231.54
740.13	231.46
740.46	231.35
740.79	231.25
741.12	231.16
741.45	231.05
741.78	230.90
742.11	230.85
742.44	230.74
742.77	230.67
743.10	230.57
743.43	230.48
743.75	230.28
744.08	230.36
744.41	230.27
744.74	230.18
745.07	230.08
745.40	230.01
745.73	229.98
746.06	229.91
746.39	229.86
746.71	229.78
747.04	229.69
747.37	229.62
747.70	229.57
748.03	229.50
748.36	229.45
748.68	229.38
749.01	229.28
749.34	229.21
749.67	229.14
750.00	229.10
750.33	229.11
750.65	229.06
750.98	228.84
751.31	228.78
751.64	228.72
751.97	228.72
752.29	228.64
752.62	228.53
752.95	228.46
753.28	228.38
753.60	228.31
753.93	228.27
754.26	228.22
754.59	228.12
754.91	228.05
755.24	227.98
755.57	227.97
755.90	227.91
756.22	227.85
756.55	227.77
756.88	227.68
757.20	227.55
757.53	227.47
757.86	227.42
758.19	227.37
758.51	227.31
758.84	227.20
759.17	227.14
759.49	227.10
759.82	227.10
760.15	227.07
760.47	227.02
760.80	226.95
761.13	226.91
761.45	226.87
761.78	226.83
762.11	226.79
762.43	226.69
762.76	226.64
763.08	226.61
763.41	226.58
763.74	226.55
764.06	226.50
764.39	226.47
764.71	226.43
765.04	226.37
765.37	226.33
765.69	226.29
766.02	226.25
766.34	226.20
766.67	226.12
767.00	226.10
767.32	226.12
767.65	226.14
767.97	226.10
768.30	226.07
768.62	226.03
768.95	225.98
769.27	225.95
769.60	225.93
769.92	225.87
770.25	225.82
770.57	225.77
770.90	225.74
771.22	225.70
771.55	225.67
771.87	225.65
772.20	225.61
772.52	225.67
772.85	225.77
773.17	225.74
773.50	225.71
773.82	225.66
774.15	225.57
774.47	225.48
774.80	225.44
775.12	225.41
775.45	225.38
775.77	225.36
776.09	225.34
776.42	225.31
776.74	225.32
777.07	225.29
777.39	225.27
777.72	225.24
778.04	225.23
778.36	225.20
778.69	225.17
779.01	225.16
779.33	225.04
779.66	224.90
779.98	224.87
780.31	224.86
780.63	224.88
780.95	224.88
781.28	224.86
781.60	224.84
781.92	224.82
782.25	224.80
782.57	224.78
782.89	224.75
783.22	224.72
783.54	224.68
783.86	224.67
784.19	224.65
784.51	224.66
784.83	224.63
785.16	224.61
785.48	224.60
785.80	224.58
786.12	224.57
786.45	224.55
786.77	224.55
787.09	224.52
787.42	224.47
787.74	224.45
788.06	224.44
788.38	224.42
788.71	224.40
789.03	224.39
789.35	224.39
789.67	224.36
789.99	224.36
790.32	224.33
790.64	224.32
790.96	224.41
791.28	224.36
791.61	224.34
791.93	224.33
792.25	224.31
792.57	224.37
792.89	224.34
793.21	224.33
793.54	224.31
793.86	224.28
794.18	224.27
794.50	224.24
794.82	224.23
795.14	224.23
795.47	224.24
795.79	224.23
796.11	224.19
796.43	224.18
796.75	224.16
797.07	224.16
797.39	224.14
797.71	224.05
798.04	224.04
798.36	224.03
798.68	224.02
799.00	224.02
799.32	223.96
799.64	223.97
799.96	223.95
800.28	223.96
800.60	223.95
800.92	223.94
801.24	223.93
801.56	223.92
801.89	223.90
802.21	223.89
802.53	223.87
802.85	223.88
803.17	223.92
803.49	223.89
803.81	223.87
804.13	223.85
804.45	223.83
804.77	223.83
805.09	223.83
805.41	223.81
805.73	223.78
806.05	223.74
806.37	223.72
806.69	223.71
807.01	223.69
807.33	223.69
807.65	223.65
807.97	223.69
808.28	223.66
808.60	223.65
808.92	223.63
809.24	223.68
809.56	223.65
809.88	223.60
810.20	223.61
810.52	223.62
810.84	223.60
811.16	223.58
811.48	223.57
811.80	223.60
812.12	223.59
812.43	223.60
812.75	223.60
813.07	223.59
813.39	223.59
813.71	223.57
814.03	223.55
814.35	223.56
814.67	223.51
814.98	223.49
815.30	223.49
815.62	223.46
815.94	223.39
816.26	223.40
816.58	223.38
816.89	223.38
817.21	223.35
817.53	223.35
817.85	223.35
818.17	223.34
818.48	223.29
818.80	223.31
819.12	223.28
819.44	223.26
819.76	223.24
820.07	223.23
820.39	223.23
820.71	223.23
821.03	223.23
821.34	223.21
821.66	223.22
821.98	223.23
822.30	223.22
822.61	223.28
822.93	223.26
823.25	223.26
823.57	223.24
823.88	223.25
824.20	223.25
824.52	223.26
824.83	223.25
825.15	223.24
825.47	223.23
825.79	223.24
826.10	223.23
826.42	223.23
826.74	223.24
827.05	223.23
827.37	223.23
827.69	223.22
828.00	223.22
828.32	223.22
828.64	223.21
828.95	223.26
829.27	223.22
829.58	223.22
829.90	223.23
830.22	223.24
830.53	223.22
830.85	223.21
831.17	223.17
831.48	223.17
831.80	223.17
832.11	223.16
832.43	223.14
832.75	223.14
833.06	223.20
833.38	223.17
833.69	223.16
834.01	223.16
834.32	223.15
834.64	223.14
834.96	223.14
835.27	223.14
835.59	223.10
835.90	223.08
836.22	223.07
836.53	223.05
836.85	223.04
837.16	223.14
837.48	223.14
837.79	223.18
838.11	223.18
838.42	223.17
838.74	223.18
839.05	223.18
839.37	223.17
839.68	223.10
840.00	223.10
840.31	223.11
840.63	223.10
840.94	223.09
841.26	223.08
841.57	223.07
841.88	223.08
842.20	223.06
842.51	223.04
842.83	223.04
843.14	223.13
843.46	223.13
843.77	223.07
844.08	223.06
844.40	223.02
844.71	223.01
845.03	223.00
845.34	222.98
845.65	222.97
845.97	222.98
846.28	222.98
846.60	222.99
846.91	222.97
847.22	222.97
847.54	222.99
847.85	222.99
848.16	222.98
848.48	222.96
848.79	223.00
849.10	223.01
849.42	223.01
849.73	222.91
850.04	222.91
850.36	222.88
850.67	222.90
850.98	222.90
851.30	222.91
851.61	222.91
851.92	222.91
852.23	222.94
852.55	222.95
852.86	222.95
853.17	222.96
853.49	222.98
853.80	223.00
854.11	223.01
854.42	223.02
854.74	223.01
855.05	223.01
855.36	222.96
855.67	222.96
855.99	222.96
856.30	223.08
856.61	223.08
856.92	223.08
857.23	223.08
857.55	223.07
857.86	223.06
858.17	223.08
858.48	223.06
858.79	223.03
859.11	223.04
859.42	223.03
859.73	223.01
860.04	223.01
860.35	222.98
860.66	222.94
860.98	222.94
861.29	222.95
861.60	222.95
861.91	222.97
862.22	222.96
862.53	222.94
862.84	222.82
863.16	222.83
863.47	222.82
863.78	222.80
864.09	222.81
864.40	222.82
864.71	222.81
865.02	222.83
865.33	222.82
865.64	222.80
865.95	222.80
866.27	222.87
866.58	222.85
866.89	222.87
867.20	222.87
867.51	222.85
867.82	222.84
868.13	222.87
868.44	222.85
868.75	222.86
869.06	222.87
869.37	222.88
869.68	222.86
869.99	222.87
870.30	222.87
870.61	222.88
870.92	222.87
871.23	222.86
871.54	222.86
871.85	222.89
872.16	222.90
872.47	222.89
872.78	222.83
873.09	222.84
873.40	222.83
873.71	222.84
874.02	222.85
874.33	222.84
874.64	222.81
874.95	222.83
875.26	222.81
875.56	222.81
875.87	222.80
876.18	222.79
876.49	222.89
876.80	222.88
877.11	222.86
877.42	222.87
877.73	222.87
878.04	222.86
878.35	222.86
878.66	222.85
878.96	222.85
879.27	222.84
879.58	222.84
879.89	222.83
880.20	222.86
880.51	222.85
880.82	222.85
881.12	222.86
881.43	222.83
881.74	222.82
882.05	222.82
882.36	222.82
882.67	222.83
882.97	222.71
883.28	222.71
883.59	222.71
883.90	222.71
884.21	222.72
884.51	222.72
884.82	222.70
885.13	222.70
885.44	222.71
885.74	222.71
886.05	222.71
886.36	222.71
886.67	222.67
886.98	222.72
887.28	222.73
887.59	222.73
887.90	222.74
888.20	222.73
888.51	222.75
888.82	222.73
889.13	222.74
889.43	222.83
889.74	222.83
890.05	222.83
890.35	222.81
890.66	222.79
890.97	222.78
891.28	222.77
891.58	222.77
891.89	222.77
892.20	222.76
892.50	222.75
892.81	222.74
893.12	222.74
893.42	222.69
893.73	222.69
894.04	222.68
894.34	222.69
894.65	222.69
894.95	222.68
895.26	222.68
895.57	222.73
895.87	222.62
896.18	222.64
896.48	222.64
896.79	222.65
897.10	222.66
897.40	222.67
897.71	222.68
898.01	222.67
898.32	222.67
898.63	222.67
898.93	222.68
899.24	222.69
899.54	222.68
899.85	222.68
900.15	222.67
900.46	222.67
900.76	222.67
901.07	222.67
901.38	222.67
901.68	222.68
901.99	222.62
902.29	222.63
902.60	222.62
902.90	222.61
903.21	222.61
903.51	222.60
903.82	222.62
904.12	222.62
904.43	222.62
904.73	222.62
905.03	222.62
905.34	222.72
905.64	222.71
905.95	222.71
906.25	222.71
906.56	222.71
906.86	222.71
907.17	222.70
907.47	222.70
907.77	222.69
908.08	222.67
908.38	222.68
908.69	222.68
908.99	222.70
909.30	222.71
909.60	222.71
909.90	222.71
910.21	222.68
910.51	222.66
910.81	222.66
911.12	222.67
911.42	222.67
911.73	222.56
912.03	222.57
912.33	222.59
912.64	222.58
912.94	222.57
913.24	222.55
913.55	222.54
913.85	222.53
914.15	222.55
914.46	222.56
914.76	222.55
915.06	222.54
915.37	222.52
915.67	222.51
915.97	222.51
916.27	222.49
916.58	222.50
916.88	222.50
917.18	222.49
917.49	222.56
917.79	222.55
918.09	222.56
918.39	222.59
918.70	222.58
919.00	222.59
919.30	222.64
919.60	222.63
919.91	222.62
920.21	222.63
920.51	222.61
920.81	222.60
921.12	222.62
921.42	222.62
921.72	222.63
922.02	222.63
922.32	222.64
922.63	222.65
922.93	222.70
923.23	222.71
923.53	222.69
923.83	222.62
924.13	222.63
924.44	222.62
924.74	222.63
925.04	222.65
925.34	222.64
925.64	222.60
925.94	222.61
926.24	222.66
926.55	222.65
926.85	222.66
927.15	222.66
927.45	222.65
927.75	222.65
928.05	222.65
928.35	222.64
928.65	222.66
928.95	222.66
929.26	222.61
929.56	222.63
929.86	222.65
930.16	222.65
930.46	222.64
930.76	222.64
931.06	222.59
931.36	222.56
931.66	222.58
931.96	222.59
932.26	222.59
932.56	222.54
932.86	222.55
933.16	222.56
933.46	222.55
933.76	222.53
934.06	222.55
934.36	222.59
934.66	222.58
934.96	222.57
935.26	222.57
935.56	222.59
935.86	222.56
936.16	222.54
936.46	222.53
936.76	222.52
937.06	222.51
937.36	222.52
937.66	222.52
937.96	222.52
938.26	222.50
938.56	222.49
938.86	222.50
939.16	222.52
939.46	222.52
939.76	222.53
940.06	222.53
940.35	222.51
940.65	222.46
940.95	222.47
941.25	222.44
941.55	222.43
941.85	222.42
942.15	222.44
942.45	222.47
942.75	222.47
943.04	222.48
943.34	222.50
943.64	222.49
943.94	222.47
944.24	222.47
944.54	222.48
944.84	222.48
945.13	222.47
945.43	222.45
945.73	222.44
946.03	222.43
946.33	222.42
946.62	222.41
946.92	222.41
947.22	222.42
947.52	222.42
947.82	222.43
948.11	222.42
948.41	222.40
948.71	222.36
949.01	222.37
949.31	222.36
949.60	222.35
949.90	222.37
950.20	222.37
950.50	222.36
950.79	222.35
951.09	222.37
951.39	222.37
951.69	222.36
951.98	222.38
952.28	222.39
952.58	222.39
952.87	222.39
953.17	222.40
953.47	222.38
953.76	222.38
954.06	222.37
954.36	222.35
954.66	222.35
954.95	222.39
955.25	222.40
955.55	222.40
955.84	222.39
956.14	222.40
956.44	222.41
956.73	222.39
957.03	222.40
957.32	222.40
957.62	222.39
957.92	222.42
958.21	222.40
958.51	222.53
958.81	222.54
959.10	222.55
959.40	222.58
959.69	222.59
959.99	222.60
960.29	222.61
960.58	222.61
960.88	222.65
961.17	222.63
961.47	222.63
961.76	222.63
962.06	222.64
962.36	222.63
962.65	222.63
962.95	222.64
963.24	222.63
963.54	222.64
963.83	222.65
964.13	222.63
964.42	222.63
964.72	222.53
965.01	222.54
965.31	222.53
965.60	222.50
965.90	222.57
966.19	222.54
966.49	222.55
966.78	222.54
967.08	222.53
967.37	222.54
967.67	222.52
967.96	222.53
968.26	222.53
968.55	222.54
968.85	222.54
969.14	222.53
969.43	222.54
969.73	222.52
970.02	222.52
970.32	222.51
970.61	222.50
970.91	222.46
971.20	222.45
971.49	222.44
971.79	222.45
972.08	222.38
972.38	222.39
972.67	222.38
972.96	222.39
973.26	222.37
973.55	222.40
973.85	222.40
974.14	222.39
974.43	222.40
974.73	222.38
975.02	222.37
975.31	222.37
975.61	222.37
975.90	222.36
976.19	222.35
976.49	222.36
976.78	222.37
977.07	222.37
977.37	222.38
977.66	222.39
977.95	222.37
978.24	222.38
978.54	222.41
978.83	222.40
979.12	222.39
979.42	222.40
979.71	222.37
980.00	222.37
980.29	222.37
980.59	222.35
980.88	222.38
981.17	222.38
981.46	222.38
981.76	222.38
982.05	222.41
982.34	222.42
982.63	222.41
982.93	222.41
983.22	222.44
983.51	222.45
983.80	222.46
984.09	222.47
984.39	222.46
984.68	222.44
984.97	222.45
985.26	222.43
985.55	222.44
985.85	222.42
986.14	222.44
986.43	222.45
986.72	222.44
987.01	222.41
987.30	222.40
987.59	222.40
987.89	222.40
988.18	222.37
988.47	222.36
988.76	222.35
989.05	222.35
989.34	222.33
989.63	222.35
989.92	222.34
990.22	222.32
990.51	222.33
990.80	222.32
991.09	222.33
991.38	222.34
991.67	222.33
991.96	222.33
992.25	222.33
992.54	222.31
992.83	222.32
993.12	222.32
993.41	222.33
993.70	222.37
993.99	222.39
994.28	222.40
994.58	222.42
994.87	222.41
995.16	222.41
995.45	222.40
995.74	222.36
996.03	222.38
996.32	222.39
996.61	222.41
996.90	222.40
997.19	222.40
997.48	222.39
997.77	222.39
998.06	222.39
998.34	222.38
998.63	222.38
998.92	222.38
999.21	222.39
999.50	222.39
999.79	222.36
1000.08	222.35
1000.37	222.35
1000.66	222.33
1000.95	222.36
1001.24	222.36
1001.53	222.38
1001.82	222.38
1002.11	222.36
1002.40	222.37
1002.68	222.39
1002.97	222.46
1003.26	222.45
1003.55	222.44
1003.84	222.45
1004.13	222.48
1004.42	222.48
1004.71	222.47
1004.99	222.47
1005.28	222.49
1005.57	222.48
1005.86	222.47
1006.15	222.46
1006.44	222.44
1006.72	222.46
1007.01	222.44
1007.30	222.45
1007.59	222.43
1007.88	222.43
1008.17	222.44
1008.45	222.42
1008.74	222.37
1009.03	222.33
1009.32	222.33
1009.60	222.34
1009.89	222.32
1010.18	222.28
1010.47	222.28
1010.76	222.28
1011.04	222.28
1011.33	222.28
1011.62	222.29
1011.91	222.30
1012.19	222.30
1012.48	222.30
1012.77	222.30
1013.05	222.34
1013.34	222.33
1013.63	222.32
1013.92	222.33
1014.20	222.32
1014.49	222.33
1014.78	222.34
1015.06	222.30
1015.35	222.30
1015.64	222.31
1015.92	222.33
1016.21	222.34
1016.50	222.34
1016.78	222.35
1017.07	222.36
1017.36	222.35
1017.64	222.33
1017.93	222.34
1018.22	222.33
1018.50	222.33
1018.79	222.33
1019.08	222.29
1019.36	222.29
1019.65	222.29
1019.93	222.32
1020.22	222.34
1020.51	222.39
1020.79	222.38
1021.08	222.16
1021.36	222.15
1021.65	222.35
1021.94	222.30
1022.22	222.38
1022.51	222.16
1022.79	222.82
1023.08	222.46
1023.36	223.53
1023.65	222.05
>>>>>End Processed Spectral Data<<<<<
