SpectraSuite Data File
++++++++++++++++++++++++++++++++++++
Date: Thu Oct 01 12:58:05 EDT 2015
User: lab3
Dark Spectrum Present: No
Reference Spectrum Present: No
Number of Sampled Component Spectra: 1
Spectrometers: USB2E7196
Integration Time (usec): 36000 (USB2E7196)
Spectra Averaged: 10000 (USB2E7196)
Boxcar Smoothing: 10 (USB2E7196)
Correct for Electrical Dark: No (USB2E7196)
Strobe/Lamp Enabled: No (USB2E7196)
Correct for Detector Non-linearity: No (USB2E7196)
Correct for Stray Light: No (USB2E7196)
Number of Pixels in Processed Spectrum: 2048
>>>>>Begin Processed Spectral Data<<<<<
339.09	0.00
339.48	212.01
339.86	213.50
340.24	214.86
340.63	216.22
341.01	219.23
341.39	219.01
341.78	220.35
342.16	221.54
342.54	221.96
342.93	210.50
343.31	221.14
343.69	221.68
344.07	222.14
344.46	222.57
344.84	222.95
345.22	223.19
345.60	223.45
345.99	223.64
346.37	223.77
346.75	223.88
347.13	223.96
347.52	224.03
347.90	224.11
348.28	224.15
348.66	224.20
349.05	224.21
349.43	224.25
349.81	224.31
350.19	224.37
350.57	224.44
350.96	224.52
351.34	224.62
351.72	224.71
352.10	224.82
352.48	224.90
352.87	224.95
353.25	225.02
353.63	225.08
354.01	225.15
354.39	225.23
354.77	225.30
355.15	225.41
355.54	225.46
355.92	225.50
356.30	225.58
356.68	225.71
357.06	225.78
357.44	225.84
357.82	225.90
358.20	226.02
358.58	226.08
358.97	226.14
359.35	226.22
359.73	226.30
360.11	226.35
360.49	226.41
360.87	226.46
361.25	226.52
361.63	226.60
362.01	226.65
362.39	226.68
362.77	226.73
363.15	226.75
363.53	226.79
363.91	226.83
364.29	226.85
364.67	226.78
365.05	226.81
365.43	226.84
365.81	226.86
366.19	226.87
366.57	226.92
366.95	226.92
367.33	226.90
367.71	226.89
368.09	226.91
368.47	226.90
368.85	226.89
369.23	226.90
369.61	226.85
369.99	226.86
370.37	226.86
370.75	226.91
371.13	226.88
371.51	226.84
371.89	226.82
372.27	226.79
372.65	226.77
373.03	226.73
373.41	226.69
373.78	226.64
374.16	226.55
374.54	226.47
374.92	226.42
375.30	226.38
375.68	226.31
376.06	226.27
376.44	226.21
376.82	226.17
377.19	226.12
377.57	226.07
377.95	225.98
378.33	225.92
378.71	225.78
379.09	225.73
379.47	225.70
379.84	225.63
380.22	225.57
380.60	225.49
380.98	225.44
381.36	225.38
381.73	225.32
382.11	225.29
382.49	225.25
382.87	225.18
383.25	225.14
383.62	225.21
384.00	225.14
384.38	225.10
384.76	225.08
385.13	225.06
385.51	225.02
385.89	224.97
386.27	224.93
386.64	224.91
387.02	224.86
387.40	224.82
387.78	224.80
388.15	224.77
388.53	224.74
388.91	224.71
389.29	224.68
389.66	224.67
390.04	224.63
390.42	224.63
390.79	224.62
391.17	224.60
391.55	224.47
391.92	224.46
392.30	224.46
392.68	224.43
393.05	224.41
393.43	224.41
393.81	224.41
394.18	224.40
394.56	224.39
394.94	224.42
395.31	224.42
395.69	224.46
396.06	224.48
396.44	224.50
396.82	224.52
397.19	224.59
397.57	224.61
397.95	224.65
398.32	224.65
398.70	224.69
399.07	224.75
399.45	224.78
399.82	224.83
400.20	224.86
400.58	224.92
400.95	224.94
401.33	225.01
401.70	225.15
402.08	225.24
402.45	225.32
402.83	225.43
403.20	225.53
403.58	225.61
403.95	225.74
404.33	225.88
404.71	226.01
405.08	226.19
405.46	226.34
405.83	226.50
406.21	226.68
406.58	226.88
406.96	227.07
407.33	227.30
407.70	227.55
408.08	227.88
408.45	228.17
408.83	228.49
409.20	228.79
409.58	229.06
409.95	229.42
410.33	229.81
410.70	230.18
411.08	230.61
411.45	231.07
411.82	231.53
412.20	232.06
412.57	232.68
412.95	233.18
413.32	233.83
413.69	234.49
414.07	235.20
414.44	235.97
414.82	236.75
415.19	237.67
415.56	238.60
415.94	239.57
416.31	240.66
416.68	241.75
417.06	243.01
417.43	244.19
417.81	245.55
418.18	246.95
418.55	248.48
418.93	250.06
419.30	251.72
419.67	253.48
420.04	255.30
420.42	257.19
420.79	259.38
421.16	261.60
421.54	263.83
421.91	266.18
422.28	268.62
422.66	271.25
423.03	273.74
423.40	276.37
423.77	279.19
424.15	282.08
424.52	285.08
424.89	288.33
425.26	291.57
425.64	294.57
426.01	297.93
426.38	301.37
426.75	304.90
427.13	308.52
427.50	312.31
427.87	316.24
428.24	320.21
428.61	324.01
428.99	328.09
429.36	332.59
429.73	336.88
430.10	341.14
430.47	345.50
430.85	349.98
431.22	354.77
431.59	359.67
431.96	364.45
432.33	369.73
432.70	374.73
433.08	380.66
433.45	386.25
433.82	391.77
434.19	397.92
434.56	403.97
434.93	409.81
435.30	415.58
435.68	422.07
436.05	428.43
436.42	434.79
436.79	440.58
437.16	446.83
437.53	453.55
437.90	460.26
438.27	466.82
438.64	473.94
439.01	480.37
439.38	486.26
439.75	491.95
440.13	498.46
440.50	504.65
440.87	509.55
441.24	514.94
441.61	520.86
441.98	525.21
442.35	530.41
442.72	535.73
443.09	540.84
443.46	544.14
443.83	546.61
444.20	548.70
444.57	551.76
444.94	553.60
445.31	555.50
445.68	557.18
446.05	558.47
446.42	558.38
446.79	558.17
447.16	558.00
447.53	557.88
447.90	556.01
448.27	554.28
448.64	551.48
449.01	549.64
449.37	545.60
449.74	541.93
450.11	537.18
450.48	531.95
450.85	526.68
451.22	522.21
451.59	517.83
451.96	513.84
452.33	507.98
452.70	502.77
453.07	496.40
453.43	490.03
453.80	483.85
454.17	477.91
454.54	472.41
454.91	466.19
455.28	460.33
455.65	454.80
456.02	448.89
456.38	444.14
456.75	438.01
457.12	433.08
457.49	428.08
457.86	423.31
458.23	419.12
458.59	414.50
458.96	409.74
459.33	405.55
459.70	401.29
460.07	398.04
460.43	394.21
460.80	390.63
461.17	387.46
461.54	384.05
461.91	380.87
462.27	377.63
462.64	374.99
463.01	371.96
463.38	368.91
463.74	366.17
464.11	363.71
464.48	361.49
464.85	359.12
465.21	357.30
465.58	355.30
465.95	353.00
466.32	351.15
466.68	349.36
467.05	347.56
467.42	345.80
467.78	343.93
468.15	342.19
468.52	340.90
468.88	339.22
469.25	337.68
469.62	336.46
469.98	335.14
470.35	333.96
470.72	332.90
471.08	331.84
471.45	330.95
471.82	329.98
472.18	328.96
472.55	328.30
472.92	327.50
473.28	326.87
473.65	326.22
474.02	325.61
474.38	325.11
474.75	324.83
475.11	324.43
475.48	324.28
475.85	324.14
476.21	324.11
476.58	324.13
476.94	324.34
477.31	324.48
477.67	324.65
478.04	324.94
478.41	325.30
478.77	325.78
479.14	326.14
479.50	326.72
479.87	327.44
480.23	328.16
480.60	328.86
480.96	329.58
481.33	330.57
481.69	331.56
482.06	332.54
482.42	333.47
482.79	334.58
483.15	335.86
483.52	337.27
483.88	338.65
484.25	340.11
484.61	341.63
484.98	343.27
485.34	345.10
485.71	347.01
486.07	349.04
486.44	351.05
486.80	353.29
487.17	355.58
487.53	358.11
487.90	360.74
488.26	363.59
488.62	366.60
488.99	369.60
489.35	372.74
489.72	376.15
490.08	379.72
490.44	383.39
490.81	387.23
491.17	391.16
491.54	395.35
491.90	399.66
492.26	404.31
492.63	409.20
492.99	414.26
493.36	419.45
493.72	424.92
494.08	430.53
494.45	436.47
494.81	442.61
495.17	448.89
495.54	455.52
495.90	462.46
496.26	469.55
496.63	476.89
496.99	484.53
497.35	492.55
497.72	500.84
498.08	509.30
498.44	518.03
498.80	527.34
499.17	536.86
499.53	546.73
499.89	556.82
500.26	567.11
500.62	577.69
500.98	588.98
501.34	600.43
501.71	612.43
502.07	624.65
502.43	637.28
502.79	650.20
503.16	663.56
503.52	677.11
503.88	691.08
504.24	705.45
504.60	720.07
504.97	735.13
505.33	750.61
505.69	767.03
506.05	783.62
506.41	800.19
506.78	817.07
507.14	834.46
507.50	852.41
507.86	870.80
508.22	889.48
508.59	908.18
508.95	927.57
509.31	947.44
509.67	968.03
510.03	988.81
510.39	1009.84
510.75	1031.09
511.12	1052.67
511.48	1074.44
511.84	1096.41
512.20	1118.75
512.56	1142.16
512.92	1165.65
513.28	1188.85
513.64	1212.44
514.00	1236.46
514.37	1260.77
514.73	1285.17
515.09	1309.33
515.45	1333.96
515.81	1359.11
516.17	1384.24
516.53	1409.09
516.89	1433.96
517.25	1459.04
517.61	1484.29
517.97	1509.75
518.33	1534.95
518.69	1560.23
519.05	1585.84
519.41	1611.57
519.77	1637.49
520.13	1662.57
520.49	1687.93
520.85	1713.52
521.21	1738.97
521.57	1764.93
521.93	1790.22
522.29	1816.28
522.65	1842.08
523.01	1867.62
523.37	1892.35
523.73	1917.85
524.09	1943.55
524.45	1969.10
524.81	1994.07
525.17	2018.97
525.53	2043.35
525.89	2067.78
526.25	2092.46
526.61	2116.63
526.97	2140.97
527.33	2165.31
527.68	2189.36
528.04	2212.66
528.40	2235.68
528.76	2258.94
529.12	2281.12
529.48	2303.67
529.84	2324.34
530.20	2345.59
530.56	2366.40
530.91	2387.34
531.27	2407.77
531.63	2427.36
531.99	2446.52
532.35	2465.38
532.71	2484.33
533.07	2503.77
533.42	2521.82
533.78	2540.09
534.14	2558.38
534.50	2575.84
534.86	2593.88
535.21	2610.10
535.57	2626.05
535.93	2641.57
536.29	2655.74
536.65	2670.87
537.00	2684.77
537.36	2699.21
537.72	2712.59
538.08	2725.49
538.44	2737.34
538.79	2749.30
539.15	2759.68
539.51	2769.96
539.87	2779.88
540.22	2787.52
540.58	2795.56
540.94	2803.85
541.29	2810.86
541.65	2816.73
542.01	2822.11
542.37	2825.66
542.72	2831.32
543.08	2836.35
543.44	2841.03
543.79	2845.05
544.15	2847.87
544.51	2850.89
544.87	2852.95
545.22	2854.70
545.58	2855.64
545.94	2856.95
546.29	2856.77
546.65	2856.53
547.01	2856.57
547.36	2856.55
547.72	2856.78
548.07	2855.52
548.43	2853.65
548.79	2851.10
549.14	2848.52
549.50	2846.81
549.86	2843.80
550.21	2838.54
550.57	2833.69
550.92	2827.59
551.28	2822.07
551.64	2816.68
551.99	2811.41
552.35	2805.82
552.70	2799.72
553.06	2794.37
553.41	2788.56
553.77	2782.12
554.13	2776.68
554.48	2769.87
554.84	2761.68
555.19	2753.70
555.55	2745.22
555.90	2737.32
556.26	2730.36
556.61	2722.74
556.97	2712.80
557.32	2703.99
557.68	2695.35
558.03	2686.24
558.39	2677.81
558.74	2669.32
559.10	2659.73
559.45	2649.70
559.81	2640.17
560.16	2629.86
560.52	2619.31
560.87	2609.74
561.23	2599.63
561.58	2588.97
561.94	2578.18
562.29	2566.91
562.64	2556.30
563.00	2545.84
563.35	2535.31
563.71	2523.71
564.06	2511.85
564.42	2500.92
564.77	2489.70
565.12	2478.56
565.48	2467.30
565.83	2456.56
566.19	2445.94
566.54	2434.69
566.89	2422.81
567.25	2410.73
567.60	2399.52
567.96	2387.77
568.31	2374.57
568.66	2361.60
569.02	2349.66
569.37	2337.40
569.72	2325.66
570.08	2313.22
570.43	2300.30
570.78	2286.95
571.14	2273.56
571.49	2260.80
571.84	2248.38
572.20	2234.78
572.55	2221.49
572.90	2208.02
573.26	2193.46
573.61	2178.42
573.96	2163.94
574.31	2149.69
574.67	2135.65
575.02	2121.22
575.37	2106.34
575.72	2091.76
576.08	2077.68
576.43	2062.56
576.78	2047.71
577.13	2033.59
577.49	2019.30
577.84	2005.45
578.19	1990.82
578.54	1975.88
578.90	1960.53
579.25	1944.83
579.60	1930.47
579.95	1915.77
580.30	1901.12
580.66	1886.86
581.01	1872.31
581.36	1857.96
581.71	1844.31
582.06	1830.02
582.42	1815.96
582.77	1802.51
583.12	1788.70
583.47	1775.07
583.82	1761.57
584.17	1747.94
584.53	1734.12
584.88	1720.40
585.23	1706.20
585.58	1692.59
585.93	1679.42
586.28	1667.05
586.63	1654.42
586.98	1641.14
587.34	1628.09
587.69	1614.55
588.04	1601.46
588.39	1588.85
588.74	1575.76
589.09	1562.41
589.44	1549.11
589.79	1536.23
590.14	1523.40
590.49	1510.74
590.84	1497.94
591.19	1485.71
591.54	1472.95
591.89	1460.13
592.25	1447.60
592.60	1434.82
592.95	1422.56
593.30	1410.60
593.65	1398.36
594.00	1386.43
594.35	1375.16
594.70	1363.26
595.05	1352.39
595.40	1341.08
595.75	1329.35
596.10	1318.48
596.45	1307.81
596.80	1297.62
597.15	1287.23
597.50	1276.75
597.85	1266.54
598.19	1256.47
598.54	1245.84
598.89	1236.01
599.24	1226.38
599.59	1216.63
599.94	1207.89
600.29	1198.96
600.64	1189.76
600.99	1179.96
601.34	1170.67
601.69	1160.90
602.04	1152.08
602.39	1143.16
602.74	1134.49
603.08	1126.02
603.43	1117.09
603.78	1108.10
604.13	1099.19
604.48	1090.23
604.83	1081.53
605.18	1072.75
605.53	1063.88
605.87	1055.18
606.22	1046.68
606.57	1038.00
606.92	1029.41
607.27	1020.57
607.62	1011.90
607.96	1003.44
608.31	995.99
608.66	988.12
609.01	980.60
609.36	973.06
609.70	965.25
610.05	957.33
610.40	949.75
610.75	942.21
611.10	934.93
611.44	927.37
611.79	920.02
612.14	912.35
612.49	904.88
612.83	897.84
613.18	890.81
613.53	883.62
613.88	876.54
614.22	870.02
614.57	863.32
614.92	856.63
615.27	849.97
615.61	843.16
615.96	836.52
616.31	829.86
616.65	823.09
617.00	816.57
617.35	810.23
617.70	803.89
618.04	797.62
618.39	791.36
618.74	785.41
619.08	779.36
619.43	773.49
619.78	767.59
620.12	761.58
620.47	755.74
620.82	750.05
621.16	744.57
621.51	738.74
621.85	732.95
622.20	727.22
622.55	721.65
622.89	716.03
623.24	710.48
623.59	704.96
623.93	699.53
624.28	694.22
624.62	688.88
624.97	683.55
625.32	678.31
625.66	672.95
626.01	667.56
626.35	662.32
626.70	657.14
627.04	652.18
627.39	647.25
627.73	642.43
628.08	637.80
628.43	633.04
628.77	628.36
629.12	623.82
629.46	619.41
629.81	614.81
630.15	610.15
630.50	605.66
630.84	601.38
631.19	597.25
631.53	593.14
631.88	588.96
632.22	584.85
632.57	580.98
632.91	577.03
633.26	573.19
633.60	569.41
633.95	565.73
634.29	561.90
634.64	558.05
634.98	554.14
635.32	550.35
635.67	546.70
636.01	543.02
636.36	539.36
636.70	535.86
637.05	532.39
637.39	529.08
637.73	525.63
638.08	522.22
638.42	518.78
638.77	515.26
639.11	511.68
639.45	508.21
639.80	504.72
640.14	501.42
640.49	498.06
640.83	494.56
641.17	491.17
641.52	487.90
641.86	484.61
642.20	481.50
642.55	478.25
642.89	475.11
643.23	472.11
643.58	469.38
643.92	466.51
644.26	463.63
644.61	460.76
644.95	457.91
645.29	455.01
645.64	452.11
645.98	449.34
646.32	446.76
646.66	444.14
647.01	441.51
647.35	438.91
647.69	436.22
648.04	433.74
648.38	431.23
648.72	428.70
649.06	426.27
649.41	423.81
649.75	421.35
650.09	418.93
650.43	416.52
650.78	414.07
651.12	411.62
651.46	409.29
651.80	407.05
652.14	404.87
652.49	402.70
652.83	400.59
653.17	398.45
653.51	396.36
653.85	394.36
654.20	392.27
654.54	390.15
654.88	388.21
655.22	386.28
655.56	384.33
655.90	382.46
656.25	380.61
656.59	378.78
656.93	377.05
657.27	375.33
657.61	373.53
657.95	371.79
658.29	370.07
658.64	368.36
658.98	366.64
659.32	364.94
659.66	363.35
660.00	361.75
660.34	360.21
660.68	358.61
661.02	356.93
661.36	355.40
661.70	353.90
662.05	352.37
662.39	350.86
662.73	349.43
663.07	348.02
663.41	346.63
663.75	345.26
664.09	343.89
664.43	342.44
664.77	341.10
665.11	339.71
665.45	338.39
665.79	337.06
666.13	335.72
666.47	334.38
666.81	333.00
667.15	331.62
667.49	330.31
667.83	329.06
668.17	327.85
668.51	326.65
668.85	325.47
669.19	324.37
669.53	323.19
669.87	321.99
670.21	320.82
670.55	319.66
670.89	318.58
671.23	317.48
671.57	316.39
671.91	315.34
672.25	314.36
672.58	313.34
672.92	312.31
673.26	311.36
673.60	310.39
673.94	309.42
674.28	308.51
674.62	307.59
674.96	306.63
675.30	305.73
675.64	304.81
675.97	303.91
676.31	302.97
676.65	302.06
676.99	301.21
677.33	300.32
677.67	299.46
678.01	298.52
678.34	297.66
678.68	296.85
679.02	296.01
679.36	295.17
679.70	294.34
680.04	293.54
680.37	292.73
680.71	291.96
681.05	291.23
681.39	290.45
681.73	289.64
682.06	288.88
682.40	288.13
682.74	287.40
683.08	286.70
683.42	285.98
683.75	285.32
684.09	284.58
684.43	283.89
684.77	283.19
685.10	282.54
685.44	281.86
685.78	281.19
686.12	280.55
686.45	279.90
686.79	279.25
687.13	278.62
687.46	277.96
687.80	277.34
688.14	276.66
688.48	276.06
688.81	275.45
689.15	274.89
689.49	274.28
689.82	273.68
690.16	273.04
690.50	272.45
690.83	271.86
691.17	271.30
691.51	270.74
691.84	270.20
692.18	269.64
692.52	269.06
692.85	268.50
693.19	267.99
693.52	267.46
693.86	266.94
694.20	266.43
694.53	265.94
694.87	265.43
695.21	264.94
695.54	264.45
695.88	263.96
696.21	263.43
696.55	262.95
696.88	262.46
697.22	262.01
697.56	261.55
697.89	261.04
698.23	260.56
698.56	260.07
698.90	259.63
699.23	259.18
699.57	258.76
699.90	258.32
700.24	257.86
700.58	257.43
700.91	257.04
701.25	256.71
701.58	256.34
701.92	255.97
702.25	255.58
702.59	255.18
702.92	254.80
703.26	254.43
703.59	254.05
703.93	253.77
704.26	253.41
704.60	253.06
704.93	252.72
705.26	252.37
705.60	252.06
705.93	251.70
706.27	251.40
706.60	251.09
706.94	250.79
707.27	250.44
707.61	250.11
707.94	249.77
708.27	249.36
708.61	249.00
708.94	248.66
709.28	248.36
709.61	248.05
709.94	247.77
710.28	247.49
710.61	247.23
710.95	246.86
711.28	246.66
711.61	246.38
711.95	246.14
712.28	245.87
712.61	245.59
712.95	245.39
713.28	245.18
713.61	244.91
713.95	244.65
714.28	244.43
714.61	244.18
714.95	243.95
715.28	243.71
715.61	243.48
715.95	243.27
716.28	243.05
716.61	242.85
716.95	242.62
717.28	242.40
717.61	242.18
717.94	241.97
718.28	241.68
718.61	241.47
718.94	241.25
719.27	241.05
719.61	240.87
719.94	240.64
720.27	240.39
720.60	240.20
720.94	240.02
721.27	239.84
721.60	239.68
721.93	239.50
722.27	239.36
722.60	239.20
722.93	239.00
723.26	238.84
723.59	238.65
723.93	238.50
724.26	238.35
724.59	238.18
724.92	238.03
725.25	237.91
725.59	237.77
725.92	237.64
726.25	237.49
726.58	237.34
726.91	237.19
727.24	237.06
727.57	236.92
727.91	236.76
728.24	236.63
728.57	236.48
728.90	236.35
729.23	236.18
729.56	236.09
729.89	235.96
730.22	235.82
730.55	235.69
730.89	235.56
731.22	235.42
731.55	235.30
731.88	235.17
732.21	235.03
732.54	234.91
732.87	234.79
733.20	234.68
733.53	234.57
733.86	234.47
734.19	234.35
734.52	234.26
734.85	234.23
735.18	234.10
735.51	234.02
735.84	233.92
736.17	233.84
736.50	233.69
736.83	233.71
737.16	233.62
737.49	233.54
737.82	233.44
738.15	233.36
738.48	233.27
738.81	233.17
739.14	233.07
739.47	232.97
739.80	232.87
740.13	232.78
740.46	232.68
740.79	232.57
741.12	232.48
741.45	232.37
741.78	232.23
742.11	232.17
742.44	232.06
742.77	231.99
743.10	231.89
743.43	231.80
743.75	231.61
744.08	231.69
744.41	231.60
744.74	231.51
745.07	231.41
745.40	231.35
745.73	231.32
746.06	231.25
746.39	231.19
746.71	231.11
747.04	231.02
747.37	230.95
747.70	230.90
748.03	230.84
748.36	230.79
748.68	230.72
749.01	230.62
749.34	230.56
749.67	230.49
750.00	230.43
750.33	230.45
750.65	230.39
750.98	230.18
751.31	230.12
751.64	230.06
751.97	230.06
752.29	229.98
752.62	229.87
752.95	229.81
753.28	229.73
753.60	229.67
753.93	229.63
754.26	229.58
754.59	229.49
754.91	229.41
755.24	229.34
755.57	229.32
755.90	229.26
756.22	229.19
756.55	229.12
756.88	229.04
757.20	228.91
757.53	228.83
757.86	228.77
758.19	228.72
758.51	228.67
758.84	228.56
759.17	228.50
759.49	228.46
759.82	228.46
760.15	228.43
760.47	228.38
760.80	228.30
761.13	228.27
761.45	228.22
761.78	228.18
762.11	228.14
762.43	228.04
762.76	228.00
763.08	227.96
763.41	227.93
763.74	227.89
764.06	227.85
764.39	227.81
764.71	227.77
765.04	227.72
765.37	227.67
765.69	227.63
766.02	227.59
766.34	227.54
766.67	227.46
767.00	227.44
767.32	227.45
767.65	227.48
767.97	227.43
768.30	227.40
768.62	227.36
768.95	227.31
769.27	227.28
769.60	227.25
769.92	227.20
770.25	227.15
770.57	227.10
770.90	227.06
771.22	227.02
771.55	226.99
771.87	226.97
772.20	226.93
772.52	226.99
772.85	227.08
773.17	227.05
773.50	227.02
773.82	226.97
774.15	226.89
774.47	226.79
774.80	226.76
775.12	226.73
775.45	226.70
775.77	226.68
776.09	226.66
776.42	226.64
776.74	226.65
777.07	226.62
777.39	226.60
777.72	226.57
778.04	226.56
778.36	226.53
778.69	226.51
779.01	226.50
779.33	226.39
779.66	226.25
779.98	226.22
780.31	226.21
780.63	226.23
780.95	226.23
781.28	226.21
781.60	226.18
781.92	226.16
782.25	226.14
782.57	226.12
782.89	226.09
783.22	226.07
783.54	226.02
783.86	226.02
784.19	225.99
784.51	226.01
784.83	225.98
785.16	225.96
785.48	225.94
785.80	225.92
786.12	225.92
786.45	225.90
786.77	225.89
787.09	225.86
787.42	225.81
787.74	225.79
788.06	225.78
788.38	225.77
788.71	225.75
789.03	225.74
789.35	225.73
789.67	225.71
789.99	225.70
790.32	225.67
790.64	225.67
790.96	225.75
791.28	225.70
791.61	225.68
791.93	225.67
792.25	225.65
792.57	225.71
792.89	225.68
793.21	225.67
793.54	225.65
793.86	225.63
794.18	225.62
794.50	225.59
794.82	225.57
795.14	225.57
795.47	225.58
795.79	225.57
796.11	225.53
796.43	225.52
796.75	225.50
797.07	225.50
797.39	225.48
797.71	225.38
798.04	225.37
798.36	225.37
798.68	225.36
799.00	225.35
799.32	225.29
799.64	225.30
799.96	225.29
800.28	225.30
800.60	225.28
800.92	225.28
801.24	225.26
801.56	225.26
801.89	225.24
802.21	225.23
802.53	225.20
802.85	225.21
803.17	225.26
803.49	225.23
803.81	225.21
804.13	225.19
804.45	225.17
804.77	225.17
805.09	225.16
805.41	225.14
805.73	225.11
806.05	225.07
806.37	225.05
806.69	225.03
807.01	225.01
807.33	225.01
807.65	224.96
807.97	225.00
808.28	224.98
808.60	224.97
808.92	224.95
809.24	225.01
809.56	224.98
809.88	224.94
810.20	224.94
810.52	224.95
810.84	224.93
811.16	224.91
811.48	224.90
811.80	224.93
812.12	224.92
812.43	224.94
812.75	224.94
813.07	224.92
813.39	224.92
813.71	224.91
814.03	224.89
814.35	224.89
814.67	224.84
814.98	224.83
815.30	224.83
815.62	224.81
815.94	224.74
816.26	224.75
816.58	224.72
816.89	224.73
817.21	224.69
817.53	224.70
817.85	224.70
818.17	224.69
818.48	224.65
818.80	224.67
819.12	224.64
819.44	224.62
819.76	224.60
820.07	224.59
820.39	224.58
820.71	224.59
821.03	224.59
821.34	224.58
821.66	224.59
821.98	224.59
822.30	224.58
822.61	224.64
822.93	224.62
823.25	224.61
823.57	224.60
823.88	224.61
824.20	224.61
824.52	224.62
824.83	224.61
825.15	224.60
825.47	224.58
825.79	224.59
826.10	224.58
826.42	224.58
826.74	224.58
827.05	224.57
827.37	224.57
827.69	224.57
828.00	224.57
828.32	224.56
828.64	224.55
828.95	224.60
829.27	224.56
829.58	224.56
829.90	224.57
830.22	224.58
830.53	224.55
830.85	224.54
831.17	224.51
831.48	224.51
831.80	224.51
832.11	224.50
832.43	224.48
832.75	224.47
833.06	224.53
833.38	224.50
833.69	224.49
834.01	224.49
834.32	224.48
834.64	224.47
834.96	224.47
835.27	224.47
835.59	224.43
835.90	224.41
836.22	224.40
836.53	224.38
836.85	224.36
837.16	224.46
837.48	224.46
837.79	224.50
838.11	224.50
838.42	224.49
838.74	224.50
839.05	224.49
839.37	224.49
839.68	224.42
840.00	224.42
840.31	224.43
840.63	224.42
840.94	224.41
841.26	224.40
841.57	224.39
841.88	224.40
842.20	224.38
842.51	224.36
842.83	224.36
843.14	224.45
843.46	224.45
843.77	224.39
844.08	224.38
844.40	224.34
844.71	224.33
845.03	224.32
845.34	224.31
845.65	224.32
845.97	224.32
846.28	224.32
846.60	224.33
846.91	224.31
847.22	224.30
847.54	224.32
847.85	224.33
848.16	224.32
848.48	224.30
848.79	224.35
849.10	224.36
849.42	224.37
849.73	224.27
850.04	224.27
850.36	224.23
850.67	224.25
850.98	224.25
851.30	224.26
851.61	224.26
851.92	224.26
852.23	224.29
852.55	224.29
852.86	224.29
853.17	224.29
853.49	224.32
853.80	224.34
854.11	224.34
854.42	224.35
854.74	224.34
855.05	224.34
855.36	224.29
855.67	224.29
855.99	224.29
856.30	224.41
856.61	224.40
856.92	224.41
857.23	224.41
857.55	224.40
857.86	224.39
858.17	224.40
858.48	224.38
858.79	224.36
859.11	224.37
859.42	224.36
859.73	224.34
860.04	224.33
860.35	224.30
860.66	224.27
860.98	224.26
861.29	224.28
861.60	224.27
861.91	224.29
862.22	224.27
862.53	224.26
862.84	224.14
863.16	224.16
863.47	224.14
863.78	224.13
864.09	224.14
864.40	224.15
864.71	224.14
865.02	224.16
865.33	224.14
865.64	224.13
865.95	224.13
866.27	224.19
866.58	224.18
866.89	224.19
867.20	224.19
867.51	224.18
867.82	224.17
868.13	224.20
868.44	224.18
868.75	224.20
869.06	224.21
869.37	224.21
869.68	224.18
869.99	224.20
870.30	224.21
870.61	224.21
870.92	224.19
871.23	224.18
871.54	224.20
871.85	224.22
872.16	224.24
872.47	224.23
872.78	224.17
873.09	224.18
873.40	224.17
873.71	224.18
874.02	224.18
874.33	224.17
874.64	224.15
874.95	224.16
875.26	224.14
875.56	224.13
875.87	224.13
876.18	224.12
876.49	224.22
876.80	224.21
877.11	224.19
877.42	224.19
877.73	224.19
878.04	224.17
878.35	224.17
878.66	224.17
878.96	224.17
879.27	224.16
879.58	224.16
879.89	224.15
880.20	224.18
880.51	224.17
880.82	224.17
881.12	224.18
881.43	224.16
881.74	224.14
882.05	224.14
882.36	224.14
882.67	224.15
882.97	224.03
883.28	224.03
883.59	224.02
883.90	224.04
884.21	224.05
884.51	224.04
884.82	224.03
885.13	224.02
885.44	224.02
885.74	224.02
886.05	224.01
886.36	224.01
886.67	223.97
886.98	224.02
887.28	224.03
887.59	224.02
887.90	224.03
888.20	224.03
888.51	224.05
888.82	224.03
889.13	224.04
889.43	224.13
889.74	224.12
890.05	224.12
890.35	224.10
890.66	224.08
890.97	224.07
891.28	224.07
891.58	224.07
891.89	224.07
892.20	224.06
892.50	224.05
892.81	224.04
893.12	224.04
893.42	223.99
893.73	223.99
894.04	223.99
894.34	224.00
894.65	223.99
894.95	223.99
895.26	223.99
895.57	224.03
895.87	223.93
896.18	223.95
896.48	223.95
896.79	223.95
897.10	223.97
897.40	223.97
897.71	223.98
898.01	223.97
898.32	223.98
898.63	223.98
898.93	223.99
899.24	223.99
899.54	223.98
899.85	223.98
900.15	223.97
900.46	223.97
900.76	223.97
901.07	223.97
901.38	223.96
901.68	223.97
901.99	223.92
902.29	223.93
902.60	223.92
902.90	223.91
903.21	223.91
903.51	223.90
903.82	223.92
904.12	223.92
904.43	223.92
904.73	223.92
905.03	223.92
905.34	224.01
905.64	224.00
905.95	224.01
906.25	224.01
906.56	224.01
906.86	224.01
907.17	224.00
907.47	224.00
907.77	223.99
908.08	223.97
908.38	223.98
908.69	223.99
908.99	224.00
909.30	224.01
909.60	224.01
909.90	224.01
910.21	223.99
910.51	223.97
910.81	223.97
911.12	223.97
911.42	223.98
911.73	223.87
912.03	223.89
912.33	223.91
912.64	223.90
912.94	223.88
913.24	223.87
913.55	223.86
913.85	223.86
914.15	223.88
914.46	223.89
914.76	223.88
915.06	223.87
915.37	223.85
915.67	223.84
915.97	223.85
916.27	223.82
916.58	223.83
916.88	223.83
917.18	223.82
917.49	223.89
917.79	223.89
918.09	223.90
918.39	223.92
918.70	223.91
919.00	223.92
919.30	223.97
919.60	223.97
919.91	223.96
920.21	223.96
920.51	223.94
920.81	223.93
921.12	223.95
921.42	223.95
921.72	223.96
922.02	223.96
922.32	223.98
922.63	223.98
922.93	224.04
923.23	224.04
923.53	224.03
923.83	223.96
924.13	223.96
924.44	223.96
924.74	223.97
925.04	223.99
925.34	223.99
925.64	223.95
925.94	223.95
926.24	224.01
926.55	224.00
926.85	224.01
927.15	224.01
927.45	224.00
927.75	224.00
928.05	224.00
928.35	223.99
928.65	224.00
928.95	224.01
929.26	223.96
929.56	223.98
929.86	223.99
930.16	223.98
930.46	223.97
930.76	223.97
931.06	223.92
931.36	223.90
931.66	223.91
931.96	223.93
932.26	223.93
932.56	223.88
932.86	223.89
933.16	223.89
933.46	223.88
933.76	223.87
934.06	223.89
934.36	223.92
934.66	223.91
934.96	223.90
935.26	223.90
935.56	223.92
935.86	223.88
936.16	223.87
936.46	223.86
936.76	223.86
937.06	223.84
937.36	223.85
937.66	223.85
937.96	223.84
938.26	223.82
938.56	223.81
938.86	223.82
939.16	223.84
939.46	223.85
939.76	223.86
940.06	223.85
940.35	223.83
940.65	223.79
940.95	223.79
941.25	223.77
941.55	223.76
941.85	223.76
942.15	223.78
942.45	223.81
942.75	223.81
943.04	223.82
943.34	223.84
943.64	223.83
943.94	223.81
944.24	223.81
944.54	223.82
944.84	223.82
945.13	223.81
945.43	223.79
945.73	223.78
946.03	223.77
946.33	223.76
946.62	223.75
946.92	223.75
947.22	223.76
947.52	223.77
947.82	223.78
948.11	223.77
948.41	223.74
948.71	223.71
949.01	223.71
949.31	223.71
949.60	223.70
949.90	223.72
950.20	223.72
950.50	223.72
950.79	223.71
951.09	223.72
951.39	223.72
951.69	223.72
951.98	223.74
952.28	223.74
952.58	223.74
952.87	223.75
953.17	223.76
953.47	223.75
953.76	223.75
954.06	223.73
954.36	223.72
954.66	223.73
954.95	223.75
955.25	223.76
955.55	223.77
955.84	223.76
956.14	223.76
956.44	223.77
956.73	223.76
957.03	223.77
957.32	223.76
957.62	223.76
957.92	223.78
958.21	223.76
958.51	223.88
958.81	223.89
959.10	223.90
959.40	223.92
959.69	223.93
959.99	223.94
960.29	223.95
960.58	223.95
960.88	223.98
961.17	223.97
961.47	223.98
961.76	223.97
962.06	223.99
962.36	223.97
962.65	223.98
962.95	223.99
963.24	223.98
963.54	223.98
963.83	223.99
964.13	223.98
964.42	223.96
964.72	223.87
965.01	223.88
965.31	223.87
965.60	223.84
965.90	223.90
966.19	223.88
966.49	223.89
966.78	223.88
967.08	223.87
967.37	223.87
967.67	223.85
967.96	223.87
968.26	223.86
968.55	223.87
968.85	223.87
969.14	223.87
969.43	223.86
969.73	223.85
970.02	223.84
970.32	223.84
970.61	223.83
970.91	223.80
971.20	223.78
971.49	223.77
971.79	223.78
972.08	223.71
972.38	223.72
972.67	223.71
972.96	223.73
973.26	223.70
973.55	223.73
973.85	223.73
974.14	223.72
974.43	223.73
974.73	223.71
975.02	223.69
975.31	223.69
975.61	223.69
975.90	223.68
976.19	223.67
976.49	223.68
976.78	223.69
977.07	223.69
977.37	223.70
977.66	223.71
977.95	223.69
978.24	223.70
978.54	223.71
978.83	223.71
979.12	223.70
979.42	223.70
979.71	223.67
980.00	223.67
980.29	223.67
980.59	223.65
980.88	223.68
981.17	223.68
981.46	223.69
981.76	223.69
982.05	223.72
982.34	223.73
982.63	223.73
982.93	223.73
983.22	223.75
983.51	223.75
983.80	223.77
984.09	223.78
984.39	223.77
984.68	223.76
984.97	223.77
985.26	223.76
985.55	223.77
985.85	223.75
986.14	223.76
986.43	223.77
986.72	223.77
987.01	223.74
987.30	223.74
987.59	223.74
987.89	223.74
988.18	223.71
988.47	223.70
988.76	223.69
989.05	223.68
989.34	223.66
989.63	223.68
989.92	223.67
990.22	223.65
990.51	223.65
990.80	223.63
991.09	223.64
991.38	223.66
991.67	223.65
991.96	223.65
992.25	223.64
992.54	223.62
992.83	223.63
993.12	223.63
993.41	223.64
993.70	223.68
993.99	223.70
994.28	223.71
994.58	223.73
994.87	223.72
995.16	223.72
995.45	223.71
995.74	223.68
996.03	223.69
996.32	223.71
996.61	223.74
996.90	223.74
997.19	223.73
997.48	223.73
997.77	223.72
998.06	223.73
998.34	223.72
998.63	223.72
998.92	223.72
999.21	223.74
999.50	223.74
999.79	223.71
1000.08	223.70
1000.37	223.70
1000.66	223.69
1000.95	223.71
1001.24	223.72
1001.53	223.73
1001.82	223.73
1002.11	223.71
1002.40	223.71
1002.68	223.73
1002.97	223.80
1003.26	223.79
1003.55	223.77
1003.84	223.78
1004.13	223.81
1004.42	223.81
1004.71	223.81
1004.99	223.80
1005.28	223.82
1005.57	223.81
1005.86	223.80
1006.15	223.79
1006.44	223.77
1006.72	223.79
1007.01	223.76
1007.30	223.76
1007.59	223.75
1007.88	223.75
1008.17	223.76
1008.45	223.74
1008.74	223.69
1009.03	223.65
1009.32	223.65
1009.60	223.65
1009.89	223.64
1010.18	223.60
1010.47	223.60
1010.76	223.60
1011.04	223.59
1011.33	223.59
1011.62	223.59
1011.91	223.60
1012.19	223.61
1012.48	223.61
1012.77	223.61
1013.05	223.65
1013.34	223.64
1013.63	223.64
1013.92	223.65
1014.20	223.64
1014.49	223.65
1014.78	223.66
1015.06	223.62
1015.35	223.62
1015.64	223.63
1015.92	223.65
1016.21	223.66
1016.50	223.65
1016.78	223.67
1017.07	223.68
1017.36	223.67
1017.64	223.65
1017.93	223.66
1018.22	223.65
1018.50	223.64
1018.79	223.64
1019.08	223.60
1019.36	223.61
1019.65	223.61
1019.93	223.63
1020.22	223.64
1020.51	223.69
1020.79	223.68
1021.08	223.50
1021.36	223.45
1021.65	223.64
1021.94	223.59
1022.22	223.74
1022.51	223.47
1022.79	224.11
1023.08	223.80
1023.36	224.80
1023.65	223.41
>>>>>End Processed Spectral Data<<<<<
