SpectraSuite Data File
++++++++++++++++++++++++++++++++++++
Date: Wed Sep 30 17:27:39 EDT 2015
User: lab3
Dark Spectrum Present: No
Reference Spectrum Present: No
Number of Sampled Component Spectra: 1
Spectrometers: USB2E7196
Integration Time (usec): 36000 (USB2E7196)
Spectra Averaged: 3000 (USB2E7196)
Boxcar Smoothing: 10 (USB2E7196)
Correct for Electrical Dark: No (USB2E7196)
Strobe/Lamp Enabled: No (USB2E7196)
Correct for Detector Non-linearity: No (USB2E7196)
Correct for Stray Light: No (USB2E7196)
Number of Pixels in Processed Spectrum: 2048
>>>>>Begin Processed Spectral Data<<<<<
339.09	0.00
339.48	210.52
339.86	212.01
340.24	213.42
340.63	214.85
341.01	217.86
341.39	217.44
341.78	218.88
342.16	220.00
342.54	220.50
342.93	209.09
343.31	219.66
343.69	220.20
344.07	220.66
344.46	221.08
344.84	221.47
345.22	221.70
345.60	221.95
345.99	222.14
346.37	222.28
346.75	222.39
347.13	222.47
347.52	222.54
347.90	222.62
348.28	222.65
348.66	222.71
349.05	222.71
349.43	222.77
349.81	222.82
350.19	222.87
350.57	222.94
350.96	223.02
351.34	223.11
351.72	223.20
352.10	223.31
352.48	223.39
352.87	223.44
353.25	223.51
353.63	223.57
354.01	223.63
354.39	223.71
354.77	223.78
355.15	223.88
355.54	223.93
355.92	223.97
356.30	224.05
356.68	224.18
357.06	224.25
357.44	224.30
357.82	224.36
358.20	224.46
358.58	224.52
358.97	224.58
359.35	224.67
359.73	224.74
360.11	224.79
360.49	224.85
360.87	224.89
361.25	224.95
361.63	225.04
362.01	225.09
362.39	225.12
362.77	225.16
363.15	225.19
363.53	225.23
363.91	225.26
364.29	225.27
364.67	225.20
365.05	225.23
365.43	225.26
365.81	225.29
366.19	225.31
366.57	225.36
366.95	225.36
367.33	225.33
367.71	225.32
368.09	225.34
368.47	225.33
368.85	225.32
369.23	225.32
369.61	225.27
369.99	225.28
370.37	225.28
370.75	225.34
371.13	225.30
371.51	225.26
371.89	225.25
372.27	225.23
372.65	225.21
373.03	225.17
373.41	225.12
373.78	225.07
374.16	224.98
374.54	224.90
374.92	224.84
375.30	224.81
375.68	224.74
376.06	224.69
376.44	224.64
376.82	224.60
377.19	224.55
377.57	224.49
377.95	224.41
378.33	224.34
378.71	224.19
379.09	224.15
379.47	224.12
379.84	224.05
380.22	223.99
380.60	223.91
380.98	223.86
381.36	223.82
381.73	223.76
382.11	223.73
382.49	223.69
382.87	223.63
383.25	223.59
383.62	223.66
384.00	223.59
384.38	223.55
384.76	223.53
385.13	223.52
385.51	223.48
385.89	223.43
386.27	223.39
386.64	223.37
387.02	223.32
387.40	223.27
387.78	223.24
388.15	223.22
388.53	223.19
388.91	223.16
389.29	223.12
389.66	223.11
390.04	223.08
390.42	223.07
390.79	223.06
391.17	223.04
391.55	222.91
391.92	222.90
392.30	222.90
392.68	222.86
393.05	222.84
393.43	222.83
393.81	222.84
394.18	222.82
394.56	222.83
394.94	222.85
395.31	222.85
395.69	222.89
396.06	222.90
396.44	222.93
396.82	222.93
397.19	223.01
397.57	223.01
397.95	223.06
398.32	223.05
398.70	223.09
399.07	223.15
399.45	223.18
399.82	223.22
400.20	223.26
400.58	223.31
400.95	223.33
401.33	223.40
401.70	223.53
402.08	223.63
402.45	223.71
402.83	223.81
403.20	223.90
403.58	223.98
403.95	224.11
404.33	224.23
404.71	224.36
405.08	224.53
405.46	224.67
405.83	224.82
406.21	224.98
406.58	225.18
406.96	225.36
407.33	225.57
407.70	225.80
408.08	226.12
408.45	226.40
408.83	226.70
409.20	226.97
409.58	227.22
409.95	227.55
410.33	227.92
410.70	228.26
411.08	228.67
411.45	229.10
411.82	229.53
412.20	230.02
412.57	230.62
412.95	231.07
413.32	231.68
413.69	232.30
414.07	232.95
414.44	233.66
414.82	234.39
415.19	235.24
415.56	236.11
415.94	237.00
416.31	238.01
416.68	239.02
417.06	240.21
417.43	241.31
417.81	242.57
418.18	243.85
418.55	245.26
418.93	246.73
419.30	248.26
419.67	249.89
420.04	251.57
420.42	253.32
420.79	255.34
421.16	257.38
421.54	259.46
421.91	261.62
422.28	263.88
422.66	266.31
423.03	268.63
423.40	271.06
423.77	273.68
424.15	276.34
424.52	279.13
424.89	282.13
425.26	285.13
425.64	287.91
426.01	291.04
426.38	294.24
426.75	297.55
427.13	300.93
427.50	304.47
427.87	308.14
428.24	311.85
428.61	315.41
428.99	319.24
429.36	323.44
429.73	327.47
430.10	331.48
430.47	335.58
430.85	339.79
431.22	344.27
431.59	348.90
431.96	353.39
432.33	358.37
432.70	363.09
433.08	368.67
433.45	373.94
433.82	379.12
434.19	384.89
434.56	390.57
434.93	396.03
435.30	401.44
435.68	407.51
436.05	413.47
436.42	419.43
436.79	424.86
437.16	430.72
437.53	436.98
437.90	443.24
438.27	449.35
438.64	455.99
439.01	461.97
439.38	467.41
439.75	472.68
440.13	478.70
440.50	484.42
440.87	488.93
441.24	493.89
441.61	499.35
441.98	503.37
442.35	508.14
442.72	513.03
443.09	517.70
443.46	520.72
443.83	522.94
444.20	524.82
444.57	527.57
444.94	529.19
445.31	530.88
445.68	532.39
446.05	533.51
446.42	533.36
446.79	533.12
447.16	532.94
447.53	532.80
447.90	531.04
448.27	529.39
448.64	526.78
449.01	525.06
449.37	521.31
449.74	517.89
450.11	513.49
450.48	508.64
450.85	503.76
451.22	499.63
451.59	495.58
451.96	491.90
452.33	486.50
452.70	481.70
453.07	475.83
453.43	469.95
453.80	464.27
454.17	458.80
454.54	453.73
454.91	448.00
455.28	442.60
455.65	437.52
456.02	432.12
456.38	427.76
456.75	422.12
457.12	417.57
457.49	413.00
457.86	408.61
458.23	404.79
458.59	400.56
458.96	396.20
459.33	392.36
459.70	388.45
460.07	385.47
460.43	381.96
460.80	378.67
461.17	375.77
461.54	372.64
461.91	369.71
462.27	366.74
462.64	364.31
463.01	361.52
463.38	358.69
463.74	356.13
464.11	353.85
464.48	351.79
464.85	349.58
465.21	347.89
465.58	346.04
465.95	343.88
466.32	342.16
466.68	340.48
467.05	338.78
467.42	337.14
467.78	335.37
468.15	333.73
468.52	332.51
468.88	330.92
469.25	329.45
469.62	328.29
469.98	327.02
470.35	325.89
470.72	324.89
471.08	323.87
471.45	323.02
471.82	322.08
472.18	321.10
472.55	320.47
472.92	319.70
473.28	319.07
473.65	318.44
474.02	317.84
474.38	317.34
474.75	317.06
475.11	316.66
475.48	316.49
475.85	316.34
476.21	316.28
476.58	316.28
476.94	316.47
477.31	316.57
477.67	316.72
478.04	316.97
478.41	317.28
478.77	317.72
479.14	318.03
479.50	318.57
479.87	319.23
480.23	319.90
480.60	320.54
480.96	321.21
481.33	322.14
481.69	323.07
482.06	324.00
482.42	324.88
482.79	325.92
483.15	327.13
483.52	328.48
483.88	329.79
484.25	331.19
484.61	332.64
484.98	334.21
485.34	335.96
485.71	337.78
486.07	339.71
486.44	341.64
486.80	343.78
487.17	345.97
487.53	348.39
487.90	350.90
488.26	353.63
488.62	356.51
488.99	359.37
489.35	362.38
489.72	365.62
490.08	369.02
490.44	372.51
490.81	376.17
491.17	379.92
491.54	383.92
491.90	388.03
492.26	392.45
492.63	397.10
492.99	401.95
493.36	406.92
493.72	412.16
494.08	417.54
494.45	423.22
494.81	429.10
495.17	435.09
495.54	441.42
495.90	448.06
496.26	454.84
496.63	461.87
496.99	469.17
497.35	476.85
497.72	484.81
498.08	492.94
498.44	501.32
498.80	510.22
499.17	519.34
499.53	528.79
499.89	538.46
500.26	548.34
500.62	558.47
500.98	569.27
501.34	580.19
501.71	591.65
502.07	603.33
502.43	615.41
502.79	627.83
503.16	640.65
503.52	653.65
503.88	666.99
504.24	680.78
504.60	694.82
504.97	709.23
505.33	724.04
505.69	739.73
506.05	755.64
506.41	771.60
506.78	787.86
507.14	804.61
507.50	821.93
507.86	839.60
508.22	857.56
508.59	875.56
508.95	894.27
509.31	913.42
509.67	933.25
510.03	953.32
510.39	973.61
510.75	994.10
511.12	1014.88
511.48	1036.00
511.84	1057.26
512.20	1078.84
512.56	1101.53
512.92	1124.39
513.28	1146.98
513.64	1169.90
514.00	1193.26
514.37	1216.89
514.73	1240.58
515.09	1264.09
515.45	1288.02
515.81	1312.53
516.17	1337.07
516.53	1361.37
516.89	1385.74
517.25	1410.30
517.61	1435.06
517.97	1460.04
518.33	1484.87
518.69	1509.88
519.05	1535.17
519.41	1560.54
519.77	1586.23
520.13	1611.15
520.49	1636.28
520.85	1661.61
521.21	1686.82
521.57	1712.63
521.93	1737.77
522.29	1763.69
522.65	1789.40
523.01	1814.95
523.37	1839.70
523.73	1865.16
524.09	1890.81
524.45	1916.35
524.81	1941.42
525.17	1966.34
525.53	1990.93
525.89	2015.41
526.25	2040.10
526.61	2064.23
526.97	2088.69
527.33	2113.06
527.68	2137.29
528.04	2160.78
528.40	2184.10
528.76	2207.63
529.12	2230.11
529.48	2253.09
529.84	2274.30
530.20	2295.93
530.56	2317.25
530.91	2338.75
531.27	2359.68
531.63	2379.98
531.99	2399.74
532.35	2419.40
532.71	2439.21
533.07	2459.51
533.42	2478.28
533.78	2497.47
534.14	2516.67
534.50	2535.00
534.86	2553.93
535.21	2571.09
535.57	2588.08
535.93	2604.32
536.29	2619.30
536.65	2635.10
537.00	2649.81
537.36	2665.11
537.72	2679.42
538.08	2693.48
538.44	2706.41
538.79	2719.57
539.15	2730.96
539.51	2742.21
539.87	2752.80
540.22	2761.26
540.58	2769.94
540.94	2779.26
541.29	2787.06
541.65	2793.87
542.01	2800.24
542.37	2804.70
542.72	2811.03
543.08	2816.79
543.44	2822.45
543.79	2827.52
544.15	2831.62
544.51	2835.62
544.87	2838.67
545.22	2841.37
545.58	2842.99
545.94	2845.07
546.29	2845.70
546.65	2846.41
547.01	2847.29
547.36	2848.40
547.72	2849.81
548.07	2849.60
548.43	2848.77
548.79	2847.22
549.14	2845.60
549.50	2844.62
549.86	2842.70
550.21	2838.56
550.57	2834.90
550.92	2829.79
551.28	2825.21
551.64	2820.52
551.99	2816.14
552.35	2811.44
552.70	2806.21
553.06	2801.63
553.41	2796.53
553.77	2790.76
554.13	2785.87
554.48	2779.91
554.84	2772.44
555.19	2764.98
555.55	2756.93
555.90	2749.42
556.26	2743.01
556.61	2736.01
556.97	2726.76
557.32	2718.65
557.68	2710.62
558.03	2701.98
558.39	2694.15
558.74	2686.32
559.10	2677.47
559.45	2668.20
559.81	2659.05
560.16	2649.39
560.52	2639.34
560.87	2630.34
561.23	2620.96
561.58	2611.10
561.94	2601.11
562.29	2590.46
562.64	2580.36
563.00	2570.61
563.35	2560.73
563.71	2549.75
564.06	2538.49
564.42	2528.18
564.77	2517.43
565.12	2506.73
565.48	2495.72
565.83	2485.34
566.19	2475.17
566.54	2464.36
566.89	2452.81
567.25	2441.36
567.60	2430.65
567.96	2419.50
568.31	2406.99
568.66	2394.50
569.02	2382.96
569.37	2371.22
569.72	2360.00
570.08	2348.08
570.43	2335.57
570.78	2322.66
571.14	2309.78
571.49	2297.53
571.84	2285.51
572.20	2272.13
572.55	2259.38
572.90	2246.44
573.26	2232.59
573.61	2218.12
573.96	2203.98
574.31	2190.08
574.67	2176.41
575.02	2162.24
575.37	2147.72
575.72	2133.48
576.08	2119.66
576.43	2104.75
576.78	2089.87
577.13	2075.82
577.49	2061.88
577.84	2048.42
578.19	2034.15
578.54	2019.42
578.90	2004.14
579.25	1988.64
579.60	1974.65
579.95	1960.19
580.30	1945.86
580.66	1931.74
581.01	1917.13
581.36	1902.98
581.71	1889.47
582.06	1875.40
582.42	1861.53
582.77	1848.29
583.12	1834.55
583.47	1821.02
583.82	1807.61
584.17	1794.04
584.53	1780.36
584.88	1766.68
585.23	1752.60
585.58	1739.10
585.93	1725.89
586.28	1713.59
586.63	1701.03
586.98	1687.64
587.34	1674.53
587.69	1660.93
588.04	1647.64
588.39	1635.02
588.74	1621.79
589.09	1608.34
589.44	1594.89
589.79	1581.93
590.14	1568.89
590.49	1556.08
590.84	1543.13
591.19	1530.78
591.54	1517.97
591.89	1505.00
592.25	1492.32
592.60	1479.27
592.95	1466.72
593.30	1454.61
593.65	1442.24
594.00	1430.18
594.35	1418.83
594.70	1406.57
595.05	1395.30
595.40	1383.86
595.75	1371.88
596.10	1360.79
596.45	1349.92
596.80	1339.45
597.15	1328.79
597.50	1318.07
597.85	1307.57
598.19	1297.27
598.54	1286.45
598.89	1276.33
599.24	1266.46
599.59	1256.38
599.94	1247.36
600.29	1238.19
600.64	1228.78
600.99	1218.73
601.34	1209.14
601.69	1199.04
602.04	1190.11
602.39	1181.09
602.74	1172.31
603.08	1163.75
603.43	1154.65
603.78	1145.39
604.13	1136.26
604.48	1127.04
604.83	1118.14
605.18	1109.16
605.53	1100.08
605.87	1091.07
606.22	1082.35
606.57	1073.38
606.92	1064.44
607.27	1055.36
607.62	1046.41
607.96	1037.65
608.31	1030.01
608.66	1021.92
609.01	1014.22
609.36	1006.39
609.70	998.30
610.05	990.06
610.40	982.20
610.75	974.43
611.10	966.91
611.44	959.07
611.79	951.52
612.14	943.57
612.49	935.80
612.83	928.50
613.18	921.29
613.53	913.90
613.88	906.63
614.22	899.98
614.57	893.11
614.92	886.23
615.27	879.36
615.61	872.28
615.96	865.46
616.31	858.55
616.65	851.57
617.00	844.85
617.35	838.23
617.70	831.64
618.04	825.17
618.39	818.72
618.74	812.59
619.08	806.31
619.43	800.26
619.78	794.20
620.12	787.98
620.47	781.96
620.82	775.97
621.16	770.31
621.51	764.30
621.85	758.28
622.20	752.33
622.55	746.55
622.89	740.67
623.24	734.84
623.59	729.13
623.93	723.47
624.28	717.98
624.62	712.47
624.97	706.91
625.32	701.50
625.66	695.95
626.01	690.38
626.35	684.94
626.70	679.57
627.04	674.42
627.39	669.30
627.73	664.27
628.08	659.50
628.43	654.53
628.77	649.60
629.12	644.86
629.46	640.31
629.81	635.56
630.15	630.76
630.50	626.11
630.84	621.62
631.19	617.32
631.53	613.04
631.88	608.67
632.22	604.40
632.57	600.35
632.91	596.24
633.26	592.20
633.60	588.27
633.95	584.46
634.29	580.48
634.64	576.47
634.98	572.37
635.32	568.41
635.67	564.65
636.01	560.85
636.36	557.06
636.70	553.41
637.05	549.75
637.39	546.28
637.73	542.67
638.08	539.15
638.42	535.59
638.77	531.90
639.11	528.18
639.45	524.50
639.80	520.84
640.14	517.36
640.49	513.85
640.83	510.22
641.17	506.62
641.52	503.18
641.86	499.76
642.20	496.51
642.55	493.10
642.89	489.77
643.23	486.63
643.58	483.76
643.92	480.73
644.26	477.77
644.61	474.76
644.95	471.77
645.29	468.72
645.64	465.65
645.98	462.72
646.32	459.98
646.66	457.24
647.01	454.46
647.35	451.73
647.69	448.90
648.04	446.23
648.38	443.58
648.72	440.88
649.06	438.26
649.41	435.67
649.75	433.10
650.09	430.53
650.43	427.96
650.78	425.37
651.12	422.76
651.46	420.27
651.80	417.89
652.14	415.56
652.49	413.26
652.83	411.03
653.17	408.78
653.51	406.59
653.85	404.48
654.20	402.28
654.54	400.02
654.88	397.94
655.22	395.91
655.56	393.84
655.90	391.89
656.25	389.94
656.59	387.99
656.93	386.14
657.27	384.33
657.61	382.44
657.95	380.59
658.29	378.77
658.64	376.94
658.98	375.09
659.32	373.31
659.66	371.61
660.00	369.91
660.34	368.26
660.68	366.54
661.02	364.77
661.36	363.13
661.70	361.55
662.05	359.94
662.39	358.32
662.73	356.80
663.07	355.30
663.41	353.83
663.75	352.39
664.09	350.94
664.43	349.41
664.77	347.99
665.11	346.50
665.45	345.11
665.79	343.71
666.13	342.30
666.47	340.87
666.81	339.43
667.15	337.95
667.49	336.56
667.83	335.22
668.17	333.92
668.51	332.64
668.85	331.39
669.19	330.22
669.53	328.97
669.87	327.69
670.21	326.44
670.55	325.20
670.89	324.03
671.23	322.84
671.57	321.66
671.91	320.53
672.25	319.47
672.58	318.39
672.92	317.29
673.26	316.27
673.60	315.25
673.94	314.22
674.28	313.24
674.62	312.27
674.96	311.26
675.30	310.31
675.64	309.34
675.97	308.39
676.31	307.39
676.65	306.43
676.99	305.53
677.33	304.58
677.67	303.67
678.01	302.69
678.34	301.78
678.68	300.94
679.02	300.05
679.36	299.18
679.70	298.31
680.04	297.45
680.37	296.59
680.71	295.76
681.05	294.99
681.39	294.17
681.73	293.32
682.06	292.51
682.40	291.71
682.74	290.92
683.08	290.17
683.42	289.40
683.75	288.71
684.09	287.92
684.43	287.20
684.77	286.46
685.10	285.77
685.44	285.06
685.78	284.34
686.12	283.67
686.45	282.97
686.79	282.28
687.13	281.62
687.46	280.92
687.80	280.25
688.14	279.54
688.48	278.89
688.81	278.25
689.15	277.65
689.49	277.01
689.82	276.38
690.16	275.70
690.50	275.08
690.83	274.45
691.17	273.84
691.51	273.24
691.84	272.67
692.18	272.06
692.52	271.44
692.85	270.84
693.19	270.29
693.52	269.72
693.86	269.15
694.20	268.59
694.53	268.07
694.87	267.52
695.21	267.00
695.54	266.47
695.88	265.94
696.21	265.37
696.55	264.86
696.88	264.34
697.22	263.85
697.56	263.35
697.89	262.80
698.23	262.29
698.56	261.77
698.90	261.30
699.23	260.80
699.57	260.35
699.90	259.88
700.24	259.38
700.58	258.92
700.91	258.49
701.25	258.14
701.58	257.74
701.92	257.34
702.25	256.91
702.59	256.48
702.92	256.07
703.26	255.66
703.59	255.25
703.93	254.93
704.26	254.55
704.60	254.16
704.93	253.79
705.26	253.41
705.60	253.07
705.93	252.68
706.27	252.36
706.60	252.03
706.94	251.70
707.27	251.32
707.61	250.95
707.94	250.58
708.27	250.14
708.61	249.75
708.94	249.38
709.28	249.04
709.61	248.70
709.94	248.39
710.28	248.08
710.61	247.79
710.95	247.40
711.28	247.17
711.61	246.87
711.95	246.60
712.28	246.30
712.61	246.00
712.95	245.77
713.28	245.53
713.61	245.24
713.95	244.95
714.28	244.70
714.61	244.43
714.95	244.18
715.28	243.91
715.61	243.66
715.95	243.43
716.28	243.18
716.61	242.97
716.95	242.72
717.28	242.48
717.61	242.23
717.94	242.01
718.28	241.70
718.61	241.47
718.94	241.22
719.27	241.00
719.61	240.80
719.94	240.57
720.27	240.30
720.60	240.09
720.94	239.89
721.27	239.70
721.60	239.53
721.93	239.32
722.27	239.17
722.60	239.00
722.93	238.79
723.26	238.60
723.59	238.39
723.93	238.21
724.26	238.05
724.59	237.87
724.92	237.70
725.25	237.57
725.59	237.41
725.92	237.27
726.25	237.10
726.58	236.94
726.91	236.77
727.24	236.62
727.57	236.46
727.91	236.29
728.24	236.14
728.57	235.98
728.90	235.85
729.23	235.66
729.56	235.55
729.89	235.41
730.22	235.26
730.55	235.13
730.89	234.98
731.22	234.84
731.55	234.69
731.88	234.56
732.21	234.40
732.54	234.26
732.87	234.14
733.20	234.02
733.53	233.90
733.86	233.79
734.19	233.65
734.52	233.55
734.85	233.50
735.18	233.37
735.51	233.28
735.84	233.16
736.17	233.08
736.50	232.91
736.83	232.93
737.16	232.82
737.49	232.73
737.82	232.62
738.15	232.53
738.48	232.43
738.81	232.32
739.14	232.20
739.47	232.10
739.80	231.99
740.13	231.90
740.46	231.79
740.79	231.67
741.12	231.57
741.45	231.46
741.78	231.30
742.11	231.23
742.44	231.12
742.77	231.04
743.10	230.93
743.43	230.83
743.75	230.62
744.08	230.69
744.41	230.59
744.74	230.50
745.07	230.39
745.40	230.32
745.73	230.29
746.06	230.21
746.39	230.14
746.71	230.06
747.04	229.97
747.37	229.89
747.70	229.83
748.03	229.75
748.36	229.70
748.68	229.62
749.01	229.51
749.34	229.44
749.67	229.37
750.00	229.31
750.33	229.32
750.65	229.26
750.98	229.04
751.31	228.97
751.64	228.91
751.97	228.90
752.29	228.82
752.62	228.71
752.95	228.64
753.28	228.55
753.60	228.48
753.93	228.44
754.26	228.38
754.59	228.29
754.91	228.21
755.24	228.14
755.57	228.12
755.90	228.06
756.22	227.98
756.55	227.90
756.88	227.81
757.20	227.68
757.53	227.60
757.86	227.54
758.19	227.49
758.51	227.43
758.84	227.32
759.17	227.25
759.49	227.21
759.82	227.21
760.15	227.16
760.47	227.11
760.80	227.03
761.13	227.00
761.45	226.95
761.78	226.91
762.11	226.86
762.43	226.76
762.76	226.72
763.08	226.70
763.41	226.67
763.74	226.63
764.06	226.58
764.39	226.54
764.71	226.50
765.04	226.44
765.37	226.38
765.69	226.35
766.02	226.31
766.34	226.25
766.67	226.18
767.00	226.16
767.32	226.17
767.65	226.19
767.97	226.14
768.30	226.11
768.62	226.07
768.95	226.02
769.27	225.98
769.60	225.96
769.92	225.91
770.25	225.85
770.57	225.80
770.90	225.76
771.22	225.73
771.55	225.69
771.87	225.67
772.20	225.63
772.52	225.68
772.85	225.78
773.17	225.75
773.50	225.70
773.82	225.66
774.15	225.57
774.47	225.47
774.80	225.43
775.12	225.40
775.45	225.37
775.77	225.35
776.09	225.32
776.42	225.29
776.74	225.28
777.07	225.25
777.39	225.24
777.72	225.20
778.04	225.19
778.36	225.16
778.69	225.13
779.01	225.12
779.33	225.01
779.66	224.86
779.98	224.84
780.31	224.82
780.63	224.84
780.95	224.84
781.28	224.82
781.60	224.79
781.92	224.76
782.25	224.74
782.57	224.72
782.89	224.69
783.22	224.66
783.54	224.62
783.86	224.61
784.19	224.57
784.51	224.58
784.83	224.55
785.16	224.53
785.48	224.51
785.80	224.50
786.12	224.49
786.45	224.47
786.77	224.46
787.09	224.43
787.42	224.38
787.74	224.36
788.06	224.35
788.38	224.34
788.71	224.32
789.03	224.31
789.35	224.30
789.67	224.27
789.99	224.27
790.32	224.24
790.64	224.23
790.96	224.32
791.28	224.27
791.61	224.25
791.93	224.24
792.25	224.21
792.57	224.27
792.89	224.23
793.21	224.22
793.54	224.20
793.86	224.17
794.18	224.16
794.50	224.13
794.82	224.11
795.14	224.11
795.47	224.12
795.79	224.11
796.11	224.07
796.43	224.06
796.75	224.04
797.07	224.04
797.39	224.03
797.71	223.93
798.04	223.92
798.36	223.91
798.68	223.90
799.00	223.90
799.32	223.83
799.64	223.83
799.96	223.82
800.28	223.83
800.60	223.82
800.92	223.81
801.24	223.79
801.56	223.79
801.89	223.76
802.21	223.76
802.53	223.73
802.85	223.75
803.17	223.79
803.49	223.76
803.81	223.73
804.13	223.71
804.45	223.69
804.77	223.68
805.09	223.67
805.41	223.66
805.73	223.63
806.05	223.60
806.37	223.58
806.69	223.56
807.01	223.54
807.33	223.55
807.65	223.50
807.97	223.54
808.28	223.52
808.60	223.51
808.92	223.49
809.24	223.54
809.56	223.51
809.88	223.46
810.20	223.46
810.52	223.48
810.84	223.46
811.16	223.44
811.48	223.43
811.80	223.46
812.12	223.45
812.43	223.46
812.75	223.46
813.07	223.44
813.39	223.45
813.71	223.43
814.03	223.41
814.35	223.42
814.67	223.37
814.98	223.35
815.30	223.34
815.62	223.31
815.94	223.23
816.26	223.23
816.58	223.21
816.89	223.22
817.21	223.18
817.53	223.19
817.85	223.19
818.17	223.18
818.48	223.14
818.80	223.15
819.12	223.14
819.44	223.11
819.76	223.09
820.07	223.09
820.39	223.09
820.71	223.09
821.03	223.07
821.34	223.07
821.66	223.07
821.98	223.08
822.30	223.07
822.61	223.14
822.93	223.12
823.25	223.11
823.57	223.09
823.88	223.10
824.20	223.09
824.52	223.10
824.83	223.09
825.15	223.08
825.47	223.07
825.79	223.07
826.10	223.06
826.42	223.06
826.74	223.07
827.05	223.05
827.37	223.05
827.69	223.04
828.00	223.05
828.32	223.05
828.64	223.04
828.95	223.09
829.27	223.06
829.58	223.06
829.90	223.08
830.22	223.08
830.53	223.06
830.85	223.04
831.17	223.00
831.48	223.00
831.80	223.00
832.11	222.99
832.43	222.97
832.75	222.97
833.06	223.02
833.38	223.00
833.69	223.00
834.01	222.99
834.32	222.98
834.64	222.97
834.96	222.97
835.27	222.97
835.59	222.93
835.90	222.92
836.22	222.91
836.53	222.89
836.85	222.87
837.16	222.98
837.48	222.98
837.79	223.01
838.11	223.02
838.42	223.02
838.74	223.02
839.05	223.02
839.37	223.01
839.68	222.95
840.00	222.94
840.31	222.95
840.63	222.94
840.94	222.93
841.26	222.92
841.57	222.91
841.88	222.92
842.20	222.90
842.51	222.87
842.83	222.88
843.14	222.97
843.46	222.96
843.77	222.90
844.08	222.90
844.40	222.87
844.71	222.85
845.03	222.84
845.34	222.83
845.65	222.82
845.97	222.82
846.28	222.82
846.60	222.83
846.91	222.81
847.22	222.81
847.54	222.82
847.85	222.83
848.16	222.82
848.48	222.80
848.79	222.83
849.10	222.84
849.42	222.84
849.73	222.74
850.04	222.74
850.36	222.70
850.67	222.71
850.98	222.72
851.30	222.73
851.61	222.72
851.92	222.72
852.23	222.75
852.55	222.75
852.86	222.75
853.17	222.76
853.49	222.77
853.80	222.79
854.11	222.79
854.42	222.80
854.74	222.79
855.05	222.80
855.36	222.75
855.67	222.75
855.99	222.75
856.30	222.87
856.61	222.87
856.92	222.87
857.23	222.88
857.55	222.87
857.86	222.86
858.17	222.88
858.48	222.86
858.79	222.83
859.11	222.84
859.42	222.84
859.73	222.83
860.04	222.82
860.35	222.78
860.66	222.75
860.98	222.75
861.29	222.75
861.60	222.74
861.91	222.77
862.22	222.76
862.53	222.74
862.84	222.61
863.16	222.63
863.47	222.61
863.78	222.60
864.09	222.61
864.40	222.61
864.71	222.61
865.02	222.63
865.33	222.61
865.64	222.59
865.95	222.60
866.27	222.66
866.58	222.65
866.89	222.67
867.20	222.67
867.51	222.66
867.82	222.66
868.13	222.69
868.44	222.66
868.75	222.69
869.06	222.70
869.37	222.71
869.68	222.68
869.99	222.70
870.30	222.70
870.61	222.70
870.92	222.69
871.23	222.68
871.54	222.69
871.85	222.72
872.16	222.73
872.47	222.71
872.78	222.65
873.09	222.65
873.40	222.64
873.71	222.65
874.02	222.65
874.33	222.64
874.64	222.62
874.95	222.63
875.26	222.61
875.56	222.61
875.87	222.60
876.18	222.59
876.49	222.69
876.80	222.69
877.11	222.67
877.42	222.67
877.73	222.67
878.04	222.66
878.35	222.66
878.66	222.66
878.96	222.66
879.27	222.67
879.58	222.66
879.89	222.66
880.20	222.69
880.51	222.68
880.82	222.69
881.12	222.69
881.43	222.68
881.74	222.67
882.05	222.67
882.36	222.67
882.67	222.67
882.97	222.56
883.28	222.55
883.59	222.55
883.90	222.56
884.21	222.58
884.51	222.57
884.82	222.55
885.13	222.55
885.44	222.55
885.74	222.54
886.05	222.54
886.36	222.54
886.67	222.50
886.98	222.55
887.28	222.56
887.59	222.55
887.90	222.55
888.20	222.55
888.51	222.57
888.82	222.56
889.13	222.56
889.43	222.66
889.74	222.66
890.05	222.66
890.35	222.64
890.66	222.62
890.97	222.61
891.28	222.60
891.58	222.60
891.89	222.60
892.20	222.60
892.50	222.59
892.81	222.58
893.12	222.58
893.42	222.53
893.73	222.53
894.04	222.52
894.34	222.53
894.65	222.53
894.95	222.52
895.26	222.52
895.57	222.56
895.87	222.46
896.18	222.47
896.48	222.48
896.79	222.47
897.10	222.49
897.40	222.49
897.71	222.50
898.01	222.50
898.32	222.51
898.63	222.50
898.93	222.51
899.24	222.51
899.54	222.51
899.85	222.50
900.15	222.49
900.46	222.49
900.76	222.49
901.07	222.48
901.38	222.48
901.68	222.49
901.99	222.44
902.29	222.45
902.60	222.44
902.90	222.43
903.21	222.43
903.51	222.42
903.82	222.45
904.12	222.45
904.43	222.45
904.73	222.45
905.03	222.46
905.34	222.56
905.64	222.55
905.95	222.55
906.25	222.55
906.56	222.55
906.86	222.55
907.17	222.53
907.47	222.54
907.77	222.53
908.08	222.51
908.38	222.51
908.69	222.52
908.99	222.53
909.30	222.54
909.60	222.53
909.90	222.54
910.21	222.50
910.51	222.48
910.81	222.48
911.12	222.48
911.42	222.48
911.73	222.37
912.03	222.37
912.33	222.39
912.64	222.39
912.94	222.38
913.24	222.36
913.55	222.35
913.85	222.34
914.15	222.36
914.46	222.38
914.76	222.37
915.06	222.36
915.37	222.34
915.67	222.33
915.97	222.34
916.27	222.32
916.58	222.33
916.88	222.33
917.18	222.32
917.49	222.39
917.79	222.38
918.09	222.40
918.39	222.42
918.70	222.41
919.00	222.41
919.30	222.46
919.60	222.46
919.91	222.46
920.21	222.46
920.51	222.43
920.81	222.42
921.12	222.44
921.42	222.43
921.72	222.44
922.02	222.44
922.32	222.45
922.63	222.45
922.93	222.51
923.23	222.52
923.53	222.51
923.83	222.44
924.13	222.45
924.44	222.44
924.74	222.45
925.04	222.48
925.34	222.47
925.64	222.43
925.94	222.43
926.24	222.49
926.55	222.48
926.85	222.50
927.15	222.50
927.45	222.50
927.75	222.50
928.05	222.50
928.35	222.49
928.65	222.51
928.95	222.52
929.26	222.47
929.56	222.49
929.86	222.50
930.16	222.48
930.46	222.47
930.76	222.48
931.06	222.43
931.36	222.40
931.66	222.42
931.96	222.43
932.26	222.43
932.56	222.38
932.86	222.39
933.16	222.38
933.46	222.37
933.76	222.35
934.06	222.37
934.36	222.40
934.66	222.40
934.96	222.38
935.26	222.39
935.56	222.40
935.86	222.37
936.16	222.35
936.46	222.35
936.76	222.35
937.06	222.33
937.36	222.35
937.66	222.36
937.96	222.34
938.26	222.33
938.56	222.32
938.86	222.33
939.16	222.35
939.46	222.37
939.76	222.37
940.06	222.38
940.35	222.36
940.65	222.31
940.95	222.32
941.25	222.29
941.55	222.28
941.85	222.27
942.15	222.30
942.45	222.32
942.75	222.32
943.04	222.33
943.34	222.35
943.64	222.33
943.94	222.32
944.24	222.32
944.54	222.32
944.84	222.32
945.13	222.31
945.43	222.29
945.73	222.28
946.03	222.27
946.33	222.25
946.62	222.24
946.92	222.24
947.22	222.25
947.52	222.26
947.82	222.27
948.11	222.27
948.41	222.24
948.71	222.21
949.01	222.22
949.31	222.21
949.60	222.20
949.90	222.22
950.20	222.22
950.50	222.22
950.79	222.21
951.09	222.24
951.39	222.23
951.69	222.22
951.98	222.23
952.28	222.24
952.58	222.24
952.87	222.24
953.17	222.25
953.47	222.23
953.76	222.23
954.06	222.20
954.36	222.19
954.66	222.19
954.95	222.22
955.25	222.23
955.55	222.23
955.84	222.22
956.14	222.23
956.44	222.23
956.73	222.21
957.03	222.22
957.32	222.21
957.62	222.21
957.92	222.23
958.21	222.22
958.51	222.34
958.81	222.36
959.10	222.37
959.40	222.38
959.69	222.39
959.99	222.41
960.29	222.41
960.58	222.41
960.88	222.45
961.17	222.43
961.47	222.43
961.76	222.42
962.06	222.43
962.36	222.42
962.65	222.43
962.95	222.44
963.24	222.43
963.54	222.43
963.83	222.43
964.13	222.43
964.42	222.42
964.72	222.33
965.01	222.33
965.31	222.32
965.60	222.29
965.90	222.35
966.19	222.33
966.49	222.34
966.78	222.33
967.08	222.33
967.37	222.32
967.67	222.31
967.96	222.32
968.26	222.31
968.55	222.32
968.85	222.31
969.14	222.31
969.43	222.31
969.73	222.30
970.02	222.30
970.32	222.29
970.61	222.27
970.91	222.24
971.20	222.23
971.49	222.23
971.79	222.24
972.08	222.16
972.38	222.18
972.67	222.17
972.96	222.19
973.26	222.17
973.55	222.20
973.85	222.20
974.14	222.19
974.43	222.20
974.73	222.18
975.02	222.18
975.31	222.18
975.61	222.18
975.90	222.17
976.19	222.16
976.49	222.17
976.78	222.18
977.07	222.18
977.37	222.19
977.66	222.20
977.95	222.18
978.24	222.20
978.54	222.22
978.83	222.20
979.12	222.20
979.42	222.20
979.71	222.19
980.00	222.18
980.29	222.19
980.59	222.17
980.88	222.20
981.17	222.20
981.46	222.20
981.76	222.20
982.05	222.23
982.34	222.24
982.63	222.24
982.93	222.25
983.22	222.26
983.51	222.27
983.80	222.28
984.09	222.30
984.39	222.29
984.68	222.28
984.97	222.30
985.26	222.29
985.55	222.29
985.85	222.27
986.14	222.29
986.43	222.30
986.72	222.29
987.01	222.26
987.30	222.27
987.59	222.26
987.89	222.26
988.18	222.23
988.47	222.22
988.76	222.21
989.05	222.19
989.34	222.18
989.63	222.21
989.92	222.18
990.22	222.16
990.51	222.16
990.80	222.15
991.09	222.15
991.38	222.16
991.67	222.15
991.96	222.15
992.25	222.15
992.54	222.13
992.83	222.13
993.12	222.13
993.41	222.14
993.70	222.19
993.99	222.20
994.28	222.22
994.58	222.23
994.87	222.23
995.16	222.22
995.45	222.21
995.74	222.17
996.03	222.19
996.32	222.21
996.61	222.23
996.90	222.23
997.19	222.22
997.48	222.21
997.77	222.20
998.06	222.20
998.34	222.20
998.63	222.19
998.92	222.20
999.21	222.21
999.50	222.21
999.79	222.18
1000.08	222.17
1000.37	222.17
1000.66	222.15
1000.95	222.18
1001.24	222.20
1001.53	222.22
1001.82	222.22
1002.11	222.19
1002.40	222.20
1002.68	222.22
1002.97	222.29
1003.26	222.28
1003.55	222.26
1003.84	222.28
1004.13	222.31
1004.42	222.30
1004.71	222.31
1004.99	222.30
1005.28	222.32
1005.57	222.30
1005.86	222.29
1006.15	222.29
1006.44	222.27
1006.72	222.29
1007.01	222.26
1007.30	222.26
1007.59	222.24
1007.88	222.24
1008.17	222.25
1008.45	222.22
1008.74	222.18
1009.03	222.13
1009.32	222.13
1009.60	222.14
1009.89	222.13
1010.18	222.09
1010.47	222.09
1010.76	222.09
1011.04	222.09
1011.33	222.09
1011.62	222.09
1011.91	222.10
1012.19	222.10
1012.48	222.11
1012.77	222.10
1013.05	222.14
1013.34	222.13
1013.63	222.13
1013.92	222.13
1014.20	222.13
1014.49	222.14
1014.78	222.15
1015.06	222.12
1015.35	222.12
1015.64	222.14
1015.92	222.16
1016.21	222.16
1016.50	222.17
1016.78	222.18
1017.07	222.18
1017.36	222.17
1017.64	222.15
1017.93	222.16
1018.22	222.16
1018.50	222.15
1018.79	222.16
1019.08	222.12
1019.36	222.13
1019.65	222.12
1019.93	222.15
1020.22	222.16
1020.51	222.21
1020.79	222.20
1021.08	222.10
1021.36	221.98
1021.65	222.17
1021.94	222.08
1022.22	222.26
1022.51	221.86
1022.79	222.63
1023.08	222.20
1023.36	223.31
1023.65	221.95
>>>>>End Processed Spectral Data<<<<<
