SpectraSuite Data File
++++++++++++++++++++++++++++++++++++
Date: Wed Sep 30 14:28:39 EDT 2015
User: lab3
Dark Spectrum Present: No
Reference Spectrum Present: No
Number of Sampled Component Spectra: 1
Spectrometers: USB2E7196
Integration Time (usec): 36000 (USB2E7196)
Spectra Averaged: 1500 (USB2E7196)
Boxcar Smoothing: 10 (USB2E7196)
Correct for Electrical Dark: No (USB2E7196)
Strobe/Lamp Enabled: No (USB2E7196)
Correct for Detector Non-linearity: No (USB2E7196)
Correct for Stray Light: No (USB2E7196)
Number of Pixels in Processed Spectrum: 2048
>>>>>Begin Processed Spectral Data<<<<<
339.09	0.00
339.48	211.26
339.86	212.77
340.24	214.14
340.63	215.40
341.01	218.43
341.39	218.07
341.78	219.50
342.16	220.73
342.54	221.24
342.93	209.77
343.31	220.38
343.69	220.91
344.07	221.38
344.46	221.80
344.84	222.19
345.22	222.43
345.60	222.69
345.99	222.88
346.37	223.02
346.75	223.13
347.13	223.21
347.52	223.27
347.90	223.35
348.28	223.38
348.66	223.44
349.05	223.44
349.43	223.48
349.81	223.55
350.19	223.60
350.57	223.68
350.96	223.76
351.34	223.85
351.72	223.95
352.10	224.06
352.48	224.13
352.87	224.20
353.25	224.26
353.63	224.33
354.01	224.39
354.39	224.46
354.77	224.54
355.15	224.64
355.54	224.69
355.92	224.73
356.30	224.82
356.68	224.96
357.06	225.03
357.44	225.09
357.82	225.14
358.20	225.25
358.58	225.31
358.97	225.37
359.35	225.45
359.73	225.52
360.11	225.57
360.49	225.64
360.87	225.69
361.25	225.74
361.63	225.82
362.01	225.87
362.39	225.91
362.77	225.96
363.15	225.99
363.53	226.02
363.91	226.06
364.29	226.08
364.67	225.99
365.05	226.01
365.43	226.05
365.81	226.07
366.19	226.08
366.57	226.12
366.95	226.13
367.33	226.10
367.71	226.09
368.09	226.10
368.47	226.09
368.85	226.07
369.23	226.09
369.61	226.03
369.99	226.05
370.37	226.04
370.75	226.09
371.13	226.05
371.51	226.02
371.89	226.00
372.27	225.97
372.65	225.95
373.03	225.91
373.41	225.87
373.78	225.82
374.16	225.73
374.54	225.64
374.92	225.60
375.30	225.56
375.68	225.49
376.06	225.44
376.44	225.38
376.82	225.34
377.19	225.28
377.57	225.22
377.95	225.13
378.33	225.06
378.71	224.92
379.09	224.87
379.47	224.83
379.84	224.76
380.22	224.70
380.60	224.63
380.98	224.57
381.36	224.52
381.73	224.45
382.11	224.43
382.49	224.39
382.87	224.33
383.25	224.28
383.62	224.35
384.00	224.29
384.38	224.25
384.76	224.22
385.13	224.21
385.51	224.17
385.89	224.12
386.27	224.09
386.64	224.06
387.02	224.01
387.40	223.97
387.78	223.96
388.15	223.92
388.53	223.88
388.91	223.86
389.29	223.83
389.66	223.82
390.04	223.78
390.42	223.77
390.79	223.75
391.17	223.73
391.55	223.60
391.92	223.58
392.30	223.58
392.68	223.54
393.05	223.52
393.43	223.52
393.81	223.53
394.18	223.52
394.56	223.52
394.94	223.55
395.31	223.54
395.69	223.57
396.06	223.59
396.44	223.62
396.82	223.63
397.19	223.70
397.57	223.71
397.95	223.74
398.32	223.74
398.70	223.77
399.07	223.83
399.45	223.85
399.82	223.90
400.20	223.93
400.58	223.99
400.95	224.01
401.33	224.08
401.70	224.21
402.08	224.30
402.45	224.38
402.83	224.49
403.20	224.59
403.58	224.68
403.95	224.80
404.33	224.94
404.71	225.06
405.08	225.24
405.46	225.38
405.83	225.54
406.21	225.73
406.58	225.92
406.96	226.10
407.33	226.32
407.70	226.56
408.08	226.89
408.45	227.17
408.83	227.48
409.20	227.76
409.58	228.02
409.95	228.36
410.33	228.72
410.70	229.08
411.08	229.48
411.45	229.92
411.82	230.37
412.20	230.87
412.57	231.48
412.95	231.95
413.32	232.58
413.69	233.22
414.07	233.89
414.44	234.61
414.82	235.37
415.19	236.24
415.56	237.13
415.94	238.06
416.31	239.10
416.68	240.14
417.06	241.36
417.43	242.48
417.81	243.79
418.18	245.12
418.55	246.57
418.93	248.09
419.30	249.66
419.67	251.34
420.04	253.07
420.42	254.88
420.79	256.96
421.16	259.07
421.54	261.22
421.91	263.46
422.28	265.79
422.66	268.30
423.03	270.70
423.40	273.22
423.77	275.92
424.15	278.69
424.52	281.57
424.89	284.69
425.26	287.78
425.64	290.66
426.01	293.90
426.38	297.21
426.75	300.63
427.13	304.14
427.50	307.80
427.87	311.62
428.24	315.47
428.61	319.18
428.99	323.16
429.36	327.53
429.73	331.70
430.10	335.87
430.47	340.13
430.85	344.50
431.22	349.16
431.59	353.95
431.96	358.63
432.33	363.84
432.70	368.78
433.08	374.60
433.45	380.09
433.82	385.49
434.19	391.56
434.56	397.50
434.93	403.22
435.30	408.90
435.68	415.26
436.05	421.47
436.42	427.69
436.79	433.36
437.16	439.50
437.53	446.06
437.90	452.59
438.27	458.99
438.64	465.90
439.01	472.15
439.38	477.87
439.75	483.37
440.13	489.58
440.50	495.48
440.87	500.18
441.24	505.30
441.61	510.91
441.98	515.01
442.35	519.93
442.72	524.97
443.09	529.73
443.46	532.76
443.83	535.03
444.20	536.89
444.57	539.63
444.94	541.20
445.31	542.86
445.68	544.30
446.05	545.34
446.42	545.11
446.79	544.81
447.16	544.52
447.53	544.27
447.90	542.37
448.27	540.59
448.64	537.80
449.01	535.97
449.37	532.07
449.74	528.49
450.11	523.89
450.48	518.80
450.85	513.72
451.22	509.42
451.59	505.13
451.96	501.27
452.33	495.65
452.70	490.64
453.07	484.55
453.43	478.44
453.80	472.53
454.17	466.83
454.54	461.52
454.91	455.54
455.28	449.93
455.65	444.65
456.02	439.02
456.38	434.50
456.75	428.64
457.12	423.95
457.49	419.22
457.86	414.69
458.23	410.72
458.59	406.35
458.96	401.85
459.33	397.94
459.70	393.95
460.07	390.92
460.43	387.36
460.80	384.00
461.17	381.08
461.54	377.90
461.91	374.93
462.27	371.90
462.64	369.44
463.01	366.60
463.38	363.74
463.74	361.16
464.11	358.86
464.48	356.78
464.85	354.53
465.21	352.78
465.58	350.86
465.95	348.65
466.32	346.91
466.68	345.21
467.05	343.47
467.42	341.78
467.78	339.97
468.15	338.28
468.52	337.05
468.88	335.39
469.25	333.90
469.62	332.72
469.98	331.44
470.35	330.30
470.72	329.29
471.08	328.26
471.45	327.39
471.82	326.42
472.18	325.40
472.55	324.75
472.92	323.96
473.28	323.34
473.65	322.72
474.02	322.12
474.38	321.61
474.75	321.32
475.11	320.92
475.48	320.78
475.85	320.60
476.21	320.56
476.58	320.58
476.94	320.78
477.31	320.90
477.67	321.05
478.04	321.32
478.41	321.64
478.77	322.09
479.14	322.43
479.50	322.99
479.87	323.69
480.23	324.39
480.60	325.10
480.96	325.81
481.33	326.78
481.69	327.74
482.06	328.70
482.42	329.64
482.79	330.75
483.15	332.02
483.52	333.46
483.88	334.85
484.25	336.32
484.61	337.84
484.98	339.49
485.34	341.33
485.71	343.23
486.07	345.28
486.44	347.33
486.80	349.58
487.17	351.87
487.53	354.40
487.90	357.01
488.26	359.81
488.62	362.78
488.99	365.80
489.35	368.94
489.72	372.35
490.08	375.89
490.44	379.55
490.81	383.38
491.17	387.29
491.54	391.45
491.90	395.70
492.26	400.27
492.63	405.07
492.99	410.07
493.36	415.23
493.72	420.69
494.08	426.29
494.45	432.18
494.81	438.30
495.17	444.50
495.54	451.14
495.90	458.09
496.26	465.18
496.63	472.46
496.99	480.04
497.35	487.91
497.72	496.08
498.08	504.47
498.44	513.07
498.80	522.21
499.17	531.65
499.53	541.39
499.89	551.39
500.26	561.57
500.62	571.97
500.98	583.02
501.34	594.18
501.71	605.84
502.07	617.74
502.43	630.07
502.79	642.85
503.16	655.93
503.52	669.14
503.88	682.81
504.24	696.86
504.60	711.10
504.97	725.81
505.33	740.85
505.69	756.62
506.05	772.71
506.41	788.93
506.78	805.43
507.14	822.47
507.50	839.84
507.86	857.58
508.22	875.59
508.59	893.70
508.95	912.40
509.31	931.61
509.67	951.55
510.03	971.64
510.39	991.79
510.75	1012.11
511.12	1032.82
511.48	1053.69
511.84	1074.90
512.20	1096.37
512.56	1118.66
512.92	1141.07
513.28	1163.44
513.64	1186.10
514.00	1209.12
514.37	1232.66
514.73	1256.17
515.09	1279.49
515.45	1303.00
515.81	1326.78
516.17	1350.71
516.53	1374.48
516.89	1398.09
517.25	1421.65
517.61	1445.41
517.97	1469.51
518.33	1493.61
518.69	1517.83
519.05	1542.31
519.41	1566.81
519.77	1591.66
520.13	1615.81
520.49	1639.94
520.85	1664.06
521.21	1688.14
521.57	1712.81
521.93	1736.61
522.29	1760.85
522.65	1784.97
523.01	1809.07
523.37	1832.66
523.73	1856.84
524.09	1880.78
524.45	1904.77
524.81	1928.57
525.17	1951.89
525.53	1974.98
525.89	1997.95
526.25	2020.91
526.61	2042.48
526.97	2064.41
527.33	2086.07
527.68	2107.75
528.04	2129.06
528.40	2150.25
528.76	2171.12
529.12	2191.34
529.48	2212.16
529.84	2230.90
530.20	2250.16
530.56	2268.88
530.91	2288.26
531.27	2306.97
531.63	2325.03
531.99	2342.61
532.35	2359.77
532.71	2377.78
533.07	2395.91
533.42	2412.36
533.78	2429.33
534.14	2446.82
534.50	2463.35
534.86	2480.43
535.21	2495.27
535.57	2510.23
535.93	2524.70
536.29	2538.53
536.65	2551.80
537.00	2563.89
537.36	2577.09
537.72	2589.06
538.08	2601.04
538.44	2611.66
538.79	2621.75
539.15	2630.84
539.51	2639.92
539.87	2647.93
540.22	2653.50
540.58	2659.23
540.94	2665.70
541.29	2671.09
541.65	2676.14
542.01	2680.93
542.37	2683.53
542.72	2687.88
543.08	2691.12
543.44	2694.01
543.79	2696.31
544.15	2698.11
544.51	2699.56
544.87	2700.94
545.22	2701.70
545.58	2701.36
545.94	2701.05
546.29	2699.69
546.65	2698.54
547.01	2697.21
547.36	2696.39
547.72	2695.93
548.07	2694.16
548.43	2690.96
548.79	2687.29
549.14	2683.83
549.50	2680.42
549.86	2677.01
550.21	2672.25
550.57	2667.95
550.92	2662.46
551.28	2656.90
551.64	2651.27
551.99	2645.74
552.35	2639.03
552.70	2632.73
553.06	2627.20
553.41	2621.12
553.77	2614.91
554.13	2608.70
554.48	2601.08
554.84	2592.66
555.19	2584.09
555.55	2575.02
555.90	2567.09
556.26	2559.45
556.61	2550.77
556.97	2540.75
557.32	2530.94
557.68	2521.22
558.03	2511.19
558.39	2502.07
558.74	2493.58
559.10	2483.80
559.45	2473.86
559.81	2464.38
560.16	2454.28
560.52	2443.71
560.87	2433.54
561.23	2422.72
561.58	2412.49
561.94	2402.25
562.29	2391.46
562.64	2381.28
563.00	2371.17
563.35	2360.92
563.71	2349.79
564.06	2339.01
564.42	2328.61
564.77	2318.02
565.12	2307.41
565.48	2296.29
565.83	2284.73
566.19	2273.05
566.54	2261.95
566.89	2249.96
567.25	2237.93
567.60	2226.95
567.96	2215.40
568.31	2202.88
568.66	2190.92
569.02	2179.01
569.37	2167.58
569.72	2156.95
570.08	2145.19
570.43	2133.21
570.78	2120.97
571.14	2108.82
571.49	2096.20
571.84	2083.83
572.20	2070.59
572.55	2057.45
572.90	2044.96
573.26	2032.76
573.61	2019.60
573.96	2006.86
574.31	1994.57
574.67	1982.31
575.02	1968.95
575.37	1955.68
575.72	1942.74
576.08	1929.86
576.43	1916.52
576.78	1903.04
577.13	1889.36
577.49	1876.06
577.84	1862.96
578.19	1849.82
578.54	1836.40
578.90	1822.86
579.25	1809.05
579.60	1796.51
579.95	1783.97
580.30	1771.17
580.66	1757.88
581.01	1744.70
581.36	1731.14
581.71	1718.11
582.06	1705.20
582.42	1692.58
582.77	1680.00
583.12	1667.76
583.47	1655.73
583.82	1643.24
584.17	1630.07
584.53	1617.21
584.88	1604.56
585.23	1591.72
585.58	1579.04
585.93	1566.69
586.28	1554.90
586.63	1543.08
586.98	1530.68
587.34	1518.48
587.69	1505.74
588.04	1493.52
588.39	1481.68
588.74	1469.62
589.09	1457.92
589.44	1445.47
589.79	1433.26
590.14	1421.22
590.49	1409.07
590.84	1397.01
591.19	1385.68
591.54	1374.39
591.89	1362.77
592.25	1351.62
592.60	1340.20
592.95	1329.09
593.30	1317.92
593.65	1306.89
594.00	1295.96
594.35	1285.54
594.70	1274.36
595.05	1264.09
595.40	1253.38
595.75	1242.58
596.10	1232.37
596.45	1221.81
596.80	1211.97
597.15	1202.25
597.50	1192.52
597.85	1183.15
598.19	1173.73
598.54	1163.94
598.89	1154.76
599.24	1145.96
599.59	1137.02
599.94	1128.67
600.29	1119.97
600.64	1111.37
600.99	1102.09
601.34	1093.38
601.69	1084.47
602.04	1076.44
602.39	1067.99
602.74	1060.15
603.08	1052.49
603.43	1044.58
603.78	1036.62
604.13	1028.75
604.48	1020.69
604.83	1012.84
605.18	1004.83
605.53	996.68
605.87	988.66
606.22	980.95
606.57	972.95
606.92	964.85
607.27	956.94
607.62	949.28
607.96	941.75
608.31	935.22
608.66	928.39
609.01	921.55
609.36	914.67
609.70	907.82
610.05	900.81
610.40	893.87
610.75	886.81
611.10	880.24
611.44	873.37
611.79	866.83
612.14	860.11
612.49	853.30
612.83	847.06
613.18	840.92
613.53	834.79
613.88	828.79
614.22	823.01
614.57	817.04
614.92	811.16
615.27	805.28
615.61	799.01
615.96	792.82
616.31	786.90
616.65	780.76
617.00	774.74
617.35	768.73
617.70	762.87
618.04	757.19
618.39	751.29
618.74	745.75
619.08	740.08
619.43	734.58
619.78	729.17
620.12	723.54
620.47	718.11
620.82	712.70
621.16	707.40
621.51	702.00
621.85	696.64
622.20	691.22
622.55	685.85
622.89	680.59
623.24	675.52
623.59	670.48
623.93	665.72
624.28	661.08
624.62	656.43
624.97	651.74
625.32	647.08
625.66	642.24
626.01	637.44
626.35	632.74
626.70	628.02
627.04	623.62
627.39	619.23
627.73	614.81
628.08	610.48
628.43	606.12
628.77	601.86
629.12	597.64
629.46	593.57
629.81	589.43
630.15	585.35
630.50	581.34
630.84	577.35
631.19	573.44
631.53	569.63
631.88	565.80
632.22	561.91
632.57	558.30
632.91	554.73
633.26	551.14
633.60	547.57
633.95	544.12
634.29	540.53
634.64	537.01
634.98	533.39
635.32	529.88
635.67	526.63
636.01	523.34
636.36	520.08
636.70	516.97
637.05	513.87
637.39	510.77
637.73	507.49
638.08	504.34
638.42	501.24
638.77	498.00
639.11	494.68
639.45	491.53
639.80	488.31
640.14	485.28
640.49	482.25
640.83	479.20
641.17	476.19
641.52	473.20
641.86	470.16
642.20	467.29
642.55	464.29
642.89	461.30
643.23	458.46
643.58	455.81
643.92	453.03
644.26	450.33
644.61	447.68
644.95	445.06
645.29	442.36
645.64	439.58
645.98	436.93
646.32	434.42
646.66	431.89
647.01	429.43
647.35	427.07
647.69	424.57
648.04	422.19
648.38	419.79
648.72	417.41
649.06	415.10
649.41	412.86
649.75	410.65
650.09	408.38
650.43	406.16
650.78	403.89
651.12	401.62
651.46	399.43
651.80	397.31
652.14	395.27
652.49	393.24
652.83	391.25
653.17	389.30
653.51	387.42
653.85	385.58
654.20	383.67
654.54	381.67
654.88	379.76
655.22	377.91
655.56	376.11
655.90	374.35
656.25	372.61
656.59	370.85
656.93	369.20
657.27	367.63
657.61	365.95
657.95	364.34
658.29	362.77
658.64	361.20
658.98	359.55
659.32	357.88
659.66	356.33
660.00	354.82
660.34	353.30
660.68	351.77
661.02	350.18
661.36	348.66
661.70	347.19
662.05	345.80
662.39	344.39
662.73	343.04
663.07	341.73
663.41	340.47
663.75	339.18
664.09	337.91
664.43	336.55
664.77	335.24
665.11	333.88
665.45	332.60
665.79	331.34
666.13	330.15
666.47	328.98
666.81	327.75
667.15	326.47
667.49	325.29
667.83	324.14
668.17	323.02
668.51	321.92
668.85	320.85
669.19	319.79
669.53	318.65
669.87	317.47
670.21	316.36
670.55	315.26
670.89	314.24
671.23	313.19
671.57	312.17
671.91	311.22
672.25	310.32
672.58	309.41
672.92	308.46
673.26	307.55
673.60	306.64
673.94	305.75
674.28	304.92
674.62	304.04
674.96	303.13
675.30	302.30
675.64	301.45
675.97	300.60
676.31	299.75
676.65	298.95
676.99	298.23
677.33	297.40
677.67	296.60
678.01	295.73
678.34	294.93
678.68	294.18
679.02	293.40
679.36	292.62
679.70	291.82
680.04	291.07
680.37	290.30
680.71	289.57
681.05	288.87
681.39	288.16
681.73	287.45
682.06	286.75
682.40	286.04
682.74	285.38
683.08	284.72
683.42	284.05
683.75	283.41
684.09	282.71
684.43	282.07
684.77	281.42
685.10	280.82
685.44	280.20
685.78	279.58
686.12	279.00
686.45	278.39
686.79	277.77
687.13	277.17
687.46	276.55
687.80	275.97
688.14	275.35
688.48	274.78
688.81	274.19
689.15	273.67
689.49	273.08
689.82	272.50
690.16	271.86
690.50	271.28
690.83	270.71
691.17	270.13
691.51	269.59
691.84	269.06
692.18	268.50
692.52	267.95
692.85	267.41
693.19	266.90
693.52	266.38
693.86	265.86
694.20	265.35
694.53	264.86
694.87	264.34
695.21	263.84
695.54	263.33
695.88	262.82
696.21	262.29
696.55	261.82
696.88	261.34
697.22	260.90
697.56	260.46
697.89	260.00
698.23	259.57
698.56	259.12
698.90	258.71
699.23	258.30
699.57	257.89
699.90	257.47
700.24	257.04
700.58	256.64
700.91	256.27
701.25	255.96
701.58	255.59
701.92	255.24
702.25	254.87
702.59	254.47
702.92	254.12
703.26	253.74
703.59	253.37
703.93	253.10
704.26	252.76
704.60	252.39
704.93	252.03
705.26	251.67
705.60	251.34
705.93	250.98
706.27	250.67
706.60	250.38
706.94	250.08
707.27	249.73
707.61	249.40
707.94	249.05
708.27	248.64
708.61	248.30
708.94	247.98
709.28	247.67
709.61	247.38
709.94	247.10
710.28	246.83
710.61	246.57
710.95	246.21
711.28	246.01
711.61	245.74
711.95	245.50
712.28	245.22
712.61	244.94
712.95	244.73
713.28	244.50
713.61	244.20
713.95	243.91
714.28	243.67
714.61	243.41
714.95	243.17
715.28	242.92
715.61	242.68
715.95	242.45
716.28	242.23
716.61	242.04
716.95	241.82
717.28	241.59
717.61	241.36
717.94	241.15
718.28	240.87
718.61	240.66
718.94	240.43
719.27	240.23
719.61	240.06
719.94	239.85
720.27	239.61
720.60	239.42
720.94	239.23
721.27	239.05
721.60	238.90
721.93	238.72
722.27	238.59
722.60	238.44
722.93	238.25
723.26	238.08
723.59	237.87
723.93	237.70
724.26	237.55
724.59	237.38
724.92	237.22
725.25	237.09
725.59	236.93
725.92	236.80
726.25	236.65
726.58	236.51
726.91	236.36
727.24	236.23
727.57	236.09
727.91	235.94
728.24	235.81
728.57	235.65
728.90	235.53
729.23	235.35
729.56	235.27
729.89	235.14
730.22	235.01
730.55	234.89
730.89	234.76
731.22	234.63
731.55	234.51
731.88	234.39
732.21	234.25
732.54	234.13
732.87	234.01
733.20	233.91
733.53	233.79
733.86	233.68
734.19	233.55
734.52	233.46
734.85	233.44
735.18	233.33
735.51	233.25
735.84	233.16
736.17	233.09
736.50	232.92
736.83	232.94
737.16	232.84
737.49	232.75
737.82	232.65
738.15	232.58
738.48	232.49
738.81	232.41
739.14	232.29
739.47	232.19
739.80	232.10
740.13	232.01
740.46	231.91
740.79	231.79
741.12	231.70
741.45	231.57
741.78	231.41
742.11	231.35
742.44	231.23
742.77	231.15
743.10	231.05
743.43	230.97
743.75	230.78
744.08	230.86
744.41	230.77
744.74	230.69
745.07	230.58
745.40	230.51
745.73	230.47
746.06	230.41
746.39	230.36
746.71	230.28
747.04	230.19
747.37	230.12
747.70	230.08
748.03	230.02
748.36	229.98
748.68	229.92
749.01	229.82
749.34	229.77
749.67	229.70
750.00	229.66
750.33	229.67
750.65	229.60
750.98	229.39
751.31	229.34
751.64	229.29
751.97	229.28
752.29	229.21
752.62	229.10
752.95	229.04
753.28	228.96
753.60	228.89
753.93	228.85
754.26	228.81
754.59	228.71
754.91	228.64
755.24	228.57
755.57	228.55
755.90	228.50
756.22	228.43
756.55	228.36
756.88	228.27
757.20	228.15
757.53	228.07
757.86	228.01
758.19	227.96
758.51	227.91
758.84	227.80
759.17	227.74
759.49	227.69
759.82	227.69
760.15	227.65
760.47	227.60
760.80	227.52
761.13	227.49
761.45	227.45
761.78	227.40
762.11	227.36
762.43	227.26
762.76	227.21
763.08	227.17
763.41	227.13
763.74	227.10
764.06	227.04
764.39	227.00
764.71	226.96
765.04	226.90
765.37	226.85
765.69	226.82
766.02	226.77
766.34	226.73
766.67	226.65
767.00	226.63
767.32	226.65
767.65	226.68
767.97	226.63
768.30	226.59
768.62	226.56
768.95	226.51
769.27	226.47
769.60	226.46
769.92	226.40
770.25	226.35
770.57	226.30
770.90	226.28
771.22	226.24
771.55	226.20
771.87	226.18
772.20	226.16
772.52	226.21
772.85	226.31
773.17	226.27
773.50	226.23
773.82	226.18
774.15	226.10
774.47	226.00
774.80	225.96
775.12	225.94
775.45	225.91
775.77	225.89
776.09	225.87
776.42	225.84
776.74	225.84
777.07	225.82
777.39	225.80
777.72	225.76
778.04	225.75
778.36	225.71
778.69	225.69
779.01	225.68
779.33	225.58
779.66	225.43
779.98	225.41
780.31	225.40
780.63	225.42
780.95	225.41
781.28	225.39
781.60	225.36
781.92	225.35
782.25	225.33
782.57	225.32
782.89	225.29
783.22	225.26
783.54	225.22
783.86	225.21
784.19	225.18
784.51	225.21
784.83	225.17
785.16	225.15
785.48	225.13
785.80	225.11
786.12	225.10
786.45	225.08
786.77	225.08
787.09	225.05
787.42	225.00
787.74	224.98
788.06	224.98
788.38	224.96
788.71	224.93
789.03	224.92
789.35	224.92
789.67	224.89
789.99	224.89
790.32	224.86
790.64	224.86
790.96	224.95
791.28	224.90
791.61	224.88
791.93	224.88
792.25	224.87
792.57	224.93
792.89	224.90
793.21	224.88
793.54	224.86
793.86	224.84
794.18	224.84
794.50	224.80
794.82	224.80
795.14	224.80
795.47	224.80
795.79	224.79
796.11	224.75
796.43	224.73
796.75	224.72
797.07	224.71
797.39	224.70
797.71	224.60
798.04	224.59
798.36	224.58
798.68	224.56
799.00	224.55
799.32	224.48
799.64	224.49
799.96	224.48
800.28	224.49
800.60	224.47
800.92	224.47
801.24	224.46
801.56	224.45
801.89	224.43
802.21	224.43
802.53	224.40
802.85	224.41
803.17	224.45
803.49	224.42
803.81	224.40
804.13	224.40
804.45	224.38
804.77	224.38
805.09	224.37
805.41	224.36
805.73	224.33
806.05	224.30
806.37	224.28
806.69	224.26
807.01	224.25
807.33	224.25
807.65	224.20
807.97	224.24
808.28	224.22
808.60	224.21
808.92	224.18
809.24	224.24
809.56	224.21
809.88	224.16
810.20	224.18
810.52	224.19
810.84	224.16
811.16	224.14
811.48	224.12
811.80	224.16
812.12	224.15
812.43	224.17
812.75	224.17
813.07	224.15
813.39	224.15
813.71	224.13
814.03	224.11
814.35	224.12
814.67	224.08
814.98	224.06
815.30	224.06
815.62	224.04
815.94	223.97
816.26	223.98
816.58	223.96
816.89	223.96
817.21	223.92
817.53	223.93
817.85	223.93
818.17	223.92
818.48	223.86
818.80	223.87
819.12	223.85
819.44	223.82
819.76	223.80
820.07	223.79
820.39	223.79
820.71	223.80
821.03	223.79
821.34	223.77
821.66	223.78
821.98	223.78
822.30	223.78
822.61	223.83
822.93	223.81
823.25	223.80
823.57	223.78
823.88	223.80
824.20	223.78
824.52	223.80
824.83	223.80
825.15	223.80
825.47	223.79
825.79	223.80
826.10	223.80
826.42	223.79
826.74	223.80
827.05	223.79
827.37	223.78
827.69	223.76
828.00	223.77
828.32	223.76
828.64	223.74
828.95	223.79
829.27	223.76
829.58	223.76
829.90	223.76
830.22	223.77
830.53	223.75
830.85	223.74
831.17	223.70
831.48	223.69
831.80	223.69
832.11	223.67
832.43	223.64
832.75	223.64
833.06	223.70
833.38	223.67
833.69	223.66
834.01	223.66
834.32	223.66
834.64	223.65
834.96	223.64
835.27	223.64
835.59	223.60
835.90	223.58
836.22	223.58
836.53	223.55
836.85	223.53
837.16	223.65
837.48	223.65
837.79	223.69
838.11	223.69
838.42	223.68
838.74	223.69
839.05	223.69
839.37	223.69
839.68	223.63
840.00	223.63
840.31	223.64
840.63	223.64
840.94	223.63
841.26	223.62
841.57	223.62
841.88	223.63
842.20	223.62
842.51	223.60
842.83	223.60
843.14	223.70
843.46	223.70
843.77	223.63
844.08	223.62
844.40	223.59
844.71	223.58
845.03	223.57
845.34	223.56
845.65	223.56
845.97	223.55
846.28	223.55
846.60	223.56
846.91	223.55
847.22	223.55
847.54	223.57
847.85	223.57
848.16	223.55
848.48	223.54
848.79	223.58
849.10	223.60
849.42	223.60
849.73	223.50
850.04	223.50
850.36	223.47
850.67	223.49
850.98	223.50
851.30	223.51
851.61	223.52
851.92	223.52
852.23	223.55
852.55	223.56
852.86	223.57
853.17	223.57
853.49	223.60
853.80	223.62
854.11	223.62
854.42	223.63
854.74	223.62
855.05	223.62
855.36	223.57
855.67	223.57
855.99	223.58
856.30	223.71
856.61	223.71
856.92	223.71
857.23	223.71
857.55	223.69
857.86	223.68
858.17	223.69
858.48	223.67
858.79	223.64
859.11	223.65
859.42	223.64
859.73	223.63
860.04	223.61
860.35	223.58
860.66	223.55
860.98	223.54
861.29	223.56
861.60	223.55
861.91	223.58
862.22	223.55
862.53	223.53
862.84	223.40
863.16	223.41
863.47	223.39
863.78	223.38
864.09	223.40
864.40	223.41
864.71	223.41
865.02	223.42
865.33	223.41
865.64	223.39
865.95	223.39
866.27	223.46
866.58	223.44
866.89	223.44
867.20	223.45
867.51	223.44
867.82	223.43
868.13	223.46
868.44	223.44
868.75	223.46
869.06	223.47
869.37	223.47
869.68	223.45
869.99	223.46
870.30	223.46
870.61	223.46
870.92	223.44
871.23	223.43
871.54	223.43
871.85	223.45
872.16	223.47
872.47	223.47
872.78	223.41
873.09	223.42
873.40	223.40
873.71	223.40
874.02	223.41
874.33	223.41
874.64	223.38
874.95	223.40
875.26	223.37
875.56	223.37
875.87	223.36
876.18	223.35
876.49	223.45
876.80	223.44
877.11	223.43
877.42	223.43
877.73	223.43
878.04	223.42
878.35	223.42
878.66	223.42
878.96	223.41
879.27	223.40
879.58	223.40
879.89	223.40
880.20	223.43
880.51	223.42
880.82	223.42
881.12	223.42
881.43	223.40
881.74	223.39
882.05	223.38
882.36	223.39
882.67	223.40
882.97	223.29
883.28	223.28
883.59	223.27
883.90	223.27
884.21	223.28
884.51	223.27
884.82	223.26
885.13	223.25
885.44	223.24
885.74	223.24
886.05	223.24
886.36	223.24
886.67	223.20
886.98	223.25
887.28	223.26
887.59	223.25
887.90	223.26
888.20	223.25
888.51	223.28
888.82	223.27
889.13	223.27
889.43	223.36
889.74	223.35
890.05	223.36
890.35	223.35
890.66	223.33
890.97	223.33
891.28	223.32
891.58	223.32
891.89	223.33
892.20	223.32
892.50	223.31
892.81	223.30
893.12	223.30
893.42	223.25
893.73	223.26
894.04	223.27
894.34	223.28
894.65	223.27
894.95	223.25
895.26	223.25
895.57	223.30
895.87	223.20
896.18	223.22
896.48	223.23
896.79	223.23
897.10	223.24
897.40	223.25
897.71	223.25
898.01	223.24
898.32	223.25
898.63	223.26
898.93	223.26
899.24	223.26
899.54	223.26
899.85	223.26
900.15	223.24
900.46	223.23
900.76	223.23
901.07	223.23
901.38	223.23
901.68	223.25
901.99	223.19
902.29	223.20
902.60	223.19
902.90	223.18
903.21	223.16
903.51	223.15
903.82	223.17
904.12	223.18
904.43	223.18
904.73	223.17
905.03	223.18
905.34	223.27
905.64	223.27
905.95	223.26
906.25	223.25
906.56	223.25
906.86	223.25
907.17	223.23
907.47	223.24
907.77	223.22
908.08	223.20
908.38	223.20
908.69	223.21
908.99	223.23
909.30	223.23
909.60	223.23
909.90	223.24
910.21	223.20
910.51	223.17
910.81	223.17
911.12	223.17
911.42	223.16
911.73	223.05
912.03	223.07
912.33	223.08
912.64	223.08
912.94	223.07
913.24	223.06
913.55	223.06
913.85	223.04
914.15	223.06
914.46	223.08
914.76	223.07
915.06	223.05
915.37	223.02
915.67	223.02
915.97	223.03
916.27	223.01
916.58	223.02
916.88	223.02
917.18	223.01
917.49	223.09
917.79	223.08
918.09	223.10
918.39	223.12
918.70	223.11
919.00	223.13
919.30	223.18
919.60	223.17
919.91	223.16
920.21	223.18
920.51	223.16
920.81	223.14
921.12	223.15
921.42	223.15
921.72	223.16
922.02	223.15
922.32	223.17
922.63	223.17
922.93	223.23
923.23	223.24
923.53	223.24
923.83	223.18
924.13	223.19
924.44	223.18
924.74	223.20
925.04	223.22
925.34	223.21
925.64	223.17
925.94	223.17
926.24	223.24
926.55	223.22
926.85	223.23
927.15	223.24
927.45	223.25
927.75	223.25
928.05	223.25
928.35	223.25
928.65	223.26
928.95	223.27
929.26	223.23
929.56	223.24
929.86	223.25
930.16	223.25
930.46	223.23
930.76	223.24
931.06	223.19
931.36	223.16
931.66	223.18
931.96	223.20
932.26	223.21
932.56	223.16
932.86	223.18
933.16	223.18
933.46	223.17
933.76	223.15
934.06	223.17
934.36	223.20
934.66	223.20
934.96	223.18
935.26	223.18
935.56	223.18
935.86	223.16
936.16	223.14
936.46	223.12
936.76	223.12
937.06	223.11
937.36	223.12
937.66	223.12
937.96	223.12
938.26	223.09
938.56	223.07
938.86	223.08
939.16	223.11
939.46	223.11
939.76	223.12
940.06	223.13
940.35	223.11
940.65	223.06
940.95	223.08
941.25	223.06
941.55	223.06
941.85	223.05
942.15	223.07
942.45	223.10
942.75	223.10
943.04	223.10
943.34	223.12
943.64	223.10
943.94	223.09
944.24	223.09
944.54	223.10
944.84	223.09
945.13	223.07
945.43	223.05
945.73	223.05
946.03	223.03
946.33	223.02
946.62	223.01
946.92	223.02
947.22	223.02
947.52	223.02
947.82	223.03
948.11	223.01
948.41	222.99
948.71	222.95
949.01	222.96
949.31	222.95
949.60	222.95
949.90	222.96
950.20	222.96
950.50	222.95
950.79	222.95
951.09	222.97
951.39	222.97
951.69	222.96
951.98	222.97
952.28	222.97
952.58	222.97
952.87	222.96
953.17	222.97
953.47	222.96
953.76	222.96
954.06	222.95
954.36	222.94
954.66	222.95
954.95	222.99
955.25	222.99
955.55	223.00
955.84	222.98
956.14	222.99
956.44	222.99
956.73	222.98
957.03	222.98
957.32	222.99
957.62	222.99
957.92	223.01
958.21	223.00
958.51	223.12
958.81	223.14
959.10	223.15
959.40	223.17
959.69	223.19
959.99	223.21
960.29	223.20
960.58	223.20
960.88	223.24
961.17	223.22
961.47	223.23
961.76	223.22
962.06	223.23
962.36	223.22
962.65	223.23
962.95	223.24
963.24	223.23
963.54	223.23
963.83	223.23
964.13	223.23
964.42	223.22
964.72	223.13
965.01	223.13
965.31	223.13
965.60	223.10
965.90	223.15
966.19	223.13
966.49	223.14
966.78	223.15
967.08	223.13
967.37	223.14
967.67	223.11
967.96	223.13
968.26	223.13
968.55	223.14
968.85	223.14
969.14	223.13
969.43	223.14
969.73	223.13
970.02	223.13
970.32	223.11
970.61	223.10
970.91	223.08
971.20	223.06
971.49	223.05
971.79	223.07
972.08	223.00
972.38	223.01
972.67	223.00
972.96	223.00
973.26	222.98
973.55	223.02
973.85	223.02
974.14	223.02
974.43	223.03
974.73	223.00
975.02	223.00
975.31	223.00
975.61	222.99
975.90	222.98
976.19	222.97
976.49	222.97
976.78	222.98
977.07	222.97
977.37	222.99
977.66	223.00
977.95	222.98
978.24	223.00
978.54	223.01
978.83	223.00
979.12	223.00
979.42	223.00
979.71	222.97
980.00	222.97
980.29	222.97
980.59	222.96
980.88	222.99
981.17	222.99
981.46	223.00
981.76	223.00
982.05	223.04
982.34	223.05
982.63	223.06
982.93	223.06
983.22	223.08
983.51	223.09
983.80	223.10
984.09	223.11
984.39	223.10
984.68	223.08
984.97	223.09
985.26	223.08
985.55	223.08
985.85	223.07
986.14	223.08
986.43	223.08
986.72	223.07
987.01	223.03
987.30	223.03
987.59	223.01
987.89	223.01
988.18	222.97
988.47	222.95
988.76	222.94
989.05	222.92
989.34	222.90
989.63	222.92
989.92	222.89
990.22	222.88
990.51	222.87
990.80	222.86
991.09	222.87
991.38	222.88
991.67	222.88
991.96	222.87
992.25	222.87
992.54	222.85
992.83	222.85
993.12	222.84
993.41	222.85
993.70	222.89
993.99	222.91
994.28	222.94
994.58	222.95
994.87	222.94
995.16	222.95
995.45	222.94
995.74	222.91
996.03	222.93
996.32	222.95
996.61	222.98
996.90	222.99
997.19	222.98
997.48	222.97
997.77	222.95
998.06	222.96
998.34	222.95
998.63	222.95
998.92	222.96
999.21	222.98
999.50	222.98
999.79	222.94
1000.08	222.94
1000.37	222.93
1000.66	222.93
1000.95	222.95
1001.24	222.95
1001.53	222.96
1001.82	222.95
1002.11	222.93
1002.40	222.94
1002.68	222.97
1002.97	223.03
1003.26	223.03
1003.55	223.01
1003.84	223.02
1004.13	223.06
1004.42	223.05
1004.71	223.04
1004.99	223.04
1005.28	223.05
1005.57	223.05
1005.86	223.04
1006.15	223.02
1006.44	223.00
1006.72	223.02
1007.01	223.00
1007.30	223.00
1007.59	223.00
1007.88	223.00
1008.17	223.00
1008.45	222.98
1008.74	222.93
1009.03	222.89
1009.32	222.88
1009.60	222.89
1009.89	222.88
1010.18	222.84
1010.47	222.83
1010.76	222.84
1011.04	222.84
1011.33	222.83
1011.62	222.83
1011.91	222.85
1012.19	222.84
1012.48	222.85
1012.77	222.84
1013.05	222.87
1013.34	222.87
1013.63	222.86
1013.92	222.87
1014.20	222.87
1014.49	222.87
1014.78	222.88
1015.06	222.85
1015.35	222.85
1015.64	222.87
1015.92	222.89
1016.21	222.89
1016.50	222.89
1016.78	222.90
1017.07	222.92
1017.36	222.90
1017.64	222.88
1017.93	222.89
1018.22	222.89
1018.50	222.88
1018.79	222.88
1019.08	222.84
1019.36	222.86
1019.65	222.85
1019.93	222.87
1020.22	222.87
1020.51	222.93
1020.79	222.91
1021.08	222.74
1021.36	222.58
1021.65	222.92
1021.94	222.77
1022.22	223.00
1022.51	222.72
1022.79	223.18
1023.08	222.93
1023.36	224.04
1023.65	222.58
>>>>>End Processed Spectral Data<<<<<
