SpectraSuite Data File
++++++++++++++++++++++++++++++++++++
Date: Wed Sep 30 15:04:36 EDT 2015
User: lab3
Dark Spectrum Present: No
Reference Spectrum Present: No
Number of Sampled Component Spectra: 1
Spectrometers: USB2E7196
Integration Time (usec): 36000 (USB2E7196)
Spectra Averaged: 1500 (USB2E7196)
Boxcar Smoothing: 10 (USB2E7196)
Correct for Electrical Dark: No (USB2E7196)
Strobe/Lamp Enabled: No (USB2E7196)
Correct for Detector Non-linearity: No (USB2E7196)
Correct for Stray Light: No (USB2E7196)
Number of Pixels in Processed Spectrum: 2048
>>>>>Begin Processed Spectral Data<<<<<
339.09	0.00
339.48	211.41
339.86	212.85
340.24	214.18
340.63	215.51
341.01	218.42
341.39	218.25
341.78	219.69
342.16	220.84
342.54	221.40
342.93	209.88
343.31	220.48
343.69	221.01
344.07	221.46
344.46	221.89
344.84	222.27
345.22	222.51
345.60	222.76
345.99	222.94
346.37	223.07
346.75	223.17
347.13	223.24
347.52	223.30
347.90	223.37
348.28	223.40
348.66	223.45
349.05	223.45
349.43	223.49
349.81	223.54
350.19	223.58
350.57	223.64
350.96	223.72
351.34	223.81
351.72	223.89
352.10	224.00
352.48	224.07
352.87	224.12
353.25	224.18
353.63	224.24
354.01	224.31
354.39	224.38
354.77	224.45
355.15	224.55
355.54	224.61
355.92	224.65
356.30	224.72
356.68	224.86
357.06	224.93
357.44	224.99
357.82	225.05
358.20	225.15
358.58	225.20
358.97	225.27
359.35	225.35
359.73	225.43
360.11	225.48
360.49	225.54
360.87	225.59
361.25	225.65
361.63	225.73
362.01	225.77
362.39	225.80
362.77	225.85
363.15	225.87
363.53	225.89
363.91	225.92
364.29	225.94
364.67	225.86
365.05	225.88
365.43	225.89
365.81	225.92
366.19	225.94
366.57	225.99
366.95	225.98
367.33	225.95
367.71	225.94
368.09	225.97
368.47	225.95
368.85	225.94
369.23	225.95
369.61	225.90
369.99	225.91
370.37	225.91
370.75	225.96
371.13	225.94
371.51	225.90
371.89	225.89
372.27	225.86
372.65	225.84
373.03	225.79
373.41	225.75
373.78	225.70
374.16	225.61
374.54	225.53
374.92	225.48
375.30	225.44
375.68	225.38
376.06	225.32
376.44	225.27
376.82	225.23
377.19	225.18
377.57	225.13
377.95	225.05
378.33	224.99
378.71	224.85
379.09	224.79
379.47	224.76
379.84	224.70
380.22	224.63
380.60	224.56
380.98	224.52
381.36	224.47
381.73	224.40
382.11	224.37
382.49	224.33
382.87	224.27
383.25	224.23
383.62	224.30
384.00	224.24
384.38	224.21
384.76	224.19
385.13	224.17
385.51	224.13
385.89	224.07
386.27	224.04
386.64	224.02
387.02	223.99
387.40	223.94
387.78	223.91
388.15	223.88
388.53	223.86
388.91	223.83
389.29	223.79
389.66	223.80
390.04	223.77
390.42	223.76
390.79	223.75
391.17	223.72
391.55	223.59
391.92	223.59
392.30	223.58
392.68	223.55
393.05	223.53
393.43	223.53
393.81	223.54
394.18	223.52
394.56	223.52
394.94	223.54
395.31	223.54
395.69	223.58
396.06	223.61
396.44	223.63
396.82	223.64
397.19	223.72
397.57	223.73
397.95	223.77
398.32	223.76
398.70	223.80
399.07	223.87
399.45	223.90
399.82	223.93
400.20	223.97
400.58	224.02
400.95	224.04
401.33	224.12
401.70	224.25
402.08	224.33
402.45	224.42
402.83	224.52
403.20	224.63
403.58	224.70
403.95	224.82
404.33	224.95
404.71	225.08
405.08	225.25
405.46	225.39
405.83	225.56
406.21	225.73
406.58	225.92
406.96	226.10
407.33	226.31
407.70	226.55
408.08	226.88
408.45	227.16
408.83	227.47
409.20	227.75
409.58	228.01
409.95	228.35
410.33	228.72
410.70	229.07
411.08	229.48
411.45	229.93
411.82	230.38
412.20	230.89
412.57	231.49
412.95	231.97
413.32	232.60
413.69	233.23
414.07	233.91
414.44	234.64
414.82	235.41
415.19	236.31
415.56	237.21
415.94	238.13
416.31	239.17
416.68	240.22
417.06	241.44
417.43	242.57
417.81	243.87
418.18	245.21
418.55	246.67
418.93	248.19
419.30	249.77
419.67	251.45
420.04	253.20
420.42	255.01
420.79	257.11
421.16	259.23
421.54	261.39
421.91	263.64
422.28	265.99
422.66	268.50
423.03	270.89
423.40	273.40
423.77	276.10
424.15	278.89
424.52	281.77
424.89	284.90
425.26	288.01
425.64	290.92
426.01	294.18
426.38	297.51
426.75	300.94
427.13	304.46
427.50	308.15
427.87	312.00
428.24	315.88
428.61	319.61
428.99	323.63
429.36	328.00
429.73	332.20
430.10	336.39
430.47	340.68
430.85	345.09
431.22	349.79
431.59	354.62
431.96	359.33
432.33	364.56
432.70	369.52
433.08	375.39
433.45	380.90
433.82	386.35
434.19	392.44
434.56	398.40
434.93	404.17
435.30	409.86
435.68	416.23
436.05	422.46
436.42	428.68
436.79	434.35
437.16	440.52
437.53	447.09
437.90	453.64
438.27	460.05
438.64	466.97
439.01	473.24
439.38	478.98
439.75	484.52
440.13	490.81
440.50	496.75
440.87	501.45
441.24	506.60
441.61	512.26
441.98	516.37
442.35	521.32
442.72	526.40
443.09	531.22
443.46	534.27
443.83	536.56
444.20	538.47
444.57	541.26
444.94	542.89
445.31	544.55
445.68	546.04
446.05	547.10
446.42	546.88
446.79	546.55
447.16	546.27
447.53	546.02
447.90	544.08
448.27	542.30
448.64	539.50
449.01	537.66
449.37	533.71
449.74	530.09
450.11	525.45
450.48	520.31
450.85	515.17
451.22	510.85
451.59	506.55
451.96	502.65
452.33	496.98
452.70	491.91
453.07	485.79
453.43	479.63
453.80	473.68
454.17	467.96
454.54	462.65
454.91	456.66
455.28	451.01
455.65	445.69
456.02	440.04
456.38	435.49
456.75	429.59
457.12	424.85
457.49	420.11
457.86	415.54
458.23	411.55
458.59	407.16
458.96	402.65
459.33	398.69
459.70	394.67
460.07	391.62
460.43	388.01
460.80	384.63
461.17	381.69
461.54	378.50
461.91	375.49
462.27	372.43
462.64	369.92
463.01	367.06
463.38	364.18
463.74	361.58
464.11	359.25
464.48	357.15
464.85	354.89
465.21	353.13
465.58	351.23
465.95	349.03
466.32	347.25
466.68	345.52
467.05	343.78
467.42	342.08
467.78	340.25
468.15	338.57
468.52	337.33
468.88	335.67
469.25	334.17
469.62	333.00
469.98	331.73
470.35	330.59
470.72	329.57
471.08	328.52
471.45	327.67
471.82	326.69
472.18	325.70
472.55	325.07
472.92	324.30
473.28	323.68
473.65	323.06
474.02	322.46
474.38	321.94
474.75	321.67
475.11	321.27
475.48	321.14
475.85	320.98
476.21	320.93
476.58	320.94
476.94	321.14
477.31	321.24
477.67	321.39
478.04	321.65
478.41	321.98
478.77	322.44
479.14	322.77
479.50	323.33
479.87	324.03
480.23	324.72
480.60	325.40
480.96	326.10
481.33	327.07
481.69	328.06
482.06	329.04
482.42	329.98
482.79	331.08
483.15	332.36
483.52	333.80
483.88	335.20
484.25	336.66
484.61	338.19
484.98	339.85
485.34	341.70
485.71	343.62
486.07	345.67
486.44	347.72
486.80	349.97
487.17	352.30
487.53	354.82
487.90	357.44
488.26	360.26
488.62	363.25
488.99	366.29
489.35	369.43
489.72	372.85
490.08	376.40
490.44	380.05
490.81	383.86
491.17	387.78
491.54	391.96
491.90	396.26
492.26	400.85
492.63	405.69
492.99	410.70
493.36	415.86
493.72	421.30
494.08	426.88
494.45	432.77
494.81	438.87
495.17	445.11
495.54	451.70
495.90	458.65
496.26	465.75
496.63	473.03
496.99	480.61
497.35	488.51
497.72	496.71
498.08	505.15
498.44	513.79
498.80	522.91
499.17	532.34
499.53	542.11
499.89	552.10
500.26	562.32
500.62	572.74
500.98	583.84
501.34	595.08
501.71	606.85
502.07	618.82
502.43	631.10
502.79	643.82
503.16	656.97
503.52	670.24
503.88	683.80
504.24	697.78
504.60	711.99
504.97	726.60
505.33	741.58
505.69	757.38
506.05	773.39
506.41	789.53
506.78	805.90
507.14	822.79
507.50	840.05
507.86	857.66
508.22	875.67
508.59	893.68
508.95	912.39
509.31	931.53
509.67	951.49
510.03	971.73
510.39	992.11
510.75	1012.53
511.12	1033.18
511.48	1054.21
511.84	1075.57
512.20	1097.05
512.56	1119.41
512.92	1141.97
513.28	1164.37
513.64	1187.13
514.00	1210.28
514.37	1233.87
514.73	1257.42
515.09	1280.73
515.45	1304.27
515.81	1328.30
516.17	1352.55
516.53	1376.37
516.89	1400.19
517.25	1423.87
517.61	1447.81
517.97	1471.93
518.33	1496.05
518.69	1520.45
519.05	1545.16
519.41	1569.69
519.77	1594.74
520.13	1619.14
520.49	1643.74
520.85	1668.19
521.21	1692.37
521.57	1717.20
521.93	1741.06
522.29	1765.28
522.65	1789.58
523.01	1813.79
523.37	1837.14
523.73	1861.24
524.09	1885.51
524.45	1909.52
524.81	1933.31
525.17	1956.67
525.53	1979.66
525.89	2002.37
526.25	2025.08
526.61	2046.88
526.97	2069.09
527.33	2091.05
527.68	2112.74
528.04	2133.71
528.40	2154.70
528.76	2175.82
529.12	2195.82
529.48	2216.89
529.84	2236.29
530.20	2255.83
530.56	2274.72
530.91	2294.30
531.27	2312.77
531.63	2330.66
531.99	2348.15
532.35	2365.41
532.71	2382.92
533.07	2400.90
533.42	2417.72
533.78	2435.13
534.14	2452.48
534.50	2468.86
534.86	2485.63
535.21	2500.70
535.57	2515.48
535.93	2529.66
536.29	2542.95
536.65	2556.81
537.00	2569.30
537.36	2582.32
537.72	2594.43
538.08	2606.56
538.44	2617.23
538.79	2628.19
539.15	2637.45
539.51	2646.52
539.87	2654.67
540.22	2661.07
540.58	2667.39
540.94	2674.09
541.29	2679.12
541.65	2683.35
542.01	2687.66
542.37	2690.44
542.72	2694.94
543.08	2698.81
543.44	2702.34
543.79	2704.93
544.15	2706.50
544.51	2707.82
544.87	2708.75
545.22	2709.25
545.58	2708.96
545.94	2708.77
546.29	2707.19
546.65	2706.28
547.01	2705.38
547.36	2704.75
547.72	2704.33
548.07	2702.78
548.43	2700.46
548.79	2697.32
549.14	2694.42
549.50	2691.68
549.86	2688.06
550.21	2682.53
550.57	2677.70
550.92	2671.64
551.28	2666.20
551.64	2660.48
551.99	2654.95
552.35	2648.88
552.70	2642.46
553.06	2636.60
553.41	2630.59
553.77	2623.94
554.13	2617.63
554.48	2610.72
554.84	2602.54
555.19	2593.95
555.55	2584.81
555.90	2576.21
556.26	2568.47
556.61	2559.93
556.97	2549.39
557.32	2540.03
557.68	2531.03
558.03	2521.45
558.39	2512.49
558.74	2503.63
559.10	2493.93
559.45	2483.83
559.81	2473.91
560.16	2463.56
560.52	2452.79
560.87	2442.70
561.23	2432.45
561.58	2422.04
561.94	2411.39
562.29	2400.15
562.64	2389.58
563.00	2379.13
563.35	2368.92
563.71	2357.87
564.06	2346.90
564.42	2336.79
564.77	2326.10
565.12	2315.13
565.48	2303.51
565.83	2292.52
566.19	2281.69
566.54	2270.58
566.89	2258.91
567.25	2247.59
567.60	2237.44
567.96	2226.78
568.31	2214.89
568.66	2202.88
569.02	2191.31
569.37	2179.60
569.72	2168.83
570.08	2157.64
570.43	2145.80
570.78	2133.25
571.14	2121.03
571.49	2109.19
571.84	2097.24
572.20	2084.31
572.55	2072.24
572.90	2060.18
573.26	2047.66
573.61	2034.40
573.96	2021.64
574.31	2009.03
574.67	1996.14
575.02	1982.34
575.37	1968.51
575.72	1954.94
576.08	1941.65
576.43	1927.52
576.78	1913.53
577.13	1899.80
577.49	1886.15
577.84	1873.27
578.19	1859.95
578.54	1846.22
578.90	1831.99
579.25	1817.44
579.60	1804.14
579.95	1790.30
580.30	1776.87
580.66	1763.46
581.01	1750.02
581.36	1736.43
581.71	1723.35
582.06	1710.27
582.42	1697.64
582.77	1685.14
583.12	1672.45
583.47	1660.16
583.82	1647.78
584.17	1634.86
584.53	1622.12
584.88	1609.48
585.23	1596.19
585.58	1583.51
585.93	1571.24
586.28	1559.62
586.63	1548.21
586.98	1535.83
587.34	1523.82
587.69	1511.32
588.04	1499.13
588.39	1487.30
588.74	1475.09
589.09	1463.02
589.44	1450.52
589.79	1438.45
590.14	1426.49
590.49	1414.61
590.84	1402.78
591.19	1391.69
591.54	1380.39
591.89	1368.62
592.25	1357.20
592.60	1345.54
592.95	1334.17
593.30	1322.93
593.65	1311.67
594.00	1300.58
594.35	1290.37
594.70	1279.17
595.05	1268.56
595.40	1257.75
595.75	1246.56
596.10	1236.34
596.45	1226.10
596.80	1216.46
597.15	1206.47
597.50	1196.38
597.85	1186.81
598.19	1177.24
598.54	1167.41
598.89	1158.12
599.24	1149.30
599.59	1140.29
599.94	1132.15
600.29	1123.78
600.64	1115.26
600.99	1106.10
601.34	1097.33
601.69	1088.25
602.04	1080.28
602.39	1072.21
602.74	1064.38
603.08	1056.79
603.43	1048.77
603.78	1040.75
604.13	1032.76
604.48	1024.74
604.83	1017.05
605.18	1009.08
605.53	1001.16
605.87	993.06
606.22	985.31
606.57	977.31
606.92	969.20
607.27	961.08
607.62	953.20
607.96	945.55
608.31	939.01
608.66	932.17
609.01	925.43
609.36	918.43
609.70	911.38
610.05	904.20
610.40	897.27
610.75	890.43
611.10	883.70
611.44	876.72
611.79	870.02
612.14	863.09
612.49	856.24
612.83	849.79
613.18	843.47
613.53	837.07
613.88	830.81
614.22	824.95
614.57	818.96
614.92	812.97
615.27	806.99
615.61	800.62
615.96	794.54
616.31	788.33
616.65	782.15
617.00	776.17
617.35	770.26
617.70	764.44
618.04	758.74
618.39	753.02
618.74	747.55
619.08	741.89
619.43	736.38
619.78	730.85
620.12	725.18
620.47	719.81
620.82	714.47
621.16	709.31
621.51	703.95
621.85	698.58
622.20	693.22
622.55	687.86
622.89	682.48
623.24	677.15
623.59	672.08
623.93	667.18
624.28	662.43
624.62	657.60
624.97	652.61
625.32	647.77
625.66	642.94
626.01	638.14
626.35	633.51
626.70	628.88
627.04	624.53
627.39	620.09
627.73	615.63
628.08	611.35
628.43	606.92
628.77	602.50
629.12	598.21
629.46	594.15
629.81	590.06
630.15	585.99
630.50	582.02
630.84	578.13
631.19	574.24
631.53	570.48
631.88	566.67
632.22	562.91
632.57	559.30
632.91	555.58
633.26	551.88
633.60	548.26
633.95	544.80
634.29	541.20
634.64	537.64
634.98	534.05
635.32	530.56
635.67	527.30
636.01	524.02
636.36	520.72
636.70	517.54
637.05	514.35
637.39	511.28
637.73	508.03
638.08	504.88
638.42	501.75
638.77	498.43
639.11	495.07
639.45	491.87
639.80	488.65
640.14	485.58
640.49	482.52
640.83	479.35
641.17	476.21
641.52	473.17
641.86	470.16
642.20	467.24
642.55	464.21
642.89	461.25
643.23	458.50
643.58	455.95
643.92	453.21
644.26	450.52
644.61	447.83
644.95	445.18
645.29	442.48
645.64	439.72
645.98	437.16
646.32	434.74
646.66	432.25
647.01	429.80
647.35	427.41
647.69	424.96
648.04	422.64
648.38	420.31
648.72	417.94
649.06	415.59
649.41	413.34
649.75	411.08
650.09	408.82
650.43	406.50
650.78	404.17
651.12	401.92
651.46	399.72
651.80	397.63
652.14	395.62
652.49	393.64
652.83	391.74
653.17	389.78
653.51	387.89
653.85	386.07
654.20	384.15
654.54	382.15
654.88	380.31
655.22	378.53
655.56	376.71
655.90	374.96
656.25	373.24
656.59	371.51
656.93	369.89
657.27	368.31
657.61	366.69
657.95	365.13
658.29	363.51
658.64	361.91
658.98	360.28
659.32	358.63
659.66	357.08
660.00	355.52
660.34	354.01
660.68	352.45
661.02	350.86
661.36	349.38
661.70	347.96
662.05	346.50
662.39	345.03
662.73	343.67
663.07	342.35
663.41	341.04
663.75	339.73
664.09	338.43
664.43	337.06
664.77	335.76
665.11	334.40
665.45	333.14
665.79	331.89
666.13	330.66
666.47	329.45
666.81	328.19
667.15	326.91
667.49	325.70
667.83	324.50
668.17	323.37
668.51	322.25
668.85	321.13
669.19	320.07
669.53	318.94
669.87	317.78
670.21	316.69
670.55	315.58
670.89	314.55
671.23	313.48
671.57	312.42
671.91	311.41
672.25	310.46
672.58	309.54
672.92	308.59
673.26	307.68
673.60	306.74
673.94	305.81
674.28	304.93
674.62	304.05
674.96	303.14
675.30	302.28
675.64	301.42
675.97	300.59
676.31	299.72
676.65	298.90
676.99	298.15
677.33	297.31
677.67	296.51
678.01	295.66
678.34	294.86
678.68	294.11
679.02	293.33
679.36	292.55
679.70	291.74
680.04	290.96
680.37	290.19
680.71	289.45
681.05	288.76
681.39	288.06
681.73	287.34
682.06	286.64
682.40	285.94
682.74	285.24
683.08	284.57
683.42	283.89
683.75	283.25
684.09	282.54
684.43	281.89
684.77	281.24
685.10	280.62
685.44	279.99
685.78	279.36
686.12	278.78
686.45	278.16
686.79	277.56
687.13	276.96
687.46	276.36
687.80	275.78
688.14	275.17
688.48	274.60
688.81	274.02
689.15	273.48
689.49	272.90
689.82	272.33
690.16	271.71
690.50	271.15
690.83	270.59
691.17	270.02
691.51	269.49
691.84	268.96
692.18	268.40
692.52	267.83
692.85	267.29
693.19	266.79
693.52	266.28
693.86	265.79
694.20	265.30
694.53	264.81
694.87	264.30
695.21	263.80
695.54	263.30
695.88	262.80
696.21	262.27
696.55	261.80
696.88	261.34
697.22	260.90
697.56	260.45
697.89	259.97
698.23	259.52
698.56	259.06
698.90	258.64
699.23	258.20
699.57	257.81
699.90	257.41
700.24	256.99
700.58	256.58
700.91	256.20
701.25	255.88
701.58	255.53
701.92	255.18
702.25	254.81
702.59	254.42
702.92	254.05
703.26	253.68
703.59	253.31
703.93	253.03
704.26	252.68
704.60	252.31
704.93	251.96
705.26	251.62
705.60	251.30
705.93	250.94
706.27	250.65
706.60	250.35
706.94	250.04
707.27	249.68
707.61	249.36
707.94	249.02
708.27	248.61
708.61	248.25
708.94	247.92
709.28	247.61
709.61	247.31
709.94	247.03
710.28	246.75
710.61	246.49
710.95	246.12
711.28	245.90
711.61	245.63
711.95	245.39
712.28	245.12
712.61	244.84
712.95	244.64
713.28	244.43
713.61	244.16
713.95	243.87
714.28	243.65
714.61	243.38
714.95	243.14
715.28	242.90
715.61	242.67
715.95	242.44
716.28	242.23
716.61	242.04
716.95	241.82
717.28	241.61
717.61	241.39
717.94	241.19
718.28	240.92
718.61	240.71
718.94	240.50
719.27	240.29
719.61	240.12
719.94	239.89
720.27	239.65
720.60	239.46
720.94	239.27
721.27	239.09
721.60	238.94
721.93	238.77
722.27	238.63
722.60	238.46
722.93	238.27
723.26	238.10
723.59	237.89
723.93	237.73
724.26	237.59
724.59	237.42
724.92	237.27
725.25	237.15
725.59	237.00
725.92	236.86
726.25	236.71
726.58	236.55
726.91	236.39
727.24	236.26
727.57	236.11
727.91	235.95
728.24	235.83
728.57	235.68
728.90	235.56
729.23	235.38
729.56	235.31
729.89	235.18
730.22	235.05
730.55	234.93
730.89	234.80
731.22	234.66
731.55	234.52
731.88	234.40
732.21	234.25
732.54	234.12
732.87	234.00
733.20	233.90
733.53	233.79
733.86	233.70
734.19	233.58
734.52	233.49
734.85	233.46
735.18	233.33
735.51	233.25
735.84	233.15
736.17	233.07
736.50	232.91
736.83	232.92
737.16	232.82
737.49	232.73
737.82	232.62
738.15	232.54
738.48	232.45
738.81	232.36
739.14	232.27
739.47	232.18
739.80	232.08
740.13	231.99
740.46	231.88
740.79	231.77
741.12	231.68
741.45	231.56
741.78	231.42
742.11	231.36
742.44	231.26
742.77	231.18
743.10	231.07
743.43	231.00
743.75	230.80
744.08	230.89
744.41	230.79
744.74	230.72
745.07	230.62
745.40	230.56
745.73	230.52
746.06	230.44
746.39	230.37
746.71	230.29
747.04	230.21
747.37	230.14
747.70	230.08
748.03	230.01
748.36	229.96
748.68	229.89
749.01	229.78
749.34	229.71
749.67	229.64
750.00	229.59
750.33	229.60
750.65	229.55
750.98	229.32
751.31	229.27
751.64	229.21
751.97	229.20
752.29	229.13
752.62	229.02
752.95	228.94
753.28	228.87
753.60	228.80
753.93	228.77
754.26	228.71
754.59	228.62
754.91	228.54
755.24	228.47
755.57	228.44
755.90	228.38
756.22	228.32
756.55	228.25
756.88	228.17
757.20	228.04
757.53	227.96
757.86	227.91
758.19	227.86
758.51	227.81
758.84	227.70
759.17	227.64
759.49	227.60
759.82	227.61
760.15	227.58
760.47	227.54
760.80	227.46
761.13	227.44
761.45	227.41
761.78	227.37
762.11	227.33
762.43	227.24
762.76	227.19
763.08	227.16
763.41	227.13
763.74	227.10
764.06	227.06
764.39	227.03
764.71	226.98
765.04	226.92
765.37	226.88
765.69	226.84
766.02	226.80
766.34	226.76
766.67	226.68
767.00	226.65
767.32	226.66
767.65	226.69
767.97	226.64
768.30	226.61
768.62	226.58
768.95	226.54
769.27	226.51
769.60	226.49
769.92	226.44
770.25	226.38
770.57	226.33
770.90	226.30
771.22	226.26
771.55	226.23
771.87	226.22
772.20	226.18
772.52	226.23
772.85	226.33
773.17	226.30
773.50	226.27
773.82	226.21
774.15	226.14
774.47	226.04
774.80	226.00
775.12	225.97
775.45	225.94
775.77	225.92
776.09	225.90
776.42	225.88
776.74	225.89
777.07	225.85
777.39	225.84
777.72	225.80
778.04	225.79
778.36	225.75
778.69	225.73
779.01	225.72
779.33	225.61
779.66	225.46
779.98	225.44
780.31	225.43
780.63	225.46
780.95	225.46
781.28	225.45
781.60	225.43
781.92	225.40
782.25	225.39
782.57	225.37
782.89	225.34
783.22	225.30
783.54	225.27
783.86	225.27
784.19	225.25
784.51	225.26
784.83	225.24
785.16	225.22
785.48	225.20
785.80	225.19
786.12	225.18
786.45	225.17
786.77	225.16
787.09	225.13
787.42	225.08
787.74	225.05
788.06	225.04
788.38	225.02
788.71	225.00
789.03	224.99
789.35	224.99
789.67	224.95
789.99	224.95
790.32	224.92
790.64	224.92
790.96	225.00
791.28	224.95
791.61	224.93
791.93	224.92
792.25	224.90
792.57	224.96
792.89	224.93
793.21	224.92
793.54	224.90
793.86	224.87
794.18	224.86
794.50	224.83
794.82	224.81
795.14	224.81
795.47	224.82
795.79	224.80
796.11	224.76
796.43	224.75
796.75	224.73
797.07	224.73
797.39	224.70
797.71	224.61
798.04	224.60
798.36	224.60
798.68	224.58
799.00	224.58
799.32	224.51
799.64	224.51
799.96	224.50
800.28	224.51
800.60	224.51
800.92	224.51
801.24	224.49
801.56	224.50
801.89	224.48
802.21	224.46
802.53	224.45
802.85	224.46
803.17	224.50
803.49	224.47
803.81	224.46
804.13	224.44
804.45	224.42
804.77	224.42
805.09	224.41
805.41	224.39
805.73	224.37
806.05	224.34
806.37	224.32
806.69	224.30
807.01	224.28
807.33	224.27
807.65	224.22
807.97	224.26
808.28	224.24
808.60	224.23
808.92	224.22
809.24	224.26
809.56	224.24
809.88	224.18
810.20	224.19
810.52	224.20
810.84	224.18
811.16	224.16
811.48	224.15
811.80	224.17
812.12	224.16
812.43	224.17
812.75	224.17
813.07	224.16
813.39	224.15
813.71	224.12
814.03	224.12
814.35	224.12
814.67	224.06
814.98	224.05
815.30	224.04
815.62	224.01
815.94	223.94
816.26	223.95
816.58	223.92
816.89	223.92
817.21	223.88
817.53	223.89
817.85	223.89
818.17	223.88
818.48	223.84
818.80	223.85
819.12	223.82
819.44	223.79
819.76	223.78
820.07	223.77
820.39	223.77
820.71	223.77
821.03	223.76
821.34	223.75
821.66	223.76
821.98	223.77
822.30	223.77
822.61	223.83
822.93	223.80
823.25	223.80
823.57	223.79
823.88	223.79
824.20	223.77
824.52	223.79
824.83	223.78
825.15	223.77
825.47	223.76
825.79	223.77
826.10	223.77
826.42	223.77
826.74	223.77
827.05	223.77
827.37	223.76
827.69	223.76
828.00	223.76
828.32	223.76
828.64	223.74
828.95	223.79
829.27	223.75
829.58	223.75
829.90	223.77
830.22	223.78
830.53	223.76
830.85	223.76
831.17	223.73
831.48	223.72
831.80	223.72
832.11	223.72
832.43	223.70
832.75	223.70
833.06	223.76
833.38	223.74
833.69	223.73
834.01	223.73
834.32	223.72
834.64	223.71
834.96	223.71
835.27	223.71
835.59	223.67
835.90	223.65
836.22	223.64
836.53	223.62
836.85	223.59
837.16	223.70
837.48	223.70
837.79	223.73
838.11	223.74
838.42	223.75
838.74	223.75
839.05	223.74
839.37	223.73
839.68	223.66
840.00	223.66
840.31	223.68
840.63	223.67
840.94	223.67
841.26	223.66
841.57	223.65
841.88	223.66
842.20	223.65
842.51	223.63
842.83	223.63
843.14	223.73
843.46	223.73
843.77	223.66
844.08	223.66
844.40	223.63
844.71	223.60
845.03	223.59
845.34	223.58
845.65	223.57
845.97	223.57
846.28	223.57
846.60	223.58
846.91	223.55
847.22	223.54
847.54	223.56
847.85	223.56
848.16	223.55
848.48	223.53
848.79	223.56
849.10	223.58
849.42	223.58
849.73	223.48
850.04	223.48
850.36	223.44
850.67	223.46
850.98	223.45
851.30	223.47
851.61	223.47
851.92	223.46
852.23	223.50
852.55	223.49
852.86	223.50
853.17	223.51
853.49	223.52
853.80	223.54
854.11	223.53
854.42	223.54
854.74	223.53
855.05	223.54
855.36	223.49
855.67	223.49
855.99	223.49
856.30	223.61
856.61	223.61
856.92	223.61
857.23	223.61
857.55	223.59
857.86	223.58
858.17	223.59
858.48	223.58
858.79	223.55
859.11	223.56
859.42	223.55
859.73	223.53
860.04	223.53
860.35	223.50
860.66	223.46
860.98	223.45
861.29	223.46
861.60	223.45
861.91	223.47
862.22	223.45
862.53	223.44
862.84	223.32
863.16	223.33
863.47	223.32
863.78	223.30
864.09	223.32
864.40	223.32
864.71	223.32
865.02	223.33
865.33	223.32
865.64	223.31
865.95	223.32
866.27	223.38
866.58	223.37
866.89	223.39
867.20	223.39
867.51	223.37
867.82	223.37
868.13	223.40
868.44	223.38
868.75	223.40
869.06	223.40
869.37	223.40
869.68	223.37
869.99	223.38
870.30	223.39
870.61	223.40
870.92	223.38
871.23	223.37
871.54	223.38
871.85	223.40
872.16	223.42
872.47	223.40
872.78	223.34
873.09	223.36
873.40	223.35
873.71	223.36
874.02	223.37
874.33	223.36
874.64	223.34
874.95	223.35
875.26	223.33
875.56	223.33
875.87	223.32
876.18	223.31
876.49	223.41
876.80	223.39
877.11	223.38
877.42	223.38
877.73	223.38
878.04	223.37
878.35	223.38
878.66	223.38
878.96	223.38
879.27	223.38
879.58	223.36
879.89	223.36
880.20	223.39
880.51	223.39
880.82	223.40
881.12	223.40
881.43	223.39
881.74	223.38
882.05	223.37
882.36	223.38
882.67	223.40
882.97	223.30
883.28	223.30
883.59	223.30
883.90	223.31
884.21	223.32
884.51	223.31
884.82	223.29
885.13	223.29
885.44	223.29
885.74	223.29
886.05	223.29
886.36	223.29
886.67	223.26
886.98	223.30
887.28	223.30
887.59	223.30
887.90	223.30
888.20	223.30
888.51	223.31
888.82	223.31
889.13	223.31
889.43	223.40
889.74	223.40
890.05	223.40
890.35	223.38
890.66	223.36
890.97	223.35
891.28	223.34
891.58	223.33
891.89	223.33
892.20	223.32
892.50	223.30
892.81	223.29
893.12	223.29
893.42	223.23
893.73	223.23
894.04	223.23
894.34	223.25
894.65	223.25
894.95	223.25
895.26	223.24
895.57	223.27
895.87	223.16
896.18	223.18
896.48	223.19
896.79	223.18
897.10	223.20
897.40	223.20
897.71	223.20
898.01	223.20
898.32	223.22
898.63	223.21
898.93	223.21
899.24	223.21
899.54	223.20
899.85	223.20
900.15	223.20
900.46	223.19
900.76	223.20
901.07	223.20
901.38	223.18
901.68	223.19
901.99	223.15
902.29	223.17
902.60	223.16
902.90	223.15
903.21	223.15
903.51	223.14
903.82	223.16
904.12	223.17
904.43	223.18
904.73	223.16
905.03	223.17
905.34	223.27
905.64	223.26
905.95	223.27
906.25	223.27
906.56	223.26
906.86	223.26
907.17	223.25
907.47	223.25
907.77	223.25
908.08	223.21
908.38	223.22
908.69	223.22
908.99	223.24
909.30	223.24
909.60	223.24
909.90	223.24
910.21	223.21
910.51	223.20
910.81	223.20
911.12	223.20
911.42	223.20
911.73	223.09
912.03	223.10
912.33	223.11
912.64	223.11
912.94	223.10
913.24	223.10
913.55	223.08
913.85	223.07
914.15	223.09
914.46	223.11
914.76	223.10
915.06	223.09
915.37	223.07
915.67	223.05
915.97	223.05
916.27	223.03
916.58	223.04
916.88	223.03
917.18	223.01
917.49	223.09
917.79	223.09
918.09	223.11
918.39	223.14
918.70	223.14
919.00	223.14
919.30	223.18
919.60	223.18
919.91	223.17
920.21	223.17
920.51	223.16
920.81	223.15
921.12	223.16
921.42	223.16
921.72	223.16
922.02	223.19
922.32	223.20
922.63	223.22
922.93	223.27
923.23	223.28
923.53	223.27
923.83	223.19
924.13	223.19
924.44	223.19
924.74	223.20
925.04	223.22
925.34	223.22
925.64	223.18
925.94	223.19
926.24	223.25
926.55	223.24
926.85	223.24
927.15	223.25
927.45	223.25
927.75	223.24
928.05	223.25
928.35	223.24
928.65	223.26
928.95	223.25
929.26	223.21
929.56	223.23
929.86	223.25
930.16	223.24
930.46	223.24
930.76	223.25
931.06	223.21
931.36	223.17
931.66	223.19
931.96	223.19
932.26	223.20
932.56	223.16
932.86	223.16
933.16	223.17
933.46	223.16
933.76	223.15
934.06	223.16
934.36	223.20
934.66	223.19
934.96	223.17
935.26	223.18
935.56	223.18
935.86	223.15
936.16	223.13
936.46	223.12
936.76	223.11
937.06	223.10
937.36	223.11
937.66	223.12
937.96	223.12
938.26	223.10
938.56	223.08
938.86	223.09
939.16	223.11
939.46	223.11
939.76	223.12
940.06	223.12
940.35	223.11
940.65	223.05
940.95	223.06
941.25	223.03
941.55	223.02
941.85	223.02
942.15	223.05
942.45	223.08
942.75	223.07
943.04	223.07
943.34	223.08
943.64	223.06
943.94	223.04
944.24	223.03
944.54	223.04
944.84	223.04
945.13	223.02
945.43	223.00
945.73	222.99
946.03	222.97
946.33	222.97
946.62	222.95
946.92	222.96
947.22	222.96
947.52	222.97
947.82	222.97
948.11	222.96
948.41	222.93
948.71	222.90
949.01	222.91
949.31	222.91
949.60	222.90
949.90	222.92
950.20	222.92
950.50	222.92
950.79	222.90
951.09	222.91
951.39	222.92
951.69	222.91
951.98	222.94
952.28	222.94
952.58	222.93
952.87	222.93
953.17	222.94
953.47	222.94
953.76	222.94
954.06	222.92
954.36	222.90
954.66	222.90
954.95	222.93
955.25	222.93
955.55	222.94
955.84	222.93
956.14	222.93
956.44	222.94
956.73	222.93
957.03	222.93
957.32	222.93
957.62	222.92
957.92	222.94
958.21	222.93
958.51	223.05
958.81	223.07
959.10	223.09
959.40	223.11
959.69	223.11
959.99	223.12
960.29	223.12
960.58	223.12
960.88	223.16
961.17	223.15
961.47	223.17
961.76	223.15
962.06	223.17
962.36	223.16
962.65	223.16
962.95	223.17
963.24	223.17
963.54	223.17
963.83	223.17
964.13	223.15
964.42	223.14
964.72	223.04
965.01	223.05
965.31	223.04
965.60	223.01
965.90	223.08
966.19	223.05
966.49	223.07
966.78	223.07
967.08	223.05
967.37	223.05
967.67	223.04
967.96	223.06
968.26	223.04
968.55	223.05
968.85	223.05
969.14	223.05
969.43	223.04
969.73	223.02
970.02	223.02
970.32	223.03
970.61	223.02
970.91	223.00
971.20	222.98
971.49	222.96
971.79	222.98
972.08	222.90
972.38	222.91
972.67	222.90
972.96	222.91
973.26	222.90
973.55	222.93
973.85	222.92
974.14	222.90
974.43	222.92
974.73	222.91
975.02	222.89
975.31	222.90
975.61	222.89
975.90	222.89
976.19	222.88
976.49	222.88
976.78	222.89
977.07	222.89
977.37	222.91
977.66	222.91
977.95	222.90
978.24	222.92
978.54	222.94
978.83	222.94
979.12	222.93
979.42	222.93
979.71	222.91
980.00	222.91
980.29	222.93
980.59	222.91
980.88	222.94
981.17	222.94
981.46	222.93
981.76	222.94
982.05	222.98
982.34	222.99
982.63	222.99
982.93	222.99
983.22	223.01
983.51	223.00
983.80	223.02
984.09	223.03
984.39	223.02
984.68	223.00
984.97	223.00
985.26	223.00
985.55	223.00
985.85	222.98
986.14	223.00
986.43	223.01
986.72	223.00
987.01	222.96
987.30	222.96
987.59	222.97
987.89	222.97
988.18	222.94
988.47	222.93
988.76	222.92
989.05	222.91
989.34	222.89
989.63	222.93
989.92	222.90
990.22	222.88
990.51	222.88
990.80	222.87
991.09	222.88
991.38	222.90
991.67	222.88
991.96	222.88
992.25	222.88
992.54	222.87
992.83	222.88
993.12	222.88
993.41	222.89
993.70	222.93
993.99	222.95
994.28	222.97
994.58	222.99
994.87	222.98
995.16	222.98
995.45	222.97
995.74	222.95
996.03	222.96
996.32	222.98
996.61	223.00
996.90	223.00
997.19	222.99
997.48	223.00
997.77	222.99
998.06	222.99
998.34	222.97
998.63	222.98
998.92	222.98
999.21	222.99
999.50	222.99
999.79	222.96
1000.08	222.95
1000.37	222.95
1000.66	222.93
1000.95	222.97
1001.24	222.97
1001.53	222.99
1001.82	222.98
1002.11	222.97
1002.40	222.97
1002.68	222.99
1002.97	223.06
1003.26	223.04
1003.55	223.03
1003.84	223.04
1004.13	223.08
1004.42	223.07
1004.71	223.06
1004.99	223.06
1005.28	223.08
1005.57	223.08
1005.86	223.06
1006.15	223.05
1006.44	223.04
1006.72	223.05
1007.01	223.02
1007.30	223.02
1007.59	223.00
1007.88	223.00
1008.17	223.00
1008.45	222.99
1008.74	222.94
1009.03	222.89
1009.32	222.89
1009.60	222.89
1009.89	222.87
1010.18	222.82
1010.47	222.81
1010.76	222.81
1011.04	222.79
1011.33	222.80
1011.62	222.80
1011.91	222.81
1012.19	222.80
1012.48	222.80
1012.77	222.80
1013.05	222.83
1013.34	222.83
1013.63	222.82
1013.92	222.83
1014.20	222.83
1014.49	222.83
1014.78	222.85
1015.06	222.81
1015.35	222.82
1015.64	222.83
1015.92	222.86
1016.21	222.87
1016.50	222.86
1016.78	222.87
1017.07	222.88
1017.36	222.85
1017.64	222.83
1017.93	222.84
1018.22	222.83
1018.50	222.84
1018.79	222.83
1019.08	222.79
1019.36	222.80
1019.65	222.79
1019.93	222.81
1020.22	222.82
1020.51	222.87
1020.79	222.85
1021.08	222.62
1021.36	222.71
1021.65	222.79
1021.94	222.72
1022.22	222.87
1022.51	222.59
1022.79	223.32
1023.08	222.82
1023.36	224.17
1023.65	222.59
>>>>>End Processed Spectral Data<<<<<
