SpectraSuite Data File
++++++++++++++++++++++++++++++++++++
Date: Wed Sep 30 14:49:51 EDT 2015
User: lab3
Dark Spectrum Present: No
Reference Spectrum Present: No
Number of Sampled Component Spectra: 1
Spectrometers: USB2E7196
Integration Time (usec): 36000 (USB2E7196)
Spectra Averaged: 1500 (USB2E7196)
Boxcar Smoothing: 10 (USB2E7196)
Correct for Electrical Dark: No (USB2E7196)
Strobe/Lamp Enabled: No (USB2E7196)
Correct for Detector Non-linearity: No (USB2E7196)
Correct for Stray Light: No (USB2E7196)
Number of Pixels in Processed Spectrum: 2048
>>>>>Begin Processed Spectral Data<<<<<
339.09	0.00
339.48	211.39
339.86	212.80
340.24	214.31
340.63	215.61
341.01	218.55
341.39	218.54
341.78	219.68
342.16	220.82
342.54	221.31
342.93	209.91
343.31	220.51
343.69	221.05
344.07	221.51
344.46	221.92
344.84	222.31
345.22	222.55
345.60	222.79
345.99	222.98
346.37	223.12
346.75	223.22
347.13	223.31
347.52	223.37
347.90	223.45
348.28	223.48
348.66	223.54
349.05	223.54
349.43	223.59
349.81	223.64
350.19	223.69
350.57	223.75
350.96	223.82
351.34	223.91
351.72	224.01
352.10	224.12
352.48	224.20
352.87	224.25
353.25	224.31
353.63	224.38
354.01	224.44
354.39	224.51
354.77	224.58
355.15	224.67
355.54	224.71
355.92	224.76
356.30	224.83
356.68	224.96
357.06	225.03
357.44	225.07
357.82	225.14
358.20	225.26
358.58	225.32
358.97	225.38
359.35	225.46
359.73	225.54
360.11	225.59
360.49	225.65
360.87	225.69
361.25	225.75
361.63	225.83
362.01	225.89
362.39	225.92
362.77	225.98
363.15	226.01
363.53	226.05
363.91	226.08
364.29	226.11
364.67	226.03
365.05	226.06
365.43	226.10
365.81	226.12
366.19	226.14
366.57	226.19
366.95	226.19
367.33	226.17
367.71	226.16
368.09	226.18
368.47	226.17
368.85	226.17
369.23	226.19
369.61	226.14
369.99	226.15
370.37	226.14
370.75	226.19
371.13	226.16
371.51	226.11
371.89	226.09
372.27	226.06
372.65	226.04
373.03	226.00
373.41	225.96
373.78	225.91
374.16	225.82
374.54	225.73
374.92	225.69
375.30	225.64
375.68	225.58
376.06	225.54
376.44	225.49
376.82	225.44
377.19	225.38
377.57	225.33
377.95	225.24
378.33	225.18
378.71	225.05
379.09	225.00
379.47	224.97
379.84	224.90
380.22	224.85
380.60	224.79
380.98	224.74
381.36	224.68
381.73	224.62
382.11	224.59
382.49	224.55
382.87	224.49
383.25	224.44
383.62	224.51
384.00	224.44
384.38	224.40
384.76	224.38
385.13	224.37
385.51	224.32
385.89	224.27
386.27	224.23
386.64	224.21
387.02	224.16
387.40	224.13
387.78	224.10
388.15	224.06
388.53	224.03
388.91	223.99
389.29	223.96
389.66	223.96
390.04	223.93
390.42	223.91
390.79	223.90
391.17	223.87
391.55	223.74
391.92	223.73
392.30	223.72
392.68	223.68
393.05	223.66
393.43	223.66
393.81	223.67
394.18	223.66
394.56	223.66
394.94	223.68
395.31	223.66
395.69	223.70
396.06	223.72
396.44	223.74
396.82	223.74
397.19	223.81
397.57	223.81
397.95	223.84
398.32	223.84
398.70	223.88
399.07	223.94
399.45	223.98
399.82	224.02
400.20	224.07
400.58	224.12
400.95	224.13
401.33	224.20
401.70	224.33
402.08	224.41
402.45	224.49
402.83	224.59
403.20	224.70
403.58	224.77
403.95	224.91
404.33	225.04
404.71	225.17
405.08	225.35
405.46	225.51
405.83	225.67
406.21	225.84
406.58	226.02
406.96	226.21
407.33	226.42
407.70	226.67
408.08	226.99
408.45	227.28
408.83	227.59
409.20	227.88
409.58	228.14
409.95	228.49
410.33	228.86
410.70	229.21
411.08	229.63
411.45	230.07
411.82	230.51
412.20	231.01
412.57	231.62
412.95	232.09
413.32	232.71
413.69	233.35
414.07	234.03
414.44	234.77
414.82	235.51
415.19	236.40
415.56	237.29
415.94	238.20
416.31	239.25
416.68	240.30
417.06	241.51
417.43	242.65
417.81	243.96
418.18	245.29
418.55	246.74
418.93	248.25
419.30	249.84
419.67	251.53
420.04	253.25
420.42	255.06
420.79	257.15
421.16	259.26
421.54	261.40
421.91	263.65
422.28	265.98
422.66	268.50
423.03	270.90
423.40	273.42
423.77	276.12
424.15	278.89
424.52	281.77
424.89	284.88
425.26	287.97
425.64	290.85
426.01	294.10
426.38	297.41
426.75	300.85
427.13	304.36
427.50	308.03
427.87	311.86
428.24	315.72
428.61	319.44
428.99	323.44
429.36	327.81
429.73	331.99
430.10	336.17
430.47	340.43
430.85	344.82
431.22	349.48
431.59	354.28
431.96	358.97
432.33	364.17
432.70	369.12
433.08	374.96
433.45	380.47
433.82	385.89
434.19	391.95
434.56	397.89
434.93	403.65
435.30	409.35
435.68	415.73
436.05	421.96
436.42	428.19
436.79	433.86
437.16	440.03
437.53	446.62
437.90	453.19
438.27	459.61
438.64	466.55
439.01	472.83
439.38	478.57
439.75	484.08
440.13	490.32
440.50	496.25
440.87	500.96
441.24	506.11
441.61	511.75
441.98	515.87
442.35	520.81
442.72	525.85
443.09	530.62
443.46	533.68
443.83	535.96
444.20	537.84
444.57	540.58
444.94	542.16
445.31	543.80
445.68	545.22
446.05	546.26
446.42	546.04
446.79	545.73
447.16	545.44
447.53	545.20
447.90	543.30
448.27	541.51
448.64	538.71
449.01	536.87
449.37	532.92
449.74	529.33
450.11	524.69
450.48	519.61
450.85	514.50
451.22	510.16
451.59	505.86
451.96	501.98
452.33	496.37
452.70	491.32
453.07	485.21
453.43	479.08
453.80	473.14
454.17	467.40
454.54	462.09
454.91	456.11
455.28	450.47
455.65	445.16
456.02	439.52
456.38	434.98
456.75	429.11
457.12	424.41
457.49	419.65
457.86	415.13
458.23	411.16
458.59	406.76
458.96	402.26
459.33	398.34
459.70	394.33
460.07	391.28
460.43	387.71
460.80	384.35
461.17	381.41
461.54	378.26
461.91	375.28
462.27	372.23
462.64	369.75
463.01	366.91
463.38	364.07
463.74	361.48
464.11	359.18
464.48	357.11
464.85	354.85
465.21	353.10
465.58	351.18
465.95	348.98
466.32	347.24
466.68	345.53
467.05	343.80
467.42	342.11
467.78	340.28
468.15	338.60
468.52	337.36
468.88	335.74
469.25	334.23
469.62	333.05
469.98	331.78
470.35	330.65
470.72	329.62
471.08	328.58
471.45	327.72
471.82	326.74
472.18	325.72
472.55	325.09
472.92	324.31
473.28	323.70
473.65	323.05
474.02	322.44
474.38	321.93
474.75	321.65
475.11	321.25
475.48	321.10
475.85	320.93
476.21	320.89
476.58	320.90
476.94	321.10
477.31	321.22
477.67	321.36
478.04	321.63
478.41	321.95
478.77	322.40
479.14	322.71
479.50	323.27
479.87	323.97
480.23	324.65
480.60	325.34
480.96	326.05
481.33	327.03
481.69	327.99
482.06	328.95
482.42	329.87
482.79	330.99
483.15	332.27
483.52	333.71
483.88	335.10
484.25	336.57
484.61	338.10
484.98	339.74
485.34	341.58
485.71	343.48
486.07	345.53
486.44	347.58
486.80	349.85
487.17	352.16
487.53	354.68
487.90	357.30
488.26	360.12
488.62	363.09
488.99	366.11
489.35	369.27
489.72	372.68
490.08	376.22
490.44	379.85
490.81	383.66
491.17	387.60
491.54	391.77
491.90	396.02
492.26	400.58
492.63	405.36
492.99	410.38
493.36	415.55
493.72	421.01
494.08	426.61
494.45	432.52
494.81	438.65
495.17	444.88
495.54	451.53
495.90	458.49
496.26	465.59
496.63	472.89
496.99	480.45
497.35	488.34
497.72	496.53
498.08	504.92
498.44	513.55
498.80	522.67
499.17	532.09
499.53	541.85
499.89	551.87
500.26	562.07
500.62	572.49
500.98	583.51
501.34	594.69
501.71	606.38
502.07	618.27
502.43	630.58
502.79	643.35
503.16	656.46
503.52	669.67
503.88	683.34
504.24	697.41
504.60	711.69
504.97	726.41
505.33	741.49
505.69	757.28
506.05	773.37
506.41	789.64
506.78	806.16
507.14	823.22
507.50	840.61
507.86	858.37
508.22	876.40
508.59	894.55
508.95	913.27
509.31	932.47
509.67	952.45
510.03	972.58
510.39	992.79
510.75	1013.16
511.12	1033.88
511.48	1054.82
511.84	1076.07
512.20	1097.52
512.56	1119.82
512.92	1142.29
513.28	1164.72
513.64	1187.42
514.00	1210.48
514.37	1234.12
514.73	1257.73
515.09	1281.15
515.45	1304.80
515.81	1328.69
516.17	1352.66
516.53	1376.55
516.89	1400.20
517.25	1423.80
517.61	1447.64
517.97	1471.74
518.33	1495.88
518.69	1520.22
519.05	1544.88
519.41	1569.46
519.77	1594.50
520.13	1618.72
520.49	1642.96
520.85	1667.15
521.21	1691.35
521.57	1716.11
521.93	1740.02
522.29	1764.35
522.65	1788.59
523.01	1812.86
523.37	1836.55
523.73	1860.85
524.09	1884.93
524.45	1909.13
524.81	1933.17
525.17	1956.65
525.53	1979.97
525.89	2003.18
526.25	2026.32
526.61	2048.10
526.97	2070.18
527.33	2092.05
527.68	2113.93
528.04	2135.42
528.40	2156.82
528.76	2177.86
529.12	2198.24
529.48	2219.29
529.84	2238.30
530.20	2257.77
530.56	2276.66
530.91	2296.19
531.27	2315.18
531.63	2333.46
531.99	2351.18
532.35	2368.44
532.71	2386.58
533.07	2404.94
533.42	2421.61
533.78	2438.82
534.14	2456.48
534.50	2473.31
534.86	2490.54
535.21	2505.85
535.57	2521.00
535.93	2535.67
536.29	2549.77
536.65	2563.39
537.00	2575.72
537.36	2589.06
537.72	2601.19
538.08	2613.40
538.44	2624.28
538.79	2634.59
539.15	2643.92
539.51	2653.28
539.87	2661.59
540.22	2667.43
540.58	2673.37
540.94	2679.99
541.29	2685.43
541.65	2690.61
542.01	2695.59
542.37	2698.50
542.72	2702.83
543.08	2706.36
543.44	2709.56
543.79	2712.10
544.15	2714.18
544.51	2715.80
544.87	2717.32
545.22	2718.37
545.58	2718.18
545.94	2718.03
546.29	2716.73
546.65	2715.77
547.01	2714.54
547.36	2713.83
547.72	2713.56
548.07	2712.01
548.43	2708.94
548.79	2705.61
549.14	2702.28
549.50	2699.14
549.86	2695.81
550.21	2691.30
550.57	2687.08
550.92	2681.65
551.28	2676.14
551.64	2670.55
551.99	2665.21
552.35	2658.69
552.70	2652.34
553.06	2646.82
553.41	2640.95
553.77	2634.90
554.13	2628.78
554.48	2621.40
554.84	2613.07
555.19	2604.56
555.55	2595.48
555.90	2587.58
556.26	2579.83
556.61	2571.22
556.97	2561.16
557.32	2551.33
557.68	2541.57
558.03	2531.42
558.39	2522.26
558.74	2513.85
559.10	2504.03
559.45	2494.03
559.81	2484.51
560.16	2474.48
560.52	2464.05
560.87	2453.84
561.23	2443.09
561.58	2432.78
561.94	2422.44
562.29	2411.65
562.64	2401.36
563.00	2391.33
563.35	2381.10
563.71	2370.10
564.06	2359.39
564.42	2348.90
564.77	2338.32
565.12	2327.62
565.48	2316.62
565.83	2305.20
566.19	2293.36
566.54	2282.20
566.89	2270.21
567.25	2258.22
567.60	2247.24
567.96	2235.68
568.31	2223.11
568.66	2210.95
569.02	2199.05
569.37	2187.59
569.72	2176.98
570.08	2165.25
570.43	2153.12
570.78	2140.82
571.14	2128.51
571.49	2115.85
571.84	2103.49
572.20	2090.25
572.55	2077.08
572.90	2064.38
573.26	2052.10
573.61	2038.96
573.96	2026.10
574.31	2013.71
574.67	2001.26
575.02	1987.75
575.37	1974.30
575.72	1961.27
576.08	1948.31
576.43	1934.76
576.78	1921.21
577.13	1907.33
577.49	1893.88
577.84	1880.55
578.19	1867.35
578.54	1853.83
578.90	1840.03
579.25	1826.02
579.60	1813.27
579.95	1800.64
580.30	1787.79
580.66	1774.34
581.01	1760.99
581.36	1747.28
581.71	1734.03
582.06	1721.02
582.42	1708.31
582.77	1695.59
583.12	1683.14
583.47	1671.06
583.82	1658.55
584.17	1645.23
584.53	1632.24
584.88	1619.49
585.23	1606.66
585.58	1593.81
585.93	1581.38
586.28	1569.52
586.63	1557.61
586.98	1545.12
587.34	1532.81
587.69	1519.93
588.04	1507.49
588.39	1495.54
588.74	1483.35
589.09	1471.53
589.44	1458.98
589.79	1446.58
590.14	1434.42
590.49	1422.19
590.84	1410.01
591.19	1398.51
591.54	1387.05
591.89	1375.32
592.25	1364.06
592.60	1352.48
592.95	1341.29
593.30	1329.95
593.65	1318.78
594.00	1307.71
594.35	1297.15
594.70	1285.80
595.05	1275.35
595.40	1264.61
595.75	1253.69
596.10	1243.48
596.45	1232.80
596.80	1222.85
597.15	1213.05
597.50	1203.16
597.85	1193.67
598.19	1184.12
598.54	1174.25
598.89	1165.01
599.24	1156.06
599.59	1147.06
599.94	1138.62
600.29	1129.85
600.64	1121.18
600.99	1111.81
601.34	1103.02
601.69	1094.04
602.04	1085.95
602.39	1077.43
602.74	1069.41
603.08	1061.66
603.43	1053.64
603.78	1045.61
604.13	1037.59
604.48	1029.41
604.83	1021.50
605.18	1013.41
605.53	1005.21
605.87	997.05
606.22	989.20
606.57	981.13
606.92	972.91
607.27	964.88
607.62	957.10
607.96	949.42
608.31	942.76
608.66	935.80
609.01	928.85
609.36	921.85
609.70	914.94
610.05	907.83
610.40	900.83
610.75	893.68
611.10	886.99
611.44	880.07
611.79	873.45
612.14	866.72
612.49	859.83
612.83	853.44
613.18	847.22
613.53	841.05
613.88	834.98
614.22	829.15
614.57	823.10
614.92	817.20
615.27	811.32
615.61	805.00
615.96	798.78
616.31	792.76
616.65	786.57
617.00	780.45
617.35	774.39
617.70	768.45
618.04	762.71
618.39	756.80
618.74	751.20
619.08	745.46
619.43	739.84
619.78	734.36
620.12	728.71
620.47	723.22
620.82	717.74
621.16	712.39
621.51	706.92
621.85	701.53
622.20	695.97
622.55	690.51
622.89	685.21
623.24	680.05
623.59	674.94
623.93	670.11
624.28	665.41
624.62	660.74
624.97	655.98
625.32	651.29
625.66	646.41
626.01	641.52
626.35	636.79
626.70	632.06
627.04	627.61
627.39	623.15
627.73	618.70
628.08	614.31
628.43	609.93
628.77	605.61
629.12	601.35
629.46	597.27
629.81	593.10
630.15	588.94
630.50	584.89
630.84	580.90
631.19	576.97
631.53	573.16
631.88	569.31
632.22	565.36
632.57	561.68
632.91	558.07
633.26	554.46
633.60	550.85
633.95	547.34
634.29	543.73
634.64	540.17
634.98	536.54
635.32	533.01
635.67	529.68
636.01	526.38
636.36	523.08
636.70	519.90
637.05	516.75
637.39	513.65
637.73	510.34
638.08	507.12
638.42	503.97
638.77	500.70
639.11	497.35
639.45	494.15
639.80	490.90
640.14	487.80
640.49	484.73
640.83	481.64
641.17	478.60
641.52	475.58
641.86	472.50
642.20	469.59
642.55	466.57
642.89	463.57
643.23	460.69
643.58	458.01
643.92	455.22
644.26	452.50
644.61	449.81
644.95	447.17
645.29	444.43
645.64	441.63
645.98	438.93
646.32	436.38
646.66	433.83
647.01	431.35
647.35	428.98
647.69	426.50
648.04	424.11
648.38	421.68
648.72	419.30
649.06	416.98
649.41	414.69
649.75	412.45
650.09	410.13
650.43	407.87
650.78	405.58
651.12	403.29
651.46	401.07
651.80	398.92
652.14	396.84
652.49	394.81
652.83	392.83
653.17	390.85
653.51	388.97
653.85	387.11
654.20	385.19
654.54	383.16
654.88	381.23
655.22	379.35
655.56	377.51
655.90	375.72
656.25	373.96
656.59	372.18
656.93	370.51
657.27	368.93
657.61	367.24
657.95	365.59
658.29	364.01
658.64	362.45
658.98	360.79
659.32	359.11
659.66	357.54
660.00	356.00
660.34	354.47
660.68	352.92
661.02	351.34
661.36	349.81
661.70	348.33
662.05	346.90
662.39	345.48
662.73	344.13
663.07	342.81
663.41	341.53
663.75	340.23
664.09	338.95
664.43	337.59
664.77	336.30
665.11	334.93
665.45	333.63
665.79	332.34
666.13	331.13
666.47	329.95
666.81	328.72
667.15	327.44
667.49	326.26
667.83	325.08
668.17	323.92
668.51	322.81
668.85	321.74
669.19	320.69
669.53	319.56
669.87	318.36
670.21	317.24
670.55	316.13
670.89	315.11
671.23	314.04
671.57	313.01
671.91	312.05
672.25	311.15
672.58	310.23
672.92	309.27
673.26	308.36
673.60	307.43
673.94	306.54
674.28	305.69
674.62	304.81
674.96	303.90
675.30	303.07
675.64	302.22
675.97	301.38
676.31	300.49
676.65	299.66
676.99	298.93
677.33	298.09
677.67	297.29
678.01	296.41
678.34	295.61
678.68	294.84
679.02	294.04
679.36	293.25
679.70	292.46
680.04	291.68
680.37	290.90
680.71	290.18
681.05	289.48
681.39	288.76
681.73	288.03
682.06	287.32
682.40	286.60
682.74	285.91
683.08	285.25
683.42	284.57
683.75	283.93
684.09	283.23
684.43	282.58
684.77	281.92
685.10	281.31
685.44	280.67
685.78	280.05
686.12	279.45
686.45	278.84
686.79	278.21
687.13	277.61
687.46	276.98
687.80	276.37
688.14	275.74
688.48	275.15
688.81	274.55
689.15	274.01
689.49	273.42
689.82	272.84
690.16	272.20
690.50	271.63
690.83	271.04
691.17	270.45
691.51	269.91
691.84	269.39
692.18	268.83
692.52	268.28
692.85	267.74
693.19	267.24
693.52	266.71
693.86	266.19
694.20	265.69
694.53	265.19
694.87	264.68
695.21	264.18
695.54	263.68
695.88	263.18
696.21	262.64
696.55	262.18
696.88	261.70
697.22	261.24
697.56	260.81
697.89	260.36
698.23	259.94
698.56	259.48
698.90	259.07
699.23	258.64
699.57	258.24
699.90	257.81
700.24	257.37
700.58	256.97
700.91	256.60
701.25	256.29
701.58	255.94
701.92	255.59
702.25	255.22
702.59	254.82
702.92	254.46
703.26	254.10
703.59	253.71
703.93	253.43
704.26	253.09
704.60	252.71
704.93	252.34
705.26	251.96
705.60	251.64
705.93	251.26
706.27	250.97
706.60	250.65
706.94	250.35
707.27	250.00
707.61	249.65
707.94	249.30
708.27	248.90
708.61	248.54
708.94	248.19
709.28	247.88
709.61	247.58
709.94	247.29
710.28	247.02
710.61	246.78
710.95	246.42
711.28	246.21
711.61	245.94
711.95	245.71
712.28	245.44
712.61	245.15
712.95	244.95
713.28	244.72
713.61	244.43
713.95	244.14
714.28	243.91
714.61	243.65
714.95	243.41
715.28	243.16
715.61	242.93
715.95	242.72
716.28	242.50
716.61	242.31
716.95	242.09
717.28	241.86
717.61	241.62
717.94	241.41
718.28	241.14
718.61	240.95
718.94	240.72
719.27	240.53
719.61	240.36
719.94	240.13
720.27	239.89
720.60	239.71
720.94	239.52
721.27	239.35
721.60	239.20
721.93	239.02
722.27	238.88
722.60	238.71
722.93	238.52
723.26	238.34
723.59	238.13
723.93	237.96
724.26	237.80
724.59	237.64
724.92	237.47
725.25	237.33
725.59	237.17
725.92	237.03
726.25	236.88
726.58	236.73
726.91	236.58
727.24	236.46
727.57	236.31
727.91	236.16
728.24	236.02
728.57	235.86
728.90	235.73
729.23	235.57
729.56	235.49
729.89	235.36
730.22	235.22
730.55	235.10
730.89	234.97
731.22	234.84
731.55	234.72
731.88	234.60
732.21	234.46
732.54	234.33
732.87	234.22
733.20	234.10
733.53	233.99
733.86	233.88
734.19	233.75
734.52	233.66
734.85	233.63
735.18	233.52
735.51	233.46
735.84	233.36
736.17	233.28
736.50	233.12
736.83	233.14
737.16	233.04
737.49	232.96
737.82	232.86
738.15	232.78
738.48	232.69
738.81	232.58
739.14	232.48
739.47	232.38
739.80	232.28
740.13	232.20
740.46	232.08
740.79	231.96
741.12	231.86
741.45	231.74
741.78	231.58
742.11	231.52
742.44	231.39
742.77	231.32
743.10	231.21
743.43	231.12
743.75	230.93
744.08	231.01
744.41	230.92
744.74	230.84
745.07	230.73
745.40	230.67
745.73	230.63
746.06	230.56
746.39	230.51
746.71	230.42
747.04	230.34
747.37	230.27
747.70	230.23
748.03	230.18
748.36	230.13
748.68	230.07
749.01	229.97
749.34	229.91
749.67	229.84
750.00	229.79
750.33	229.80
750.65	229.74
750.98	229.53
751.31	229.46
751.64	229.40
751.97	229.40
752.29	229.33
752.62	229.22
752.95	229.16
753.28	229.08
753.60	229.03
753.93	228.99
754.26	228.95
754.59	228.85
754.91	228.78
755.24	228.71
755.57	228.69
755.90	228.63
756.22	228.56
756.55	228.49
756.88	228.41
757.20	228.29
757.53	228.20
757.86	228.14
758.19	228.10
758.51	228.05
758.84	227.94
759.17	227.86
759.49	227.82
759.82	227.82
760.15	227.78
760.47	227.73
760.80	227.66
761.13	227.63
761.45	227.58
761.78	227.54
762.11	227.49
762.43	227.39
762.76	227.34
763.08	227.32
763.41	227.28
763.74	227.25
764.06	227.20
764.39	227.17
764.71	227.13
765.04	227.08
765.37	227.03
765.69	227.00
766.02	226.96
766.34	226.91
766.67	226.83
767.00	226.80
767.32	226.82
767.65	226.85
767.97	226.80
768.30	226.77
768.62	226.74
768.95	226.70
769.27	226.67
769.60	226.65
769.92	226.60
770.25	226.54
770.57	226.49
770.90	226.47
771.22	226.43
771.55	226.39
771.87	226.36
772.20	226.33
772.52	226.38
772.85	226.47
773.17	226.45
773.50	226.42
773.82	226.38
774.15	226.29
774.47	226.19
774.80	226.15
775.12	226.13
775.45	226.09
775.77	226.07
776.09	226.04
776.42	226.02
776.74	226.02
777.07	225.99
777.39	225.97
777.72	225.93
778.04	225.90
778.36	225.87
778.69	225.85
779.01	225.83
779.33	225.73
779.66	225.58
779.98	225.56
780.31	225.54
780.63	225.56
780.95	225.57
781.28	225.55
781.60	225.52
781.92	225.50
782.25	225.48
782.57	225.45
782.89	225.42
783.22	225.39
783.54	225.35
783.86	225.34
784.19	225.31
784.51	225.32
784.83	225.30
785.16	225.28
785.48	225.27
785.80	225.26
786.12	225.26
786.45	225.25
786.77	225.22
787.09	225.21
787.42	225.16
787.74	225.14
788.06	225.13
788.38	225.11
788.71	225.09
789.03	225.08
789.35	225.08
789.67	225.05
789.99	225.05
790.32	225.02
790.64	225.02
790.96	225.11
791.28	225.05
791.61	225.03
791.93	225.03
792.25	225.01
792.57	225.07
792.89	225.03
793.21	225.03
793.54	225.01
793.86	224.98
794.18	224.96
794.50	224.93
794.82	224.92
795.14	224.92
795.47	224.93
795.79	224.92
796.11	224.88
796.43	224.87
796.75	224.86
797.07	224.85
797.39	224.83
797.71	224.74
798.04	224.74
798.36	224.74
798.68	224.73
799.00	224.71
799.32	224.65
799.64	224.65
799.96	224.64
800.28	224.65
800.60	224.64
800.92	224.64
801.24	224.63
801.56	224.63
801.89	224.60
802.21	224.59
802.53	224.56
802.85	224.58
803.17	224.61
803.49	224.58
803.81	224.57
804.13	224.56
804.45	224.54
804.77	224.53
805.09	224.52
805.41	224.50
805.73	224.48
806.05	224.44
806.37	224.43
806.69	224.42
807.01	224.40
807.33	224.39
807.65	224.35
807.97	224.38
808.28	224.35
808.60	224.35
808.92	224.32
809.24	224.39
809.56	224.35
809.88	224.31
810.20	224.31
810.52	224.31
810.84	224.29
811.16	224.28
811.48	224.27
811.80	224.29
812.12	224.28
812.43	224.30
812.75	224.29
813.07	224.27
813.39	224.27
813.71	224.25
814.03	224.23
814.35	224.23
814.67	224.18
814.98	224.16
815.30	224.15
815.62	224.13
815.94	224.05
816.26	224.07
816.58	224.04
816.89	224.05
817.21	224.02
817.53	224.02
817.85	224.02
818.17	224.02
818.48	223.96
818.80	223.98
819.12	223.96
819.44	223.93
819.76	223.92
820.07	223.92
820.39	223.91
820.71	223.91
821.03	223.91
821.34	223.91
821.66	223.92
821.98	223.92
822.30	223.92
822.61	223.99
822.93	223.96
823.25	223.95
823.57	223.94
823.88	223.95
824.20	223.94
824.52	223.94
824.83	223.94
825.15	223.93
825.47	223.92
825.79	223.93
826.10	223.93
826.42	223.92
826.74	223.92
827.05	223.92
827.37	223.92
827.69	223.91
828.00	223.91
828.32	223.91
828.64	223.90
828.95	223.94
829.27	223.90
829.58	223.91
829.90	223.92
830.22	223.93
830.53	223.90
830.85	223.89
831.17	223.86
831.48	223.86
831.80	223.86
832.11	223.84
832.43	223.83
832.75	223.82
833.06	223.88
833.38	223.86
833.69	223.85
834.01	223.84
834.32	223.84
834.64	223.83
834.96	223.83
835.27	223.82
835.59	223.79
835.90	223.78
836.22	223.77
836.53	223.75
836.85	223.73
837.16	223.85
837.48	223.84
837.79	223.88
838.11	223.88
838.42	223.87
838.74	223.88
839.05	223.87
839.37	223.87
839.68	223.80
840.00	223.80
840.31	223.81
840.63	223.80
840.94	223.79
841.26	223.78
841.57	223.77
841.88	223.78
842.20	223.75
842.51	223.73
842.83	223.74
843.14	223.83
843.46	223.82
843.77	223.76
844.08	223.75
844.40	223.71
844.71	223.71
845.03	223.70
845.34	223.69
845.65	223.69
845.97	223.68
846.28	223.69
846.60	223.69
846.91	223.67
847.22	223.67
847.54	223.68
847.85	223.68
848.16	223.67
848.48	223.65
848.79	223.70
849.10	223.70
849.42	223.69
849.73	223.59
850.04	223.60
850.36	223.55
850.67	223.57
850.98	223.57
851.30	223.57
851.61	223.56
851.92	223.56
852.23	223.58
852.55	223.59
852.86	223.58
853.17	223.60
853.49	223.62
853.80	223.64
854.11	223.63
854.42	223.64
854.74	223.64
855.05	223.64
855.36	223.57
855.67	223.58
855.99	223.59
856.30	223.70
856.61	223.69
856.92	223.70
857.23	223.71
857.55	223.70
857.86	223.69
858.17	223.71
858.48	223.69
858.79	223.67
859.11	223.68
859.42	223.68
859.73	223.66
860.04	223.64
860.35	223.61
860.66	223.59
860.98	223.59
861.29	223.60
861.60	223.59
861.91	223.61
862.22	223.59
862.53	223.58
862.84	223.46
863.16	223.48
863.47	223.45
863.78	223.43
864.09	223.44
864.40	223.44
864.71	223.44
865.02	223.46
865.33	223.44
865.64	223.42
865.95	223.41
866.27	223.48
866.58	223.47
866.89	223.49
867.20	223.49
867.51	223.47
867.82	223.46
868.13	223.49
868.44	223.48
868.75	223.50
869.06	223.50
869.37	223.51
869.68	223.49
869.99	223.50
870.30	223.51
870.61	223.52
870.92	223.52
871.23	223.50
871.54	223.50
871.85	223.54
872.16	223.54
872.47	223.54
872.78	223.49
873.09	223.50
873.40	223.50
873.71	223.50
874.02	223.52
874.33	223.51
874.64	223.49
874.95	223.51
875.26	223.48
875.56	223.48
875.87	223.48
876.18	223.47
876.49	223.58
876.80	223.57
877.11	223.54
877.42	223.54
877.73	223.55
878.04	223.54
878.35	223.53
878.66	223.53
878.96	223.53
879.27	223.52
879.58	223.51
879.89	223.50
880.20	223.52
880.51	223.52
880.82	223.52
881.12	223.53
881.43	223.51
881.74	223.50
882.05	223.50
882.36	223.51
882.67	223.51
882.97	223.39
883.28	223.39
883.59	223.39
883.90	223.40
884.21	223.41
884.51	223.40
884.82	223.39
885.13	223.39
885.44	223.39
885.74	223.39
886.05	223.39
886.36	223.39
886.67	223.34
886.98	223.39
887.28	223.40
887.59	223.40
887.90	223.40
888.20	223.39
888.51	223.41
888.82	223.38
889.13	223.39
889.43	223.49
889.74	223.48
890.05	223.48
890.35	223.47
890.66	223.45
890.97	223.44
891.28	223.43
891.58	223.42
891.89	223.41
892.20	223.40
892.50	223.39
892.81	223.39
893.12	223.40
893.42	223.34
893.73	223.34
894.04	223.34
894.34	223.35
894.65	223.34
894.95	223.34
895.26	223.34
895.57	223.39
895.87	223.29
896.18	223.30
896.48	223.30
896.79	223.30
897.10	223.32
897.40	223.32
897.71	223.34
898.01	223.33
898.32	223.35
898.63	223.35
898.93	223.36
899.24	223.35
899.54	223.35
899.85	223.34
900.15	223.33
900.46	223.32
900.76	223.33
901.07	223.33
901.38	223.32
901.68	223.33
901.99	223.28
902.29	223.28
902.60	223.28
902.90	223.28
903.21	223.27
903.51	223.26
903.82	223.29
904.12	223.29
904.43	223.29
904.73	223.29
905.03	223.29
905.34	223.39
905.64	223.39
905.95	223.39
906.25	223.39
906.56	223.40
906.86	223.39
907.17	223.37
907.47	223.38
907.77	223.37
908.08	223.35
908.38	223.36
908.69	223.36
908.99	223.38
909.30	223.38
909.60	223.38
909.90	223.38
910.21	223.34
910.51	223.32
910.81	223.33
911.12	223.33
911.42	223.34
911.73	223.23
912.03	223.24
912.33	223.26
912.64	223.26
912.94	223.24
913.24	223.22
913.55	223.22
913.85	223.22
914.15	223.24
914.46	223.25
914.76	223.24
915.06	223.23
915.37	223.21
915.67	223.20
915.97	223.19
916.27	223.17
916.58	223.18
916.88	223.18
917.18	223.17
917.49	223.23
917.79	223.21
918.09	223.24
918.39	223.26
918.70	223.25
919.00	223.24
919.30	223.29
919.60	223.30
919.91	223.29
920.21	223.29
920.51	223.27
920.81	223.26
921.12	223.27
921.42	223.26
921.72	223.28
922.02	223.29
922.32	223.31
922.63	223.31
922.93	223.37
923.23	223.38
923.53	223.36
923.83	223.29
924.13	223.31
924.44	223.29
924.74	223.32
925.04	223.33
925.34	223.33
925.64	223.29
925.94	223.29
926.24	223.35
926.55	223.34
926.85	223.36
927.15	223.37
927.45	223.37
927.75	223.36
928.05	223.36
928.35	223.36
928.65	223.37
928.95	223.37
929.26	223.32
929.56	223.34
929.86	223.35
930.16	223.35
930.46	223.34
930.76	223.35
931.06	223.30
931.36	223.27
931.66	223.29
931.96	223.30
932.26	223.30
932.56	223.26
932.86	223.26
933.16	223.25
933.46	223.24
933.76	223.22
934.06	223.25
934.36	223.28
934.66	223.28
934.96	223.28
935.26	223.28
935.56	223.30
935.86	223.28
936.16	223.27
936.46	223.25
936.76	223.24
937.06	223.22
937.36	223.23
937.66	223.24
937.96	223.23
938.26	223.21
938.56	223.20
938.86	223.20
939.16	223.23
939.46	223.24
939.76	223.24
940.06	223.24
940.35	223.22
940.65	223.17
940.95	223.18
941.25	223.15
941.55	223.14
941.85	223.12
942.15	223.14
942.45	223.17
942.75	223.18
943.04	223.18
943.34	223.21
943.64	223.20
943.94	223.17
944.24	223.17
944.54	223.18
944.84	223.18
945.13	223.16
945.43	223.14
945.73	223.13
946.03	223.13
946.33	223.12
946.62	223.11
946.92	223.10
947.22	223.10
947.52	223.11
947.82	223.13
948.11	223.12
948.41	223.09
948.71	223.06
949.01	223.06
949.31	223.06
949.60	223.05
949.90	223.06
950.20	223.06
950.50	223.06
950.79	223.05
951.09	223.07
951.39	223.06
951.69	223.05
951.98	223.08
952.28	223.10
952.58	223.09
952.87	223.09
953.17	223.11
953.47	223.09
953.76	223.09
954.06	223.06
954.36	223.05
954.66	223.05
954.95	223.08
955.25	223.08
955.55	223.08
955.84	223.07
956.14	223.07
956.44	223.08
956.73	223.06
957.03	223.07
957.32	223.06
957.62	223.06
957.92	223.08
958.21	223.07
958.51	223.18
958.81	223.20
959.10	223.21
959.40	223.23
959.69	223.24
959.99	223.25
960.29	223.26
960.58	223.26
960.88	223.29
961.17	223.26
961.47	223.27
961.76	223.26
962.06	223.28
962.36	223.27
962.65	223.27
962.95	223.29
963.24	223.28
963.54	223.28
963.83	223.29
964.13	223.28
964.42	223.26
964.72	223.18
965.01	223.18
965.31	223.16
965.60	223.13
965.90	223.19
966.19	223.18
966.49	223.18
966.78	223.17
967.08	223.16
967.37	223.17
967.67	223.15
967.96	223.16
968.26	223.16
968.55	223.18
968.85	223.17
969.14	223.16
969.43	223.16
969.73	223.15
970.02	223.14
970.32	223.13
970.61	223.13
970.91	223.10
971.20	223.08
971.49	223.07
971.79	223.10
972.08	223.02
972.38	223.04
972.67	223.03
972.96	223.06
973.26	223.05
973.55	223.08
973.85	223.08
974.14	223.07
974.43	223.07
974.73	223.05
975.02	223.04
975.31	223.04
975.61	223.04
975.90	223.03
976.19	223.03
976.49	223.04
976.78	223.04
977.07	223.04
977.37	223.06
977.66	223.07
977.95	223.04
978.24	223.05
978.54	223.06
978.83	223.06
979.12	223.05
979.42	223.05
979.71	223.04
980.00	223.03
980.29	223.03
980.59	223.02
980.88	223.04
981.17	223.04
981.46	223.04
981.76	223.04
982.05	223.08
982.34	223.07
982.63	223.07
982.93	223.07
983.22	223.10
983.51	223.10
983.80	223.11
984.09	223.13
984.39	223.12
984.68	223.11
984.97	223.11
985.26	223.10
985.55	223.10
985.85	223.08
986.14	223.10
986.43	223.12
986.72	223.11
987.01	223.08
987.30	223.08
987.59	223.08
987.89	223.09
988.18	223.06
988.47	223.07
988.76	223.05
989.05	223.05
989.34	223.02
989.63	223.05
989.92	223.03
990.22	223.02
990.51	223.02
990.80	223.01
991.09	223.02
991.38	223.04
991.67	223.01
991.96	223.01
992.25	223.01
992.54	222.98
992.83	222.99
993.12	222.98
993.41	223.01
993.70	223.05
993.99	223.06
994.28	223.07
994.58	223.09
994.87	223.08
995.16	223.07
995.45	223.07
995.74	223.02
996.03	223.04
996.32	223.05
996.61	223.07
996.90	223.07
997.19	223.07
997.48	223.07
997.77	223.07
998.06	223.07
998.34	223.07
998.63	223.06
998.92	223.07
999.21	223.09
999.50	223.09
999.79	223.05
1000.08	223.05
1000.37	223.04
1000.66	223.03
1000.95	223.05
1001.24	223.06
1001.53	223.08
1001.82	223.08
1002.11	223.07
1002.40	223.08
1002.68	223.10
1002.97	223.17
1003.26	223.16
1003.55	223.13
1003.84	223.15
1004.13	223.19
1004.42	223.18
1004.71	223.19
1004.99	223.18
1005.28	223.19
1005.57	223.19
1005.86	223.18
1006.15	223.17
1006.44	223.15
1006.72	223.17
1007.01	223.14
1007.30	223.15
1007.59	223.13
1007.88	223.13
1008.17	223.14
1008.45	223.12
1008.74	223.07
1009.03	223.02
1009.32	223.02
1009.60	223.02
1009.89	223.01
1010.18	222.96
1010.47	222.96
1010.76	222.95
1011.04	222.95
1011.33	222.95
1011.62	222.95
1011.91	222.97
1012.19	222.97
1012.48	222.98
1012.77	222.98
1013.05	223.02
1013.34	223.01
1013.63	223.01
1013.92	223.02
1014.20	223.00
1014.49	223.00
1014.78	223.01
1015.06	222.98
1015.35	222.98
1015.64	223.00
1015.92	223.01
1016.21	223.02
1016.50	223.02
1016.78	223.03
1017.07	223.03
1017.36	223.01
1017.64	223.00
1017.93	222.99
1018.22	222.99
1018.50	222.98
1018.79	222.98
1019.08	222.93
1019.36	222.94
1019.65	222.93
1019.93	222.96
1020.22	222.97
1020.51	223.03
1020.79	223.01
1021.08	222.97
1021.36	222.80
1021.65	222.92
1021.94	222.81
1022.22	223.02
1022.51	222.82
1022.79	223.46
1023.08	223.06
1023.36	224.22
1023.65	222.67
>>>>>End Processed Spectral Data<<<<<
