SpectraSuite Data File
++++++++++++++++++++++++++++++++++++
Date: Wed Sep 30 21:42:39 EDT 2015
User: lab3
Dark Spectrum Present: No
Reference Spectrum Present: No
Number of Sampled Component Spectra: 1
Spectrometers: USB2E7196
Integration Time (usec): 36000 (USB2E7196)
Spectra Averaged: 10000 (USB2E7196)
Boxcar Smoothing: 10 (USB2E7196)
Correct for Electrical Dark: No (USB2E7196)
Strobe/Lamp Enabled: No (USB2E7196)
Correct for Detector Non-linearity: No (USB2E7196)
Correct for Stray Light: No (USB2E7196)
Number of Pixels in Processed Spectrum: 2048
>>>>>Begin Processed Spectral Data<<<<<
339.09	0.00
339.48	211.22
339.86	212.72
340.24	214.13
340.63	215.47
341.01	218.41
341.39	218.18
341.78	219.47
342.16	220.72
342.54	221.24
342.93	209.75
343.31	220.35
343.69	220.88
344.07	221.34
344.46	221.76
344.84	222.15
345.22	222.39
345.60	222.64
345.99	222.84
346.37	222.97
346.75	223.08
347.13	223.15
347.52	223.22
347.90	223.30
348.28	223.33
348.66	223.39
349.05	223.39
349.43	223.44
349.81	223.50
350.19	223.56
350.57	223.63
350.96	223.70
351.34	223.80
351.72	223.89
352.10	224.00
352.48	224.07
352.87	224.12
353.25	224.19
353.63	224.25
354.01	224.31
354.39	224.39
354.77	224.46
355.15	224.57
355.54	224.62
355.92	224.66
356.30	224.73
356.68	224.87
357.06	224.95
357.44	225.00
357.82	225.06
358.20	225.16
358.58	225.23
358.97	225.29
359.35	225.37
359.73	225.45
360.11	225.50
360.49	225.56
360.87	225.61
361.25	225.67
361.63	225.75
362.01	225.81
362.39	225.84
362.77	225.89
363.15	225.91
363.53	225.94
363.91	225.98
364.29	226.00
364.67	225.92
365.05	225.94
365.43	225.98
365.81	226.00
366.19	226.02
366.57	226.06
366.95	226.06
367.33	226.04
367.71	226.03
368.09	226.05
368.47	226.05
368.85	226.04
369.23	226.04
369.61	225.99
369.99	226.00
370.37	226.00
370.75	226.05
371.13	226.02
371.51	225.98
371.89	225.96
372.27	225.94
372.65	225.92
373.03	225.88
373.41	225.83
373.78	225.78
374.16	225.69
374.54	225.61
374.92	225.56
375.30	225.52
375.68	225.46
376.06	225.41
376.44	225.36
376.82	225.31
377.19	225.26
377.57	225.21
377.95	225.13
378.33	225.07
378.71	224.93
379.09	224.88
379.47	224.84
379.84	224.78
380.22	224.72
380.60	224.65
380.98	224.60
381.36	224.55
381.73	224.49
382.11	224.47
382.49	224.42
382.87	224.36
383.25	224.31
383.62	224.39
384.00	224.32
384.38	224.28
384.76	224.26
385.13	224.24
385.51	224.20
385.89	224.15
386.27	224.12
386.64	224.09
387.02	224.05
387.40	224.00
387.78	223.97
388.15	223.95
388.53	223.92
388.91	223.89
389.29	223.85
389.66	223.84
390.04	223.80
390.42	223.79
390.79	223.78
391.17	223.76
391.55	223.63
391.92	223.61
392.30	223.61
392.68	223.57
393.05	223.56
393.43	223.55
393.81	223.56
394.18	223.54
394.56	223.54
394.94	223.57
395.31	223.56
395.69	223.60
396.06	223.62
396.44	223.64
396.82	223.65
397.19	223.72
397.57	223.73
397.95	223.77
398.32	223.77
398.70	223.81
399.07	223.86
399.45	223.90
399.82	223.94
400.20	223.97
400.58	224.03
400.95	224.04
401.33	224.11
401.70	224.24
402.08	224.33
402.45	224.41
402.83	224.51
403.20	224.61
403.58	224.69
403.95	224.81
404.33	224.94
404.71	225.07
405.08	225.25
405.46	225.39
405.83	225.55
406.21	225.72
406.58	225.91
406.96	226.09
407.33	226.31
407.70	226.54
408.08	226.87
408.45	227.15
408.83	227.45
409.20	227.73
409.58	227.98
409.95	228.32
410.33	228.69
410.70	229.04
411.08	229.45
411.45	229.89
411.82	230.32
412.20	230.82
412.57	231.41
412.95	231.88
413.32	232.50
413.69	233.12
414.07	233.79
414.44	234.51
414.82	235.25
415.19	236.12
415.56	236.99
415.94	237.90
416.31	238.93
416.68	239.96
417.06	241.15
417.43	242.26
417.81	243.54
418.18	244.85
418.55	246.27
418.93	247.76
419.30	249.31
419.67	250.97
420.04	252.66
420.42	254.44
420.79	256.49
421.16	258.56
421.54	260.66
421.91	262.86
422.28	265.15
422.66	267.61
423.03	269.96
423.40	272.43
423.77	275.07
424.15	277.78
424.52	280.59
424.89	283.64
425.26	286.68
425.64	289.50
426.01	292.66
426.38	295.90
426.75	299.23
427.13	302.65
427.50	306.22
427.87	309.94
428.24	313.68
428.61	317.27
428.99	321.14
429.36	325.38
429.73	329.44
430.10	333.48
430.47	337.62
430.85	341.86
431.22	346.39
431.59	351.03
431.96	355.56
432.33	360.57
432.70	365.31
433.08	370.93
433.45	376.23
433.82	381.45
434.19	387.27
434.56	392.99
434.93	398.50
435.30	403.96
435.68	410.09
436.05	416.10
436.42	422.08
436.79	427.54
437.16	433.43
437.53	439.74
437.90	446.05
438.27	452.20
438.64	458.89
439.01	464.93
439.38	470.45
439.75	475.77
440.13	481.86
440.50	487.65
440.87	492.21
441.24	497.23
441.61	502.77
441.98	506.83
442.35	511.66
442.72	516.61
443.09	521.35
443.46	524.42
443.83	526.69
444.20	528.63
444.57	531.45
444.94	533.15
445.31	534.90
445.68	536.46
446.05	537.65
446.42	537.54
446.79	537.33
447.16	537.17
447.53	537.06
447.90	535.31
448.27	533.69
448.64	531.07
449.01	529.35
449.37	525.58
449.74	522.15
450.11	517.73
450.48	512.84
450.85	507.93
451.22	503.77
451.59	499.69
451.96	495.98
452.33	490.52
452.70	485.66
453.07	479.73
453.43	473.79
453.80	468.03
454.17	462.51
454.54	457.38
454.91	451.58
455.28	446.12
455.65	440.97
456.02	435.48
456.38	431.07
456.75	425.36
457.12	420.75
457.49	416.10
457.86	411.65
458.23	407.78
458.59	403.48
458.96	399.05
459.33	395.16
459.70	391.18
460.07	388.17
460.43	384.60
460.80	381.25
461.17	378.30
461.54	375.12
461.91	372.15
462.27	369.12
462.64	366.65
463.01	363.82
463.38	360.95
463.74	358.37
464.11	356.06
464.48	353.98
464.85	351.75
465.21	350.04
465.58	348.16
465.95	345.97
466.32	344.23
466.68	342.52
467.05	340.80
467.42	339.15
467.78	337.36
468.15	335.71
468.52	334.48
468.88	332.88
469.25	331.41
469.62	330.24
469.98	328.97
470.35	327.84
470.72	326.82
471.08	325.79
471.45	324.93
471.82	323.98
472.18	322.99
472.55	322.36
472.92	321.57
473.28	320.95
473.65	320.32
474.02	319.71
474.38	319.22
474.75	318.95
475.11	318.53
475.48	318.37
475.85	318.21
476.21	318.16
476.58	318.16
476.94	318.34
477.31	318.46
477.67	318.61
478.04	318.86
478.41	319.19
478.77	319.65
479.14	319.98
479.50	320.53
479.87	321.20
480.23	321.88
480.60	322.54
480.96	323.22
481.33	324.16
481.69	325.11
482.06	326.04
482.42	326.93
482.79	328.00
483.15	329.22
483.52	330.58
483.88	331.90
484.25	333.31
484.61	334.77
484.98	336.35
485.34	338.11
485.71	339.94
486.07	341.89
486.44	343.83
486.80	345.99
487.17	348.20
487.53	350.63
487.90	353.15
488.26	355.89
488.62	358.78
488.99	361.67
489.35	364.68
489.72	367.94
490.08	371.37
490.44	374.90
490.81	378.59
491.17	382.36
491.54	386.39
491.90	390.52
492.26	394.98
492.63	399.66
492.99	404.53
493.36	409.53
493.72	414.80
494.08	420.20
494.45	425.90
494.81	431.82
495.17	437.85
495.54	444.23
495.90	450.91
496.26	457.72
496.63	464.78
496.99	472.12
497.35	479.82
497.72	487.81
498.08	495.95
498.44	504.36
498.80	513.32
499.17	522.51
499.53	532.01
499.89	541.75
500.26	551.66
500.62	561.85
500.98	572.69
501.34	583.68
501.71	595.21
502.07	606.95
502.43	619.10
502.79	631.57
503.16	644.44
503.52	657.50
503.88	670.93
504.24	684.79
504.60	698.95
504.97	713.49
505.33	728.38
505.69	744.18
506.05	760.18
506.41	776.16
506.78	792.47
507.14	809.26
507.50	826.65
507.86	844.41
508.22	862.43
508.59	880.49
508.95	899.25
509.31	918.46
509.67	938.35
510.03	958.46
510.39	978.80
510.75	999.35
511.12	1020.20
511.48	1041.38
511.84	1062.66
512.20	1084.25
512.56	1106.92
512.92	1129.82
513.28	1152.43
513.64	1175.38
514.00	1198.73
514.37	1222.39
514.73	1246.10
515.09	1269.64
515.45	1293.60
515.81	1318.12
516.17	1342.68
516.53	1366.94
516.89	1391.31
517.25	1415.85
517.61	1440.57
517.97	1465.51
518.33	1490.20
518.69	1515.04
519.05	1540.13
519.41	1565.35
519.77	1590.85
520.13	1615.62
520.49	1640.53
520.85	1665.69
521.21	1690.73
521.57	1716.40
521.93	1741.38
522.29	1767.19
522.65	1792.74
523.01	1818.10
523.37	1842.74
523.73	1868.05
524.09	1893.51
524.45	1918.85
524.81	1943.72
525.17	1968.51
525.53	1992.90
525.89	2017.34
526.25	2041.99
526.61	2066.10
526.97	2090.53
527.33	2114.87
527.68	2138.95
528.04	2162.28
528.40	2185.46
528.76	2208.85
529.12	2231.21
529.48	2253.93
529.84	2274.82
530.20	2296.27
530.56	2317.35
530.91	2338.56
531.27	2359.27
531.63	2379.33
531.99	2398.87
532.35	2418.11
532.71	2437.47
533.07	2457.36
533.42	2475.77
533.78	2494.55
534.14	2513.27
534.50	2531.15
534.86	2549.67
535.21	2566.42
535.57	2583.06
535.93	2599.02
536.29	2613.73
536.65	2629.30
537.00	2643.73
537.36	2658.68
537.72	2672.60
538.08	2686.23
538.44	2698.69
538.79	2711.30
539.15	2722.29
539.51	2733.22
539.87	2743.76
540.22	2752.15
540.58	2760.72
540.94	2769.80
541.29	2777.43
541.65	2784.06
542.01	2790.16
542.37	2794.44
542.72	2800.68
543.08	2806.31
543.44	2811.76
543.79	2816.44
544.15	2820.15
544.51	2823.91
544.87	2826.78
545.22	2829.21
545.58	2830.63
545.94	2832.56
546.29	2833.03
546.65	2833.58
547.01	2834.24
547.36	2835.01
547.72	2835.93
548.07	2835.35
548.43	2834.16
548.79	2832.31
549.14	2830.53
549.50	2829.36
549.86	2827.20
550.21	2822.61
550.57	2818.51
550.92	2813.05
551.28	2808.18
551.64	2803.25
551.99	2798.69
552.35	2793.70
552.70	2788.27
553.06	2783.63
553.41	2778.47
553.77	2772.69
554.13	2767.67
554.48	2761.65
554.84	2754.04
555.19	2746.61
555.55	2738.57
555.90	2731.11
556.26	2724.64
556.61	2717.52
556.97	2708.19
557.32	2699.83
557.68	2691.84
558.03	2683.22
558.39	2675.25
558.74	2667.49
559.10	2658.50
559.45	2649.13
559.81	2640.11
560.16	2630.38
560.52	2620.21
560.87	2611.08
561.23	2601.57
561.58	2591.56
561.94	2581.30
562.29	2570.54
562.64	2560.36
563.00	2550.54
563.35	2540.53
563.71	2529.62
564.06	2518.20
564.42	2507.81
564.77	2497.06
565.12	2486.41
565.48	2475.54
565.83	2465.32
566.19	2455.08
566.54	2444.41
566.89	2432.86
567.25	2421.22
567.60	2410.48
567.96	2399.27
568.31	2386.63
568.66	2373.98
569.02	2362.39
569.37	2350.56
569.72	2339.24
570.08	2327.21
570.43	2314.66
570.78	2301.75
571.14	2288.64
571.49	2276.33
571.84	2264.35
572.20	2251.02
572.55	2238.08
572.90	2225.00
573.26	2210.98
573.61	2196.39
573.96	2182.12
574.31	2168.21
574.67	2154.56
575.02	2140.48
575.37	2125.94
575.72	2111.70
576.08	2098.05
576.43	2083.31
576.78	2068.63
577.13	2054.75
577.49	2040.90
577.84	2027.42
578.19	2013.12
578.54	1998.47
578.90	1983.25
579.25	1967.78
579.60	1953.77
579.95	1939.39
580.30	1925.03
580.66	1910.97
581.01	1896.52
581.36	1882.45
581.71	1868.94
582.06	1854.87
582.42	1840.88
582.77	1827.64
583.12	1814.03
583.47	1800.47
583.82	1787.05
584.17	1773.54
584.53	1759.87
584.88	1746.20
585.23	1732.15
585.58	1718.61
585.93	1705.49
586.28	1693.23
586.63	1680.74
586.98	1667.54
587.34	1654.56
587.69	1641.10
588.04	1627.87
588.39	1615.33
588.74	1602.26
589.09	1588.93
589.44	1575.61
589.79	1562.84
590.14	1549.94
590.49	1537.24
590.84	1524.42
591.19	1512.22
591.54	1499.51
591.89	1486.64
592.25	1474.09
592.60	1461.19
592.95	1448.86
593.30	1436.85
593.65	1424.58
594.00	1412.52
594.35	1401.22
594.70	1389.15
595.05	1378.15
595.40	1366.96
595.75	1355.16
596.10	1344.16
596.45	1333.37
596.80	1323.04
597.15	1312.50
597.50	1301.95
597.85	1291.61
598.19	1281.46
598.54	1270.68
598.89	1260.67
599.24	1250.95
599.59	1241.01
599.94	1232.10
600.29	1223.06
600.64	1213.77
600.99	1203.91
601.34	1194.55
601.69	1184.58
602.04	1175.67
602.39	1166.60
602.74	1157.80
603.08	1149.23
603.43	1140.17
603.78	1130.99
604.13	1121.98
604.48	1112.90
604.83	1104.07
605.18	1095.16
605.53	1086.18
605.87	1077.35
606.22	1068.77
606.57	1059.94
606.92	1051.19
607.27	1042.27
607.62	1033.44
607.96	1024.81
608.31	1017.19
608.66	1009.13
609.01	1001.52
609.36	993.85
609.70	985.94
610.05	977.87
610.40	970.15
610.75	962.55
611.10	955.23
611.44	947.51
611.79	940.10
612.14	932.30
612.49	924.66
612.83	917.49
613.18	910.38
613.53	903.07
613.88	895.86
614.22	889.25
614.57	882.47
614.92	875.68
615.27	868.90
615.61	861.97
615.96	855.26
616.31	848.48
616.65	841.59
617.00	834.96
617.35	828.46
617.70	821.99
618.04	815.60
618.39	809.22
618.74	803.17
619.08	796.93
619.43	790.96
619.78	785.01
620.12	778.87
620.47	772.90
620.82	767.03
621.16	761.46
621.51	755.52
621.85	749.60
622.20	743.73
622.55	738.05
622.89	732.31
623.24	726.63
623.59	721.01
623.93	715.44
624.28	710.02
624.62	704.58
624.97	699.11
625.32	693.75
625.66	688.25
626.01	682.75
626.35	677.40
626.70	672.09
627.04	666.97
627.39	661.89
627.73	656.93
628.08	652.19
628.43	647.33
628.77	642.56
629.12	637.91
629.46	633.44
629.81	628.77
630.15	623.97
630.50	619.36
630.84	614.93
631.19	610.69
631.53	606.48
631.88	602.17
632.22	597.96
632.57	594.00
632.91	590.00
633.26	586.08
633.60	582.23
633.95	578.49
634.29	574.60
634.64	570.67
634.98	566.63
635.32	562.75
635.67	559.01
636.01	555.21
636.36	551.45
636.70	547.84
637.05	544.21
637.39	540.81
637.73	537.26
638.08	533.77
638.42	530.25
638.77	526.60
639.11	522.94
639.45	519.33
639.80	515.71
640.14	512.28
640.49	508.81
640.83	505.22
641.17	501.67
641.52	498.30
641.86	494.92
642.20	491.71
642.55	488.37
642.89	485.09
643.23	482.03
643.58	479.20
643.92	476.24
644.26	473.31
644.61	470.36
644.95	467.43
645.29	464.45
645.64	461.43
645.98	458.56
646.32	455.86
646.66	453.17
647.01	450.44
647.35	447.75
647.69	444.96
648.04	442.32
648.38	439.71
648.72	437.06
649.06	434.50
649.41	431.95
649.75	429.39
650.09	426.88
650.43	424.35
650.78	421.81
651.12	419.26
651.46	416.81
651.80	414.47
652.14	412.20
652.49	409.93
652.83	407.73
653.17	405.50
653.51	403.35
653.85	401.26
654.20	399.12
654.54	396.88
654.88	394.85
655.22	392.87
655.56	390.85
655.90	388.92
656.25	387.00
656.59	385.09
656.93	383.28
657.27	381.51
657.61	379.64
657.95	377.83
658.29	376.03
658.64	374.25
658.98	372.46
659.32	370.69
659.66	369.03
660.00	367.38
660.34	365.77
660.68	364.09
661.02	362.36
661.36	360.74
661.70	359.20
662.05	357.63
662.39	356.05
662.73	354.56
663.07	353.10
663.41	351.65
663.75	350.23
664.09	348.81
664.43	347.31
664.77	345.91
665.11	344.45
665.45	343.07
665.79	341.70
666.13	340.31
666.47	338.91
666.81	337.49
667.15	336.03
667.49	334.67
667.83	333.37
668.17	332.10
668.51	330.85
668.85	329.61
669.19	328.46
669.53	327.23
669.87	325.98
670.21	324.76
670.55	323.56
670.89	322.43
671.23	321.27
671.57	320.13
671.91	319.04
672.25	318.01
672.58	316.97
672.92	315.90
673.26	314.89
673.60	313.89
673.94	312.87
674.28	311.92
674.62	310.96
674.96	309.97
675.30	309.04
675.64	308.09
675.97	307.15
676.31	306.17
676.65	305.22
676.99	304.34
677.33	303.40
677.67	302.50
678.01	301.53
678.34	300.62
678.68	299.79
679.02	298.91
679.36	298.04
679.70	297.18
680.04	296.35
680.37	295.51
680.71	294.70
681.05	293.95
681.39	293.15
681.73	292.32
682.06	291.52
682.40	290.74
682.74	289.98
683.08	289.24
683.42	288.49
683.75	287.81
684.09	287.06
684.43	286.35
684.77	285.62
685.10	284.95
685.44	284.25
685.78	283.55
686.12	282.88
686.45	282.20
686.79	281.52
687.13	280.87
687.46	280.19
687.80	279.54
688.14	278.83
688.48	278.19
688.81	277.56
689.15	276.97
689.49	276.33
689.82	275.71
690.16	275.04
690.50	274.44
690.83	273.83
691.17	273.23
691.51	272.66
691.84	272.10
692.18	271.51
692.52	270.91
692.85	270.33
693.19	269.79
693.52	269.24
693.86	268.69
694.20	268.15
694.53	267.63
694.87	267.09
695.21	266.59
695.54	266.08
695.88	265.56
696.21	265.01
696.55	264.51
696.88	264.00
697.22	263.52
697.56	263.03
697.89	262.49
698.23	261.99
698.56	261.47
698.90	261.00
699.23	260.52
699.57	260.08
699.90	259.62
700.24	259.13
700.58	258.69
700.91	258.27
701.25	257.93
701.58	257.55
701.92	257.17
702.25	256.75
702.59	256.32
702.92	255.93
703.26	255.54
703.59	255.14
703.93	254.83
704.26	254.46
704.60	254.08
704.93	253.72
705.26	253.36
705.60	253.03
705.93	252.65
706.27	252.34
706.60	252.01
706.94	251.69
707.27	251.31
707.61	250.96
707.94	250.59
708.27	250.15
708.61	249.78
708.94	249.41
709.28	249.08
709.61	248.76
709.94	248.46
710.28	248.16
710.61	247.88
710.95	247.49
711.28	247.26
711.61	246.98
711.95	246.72
712.28	246.43
712.61	246.13
712.95	245.91
713.28	245.68
713.61	245.41
713.95	245.11
714.28	244.88
714.61	244.62
714.95	244.37
715.28	244.11
715.61	243.86
715.95	243.64
716.28	243.40
716.61	243.18
716.95	242.93
717.28	242.71
717.61	242.47
717.94	242.25
718.28	241.95
718.61	241.73
718.94	241.48
719.27	241.27
719.61	241.08
719.94	240.84
720.27	240.57
720.60	240.37
720.94	240.18
721.27	239.99
721.60	239.81
721.93	239.62
722.27	239.48
722.60	239.31
722.93	239.10
723.26	238.93
723.59	238.73
723.93	238.57
724.26	238.40
724.59	238.22
724.92	238.06
725.25	237.93
725.59	237.77
725.92	237.63
726.25	237.47
726.58	237.31
726.91	237.15
727.24	237.01
727.57	236.86
727.91	236.69
728.24	236.55
728.57	236.39
728.90	236.26
729.23	236.08
729.56	235.98
729.89	235.85
730.22	235.69
730.55	235.55
730.89	235.41
731.22	235.27
731.55	235.13
731.88	235.00
732.21	234.85
732.54	234.72
732.87	234.60
733.20	234.48
733.53	234.37
733.86	234.26
734.19	234.12
734.52	234.02
734.85	233.98
735.18	233.85
735.51	233.77
735.84	233.66
736.17	233.57
736.50	233.41
736.83	233.42
737.16	233.32
737.49	233.23
737.82	233.12
738.15	233.04
738.48	232.94
738.81	232.84
739.14	232.73
739.47	232.62
739.80	232.51
740.13	232.42
740.46	232.31
740.79	232.20
741.12	232.10
741.45	231.99
741.78	231.84
742.11	231.78
742.44	231.67
742.77	231.59
743.10	231.48
743.43	231.40
743.75	231.20
744.08	231.27
744.41	231.18
744.74	231.09
745.07	230.98
745.40	230.92
745.73	230.87
746.06	230.80
746.39	230.74
746.71	230.65
747.04	230.56
747.37	230.48
747.70	230.43
748.03	230.36
748.36	230.30
748.68	230.22
749.01	230.12
749.34	230.05
749.67	229.98
750.00	229.93
750.33	229.93
750.65	229.88
750.98	229.66
751.31	229.59
751.64	229.53
751.97	229.52
752.29	229.44
752.62	229.33
752.95	229.25
753.28	229.17
753.60	229.11
753.93	229.07
754.26	229.01
754.59	228.92
754.91	228.84
755.24	228.76
755.57	228.74
755.90	228.68
756.22	228.61
756.55	228.53
756.88	228.45
757.20	228.32
757.53	228.23
757.86	228.17
758.19	228.12
758.51	228.07
758.84	227.96
759.17	227.90
759.49	227.86
759.82	227.86
760.15	227.82
760.47	227.76
760.80	227.69
761.13	227.66
761.45	227.61
761.78	227.56
762.11	227.52
762.43	227.41
762.76	227.37
763.08	227.34
763.41	227.30
763.74	227.26
764.06	227.21
764.39	227.18
764.71	227.13
765.04	227.07
765.37	227.03
765.69	226.98
766.02	226.94
766.34	226.89
766.67	226.80
767.00	226.78
767.32	226.80
767.65	226.82
767.97	226.77
768.30	226.73
768.62	226.70
768.95	226.64
769.27	226.61
769.60	226.59
769.92	226.53
770.25	226.47
770.57	226.42
770.90	226.38
771.22	226.34
771.55	226.31
771.87	226.29
772.20	226.25
772.52	226.31
772.85	226.40
773.17	226.37
773.50	226.33
773.82	226.28
774.15	226.20
774.47	226.10
774.80	226.06
775.12	226.03
775.45	226.00
775.77	225.98
776.09	225.96
776.42	225.94
776.74	225.95
777.07	225.92
777.39	225.90
777.72	225.86
778.04	225.85
778.36	225.82
778.69	225.79
779.01	225.78
779.33	225.66
779.66	225.52
779.98	225.50
780.31	225.48
780.63	225.50
780.95	225.50
781.28	225.48
781.60	225.46
781.92	225.44
782.25	225.42
782.57	225.40
782.89	225.37
783.22	225.34
783.54	225.30
783.86	225.29
784.19	225.27
784.51	225.29
784.83	225.26
785.16	225.24
785.48	225.22
785.80	225.20
786.12	225.19
786.45	225.17
786.77	225.16
787.09	225.14
787.42	225.08
787.74	225.07
788.06	225.05
788.38	225.03
788.71	225.01
789.03	225.00
789.35	224.99
789.67	224.96
789.99	224.95
790.32	224.93
790.64	224.92
790.96	225.00
791.28	224.94
791.61	224.92
791.93	224.92
792.25	224.90
792.57	224.95
792.89	224.92
793.21	224.92
793.54	224.89
793.86	224.86
794.18	224.86
794.50	224.82
794.82	224.81
795.14	224.81
795.47	224.82
795.79	224.80
796.11	224.76
796.43	224.75
796.75	224.74
797.07	224.73
797.39	224.71
797.71	224.62
798.04	224.61
798.36	224.60
798.68	224.59
799.00	224.58
799.32	224.52
799.64	224.53
799.96	224.52
800.28	224.53
800.60	224.52
800.92	224.51
801.24	224.49
801.56	224.49
801.89	224.47
802.21	224.47
802.53	224.44
802.85	224.45
803.17	224.49
803.49	224.46
803.81	224.44
804.13	224.42
804.45	224.40
804.77	224.40
805.09	224.39
805.41	224.37
805.73	224.34
806.05	224.30
806.37	224.29
806.69	224.27
807.01	224.25
807.33	224.25
807.65	224.20
807.97	224.24
808.28	224.22
808.60	224.20
808.92	224.18
809.24	224.23
809.56	224.21
809.88	224.16
810.20	224.16
810.52	224.17
810.84	224.15
811.16	224.14
811.48	224.12
811.80	224.15
812.12	224.13
812.43	224.15
812.75	224.15
813.07	224.13
813.39	224.12
813.71	224.11
814.03	224.09
814.35	224.09
814.67	224.04
814.98	224.03
815.30	224.03
815.62	224.01
815.94	223.93
816.26	223.94
816.58	223.92
816.89	223.92
817.21	223.89
817.53	223.90
817.85	223.89
818.17	223.89
818.48	223.84
818.80	223.86
819.12	223.83
819.44	223.81
819.76	223.79
820.07	223.79
820.39	223.78
820.71	223.79
821.03	223.78
821.34	223.77
821.66	223.78
821.98	223.79
822.30	223.78
822.61	223.84
822.93	223.82
823.25	223.81
823.57	223.80
823.88	223.81
824.20	223.80
824.52	223.81
824.83	223.81
825.15	223.80
825.47	223.79
825.79	223.79
826.10	223.78
826.42	223.78
826.74	223.79
827.05	223.79
827.37	223.78
827.69	223.77
828.00	223.77
828.32	223.76
828.64	223.75
828.95	223.80
829.27	223.76
829.58	223.77
829.90	223.78
830.22	223.78
830.53	223.76
830.85	223.75
831.17	223.72
831.48	223.72
831.80	223.72
832.11	223.71
832.43	223.70
832.75	223.70
833.06	223.75
833.38	223.72
833.69	223.71
834.01	223.71
834.32	223.71
834.64	223.70
834.96	223.69
835.27	223.68
835.59	223.64
835.90	223.62
836.22	223.62
836.53	223.59
836.85	223.58
837.16	223.69
837.48	223.68
837.79	223.72
838.11	223.72
838.42	223.72
838.74	223.72
839.05	223.71
839.37	223.71
839.68	223.65
840.00	223.64
840.31	223.66
840.63	223.64
840.94	223.63
841.26	223.63
841.57	223.63
841.88	223.64
842.20	223.62
842.51	223.61
842.83	223.60
843.14	223.69
843.46	223.69
843.77	223.62
844.08	223.61
844.40	223.58
844.71	223.56
845.03	223.55
845.34	223.54
845.65	223.54
845.97	223.54
846.28	223.54
846.60	223.55
846.91	223.53
847.22	223.53
847.54	223.55
847.85	223.55
848.16	223.54
848.48	223.51
848.79	223.55
849.10	223.56
849.42	223.57
849.73	223.47
850.04	223.47
850.36	223.43
850.67	223.45
850.98	223.45
851.30	223.46
851.61	223.45
851.92	223.45
852.23	223.48
852.55	223.48
852.86	223.48
853.17	223.48
853.49	223.50
853.80	223.52
854.11	223.53
854.42	223.53
854.74	223.53
855.05	223.53
855.36	223.48
855.67	223.47
855.99	223.47
856.30	223.60
856.61	223.59
856.92	223.60
857.23	223.60
857.55	223.59
857.86	223.58
858.17	223.60
858.48	223.58
858.79	223.56
859.11	223.57
859.42	223.56
859.73	223.55
860.04	223.54
860.35	223.51
860.66	223.47
860.98	223.47
861.29	223.48
861.60	223.47
861.91	223.50
862.22	223.48
862.53	223.46
862.84	223.35
863.16	223.36
863.47	223.35
863.78	223.33
864.09	223.34
864.40	223.35
864.71	223.34
865.02	223.36
865.33	223.35
865.64	223.33
865.95	223.33
866.27	223.39
866.58	223.38
866.89	223.40
867.20	223.40
867.51	223.38
867.82	223.37
868.13	223.40
868.44	223.38
868.75	223.40
869.06	223.40
869.37	223.41
869.68	223.39
869.99	223.41
870.30	223.41
870.61	223.42
870.92	223.40
871.23	223.39
871.54	223.40
871.85	223.43
872.16	223.44
872.47	223.43
872.78	223.37
873.09	223.37
873.40	223.36
873.71	223.37
874.02	223.38
874.33	223.37
874.64	223.34
874.95	223.36
875.26	223.34
875.56	223.34
875.87	223.33
876.18	223.33
876.49	223.42
876.80	223.41
877.11	223.40
877.42	223.40
877.73	223.40
878.04	223.39
878.35	223.38
878.66	223.38
878.96	223.39
879.27	223.39
879.58	223.38
879.89	223.38
880.20	223.40
880.51	223.40
880.82	223.40
881.12	223.40
881.43	223.38
881.74	223.37
882.05	223.36
882.36	223.37
882.67	223.37
882.97	223.26
883.28	223.25
883.59	223.25
883.90	223.26
884.21	223.27
884.51	223.26
884.82	223.25
885.13	223.24
885.44	223.24
885.74	223.23
886.05	223.23
886.36	223.23
886.67	223.19
886.98	223.24
887.28	223.25
887.59	223.25
887.90	223.25
888.20	223.25
888.51	223.27
888.82	223.25
889.13	223.26
889.43	223.35
889.74	223.34
890.05	223.34
890.35	223.33
890.66	223.31
890.97	223.30
891.28	223.29
891.58	223.30
891.89	223.30
892.20	223.29
892.50	223.27
892.81	223.27
893.12	223.26
893.42	223.21
893.73	223.21
894.04	223.21
894.34	223.21
894.65	223.21
894.95	223.20
895.26	223.21
895.57	223.25
895.87	223.15
896.18	223.16
896.48	223.16
896.79	223.17
897.10	223.18
897.40	223.18
897.71	223.19
898.01	223.18
898.32	223.19
898.63	223.19
898.93	223.20
899.24	223.20
899.54	223.19
899.85	223.19
900.15	223.19
900.46	223.19
900.76	223.19
901.07	223.19
901.38	223.18
901.68	223.19
901.99	223.14
902.29	223.14
902.60	223.14
902.90	223.12
903.21	223.12
903.51	223.11
903.82	223.13
904.12	223.13
904.43	223.14
904.73	223.13
905.03	223.13
905.34	223.23
905.64	223.22
905.95	223.22
906.25	223.22
906.56	223.21
906.86	223.21
907.17	223.20
907.47	223.21
907.77	223.20
908.08	223.17
908.38	223.18
908.69	223.18
908.99	223.20
909.30	223.21
909.60	223.21
909.90	223.21
910.21	223.19
910.51	223.17
910.81	223.17
911.12	223.18
911.42	223.18
911.73	223.07
912.03	223.08
912.33	223.10
912.64	223.09
912.94	223.08
913.24	223.07
913.55	223.06
913.85	223.05
914.15	223.07
914.46	223.09
914.76	223.07
915.06	223.07
915.37	223.05
915.67	223.04
915.97	223.04
916.27	223.02
916.58	223.03
916.88	223.03
917.18	223.02
917.49	223.09
917.79	223.08
918.09	223.09
918.39	223.12
918.70	223.11
919.00	223.12
919.30	223.17
919.60	223.16
919.91	223.16
920.21	223.16
920.51	223.14
920.81	223.13
921.12	223.15
921.42	223.14
921.72	223.15
922.02	223.16
922.32	223.17
922.63	223.17
922.93	223.22
923.23	223.23
923.53	223.22
923.83	223.15
924.13	223.16
924.44	223.16
924.74	223.17
925.04	223.19
925.34	223.19
925.64	223.14
925.94	223.15
926.24	223.21
926.55	223.19
926.85	223.21
927.15	223.21
927.45	223.20
927.75	223.20
928.05	223.20
928.35	223.19
928.65	223.21
928.95	223.22
929.26	223.17
929.56	223.19
929.86	223.20
930.16	223.19
930.46	223.18
930.76	223.19
931.06	223.13
931.36	223.10
931.66	223.12
931.96	223.13
932.26	223.13
932.56	223.09
932.86	223.10
933.16	223.09
933.46	223.08
933.76	223.07
934.06	223.09
934.36	223.12
934.66	223.12
934.96	223.10
935.26	223.11
935.56	223.12
935.86	223.09
936.16	223.08
936.46	223.07
936.76	223.06
937.06	223.04
937.36	223.05
937.66	223.06
937.96	223.05
938.26	223.03
938.56	223.02
938.86	223.02
939.16	223.04
939.46	223.05
939.76	223.06
940.06	223.05
940.35	223.03
940.65	222.98
940.95	222.99
941.25	222.96
941.55	222.95
941.85	222.94
942.15	222.96
942.45	222.99
942.75	222.99
943.04	223.00
943.34	223.01
943.64	223.00
943.94	222.99
944.24	222.99
944.54	222.99
944.84	222.99
945.13	222.98
945.43	222.96
945.73	222.95
946.03	222.94
946.33	222.94
946.62	222.93
946.92	222.92
947.22	222.93
947.52	222.94
947.82	222.95
948.11	222.94
948.41	222.92
948.71	222.89
949.01	222.89
949.31	222.88
949.60	222.88
949.90	222.90
950.20	222.89
950.50	222.89
950.79	222.88
951.09	222.90
951.39	222.90
951.69	222.89
951.98	222.91
952.28	222.91
952.58	222.91
952.87	222.91
953.17	222.93
953.47	222.91
953.76	222.90
954.06	222.88
954.36	222.87
954.66	222.87
954.95	222.90
955.25	222.91
955.55	222.92
955.84	222.90
956.14	222.91
956.44	222.92
956.73	222.90
957.03	222.91
957.32	222.90
957.62	222.90
957.92	222.92
958.21	222.91
958.51	223.03
958.81	223.04
959.10	223.05
959.40	223.07
959.69	223.08
959.99	223.10
960.29	223.11
960.58	223.10
960.88	223.14
961.17	223.13
961.47	223.13
961.76	223.13
962.06	223.14
962.36	223.13
962.65	223.13
962.95	223.14
963.24	223.13
963.54	223.14
963.83	223.15
964.13	223.15
964.42	223.14
964.72	223.05
965.01	223.05
965.31	223.04
965.60	223.02
965.90	223.08
966.19	223.06
966.49	223.07
966.78	223.07
967.08	223.06
967.37	223.06
967.67	223.03
967.96	223.05
968.26	223.05
968.55	223.06
968.85	223.06
969.14	223.06
969.43	223.05
969.73	223.04
970.02	223.03
970.32	223.03
970.61	223.01
970.91	222.98
971.20	222.97
971.49	222.96
971.79	222.97
972.08	222.90
972.38	222.91
972.67	222.90
972.96	222.92
973.26	222.89
973.55	222.92
973.85	222.92
974.14	222.91
974.43	222.91
974.73	222.89
975.02	222.88
975.31	222.88
975.61	222.89
975.90	222.88
976.19	222.87
976.49	222.87
976.78	222.89
977.07	222.88
977.37	222.89
977.66	222.90
977.95	222.88
978.24	222.89
978.54	222.91
978.83	222.90
979.12	222.89
979.42	222.90
979.71	222.87
980.00	222.87
980.29	222.88
980.59	222.86
980.88	222.89
981.17	222.89
981.46	222.89
981.76	222.89
982.05	222.92
982.34	222.93
982.63	222.93
982.93	222.93
983.22	222.96
983.51	222.96
983.80	222.98
984.09	222.99
984.39	222.98
984.68	222.96
984.97	222.97
985.26	222.97
985.55	222.97
985.85	222.95
986.14	222.97
986.43	222.98
986.72	222.97
987.01	222.94
987.30	222.95
987.59	222.94
987.89	222.94
988.18	222.91
988.47	222.90
988.76	222.89
989.05	222.88
989.34	222.86
989.63	222.89
989.92	222.87
990.22	222.85
990.51	222.85
990.80	222.84
991.09	222.85
991.38	222.86
991.67	222.85
991.96	222.84
992.25	222.85
992.54	222.82
992.83	222.83
993.12	222.83
993.41	222.84
993.70	222.88
993.99	222.90
994.28	222.91
994.58	222.93
994.87	222.92
995.16	222.91
995.45	222.91
995.74	222.87
996.03	222.89
996.32	222.91
996.61	222.92
996.90	222.92
997.19	222.92
997.48	222.92
997.77	222.91
998.06	222.92
998.34	222.90
998.63	222.90
998.92	222.91
999.21	222.93
999.50	222.92
999.79	222.89
1000.08	222.89
1000.37	222.89
1000.66	222.87
1000.95	222.90
1001.24	222.90
1001.53	222.91
1001.82	222.91
1002.11	222.89
1002.40	222.89
1002.68	222.91
1002.97	222.99
1003.26	222.97
1003.55	222.95
1003.84	222.96
1004.13	223.00
1004.42	222.99
1004.71	222.99
1004.99	222.99
1005.28	223.00
1005.57	223.00
1005.86	222.99
1006.15	222.98
1006.44	222.96
1006.72	222.98
1007.01	222.96
1007.30	222.96
1007.59	222.95
1007.88	222.95
1008.17	222.96
1008.45	222.93
1008.74	222.89
1009.03	222.84
1009.32	222.85
1009.60	222.85
1009.89	222.84
1010.18	222.80
1010.47	222.80
1010.76	222.80
1011.04	222.80
1011.33	222.79
1011.62	222.80
1011.91	222.81
1012.19	222.82
1012.48	222.83
1012.77	222.82
1013.05	222.85
1013.34	222.85
1013.63	222.85
1013.92	222.86
1014.20	222.85
1014.49	222.86
1014.78	222.87
1015.06	222.84
1015.35	222.84
1015.64	222.85
1015.92	222.87
1016.21	222.87
1016.50	222.87
1016.78	222.89
1017.07	222.90
1017.36	222.88
1017.64	222.86
1017.93	222.86
1018.22	222.85
1018.50	222.85
1018.79	222.85
1019.08	222.81
1019.36	222.81
1019.65	222.81
1019.93	222.83
1020.22	222.84
1020.51	222.89
1020.79	222.88
1021.08	222.68
1021.36	222.63
1021.65	222.85
1021.94	222.74
1022.22	222.90
1022.51	222.68
1022.79	223.33
1023.08	223.00
1023.36	224.04
1023.65	222.63
>>>>>End Processed Spectral Data<<<<<
