SpectraSuite Data File
++++++++++++++++++++++++++++++++++++
Date: Thu Oct 01 11:44:21 EDT 2015
User: lab3
Dark Spectrum Present: No
Reference Spectrum Present: No
Number of Sampled Component Spectra: 1
Spectrometers: USB2E7196
Integration Time (usec): 36000 (USB2E7196)
Spectra Averaged: 10000 (USB2E7196)
Boxcar Smoothing: 10 (USB2E7196)
Correct for Electrical Dark: No (USB2E7196)
Strobe/Lamp Enabled: No (USB2E7196)
Correct for Detector Non-linearity: No (USB2E7196)
Correct for Stray Light: No (USB2E7196)
Number of Pixels in Processed Spectrum: 2048
>>>>>Begin Processed Spectral Data<<<<<
339.09	0.00
339.48	210.92
339.86	212.34
340.24	213.75
340.63	215.15
341.01	218.05
341.39	217.72
341.78	219.13
342.16	220.37
342.54	220.86
342.93	209.42
343.31	220.00
343.69	220.54
344.07	221.00
344.46	221.43
344.84	221.82
345.22	222.06
345.60	222.32
345.99	222.51
346.37	222.65
346.75	222.76
347.13	222.84
347.52	222.91
347.90	222.99
348.28	223.03
348.66	223.08
349.05	223.08
349.43	223.13
349.81	223.19
350.19	223.24
350.57	223.31
350.96	223.39
351.34	223.49
351.72	223.58
352.10	223.69
352.48	223.77
352.87	223.82
353.25	223.89
353.63	223.95
354.01	224.02
354.39	224.10
354.77	224.18
355.15	224.28
355.54	224.33
355.92	224.37
356.30	224.45
356.68	224.58
357.06	224.66
357.44	224.71
357.82	224.78
358.20	224.89
358.58	224.95
358.97	225.02
359.35	225.10
359.73	225.18
360.11	225.23
360.49	225.29
360.87	225.34
361.25	225.40
361.63	225.48
362.01	225.53
362.39	225.56
362.77	225.61
363.15	225.63
363.53	225.67
363.91	225.70
364.29	225.72
364.67	225.65
365.05	225.67
365.43	225.70
365.81	225.72
366.19	225.74
366.57	225.78
366.95	225.78
367.33	225.76
367.71	225.75
368.09	225.77
368.47	225.76
368.85	225.75
369.23	225.76
369.61	225.70
369.99	225.71
370.37	225.70
370.75	225.76
371.13	225.73
371.51	225.69
371.89	225.67
372.27	225.65
372.65	225.62
373.03	225.58
373.41	225.54
373.78	225.49
374.16	225.39
374.54	225.32
374.92	225.27
375.30	225.22
375.68	225.16
376.06	225.11
376.44	225.06
376.82	225.01
377.19	224.96
377.57	224.91
377.95	224.83
378.33	224.76
378.71	224.62
379.09	224.57
379.47	224.53
379.84	224.47
380.22	224.41
380.60	224.34
380.98	224.29
381.36	224.23
381.73	224.17
382.11	224.15
382.49	224.10
382.87	224.04
383.25	223.99
383.62	224.07
384.00	224.01
384.38	223.96
384.76	223.94
385.13	223.93
385.51	223.89
385.89	223.83
386.27	223.80
386.64	223.78
387.02	223.73
387.40	223.68
387.78	223.66
388.15	223.63
388.53	223.60
388.91	223.57
389.29	223.53
389.66	223.52
390.04	223.48
390.42	223.48
390.79	223.46
391.17	223.45
391.55	223.31
391.92	223.30
392.30	223.30
392.68	223.27
393.05	223.25
393.43	223.24
393.81	223.25
394.18	223.23
394.56	223.23
394.94	223.26
395.31	223.26
395.69	223.29
396.06	223.32
396.44	223.34
396.82	223.36
397.19	223.43
397.57	223.44
397.95	223.48
398.32	223.48
398.70	223.52
399.07	223.58
399.45	223.61
399.82	223.65
400.20	223.69
400.58	223.74
400.95	223.76
401.33	223.84
401.70	223.98
402.08	224.07
402.45	224.15
402.83	224.26
403.20	224.36
403.58	224.45
403.95	224.57
404.33	224.70
404.71	224.84
405.08	225.02
405.46	225.17
405.83	225.34
406.21	225.52
406.58	225.71
406.96	225.91
407.33	226.13
407.70	226.38
408.08	226.72
408.45	227.01
408.83	227.33
409.20	227.63
409.58	227.89
409.95	228.25
410.33	228.64
410.70	229.00
411.08	229.43
411.45	229.88
411.82	230.35
412.20	230.87
412.57	231.50
412.95	232.00
413.32	232.64
413.69	233.31
414.07	234.01
414.44	234.77
414.82	235.55
415.19	236.46
415.56	237.38
415.94	238.34
416.31	239.42
416.68	240.50
417.06	241.76
417.43	242.93
417.81	244.28
418.18	245.66
418.55	247.17
418.93	248.74
419.30	250.38
419.67	252.13
420.04	253.93
420.42	255.81
420.79	257.97
421.16	260.15
421.54	262.37
421.91	264.69
422.28	267.11
422.66	269.71
423.03	272.18
423.40	274.78
423.77	277.57
424.15	280.42
424.52	283.38
424.89	286.59
425.26	289.78
425.64	292.75
426.01	296.07
426.38	299.47
426.75	302.96
427.13	306.53
427.50	310.26
427.87	314.14
428.24	318.05
428.61	321.80
428.99	325.83
429.36	330.25
429.73	334.48
430.10	338.69
430.47	342.99
430.85	347.41
431.22	352.11
431.59	356.94
431.96	361.64
432.33	366.85
432.70	371.78
433.08	377.62
433.45	383.13
433.82	388.54
434.19	394.60
434.56	400.56
434.93	406.30
435.30	411.98
435.68	418.36
436.05	424.62
436.42	430.88
436.79	436.58
437.16	442.74
437.53	449.34
437.90	455.94
438.27	462.38
438.64	469.39
439.01	475.73
439.38	481.53
439.75	487.14
440.13	493.55
440.50	499.67
440.87	504.51
441.24	509.83
441.61	515.69
441.98	520.01
442.35	525.15
442.72	530.44
443.09	535.51
443.46	538.82
443.83	541.29
444.20	543.40
444.57	546.46
444.94	548.33
445.31	550.27
445.68	552.01
446.05	553.37
446.42	553.35
446.79	553.23
447.16	553.15
447.53	553.12
447.90	551.36
448.27	549.73
448.64	547.05
449.01	545.32
449.37	541.40
449.74	537.86
450.11	533.26
450.48	528.17
450.85	523.03
451.22	518.69
451.59	514.44
451.96	510.58
452.33	504.84
452.70	499.74
453.07	493.49
453.43	487.23
453.80	481.17
454.17	475.34
454.54	469.92
454.91	463.79
455.28	458.02
455.65	452.57
456.02	446.75
456.38	442.06
456.75	436.01
457.12	431.13
457.49	426.19
457.86	421.48
458.23	417.33
458.59	412.76
458.96	408.05
459.33	403.89
459.70	399.66
460.07	396.44
460.43	392.65
460.80	389.10
461.17	385.96
461.54	382.57
461.91	379.41
462.27	376.20
462.64	373.57
463.01	370.56
463.38	367.52
463.74	364.79
464.11	362.35
464.48	360.15
464.85	357.79
465.21	355.98
465.58	353.99
465.95	351.69
466.32	349.86
466.68	348.06
467.05	346.27
467.42	344.53
467.78	342.65
468.15	340.92
468.52	339.64
468.88	337.96
469.25	336.43
469.62	335.22
469.98	333.90
470.35	332.72
470.72	331.67
471.08	330.60
471.45	329.72
471.82	328.73
472.18	327.71
472.55	327.05
472.92	326.24
473.28	325.61
473.65	324.96
474.02	324.34
474.38	323.83
474.75	323.56
475.11	323.15
475.48	322.99
475.85	322.84
476.21	322.80
476.58	322.81
476.94	323.02
477.31	323.16
477.67	323.32
478.04	323.60
478.41	323.96
478.77	324.43
479.14	324.77
479.50	325.35
479.87	326.07
480.23	326.79
480.60	327.48
480.96	328.19
481.33	329.18
481.69	330.16
482.06	331.14
482.42	332.05
482.79	333.16
483.15	334.42
483.52	335.84
483.88	337.20
484.25	338.65
484.61	340.16
484.98	341.78
485.34	343.61
485.71	345.50
486.07	347.51
486.44	349.53
486.80	351.75
487.17	354.03
487.53	356.54
487.90	359.14
488.26	361.97
488.62	364.95
488.99	367.93
489.35	371.05
489.72	374.42
490.08	377.96
490.44	381.60
490.81	385.40
491.17	389.30
491.54	393.46
491.90	397.72
492.26	402.33
492.63	407.17
492.99	412.20
493.36	417.34
493.72	422.77
494.08	428.33
494.45	434.21
494.81	440.31
495.17	446.55
495.54	453.13
495.90	460.03
496.26	467.05
496.63	474.34
496.99	481.90
497.35	489.84
497.72	498.09
498.08	506.48
498.44	515.15
498.80	524.39
499.17	533.85
499.53	543.65
499.89	553.68
500.26	563.88
500.62	574.37
500.98	585.56
501.34	596.91
501.71	608.81
502.07	620.92
502.43	633.43
502.79	646.28
503.16	659.54
503.52	673.00
503.88	686.85
504.24	701.10
504.60	715.65
504.97	730.60
505.33	745.94
505.69	762.22
506.05	778.67
506.41	795.14
506.78	811.93
507.14	829.19
507.50	847.06
507.86	865.30
508.22	883.85
508.59	902.41
508.95	921.68
509.31	941.40
509.67	961.85
510.03	982.49
510.39	1003.34
510.75	1024.42
511.12	1045.81
511.48	1067.53
511.84	1089.33
512.20	1111.46
512.56	1134.71
512.92	1158.11
513.28	1181.23
513.64	1204.68
514.00	1228.53
514.37	1252.71
514.73	1276.93
515.09	1300.92
515.45	1325.38
515.81	1350.37
516.17	1375.39
516.53	1400.08
516.89	1424.82
517.25	1449.73
517.61	1474.86
517.97	1500.18
518.33	1525.22
518.69	1550.39
519.05	1575.82
519.41	1601.39
519.77	1627.19
520.13	1652.17
520.49	1677.35
520.85	1702.74
521.21	1728.02
521.57	1753.88
521.93	1779.01
522.29	1804.96
522.65	1830.64
523.01	1856.08
523.37	1880.74
523.73	1906.04
524.09	1931.56
524.45	1957.00
524.81	1981.92
525.17	2006.74
525.53	2031.07
525.89	2055.40
526.25	2079.98
526.61	2104.00
526.97	2128.27
527.33	2152.49
527.68	2176.53
528.04	2199.71
528.40	2222.72
528.76	2245.91
529.12	2268.05
529.48	2290.55
529.84	2311.16
530.20	2332.38
530.56	2353.21
530.91	2374.12
531.27	2394.55
531.63	2414.26
531.99	2433.44
532.35	2452.23
532.71	2471.12
533.07	2490.58
533.42	2508.56
533.78	2526.89
534.14	2545.21
534.50	2562.67
534.86	2580.72
535.21	2596.87
535.57	2612.93
535.93	2628.33
536.29	2642.49
536.65	2657.53
537.00	2671.44
537.36	2685.90
537.72	2699.27
538.08	2712.23
538.44	2724.09
538.79	2736.08
539.15	2746.43
539.51	2756.71
539.87	2766.69
540.22	2774.55
540.58	2782.51
540.94	2790.98
541.29	2797.91
541.65	2803.86
542.01	2809.30
542.37	2812.89
542.72	2818.45
543.08	2823.50
543.44	2828.33
543.79	2832.37
544.15	2835.45
544.51	2838.49
544.87	2840.65
545.22	2842.42
545.58	2843.30
545.94	2844.64
546.29	2844.46
546.65	2844.39
547.01	2844.42
547.36	2844.53
547.72	2844.77
548.07	2843.57
548.43	2841.71
548.79	2839.24
549.14	2836.77
549.50	2834.99
549.86	2832.26
550.21	2827.16
550.57	2822.44
550.92	2816.34
551.28	2810.87
551.64	2805.36
551.99	2800.20
552.35	2794.64
552.70	2788.63
553.06	2783.36
553.41	2777.58
553.77	2771.35
554.13	2765.84
554.48	2759.30
554.84	2751.14
555.19	2743.15
555.55	2734.61
555.90	2726.68
556.26	2719.70
556.61	2712.09
556.97	2702.25
557.32	2693.36
557.68	2684.86
558.03	2675.78
558.39	2667.41
558.74	2659.12
559.10	2649.57
559.45	2639.69
559.81	2630.20
560.16	2620.00
560.52	2609.38
560.87	2599.77
561.23	2589.72
561.58	2579.15
561.94	2568.39
562.29	2557.09
562.64	2546.47
563.00	2536.20
563.35	2525.80
563.71	2514.51
564.06	2502.65
564.42	2491.86
564.77	2480.69
565.12	2469.61
565.48	2458.27
565.83	2447.56
566.19	2436.89
566.54	2425.80
566.89	2413.90
567.25	2401.91
567.60	2390.76
567.96	2379.24
568.31	2366.26
568.66	2353.23
569.02	2341.28
569.37	2329.07
569.72	2317.39
570.08	2305.02
570.43	2292.09
570.78	2278.85
571.14	2265.37
571.49	2252.78
571.84	2240.42
572.20	2226.77
572.55	2213.51
572.90	2200.17
573.26	2185.85
573.61	2171.04
573.96	2156.56
574.31	2142.44
574.67	2128.47
575.02	2114.11
575.37	2099.28
575.72	2084.77
576.08	2070.85
576.43	2055.93
576.78	2041.12
577.13	2027.14
577.49	2013.09
577.84	1999.43
578.19	1984.93
578.54	1970.13
578.90	1954.77
579.25	1939.19
579.60	1925.00
579.95	1910.41
580.30	1895.87
580.66	1881.69
581.01	1867.10
581.36	1852.83
581.71	1839.13
582.06	1824.96
582.42	1810.84
582.77	1797.51
583.12	1783.80
583.47	1770.20
583.82	1756.67
584.17	1743.06
584.53	1729.25
584.88	1715.50
585.23	1701.36
585.58	1687.75
585.93	1674.59
586.28	1662.29
586.63	1649.76
586.98	1636.57
587.34	1623.60
587.69	1610.15
588.04	1596.95
588.39	1584.40
588.74	1571.41
589.09	1558.11
589.44	1544.84
589.79	1532.13
590.14	1519.25
590.49	1506.63
590.84	1493.85
591.19	1481.72
591.54	1469.04
591.89	1456.29
592.25	1443.85
592.60	1431.07
592.95	1418.85
593.30	1406.90
593.65	1394.69
594.00	1382.73
594.35	1371.54
594.70	1359.60
595.05	1348.71
595.40	1337.60
595.75	1325.93
596.10	1315.05
596.45	1304.40
596.80	1294.19
597.15	1283.79
597.50	1273.38
597.85	1263.16
598.19	1253.14
598.54	1242.52
598.89	1232.69
599.24	1223.15
599.59	1213.37
599.94	1204.62
600.29	1195.71
600.64	1186.56
600.99	1176.87
601.34	1167.64
601.69	1157.83
602.04	1149.07
602.39	1140.11
602.74	1131.42
603.08	1122.98
603.43	1114.03
603.78	1105.04
604.13	1096.17
604.48	1087.23
604.83	1078.56
605.18	1069.79
605.53	1060.97
605.87	1052.28
606.22	1043.82
606.57	1035.10
606.92	1026.51
607.27	1017.78
607.62	1009.16
607.96	1000.70
608.31	993.23
608.66	985.31
609.01	977.83
609.36	970.31
609.70	962.56
610.05	954.67
610.40	947.11
610.75	939.68
611.10	932.48
611.44	924.92
611.79	917.65
612.14	910.02
612.49	902.54
612.83	895.52
613.18	888.54
613.53	881.37
613.88	874.31
614.22	867.79
614.57	861.10
614.92	854.42
615.27	847.78
615.61	841.00
615.96	834.43
616.31	827.80
616.65	821.05
617.00	814.57
617.35	808.22
617.70	801.90
618.04	795.64
618.39	789.39
618.74	783.48
619.08	777.42
619.43	771.59
619.78	765.77
620.12	759.76
620.47	753.94
620.82	748.22
621.16	742.77
621.51	737.00
621.85	731.22
622.20	725.48
622.55	719.92
622.89	714.31
623.24	708.75
623.59	703.25
623.93	697.81
624.28	692.51
624.62	687.20
624.97	681.87
625.32	676.65
625.66	671.30
626.01	665.95
626.35	660.72
626.70	655.55
627.04	650.56
627.39	645.62
627.73	640.81
628.08	636.19
628.43	631.46
628.77	626.79
629.12	622.26
629.46	617.88
629.81	613.34
630.15	608.69
630.50	604.20
630.84	599.92
631.19	595.79
631.53	591.71
631.88	587.52
632.22	583.42
632.57	579.56
632.91	575.64
633.26	571.81
633.60	568.04
633.95	564.36
634.29	560.56
634.64	556.71
634.98	552.80
635.32	549.03
635.67	545.39
636.01	541.71
636.36	538.07
636.70	534.57
637.05	531.07
637.39	527.77
637.73	524.33
638.08	520.95
638.42	517.53
638.77	513.99
639.11	510.46
639.45	506.98
639.80	503.48
640.14	500.18
640.49	496.82
640.83	493.36
641.17	489.96
641.52	486.70
641.86	483.45
642.20	480.34
642.55	477.10
642.89	473.94
643.23	470.97
643.58	468.22
643.92	465.36
644.26	462.52
644.61	459.67
644.95	456.83
645.29	453.94
645.64	451.04
645.98	448.27
646.32	445.66
646.66	443.05
647.01	440.41
647.35	437.82
647.69	435.12
648.04	432.59
648.38	430.09
648.72	427.55
649.06	425.08
649.41	422.63
649.75	420.17
650.09	417.75
650.43	415.32
650.78	412.88
651.12	410.43
651.46	408.08
651.80	405.81
652.14	403.62
652.49	401.44
652.83	399.32
653.17	397.19
653.51	395.11
653.85	393.09
654.20	391.03
654.54	388.88
654.88	386.93
655.22	385.03
655.56	383.08
655.90	381.22
656.25	379.38
656.59	377.55
656.93	375.80
657.27	374.10
657.61	372.30
657.95	370.56
658.29	368.84
658.64	367.15
658.98	365.44
659.32	363.75
659.66	362.16
660.00	360.58
660.34	359.03
660.68	357.43
661.02	355.77
661.36	354.22
661.70	352.73
662.05	351.22
662.39	349.70
662.73	348.28
663.07	346.89
663.41	345.50
663.75	344.14
664.09	342.78
664.43	341.34
664.77	340.00
665.11	338.60
665.45	337.28
665.79	335.95
666.13	334.62
666.47	333.27
666.81	331.89
667.15	330.49
667.49	329.19
667.83	327.94
668.17	326.73
668.51	325.54
668.85	324.36
669.19	323.25
669.53	322.07
669.87	320.87
670.21	319.69
670.55	318.54
670.89	317.45
671.23	316.34
671.57	315.24
671.91	314.20
672.25	313.21
672.58	312.21
672.92	311.18
673.26	310.22
673.60	309.26
673.94	308.29
674.28	307.39
674.62	306.47
674.96	305.52
675.30	304.62
675.64	303.70
675.97	302.80
676.31	301.86
676.65	300.94
676.99	300.10
677.33	299.20
677.67	298.34
678.01	297.40
678.34	296.53
678.68	295.73
679.02	294.89
679.36	294.05
679.70	293.23
680.04	292.43
680.37	291.62
680.71	290.85
681.05	290.12
681.39	289.35
681.73	288.54
682.06	287.78
682.40	287.02
682.74	286.30
683.08	285.60
683.42	284.87
683.75	284.22
684.09	283.48
684.43	282.80
684.77	282.10
685.10	281.45
685.44	280.78
685.78	280.11
686.12	279.47
686.45	278.82
686.79	278.17
687.13	277.55
687.46	276.89
687.80	276.26
688.14	275.59
688.48	274.98
688.81	274.36
689.15	273.80
689.49	273.19
689.82	272.60
690.16	271.96
690.50	271.37
690.83	270.79
691.17	270.23
691.51	269.67
691.84	269.14
692.18	268.57
692.52	268.00
692.85	267.44
693.19	266.92
693.52	266.39
693.86	265.87
694.20	265.35
694.53	264.86
694.87	264.35
695.21	263.87
695.54	263.38
695.88	262.89
696.21	262.36
696.55	261.88
696.88	261.40
697.22	260.94
697.56	260.48
697.89	259.98
698.23	259.50
698.56	259.01
698.90	258.56
699.23	258.10
699.57	257.68
699.90	257.25
700.24	256.79
700.58	256.37
700.91	255.98
701.25	255.65
701.58	255.29
701.92	254.92
702.25	254.53
702.59	254.12
702.92	253.75
703.26	253.38
703.59	253.00
703.93	252.71
704.26	252.36
704.60	252.00
704.93	251.65
705.26	251.31
705.60	251.00
705.93	250.64
706.27	250.34
706.60	250.03
706.94	249.73
707.27	249.38
707.61	249.04
707.94	248.70
708.27	248.29
708.61	247.92
708.94	247.59
709.28	247.27
709.61	246.96
709.94	246.68
710.28	246.39
710.61	246.12
710.95	245.76
711.28	245.55
711.61	245.28
711.95	245.03
712.28	244.76
712.61	244.48
712.95	244.28
713.28	244.07
713.61	243.80
713.95	243.53
714.28	243.31
714.61	243.06
714.95	242.82
715.28	242.58
715.61	242.35
715.95	242.13
716.28	241.91
716.61	241.71
716.95	241.49
717.28	241.27
717.61	241.05
717.94	240.84
718.28	240.56
718.61	240.34
718.94	240.12
719.27	239.92
719.61	239.73
719.94	239.51
720.27	239.26
720.60	239.06
720.94	238.87
721.27	238.70
721.60	238.54
721.93	238.36
722.27	238.22
722.60	238.06
722.93	237.87
723.26	237.71
723.59	237.52
723.93	237.36
724.26	237.21
724.59	237.05
724.92	236.90
725.25	236.77
725.59	236.62
725.92	236.49
726.25	236.35
726.58	236.20
726.91	236.05
727.24	235.92
727.57	235.78
727.91	235.63
728.24	235.50
728.57	235.35
728.90	235.23
729.23	235.06
729.56	234.97
729.89	234.84
730.22	234.70
730.55	234.57
730.89	234.44
731.22	234.30
731.55	234.17
731.88	234.05
732.21	233.91
732.54	233.78
732.87	233.67
733.20	233.55
733.53	233.44
733.86	233.34
734.19	233.21
734.52	233.12
734.85	233.08
735.18	232.95
735.51	232.87
735.84	232.76
736.17	232.69
736.50	232.53
736.83	232.55
737.16	232.46
737.49	232.37
737.82	232.28
738.15	232.20
738.48	232.11
738.81	232.01
739.14	231.91
739.47	231.81
739.80	231.71
740.13	231.63
740.46	231.52
740.79	231.41
741.12	231.33
741.45	231.22
741.78	231.08
742.11	231.02
742.44	230.91
742.77	230.84
743.10	230.74
743.43	230.66
743.75	230.46
744.08	230.54
744.41	230.45
744.74	230.37
745.07	230.26
745.40	230.21
745.73	230.18
746.06	230.11
746.39	230.06
746.71	229.98
747.04	229.89
747.37	229.82
747.70	229.77
748.03	229.71
748.36	229.66
748.68	229.58
749.01	229.48
749.34	229.42
749.67	229.35
750.00	229.30
750.33	229.32
750.65	229.26
750.98	229.05
751.31	228.99
751.64	228.93
751.97	228.92
752.29	228.85
752.62	228.74
752.95	228.67
753.28	228.59
753.60	228.53
753.93	228.49
754.26	228.44
754.59	228.35
754.91	228.28
755.24	228.20
755.57	228.19
755.90	228.13
756.22	228.07
756.55	227.99
756.88	227.91
757.20	227.79
757.53	227.70
757.86	227.65
758.19	227.60
758.51	227.55
758.84	227.44
759.17	227.37
759.49	227.33
759.82	227.33
760.15	227.30
760.47	227.25
760.80	227.17
761.13	227.14
761.45	227.09
761.78	227.05
762.11	227.01
762.43	226.91
762.76	226.87
763.08	226.84
763.41	226.80
763.74	226.77
764.06	226.73
764.39	226.69
764.71	226.64
765.04	226.59
765.37	226.54
765.69	226.50
766.02	226.47
766.34	226.42
766.67	226.34
767.00	226.31
767.32	226.33
767.65	226.36
767.97	226.31
768.30	226.28
768.62	226.24
768.95	226.19
769.27	226.15
769.60	226.13
769.92	226.08
770.25	226.03
770.57	225.97
770.90	225.94
771.22	225.90
771.55	225.87
771.87	225.85
772.20	225.81
772.52	225.87
772.85	225.97
773.17	225.94
773.50	225.90
773.82	225.85
774.15	225.77
774.47	225.67
774.80	225.64
775.12	225.61
775.45	225.58
775.77	225.56
776.09	225.54
776.42	225.52
776.74	225.53
777.07	225.50
777.39	225.48
777.72	225.45
778.04	225.44
778.36	225.40
778.69	225.38
779.01	225.37
779.33	225.26
779.66	225.12
779.98	225.09
780.31	225.08
780.63	225.10
780.95	225.10
781.28	225.08
781.60	225.05
781.92	225.04
782.25	225.02
782.57	224.99
782.89	224.97
783.22	224.94
783.54	224.89
783.86	224.89
784.19	224.86
784.51	224.87
784.83	224.84
785.16	224.82
785.48	224.81
785.80	224.79
786.12	224.78
786.45	224.76
786.77	224.75
787.09	224.73
787.42	224.67
787.74	224.66
788.06	224.65
788.38	224.63
788.71	224.61
789.03	224.60
789.35	224.59
789.67	224.57
789.99	224.56
790.32	224.54
790.64	224.53
790.96	224.61
791.28	224.57
791.61	224.55
791.93	224.55
792.25	224.53
792.57	224.59
792.89	224.56
793.21	224.55
793.54	224.53
793.86	224.50
794.18	224.50
794.50	224.47
794.82	224.45
795.14	224.45
795.47	224.46
795.79	224.44
796.11	224.41
796.43	224.40
796.75	224.38
797.07	224.37
797.39	224.35
797.71	224.26
798.04	224.25
798.36	224.25
798.68	224.23
799.00	224.23
799.32	224.16
799.64	224.17
799.96	224.15
800.28	224.16
800.60	224.15
800.92	224.14
801.24	224.13
801.56	224.13
801.89	224.11
802.21	224.10
802.53	224.07
802.85	224.09
803.17	224.12
803.49	224.09
803.81	224.07
804.13	224.06
804.45	224.03
804.77	224.03
805.09	224.01
805.41	224.00
805.73	223.97
806.05	223.93
806.37	223.92
806.69	223.90
807.01	223.88
807.33	223.88
807.65	223.83
807.97	223.87
808.28	223.85
808.60	223.83
808.92	223.81
809.24	223.86
809.56	223.84
809.88	223.80
810.20	223.80
810.52	223.81
810.84	223.78
811.16	223.77
811.48	223.76
811.80	223.79
812.12	223.77
812.43	223.79
812.75	223.79
813.07	223.77
813.39	223.77
813.71	223.75
814.03	223.73
814.35	223.74
814.67	223.69
814.98	223.67
815.30	223.67
815.62	223.65
815.94	223.58
816.26	223.58
816.58	223.56
816.89	223.56
817.21	223.54
817.53	223.54
817.85	223.54
818.17	223.53
818.48	223.49
818.80	223.50
819.12	223.48
819.44	223.46
819.76	223.44
820.07	223.44
820.39	223.43
820.71	223.44
821.03	223.44
821.34	223.43
821.66	223.44
821.98	223.44
822.30	223.43
822.61	223.49
822.93	223.47
823.25	223.47
823.57	223.45
823.88	223.46
824.20	223.46
824.52	223.48
824.83	223.47
825.15	223.46
825.47	223.45
825.79	223.46
826.10	223.45
826.42	223.45
826.74	223.45
827.05	223.45
827.37	223.44
827.69	223.43
828.00	223.44
828.32	223.43
828.64	223.41
828.95	223.47
829.27	223.43
829.58	223.44
829.90	223.45
830.22	223.45
830.53	223.43
830.85	223.42
831.17	223.39
831.48	223.39
831.80	223.39
832.11	223.38
832.43	223.36
832.75	223.35
833.06	223.41
833.38	223.38
833.69	223.37
834.01	223.37
834.32	223.36
834.64	223.35
834.96	223.35
835.27	223.34
835.59	223.30
835.90	223.29
836.22	223.28
836.53	223.25
836.85	223.24
837.16	223.34
837.48	223.34
837.79	223.37
838.11	223.37
838.42	223.36
838.74	223.37
839.05	223.36
839.37	223.36
839.68	223.29
840.00	223.29
840.31	223.30
840.63	223.29
840.94	223.28
841.26	223.27
841.57	223.27
841.88	223.27
842.20	223.26
842.51	223.24
842.83	223.24
843.14	223.32
843.46	223.32
843.77	223.25
844.08	223.25
844.40	223.21
844.71	223.20
845.03	223.19
845.34	223.18
845.65	223.17
845.97	223.17
846.28	223.17
846.60	223.18
846.91	223.16
847.22	223.15
847.54	223.17
847.85	223.18
848.16	223.17
848.48	223.15
848.79	223.18
849.10	223.20
849.42	223.20
849.73	223.10
850.04	223.10
850.36	223.06
850.67	223.07
850.98	223.08
851.30	223.09
851.61	223.08
851.92	223.07
852.23	223.11
852.55	223.12
852.86	223.12
853.17	223.12
853.49	223.14
853.80	223.16
854.11	223.16
854.42	223.17
854.74	223.16
855.05	223.17
855.36	223.12
855.67	223.11
855.99	223.11
856.30	223.24
856.61	223.24
856.92	223.24
857.23	223.24
857.55	223.23
857.86	223.22
858.17	223.23
858.48	223.22
858.79	223.19
859.11	223.19
859.42	223.19
859.73	223.18
860.04	223.17
860.35	223.13
860.66	223.10
860.98	223.10
861.29	223.11
861.60	223.10
861.91	223.12
862.22	223.11
862.53	223.09
862.84	222.96
863.16	222.98
863.47	222.97
863.78	222.95
864.09	222.96
864.40	222.97
864.71	222.97
865.02	222.98
865.33	222.97
865.64	222.95
865.95	222.95
866.27	223.02
866.58	223.00
866.89	223.02
867.20	223.02
867.51	223.00
867.82	223.00
868.13	223.03
868.44	223.00
868.75	223.02
869.06	223.03
869.37	223.04
869.68	223.01
869.99	223.03
870.30	223.03
870.61	223.04
870.92	223.03
871.23	223.02
871.54	223.03
871.85	223.05
872.16	223.06
872.47	223.06
872.78	223.00
873.09	223.01
873.40	223.00
873.71	223.01
874.02	223.02
874.33	223.01
874.64	222.98
874.95	223.00
875.26	222.98
875.56	222.98
875.87	222.97
876.18	222.97
876.49	223.07
876.80	223.05
877.11	223.03
877.42	223.04
877.73	223.04
878.04	223.02
878.35	223.02
878.66	223.02
878.96	223.02
879.27	223.01
879.58	223.01
879.89	223.00
880.20	223.03
880.51	223.02
880.82	223.02
881.12	223.03
881.43	223.00
881.74	222.99
882.05	222.99
882.36	223.00
882.67	223.00
882.97	222.89
883.28	222.88
883.59	222.88
883.90	222.89
884.21	222.90
884.51	222.90
884.82	222.88
885.13	222.88
885.44	222.87
885.74	222.87
886.05	222.87
886.36	222.87
886.67	222.83
886.98	222.89
887.28	222.90
887.59	222.90
887.90	222.90
888.20	222.90
888.51	222.92
888.82	222.90
889.13	222.91
889.43	223.00
889.74	223.00
890.05	222.99
890.35	222.98
890.66	222.96
890.97	222.94
891.28	222.94
891.58	222.94
891.89	222.94
892.20	222.93
892.50	222.92
892.81	222.91
893.12	222.91
893.42	222.86
893.73	222.86
894.04	222.85
894.34	222.86
894.65	222.86
894.95	222.85
895.26	222.86
895.57	222.90
895.87	222.80
896.18	222.82
896.48	222.83
896.79	222.83
897.10	222.85
897.40	222.86
897.71	222.87
898.01	222.86
898.32	222.87
898.63	222.87
898.93	222.87
899.24	222.88
899.54	222.87
899.85	222.86
900.15	222.86
900.46	222.86
900.76	222.86
901.07	222.86
901.38	222.85
901.68	222.86
901.99	222.81
902.29	222.81
902.60	222.81
902.90	222.80
903.21	222.80
903.51	222.79
903.82	222.80
904.12	222.80
904.43	222.81
904.73	222.80
905.03	222.80
905.34	222.90
905.64	222.89
905.95	222.89
906.25	222.89
906.56	222.89
906.86	222.89
907.17	222.87
907.47	222.88
907.77	222.87
908.08	222.84
908.38	222.85
908.69	222.86
908.99	222.87
909.30	222.88
909.60	222.88
909.90	222.89
910.21	222.86
910.51	222.84
910.81	222.85
911.12	222.85
911.42	222.86
911.73	222.75
912.03	222.76
912.33	222.79
912.64	222.78
912.94	222.77
913.24	222.75
913.55	222.75
913.85	222.74
914.15	222.77
914.46	222.78
914.76	222.77
915.06	222.76
915.37	222.74
915.67	222.73
915.97	222.73
916.27	222.70
916.58	222.71
916.88	222.71
917.18	222.70
917.49	222.76
917.79	222.75
918.09	222.77
918.39	222.80
918.70	222.78
919.00	222.80
919.30	222.85
919.60	222.85
919.91	222.84
920.21	222.84
920.51	222.81
920.81	222.81
921.12	222.83
921.42	222.82
921.72	222.83
922.02	222.83
922.32	222.84
922.63	222.85
922.93	222.90
923.23	222.90
923.53	222.90
923.83	222.83
924.13	222.84
924.44	222.83
924.74	222.85
925.04	222.87
925.34	222.86
925.64	222.81
925.94	222.81
926.24	222.87
926.55	222.86
926.85	222.87
927.15	222.87
927.45	222.87
927.75	222.87
928.05	222.87
928.35	222.86
928.65	222.88
928.95	222.88
929.26	222.83
929.56	222.85
929.86	222.87
930.16	222.85
930.46	222.84
930.76	222.85
931.06	222.80
931.36	222.77
931.66	222.79
931.96	222.80
932.26	222.81
932.56	222.76
932.86	222.77
933.16	222.77
933.46	222.76
933.76	222.74
934.06	222.76
934.36	222.80
934.66	222.80
934.96	222.78
935.26	222.78
935.56	222.80
935.86	222.77
936.16	222.75
936.46	222.75
936.76	222.74
937.06	222.73
937.36	222.73
937.66	222.74
937.96	222.73
938.26	222.71
938.56	222.70
938.86	222.70
939.16	222.72
939.46	222.73
939.76	222.74
940.06	222.74
940.35	222.72
940.65	222.67
940.95	222.68
941.25	222.65
941.55	222.64
941.85	222.63
942.15	222.66
942.45	222.69
942.75	222.68
943.04	222.69
943.34	222.71
943.64	222.70
943.94	222.69
944.24	222.69
944.54	222.69
944.84	222.69
945.13	222.67
945.43	222.65
945.73	222.65
946.03	222.64
946.33	222.63
946.62	222.62
946.92	222.61
947.22	222.62
947.52	222.63
947.82	222.64
948.11	222.63
948.41	222.61
948.71	222.57
949.01	222.58
949.31	222.57
949.60	222.56
949.90	222.57
950.20	222.57
950.50	222.56
950.79	222.56
951.09	222.57
951.39	222.57
951.69	222.56
951.98	222.58
952.28	222.59
952.58	222.58
952.87	222.58
953.17	222.60
953.47	222.58
953.76	222.58
954.06	222.56
954.36	222.55
954.66	222.55
954.95	222.58
955.25	222.59
955.55	222.60
955.84	222.58
956.14	222.59
956.44	222.60
956.73	222.58
957.03	222.60
957.32	222.59
957.62	222.59
957.92	222.61
958.21	222.60
958.51	222.72
958.81	222.73
959.10	222.74
959.40	222.76
959.69	222.77
959.99	222.78
960.29	222.79
960.58	222.79
960.88	222.83
961.17	222.81
961.47	222.82
961.76	222.81
962.06	222.83
962.36	222.82
962.65	222.82
962.95	222.83
963.24	222.82
963.54	222.82
963.83	222.83
964.13	222.82
964.42	222.81
964.72	222.72
965.01	222.72
965.31	222.71
965.60	222.69
965.90	222.75
966.19	222.73
966.49	222.73
966.78	222.73
967.08	222.71
967.37	222.72
967.67	222.70
967.96	222.72
968.26	222.71
968.55	222.72
968.85	222.72
969.14	222.72
969.43	222.72
969.73	222.71
970.02	222.70
970.32	222.69
970.61	222.68
970.91	222.65
971.20	222.64
971.49	222.63
971.79	222.64
972.08	222.57
972.38	222.58
972.67	222.57
972.96	222.59
973.26	222.56
973.55	222.59
973.85	222.59
974.14	222.58
974.43	222.59
974.73	222.57
975.02	222.56
975.31	222.56
975.61	222.56
975.90	222.55
976.19	222.54
976.49	222.55
976.78	222.55
977.07	222.55
977.37	222.56
977.66	222.56
977.95	222.55
978.24	222.55
978.54	222.57
978.83	222.57
979.12	222.56
979.42	222.56
979.71	222.53
980.00	222.53
980.29	222.53
980.59	222.51
980.88	222.53
981.17	222.53
981.46	222.54
981.76	222.53
982.05	222.56
982.34	222.57
982.63	222.57
982.93	222.57
983.22	222.60
983.51	222.60
983.80	222.61
984.09	222.63
984.39	222.62
984.68	222.60
984.97	222.61
985.26	222.60
985.55	222.61
985.85	222.59
986.14	222.61
986.43	222.62
986.72	222.62
987.01	222.59
987.30	222.59
987.59	222.58
987.89	222.58
988.18	222.55
988.47	222.54
988.76	222.54
989.05	222.53
989.34	222.51
989.63	222.54
989.92	222.52
990.22	222.50
990.51	222.50
990.80	222.50
991.09	222.51
991.38	222.52
991.67	222.51
991.96	222.50
992.25	222.50
992.54	222.49
992.83	222.49
993.12	222.49
993.41	222.51
993.70	222.55
993.99	222.57
994.28	222.58
994.58	222.60
994.87	222.59
995.16	222.59
995.45	222.58
995.74	222.54
996.03	222.56
996.32	222.57
996.61	222.59
996.90	222.59
997.19	222.58
997.48	222.58
997.77	222.57
998.06	222.58
998.34	222.56
998.63	222.56
998.92	222.56
999.21	222.58
999.50	222.58
999.79	222.54
1000.08	222.54
1000.37	222.54
1000.66	222.52
1000.95	222.55
1001.24	222.56
1001.53	222.57
1001.82	222.57
1002.11	222.55
1002.40	222.55
1002.68	222.57
1002.97	222.64
1003.26	222.63
1003.55	222.62
1003.84	222.63
1004.13	222.66
1004.42	222.66
1004.71	222.66
1004.99	222.66
1005.28	222.68
1005.57	222.67
1005.86	222.66
1006.15	222.65
1006.44	222.64
1006.72	222.65
1007.01	222.63
1007.30	222.63
1007.59	222.62
1007.88	222.61
1008.17	222.62
1008.45	222.60
1008.74	222.56
1009.03	222.51
1009.32	222.51
1009.60	222.51
1009.89	222.50
1010.18	222.46
1010.47	222.45
1010.76	222.45
1011.04	222.45
1011.33	222.44
1011.62	222.45
1011.91	222.46
1012.19	222.47
1012.48	222.47
1012.77	222.47
1013.05	222.51
1013.34	222.51
1013.63	222.50
1013.92	222.52
1014.20	222.51
1014.49	222.51
1014.78	222.53
1015.06	222.50
1015.35	222.50
1015.64	222.51
1015.92	222.53
1016.21	222.53
1016.50	222.54
1016.78	222.55
1017.07	222.56
1017.36	222.54
1017.64	222.53
1017.93	222.54
1018.22	222.53
1018.50	222.52
1018.79	222.52
1019.08	222.48
1019.36	222.49
1019.65	222.48
1019.93	222.50
1020.22	222.52
1020.51	222.57
1020.79	222.56
1021.08	222.38
1021.36	222.33
1021.65	222.51
1021.94	222.46
1022.22	222.59
1022.51	222.27
1022.79	223.04
1023.08	222.59
1023.36	223.71
1023.65	222.32
>>>>>End Processed Spectral Data<<<<<
