SpectraSuite Data File
++++++++++++++++++++++++++++++++++++
Date: Wed Sep 30 16:21:08 EDT 2015
User: lab3
Dark Spectrum Present: No
Reference Spectrum Present: No
Number of Sampled Component Spectra: 1
Spectrometers: USB2E7196
Integration Time (usec): 36000 (USB2E7196)
Spectra Averaged: 3000 (USB2E7196)
Boxcar Smoothing: 10 (USB2E7196)
Correct for Electrical Dark: No (USB2E7196)
Strobe/Lamp Enabled: No (USB2E7196)
Correct for Detector Non-linearity: No (USB2E7196)
Correct for Stray Light: No (USB2E7196)
Number of Pixels in Processed Spectrum: 2048
>>>>>Begin Processed Spectral Data<<<<<
339.09	0.00
339.48	211.71
339.86	213.28
340.24	214.65
340.63	215.99
341.01	219.01
341.39	218.73
341.78	220.14
342.16	221.20
342.54	221.70
342.93	210.27
343.31	220.89
343.69	221.44
344.07	221.90
344.46	222.32
344.84	222.71
345.22	222.94
345.60	223.20
345.99	223.39
346.37	223.53
346.75	223.64
347.13	223.71
347.52	223.77
347.90	223.86
348.28	223.90
348.66	223.95
349.05	223.95
349.43	224.00
349.81	224.06
350.19	224.12
350.57	224.18
350.96	224.25
351.34	224.34
351.72	224.43
352.10	224.54
352.48	224.62
352.87	224.68
353.25	224.75
353.63	224.81
354.01	224.86
354.39	224.94
354.77	225.01
355.15	225.13
355.54	225.19
355.92	225.22
356.30	225.30
356.68	225.43
357.06	225.51
357.44	225.56
357.82	225.61
358.20	225.72
358.58	225.79
358.97	225.86
359.35	225.94
359.73	226.02
360.11	226.07
360.49	226.13
360.87	226.18
361.25	226.24
361.63	226.33
362.01	226.39
362.39	226.41
362.77	226.46
363.15	226.49
363.53	226.52
363.91	226.56
364.29	226.58
364.67	226.50
365.05	226.52
365.43	226.55
365.81	226.58
366.19	226.60
366.57	226.64
366.95	226.63
367.33	226.60
367.71	226.59
368.09	226.61
368.47	226.60
368.85	226.59
369.23	226.59
369.61	226.53
369.99	226.54
370.37	226.54
370.75	226.59
371.13	226.55
371.51	226.51
371.89	226.49
372.27	226.46
372.65	226.44
373.03	226.40
373.41	226.36
373.78	226.31
374.16	226.22
374.54	226.14
374.92	226.09
375.30	226.05
375.68	225.99
376.06	225.93
376.44	225.87
376.82	225.83
377.19	225.78
377.57	225.73
377.95	225.64
378.33	225.58
378.71	225.43
379.09	225.38
379.47	225.35
379.84	225.29
380.22	225.22
380.60	225.15
380.98	225.10
381.36	225.04
381.73	224.98
382.11	224.95
382.49	224.91
382.87	224.85
383.25	224.80
383.62	224.87
384.00	224.81
384.38	224.77
384.76	224.74
385.13	224.73
385.51	224.68
385.89	224.63
386.27	224.60
386.64	224.57
387.02	224.53
387.40	224.48
387.78	224.45
388.15	224.43
388.53	224.39
388.91	224.36
389.29	224.33
389.66	224.32
390.04	224.27
390.42	224.27
390.79	224.25
391.17	224.23
391.55	224.09
391.92	224.09
392.30	224.09
392.68	224.06
393.05	224.03
393.43	224.03
393.81	224.04
394.18	224.02
394.56	224.02
394.94	224.04
395.31	224.04
395.69	224.07
396.06	224.10
396.44	224.12
396.82	224.13
397.19	224.21
397.57	224.22
397.95	224.26
398.32	224.25
398.70	224.29
399.07	224.35
399.45	224.39
399.82	224.43
400.20	224.46
400.58	224.52
400.95	224.53
401.33	224.61
401.70	224.74
402.08	224.83
402.45	224.90
402.83	225.01
403.20	225.10
403.58	225.18
403.95	225.30
404.33	225.43
404.71	225.55
405.08	225.73
405.46	225.87
405.83	226.03
406.21	226.19
406.58	226.38
406.96	226.56
407.33	226.77
407.70	227.01
408.08	227.33
408.45	227.62
408.83	227.92
409.20	228.20
409.58	228.45
409.95	228.79
410.33	229.16
410.70	229.50
411.08	229.91
411.45	230.34
411.82	230.78
412.20	231.28
412.57	231.87
412.95	232.33
413.32	232.94
413.69	233.57
414.07	234.23
414.44	234.95
414.82	235.68
415.19	236.54
415.56	237.41
415.94	238.31
416.31	239.33
416.68	240.34
417.06	241.51
417.43	242.62
417.81	243.89
418.18	245.19
418.55	246.61
418.93	248.08
419.30	249.62
419.67	251.26
420.04	252.95
420.42	254.70
420.79	256.74
421.16	258.80
421.54	260.88
421.91	263.06
422.28	265.32
422.66	267.77
423.03	270.10
423.40	272.55
423.77	275.17
424.15	277.86
424.52	280.66
424.89	283.68
425.26	286.70
425.64	289.49
426.01	292.64
426.38	295.84
426.75	299.16
427.13	302.56
427.50	306.11
427.87	309.80
428.24	313.54
428.61	317.10
428.99	320.95
429.36	325.17
429.73	329.21
430.10	333.26
430.47	337.38
430.85	341.60
431.22	346.11
431.59	350.74
431.96	355.25
432.33	360.23
432.70	364.98
433.08	370.58
433.45	375.87
433.82	381.06
434.19	386.88
434.56	392.59
434.93	398.10
435.30	403.52
435.68	409.62
436.05	415.60
436.42	421.58
436.79	427.02
437.16	432.91
437.53	439.20
437.90	445.47
438.27	451.59
438.64	458.26
439.01	464.27
439.38	469.75
439.75	475.05
440.13	481.08
440.50	486.80
440.87	491.31
441.24	496.28
441.61	501.77
441.98	505.78
442.35	510.56
442.72	515.45
443.09	520.14
443.46	523.15
443.83	525.37
444.20	527.25
444.57	529.99
444.94	531.61
445.31	533.31
445.68	534.82
446.05	535.94
446.42	535.80
446.79	535.55
447.16	535.34
447.53	535.19
447.90	533.44
448.27	531.81
448.64	529.21
449.01	527.51
449.37	523.75
449.74	520.32
450.11	515.91
450.48	511.06
450.85	506.18
451.22	502.05
451.59	498.00
451.96	494.31
452.33	488.91
452.70	484.11
453.07	478.22
453.43	472.33
453.80	466.63
454.17	461.15
454.54	456.08
454.91	450.34
455.28	444.94
455.65	439.86
456.02	434.43
456.38	430.06
456.75	424.39
457.12	419.84
457.49	415.24
457.86	410.85
458.23	407.02
458.59	402.77
458.96	398.40
459.33	394.55
459.70	390.64
460.07	387.65
460.43	384.13
460.80	380.83
461.17	377.92
461.54	374.79
461.91	371.86
462.27	368.88
462.64	366.44
463.01	363.63
463.38	360.81
463.74	358.24
464.11	355.95
464.48	353.89
464.85	351.69
465.21	350.00
465.58	348.14
465.95	345.97
466.32	344.26
466.68	342.58
467.05	340.89
467.42	339.25
467.78	337.49
468.15	335.84
468.52	334.64
468.88	333.05
469.25	331.58
469.62	330.42
469.98	329.17
470.35	328.05
470.72	327.04
471.08	326.01
471.45	325.17
471.82	324.23
472.18	323.26
472.55	322.62
472.92	321.84
473.28	321.23
473.65	320.61
474.02	320.00
474.38	319.52
474.75	319.23
475.11	318.83
475.48	318.68
475.85	318.53
476.21	318.46
476.58	318.47
476.94	318.67
477.31	318.79
477.67	318.93
478.04	319.19
478.41	319.51
478.77	319.96
479.14	320.29
479.50	320.85
479.87	321.53
480.23	322.21
480.60	322.87
480.96	323.55
481.33	324.49
481.69	325.43
482.06	326.35
482.42	327.25
482.79	328.32
483.15	329.54
483.52	330.90
483.88	332.22
484.25	333.62
484.61	335.09
484.98	336.67
485.34	338.43
485.71	340.26
486.07	342.23
486.44	344.17
486.80	346.33
487.17	348.54
487.53	350.98
487.90	353.51
488.26	356.26
488.62	359.16
488.99	362.06
489.35	365.09
489.72	368.37
490.08	371.81
490.44	375.33
490.81	379.02
491.17	382.82
491.54	386.87
491.90	391.03
492.26	395.49
492.63	400.18
492.99	405.08
493.36	410.09
493.72	415.36
494.08	420.78
494.45	426.50
494.81	432.42
495.17	438.46
495.54	444.84
495.90	451.53
496.26	458.35
496.63	465.41
496.99	472.76
497.35	480.48
497.72	488.47
498.08	496.65
498.44	505.05
498.80	513.99
499.17	523.15
499.53	532.64
499.89	542.35
500.26	552.26
500.62	562.41
500.98	573.26
501.34	584.23
501.71	595.73
502.07	607.46
502.43	619.57
502.79	632.01
503.16	644.85
503.52	657.86
503.88	671.21
504.24	685.00
504.60	699.05
504.97	713.46
505.33	728.27
505.69	743.97
506.05	759.87
506.41	775.79
506.78	792.03
507.14	808.76
507.50	826.02
507.86	843.65
508.22	861.54
508.59	879.48
508.95	898.11
509.31	917.20
509.67	936.96
510.03	956.93
510.39	977.09
510.75	997.46
511.12	1018.13
511.48	1039.09
511.84	1060.24
512.20	1081.71
512.56	1104.29
512.92	1126.95
513.28	1149.32
513.64	1172.04
514.00	1195.20
514.37	1218.61
514.73	1242.08
515.09	1265.37
515.45	1289.08
515.81	1313.32
516.17	1337.55
516.53	1361.55
516.89	1385.60
517.25	1409.83
517.61	1434.27
517.97	1458.97
518.33	1483.46
518.69	1508.10
519.05	1533.05
519.41	1558.04
519.77	1583.35
520.13	1607.85
520.49	1632.58
520.85	1657.52
521.21	1682.29
521.57	1707.64
521.93	1732.27
522.29	1757.66
522.65	1782.87
523.01	1807.88
523.37	1832.09
523.73	1857.06
524.09	1882.24
524.45	1907.26
524.81	1931.76
525.17	1956.12
525.53	1980.07
525.89	2003.99
526.25	2028.10
526.61	2051.61
526.97	2075.46
527.33	2099.16
527.68	2122.66
528.04	2145.46
528.40	2168.05
528.76	2190.92
529.12	2212.74
529.48	2235.09
529.84	2255.60
530.20	2276.51
530.56	2297.06
530.91	2317.85
531.27	2338.09
531.63	2357.59
531.99	2376.60
532.35	2395.53
532.71	2414.58
533.07	2434.10
533.42	2452.18
533.78	2470.56
534.14	2488.98
534.50	2506.46
534.86	2524.60
535.21	2541.00
535.57	2557.12
535.93	2572.72
536.29	2586.89
536.65	2601.93
537.00	2615.84
537.36	2630.46
537.72	2644.11
538.08	2657.45
538.44	2669.70
538.79	2682.05
539.15	2692.70
539.51	2703.18
539.87	2713.01
540.22	2720.71
540.58	2728.78
540.94	2737.26
541.29	2744.39
541.65	2750.52
542.01	2756.25
542.37	2760.05
542.72	2765.85
543.08	2771.06
543.44	2776.00
543.79	2780.55
544.15	2783.97
544.51	2787.37
544.87	2789.76
545.22	2791.87
545.58	2792.95
545.94	2794.52
546.29	2794.65
546.65	2794.73
547.01	2795.15
547.36	2795.67
547.72	2796.53
548.07	2795.76
548.43	2794.48
548.79	2792.50
549.14	2790.45
549.50	2789.05
549.86	2786.57
550.21	2781.96
550.57	2777.81
550.92	2772.28
551.28	2767.28
551.64	2762.27
551.99	2757.49
552.35	2752.37
552.70	2746.76
553.06	2741.80
553.41	2736.28
553.77	2730.11
554.13	2724.99
554.48	2718.59
554.84	2710.89
555.19	2703.22
555.55	2694.91
555.90	2687.17
556.26	2680.45
556.61	2673.10
556.97	2663.61
557.32	2655.40
557.68	2647.11
558.03	2638.43
558.39	2630.50
558.74	2622.53
559.10	2613.59
559.45	2604.16
559.81	2594.91
560.16	2585.06
560.52	2574.95
560.87	2565.84
561.23	2556.32
561.58	2546.38
561.94	2536.38
562.29	2525.69
562.64	2515.55
563.00	2505.81
563.35	2495.91
563.71	2484.91
564.06	2473.69
564.42	2463.34
564.77	2452.59
565.12	2441.87
565.48	2430.88
565.83	2420.53
566.19	2410.33
566.54	2399.45
566.89	2387.99
567.25	2376.66
567.60	2366.04
567.96	2354.95
568.31	2342.55
568.66	2330.26
569.02	2318.88
569.37	2307.24
569.72	2296.18
570.08	2284.41
570.43	2272.07
570.78	2259.33
571.14	2246.70
571.49	2234.64
571.84	2222.80
572.20	2209.65
572.55	2197.15
572.90	2184.38
573.26	2170.69
573.61	2156.43
573.96	2142.59
574.31	2128.95
574.67	2115.49
575.02	2101.58
575.37	2087.32
575.72	2073.36
576.08	2059.73
576.43	2045.05
576.78	2030.52
577.13	2016.73
577.49	2003.07
577.84	1989.80
578.19	1975.76
578.54	1961.34
578.90	1946.41
579.25	1931.28
579.60	1917.65
579.95	1903.50
580.30	1889.48
580.66	1875.69
581.01	1861.46
581.36	1847.67
581.71	1834.51
582.06	1820.75
582.42	1807.27
582.77	1794.34
583.12	1780.89
583.47	1767.76
583.82	1754.73
584.17	1741.54
584.53	1728.25
584.88	1714.96
585.23	1701.24
585.58	1688.12
585.93	1675.24
586.28	1663.25
586.63	1650.99
586.98	1637.91
587.34	1625.11
587.69	1611.88
588.04	1599.00
588.39	1586.70
588.74	1573.77
589.09	1560.66
589.44	1547.65
589.79	1535.02
590.14	1522.40
590.49	1509.97
590.84	1497.39
591.19	1485.35
591.54	1472.86
591.89	1460.23
592.25	1447.86
592.60	1435.24
592.95	1423.11
593.30	1411.39
593.65	1399.42
594.00	1387.79
594.35	1376.77
594.70	1364.97
595.05	1354.09
595.40	1342.95
595.75	1331.35
596.10	1320.62
596.45	1310.12
596.80	1299.95
597.15	1289.61
597.50	1279.20
597.85	1269.06
598.19	1259.08
598.54	1248.63
598.89	1238.89
599.24	1229.35
599.59	1219.65
599.94	1210.97
600.29	1202.08
600.64	1192.95
600.99	1183.22
601.34	1173.90
601.69	1164.17
602.04	1155.54
602.39	1146.82
602.74	1138.37
603.08	1130.11
603.43	1121.35
603.78	1112.47
604.13	1103.69
604.48	1094.87
604.83	1086.33
605.18	1077.68
605.53	1068.94
605.87	1060.25
606.22	1051.80
606.57	1043.16
606.92	1034.51
607.27	1025.72
607.62	1017.12
607.96	1008.69
608.31	1001.36
608.66	993.60
609.01	986.20
609.36	978.64
609.70	970.85
610.05	962.97
610.40	955.41
610.75	947.90
611.10	940.61
611.44	933.08
611.79	925.79
612.14	918.11
612.49	910.62
612.83	903.58
613.18	896.63
613.53	889.55
613.88	882.57
614.22	876.23
614.57	869.61
614.92	862.98
615.27	856.38
615.61	849.59
615.96	843.01
616.31	836.35
616.65	829.67
617.00	823.20
617.35	816.83
617.70	810.50
618.04	804.31
618.39	798.10
618.74	792.19
619.08	786.13
619.43	780.32
619.78	774.49
620.12	768.53
620.47	762.74
620.82	757.01
621.16	751.55
621.51	745.75
621.85	739.97
622.20	734.27
622.55	728.71
622.89	723.04
623.24	717.45
623.59	711.96
623.93	706.52
624.28	701.26
624.62	695.95
624.97	690.61
625.32	685.38
625.66	680.04
626.01	674.69
626.35	669.48
626.70	664.31
627.04	659.38
627.39	654.47
627.73	649.67
628.08	645.06
628.43	640.29
628.77	635.55
629.12	631.01
629.46	626.61
629.81	622.04
630.15	617.42
630.50	612.94
630.84	608.65
631.19	604.52
631.53	600.37
631.88	596.19
632.22	592.08
632.57	588.19
632.91	584.23
633.26	580.36
633.60	576.59
633.95	572.95
634.29	569.10
634.64	565.23
634.98	561.28
635.32	557.49
635.67	553.86
636.01	550.19
636.36	546.53
636.70	543.03
637.05	539.51
637.39	536.19
637.73	532.70
638.08	529.31
638.42	525.87
638.77	522.33
639.11	518.73
639.45	515.20
639.80	511.68
640.14	508.33
640.49	504.95
640.83	501.43
641.17	497.97
641.52	494.67
641.86	491.36
642.20	488.24
642.55	484.95
642.89	481.75
643.23	478.74
643.58	475.97
643.92	473.05
644.26	470.18
644.61	467.29
644.95	464.41
645.29	461.46
645.64	458.51
645.98	455.69
646.32	453.06
646.66	450.42
647.01	447.75
647.35	445.13
647.69	442.40
648.04	439.84
648.38	437.29
648.72	434.68
649.06	432.18
649.41	429.70
649.75	427.21
650.09	424.77
650.43	422.31
650.78	419.82
651.12	417.32
651.46	414.93
651.80	412.63
652.14	410.41
652.49	408.21
652.83	406.07
653.17	403.89
653.51	401.78
653.85	399.74
654.20	397.63
654.54	395.45
654.88	393.46
655.22	391.51
655.56	389.52
655.90	387.65
656.25	385.76
656.59	383.88
656.93	382.11
657.27	380.36
657.61	378.52
657.95	376.75
658.29	374.98
658.64	373.23
658.98	371.47
659.32	369.72
659.66	368.08
660.00	366.45
660.34	364.87
660.68	363.23
661.02	361.52
661.36	359.94
661.70	358.41
662.05	356.86
662.39	355.29
662.73	353.82
663.07	352.38
663.41	350.96
663.75	349.57
664.09	348.16
664.43	346.68
664.77	345.33
665.11	343.91
665.45	342.57
665.79	341.22
666.13	339.85
666.47	338.49
666.81	337.09
667.15	335.66
667.49	334.32
667.83	333.02
668.17	331.78
668.51	330.54
668.85	329.34
669.19	328.21
669.53	327.01
669.87	325.77
670.21	324.56
670.55	323.36
670.89	322.24
671.23	321.09
671.57	319.96
671.91	318.87
672.25	317.83
672.58	316.79
672.92	315.73
673.26	314.75
673.60	313.76
673.94	312.76
674.28	311.83
674.62	310.89
674.96	309.91
675.30	308.99
675.64	308.06
675.97	307.13
676.31	306.17
676.65	305.23
676.99	304.37
677.33	303.46
677.67	302.58
678.01	301.64
678.34	300.76
678.68	299.94
679.02	299.08
679.36	298.23
679.70	297.39
680.04	296.57
680.37	295.74
680.71	294.94
681.05	294.20
681.39	293.41
681.73	292.59
682.06	291.81
682.40	291.04
682.74	290.29
683.08	289.58
683.42	288.84
683.75	288.18
684.09	287.42
684.43	286.72
684.77	286.01
685.10	285.34
685.44	284.65
685.78	283.95
686.12	283.30
686.45	282.62
686.79	281.95
687.13	281.29
687.46	280.62
687.80	279.98
688.14	279.29
688.48	278.68
688.81	278.05
689.15	277.47
689.49	276.84
689.82	276.24
690.16	275.57
690.50	274.96
690.83	274.35
691.17	273.76
691.51	273.18
691.84	272.61
692.18	272.02
692.52	271.42
692.85	270.85
693.19	270.31
693.52	269.77
693.86	269.23
694.20	268.70
694.53	268.18
694.87	267.64
695.21	267.13
695.54	266.60
695.88	266.08
696.21	265.53
696.55	265.03
696.88	264.52
697.22	264.04
697.56	263.55
697.89	263.01
698.23	262.51
698.56	262.00
698.90	261.53
699.23	261.05
699.57	260.62
699.90	260.16
700.24	259.67
700.58	259.23
700.91	258.82
701.25	258.48
701.58	258.10
701.92	257.70
702.25	257.29
702.59	256.88
702.92	256.49
703.26	256.09
703.59	255.69
703.93	255.38
704.26	255.01
704.60	254.63
704.93	254.27
705.26	253.90
705.60	253.58
705.93	253.21
706.27	252.90
706.60	252.56
706.94	252.25
707.27	251.88
707.61	251.52
707.94	251.16
708.27	250.72
708.61	250.34
708.94	249.99
709.28	249.65
709.61	249.33
709.94	249.02
710.28	248.72
710.61	248.44
710.95	248.07
711.28	247.84
711.61	247.56
711.95	247.30
712.28	247.01
712.61	246.71
712.95	246.49
713.28	246.26
713.61	245.98
713.95	245.68
714.28	245.44
714.61	245.18
714.95	244.93
715.28	244.68
715.61	244.43
715.95	244.19
716.28	243.96
716.61	243.75
716.95	243.51
717.28	243.29
717.61	243.04
717.94	242.82
718.28	242.53
718.61	242.30
718.94	242.07
719.27	241.86
719.61	241.66
719.94	241.43
720.27	241.17
720.60	240.97
720.94	240.77
721.27	240.58
721.60	240.41
721.93	240.22
722.27	240.06
722.60	239.89
722.93	239.69
723.26	239.51
723.59	239.29
723.93	239.13
724.26	238.96
724.59	238.79
724.92	238.64
725.25	238.50
725.59	238.33
725.92	238.18
726.25	238.02
726.58	237.86
726.91	237.69
727.24	237.56
727.57	237.41
727.91	237.25
728.24	237.12
728.57	236.96
728.90	236.82
729.23	236.65
729.56	236.55
729.89	236.41
730.22	236.27
730.55	236.14
730.89	235.99
731.22	235.84
731.55	235.71
731.88	235.56
732.21	235.42
732.54	235.29
732.87	235.17
733.20	235.06
733.53	234.94
733.86	234.83
734.19	234.70
734.52	234.59
734.85	234.54
735.18	234.40
735.51	234.31
735.84	234.19
736.17	234.11
736.50	233.94
736.83	233.95
737.16	233.84
737.49	233.75
737.82	233.64
738.15	233.56
738.48	233.46
738.81	233.35
739.14	233.24
739.47	233.13
739.80	233.03
740.13	232.93
740.46	232.82
740.79	232.71
741.12	232.61
741.45	232.50
741.78	232.35
742.11	232.29
742.44	232.17
742.77	232.10
743.10	231.99
743.43	231.90
743.75	231.71
744.08	231.78
744.41	231.68
744.74	231.60
745.07	231.49
745.40	231.43
745.73	231.39
746.06	231.32
746.39	231.25
746.71	231.17
747.04	231.08
747.37	231.00
747.70	230.94
748.03	230.87
748.36	230.81
748.68	230.74
749.01	230.63
749.34	230.56
749.67	230.49
750.00	230.44
750.33	230.45
750.65	230.39
750.98	230.17
751.31	230.11
751.64	230.04
751.97	230.04
752.29	229.96
752.62	229.84
752.95	229.78
753.28	229.69
753.60	229.62
753.93	229.58
754.26	229.53
754.59	229.42
754.91	229.34
755.24	229.27
755.57	229.25
755.90	229.18
756.22	229.11
756.55	229.03
756.88	228.94
757.20	228.81
757.53	228.73
757.86	228.66
758.19	228.62
758.51	228.56
758.84	228.46
759.17	228.39
759.49	228.34
759.82	228.34
760.15	228.31
760.47	228.26
760.80	228.19
761.13	228.15
761.45	228.11
761.78	228.07
762.11	228.03
762.43	227.93
762.76	227.90
763.08	227.87
763.41	227.83
763.74	227.80
764.06	227.75
764.39	227.71
764.71	227.67
765.04	227.62
765.37	227.57
765.69	227.53
766.02	227.50
766.34	227.44
766.67	227.37
767.00	227.34
767.32	227.35
767.65	227.37
767.97	227.32
768.30	227.30
768.62	227.26
768.95	227.21
769.27	227.18
769.60	227.15
769.92	227.09
770.25	227.03
770.57	226.98
770.90	226.95
771.22	226.91
771.55	226.88
771.87	226.85
772.20	226.81
772.52	226.86
772.85	226.95
773.17	226.92
773.50	226.88
773.82	226.83
774.15	226.75
774.47	226.66
774.80	226.62
775.12	226.59
775.45	226.56
775.77	226.54
776.09	226.51
776.42	226.49
776.74	226.50
777.07	226.46
777.39	226.44
777.72	226.41
778.04	226.41
778.36	226.37
778.69	226.35
779.01	226.34
779.33	226.23
779.66	226.09
779.98	226.06
780.31	226.05
780.63	226.06
780.95	226.06
781.28	226.04
781.60	226.01
781.92	225.99
782.25	225.97
782.57	225.95
782.89	225.92
783.22	225.89
783.54	225.85
783.86	225.85
784.19	225.83
784.51	225.83
784.83	225.80
785.16	225.78
785.48	225.77
785.80	225.74
786.12	225.72
786.45	225.71
786.77	225.70
787.09	225.68
787.42	225.61
787.74	225.60
788.06	225.59
788.38	225.57
788.71	225.55
789.03	225.54
789.35	225.53
789.67	225.50
789.99	225.50
790.32	225.47
790.64	225.47
790.96	225.55
791.28	225.50
791.61	225.48
791.93	225.47
792.25	225.43
792.57	225.50
792.89	225.47
793.21	225.46
793.54	225.42
793.86	225.40
794.18	225.40
794.50	225.36
794.82	225.35
795.14	225.35
795.47	225.36
795.79	225.34
796.11	225.31
796.43	225.30
796.75	225.28
797.07	225.28
797.39	225.25
797.71	225.15
798.04	225.14
798.36	225.14
798.68	225.13
799.00	225.14
799.32	225.08
799.64	225.08
799.96	225.07
800.28	225.08
800.60	225.07
800.92	225.07
801.24	225.05
801.56	225.05
801.89	225.02
802.21	225.02
802.53	224.99
802.85	224.99
803.17	225.03
803.49	224.99
803.81	224.97
804.13	224.95
804.45	224.93
804.77	224.93
805.09	224.92
805.41	224.90
805.73	224.86
806.05	224.82
806.37	224.81
806.69	224.79
807.01	224.77
807.33	224.77
807.65	224.72
807.97	224.76
808.28	224.74
808.60	224.72
808.92	224.70
809.24	224.76
809.56	224.74
809.88	224.69
810.20	224.70
810.52	224.71
810.84	224.69
811.16	224.67
811.48	224.66
811.80	224.68
812.12	224.68
812.43	224.69
812.75	224.70
813.07	224.68
813.39	224.68
813.71	224.65
814.03	224.63
814.35	224.65
814.67	224.60
814.98	224.59
815.30	224.58
815.62	224.56
815.94	224.48
816.26	224.49
816.58	224.46
816.89	224.46
817.21	224.43
817.53	224.44
817.85	224.44
818.17	224.43
818.48	224.38
818.80	224.39
819.12	224.37
819.44	224.35
819.76	224.33
820.07	224.32
820.39	224.32
820.71	224.32
821.03	224.31
821.34	224.29
821.66	224.29
821.98	224.30
822.30	224.29
822.61	224.34
822.93	224.32
823.25	224.31
823.57	224.30
823.88	224.31
824.20	224.30
824.52	224.31
824.83	224.30
825.15	224.28
825.47	224.27
825.79	224.27
826.10	224.26
826.42	224.25
826.74	224.25
827.05	224.25
827.37	224.25
827.69	224.24
828.00	224.24
828.32	224.24
828.64	224.21
828.95	224.27
829.27	224.24
829.58	224.24
829.90	224.25
830.22	224.26
830.53	224.24
830.85	224.23
831.17	224.20
831.48	224.19
831.80	224.20
832.11	224.19
832.43	224.18
832.75	224.19
833.06	224.25
833.38	224.22
833.69	224.22
834.01	224.22
834.32	224.22
834.64	224.20
834.96	224.20
835.27	224.20
835.59	224.16
835.90	224.14
836.22	224.13
836.53	224.11
836.85	224.09
837.16	224.19
837.48	224.19
837.79	224.22
838.11	224.23
838.42	224.22
838.74	224.23
839.05	224.22
839.37	224.21
839.68	224.14
840.00	224.14
840.31	224.15
840.63	224.14
840.94	224.12
841.26	224.10
841.57	224.10
841.88	224.11
842.20	224.10
842.51	224.08
842.83	224.08
843.14	224.17
843.46	224.17
843.77	224.11
844.08	224.10
844.40	224.06
844.71	224.05
845.03	224.04
845.34	224.03
845.65	224.01
845.97	224.01
846.28	224.02
846.60	224.02
846.91	223.99
847.22	223.98
847.54	224.01
847.85	224.02
848.16	224.01
848.48	223.99
848.79	224.02
849.10	224.04
849.42	224.04
849.73	223.93
850.04	223.93
850.36	223.90
850.67	223.92
850.98	223.92
851.30	223.92
851.61	223.92
851.92	223.92
852.23	223.95
852.55	223.95
852.86	223.96
853.17	223.97
853.49	223.99
853.80	224.02
854.11	224.02
854.42	224.03
854.74	224.02
855.05	224.02
855.36	223.97
855.67	223.96
855.99	223.96
856.30	224.08
856.61	224.07
856.92	224.07
857.23	224.07
857.55	224.06
857.86	224.06
858.17	224.06
858.48	224.05
858.79	224.03
859.11	224.03
859.42	224.02
859.73	224.00
860.04	223.99
860.35	223.95
860.66	223.92
860.98	223.92
861.29	223.93
861.60	223.93
861.91	223.95
862.22	223.94
862.53	223.92
862.84	223.81
863.16	223.83
863.47	223.81
863.78	223.79
864.09	223.80
864.40	223.80
864.71	223.81
865.02	223.82
865.33	223.81
865.64	223.79
865.95	223.79
866.27	223.86
866.58	223.85
866.89	223.87
867.20	223.87
867.51	223.85
867.82	223.85
868.13	223.88
868.44	223.86
868.75	223.88
869.06	223.88
869.37	223.89
869.68	223.87
869.99	223.89
870.30	223.90
870.61	223.90
870.92	223.89
871.23	223.88
871.54	223.89
871.85	223.91
872.16	223.93
872.47	223.92
872.78	223.86
873.09	223.87
873.40	223.86
873.71	223.87
874.02	223.88
874.33	223.87
874.64	223.85
874.95	223.87
875.26	223.85
875.56	223.85
875.87	223.85
876.18	223.84
876.49	223.94
876.80	223.93
877.11	223.92
877.42	223.92
877.73	223.92
878.04	223.91
878.35	223.91
878.66	223.91
878.96	223.91
879.27	223.91
879.58	223.90
879.89	223.90
880.20	223.92
880.51	223.92
880.82	223.92
881.12	223.92
881.43	223.90
881.74	223.89
882.05	223.88
882.36	223.88
882.67	223.89
882.97	223.77
883.28	223.76
883.59	223.75
883.90	223.76
884.21	223.77
884.51	223.76
884.82	223.74
885.13	223.74
885.44	223.74
885.74	223.74
886.05	223.73
886.36	223.73
886.67	223.70
886.98	223.74
887.28	223.75
887.59	223.75
887.90	223.75
888.20	223.75
888.51	223.77
888.82	223.75
889.13	223.75
889.43	223.84
889.74	223.84
890.05	223.84
890.35	223.83
890.66	223.81
890.97	223.80
891.28	223.79
891.58	223.79
891.89	223.78
892.20	223.77
892.50	223.76
892.81	223.75
893.12	223.75
893.42	223.71
893.73	223.71
894.04	223.71
894.34	223.72
894.65	223.71
894.95	223.70
895.26	223.70
895.57	223.75
895.87	223.64
896.18	223.66
896.48	223.67
896.79	223.67
897.10	223.68
897.40	223.69
897.71	223.71
898.01	223.70
898.32	223.72
898.63	223.72
898.93	223.73
899.24	223.73
899.54	223.72
899.85	223.71
900.15	223.70
900.46	223.70
900.76	223.71
901.07	223.70
901.38	223.70
901.68	223.71
901.99	223.65
902.29	223.67
902.60	223.66
902.90	223.65
903.21	223.65
903.51	223.64
903.82	223.66
904.12	223.65
904.43	223.66
904.73	223.65
905.03	223.65
905.34	223.74
905.64	223.74
905.95	223.74
906.25	223.74
906.56	223.74
906.86	223.74
907.17	223.72
907.47	223.73
907.77	223.71
908.08	223.69
908.38	223.71
908.69	223.70
908.99	223.72
909.30	223.72
909.60	223.72
909.90	223.72
910.21	223.69
910.51	223.68
910.81	223.69
911.12	223.69
911.42	223.69
911.73	223.58
912.03	223.58
912.33	223.60
912.64	223.60
912.94	223.59
913.24	223.57
913.55	223.56
913.85	223.56
914.15	223.58
914.46	223.59
914.76	223.57
915.06	223.57
915.37	223.54
915.67	223.54
915.97	223.54
916.27	223.52
916.58	223.53
916.88	223.52
917.18	223.52
917.49	223.59
917.79	223.59
918.09	223.61
918.39	223.64
918.70	223.63
919.00	223.64
919.30	223.69
919.60	223.68
919.91	223.68
920.21	223.69
920.51	223.67
920.81	223.66
921.12	223.68
921.42	223.68
921.72	223.68
922.02	223.69
922.32	223.70
922.63	223.71
922.93	223.75
923.23	223.76
923.53	223.75
923.83	223.67
924.13	223.68
924.44	223.67
924.74	223.68
925.04	223.69
925.34	223.69
925.64	223.64
925.94	223.64
926.24	223.70
926.55	223.68
926.85	223.70
927.15	223.70
927.45	223.69
927.75	223.69
928.05	223.69
928.35	223.68
928.65	223.69
928.95	223.71
929.26	223.66
929.56	223.67
929.86	223.69
930.16	223.69
930.46	223.68
930.76	223.67
931.06	223.63
931.36	223.61
931.66	223.62
931.96	223.64
932.26	223.64
932.56	223.60
932.86	223.61
933.16	223.60
933.46	223.60
933.76	223.59
934.06	223.61
934.36	223.64
934.66	223.64
934.96	223.62
935.26	223.62
935.56	223.64
935.86	223.61
936.16	223.59
936.46	223.57
936.76	223.58
937.06	223.56
937.36	223.57
937.66	223.57
937.96	223.57
938.26	223.54
938.56	223.54
938.86	223.55
939.16	223.57
939.46	223.58
939.76	223.59
940.06	223.59
940.35	223.57
940.65	223.52
940.95	223.53
941.25	223.50
941.55	223.49
941.85	223.48
942.15	223.51
942.45	223.54
942.75	223.54
943.04	223.55
943.34	223.57
943.64	223.56
943.94	223.54
944.24	223.54
944.54	223.55
944.84	223.54
945.13	223.53
945.43	223.51
945.73	223.50
946.03	223.49
946.33	223.48
946.62	223.47
946.92	223.47
947.22	223.47
947.52	223.49
947.82	223.50
948.11	223.49
948.41	223.47
948.71	223.44
949.01	223.44
949.31	223.43
949.60	223.43
949.90	223.44
950.20	223.44
950.50	223.44
950.79	223.43
951.09	223.45
951.39	223.44
951.69	223.43
951.98	223.45
952.28	223.46
952.58	223.45
952.87	223.46
953.17	223.47
953.47	223.46
953.76	223.46
954.06	223.44
954.36	223.43
954.66	223.43
954.95	223.45
955.25	223.46
955.55	223.47
955.84	223.44
956.14	223.45
956.44	223.45
956.73	223.45
957.03	223.46
957.32	223.46
957.62	223.46
957.92	223.48
958.21	223.47
958.51	223.58
958.81	223.60
959.10	223.61
959.40	223.62
959.69	223.62
959.99	223.64
960.29	223.65
960.58	223.65
960.88	223.69
961.17	223.67
961.47	223.67
961.76	223.66
962.06	223.68
962.36	223.67
962.65	223.67
962.95	223.67
963.24	223.66
963.54	223.66
963.83	223.66
964.13	223.66
964.42	223.64
964.72	223.56
965.01	223.56
965.31	223.55
965.60	223.53
965.90	223.59
966.19	223.56
966.49	223.57
966.78	223.57
967.08	223.55
967.37	223.55
967.67	223.53
967.96	223.55
968.26	223.56
968.55	223.57
968.85	223.57
969.14	223.57
969.43	223.57
969.73	223.56
970.02	223.55
970.32	223.54
970.61	223.52
970.91	223.48
971.20	223.46
971.49	223.45
971.79	223.46
972.08	223.38
972.38	223.39
972.67	223.38
972.96	223.40
973.26	223.38
973.55	223.41
973.85	223.40
974.14	223.39
974.43	223.39
974.73	223.37
975.02	223.36
975.31	223.36
975.61	223.36
975.90	223.36
976.19	223.36
976.49	223.37
976.78	223.38
977.07	223.38
977.37	223.39
977.66	223.40
977.95	223.39
978.24	223.40
978.54	223.42
978.83	223.42
979.12	223.41
979.42	223.41
979.71	223.39
980.00	223.39
980.29	223.40
980.59	223.38
980.88	223.40
981.17	223.40
981.46	223.40
981.76	223.40
982.05	223.43
982.34	223.43
982.63	223.43
982.93	223.44
983.22	223.47
983.51	223.47
983.80	223.49
984.09	223.51
984.39	223.50
984.68	223.50
984.97	223.49
985.26	223.49
985.55	223.50
985.85	223.48
986.14	223.50
986.43	223.51
986.72	223.50
987.01	223.48
987.30	223.48
987.59	223.47
987.89	223.48
988.18	223.44
988.47	223.43
988.76	223.42
989.05	223.41
989.34	223.40
989.63	223.42
989.92	223.40
990.22	223.38
990.51	223.39
990.80	223.38
991.09	223.39
991.38	223.41
991.67	223.39
991.96	223.39
992.25	223.39
992.54	223.38
992.83	223.38
993.12	223.38
993.41	223.39
993.70	223.44
993.99	223.45
994.28	223.47
994.58	223.48
994.87	223.48
995.16	223.48
995.45	223.47
995.74	223.43
996.03	223.45
996.32	223.46
996.61	223.48
996.90	223.48
997.19	223.47
997.48	223.47
997.77	223.46
998.06	223.46
998.34	223.45
998.63	223.44
998.92	223.44
999.21	223.46
999.50	223.46
999.79	223.42
1000.08	223.42
1000.37	223.41
1000.66	223.39
1000.95	223.42
1001.24	223.43
1001.53	223.44
1001.82	223.44
1002.11	223.41
1002.40	223.42
1002.68	223.44
1002.97	223.50
1003.26	223.49
1003.55	223.48
1003.84	223.49
1004.13	223.52
1004.42	223.52
1004.71	223.52
1004.99	223.51
1005.28	223.53
1005.57	223.52
1005.86	223.51
1006.15	223.50
1006.44	223.49
1006.72	223.50
1007.01	223.48
1007.30	223.48
1007.59	223.46
1007.88	223.46
1008.17	223.47
1008.45	223.45
1008.74	223.41
1009.03	223.36
1009.32	223.36
1009.60	223.36
1009.89	223.36
1010.18	223.32
1010.47	223.31
1010.76	223.31
1011.04	223.31
1011.33	223.30
1011.62	223.31
1011.91	223.32
1012.19	223.32
1012.48	223.33
1012.77	223.33
1013.05	223.37
1013.34	223.37
1013.63	223.36
1013.92	223.37
1014.20	223.36
1014.49	223.36
1014.78	223.36
1015.06	223.32
1015.35	223.33
1015.64	223.33
1015.92	223.35
1016.21	223.36
1016.50	223.36
1016.78	223.38
1017.07	223.38
1017.36	223.36
1017.64	223.35
1017.93	223.36
1018.22	223.35
1018.50	223.35
1018.79	223.35
1019.08	223.32
1019.36	223.32
1019.65	223.32
1019.93	223.35
1020.22	223.36
1020.51	223.42
1020.79	223.41
1021.08	223.26
1021.36	223.23
1021.65	223.42
1021.94	223.32
1022.22	223.48
1022.51	223.13
1022.79	223.90
1023.08	223.41
1023.36	224.64
1023.65	223.13
>>>>>End Processed Spectral Data<<<<<
