SpectraSuite Data File
++++++++++++++++++++++++++++++++++++
Date: Wed Sep 30 16:22:59 EDT 2015
User: lab3
Dark Spectrum Present: No
Reference Spectrum Present: No
Number of Sampled Component Spectra: 1
Spectrometers: USB2E7196
Integration Time (usec): 36000 (USB2E7196)
Spectra Averaged: 3000 (USB2E7196)
Boxcar Smoothing: 10 (USB2E7196)
Correct for Electrical Dark: No (USB2E7196)
Strobe/Lamp Enabled: No (USB2E7196)
Correct for Detector Non-linearity: No (USB2E7196)
Correct for Stray Light: No (USB2E7196)
Number of Pixels in Processed Spectrum: 2048
>>>>>Begin Processed Spectral Data<<<<<
339.09	0.00
339.48	211.73
339.86	213.22
340.24	214.53
340.63	215.95
341.01	218.85
341.39	218.56
341.78	220.05
342.16	221.14
342.54	221.61
342.93	210.18
343.31	220.81
343.69	221.35
344.07	221.81
344.46	222.24
344.84	222.62
345.22	222.86
345.60	223.12
345.99	223.31
346.37	223.46
346.75	223.56
347.13	223.64
347.52	223.71
347.90	223.79
348.28	223.83
348.66	223.88
349.05	223.88
349.43	223.93
349.81	223.99
350.19	224.04
350.57	224.11
350.96	224.19
351.34	224.28
351.72	224.37
352.10	224.47
352.48	224.55
352.87	224.60
353.25	224.66
353.63	224.72
354.01	224.79
354.39	224.86
354.77	224.94
355.15	225.04
355.54	225.09
355.92	225.13
356.30	225.20
356.68	225.33
357.06	225.41
357.44	225.46
357.82	225.52
358.20	225.63
358.58	225.70
358.97	225.77
359.35	225.84
359.73	225.93
360.11	225.98
360.49	226.03
360.87	226.08
361.25	226.14
361.63	226.22
362.01	226.27
362.39	226.30
362.77	226.34
363.15	226.36
363.53	226.40
363.91	226.43
364.29	226.45
364.67	226.38
365.05	226.40
365.43	226.42
365.81	226.45
366.19	226.46
366.57	226.50
366.95	226.50
367.33	226.47
367.71	226.47
368.09	226.49
368.47	226.48
368.85	226.47
369.23	226.48
369.61	226.43
369.99	226.44
370.37	226.44
370.75	226.49
371.13	226.47
371.51	226.42
371.89	226.40
372.27	226.38
372.65	226.35
373.03	226.31
373.41	226.27
373.78	226.22
374.16	226.12
374.54	226.04
374.92	225.99
375.30	225.95
375.68	225.88
376.06	225.83
376.44	225.77
376.82	225.72
377.19	225.67
377.57	225.61
377.95	225.53
378.33	225.46
378.71	225.32
379.09	225.27
379.47	225.24
379.84	225.17
380.22	225.11
380.60	225.04
380.98	224.99
381.36	224.94
381.73	224.88
382.11	224.86
382.49	224.82
382.87	224.76
383.25	224.71
383.62	224.78
384.00	224.72
384.38	224.69
384.76	224.67
385.13	224.65
385.51	224.61
385.89	224.56
386.27	224.53
386.64	224.50
387.02	224.46
387.40	224.41
387.78	224.38
388.15	224.36
388.53	224.33
388.91	224.30
389.29	224.27
389.66	224.26
390.04	224.22
390.42	224.22
390.79	224.20
391.17	224.19
391.55	224.05
391.92	224.03
392.30	224.04
392.68	224.00
393.05	223.99
393.43	223.98
393.81	223.99
394.18	223.97
394.56	223.97
394.94	223.99
395.31	223.99
395.69	224.03
396.06	224.05
396.44	224.07
396.82	224.08
397.19	224.15
397.57	224.16
397.95	224.20
398.32	224.20
398.70	224.24
399.07	224.30
399.45	224.33
399.82	224.37
400.20	224.40
400.58	224.45
400.95	224.46
401.33	224.54
401.70	224.66
402.08	224.75
402.45	224.84
402.83	224.94
403.20	225.03
403.58	225.11
403.95	225.23
404.33	225.36
404.71	225.49
405.08	225.67
405.46	225.80
405.83	225.96
406.21	226.13
406.58	226.31
406.96	226.49
407.33	226.70
407.70	226.94
408.08	227.27
408.45	227.55
408.83	227.85
409.20	228.13
409.58	228.38
409.95	228.72
410.33	229.09
410.70	229.43
411.08	229.84
411.45	230.28
411.82	230.72
412.20	231.22
412.57	231.81
412.95	232.27
413.32	232.88
413.69	233.50
414.07	234.16
414.44	234.88
414.82	235.61
415.19	236.47
415.56	237.35
415.94	238.25
416.31	239.26
416.68	240.28
417.06	241.46
417.43	242.56
417.81	243.84
418.18	245.13
418.55	246.55
418.93	248.02
419.30	249.55
419.67	251.19
420.04	252.87
420.42	254.63
420.79	256.67
421.16	258.72
421.54	260.80
421.91	262.98
422.28	265.24
422.66	267.68
423.03	270.01
423.40	272.46
423.77	275.08
424.15	277.77
424.52	280.57
424.89	283.60
425.26	286.61
425.64	289.41
426.01	292.55
426.38	295.76
426.75	299.08
427.13	302.47
427.50	306.03
427.87	309.72
428.24	313.45
428.61	317.01
428.99	320.86
429.36	325.09
429.73	329.13
430.10	333.15
430.47	337.27
430.85	341.50
431.22	346.01
431.59	350.63
431.96	355.14
432.33	360.12
432.70	364.85
433.08	370.44
433.45	375.71
433.82	380.91
434.19	386.70
434.56	392.40
434.93	397.89
435.30	403.30
435.68	409.40
436.05	415.35
436.42	421.32
436.79	426.75
437.16	432.62
437.53	438.92
437.90	445.18
438.27	451.31
438.64	457.95
439.01	463.94
439.38	469.41
439.75	474.69
440.13	480.72
440.50	486.43
440.87	490.94
441.24	495.90
441.61	501.38
441.98	505.38
442.35	510.16
442.72	515.05
443.09	519.74
443.46	522.78
443.83	525.03
444.20	526.92
444.57	529.67
444.94	531.30
445.31	532.98
445.68	534.49
446.05	535.62
446.42	535.48
446.79	535.24
447.16	535.05
447.53	534.91
447.90	533.16
448.27	531.55
448.64	528.95
449.01	527.27
449.37	523.51
449.74	520.09
450.11	515.68
450.48	510.84
450.85	505.96
451.22	501.82
451.59	497.76
451.96	494.07
452.33	488.67
452.70	483.87
453.07	477.99
453.43	472.11
453.80	466.42
454.17	460.95
454.54	455.88
454.91	450.15
455.28	444.75
455.65	439.67
456.02	434.24
456.38	429.88
456.75	424.21
457.12	419.66
457.49	415.07
457.86	410.68
458.23	406.85
458.59	402.60
458.96	398.23
459.33	394.39
459.70	390.50
460.07	387.51
460.43	384.00
460.80	380.70
461.17	377.80
461.54	374.66
461.91	371.73
462.27	368.75
462.64	366.30
463.01	363.51
463.38	360.67
463.74	358.10
464.11	355.82
464.48	353.76
464.85	351.55
465.21	349.87
465.58	348.01
465.95	345.85
466.32	344.12
466.68	342.43
467.05	340.73
467.42	339.08
467.78	337.31
468.15	335.67
468.52	334.46
468.88	332.86
469.25	331.41
469.62	330.25
469.98	328.99
470.35	327.88
470.72	326.86
471.08	325.84
471.45	324.99
471.82	324.05
472.18	323.08
472.55	322.45
472.92	321.66
473.28	321.05
473.65	320.43
474.02	319.84
474.38	319.34
474.75	319.06
475.11	318.65
475.48	318.50
475.85	318.34
476.21	318.29
476.58	318.30
476.94	318.48
477.31	318.60
477.67	318.74
478.04	318.99
478.41	319.32
478.77	319.77
479.14	320.10
479.50	320.66
479.87	321.34
480.23	322.02
480.60	322.68
480.96	323.35
481.33	324.29
481.69	325.23
482.06	326.17
482.42	327.06
482.79	328.13
483.15	329.35
483.52	330.72
483.88	332.04
484.25	333.45
484.61	334.91
484.98	336.50
485.34	338.27
485.71	340.10
486.07	342.06
486.44	344.01
486.80	346.17
487.17	348.37
487.53	350.80
487.90	353.33
488.26	356.08
488.62	358.98
488.99	361.88
489.35	364.91
489.72	368.18
490.08	371.62
490.44	375.14
490.81	378.84
491.17	382.62
491.54	386.67
491.90	390.81
492.26	395.28
492.63	399.97
492.99	404.85
493.36	409.86
493.72	415.11
494.08	420.52
494.45	426.22
494.81	432.13
495.17	438.16
495.54	444.54
495.90	451.23
496.26	458.05
496.63	465.12
496.99	472.46
497.35	480.16
497.72	488.16
498.08	496.32
498.44	504.71
498.80	513.65
499.17	522.81
499.53	532.28
499.89	542.00
500.26	551.89
500.62	562.06
500.98	572.88
501.34	583.86
501.71	595.36
502.07	607.07
502.43	619.20
502.79	631.63
503.16	644.49
503.52	657.48
503.88	670.82
504.24	684.61
504.60	698.65
504.97	713.08
505.33	727.87
505.69	743.58
506.05	759.49
506.41	775.40
506.78	791.62
507.14	808.35
507.50	825.60
507.86	843.25
508.22	861.12
508.59	879.07
508.95	897.70
509.31	916.77
509.67	936.51
510.03	956.47
510.39	976.65
510.75	996.99
511.12	1017.65
511.48	1038.60
511.84	1059.72
512.20	1081.18
512.56	1103.74
512.92	1126.40
513.28	1148.76
513.64	1171.48
514.00	1194.65
514.37	1218.08
514.73	1241.55
515.09	1264.84
515.45	1288.52
515.81	1312.78
516.17	1337.03
516.53	1361.03
516.89	1385.13
517.25	1409.39
517.61	1433.84
517.97	1458.51
518.33	1483.02
518.69	1507.69
519.05	1532.65
519.41	1557.64
519.77	1582.96
520.13	1607.45
520.49	1632.21
520.85	1657.17
521.21	1681.94
521.57	1707.29
521.93	1731.96
522.29	1757.37
522.65	1782.56
523.01	1807.61
523.37	1831.80
523.73	1856.76
524.09	1881.92
524.45	1906.92
524.81	1931.43
525.17	1955.80
525.53	1979.82
525.89	2003.74
526.25	2027.87
526.61	2051.41
526.97	2075.30
527.33	2099.08
527.68	2122.63
528.04	2145.46
528.40	2168.07
528.76	2190.93
529.12	2212.77
529.48	2235.09
529.84	2255.62
530.20	2276.57
530.56	2297.15
530.91	2318.03
531.27	2338.31
531.63	2357.89
531.99	2376.94
532.35	2395.93
532.71	2415.03
533.07	2434.57
533.42	2452.69
533.78	2471.10
534.14	2489.55
534.50	2507.11
534.86	2525.26
535.21	2541.70
535.57	2557.85
535.93	2573.45
536.29	2587.69
536.65	2602.77
537.00	2616.73
537.36	2631.40
537.72	2645.10
538.08	2658.46
538.44	2670.68
538.79	2683.07
539.15	2693.71
539.51	2704.21
539.87	2714.06
540.22	2721.78
540.58	2729.89
540.94	2738.41
541.29	2745.54
541.65	2751.71
542.01	2757.42
542.37	2761.27
542.72	2767.05
543.08	2772.28
543.44	2777.26
543.79	2781.83
544.15	2785.29
544.51	2788.72
544.87	2791.13
545.22	2793.28
545.58	2794.39
545.94	2795.98
546.29	2796.15
546.65	2796.28
547.01	2796.74
547.36	2797.28
547.72	2798.17
548.07	2797.42
548.43	2796.15
548.79	2794.25
549.14	2792.21
549.50	2790.84
549.86	2788.35
550.21	2783.79
550.57	2779.69
550.92	2774.25
551.28	2769.26
551.64	2764.26
551.99	2759.51
552.35	2754.42
552.70	2748.83
553.06	2743.91
553.41	2738.42
553.77	2732.30
554.13	2727.18
554.48	2720.84
554.84	2713.18
555.19	2705.52
555.55	2697.25
555.90	2689.53
556.26	2682.81
556.61	2675.53
556.97	2666.06
557.32	2657.89
557.68	2649.63
558.03	2640.93
558.39	2632.96
558.74	2624.97
559.10	2616.05
559.45	2606.63
559.81	2597.39
560.16	2587.57
560.52	2577.46
560.87	2568.38
561.23	2558.85
561.58	2548.92
561.94	2538.90
562.29	2528.22
562.64	2518.09
563.00	2508.32
563.35	2498.44
563.71	2487.41
564.06	2476.12
564.42	2465.74
564.77	2454.95
565.12	2444.24
565.48	2433.26
565.83	2422.94
566.19	2412.77
566.54	2401.90
566.89	2390.40
567.25	2379.05
567.60	2368.41
567.96	2357.30
568.31	2344.87
568.66	2332.58
569.02	2321.19
569.37	2309.56
569.72	2298.49
570.08	2286.72
570.43	2274.39
570.78	2261.64
571.14	2249.03
571.49	2237.02
571.84	2225.21
572.20	2212.10
572.55	2199.58
572.90	2186.82
573.26	2173.14
573.61	2158.89
573.96	2145.03
574.31	2131.44
574.67	2117.98
575.02	2104.06
575.37	2089.84
575.72	2075.90
576.08	2062.27
576.43	2047.62
576.78	2033.06
577.13	2019.26
577.49	2005.57
577.84	1992.28
578.19	1978.24
578.54	1963.79
578.90	1948.83
579.25	1933.69
579.60	1920.04
579.95	1905.91
580.30	1891.89
580.66	1878.10
581.01	1863.84
581.36	1850.03
581.71	1836.85
582.06	1823.09
582.42	1809.60
582.77	1796.63
583.12	1783.18
583.47	1770.03
583.82	1756.97
584.17	1743.78
584.53	1730.48
584.88	1717.19
585.23	1703.48
585.58	1690.35
585.93	1677.49
586.28	1665.50
586.63	1653.20
586.98	1640.13
587.34	1627.29
587.69	1614.06
588.04	1601.13
588.39	1588.85
588.74	1575.94
589.09	1562.80
589.44	1549.76
589.79	1537.11
590.14	1524.48
590.49	1512.03
590.84	1499.41
591.19	1487.36
591.54	1474.86
591.89	1462.20
592.25	1449.82
592.60	1437.16
592.95	1425.00
593.30	1413.24
593.65	1401.22
594.00	1389.56
594.35	1378.51
594.70	1366.68
595.05	1355.77
595.40	1344.64
595.75	1333.00
596.10	1322.24
596.45	1311.75
596.80	1301.57
597.15	1291.24
597.50	1280.84
597.85	1270.67
598.19	1260.69
598.54	1250.23
598.89	1240.47
599.24	1230.93
599.59	1221.21
599.94	1212.50
600.29	1203.62
600.64	1194.48
600.99	1184.73
601.34	1175.43
601.69	1165.67
602.04	1157.02
602.39	1148.28
602.74	1139.80
603.08	1131.51
603.43	1122.74
603.78	1113.83
604.13	1105.04
604.48	1096.19
604.83	1087.60
605.18	1078.94
605.53	1070.20
605.87	1061.50
606.22	1053.06
606.57	1044.41
606.92	1035.78
607.27	1026.98
607.62	1018.36
607.96	1009.94
608.31	1002.59
608.66	994.82
609.01	987.40
609.36	979.86
609.70	972.08
610.05	964.18
610.40	956.64
610.75	949.12
611.10	941.85
611.44	934.29
611.79	926.97
612.14	919.29
612.49	911.79
612.83	904.74
613.18	897.77
613.53	890.66
613.88	883.66
614.22	877.27
614.57	870.65
614.92	864.02
615.27	857.38
615.61	850.57
615.96	844.00
616.31	837.36
616.65	830.66
617.00	824.16
617.35	817.77
617.70	811.41
618.04	805.20
618.39	798.97
618.74	793.06
619.08	787.00
619.43	781.20
619.78	775.36
620.12	769.37
620.47	763.58
620.82	757.84
621.16	752.37
621.51	746.56
621.85	740.78
622.20	735.05
622.55	729.49
622.89	723.82
623.24	718.21
623.59	712.71
623.93	707.25
624.28	701.97
624.62	696.66
624.97	691.31
625.32	686.08
625.66	680.74
626.01	675.38
626.35	670.14
626.70	664.96
627.04	659.99
627.39	655.09
627.73	650.26
628.08	645.65
628.43	640.88
628.77	636.15
629.12	631.59
629.46	627.19
629.81	622.61
630.15	618.00
630.50	613.51
630.84	609.20
631.19	605.06
631.53	600.93
631.88	596.74
632.22	592.63
632.57	588.74
632.91	584.77
633.26	580.89
633.60	577.12
633.95	573.46
634.29	569.64
634.64	565.77
634.98	561.81
635.32	558.01
635.67	554.38
636.01	550.69
636.36	547.03
636.70	543.51
637.05	539.99
637.39	536.65
637.73	533.15
638.08	529.74
638.42	526.30
638.77	522.76
639.11	519.15
639.45	515.61
639.80	512.08
640.14	508.73
640.49	505.34
640.83	501.82
641.17	498.37
641.52	495.06
641.86	491.74
642.20	488.63
642.55	485.33
642.89	482.12
643.23	479.12
643.58	476.34
643.92	473.44
644.26	470.57
644.61	467.68
644.95	464.82
645.29	461.87
645.64	458.92
645.98	456.10
646.32	453.46
646.66	450.82
647.01	448.14
647.35	445.51
647.69	442.78
648.04	440.21
648.38	437.64
648.72	435.03
649.06	432.52
649.41	430.03
649.75	427.55
650.09	425.10
650.43	422.63
650.78	420.13
651.12	417.63
651.46	415.22
651.80	412.92
652.14	410.68
652.49	408.47
652.83	406.29
653.17	404.12
653.51	402.00
653.85	399.95
654.20	397.84
654.54	395.65
654.88	393.65
655.22	391.70
655.56	389.71
655.90	387.83
656.25	385.94
656.59	384.05
656.93	382.27
657.27	380.52
657.61	378.68
657.95	376.90
658.29	375.12
658.64	373.37
658.98	371.59
659.32	369.87
659.66	368.23
660.00	366.60
660.34	365.01
660.68	363.36
661.02	361.65
661.36	360.08
661.70	358.55
662.05	356.99
662.39	355.43
662.73	353.95
663.07	352.51
663.41	351.09
663.75	349.70
664.09	348.29
664.43	346.81
664.77	345.45
665.11	344.03
665.45	342.70
665.79	341.35
666.13	339.99
666.47	338.61
666.81	337.21
667.15	335.79
667.49	334.44
667.83	333.15
668.17	331.90
668.51	330.65
668.85	329.44
669.19	328.31
669.53	327.11
669.87	325.87
670.21	324.66
670.55	323.46
670.89	322.34
671.23	321.19
671.57	320.06
671.91	318.95
672.25	317.91
672.58	316.86
672.92	315.81
673.26	314.82
673.60	313.84
673.94	312.83
674.28	311.90
674.62	310.95
674.96	309.97
675.30	309.06
675.64	308.12
675.97	307.19
676.31	306.22
676.65	305.29
676.99	304.43
677.33	303.51
677.67	302.63
678.01	301.67
678.34	300.79
678.68	299.96
679.02	299.11
679.36	298.25
679.70	297.41
680.04	296.59
680.37	295.75
680.71	294.95
681.05	294.21
681.39	293.41
681.73	292.59
682.06	291.81
682.40	291.03
682.74	290.28
683.08	289.56
683.42	288.82
683.75	288.15
684.09	287.39
684.43	286.69
684.77	285.97
685.10	285.30
685.44	284.62
685.78	283.93
686.12	283.28
686.45	282.60
686.79	281.93
687.13	281.26
687.46	280.59
687.80	279.95
688.14	279.25
688.48	278.63
688.81	278.00
689.15	277.41
689.49	276.78
689.82	276.17
690.16	275.50
690.50	274.90
690.83	274.29
691.17	273.70
691.51	273.12
691.84	272.56
692.18	271.96
692.52	271.35
692.85	270.77
693.19	270.24
693.52	269.69
693.86	269.15
694.20	268.62
694.53	268.11
694.87	267.58
695.21	267.07
695.54	266.56
695.88	266.04
696.21	265.49
696.55	264.98
696.88	264.48
697.22	264.01
697.56	263.51
697.89	262.98
698.23	262.49
698.56	261.98
698.90	261.52
699.23	261.04
699.57	260.60
699.90	260.14
700.24	259.66
700.58	259.22
700.91	258.80
701.25	258.45
701.58	258.06
701.92	257.67
702.25	257.25
702.59	256.83
702.92	256.43
703.26	256.05
703.59	255.66
703.93	255.34
704.26	254.97
704.60	254.59
704.93	254.24
705.26	253.88
705.60	253.55
705.93	253.17
706.27	252.86
706.60	252.53
706.94	252.21
707.27	251.84
707.61	251.49
707.94	251.12
708.27	250.69
708.61	250.31
708.94	249.96
709.28	249.62
709.61	249.30
709.94	249.00
710.28	248.71
710.61	248.42
710.95	248.04
711.28	247.81
711.61	247.53
711.95	247.26
712.28	246.96
712.61	246.67
712.95	246.44
713.28	246.22
713.61	245.93
713.95	245.64
714.28	245.40
714.61	245.14
714.95	244.90
715.28	244.65
715.61	244.40
715.95	244.17
716.28	243.94
716.61	243.72
716.95	243.48
717.28	243.25
717.61	243.01
717.94	242.78
718.28	242.49
718.61	242.26
718.94	242.03
719.27	241.82
719.61	241.62
719.94	241.39
720.27	241.13
720.60	240.93
720.94	240.72
721.27	240.53
721.60	240.36
721.93	240.16
722.27	240.00
722.60	239.83
722.93	239.62
723.26	239.45
723.59	239.24
723.93	239.08
724.26	238.91
724.59	238.73
724.92	238.57
725.25	238.44
725.59	238.27
725.92	238.13
726.25	237.97
726.58	237.80
726.91	237.64
727.24	237.50
727.57	237.35
727.91	237.18
728.24	237.05
728.57	236.89
728.90	236.75
729.23	236.58
729.56	236.48
729.89	236.34
730.22	236.19
730.55	236.05
730.89	235.90
731.22	235.75
731.55	235.62
731.88	235.48
732.21	235.33
732.54	235.20
732.87	235.07
733.20	234.95
733.53	234.84
733.86	234.73
734.19	234.59
734.52	234.49
734.85	234.45
735.18	234.31
735.51	234.22
735.84	234.11
736.17	234.03
736.50	233.86
736.83	233.87
737.16	233.77
737.49	233.67
737.82	233.57
738.15	233.49
738.48	233.39
738.81	233.28
739.14	233.18
739.47	233.06
739.80	232.96
740.13	232.87
740.46	232.75
740.79	232.63
741.12	232.54
741.45	232.42
741.78	232.27
742.11	232.21
742.44	232.09
742.77	232.01
743.10	231.91
743.43	231.82
743.75	231.62
744.08	231.69
744.41	231.60
744.74	231.51
745.07	231.39
745.40	231.32
745.73	231.29
746.06	231.21
746.39	231.15
746.71	231.06
747.04	230.98
747.37	230.90
747.70	230.84
748.03	230.77
748.36	230.71
748.68	230.64
749.01	230.53
749.34	230.47
749.67	230.40
750.00	230.34
750.33	230.36
750.65	230.30
750.98	230.08
751.31	230.02
751.64	229.96
751.97	229.95
752.29	229.88
752.62	229.76
752.95	229.69
753.28	229.61
753.60	229.55
753.93	229.50
754.26	229.45
754.59	229.36
754.91	229.28
755.24	229.20
755.57	229.19
755.90	229.12
756.22	229.05
756.55	228.97
756.88	228.89
757.20	228.76
757.53	228.67
757.86	228.61
758.19	228.56
758.51	228.50
758.84	228.39
759.17	228.34
759.49	228.29
759.82	228.29
760.15	228.25
760.47	228.20
760.80	228.12
761.13	228.09
761.45	228.04
761.78	228.00
762.11	227.96
762.43	227.87
762.76	227.82
763.08	227.79
763.41	227.76
763.74	227.71
764.06	227.66
764.39	227.63
764.71	227.58
765.04	227.53
765.37	227.48
765.69	227.44
766.02	227.39
766.34	227.33
766.67	227.25
767.00	227.23
767.32	227.24
767.65	227.27
767.97	227.21
768.30	227.18
768.62	227.13
768.95	227.09
769.27	227.04
769.60	227.02
769.92	226.96
770.25	226.91
770.57	226.86
770.90	226.83
771.22	226.79
771.55	226.76
771.87	226.73
772.20	226.70
772.52	226.75
772.85	226.84
773.17	226.82
773.50	226.79
773.82	226.74
774.15	226.65
774.47	226.56
774.80	226.52
775.12	226.49
775.45	226.46
775.77	226.45
776.09	226.43
776.42	226.41
776.74	226.41
777.07	226.38
777.39	226.35
777.72	226.32
778.04	226.31
778.36	226.27
778.69	226.25
779.01	226.24
779.33	226.12
779.66	225.99
779.98	225.95
780.31	225.94
780.63	225.96
780.95	225.96
781.28	225.93
781.60	225.91
781.92	225.89
782.25	225.87
782.57	225.84
782.89	225.81
783.22	225.78
783.54	225.74
783.86	225.73
784.19	225.71
784.51	225.73
784.83	225.69
785.16	225.67
785.48	225.66
785.80	225.63
786.12	225.63
786.45	225.61
786.77	225.60
787.09	225.57
787.42	225.51
787.74	225.49
788.06	225.49
788.38	225.46
788.71	225.44
789.03	225.43
789.35	225.43
789.67	225.40
789.99	225.39
790.32	225.35
790.64	225.35
790.96	225.42
791.28	225.38
791.61	225.37
791.93	225.36
792.25	225.33
792.57	225.39
792.89	225.36
793.21	225.35
793.54	225.33
793.86	225.31
794.18	225.30
794.50	225.27
794.82	225.25
795.14	225.25
795.47	225.26
795.79	225.24
796.11	225.21
796.43	225.20
796.75	225.18
797.07	225.18
797.39	225.16
797.71	225.07
798.04	225.06
798.36	225.05
798.68	225.04
799.00	225.03
799.32	224.97
799.64	224.98
799.96	224.96
800.28	224.97
800.60	224.96
800.92	224.96
801.24	224.94
801.56	224.94
801.89	224.92
802.21	224.91
802.53	224.88
802.85	224.90
803.17	224.94
803.49	224.91
803.81	224.89
804.13	224.88
804.45	224.86
804.77	224.87
805.09	224.86
805.41	224.83
805.73	224.81
806.05	224.78
806.37	224.76
806.69	224.74
807.01	224.72
807.33	224.72
807.65	224.67
807.97	224.71
808.28	224.68
808.60	224.67
808.92	224.65
809.24	224.71
809.56	224.69
809.88	224.64
810.20	224.64
810.52	224.66
810.84	224.63
811.16	224.61
811.48	224.59
811.80	224.62
812.12	224.61
812.43	224.62
812.75	224.62
813.07	224.60
813.39	224.60
813.71	224.58
814.03	224.57
814.35	224.58
814.67	224.53
814.98	224.52
815.30	224.51
815.62	224.50
815.94	224.41
816.26	224.42
816.58	224.40
816.89	224.39
817.21	224.37
817.53	224.37
817.85	224.37
818.17	224.37
818.48	224.32
818.80	224.34
819.12	224.32
819.44	224.30
819.76	224.28
820.07	224.28
820.39	224.27
820.71	224.27
821.03	224.26
821.34	224.25
821.66	224.26
821.98	224.27
822.30	224.26
822.61	224.32
822.93	224.30
823.25	224.30
823.57	224.28
823.88	224.29
824.20	224.28
824.52	224.30
824.83	224.29
825.15	224.27
825.47	224.26
825.79	224.27
826.10	224.26
826.42	224.25
826.74	224.25
827.05	224.25
827.37	224.24
827.69	224.23
828.00	224.23
828.32	224.23
828.64	224.21
828.95	224.26
829.27	224.22
829.58	224.21
829.90	224.23
830.22	224.23
830.53	224.20
830.85	224.19
831.17	224.16
831.48	224.16
831.80	224.17
832.11	224.15
832.43	224.13
832.75	224.14
833.06	224.19
833.38	224.17
833.69	224.15
834.01	224.16
834.32	224.15
834.64	224.14
834.96	224.14
835.27	224.13
835.59	224.10
835.90	224.08
836.22	224.08
836.53	224.06
836.85	224.04
837.16	224.14
837.48	224.14
837.79	224.17
838.11	224.17
838.42	224.15
838.74	224.16
839.05	224.16
839.37	224.15
839.68	224.09
840.00	224.08
840.31	224.09
840.63	224.08
840.94	224.07
841.26	224.07
841.57	224.06
841.88	224.07
842.20	224.05
842.51	224.04
842.83	224.03
843.14	224.12
843.46	224.11
843.77	224.05
844.08	224.05
844.40	224.02
844.71	224.01
845.03	224.00
845.34	223.99
845.65	223.98
845.97	223.99
846.28	224.00
846.60	224.00
846.91	223.98
847.22	223.97
847.54	223.99
847.85	224.00
848.16	223.98
848.48	223.96
848.79	224.00
849.10	224.01
849.42	224.02
849.73	223.93
850.04	223.93
850.36	223.89
850.67	223.91
850.98	223.90
851.30	223.91
851.61	223.91
851.92	223.91
852.23	223.93
852.55	223.93
852.86	223.92
853.17	223.93
853.49	223.95
853.80	223.97
854.11	223.98
854.42	223.99
854.74	223.98
855.05	223.98
855.36	223.93
855.67	223.93
855.99	223.92
856.30	224.04
856.61	224.04
856.92	224.04
857.23	224.04
857.55	224.02
857.86	224.01
858.17	224.03
858.48	224.01
858.79	223.98
859.11	224.00
859.42	224.00
859.73	223.98
860.04	223.98
860.35	223.95
860.66	223.91
860.98	223.91
861.29	223.92
861.60	223.91
861.91	223.93
862.22	223.91
862.53	223.90
862.84	223.77
863.16	223.79
863.47	223.77
863.78	223.75
864.09	223.76
864.40	223.77
864.71	223.77
865.02	223.78
865.33	223.77
865.64	223.74
865.95	223.74
866.27	223.80
866.58	223.78
866.89	223.80
867.20	223.80
867.51	223.78
867.82	223.77
868.13	223.80
868.44	223.78
868.75	223.80
869.06	223.81
869.37	223.82
869.68	223.79
869.99	223.82
870.30	223.83
870.61	223.83
870.92	223.83
871.23	223.82
871.54	223.83
871.85	223.86
872.16	223.88
872.47	223.88
872.78	223.82
873.09	223.84
873.40	223.82
873.71	223.83
874.02	223.83
874.33	223.82
874.64	223.80
874.95	223.82
875.26	223.79
875.56	223.80
875.87	223.80
876.18	223.79
876.49	223.88
876.80	223.87
877.11	223.86
877.42	223.85
877.73	223.86
878.04	223.84
878.35	223.82
878.66	223.82
878.96	223.81
879.27	223.81
879.58	223.80
879.89	223.80
880.20	223.83
880.51	223.83
880.82	223.83
881.12	223.83
881.43	223.81
881.74	223.80
882.05	223.79
882.36	223.80
882.67	223.80
882.97	223.69
883.28	223.68
883.59	223.67
883.90	223.68
884.21	223.69
884.51	223.69
884.82	223.68
885.13	223.68
885.44	223.68
885.74	223.68
886.05	223.68
886.36	223.68
886.67	223.64
886.98	223.69
887.28	223.71
887.59	223.70
887.90	223.71
888.20	223.70
888.51	223.71
888.82	223.69
889.13	223.70
889.43	223.79
889.74	223.79
890.05	223.79
890.35	223.78
890.66	223.76
890.97	223.75
891.28	223.74
891.58	223.73
891.89	223.73
892.20	223.71
892.50	223.70
892.81	223.70
893.12	223.70
893.42	223.64
893.73	223.64
894.04	223.64
894.34	223.64
894.65	223.64
894.95	223.64
895.26	223.65
895.57	223.68
895.87	223.58
896.18	223.59
896.48	223.59
896.79	223.60
897.10	223.61
897.40	223.60
897.71	223.61
898.01	223.61
898.32	223.62
898.63	223.62
898.93	223.62
899.24	223.62
899.54	223.62
899.85	223.61
900.15	223.60
900.46	223.60
900.76	223.60
901.07	223.60
901.38	223.59
901.68	223.61
901.99	223.55
902.29	223.56
902.60	223.55
902.90	223.54
903.21	223.54
903.51	223.53
903.82	223.56
904.12	223.56
904.43	223.56
904.73	223.55
905.03	223.56
905.34	223.66
905.64	223.65
905.95	223.65
906.25	223.66
906.56	223.66
906.86	223.66
907.17	223.65
907.47	223.66
907.77	223.65
908.08	223.63
908.38	223.64
908.69	223.65
908.99	223.66
909.30	223.67
909.60	223.67
909.90	223.67
910.21	223.64
910.51	223.63
910.81	223.63
911.12	223.64
911.42	223.64
911.73	223.53
912.03	223.55
912.33	223.57
912.64	223.56
912.94	223.55
913.24	223.54
913.55	223.54
913.85	223.53
914.15	223.55
914.46	223.56
914.76	223.55
915.06	223.55
915.37	223.53
915.67	223.52
915.97	223.53
916.27	223.51
916.58	223.51
916.88	223.51
917.18	223.50
917.49	223.57
917.79	223.56
918.09	223.58
918.39	223.60
918.70	223.58
919.00	223.58
919.30	223.63
919.60	223.63
919.91	223.62
920.21	223.63
920.51	223.60
920.81	223.59
921.12	223.61
921.42	223.61
921.72	223.61
922.02	223.62
922.32	223.63
922.63	223.63
922.93	223.69
923.23	223.70
923.53	223.68
923.83	223.61
924.13	223.62
924.44	223.62
924.74	223.63
925.04	223.66
925.34	223.66
925.64	223.62
925.94	223.61
926.24	223.67
926.55	223.67
926.85	223.68
927.15	223.69
927.45	223.68
927.75	223.68
928.05	223.68
928.35	223.67
928.65	223.67
928.95	223.67
929.26	223.62
929.56	223.64
929.86	223.65
930.16	223.64
930.46	223.63
930.76	223.63
931.06	223.58
931.36	223.55
931.66	223.57
931.96	223.58
932.26	223.58
932.56	223.54
932.86	223.54
933.16	223.54
933.46	223.52
933.76	223.51
934.06	223.52
934.36	223.56
934.66	223.56
934.96	223.54
935.26	223.55
935.56	223.56
935.86	223.53
936.16	223.52
936.46	223.51
936.76	223.51
937.06	223.49
937.36	223.50
937.66	223.50
937.96	223.49
938.26	223.46
938.56	223.45
938.86	223.46
939.16	223.48
939.46	223.49
939.76	223.50
940.06	223.50
940.35	223.48
940.65	223.42
940.95	223.43
941.25	223.41
941.55	223.40
941.85	223.39
942.15	223.41
942.45	223.44
942.75	223.44
943.04	223.45
943.34	223.47
943.64	223.46
943.94	223.45
944.24	223.45
944.54	223.46
944.84	223.46
945.13	223.44
945.43	223.42
945.73	223.42
946.03	223.40
946.33	223.40
946.62	223.38
946.92	223.39
947.22	223.39
947.52	223.40
947.82	223.42
948.11	223.41
948.41	223.39
948.71	223.36
949.01	223.36
949.31	223.36
949.60	223.35
949.90	223.36
950.20	223.36
950.50	223.36
950.79	223.35
951.09	223.37
951.39	223.37
951.69	223.36
951.98	223.38
952.28	223.38
952.58	223.38
952.87	223.39
953.17	223.40
953.47	223.40
953.76	223.39
954.06	223.37
954.36	223.36
954.66	223.36
954.95	223.39
955.25	223.39
955.55	223.40
955.84	223.39
956.14	223.39
956.44	223.40
956.73	223.38
957.03	223.39
957.32	223.39
957.62	223.38
957.92	223.40
958.21	223.39
958.51	223.52
958.81	223.53
959.10	223.54
959.40	223.57
959.69	223.57
959.99	223.59
960.29	223.59
960.58	223.59
960.88	223.62
961.17	223.61
961.47	223.61
961.76	223.60
962.06	223.62
962.36	223.61
962.65	223.61
962.95	223.62
963.24	223.62
963.54	223.61
963.83	223.62
964.13	223.61
964.42	223.60
964.72	223.51
965.01	223.51
965.31	223.51
965.60	223.48
965.90	223.54
966.19	223.51
966.49	223.51
966.78	223.51
967.08	223.50
967.37	223.50
967.67	223.49
967.96	223.51
968.26	223.51
968.55	223.52
968.85	223.52
969.14	223.52
969.43	223.52
969.73	223.51
970.02	223.50
970.32	223.49
970.61	223.48
970.91	223.45
971.20	223.43
971.49	223.42
971.79	223.43
972.08	223.36
972.38	223.38
972.67	223.38
972.96	223.39
973.26	223.37
973.55	223.40
973.85	223.40
974.14	223.38
974.43	223.38
974.73	223.37
975.02	223.35
975.31	223.36
975.61	223.35
975.90	223.34
976.19	223.34
976.49	223.34
976.78	223.35
977.07	223.35
977.37	223.36
977.66	223.37
977.95	223.35
978.24	223.37
978.54	223.39
978.83	223.38
979.12	223.36
979.42	223.37
979.71	223.34
980.00	223.35
980.29	223.36
980.59	223.34
980.88	223.36
981.17	223.36
981.46	223.36
981.76	223.36
982.05	223.39
982.34	223.39
982.63	223.38
982.93	223.38
983.22	223.40
983.51	223.41
983.80	223.43
984.09	223.43
984.39	223.42
984.68	223.41
984.97	223.41
985.26	223.40
985.55	223.41
985.85	223.39
986.14	223.40
986.43	223.41
986.72	223.40
987.01	223.37
987.30	223.38
987.59	223.37
987.89	223.37
988.18	223.33
988.47	223.32
988.76	223.33
989.05	223.32
989.34	223.30
989.63	223.33
989.92	223.31
990.22	223.30
990.51	223.29
990.80	223.28
991.09	223.30
991.38	223.31
991.67	223.30
991.96	223.29
992.25	223.30
992.54	223.28
992.83	223.29
993.12	223.28
993.41	223.30
993.70	223.34
993.99	223.36
994.28	223.38
994.58	223.40
994.87	223.39
995.16	223.39
995.45	223.38
995.74	223.34
996.03	223.36
996.32	223.37
996.61	223.39
996.90	223.38
997.19	223.37
997.48	223.37
997.77	223.37
998.06	223.37
998.34	223.37
998.63	223.36
998.92	223.37
999.21	223.38
999.50	223.37
999.79	223.34
1000.08	223.34
1000.37	223.34
1000.66	223.32
1000.95	223.34
1001.24	223.35
1001.53	223.37
1001.82	223.37
1002.11	223.34
1002.40	223.35
1002.68	223.37
1002.97	223.45
1003.26	223.44
1003.55	223.42
1003.84	223.43
1004.13	223.46
1004.42	223.46
1004.71	223.45
1004.99	223.45
1005.28	223.47
1005.57	223.47
1005.86	223.46
1006.15	223.45
1006.44	223.43
1006.72	223.45
1007.01	223.43
1007.30	223.43
1007.59	223.42
1007.88	223.41
1008.17	223.42
1008.45	223.40
1008.74	223.36
1009.03	223.31
1009.32	223.31
1009.60	223.31
1009.89	223.30
1010.18	223.26
1010.47	223.25
1010.76	223.26
1011.04	223.25
1011.33	223.25
1011.62	223.25
1011.91	223.26
1012.19	223.27
1012.48	223.28
1012.77	223.28
1013.05	223.30
1013.34	223.30
1013.63	223.30
1013.92	223.32
1014.20	223.31
1014.49	223.31
1014.78	223.33
1015.06	223.30
1015.35	223.30
1015.64	223.32
1015.92	223.34
1016.21	223.34
1016.50	223.34
1016.78	223.36
1017.07	223.36
1017.36	223.34
1017.64	223.33
1017.93	223.34
1018.22	223.33
1018.50	223.32
1018.79	223.32
1019.08	223.28
1019.36	223.29
1019.65	223.28
1019.93	223.30
1020.22	223.32
1020.51	223.37
1020.79	223.36
1021.08	223.08
1021.36	223.13
1021.65	223.35
1021.94	223.25
1022.22	223.27
1022.51	223.16
1022.79	223.82
1023.08	223.45
1023.36	224.52
1023.65	223.12
>>>>>End Processed Spectral Data<<<<<
