SpectraSuite Data File
++++++++++++++++++++++++++++++++++++
Date: Wed Sep 30 16:02:42 EDT 2015
User: lab3
Dark Spectrum Present: No
Reference Spectrum Present: No
Number of Sampled Component Spectra: 1
Spectrometers: USB2E7196
Integration Time (usec): 36000 (USB2E7196)
Spectra Averaged: 3000 (USB2E7196)
Boxcar Smoothing: 10 (USB2E7196)
Correct for Electrical Dark: No (USB2E7196)
Strobe/Lamp Enabled: No (USB2E7196)
Correct for Detector Non-linearity: No (USB2E7196)
Correct for Stray Light: No (USB2E7196)
Number of Pixels in Processed Spectrum: 2048
>>>>>Begin Processed Spectral Data<<<<<
339.09	0.00
339.48	211.88
339.86	213.44
340.24	214.74
340.63	216.26
341.01	219.03
341.39	218.85
341.78	220.15
342.16	221.43
342.54	221.90
342.93	210.40
343.31	221.04
343.69	221.58
344.07	222.04
344.46	222.47
344.84	222.85
345.22	223.10
345.60	223.36
345.99	223.55
346.37	223.69
346.75	223.80
347.13	223.88
347.52	223.94
347.90	224.03
348.28	224.06
348.66	224.11
349.05	224.11
349.43	224.16
349.81	224.22
350.19	224.27
350.57	224.34
350.96	224.43
351.34	224.52
351.72	224.61
352.10	224.71
352.48	224.79
352.87	224.84
353.25	224.90
353.63	224.96
354.01	225.03
354.39	225.10
354.77	225.17
355.15	225.29
355.54	225.34
355.92	225.38
356.30	225.45
356.68	225.59
357.06	225.67
357.44	225.73
357.82	225.79
358.20	225.90
358.58	225.96
358.97	226.02
359.35	226.11
359.73	226.19
360.11	226.25
360.49	226.31
360.87	226.36
361.25	226.43
361.63	226.51
362.01	226.55
362.39	226.59
362.77	226.63
363.15	226.65
363.53	226.69
363.91	226.72
364.29	226.74
364.67	226.67
365.05	226.69
365.43	226.71
365.81	226.74
366.19	226.75
366.57	226.80
366.95	226.80
367.33	226.77
367.71	226.76
368.09	226.77
368.47	226.76
368.85	226.75
369.23	226.76
369.61	226.71
369.99	226.72
370.37	226.71
370.75	226.77
371.13	226.74
371.51	226.69
371.89	226.68
372.27	226.66
372.65	226.63
373.03	226.59
373.41	226.55
373.78	226.50
374.16	226.41
374.54	226.33
374.92	226.29
375.30	226.24
375.68	226.18
376.06	226.13
376.44	226.07
376.82	226.03
377.19	225.98
377.57	225.92
377.95	225.84
378.33	225.78
378.71	225.63
379.09	225.58
379.47	225.54
379.84	225.48
380.22	225.42
380.60	225.35
380.98	225.29
381.36	225.24
381.73	225.18
382.11	225.15
382.49	225.10
382.87	225.04
383.25	224.99
383.62	225.07
384.00	225.01
384.38	224.97
384.76	224.94
385.13	224.93
385.51	224.89
385.89	224.83
386.27	224.80
386.64	224.78
387.02	224.73
387.40	224.68
387.78	224.66
388.15	224.62
388.53	224.59
388.91	224.56
389.29	224.52
389.66	224.51
390.04	224.47
390.42	224.46
390.79	224.45
391.17	224.43
391.55	224.30
391.92	224.28
392.30	224.28
392.68	224.24
393.05	224.22
393.43	224.22
393.81	224.22
394.18	224.20
394.56	224.21
394.94	224.23
395.31	224.23
395.69	224.27
396.06	224.29
396.44	224.31
396.82	224.33
397.19	224.40
397.57	224.42
397.95	224.46
398.32	224.46
398.70	224.49
399.07	224.55
399.45	224.58
399.82	224.63
400.20	224.66
400.58	224.72
400.95	224.73
401.33	224.80
401.70	224.94
402.08	225.04
402.45	225.10
402.83	225.21
403.20	225.31
403.58	225.39
403.95	225.51
404.33	225.63
404.71	225.76
405.08	225.94
405.46	226.08
405.83	226.23
406.21	226.40
406.58	226.59
406.96	226.77
407.33	226.98
407.70	227.22
408.08	227.54
408.45	227.82
408.83	228.13
409.20	228.40
409.58	228.65
409.95	228.98
410.33	229.36
410.70	229.70
411.08	230.11
411.45	230.55
411.82	230.99
412.20	231.49
412.57	232.08
412.95	232.54
413.32	233.16
413.69	233.79
414.07	234.45
414.44	235.18
414.82	235.92
415.19	236.78
415.56	237.67
415.94	238.58
416.31	239.60
416.68	240.63
417.06	241.82
417.43	242.93
417.81	244.22
418.18	245.53
418.55	246.97
418.93	248.45
419.30	250.01
419.67	251.67
420.04	253.37
420.42	255.16
420.79	257.22
421.16	259.30
421.54	261.41
421.91	263.61
422.28	265.91
422.66	268.39
423.03	270.75
423.40	273.23
423.77	275.90
424.15	278.63
424.52	281.46
424.89	284.54
425.26	287.60
425.64	290.44
426.01	293.64
426.38	296.91
426.75	300.29
427.13	303.74
427.50	307.37
427.87	311.13
428.24	314.93
428.61	318.57
428.99	322.49
429.36	326.79
429.73	330.90
430.10	335.01
430.47	339.20
430.85	343.51
431.22	348.11
431.59	352.85
431.96	357.45
432.33	362.55
432.70	367.39
433.08	373.11
433.45	378.52
433.82	383.84
434.19	389.77
434.56	395.61
434.93	401.24
435.30	406.78
435.68	413.02
436.05	419.13
436.42	425.25
436.79	430.82
437.16	436.84
437.53	443.29
437.90	449.72
438.27	455.99
438.64	462.80
439.01	468.94
439.38	474.53
439.75	479.95
440.13	486.11
440.50	491.94
440.87	496.54
441.24	501.59
441.61	507.15
441.98	511.23
442.35	516.08
442.72	521.03
443.09	525.77
443.46	528.81
443.83	531.06
444.20	532.92
444.57	535.67
444.94	537.27
445.31	538.91
445.68	540.37
446.05	541.42
446.42	541.19
446.79	540.86
447.16	540.56
447.53	540.31
447.90	538.41
448.27	536.68
448.64	533.93
449.01	532.10
449.37	528.18
449.74	524.61
450.11	520.03
450.48	515.01
450.85	509.96
451.22	505.66
451.59	501.44
451.96	497.62
452.33	492.06
452.70	487.10
453.07	481.07
453.43	475.05
453.80	469.22
454.17	463.61
454.54	458.43
454.91	452.57
455.28	447.06
455.65	441.87
456.02	436.33
456.38	431.88
456.75	426.12
457.12	421.50
457.49	416.82
457.86	412.38
458.23	408.49
458.59	404.19
458.96	399.77
459.33	395.89
459.70	391.93
460.07	388.90
460.43	385.34
460.80	382.00
461.17	379.06
461.54	375.91
461.91	372.94
462.27	369.92
462.64	367.48
463.01	364.65
463.38	361.79
463.74	359.21
464.11	356.91
464.48	354.84
464.85	352.61
465.21	350.91
465.58	349.03
465.95	346.85
466.32	345.10
466.68	343.41
467.05	341.70
467.42	340.05
467.78	338.29
468.15	336.65
468.52	335.43
468.88	333.83
469.25	332.36
469.62	331.19
469.98	329.92
470.35	328.80
470.72	327.79
471.08	326.75
471.45	325.90
471.82	324.96
472.18	323.98
472.55	323.35
472.92	322.57
473.28	321.96
473.65	321.34
474.02	320.76
474.38	320.27
474.75	319.99
475.11	319.59
475.48	319.42
475.85	319.27
476.21	319.22
476.58	319.22
476.94	319.42
477.31	319.55
477.67	319.71
478.04	319.97
478.41	320.31
478.77	320.78
479.14	321.11
479.50	321.67
479.87	322.37
480.23	323.06
480.60	323.73
480.96	324.42
481.33	325.36
481.69	326.30
482.06	327.25
482.42	328.15
482.79	329.23
483.15	330.47
483.52	331.86
483.88	333.20
484.25	334.62
484.61	336.10
484.98	337.71
485.34	339.49
485.71	341.35
486.07	343.34
486.44	345.30
486.80	347.50
487.17	349.76
487.53	352.22
487.90	354.80
488.26	357.58
488.62	360.52
488.99	363.47
489.35	366.56
489.72	369.90
490.08	373.39
490.44	376.98
490.81	380.74
491.17	384.58
491.54	388.69
491.90	392.90
492.26	397.44
492.63	402.21
492.99	407.17
493.36	412.25
493.72	417.60
494.08	423.11
494.45	428.90
494.81	434.89
495.17	441.01
495.54	447.48
495.90	454.26
496.26	461.19
496.63	468.35
496.99	475.81
497.35	483.64
497.72	491.75
498.08	500.02
498.44	508.54
498.80	517.60
499.17	526.89
499.53	536.49
499.89	546.32
500.26	556.34
500.62	566.63
500.98	577.61
501.34	588.71
501.71	600.35
502.07	612.22
502.43	624.47
502.79	637.04
503.16	650.04
503.52	663.16
503.88	676.67
504.24	690.63
504.60	704.77
504.97	719.31
505.33	734.27
505.69	750.12
506.05	766.15
506.41	782.20
506.78	798.57
507.14	815.43
507.50	832.81
507.86	850.60
508.22	868.63
508.59	886.69
508.95	905.47
509.31	924.68
509.67	944.59
510.03	964.69
510.39	985.02
510.75	1005.51
511.12	1026.32
511.48	1047.33
511.84	1068.60
512.20	1090.23
512.56	1112.91
512.92	1135.60
513.28	1158.02
513.64	1180.84
514.00	1204.10
514.37	1227.59
514.73	1251.14
515.09	1274.47
515.45	1298.22
515.81	1322.50
516.17	1346.79
516.53	1370.83
516.89	1394.88
517.25	1419.10
517.61	1443.54
517.97	1468.21
518.33	1492.70
518.69	1517.29
519.05	1542.24
519.41	1567.18
519.77	1592.39
520.13	1616.83
520.49	1641.55
520.85	1666.45
521.21	1691.13
521.57	1716.40
521.93	1740.91
522.29	1766.19
522.65	1791.28
523.01	1816.13
523.37	1840.16
523.73	1865.00
524.09	1890.04
524.45	1914.84
524.81	1939.07
525.17	1963.20
525.53	1986.92
525.89	2010.60
526.25	2034.52
526.61	2057.76
526.97	2081.34
527.33	2104.78
527.68	2127.95
528.04	2150.51
528.40	2172.79
528.76	2195.36
529.12	2216.87
529.48	2238.84
529.84	2258.99
530.20	2279.56
530.56	2299.74
530.91	2320.21
531.27	2340.01
531.63	2359.05
531.99	2377.74
532.35	2396.36
532.71	2415.08
533.07	2434.19
533.42	2451.96
533.78	2469.90
534.14	2487.95
534.50	2505.08
534.86	2522.85
535.21	2538.86
535.57	2554.48
535.93	2569.68
536.29	2583.36
536.65	2597.99
537.00	2611.51
537.36	2625.72
537.72	2638.97
538.08	2651.85
538.44	2663.63
538.79	2675.60
539.15	2685.83
539.51	2695.85
539.87	2705.19
540.22	2712.32
540.58	2719.97
540.94	2727.87
541.29	2734.59
541.65	2740.29
542.01	2745.52
542.37	2748.92
542.72	2754.34
543.08	2759.08
543.44	2763.53
543.79	2767.70
544.15	2770.63
544.51	2773.62
544.87	2775.55
545.22	2777.25
545.58	2778.03
545.94	2779.19
546.29	2778.94
546.65	2778.51
547.01	2778.54
547.36	2778.59
547.72	2779.06
548.07	2777.89
548.43	2776.30
548.79	2773.91
549.14	2771.39
549.50	2769.63
549.86	2766.63
550.21	2761.67
550.57	2757.13
550.92	2751.39
551.28	2746.05
551.64	2740.75
551.99	2735.64
552.35	2730.25
552.70	2724.31
553.06	2719.01
553.41	2713.21
553.77	2706.66
554.13	2701.36
554.48	2694.60
554.84	2686.71
555.19	2678.81
555.55	2670.40
555.90	2662.48
556.26	2655.61
556.61	2648.10
556.97	2638.48
557.32	2630.15
557.68	2621.62
558.03	2612.84
558.39	2604.64
558.74	2596.45
559.10	2587.35
559.45	2577.65
559.81	2568.23
560.16	2558.20
560.52	2548.05
560.87	2538.83
561.23	2529.17
561.58	2519.17
561.94	2509.06
562.29	2498.33
562.64	2488.14
563.00	2478.16
563.35	2468.03
563.71	2456.72
564.06	2445.44
564.42	2434.90
564.77	2424.01
565.12	2413.21
565.48	2402.20
565.83	2391.83
566.19	2381.62
566.54	2370.62
566.89	2359.19
567.25	2347.77
567.60	2337.09
567.96	2325.84
568.31	2313.36
568.66	2301.14
569.02	2289.71
569.37	2278.12
569.72	2267.06
570.08	2255.37
570.43	2243.12
570.78	2230.44
571.14	2217.99
571.49	2205.90
571.84	2194.11
572.20	2181.13
572.55	2168.72
572.90	2155.97
573.26	2142.27
573.61	2127.97
573.96	2114.23
574.31	2100.60
574.67	2087.24
575.02	2073.40
575.37	2059.26
575.72	2045.39
576.08	2031.78
576.43	2017.14
576.78	2002.67
577.13	1988.90
577.49	1975.17
577.84	1961.90
578.19	1947.87
578.54	1933.50
578.90	1918.71
579.25	1903.68
579.60	1890.07
579.95	1875.98
580.30	1862.05
580.66	1848.34
581.01	1834.31
581.36	1820.66
581.71	1807.72
582.06	1794.05
582.42	1780.77
582.77	1767.84
583.12	1754.48
583.47	1741.48
583.82	1728.61
584.17	1715.55
584.53	1702.44
584.88	1689.34
585.23	1675.79
585.58	1662.85
585.93	1650.15
586.28	1638.27
586.63	1626.09
586.98	1613.17
587.34	1600.47
587.69	1587.35
588.04	1574.74
588.39	1562.59
588.74	1549.75
589.09	1536.82
589.44	1523.97
589.79	1511.45
590.14	1499.06
590.49	1486.82
590.84	1474.40
591.19	1462.49
591.54	1450.17
591.89	1437.67
592.25	1425.44
592.60	1412.99
592.95	1401.07
593.30	1389.53
593.65	1377.74
594.00	1366.32
594.35	1355.43
594.70	1343.84
595.05	1333.15
595.40	1322.04
595.75	1310.59
596.10	1300.06
596.45	1289.68
596.80	1279.70
597.15	1269.57
597.50	1259.30
597.85	1249.35
598.19	1239.52
598.54	1229.27
598.89	1219.71
599.24	1210.28
599.59	1200.78
599.94	1192.22
600.29	1183.46
600.64	1174.42
600.99	1164.82
601.34	1155.66
601.69	1146.13
602.04	1137.63
602.39	1129.11
602.74	1120.83
603.08	1112.69
603.43	1104.10
603.78	1095.39
604.13	1086.78
604.48	1078.12
604.83	1069.71
605.18	1061.20
605.53	1052.60
605.87	1044.07
606.22	1035.73
606.57	1027.31
606.92	1018.81
607.27	1010.11
607.62	1001.63
607.96	993.39
608.31	986.19
608.66	978.59
609.01	971.29
609.36	963.88
609.70	956.19
610.05	948.44
610.40	941.04
610.75	933.61
611.10	926.45
611.44	919.03
611.79	911.79
612.14	904.24
612.49	896.91
612.83	890.00
613.18	883.15
613.53	876.22
613.88	869.38
614.22	863.17
614.57	856.73
614.92	850.24
615.27	843.79
615.61	837.15
615.96	830.67
616.31	824.14
616.65	817.58
617.00	811.23
617.35	805.01
617.70	798.80
618.04	792.74
618.39	786.64
618.74	780.84
619.08	774.94
619.43	769.23
619.78	763.47
620.12	757.64
620.47	751.97
620.82	746.39
621.16	741.05
621.51	735.35
621.85	729.68
622.20	724.12
622.55	718.66
622.89	713.09
623.24	707.66
623.59	702.30
623.93	697.01
624.28	691.84
624.62	686.63
624.97	681.41
625.32	676.29
625.66	671.06
626.01	665.81
626.35	660.68
626.70	655.65
627.04	650.86
627.39	646.07
627.73	641.38
628.08	636.85
628.43	632.14
628.77	627.51
629.12	623.06
629.46	618.73
629.81	614.23
630.15	609.71
630.50	605.30
630.84	601.09
631.19	597.02
631.53	592.99
631.88	588.89
632.22	584.87
632.57	581.05
632.91	577.16
633.26	573.37
633.60	569.69
633.95	566.13
634.29	562.35
634.64	558.56
634.98	554.69
635.32	550.94
635.67	547.40
636.01	543.81
636.36	540.23
636.70	536.82
637.05	533.41
637.39	530.15
637.73	526.73
638.08	523.41
638.42	520.05
638.77	516.57
639.11	513.01
639.45	509.56
639.80	506.13
640.14	502.87
640.49	499.55
640.83	496.09
641.17	492.71
641.52	489.46
641.86	486.21
642.20	483.16
642.55	479.94
642.89	476.82
643.23	473.86
643.58	471.16
643.92	468.28
644.26	465.45
644.61	462.61
644.95	459.80
645.29	456.90
645.64	454.00
645.98	451.24
646.32	448.70
646.66	446.10
647.01	443.47
647.35	440.90
647.69	438.24
648.04	435.77
648.38	433.25
648.72	430.72
649.06	428.29
649.41	425.84
649.75	423.40
650.09	421.01
650.43	418.59
650.78	416.14
651.12	413.70
651.46	411.37
651.80	409.13
652.14	406.95
652.49	404.80
652.83	402.70
653.17	400.57
653.51	398.49
653.85	396.50
654.20	394.42
654.54	392.30
654.88	390.35
655.22	388.41
655.56	386.47
655.90	384.64
656.25	382.79
656.59	380.95
656.93	379.23
657.27	377.50
657.61	375.71
657.95	373.98
658.29	372.25
658.64	370.53
658.98	368.80
659.32	367.10
659.66	365.49
660.00	363.88
660.34	362.34
660.68	360.73
661.02	359.04
661.36	357.51
661.70	356.01
662.05	354.47
662.39	352.95
662.73	351.51
663.07	350.09
663.41	348.71
663.75	347.33
664.09	345.95
664.43	344.50
664.77	343.17
665.11	341.78
665.45	340.46
665.79	339.14
666.13	337.79
666.47	336.45
666.81	335.08
667.15	333.70
667.49	332.37
667.83	331.11
668.17	329.89
668.51	328.67
668.85	327.48
669.19	326.39
669.53	325.20
669.87	323.99
670.21	322.81
670.55	321.63
670.89	320.55
671.23	319.43
671.57	318.32
671.91	317.25
672.25	316.25
672.58	315.23
672.92	314.19
673.26	313.24
673.60	312.28
673.94	311.31
674.28	310.40
674.62	309.47
674.96	308.50
675.30	307.61
675.64	306.70
675.97	305.80
676.31	304.86
676.65	303.95
676.99	303.11
677.33	302.21
677.67	301.35
678.01	300.42
678.34	299.56
678.68	298.75
679.02	297.91
679.36	297.07
679.70	296.25
680.04	295.43
680.37	294.60
680.71	293.83
681.05	293.10
681.39	292.33
681.73	291.53
682.06	290.78
682.40	290.03
682.74	289.29
683.08	288.58
683.42	287.87
683.75	287.22
684.09	286.48
684.43	285.80
684.77	285.10
685.10	284.45
685.44	283.78
685.78	283.10
686.12	282.47
686.45	281.81
686.79	281.16
687.13	280.53
687.46	279.88
687.80	279.24
688.14	278.56
688.48	277.95
688.81	277.33
689.15	276.75
689.49	276.14
689.82	275.54
690.16	274.88
690.50	274.28
690.83	273.68
691.17	273.10
691.51	272.52
691.84	271.96
692.18	271.38
692.52	270.79
692.85	270.23
693.19	269.71
693.52	269.16
693.86	268.64
694.20	268.11
694.53	267.61
694.87	267.09
695.21	266.59
695.54	266.08
695.88	265.56
696.21	265.01
696.55	264.52
696.88	264.02
697.22	263.54
697.56	263.06
697.89	262.54
698.23	262.05
698.56	261.57
698.90	261.11
699.23	260.64
699.57	260.21
699.90	259.76
700.24	259.28
700.58	258.85
700.91	258.43
701.25	258.09
701.58	257.71
701.92	257.33
702.25	256.91
702.59	256.51
702.92	256.13
703.26	255.75
703.59	255.35
703.93	255.05
704.26	254.69
704.60	254.32
704.93	253.98
705.26	253.61
705.60	253.29
705.93	252.91
706.27	252.60
706.60	252.27
706.94	251.96
707.27	251.59
707.61	251.24
707.94	250.88
708.27	250.46
708.61	250.08
708.94	249.74
709.28	249.42
709.61	249.09
709.94	248.80
710.28	248.50
710.61	248.23
710.95	247.85
711.28	247.63
711.61	247.34
711.95	247.09
712.28	246.81
712.61	246.53
712.95	246.32
713.28	246.10
713.61	245.82
713.95	245.54
714.28	245.31
714.61	245.05
714.95	244.80
715.28	244.55
715.61	244.31
715.95	244.08
716.28	243.85
716.61	243.64
716.95	243.40
717.28	243.18
717.61	242.95
717.94	242.73
718.28	242.44
718.61	242.23
718.94	241.99
719.27	241.78
719.61	241.58
719.94	241.35
720.27	241.08
720.60	240.88
720.94	240.69
721.27	240.50
721.60	240.33
721.93	240.15
722.27	240.00
722.60	239.82
722.93	239.62
723.26	239.45
723.59	239.24
723.93	239.08
724.26	238.92
724.59	238.74
724.92	238.58
725.25	238.45
725.59	238.28
725.92	238.14
726.25	237.98
726.58	237.83
726.91	237.66
727.24	237.54
727.57	237.39
727.91	237.22
728.24	237.08
728.57	236.92
728.90	236.78
729.23	236.61
729.56	236.51
729.89	236.37
730.22	236.23
730.55	236.09
730.89	235.95
731.22	235.81
731.55	235.67
731.88	235.54
732.21	235.40
732.54	235.27
732.87	235.15
733.20	235.03
733.53	234.92
733.86	234.81
734.19	234.67
734.52	234.57
734.85	234.53
735.18	234.40
735.51	234.32
735.84	234.21
736.17	234.14
736.50	233.98
736.83	234.00
737.16	233.90
737.49	233.81
737.82	233.70
738.15	233.62
738.48	233.53
738.81	233.43
739.14	233.32
739.47	233.21
739.80	233.11
740.13	233.02
740.46	232.91
740.79	232.80
741.12	232.71
741.45	232.60
741.78	232.45
742.11	232.38
742.44	232.27
742.77	232.19
743.10	232.09
743.43	231.99
743.75	231.79
744.08	231.87
744.41	231.77
744.74	231.69
745.07	231.58
745.40	231.52
745.73	231.48
746.06	231.42
746.39	231.35
746.71	231.27
747.04	231.18
747.37	231.11
747.70	231.05
748.03	230.98
748.36	230.93
748.68	230.86
749.01	230.75
749.34	230.68
749.67	230.61
750.00	230.56
750.33	230.58
750.65	230.52
750.98	230.31
751.31	230.24
751.64	230.18
751.97	230.17
752.29	230.09
752.62	229.98
752.95	229.90
753.28	229.82
753.60	229.76
753.93	229.72
754.26	229.67
754.59	229.57
754.91	229.49
755.24	229.42
755.57	229.40
755.90	229.34
756.22	229.28
756.55	229.20
756.88	229.11
757.20	228.98
757.53	228.90
757.86	228.83
758.19	228.79
758.51	228.74
758.84	228.63
759.17	228.57
759.49	228.52
759.82	228.52
760.15	228.48
760.47	228.43
760.80	228.35
761.13	228.32
761.45	228.28
761.78	228.24
762.11	228.20
762.43	228.10
762.76	228.06
763.08	228.03
763.41	227.99
763.74	227.96
764.06	227.92
764.39	227.87
764.71	227.83
765.04	227.77
765.37	227.72
765.69	227.68
766.02	227.64
766.34	227.59
766.67	227.52
767.00	227.50
767.32	227.51
767.65	227.54
767.97	227.48
768.30	227.44
768.62	227.41
768.95	227.35
769.27	227.31
769.60	227.28
769.92	227.23
770.25	227.18
770.57	227.13
770.90	227.09
771.22	227.05
771.55	227.02
771.87	227.00
772.20	226.96
772.52	227.02
772.85	227.10
773.17	227.08
773.50	227.03
773.82	226.98
774.15	226.90
774.47	226.80
774.80	226.76
775.12	226.73
775.45	226.70
775.77	226.68
776.09	226.66
776.42	226.63
776.74	226.63
777.07	226.60
777.39	226.57
777.72	226.54
778.04	226.53
778.36	226.50
778.69	226.47
779.01	226.45
779.33	226.34
779.66	226.20
779.98	226.17
780.31	226.17
780.63	226.18
780.95	226.18
781.28	226.16
781.60	226.13
781.92	226.11
782.25	226.10
782.57	226.07
782.89	226.05
783.22	226.02
783.54	225.98
783.86	225.97
784.19	225.95
784.51	225.97
784.83	225.94
785.16	225.91
785.48	225.90
785.80	225.88
786.12	225.88
786.45	225.87
786.77	225.86
787.09	225.83
787.42	225.77
787.74	225.76
788.06	225.75
788.38	225.74
788.71	225.72
789.03	225.70
789.35	225.70
789.67	225.67
789.99	225.66
790.32	225.64
790.64	225.64
790.96	225.73
791.28	225.67
791.61	225.65
791.93	225.65
792.25	225.63
792.57	225.68
792.89	225.64
793.21	225.63
793.54	225.60
793.86	225.58
794.18	225.56
794.50	225.52
794.82	225.51
795.14	225.50
795.47	225.51
795.79	225.50
796.11	225.46
796.43	225.45
796.75	225.43
797.07	225.43
797.39	225.40
797.71	225.30
798.04	225.29
798.36	225.28
798.68	225.27
799.00	225.26
799.32	225.21
799.64	225.23
799.96	225.21
800.28	225.22
800.60	225.22
800.92	225.22
801.24	225.21
801.56	225.21
801.89	225.19
802.21	225.18
802.53	225.16
802.85	225.17
803.17	225.20
803.49	225.18
803.81	225.15
804.13	225.14
804.45	225.12
804.77	225.12
805.09	225.10
805.41	225.09
805.73	225.07
806.05	225.03
806.37	225.01
806.69	224.99
807.01	224.97
807.33	224.96
807.65	224.91
807.97	224.95
808.28	224.92
808.60	224.90
808.92	224.88
809.24	224.93
809.56	224.90
809.88	224.86
810.20	224.85
810.52	224.87
810.84	224.85
811.16	224.83
811.48	224.82
811.80	224.85
812.12	224.84
812.43	224.85
812.75	224.85
813.07	224.83
813.39	224.83
813.71	224.82
814.03	224.80
814.35	224.80
814.67	224.75
814.98	224.73
815.30	224.73
815.62	224.72
815.94	224.64
816.26	224.65
816.58	224.62
816.89	224.63
817.21	224.60
817.53	224.60
817.85	224.59
818.17	224.59
818.48	224.54
818.80	224.56
819.12	224.53
819.44	224.51
819.76	224.49
820.07	224.49
820.39	224.48
820.71	224.49
821.03	224.48
821.34	224.48
821.66	224.49
821.98	224.49
822.30	224.49
822.61	224.55
822.93	224.53
823.25	224.53
823.57	224.51
823.88	224.52
824.20	224.52
824.52	224.54
824.83	224.53
825.15	224.51
825.47	224.50
825.79	224.51
826.10	224.50
826.42	224.49
826.74	224.50
827.05	224.49
827.37	224.49
827.69	224.48
828.00	224.48
828.32	224.48
828.64	224.46
828.95	224.51
829.27	224.47
829.58	224.46
829.90	224.47
830.22	224.48
830.53	224.46
830.85	224.45
831.17	224.42
831.48	224.42
831.80	224.42
832.11	224.41
832.43	224.39
832.75	224.39
833.06	224.45
833.38	224.42
833.69	224.42
834.01	224.41
834.32	224.40
834.64	224.40
834.96	224.39
835.27	224.38
835.59	224.34
835.90	224.32
836.22	224.32
836.53	224.30
836.85	224.28
837.16	224.38
837.48	224.38
837.79	224.41
838.11	224.42
838.42	224.41
838.74	224.43
839.05	224.42
839.37	224.42
839.68	224.35
840.00	224.35
840.31	224.37
840.63	224.36
840.94	224.36
841.26	224.34
841.57	224.34
841.88	224.35
842.20	224.33
842.51	224.32
842.83	224.31
843.14	224.40
843.46	224.39
843.77	224.33
844.08	224.32
844.40	224.28
844.71	224.27
845.03	224.25
845.34	224.24
845.65	224.24
845.97	224.24
846.28	224.25
846.60	224.25
846.91	224.23
847.22	224.22
847.54	224.24
847.85	224.26
848.16	224.24
848.48	224.22
848.79	224.26
849.10	224.27
849.42	224.28
849.73	224.18
850.04	224.18
850.36	224.15
850.67	224.16
850.98	224.17
851.30	224.17
851.61	224.17
851.92	224.16
852.23	224.19
852.55	224.19
852.86	224.18
853.17	224.19
853.49	224.21
853.80	224.23
854.11	224.22
854.42	224.23
854.74	224.22
855.05	224.23
855.36	224.17
855.67	224.17
855.99	224.17
856.30	224.30
856.61	224.29
856.92	224.29
857.23	224.29
857.55	224.28
857.86	224.27
858.17	224.28
858.48	224.27
858.79	224.25
859.11	224.26
859.42	224.26
859.73	224.25
860.04	224.24
860.35	224.20
860.66	224.17
860.98	224.16
861.29	224.17
861.60	224.16
861.91	224.18
862.22	224.16
862.53	224.15
862.84	224.02
863.16	224.04
863.47	224.02
863.78	224.00
864.09	224.01
864.40	224.01
864.71	224.01
865.02	224.03
865.33	224.01
865.64	223.99
865.95	223.99
866.27	224.05
866.58	224.05
866.89	224.06
867.20	224.06
867.51	224.04
867.82	224.03
868.13	224.07
868.44	224.05
868.75	224.07
869.06	224.07
869.37	224.08
869.68	224.06
869.99	224.08
870.30	224.09
870.61	224.10
870.92	224.08
871.23	224.06
871.54	224.07
871.85	224.10
872.16	224.12
872.47	224.10
872.78	224.05
873.09	224.06
873.40	224.05
873.71	224.06
874.02	224.07
874.33	224.06
874.64	224.03
874.95	224.05
875.26	224.02
875.56	224.02
875.87	224.01
876.18	224.01
876.49	224.10
876.80	224.09
877.11	224.07
877.42	224.07
877.73	224.08
878.04	224.05
878.35	224.05
878.66	224.05
878.96	224.05
879.27	224.04
879.58	224.03
879.89	224.03
880.20	224.06
880.51	224.04
880.82	224.05
881.12	224.05
881.43	224.03
881.74	224.02
882.05	224.01
882.36	224.02
882.67	224.02
882.97	223.91
883.28	223.91
883.59	223.91
883.90	223.92
884.21	223.92
884.51	223.92
884.82	223.91
885.13	223.90
885.44	223.90
885.74	223.90
886.05	223.89
886.36	223.89
886.67	223.85
886.98	223.91
887.28	223.92
887.59	223.92
887.90	223.93
888.20	223.93
888.51	223.95
888.82	223.93
889.13	223.93
889.43	224.03
889.74	224.03
890.05	224.02
890.35	224.01
890.66	223.98
890.97	223.97
891.28	223.97
891.58	223.97
891.89	223.97
892.20	223.96
892.50	223.95
892.81	223.95
893.12	223.95
893.42	223.90
893.73	223.89
894.04	223.89
894.34	223.90
894.65	223.90
894.95	223.88
895.26	223.89
895.57	223.93
895.87	223.83
896.18	223.85
896.48	223.85
896.79	223.85
897.10	223.88
897.40	223.88
897.71	223.90
898.01	223.89
898.32	223.90
898.63	223.89
898.93	223.90
899.24	223.90
899.54	223.89
899.85	223.89
900.15	223.88
900.46	223.88
900.76	223.88
901.07	223.88
901.38	223.87
901.68	223.89
901.99	223.84
902.29	223.85
902.60	223.83
902.90	223.83
903.21	223.83
903.51	223.82
903.82	223.83
904.12	223.83
904.43	223.84
904.73	223.83
905.03	223.84
905.34	223.94
905.64	223.93
905.95	223.93
906.25	223.93
906.56	223.93
906.86	223.92
907.17	223.92
907.47	223.92
907.77	223.91
908.08	223.89
908.38	223.90
908.69	223.90
908.99	223.92
909.30	223.92
909.60	223.93
909.90	223.93
910.21	223.90
910.51	223.89
910.81	223.89
911.12	223.89
911.42	223.89
911.73	223.78
912.03	223.79
912.33	223.81
912.64	223.80
912.94	223.79
913.24	223.78
913.55	223.78
913.85	223.77
914.15	223.79
914.46	223.80
914.76	223.78
915.06	223.78
915.37	223.75
915.67	223.75
915.97	223.74
916.27	223.72
916.58	223.72
916.88	223.72
917.18	223.71
917.49	223.78
917.79	223.77
918.09	223.79
918.39	223.81
918.70	223.81
919.00	223.82
919.30	223.87
919.60	223.87
919.91	223.85
920.21	223.86
920.51	223.84
920.81	223.84
921.12	223.86
921.42	223.85
921.72	223.86
922.02	223.86
922.32	223.88
922.63	223.88
922.93	223.94
923.23	223.94
923.53	223.93
923.83	223.86
924.13	223.86
924.44	223.86
924.74	223.87
925.04	223.89
925.34	223.88
925.64	223.83
925.94	223.83
926.24	223.89
926.55	223.88
926.85	223.89
927.15	223.89
927.45	223.88
927.75	223.88
928.05	223.89
928.35	223.88
928.65	223.89
928.95	223.90
929.26	223.85
929.56	223.87
929.86	223.88
930.16	223.86
930.46	223.86
930.76	223.86
931.06	223.81
931.36	223.78
931.66	223.79
931.96	223.81
932.26	223.80
932.56	223.75
932.86	223.76
933.16	223.76
933.46	223.75
933.76	223.74
934.06	223.76
934.36	223.79
934.66	223.78
934.96	223.77
935.26	223.77
935.56	223.78
935.86	223.75
936.16	223.74
936.46	223.74
936.76	223.74
937.06	223.72
937.36	223.73
937.66	223.73
937.96	223.73
938.26	223.71
938.56	223.71
938.86	223.71
939.16	223.74
939.46	223.74
939.76	223.74
940.06	223.74
940.35	223.72
940.65	223.67
940.95	223.69
941.25	223.66
941.55	223.66
941.85	223.65
942.15	223.68
942.45	223.70
942.75	223.70
943.04	223.71
943.34	223.73
943.64	223.71
943.94	223.70
944.24	223.70
944.54	223.72
944.84	223.72
945.13	223.71
945.43	223.69
945.73	223.69
946.03	223.69
946.33	223.68
946.62	223.66
946.92	223.67
947.22	223.67
947.52	223.67
947.82	223.68
948.11	223.68
948.41	223.65
948.71	223.63
949.01	223.64
949.31	223.63
949.60	223.62
949.90	223.64
950.20	223.64
950.50	223.63
950.79	223.61
951.09	223.62
951.39	223.61
951.69	223.60
951.98	223.61
952.28	223.62
952.58	223.62
952.87	223.62
953.17	223.63
953.47	223.62
953.76	223.62
954.06	223.60
954.36	223.58
954.66	223.58
954.95	223.61
955.25	223.62
955.55	223.63
955.84	223.62
956.14	223.63
956.44	223.64
956.73	223.63
957.03	223.64
957.32	223.64
957.62	223.64
957.92	223.66
958.21	223.66
958.51	223.77
958.81	223.79
959.10	223.80
959.40	223.82
959.69	223.83
959.99	223.85
960.29	223.85
960.58	223.85
960.88	223.88
961.17	223.87
961.47	223.87
961.76	223.86
962.06	223.87
962.36	223.85
962.65	223.86
962.95	223.86
963.24	223.85
963.54	223.85
963.83	223.86
964.13	223.85
964.42	223.83
964.72	223.75
965.01	223.74
965.31	223.73
965.60	223.70
965.90	223.76
966.19	223.74
966.49	223.75
966.78	223.74
967.08	223.73
967.37	223.74
967.67	223.71
967.96	223.73
968.26	223.73
968.55	223.74
968.85	223.74
969.14	223.74
969.43	223.74
969.73	223.73
970.02	223.71
970.32	223.71
970.61	223.70
970.91	223.66
971.20	223.66
971.49	223.65
971.79	223.66
972.08	223.58
972.38	223.60
972.67	223.59
972.96	223.60
973.26	223.58
973.55	223.60
973.85	223.60
974.14	223.59
974.43	223.60
974.73	223.58
975.02	223.57
975.31	223.57
975.61	223.56
975.90	223.56
976.19	223.55
976.49	223.56
976.78	223.57
977.07	223.57
977.37	223.57
977.66	223.59
977.95	223.57
978.24	223.59
978.54	223.60
978.83	223.60
979.12	223.59
979.42	223.59
979.71	223.57
980.00	223.57
980.29	223.57
980.59	223.55
980.88	223.58
981.17	223.57
981.46	223.57
981.76	223.57
982.05	223.59
982.34	223.60
982.63	223.60
982.93	223.60
983.22	223.62
983.51	223.62
983.80	223.64
984.09	223.66
984.39	223.64
984.68	223.63
984.97	223.63
985.26	223.62
985.55	223.62
985.85	223.60
986.14	223.62
986.43	223.63
986.72	223.63
987.01	223.60
987.30	223.60
987.59	223.60
987.89	223.60
988.18	223.58
988.47	223.57
988.76	223.56
989.05	223.55
989.34	223.55
989.63	223.57
989.92	223.55
990.22	223.54
990.51	223.53
990.80	223.53
991.09	223.54
991.38	223.55
991.67	223.55
991.96	223.55
992.25	223.55
992.54	223.53
992.83	223.53
993.12	223.53
993.41	223.55
993.70	223.59
993.99	223.60
994.28	223.62
994.58	223.63
994.87	223.63
995.16	223.63
995.45	223.63
995.74	223.60
996.03	223.61
996.32	223.62
996.61	223.64
996.90	223.65
997.19	223.64
997.48	223.65
997.77	223.64
998.06	223.65
998.34	223.64
998.63	223.64
998.92	223.65
999.21	223.67
999.50	223.67
999.79	223.64
1000.08	223.63
1000.37	223.62
1000.66	223.61
1000.95	223.63
1001.24	223.64
1001.53	223.65
1001.82	223.64
1002.11	223.62
1002.40	223.64
1002.68	223.66
1002.97	223.73
1003.26	223.72
1003.55	223.70
1003.84	223.71
1004.13	223.75
1004.42	223.74
1004.71	223.74
1004.99	223.73
1005.28	223.75
1005.57	223.74
1005.86	223.73
1006.15	223.73
1006.44	223.71
1006.72	223.73
1007.01	223.71
1007.30	223.71
1007.59	223.70
1007.88	223.69
1008.17	223.70
1008.45	223.68
1008.74	223.63
1009.03	223.58
1009.32	223.58
1009.60	223.58
1009.89	223.57
1010.18	223.53
1010.47	223.52
1010.76	223.52
1011.04	223.51
1011.33	223.51
1011.62	223.52
1011.91	223.52
1012.19	223.52
1012.48	223.53
1012.77	223.52
1013.05	223.57
1013.34	223.56
1013.63	223.56
1013.92	223.57
1014.20	223.56
1014.49	223.57
1014.78	223.58
1015.06	223.55
1015.35	223.55
1015.64	223.56
1015.92	223.58
1016.21	223.58
1016.50	223.58
1016.78	223.59
1017.07	223.61
1017.36	223.59
1017.64	223.58
1017.93	223.58
1018.22	223.57
1018.50	223.56
1018.79	223.56
1019.08	223.51
1019.36	223.53
1019.65	223.52
1019.93	223.54
1020.22	223.57
1020.51	223.62
1020.79	223.60
1021.08	223.39
1021.36	223.35
1021.65	223.60
1021.94	223.50
1022.22	223.69
1022.51	223.37
1022.79	224.00
1023.08	223.83
1023.36	224.81
1023.65	223.22
>>>>>End Processed Spectral Data<<<<<
