SpectraSuite Data File
++++++++++++++++++++++++++++++++++++
Date: Thu Oct 01 09:16:54 EDT 2015
User: lab3
Dark Spectrum Present: No
Reference Spectrum Present: No
Number of Sampled Component Spectra: 1
Spectrometers: USB2E7196
Integration Time (usec): 36000 (USB2E7196)
Spectra Averaged: 10000 (USB2E7196)
Boxcar Smoothing: 10 (USB2E7196)
Correct for Electrical Dark: No (USB2E7196)
Strobe/Lamp Enabled: No (USB2E7196)
Correct for Detector Non-linearity: No (USB2E7196)
Correct for Stray Light: No (USB2E7196)
Number of Pixels in Processed Spectrum: 2048
>>>>>Begin Processed Spectral Data<<<<<
339.09	0.00
339.48	210.78
339.86	212.23
340.24	213.60
340.63	215.04
341.01	217.99
341.39	217.71
341.78	219.14
342.16	220.25
342.54	220.76
342.93	209.31
343.31	219.89
343.69	220.42
344.07	220.88
344.46	221.31
344.84	221.70
345.22	221.93
345.60	222.19
345.99	222.38
346.37	222.51
346.75	222.62
347.13	222.70
347.52	222.76
347.90	222.85
348.28	222.88
348.66	222.93
349.05	222.94
349.43	222.99
349.81	223.04
350.19	223.10
350.57	223.17
350.96	223.25
351.34	223.35
351.72	223.44
352.10	223.55
352.48	223.63
352.87	223.68
353.25	223.75
353.63	223.81
354.01	223.88
354.39	223.95
354.77	224.03
355.15	224.13
355.54	224.18
355.92	224.22
356.30	224.30
356.68	224.44
357.06	224.52
357.44	224.56
357.82	224.63
358.20	224.73
358.58	224.79
358.97	224.86
359.35	224.94
359.73	225.01
360.11	225.06
360.49	225.12
360.87	225.17
361.25	225.23
361.63	225.31
362.01	225.36
362.39	225.39
362.77	225.44
363.15	225.46
363.53	225.50
363.91	225.53
364.29	225.55
364.67	225.48
365.05	225.50
365.43	225.53
365.81	225.56
366.19	225.58
366.57	225.63
366.95	225.63
367.33	225.61
367.71	225.61
368.09	225.62
368.47	225.61
368.85	225.61
369.23	225.62
369.61	225.56
369.99	225.58
370.37	225.57
370.75	225.64
371.13	225.60
371.51	225.57
371.89	225.54
372.27	225.52
372.65	225.50
373.03	225.46
373.41	225.41
373.78	225.36
374.16	225.27
374.54	225.19
374.92	225.14
375.30	225.10
375.68	225.03
376.06	224.99
376.44	224.94
376.82	224.89
377.19	224.84
377.57	224.79
377.95	224.70
378.33	224.64
378.71	224.49
379.09	224.45
379.47	224.41
379.84	224.35
380.22	224.28
380.60	224.21
380.98	224.16
381.36	224.11
381.73	224.05
382.11	224.02
382.49	223.97
382.87	223.91
383.25	223.86
383.62	223.93
384.00	223.87
384.38	223.82
384.76	223.80
385.13	223.79
385.51	223.75
385.89	223.70
386.27	223.67
386.64	223.64
387.02	223.60
387.40	223.55
387.78	223.52
388.15	223.50
388.53	223.47
388.91	223.44
389.29	223.40
389.66	223.39
390.04	223.36
390.42	223.35
390.79	223.34
391.17	223.32
391.55	223.19
391.92	223.18
392.30	223.17
392.68	223.14
393.05	223.12
393.43	223.12
393.81	223.12
394.18	223.10
394.56	223.10
394.94	223.13
395.31	223.13
395.69	223.17
396.06	223.20
396.44	223.22
396.82	223.23
397.19	223.31
397.57	223.32
397.95	223.36
398.32	223.36
398.70	223.40
399.07	223.46
399.45	223.49
399.82	223.53
400.20	223.57
400.58	223.62
400.95	223.64
401.33	223.72
401.70	223.85
402.08	223.94
402.45	224.02
402.83	224.13
403.20	224.23
403.58	224.31
403.95	224.44
404.33	224.57
404.71	224.70
405.08	224.88
405.46	225.03
405.83	225.20
406.21	225.37
406.58	225.57
406.96	225.76
407.33	225.98
407.70	226.22
408.08	226.56
408.45	226.85
408.83	227.16
409.20	227.45
409.58	227.71
409.95	228.07
410.33	228.45
410.70	228.81
411.08	229.24
411.45	229.69
411.82	230.15
412.20	230.67
412.57	231.28
412.95	231.78
413.32	232.41
413.69	233.06
414.07	233.76
414.44	234.51
414.82	235.28
415.19	236.18
415.56	237.10
415.94	238.05
416.31	239.12
416.68	240.19
417.06	241.43
417.43	242.59
417.81	243.93
418.18	245.30
418.55	246.79
418.93	248.34
419.30	249.97
419.67	251.70
420.04	253.47
420.42	255.32
420.79	257.46
421.16	259.63
421.54	261.83
421.91	264.13
422.28	266.52
422.66	269.09
423.03	271.54
423.40	274.11
423.77	276.88
424.15	279.70
424.52	282.64
424.89	285.81
425.26	288.98
425.64	291.91
426.01	295.21
426.38	298.58
426.75	302.04
427.13	305.59
427.50	309.29
427.87	313.15
428.24	317.04
428.61	320.75
428.99	324.75
429.36	329.14
429.73	333.34
430.10	337.52
430.47	341.78
430.85	346.17
431.22	350.85
431.59	355.63
431.96	360.30
432.33	365.47
432.70	370.36
433.08	376.16
433.45	381.63
433.82	387.00
434.19	393.02
434.56	398.93
434.93	404.63
435.30	410.25
435.68	416.60
436.05	422.80
436.42	429.01
436.79	434.67
437.16	440.76
437.53	447.31
437.90	453.85
438.27	460.24
438.64	467.19
439.01	473.48
439.38	479.24
439.75	484.80
440.13	491.15
440.50	497.21
440.87	501.99
441.24	507.26
441.61	513.07
441.98	517.33
442.35	522.42
442.72	527.65
443.09	532.65
443.46	535.92
443.83	538.36
444.20	540.45
444.57	543.46
444.94	545.31
445.31	547.22
445.68	548.93
446.05	550.26
446.42	550.23
446.79	550.09
447.16	550.00
447.53	549.95
447.90	548.21
448.27	546.58
448.64	543.93
449.01	542.21
449.37	538.33
449.74	534.80
450.11	530.24
450.48	525.19
450.85	520.10
451.22	515.78
451.59	511.56
451.96	507.72
452.33	502.04
452.70	496.98
453.07	490.81
453.43	484.61
453.80	478.60
454.17	472.83
454.54	467.47
454.91	461.41
455.28	455.69
455.65	450.30
456.02	444.53
456.38	439.89
456.75	433.89
457.12	429.06
457.49	424.18
457.86	419.51
458.23	415.42
458.59	410.90
458.96	406.24
459.33	402.13
459.70	397.95
460.07	394.75
460.43	391.00
460.80	387.48
461.17	384.37
461.54	381.01
461.91	377.89
462.27	374.71
462.64	372.10
463.01	369.12
463.38	366.12
463.74	363.42
464.11	361.00
464.48	358.82
464.85	356.48
465.21	354.68
465.58	352.71
465.95	350.43
466.32	348.61
466.68	346.84
467.05	345.06
467.42	343.34
467.78	341.48
468.15	339.76
468.52	338.49
468.88	336.83
469.25	335.31
469.62	334.10
469.98	332.79
470.35	331.62
470.72	330.57
471.08	329.51
471.45	328.62
471.82	327.65
472.18	326.64
472.55	325.99
472.92	325.18
473.28	324.55
473.65	323.90
474.02	323.29
474.38	322.78
474.75	322.50
475.11	322.10
475.48	321.95
475.85	321.79
476.21	321.75
476.58	321.76
476.94	321.97
477.31	322.10
477.67	322.26
478.04	322.55
478.41	322.90
478.77	323.38
479.14	323.72
479.50	324.29
479.87	325.00
480.23	325.71
480.60	326.40
480.96	327.11
481.33	328.09
481.69	329.06
482.06	330.03
482.42	330.95
482.79	332.05
483.15	333.30
483.52	334.71
483.88	336.07
484.25	337.51
484.61	339.02
484.98	340.63
485.34	342.44
485.71	344.32
486.07	346.33
486.44	348.32
486.80	350.54
487.17	352.81
487.53	355.30
487.90	357.89
488.26	360.70
488.62	363.67
488.99	366.64
489.35	369.74
489.72	373.10
490.08	376.62
490.44	380.25
490.81	384.03
491.17	387.91
491.54	392.04
491.90	396.29
492.26	400.86
492.63	405.68
492.99	410.68
493.36	415.80
493.72	421.19
494.08	426.73
494.45	432.58
494.81	438.64
495.17	444.83
495.54	451.38
495.90	458.23
496.26	465.21
496.63	472.45
496.99	479.99
497.35	487.88
497.72	496.08
498.08	504.42
498.44	513.05
498.80	522.23
499.17	531.63
499.53	541.38
499.89	551.36
500.26	561.52
500.62	571.96
500.98	583.08
501.34	594.37
501.71	606.20
502.07	618.24
502.43	630.69
502.79	643.46
503.16	656.65
503.52	670.04
503.88	683.82
504.24	698.01
504.60	712.48
504.97	727.36
505.33	742.62
505.69	758.81
506.05	775.20
506.41	791.58
506.78	808.28
507.14	825.45
507.50	843.23
507.86	861.38
508.22	879.83
508.59	898.31
508.95	917.48
509.31	937.10
509.67	957.45
510.03	977.99
510.39	998.75
510.75	1019.76
511.12	1041.07
511.48	1062.66
511.84	1084.37
512.20	1106.40
512.56	1129.54
512.92	1152.87
513.28	1175.89
513.64	1199.23
514.00	1222.99
514.37	1247.08
514.73	1271.20
515.09	1295.12
515.45	1319.49
515.81	1344.39
516.17	1369.33
516.53	1393.95
516.89	1418.63
517.25	1443.49
517.61	1468.54
517.97	1493.80
518.33	1518.77
518.69	1543.86
519.05	1569.25
519.41	1594.74
519.77	1620.49
520.13	1645.41
520.49	1670.51
520.85	1695.85
521.21	1721.08
521.57	1746.90
521.93	1771.97
522.29	1797.89
522.65	1823.52
523.01	1848.93
523.37	1873.58
523.73	1898.88
524.09	1924.34
524.45	1949.72
524.81	1974.61
525.17	1999.40
525.53	2023.74
525.89	2048.08
526.25	2072.63
526.61	2096.65
526.97	2120.93
527.33	2145.15
527.68	2169.19
528.04	2192.40
528.40	2215.41
528.76	2238.63
529.12	2260.77
529.48	2283.28
529.84	2303.92
530.20	2325.16
530.56	2346.01
530.91	2366.94
531.27	2387.38
531.63	2407.13
531.99	2426.35
532.35	2445.19
532.71	2464.15
533.07	2483.63
533.42	2501.64
533.78	2520.03
534.14	2538.39
534.50	2555.90
534.86	2574.01
535.21	2590.23
535.57	2606.37
535.93	2621.83
536.29	2636.07
536.65	2651.19
537.00	2665.17
537.36	2679.69
537.72	2693.13
538.08	2706.18
538.44	2718.11
538.79	2730.19
539.15	2740.63
539.51	2751.02
539.87	2761.09
540.22	2768.99
540.58	2777.03
540.94	2785.58
541.29	2792.60
541.65	2798.62
542.01	2804.16
542.37	2807.83
542.72	2813.48
543.08	2818.60
543.44	2823.50
543.79	2827.63
544.15	2830.81
544.51	2833.97
544.87	2836.22
545.22	2838.09
545.58	2839.05
545.94	2840.47
546.29	2840.42
546.65	2840.45
547.01	2840.57
547.36	2840.75
547.72	2841.09
548.07	2839.99
548.43	2838.24
548.79	2835.85
549.14	2833.48
549.50	2831.79
549.86	2829.15
550.21	2824.11
550.57	2819.48
550.92	2813.49
551.28	2808.11
551.64	2802.66
551.99	2797.57
552.35	2792.10
552.70	2786.17
553.06	2780.99
553.41	2775.29
553.77	2769.11
554.13	2763.64
554.48	2757.20
554.84	2749.13
555.19	2741.24
555.55	2732.77
555.90	2724.92
556.26	2718.04
556.61	2710.52
556.97	2700.77
557.32	2691.96
557.68	2683.56
558.03	2674.55
558.39	2666.25
558.74	2658.02
559.10	2648.57
559.45	2638.77
559.81	2629.37
560.16	2619.27
560.52	2608.72
560.87	2599.20
561.23	2589.24
561.58	2578.76
561.94	2568.07
562.29	2556.86
562.64	2546.33
563.00	2536.14
563.35	2525.81
563.71	2514.57
564.06	2502.77
564.42	2492.04
564.77	2480.95
565.12	2469.94
565.48	2458.69
565.83	2448.05
566.19	2437.47
566.54	2426.46
566.89	2414.63
567.25	2402.72
567.60	2391.64
567.96	2380.17
568.31	2367.25
568.66	2354.31
569.02	2342.42
569.37	2330.28
569.72	2318.67
570.08	2306.33
570.43	2293.48
570.78	2280.27
571.14	2266.86
571.49	2254.31
571.84	2242.01
572.20	2228.41
572.55	2215.23
572.90	2201.95
573.26	2187.71
573.61	2172.93
573.96	2158.49
574.31	2144.42
574.67	2130.50
575.02	2116.20
575.37	2101.42
575.72	2086.95
576.08	2073.08
576.43	2058.19
576.78	2043.42
577.13	2029.46
577.49	2015.46
577.84	2001.84
578.19	1987.41
578.54	1972.66
578.90	1957.35
579.25	1941.81
579.60	1927.67
579.95	1913.11
580.30	1898.60
580.66	1884.44
581.01	1869.89
581.36	1855.67
581.71	1842.01
582.06	1827.87
582.42	1813.78
582.77	1800.49
583.12	1786.82
583.47	1773.23
583.82	1759.76
584.17	1746.17
584.53	1732.38
584.88	1718.63
585.23	1704.53
585.58	1690.96
585.93	1677.81
586.28	1665.53
586.63	1653.02
586.98	1639.83
587.34	1626.89
587.69	1613.44
588.04	1600.25
588.39	1587.71
588.74	1574.72
589.09	1561.45
589.44	1548.17
589.79	1535.46
590.14	1522.60
590.49	1509.98
590.84	1497.20
591.19	1485.05
591.54	1472.39
591.89	1459.64
592.25	1447.20
592.60	1434.42
592.95	1422.18
593.30	1410.21
593.65	1398.00
594.00	1386.04
594.35	1374.83
594.70	1362.86
595.05	1351.97
595.40	1340.87
595.75	1329.18
596.10	1318.29
596.45	1307.62
596.80	1297.40
597.15	1286.99
597.50	1276.58
597.85	1266.36
598.19	1256.33
598.54	1245.71
598.89	1235.85
599.24	1226.28
599.59	1216.50
599.94	1207.73
600.29	1198.81
600.64	1189.67
600.99	1179.96
601.34	1170.72
601.69	1160.92
602.04	1152.16
602.39	1143.19
602.74	1134.50
603.08	1126.06
603.43	1117.11
603.78	1108.10
604.13	1099.20
604.48	1090.24
604.83	1081.54
605.18	1072.75
605.53	1063.91
605.87	1055.21
606.22	1046.75
606.57	1038.03
606.92	1029.41
607.27	1020.66
607.62	1012.00
607.96	1003.52
608.31	996.04
608.66	988.11
609.01	980.61
609.36	973.07
609.70	965.31
610.05	957.39
610.40	949.80
610.75	942.34
611.10	935.13
611.44	927.56
611.79	920.27
612.14	912.63
612.49	905.13
612.83	898.09
613.18	891.11
613.53	883.93
613.88	876.85
614.22	870.33
614.57	863.64
614.92	856.96
615.27	850.31
615.61	843.50
615.96	836.93
616.31	830.29
616.65	823.52
617.00	817.01
617.35	810.66
617.70	804.31
618.04	798.04
618.39	791.77
618.74	785.85
619.08	779.78
619.43	773.94
619.78	768.11
620.12	762.10
620.47	756.26
620.82	750.52
621.16	745.06
621.51	739.27
621.85	733.47
622.20	727.72
622.55	722.16
622.89	716.53
623.24	710.96
623.59	705.44
623.93	699.99
624.28	694.69
624.62	689.36
624.97	684.03
625.32	678.80
625.66	673.44
626.01	668.07
626.35	662.83
626.70	657.63
627.04	652.63
627.39	647.68
627.73	642.84
628.08	638.21
628.43	633.47
628.77	628.78
629.12	624.25
629.46	619.86
629.81	615.29
630.15	610.61
630.50	606.12
630.84	601.81
631.19	597.67
631.53	593.56
631.88	589.35
632.22	585.23
632.57	581.35
632.91	577.42
633.26	573.58
633.60	569.80
633.95	566.10
634.29	562.28
634.64	558.43
634.98	554.50
635.32	550.73
635.67	547.08
636.01	543.38
636.36	539.71
636.70	536.20
637.05	532.68
637.39	529.37
637.73	525.92
638.08	522.52
638.42	519.09
638.77	515.54
639.11	512.00
639.45	508.51
639.80	505.00
640.14	501.68
640.49	498.31
640.83	494.83
641.17	491.40
641.52	488.13
641.86	484.86
642.20	481.74
642.55	478.48
642.89	475.31
643.23	472.33
643.58	469.56
643.92	466.68
644.26	463.83
644.61	460.96
644.95	458.12
645.29	455.22
645.64	452.29
645.98	449.50
646.32	446.88
646.66	444.25
647.01	441.61
647.35	439.00
647.69	436.29
648.04	433.75
648.38	431.24
648.72	428.68
649.06	426.19
649.41	423.72
649.75	421.24
650.09	418.80
650.43	416.37
650.78	413.92
651.12	411.46
651.46	409.10
651.80	406.83
652.14	404.63
652.49	402.44
652.83	400.31
653.17	398.17
653.51	396.08
653.85	394.06
654.20	391.98
654.54	389.83
654.88	387.86
655.22	385.95
655.56	383.99
655.90	382.13
656.25	380.28
656.59	378.44
656.93	376.70
657.27	374.99
657.61	373.18
657.95	371.43
658.29	369.70
658.64	367.99
658.98	366.26
659.32	364.55
659.66	362.95
660.00	361.36
660.34	359.80
660.68	358.19
661.02	356.52
661.36	354.95
661.70	353.46
662.05	351.95
662.39	350.42
662.73	348.99
663.07	347.58
663.41	346.18
663.75	344.81
664.09	343.44
664.43	341.98
664.77	340.64
665.11	339.23
665.45	337.90
665.79	336.56
666.13	335.23
666.47	333.88
666.81	332.50
667.15	331.09
667.49	329.78
667.83	328.51
668.17	327.30
668.51	326.10
668.85	324.91
669.19	323.79
669.53	322.61
669.87	321.40
670.21	320.22
670.55	319.06
670.89	317.97
671.23	316.85
671.57	315.75
671.91	314.70
672.25	313.70
672.58	312.70
672.92	311.66
673.26	310.69
673.60	309.72
673.94	308.75
674.28	307.84
674.62	306.91
674.96	305.96
675.30	305.06
675.64	304.13
675.97	303.22
676.31	302.28
676.65	301.36
676.99	300.51
677.33	299.60
677.67	298.74
678.01	297.80
678.34	296.93
678.68	296.12
679.02	295.27
679.36	294.43
679.70	293.60
680.04	292.79
680.37	291.98
680.71	291.21
681.05	290.48
681.39	289.70
681.73	288.89
682.06	288.12
682.40	287.36
682.74	286.62
683.08	285.91
683.42	285.18
683.75	284.53
684.09	283.79
684.43	283.09
684.77	282.39
685.10	281.74
685.44	281.06
685.78	280.39
686.12	279.74
686.45	279.09
686.79	278.43
687.13	277.80
687.46	277.14
687.80	276.50
688.14	275.82
688.48	275.21
688.81	274.60
689.15	274.03
689.49	273.42
689.82	272.83
690.16	272.18
690.50	271.60
690.83	271.01
691.17	270.44
691.51	269.89
691.84	269.35
692.18	268.79
692.52	268.21
692.85	267.65
693.19	267.13
693.52	266.60
693.86	266.07
694.20	265.54
694.53	265.05
694.87	264.54
695.21	264.05
695.54	263.56
695.88	263.06
696.21	262.53
696.55	262.05
696.88	261.56
697.22	261.10
697.56	260.64
697.89	260.12
698.23	259.64
698.56	259.14
698.90	258.69
699.23	258.23
699.57	257.80
699.90	257.37
700.24	256.90
700.58	256.48
700.91	256.08
701.25	255.76
701.58	255.39
701.92	255.02
702.25	254.63
702.59	254.22
702.92	253.84
703.26	253.47
703.59	253.09
703.93	252.80
704.26	252.45
704.60	252.08
704.93	251.74
705.26	251.40
705.60	251.09
705.93	250.73
706.27	250.44
706.60	250.13
706.94	249.83
707.27	249.47
707.61	249.14
707.94	248.79
708.27	248.38
708.61	248.01
708.94	247.67
709.28	247.35
709.61	247.05
709.94	246.76
710.28	246.48
710.61	246.21
710.95	245.84
711.28	245.63
711.61	245.35
711.95	245.11
712.28	244.83
712.61	244.55
712.95	244.35
713.28	244.13
713.61	243.86
713.95	243.58
714.28	243.36
714.61	243.11
714.95	242.87
715.28	242.63
715.61	242.40
715.95	242.18
716.28	241.95
716.61	241.75
716.95	241.52
717.28	241.30
717.61	241.08
717.94	240.87
718.28	240.58
718.61	240.37
718.94	240.14
719.27	239.94
719.61	239.75
719.94	239.53
720.27	239.28
720.60	239.09
720.94	238.90
721.27	238.72
721.60	238.55
721.93	238.37
722.27	238.23
722.60	238.07
722.93	237.88
723.26	237.72
723.59	237.52
723.93	237.36
724.26	237.21
724.59	237.04
724.92	236.89
725.25	236.77
725.59	236.61
725.92	236.48
726.25	236.33
726.58	236.18
726.91	236.02
727.24	235.90
727.57	235.75
727.91	235.59
728.24	235.46
728.57	235.31
728.90	235.19
729.23	235.02
729.56	234.93
729.89	234.79
730.22	234.65
730.55	234.53
730.89	234.39
731.22	234.25
731.55	234.12
731.88	234.00
732.21	233.86
732.54	233.74
732.87	233.62
733.20	233.51
733.53	233.39
733.86	233.29
734.19	233.16
734.52	233.08
734.85	233.04
735.18	232.91
735.51	232.83
735.84	232.73
736.17	232.66
736.50	232.50
736.83	232.52
737.16	232.43
737.49	232.34
737.82	232.25
738.15	232.17
738.48	232.08
738.81	231.98
739.14	231.87
739.47	231.78
739.80	231.68
740.13	231.59
740.46	231.49
740.79	231.38
741.12	231.29
741.45	231.18
741.78	231.03
742.11	230.98
742.44	230.87
742.77	230.79
743.10	230.69
743.43	230.60
743.75	230.40
744.08	230.48
744.41	230.38
744.74	230.30
745.07	230.19
745.40	230.13
745.73	230.10
746.06	230.03
746.39	229.97
746.71	229.89
747.04	229.81
747.37	229.74
747.70	229.69
748.03	229.62
748.36	229.57
748.68	229.50
749.01	229.40
749.34	229.33
749.67	229.27
750.00	229.22
750.33	229.24
750.65	229.18
750.98	228.97
751.31	228.91
751.64	228.85
751.97	228.85
752.29	228.77
752.62	228.66
752.95	228.59
753.28	228.51
753.60	228.45
753.93	228.41
754.26	228.36
754.59	228.27
754.91	228.20
755.24	228.13
755.57	228.11
755.90	228.05
756.22	227.98
756.55	227.91
756.88	227.82
757.20	227.69
757.53	227.61
757.86	227.55
758.19	227.50
758.51	227.45
758.84	227.34
759.17	227.28
759.49	227.24
759.82	227.24
760.15	227.20
760.47	227.15
760.80	227.08
761.13	227.05
761.45	227.00
761.78	226.96
762.11	226.91
762.43	226.82
762.76	226.77
763.08	226.75
763.41	226.71
763.74	226.67
764.06	226.63
764.39	226.59
764.71	226.55
765.04	226.50
765.37	226.45
765.69	226.41
766.02	226.37
766.34	226.32
766.67	226.24
767.00	226.22
767.32	226.24
767.65	226.26
767.97	226.21
768.30	226.18
768.62	226.14
768.95	226.09
769.27	226.05
769.60	226.03
769.92	225.98
770.25	225.93
770.57	225.87
770.90	225.84
771.22	225.80
771.55	225.77
771.87	225.75
772.20	225.71
772.52	225.77
772.85	225.86
773.17	225.84
773.50	225.80
773.82	225.75
774.15	225.67
774.47	225.57
774.80	225.53
775.12	225.51
775.45	225.48
775.77	225.46
776.09	225.44
776.42	225.41
776.74	225.42
777.07	225.39
777.39	225.37
777.72	225.34
778.04	225.33
778.36	225.29
778.69	225.27
779.01	225.26
779.33	225.15
779.66	225.01
779.98	224.98
780.31	224.97
780.63	224.98
780.95	224.99
781.28	224.97
781.60	224.94
781.92	224.92
782.25	224.90
782.57	224.88
782.89	224.85
783.22	224.82
783.54	224.78
783.86	224.77
784.19	224.75
784.51	224.76
784.83	224.73
785.16	224.71
785.48	224.68
785.80	224.66
786.12	224.66
786.45	224.64
786.77	224.63
787.09	224.60
787.42	224.55
787.74	224.54
788.06	224.53
788.38	224.51
788.71	224.49
789.03	224.48
789.35	224.48
789.67	224.45
789.99	224.44
790.32	224.42
790.64	224.41
790.96	224.49
791.28	224.44
791.61	224.43
791.93	224.43
792.25	224.40
792.57	224.46
792.89	224.43
793.21	224.43
793.54	224.40
793.86	224.38
794.18	224.37
794.50	224.34
794.82	224.32
795.14	224.32
795.47	224.33
795.79	224.32
796.11	224.28
796.43	224.27
796.75	224.26
797.07	224.25
797.39	224.23
797.71	224.14
798.04	224.13
798.36	224.13
798.68	224.11
799.00	224.11
799.32	224.04
799.64	224.05
799.96	224.03
800.28	224.04
800.60	224.03
800.92	224.03
801.24	224.01
801.56	224.01
801.89	223.99
802.21	223.98
802.53	223.95
802.85	223.97
803.17	224.01
803.49	223.98
803.81	223.96
804.13	223.94
804.45	223.92
804.77	223.92
805.09	223.91
805.41	223.89
805.73	223.86
806.05	223.82
806.37	223.81
806.69	223.79
807.01	223.77
807.33	223.77
807.65	223.72
807.97	223.76
808.28	223.74
808.60	223.72
808.92	223.70
809.24	223.75
809.56	223.72
809.88	223.67
810.20	223.67
810.52	223.68
810.84	223.66
811.16	223.64
811.48	223.63
811.80	223.66
812.12	223.66
812.43	223.68
812.75	223.68
813.07	223.66
813.39	223.66
813.71	223.64
814.03	223.63
814.35	223.64
814.67	223.59
814.98	223.57
815.30	223.57
815.62	223.55
815.94	223.47
816.26	223.48
816.58	223.46
816.89	223.46
817.21	223.43
817.53	223.44
817.85	223.44
818.17	223.43
818.48	223.38
818.80	223.40
819.12	223.37
819.44	223.35
819.76	223.33
820.07	223.32
820.39	223.31
820.71	223.32
821.03	223.32
821.34	223.31
821.66	223.32
821.98	223.33
822.30	223.32
822.61	223.38
822.93	223.36
823.25	223.36
823.57	223.35
823.88	223.36
824.20	223.35
824.52	223.36
824.83	223.35
825.15	223.34
825.47	223.32
825.79	223.33
826.10	223.33
826.42	223.32
826.74	223.32
827.05	223.32
827.37	223.32
827.69	223.31
828.00	223.31
828.32	223.30
828.64	223.28
828.95	223.34
829.27	223.30
829.58	223.30
829.90	223.31
830.22	223.32
830.53	223.29
830.85	223.28
831.17	223.25
831.48	223.24
831.80	223.25
832.11	223.24
832.43	223.22
832.75	223.21
833.06	223.27
833.38	223.25
833.69	223.24
834.01	223.24
834.32	223.23
834.64	223.22
834.96	223.22
835.27	223.21
835.59	223.17
835.90	223.16
836.22	223.15
836.53	223.13
836.85	223.11
837.16	223.21
837.48	223.21
837.79	223.25
838.11	223.25
838.42	223.25
838.74	223.26
839.05	223.25
839.37	223.24
839.68	223.18
840.00	223.17
840.31	223.18
840.63	223.17
840.94	223.16
841.26	223.15
841.57	223.14
841.88	223.15
842.20	223.13
842.51	223.11
842.83	223.11
843.14	223.20
843.46	223.20
843.77	223.14
844.08	223.13
844.40	223.09
844.71	223.08
845.03	223.07
845.34	223.06
845.65	223.05
845.97	223.05
846.28	223.06
846.60	223.06
846.91	223.04
847.22	223.03
847.54	223.05
847.85	223.06
848.16	223.05
848.48	223.03
848.79	223.07
849.10	223.08
849.42	223.08
849.73	222.98
850.04	222.98
850.36	222.95
850.67	222.96
850.98	222.97
851.30	222.97
851.61	222.97
851.92	222.97
852.23	223.01
852.55	223.01
852.86	223.01
853.17	223.02
853.49	223.04
853.80	223.06
854.11	223.07
854.42	223.08
854.74	223.07
855.05	223.07
855.36	223.02
855.67	223.02
855.99	223.01
856.30	223.14
856.61	223.13
856.92	223.13
857.23	223.13
857.55	223.12
857.86	223.11
858.17	223.13
858.48	223.11
858.79	223.09
859.11	223.10
859.42	223.09
859.73	223.08
860.04	223.07
860.35	223.04
860.66	223.01
860.98	223.00
861.29	223.01
861.60	223.00
861.91	223.02
862.22	223.01
862.53	223.00
862.84	222.87
863.16	222.90
863.47	222.88
863.78	222.86
864.09	222.86
864.40	222.87
864.71	222.87
865.02	222.88
865.33	222.87
865.64	222.85
865.95	222.85
866.27	222.91
866.58	222.90
866.89	222.92
867.20	222.91
867.51	222.90
867.82	222.89
868.13	222.93
868.44	222.90
868.75	222.92
869.06	222.93
869.37	222.94
869.68	222.92
869.99	222.94
870.30	222.94
870.61	222.95
870.92	222.94
871.23	222.93
871.54	222.94
871.85	222.96
872.16	222.97
872.47	222.96
872.78	222.90
873.09	222.91
873.40	222.89
873.71	222.90
874.02	222.91
874.33	222.90
874.64	222.87
874.95	222.89
875.26	222.87
875.56	222.86
875.87	222.85
876.18	222.85
876.49	222.94
876.80	222.94
877.11	222.92
877.42	222.92
877.73	222.92
878.04	222.91
878.35	222.90
878.66	222.90
878.96	222.90
879.27	222.90
879.58	222.89
879.89	222.88
880.20	222.91
880.51	222.91
880.82	222.90
881.12	222.91
881.43	222.88
881.74	222.88
882.05	222.87
882.36	222.87
882.67	222.88
882.97	222.77
883.28	222.76
883.59	222.76
883.90	222.77
884.21	222.78
884.51	222.77
884.82	222.76
885.13	222.76
885.44	222.75
885.74	222.75
886.05	222.75
886.36	222.75
886.67	222.71
886.98	222.76
887.28	222.77
887.59	222.77
887.90	222.77
888.20	222.77
888.51	222.78
888.82	222.76
889.13	222.77
889.43	222.86
889.74	222.85
890.05	222.85
890.35	222.83
890.66	222.82
890.97	222.81
891.28	222.80
891.58	222.80
891.89	222.80
892.20	222.79
892.50	222.78
892.81	222.77
893.12	222.77
893.42	222.72
893.73	222.73
894.04	222.72
894.34	222.73
894.65	222.73
894.95	222.72
895.26	222.72
895.57	222.77
895.87	222.66
896.18	222.68
896.48	222.69
896.79	222.69
897.10	222.70
897.40	222.70
897.71	222.71
898.01	222.70
898.32	222.71
898.63	222.71
898.93	222.72
899.24	222.73
899.54	222.73
899.85	222.73
900.15	222.71
900.46	222.71
900.76	222.72
901.07	222.72
901.38	222.72
901.68	222.73
901.99	222.67
902.29	222.68
902.60	222.67
902.90	222.66
903.21	222.66
903.51	222.65
903.82	222.67
904.12	222.67
904.43	222.68
904.73	222.68
905.03	222.68
905.34	222.78
905.64	222.78
905.95	222.77
906.25	222.77
906.56	222.77
906.86	222.76
907.17	222.75
907.47	222.76
907.77	222.75
908.08	222.73
908.38	222.74
908.69	222.74
908.99	222.75
909.30	222.76
909.60	222.76
909.90	222.76
910.21	222.73
910.51	222.72
910.81	222.72
911.12	222.72
911.42	222.72
911.73	222.61
912.03	222.62
912.33	222.64
912.64	222.63
912.94	222.62
913.24	222.61
913.55	222.60
913.85	222.59
914.15	222.61
914.46	222.62
914.76	222.61
915.06	222.61
915.37	222.59
915.67	222.58
915.97	222.58
916.27	222.56
916.58	222.56
916.88	222.56
917.18	222.55
917.49	222.62
917.79	222.61
918.09	222.63
918.39	222.66
918.70	222.65
919.00	222.66
919.30	222.71
919.60	222.70
919.91	222.69
920.21	222.69
920.51	222.67
920.81	222.66
921.12	222.68
921.42	222.68
921.72	222.69
922.02	222.70
922.32	222.71
922.63	222.72
922.93	222.78
923.23	222.78
923.53	222.77
923.83	222.71
924.13	222.71
924.44	222.71
924.74	222.72
925.04	222.74
925.34	222.74
925.64	222.69
925.94	222.69
926.24	222.75
926.55	222.74
926.85	222.75
927.15	222.75
927.45	222.75
927.75	222.75
928.05	222.75
928.35	222.74
928.65	222.76
928.95	222.76
929.26	222.71
929.56	222.73
929.86	222.74
930.16	222.74
930.46	222.73
930.76	222.73
931.06	222.68
931.36	222.66
931.66	222.67
931.96	222.69
932.26	222.69
932.56	222.65
932.86	222.65
933.16	222.65
933.46	222.64
933.76	222.63
934.06	222.65
934.36	222.68
934.66	222.67
934.96	222.66
935.26	222.66
935.56	222.67
935.86	222.65
936.16	222.63
936.46	222.62
936.76	222.62
937.06	222.60
937.36	222.61
937.66	222.61
937.96	222.60
938.26	222.58
938.56	222.57
938.86	222.57
939.16	222.59
939.46	222.60
939.76	222.61
940.06	222.61
940.35	222.59
940.65	222.54
940.95	222.55
941.25	222.52
941.55	222.51
941.85	222.50
942.15	222.52
942.45	222.55
942.75	222.55
943.04	222.55
943.34	222.57
943.64	222.56
943.94	222.55
944.24	222.55
944.54	222.56
944.84	222.56
945.13	222.54
945.43	222.52
945.73	222.51
946.03	222.50
946.33	222.50
946.62	222.49
946.92	222.48
947.22	222.49
947.52	222.50
947.82	222.51
948.11	222.50
948.41	222.47
948.71	222.45
949.01	222.45
949.31	222.44
949.60	222.43
949.90	222.45
950.20	222.44
950.50	222.44
950.79	222.43
951.09	222.45
951.39	222.45
951.69	222.44
951.98	222.47
952.28	222.48
952.58	222.48
952.87	222.48
953.17	222.49
953.47	222.48
953.76	222.48
954.06	222.47
954.36	222.46
954.66	222.46
954.95	222.49
955.25	222.50
955.55	222.50
955.84	222.49
956.14	222.49
956.44	222.50
956.73	222.49
957.03	222.50
957.32	222.49
957.62	222.49
957.92	222.51
958.21	222.49
958.51	222.61
958.81	222.62
959.10	222.63
959.40	222.65
959.69	222.66
959.99	222.68
960.29	222.68
960.58	222.68
960.88	222.72
961.17	222.70
961.47	222.71
961.76	222.70
962.06	222.72
962.36	222.70
962.65	222.70
962.95	222.71
963.24	222.70
963.54	222.70
963.83	222.71
964.13	222.70
964.42	222.69
964.72	222.60
965.01	222.60
965.31	222.59
965.60	222.57
965.90	222.63
966.19	222.60
966.49	222.61
966.78	222.60
967.08	222.59
967.37	222.59
967.67	222.57
967.96	222.59
968.26	222.59
968.55	222.60
968.85	222.60
969.14	222.59
969.43	222.60
969.73	222.59
970.02	222.58
970.32	222.57
970.61	222.55
970.91	222.52
971.20	222.51
971.49	222.50
971.79	222.51
972.08	222.44
972.38	222.45
972.67	222.44
972.96	222.46
973.26	222.44
973.55	222.47
973.85	222.46
974.14	222.45
974.43	222.45
974.73	222.43
975.02	222.42
975.31	222.42
975.61	222.42
975.90	222.42
976.19	222.41
976.49	222.42
976.78	222.43
977.07	222.43
977.37	222.44
977.66	222.45
977.95	222.43
978.24	222.44
978.54	222.46
978.83	222.46
979.12	222.45
979.42	222.45
979.71	222.43
980.00	222.43
980.29	222.43
980.59	222.41
980.88	222.44
981.17	222.44
981.46	222.44
981.76	222.45
982.05	222.48
982.34	222.49
982.63	222.49
982.93	222.49
983.22	222.52
983.51	222.52
983.80	222.53
984.09	222.54
984.39	222.54
984.68	222.52
984.97	222.53
985.26	222.52
985.55	222.53
985.85	222.50
986.14	222.52
986.43	222.53
986.72	222.52
987.01	222.49
987.30	222.49
987.59	222.49
987.89	222.49
988.18	222.45
988.47	222.45
988.76	222.44
989.05	222.43
989.34	222.41
989.63	222.44
989.92	222.43
990.22	222.41
990.51	222.41
990.80	222.41
991.09	222.42
991.38	222.43
991.67	222.42
991.96	222.41
992.25	222.41
992.54	222.39
992.83	222.40
993.12	222.39
993.41	222.41
993.70	222.45
993.99	222.47
994.28	222.49
994.58	222.50
994.87	222.49
995.16	222.49
995.45	222.48
995.74	222.44
996.03	222.46
996.32	222.47
996.61	222.49
996.90	222.49
997.19	222.48
997.48	222.48
997.77	222.47
998.06	222.48
998.34	222.47
998.63	222.47
998.92	222.48
999.21	222.50
999.50	222.49
999.79	222.46
1000.08	222.45
1000.37	222.45
1000.66	222.44
1000.95	222.46
1001.24	222.47
1001.53	222.48
1001.82	222.48
1002.11	222.46
1002.40	222.47
1002.68	222.48
1002.97	222.55
1003.26	222.54
1003.55	222.53
1003.84	222.54
1004.13	222.57
1004.42	222.56
1004.71	222.56
1004.99	222.55
1005.28	222.57
1005.57	222.57
1005.86	222.56
1006.15	222.55
1006.44	222.54
1006.72	222.55
1007.01	222.53
1007.30	222.53
1007.59	222.52
1007.88	222.52
1008.17	222.53
1008.45	222.51
1008.74	222.46
1009.03	222.42
1009.32	222.42
1009.60	222.42
1009.89	222.41
1010.18	222.37
1010.47	222.36
1010.76	222.36
1011.04	222.36
1011.33	222.36
1011.62	222.36
1011.91	222.37
1012.19	222.37
1012.48	222.38
1012.77	222.37
1013.05	222.41
1013.34	222.41
1013.63	222.40
1013.92	222.41
1014.20	222.40
1014.49	222.41
1014.78	222.42
1015.06	222.38
1015.35	222.39
1015.64	222.40
1015.92	222.42
1016.21	222.42
1016.50	222.43
1016.78	222.44
1017.07	222.44
1017.36	222.43
1017.64	222.41
1017.93	222.42
1018.22	222.41
1018.50	222.41
1018.79	222.40
1019.08	222.37
1019.36	222.37
1019.65	222.37
1019.93	222.40
1020.22	222.42
1020.51	222.46
1020.79	222.45
1021.08	222.24
1021.36	222.29
1021.65	222.40
1021.94	222.34
1022.22	222.47
1022.51	222.24
1022.79	222.94
1023.08	222.56
1023.36	223.53
1023.65	222.18
>>>>>End Processed Spectral Data<<<<<
