SpectraSuite Data File
++++++++++++++++++++++++++++++++++++
Date: Wed Sep 30 22:50:14 EDT 2015
User: lab3
Dark Spectrum Present: No
Reference Spectrum Present: No
Number of Sampled Component Spectra: 1
Spectrometers: USB2E7196
Integration Time (usec): 36000 (USB2E7196)
Spectra Averaged: 10000 (USB2E7196)
Boxcar Smoothing: 10 (USB2E7196)
Correct for Electrical Dark: No (USB2E7196)
Strobe/Lamp Enabled: No (USB2E7196)
Correct for Detector Non-linearity: No (USB2E7196)
Correct for Stray Light: No (USB2E7196)
Number of Pixels in Processed Spectrum: 2048
>>>>>Begin Processed Spectral Data<<<<<
339.09	0.00
339.48	210.09
339.86	211.62
340.24	212.95
340.63	214.39
341.01	217.34
341.39	217.09
341.78	218.47
342.16	219.62
342.54	220.12
342.93	208.72
343.31	219.27
343.69	219.81
344.07	220.27
344.46	220.70
344.84	221.09
345.22	221.33
345.60	221.58
345.99	221.78
346.37	221.91
346.75	222.02
347.13	222.09
347.52	222.16
347.90	222.24
348.28	222.28
348.66	222.33
349.05	222.33
349.43	222.38
349.81	222.44
350.19	222.49
350.57	222.56
350.96	222.64
351.34	222.73
351.72	222.82
352.10	222.93
352.48	223.00
352.87	223.06
353.25	223.12
353.63	223.18
354.01	223.24
354.39	223.32
354.77	223.39
355.15	223.50
355.54	223.55
355.92	223.58
356.30	223.66
356.68	223.79
357.06	223.87
357.44	223.92
357.82	223.98
358.20	224.09
358.58	224.15
358.97	224.21
359.35	224.30
359.73	224.37
360.11	224.42
360.49	224.48
360.87	224.53
361.25	224.59
361.63	224.67
362.01	224.72
362.39	224.75
362.77	224.80
363.15	224.82
363.53	224.85
363.91	224.89
364.29	224.91
364.67	224.83
365.05	224.85
365.43	224.89
365.81	224.92
366.19	224.93
366.57	224.98
366.95	224.98
367.33	224.95
367.71	224.95
368.09	224.96
368.47	224.96
368.85	224.95
369.23	224.96
369.61	224.90
369.99	224.92
370.37	224.92
370.75	224.97
371.13	224.94
371.51	224.90
371.89	224.88
372.27	224.85
372.65	224.83
373.03	224.79
373.41	224.74
373.78	224.70
374.16	224.60
374.54	224.52
374.92	224.48
375.30	224.44
375.68	224.37
376.06	224.32
376.44	224.27
376.82	224.23
377.19	224.18
377.57	224.13
377.95	224.04
378.33	223.98
378.71	223.83
379.09	223.78
379.47	223.74
379.84	223.68
380.22	223.62
380.60	223.55
380.98	223.50
381.36	223.44
381.73	223.38
382.11	223.35
382.49	223.31
382.87	223.24
383.25	223.20
383.62	223.27
384.00	223.21
384.38	223.17
384.76	223.15
385.13	223.13
385.51	223.09
385.89	223.04
386.27	223.00
386.64	222.98
387.02	222.94
387.40	222.90
387.78	222.87
388.15	222.84
388.53	222.81
388.91	222.78
389.29	222.74
389.66	222.74
390.04	222.70
390.42	222.69
390.79	222.68
391.17	222.66
391.55	222.52
391.92	222.51
392.30	222.50
392.68	222.47
393.05	222.44
393.43	222.44
393.81	222.45
394.18	222.43
394.56	222.43
394.94	222.45
395.31	222.45
395.69	222.49
396.06	222.52
396.44	222.54
396.82	222.55
397.19	222.62
397.57	222.63
397.95	222.67
398.32	222.66
398.70	222.70
399.07	222.76
399.45	222.79
399.82	222.83
400.20	222.87
400.58	222.92
400.95	222.94
401.33	223.01
401.70	223.15
402.08	223.23
402.45	223.31
402.83	223.41
403.20	223.51
403.58	223.59
403.95	223.71
404.33	223.84
404.71	223.97
405.08	224.14
405.46	224.29
405.83	224.44
406.21	224.61
406.58	224.80
406.96	224.99
407.33	225.20
407.70	225.44
408.08	225.76
408.45	226.04
408.83	226.35
409.20	226.63
409.58	226.88
409.95	227.22
410.33	227.59
410.70	227.94
411.08	228.35
411.45	228.79
411.82	229.22
412.20	229.73
412.57	230.33
412.95	230.79
413.32	231.41
413.69	232.04
414.07	232.71
414.44	233.43
414.82	234.17
415.19	235.03
415.56	235.91
415.94	236.82
416.31	237.85
416.68	238.87
417.06	240.06
417.43	241.18
417.81	242.47
418.18	243.78
418.55	245.22
418.93	246.71
419.30	248.27
419.67	249.93
420.04	251.63
420.42	253.41
420.79	255.47
421.16	257.55
421.54	259.67
421.91	261.87
422.28	264.17
422.66	266.65
423.03	269.01
423.40	271.49
423.77	274.15
424.15	276.87
424.52	279.71
424.89	282.77
425.26	285.82
425.64	288.64
426.01	291.83
426.38	295.08
426.75	298.44
427.13	301.87
427.50	305.45
427.87	309.18
428.24	312.95
428.61	316.55
428.99	320.44
429.36	324.71
429.73	328.79
430.10	332.85
430.47	337.00
430.85	341.27
431.22	345.82
431.59	350.48
431.96	355.03
432.33	360.06
432.70	364.84
433.08	370.49
433.45	375.82
433.82	381.06
434.19	386.91
434.56	392.65
434.93	398.19
435.30	403.68
435.68	409.85
436.05	415.89
436.42	421.92
436.79	427.42
437.16	433.34
437.53	439.70
437.90	446.04
438.27	452.24
438.64	458.98
439.01	465.07
439.38	470.62
439.75	476.00
440.13	482.13
440.50	487.97
440.87	492.57
441.24	497.62
441.61	503.22
441.98	507.31
442.35	512.19
442.72	517.19
443.09	521.98
443.46	525.07
443.83	527.36
444.20	529.32
444.57	532.16
444.94	533.88
445.31	535.65
445.68	537.24
446.05	538.43
446.42	538.32
446.79	538.12
447.16	537.96
447.53	537.84
447.90	536.08
448.27	534.43
448.64	531.80
449.01	530.08
449.37	526.28
449.74	522.82
450.11	518.37
450.48	513.45
450.85	508.49
451.22	504.30
451.59	500.19
451.96	496.45
452.33	490.96
452.70	486.06
453.07	480.08
453.43	474.08
453.80	468.29
454.17	462.72
454.54	457.55
454.91	451.70
455.28	446.20
455.65	441.01
456.02	435.49
456.38	431.04
456.75	425.28
457.12	420.64
457.49	415.96
457.86	411.48
458.23	407.56
458.59	403.24
458.96	398.79
459.33	394.86
459.70	390.86
460.07	387.81
460.43	384.21
460.80	380.84
461.17	377.88
461.54	374.68
461.91	371.69
462.27	368.64
462.64	366.15
463.01	363.30
463.38	360.42
463.74	357.82
464.11	355.50
464.48	353.40
464.85	351.15
465.21	349.43
465.58	347.54
465.95	345.34
466.32	343.58
466.68	341.86
467.05	340.14
467.42	338.47
467.78	336.68
468.15	335.02
468.52	333.78
468.88	332.17
469.25	330.68
469.62	329.51
469.98	328.23
470.35	327.09
470.72	326.07
471.08	325.02
471.45	324.16
471.82	323.21
472.18	322.22
472.55	321.58
472.92	320.78
473.28	320.17
473.65	319.53
474.02	318.92
474.38	318.43
474.75	318.15
475.11	317.73
475.48	317.58
475.85	317.42
476.21	317.37
476.58	317.37
476.94	317.56
477.31	317.68
477.67	317.83
478.04	318.08
478.41	318.42
478.77	318.87
479.14	319.20
479.50	319.76
479.87	320.44
480.23	321.13
480.60	321.79
480.96	322.48
481.33	323.42
481.69	324.37
482.06	325.30
482.42	326.20
482.79	327.26
483.15	328.49
483.52	329.85
483.88	331.17
484.25	332.59
484.61	334.06
484.98	335.64
485.34	337.41
485.71	339.25
486.07	341.20
486.44	343.14
486.80	345.31
487.17	347.52
487.53	349.95
487.90	352.49
488.26	355.24
488.62	358.13
488.99	361.03
489.35	364.06
489.72	367.33
490.08	370.77
490.44	374.30
490.81	378.00
491.17	381.79
491.54	385.84
491.90	389.98
492.26	394.45
492.63	399.15
492.99	404.03
493.36	409.05
493.72	414.34
494.08	419.76
494.45	425.48
494.81	431.41
495.17	437.46
495.54	443.85
495.90	450.56
496.26	457.39
496.63	464.48
496.99	471.83
497.35	479.55
497.72	487.56
498.08	495.74
498.44	504.18
498.80	513.16
499.17	522.37
499.53	531.91
499.89	541.69
500.26	551.63
500.62	561.85
500.98	572.73
501.34	583.76
501.71	595.33
502.07	607.11
502.43	619.29
502.79	631.81
503.16	644.73
503.52	657.84
503.88	671.31
504.24	685.22
504.60	699.43
504.97	714.00
505.33	728.96
505.69	744.80
506.05	760.84
506.41	776.90
506.78	793.26
507.14	810.09
507.50	827.52
507.86	845.35
508.22	863.44
508.59	881.53
508.95	900.36
509.31	919.60
509.67	939.55
510.03	959.73
510.39	980.12
510.75	1000.75
511.12	1021.65
511.48	1042.90
511.84	1064.24
512.20	1085.88
512.56	1108.60
512.92	1131.57
513.28	1154.26
513.64	1177.26
514.00	1200.66
514.37	1224.41
514.73	1248.21
515.09	1271.81
515.45	1295.82
515.81	1320.42
516.17	1345.07
516.53	1369.40
516.89	1393.82
517.25	1418.44
517.61	1443.22
517.97	1468.20
518.33	1492.94
518.69	1517.82
519.05	1542.97
519.41	1568.25
519.77	1593.80
520.13	1618.62
520.49	1643.58
520.85	1668.77
521.21	1693.88
521.57	1719.62
521.93	1744.64
522.29	1770.50
522.65	1796.09
523.01	1821.48
523.37	1846.15
523.73	1871.49
524.09	1896.98
524.45	1922.35
524.81	1947.25
525.17	1972.05
525.53	1996.49
525.89	2020.97
526.25	2045.62
526.61	2069.74
526.97	2094.15
527.33	2118.48
527.68	2142.61
528.04	2165.93
528.40	2189.13
528.76	2212.53
529.12	2234.86
529.48	2257.58
529.84	2278.49
530.20	2299.95
530.56	2321.08
530.91	2342.25
531.27	2362.89
531.63	2382.94
531.99	2402.50
532.35	2421.74
532.71	2441.10
533.07	2461.03
533.42	2479.38
533.78	2498.15
534.14	2516.88
534.50	2534.77
534.86	2553.31
535.21	2570.04
535.57	2586.74
535.93	2602.63
536.29	2617.35
536.65	2632.88
537.00	2647.24
537.36	2662.10
537.72	2675.96
538.08	2689.53
538.44	2701.92
538.79	2714.56
539.15	2725.56
539.51	2736.45
539.87	2746.98
540.22	2755.33
540.58	2763.80
540.94	2772.87
541.29	2780.44
541.65	2787.03
542.01	2793.11
542.37	2797.32
542.72	2803.44
543.08	2808.98
543.44	2814.40
543.79	2818.94
544.15	2822.64
544.51	2826.34
544.87	2829.17
545.22	2831.56
545.58	2832.90
545.94	2834.75
546.29	2835.17
546.65	2835.68
547.01	2836.23
547.36	2836.91
547.72	2837.77
548.07	2837.17
548.43	2835.92
548.79	2834.00
549.14	2832.13
549.50	2830.82
549.86	2828.65
550.21	2824.03
550.57	2819.88
550.92	2814.40
551.28	2809.52
551.64	2804.52
551.99	2799.93
552.35	2794.91
552.70	2789.45
553.06	2784.76
553.41	2779.59
553.77	2773.77
554.13	2768.63
554.48	2762.62
554.84	2754.97
555.19	2747.49
555.55	2739.39
555.90	2731.87
556.26	2725.39
556.61	2718.27
556.97	2708.99
557.32	2700.55
557.68	2692.53
558.03	2683.83
558.39	2675.74
558.74	2667.90
559.10	2658.84
559.45	2649.41
559.81	2640.31
560.16	2630.55
560.52	2620.34
560.87	2611.15
561.23	2601.62
561.58	2591.58
561.94	2581.23
562.29	2570.46
562.64	2560.23
563.00	2550.31
563.35	2540.22
563.71	2529.23
564.06	2517.74
564.42	2507.29
564.77	2496.47
565.12	2485.79
565.48	2474.86
565.83	2464.62
566.19	2454.34
566.54	2443.70
566.89	2432.11
567.25	2420.45
567.60	2409.66
567.96	2398.40
568.31	2385.77
568.66	2373.06
569.02	2361.40
569.37	2349.57
569.72	2338.19
570.08	2326.09
570.43	2313.49
570.78	2300.56
571.14	2287.44
571.49	2275.08
571.84	2263.03
572.20	2249.71
572.55	2236.72
572.90	2223.58
573.26	2209.54
573.61	2194.95
573.96	2180.61
574.31	2166.65
574.67	2152.97
575.02	2138.84
575.37	2124.28
575.72	2109.95
576.08	2096.27
576.43	2081.52
576.78	2066.77
577.13	2052.86
577.49	2039.02
577.84	2025.56
578.19	2011.24
578.54	1996.51
578.90	1981.30
579.25	1965.78
579.60	1951.73
579.95	1937.35
580.30	1922.98
580.66	1908.89
581.01	1894.42
581.36	1880.31
581.71	1866.76
582.06	1852.70
582.42	1838.70
582.77	1825.45
583.12	1811.85
583.47	1798.28
583.82	1784.83
584.17	1771.29
584.53	1757.57
584.88	1743.83
585.23	1729.78
585.58	1716.25
585.93	1703.15
586.28	1690.86
586.63	1678.40
586.98	1665.17
587.34	1652.19
587.69	1638.72
588.04	1625.49
588.39	1612.94
588.74	1599.87
589.09	1586.56
589.44	1573.19
589.79	1560.40
590.14	1547.48
590.49	1534.75
590.84	1521.87
591.19	1509.68
591.54	1496.98
591.89	1484.13
592.25	1471.62
592.60	1458.69
592.95	1446.34
593.30	1434.31
593.65	1422.04
594.00	1409.99
594.35	1398.72
594.70	1386.60
595.05	1375.59
595.40	1364.40
595.75	1352.58
596.10	1341.56
596.45	1330.77
596.80	1320.45
597.15	1309.91
597.50	1299.37
597.85	1289.05
598.19	1278.92
598.54	1268.16
598.89	1258.12
599.24	1248.41
599.59	1238.45
599.94	1229.54
600.29	1220.50
600.64	1211.23
600.99	1201.38
601.34	1192.00
601.69	1182.02
602.04	1173.13
602.39	1164.07
602.74	1155.26
603.08	1146.71
603.43	1137.68
603.78	1128.51
604.13	1119.49
604.48	1110.39
604.83	1101.58
605.18	1092.68
605.53	1083.70
605.87	1074.84
606.22	1066.27
606.57	1057.44
606.92	1048.69
607.27	1039.79
607.62	1030.96
607.96	1022.32
608.31	1014.70
608.66	1006.66
609.01	999.05
609.36	991.38
609.70	983.49
610.05	975.41
610.40	967.69
610.75	960.09
611.10	952.77
611.44	945.05
611.79	937.65
612.14	929.84
612.49	922.20
612.83	915.06
613.18	907.97
613.53	900.67
613.88	893.45
614.22	886.85
614.57	880.08
614.92	873.30
615.27	866.52
615.61	859.59
615.96	852.90
616.31	846.12
616.65	839.24
617.00	832.61
617.35	826.14
617.70	819.68
618.04	813.28
618.39	806.91
618.74	800.87
619.08	794.63
619.43	788.68
619.78	782.74
620.12	776.59
620.47	770.63
620.82	764.75
621.16	759.21
621.51	753.30
621.85	747.38
622.20	741.51
622.55	735.83
622.89	730.11
623.24	724.42
623.59	718.82
623.93	713.25
624.28	707.83
624.62	702.39
624.97	696.93
625.32	691.60
625.66	686.12
626.01	680.63
626.35	675.30
626.70	669.99
627.04	664.88
627.39	659.81
627.73	654.85
628.08	650.13
628.43	645.27
628.77	640.49
629.12	635.85
629.46	631.38
629.81	626.72
630.15	621.95
630.50	617.33
630.84	612.91
631.19	608.67
631.53	604.48
631.88	600.17
632.22	595.96
632.57	592.00
632.91	587.99
633.26	584.06
633.60	580.21
633.95	576.48
634.29	572.59
634.64	568.68
634.98	564.65
635.32	560.78
635.67	557.04
636.01	553.25
636.36	549.49
636.70	545.88
637.05	542.27
637.39	538.87
637.73	535.32
638.08	531.85
638.42	528.35
638.77	524.70
639.11	521.07
639.45	517.46
639.80	513.84
640.14	510.42
640.49	506.95
640.83	503.37
641.17	499.83
641.52	496.46
641.86	493.08
642.20	489.89
642.55	486.54
642.89	483.27
643.23	480.20
643.58	477.38
643.92	474.42
644.26	471.50
644.61	468.56
644.95	465.64
645.29	462.65
645.64	459.64
645.98	456.76
646.32	454.06
646.66	451.37
647.01	448.65
647.35	445.98
647.69	443.20
648.04	440.57
648.38	437.96
648.72	435.32
649.06	432.76
649.41	430.22
649.75	427.68
650.09	425.17
650.43	422.65
650.78	420.11
651.12	417.56
651.46	415.11
651.80	412.77
652.14	410.50
652.49	408.24
652.83	406.04
653.17	403.83
653.51	401.69
653.85	399.61
654.20	397.47
654.54	395.24
654.88	393.22
655.22	391.25
655.56	389.24
655.90	387.32
656.25	385.41
656.59	383.50
656.93	381.69
657.27	379.93
657.61	378.06
657.95	376.26
658.29	374.47
658.64	372.71
658.98	370.92
659.32	369.16
659.66	367.51
660.00	365.87
660.34	364.25
660.68	362.59
661.02	360.86
661.36	359.24
661.70	357.69
662.05	356.12
662.39	354.54
662.73	353.05
663.07	351.59
663.41	350.15
663.75	348.74
664.09	347.32
664.43	345.82
664.77	344.43
665.11	342.98
665.45	341.60
665.79	340.22
666.13	338.84
666.47	337.43
666.81	336.01
667.15	334.55
667.49	333.20
667.83	331.89
668.17	330.62
668.51	329.38
668.85	328.15
669.19	327.00
669.53	325.78
669.87	324.53
670.21	323.32
670.55	322.12
670.89	320.99
671.23	319.84
671.57	318.69
671.91	317.60
672.25	316.57
672.58	315.53
672.92	314.47
673.26	313.47
673.60	312.48
673.94	311.47
674.28	310.53
674.62	309.58
674.96	308.60
675.30	307.68
675.64	306.73
675.97	305.79
676.31	304.81
676.65	303.87
676.99	302.98
677.33	302.04
677.67	301.15
678.01	300.18
678.34	299.28
678.68	298.44
679.02	297.57
679.36	296.70
679.70	295.85
680.04	295.02
680.37	294.18
680.71	293.37
681.05	292.62
681.39	291.82
681.73	290.99
682.06	290.19
682.40	289.41
682.74	288.65
683.08	287.92
683.42	287.17
683.75	286.49
684.09	285.73
684.43	285.02
684.77	284.29
685.10	283.62
685.44	282.92
685.78	282.22
686.12	281.55
686.45	280.87
686.79	280.20
687.13	279.55
687.46	278.87
687.80	278.21
688.14	277.51
688.48	276.87
688.81	276.24
689.15	275.65
689.49	275.01
689.82	274.40
690.16	273.73
690.50	273.13
690.83	272.52
691.17	271.92
691.51	271.35
691.84	270.80
692.18	270.22
692.52	269.62
692.85	269.04
693.19	268.50
693.52	267.96
693.86	267.41
694.20	266.86
694.53	266.35
694.87	265.81
695.21	265.31
695.54	264.80
695.88	264.28
696.21	263.73
696.55	263.23
696.88	262.73
697.22	262.24
697.56	261.76
697.89	261.22
698.23	260.71
698.56	260.20
698.90	259.72
699.23	259.24
699.57	258.79
699.90	258.34
700.24	257.85
700.58	257.41
700.91	256.99
701.25	256.64
701.58	256.27
701.92	255.88
702.25	255.46
702.59	255.04
702.92	254.65
703.26	254.26
703.59	253.86
703.93	253.54
704.26	253.18
704.60	252.80
704.93	252.44
705.26	252.08
705.60	251.75
705.93	251.37
706.27	251.06
706.60	250.74
706.94	250.42
707.27	250.06
707.61	249.71
707.94	249.35
708.27	248.91
708.61	248.53
708.94	248.17
709.28	247.84
709.61	247.52
709.94	247.22
710.28	246.92
710.61	246.64
710.95	246.26
711.28	246.04
711.61	245.75
711.95	245.49
712.28	245.21
712.61	244.91
712.95	244.69
713.28	244.47
713.61	244.18
713.95	243.89
714.28	243.65
714.61	243.39
714.95	243.15
715.28	242.90
715.61	242.65
715.95	242.43
716.28	242.19
716.61	241.98
716.95	241.73
717.28	241.51
717.61	241.27
717.94	241.05
718.28	240.75
718.61	240.53
718.94	240.29
719.27	240.08
719.61	239.89
719.94	239.65
720.27	239.39
720.60	239.18
720.94	238.99
721.27	238.80
721.60	238.63
721.93	238.44
722.27	238.29
722.60	238.12
722.93	237.92
723.26	237.75
723.59	237.55
723.93	237.38
724.26	237.22
724.59	237.04
724.92	236.88
725.25	236.75
725.59	236.59
725.92	236.45
726.25	236.29
726.58	236.14
726.91	235.97
727.24	235.83
727.57	235.68
727.91	235.52
728.24	235.38
728.57	235.22
728.90	235.09
729.23	234.91
729.56	234.81
729.89	234.67
730.22	234.52
730.55	234.38
730.89	234.24
731.22	234.10
731.55	233.97
731.88	233.84
732.21	233.69
732.54	233.56
732.87	233.43
733.20	233.32
733.53	233.20
733.86	233.09
734.19	232.96
734.52	232.86
734.85	232.82
735.18	232.69
735.51	232.60
735.84	232.49
736.17	232.41
736.50	232.25
736.83	232.26
737.16	232.16
737.49	232.07
737.82	231.97
738.15	231.88
738.48	231.78
738.81	231.68
739.14	231.57
739.47	231.47
739.80	231.36
740.13	231.27
740.46	231.16
740.79	231.05
741.12	230.96
741.45	230.85
741.78	230.70
742.11	230.64
742.44	230.53
742.77	230.45
743.10	230.35
743.43	230.26
743.75	230.06
744.08	230.13
744.41	230.04
744.74	229.95
745.07	229.84
745.40	229.78
745.73	229.74
746.06	229.67
746.39	229.61
746.71	229.52
747.04	229.44
747.37	229.36
747.70	229.31
748.03	229.24
748.36	229.19
748.68	229.11
749.01	229.00
749.34	228.93
749.67	228.86
750.00	228.81
750.33	228.82
750.65	228.77
750.98	228.55
751.31	228.48
751.64	228.43
751.97	228.42
752.29	228.35
752.62	228.23
752.95	228.16
753.28	228.08
753.60	228.01
753.93	227.97
754.26	227.92
754.59	227.82
754.91	227.75
755.24	227.67
755.57	227.65
755.90	227.59
756.22	227.52
756.55	227.44
756.88	227.36
757.20	227.23
757.53	227.14
757.86	227.09
758.19	227.04
758.51	226.98
758.84	226.87
759.17	226.81
759.49	226.76
759.82	226.76
760.15	226.72
760.47	226.67
760.80	226.59
761.13	226.55
761.45	226.51
761.78	226.46
762.11	226.42
762.43	226.32
762.76	226.27
763.08	226.24
763.41	226.21
763.74	226.16
764.06	226.12
764.39	226.08
764.71	226.03
765.04	225.98
765.37	225.93
765.69	225.88
766.02	225.84
766.34	225.79
766.67	225.71
767.00	225.69
767.32	225.71
767.65	225.74
767.97	225.69
768.30	225.66
768.62	225.62
768.95	225.56
769.27	225.53
769.60	225.50
769.92	225.45
770.25	225.40
770.57	225.34
770.90	225.31
771.22	225.26
771.55	225.23
771.87	225.21
772.20	225.18
772.52	225.24
772.85	225.33
773.17	225.30
773.50	225.26
773.82	225.21
774.15	225.12
774.47	225.03
774.80	224.99
775.12	224.95
775.45	224.92
775.77	224.90
776.09	224.88
776.42	224.86
776.74	224.86
777.07	224.83
777.39	224.82
777.72	224.78
778.04	224.77
778.36	224.74
778.69	224.71
779.01	224.70
779.33	224.59
779.66	224.44
779.98	224.42
780.31	224.40
780.63	224.42
780.95	224.42
781.28	224.40
781.60	224.38
781.92	224.36
782.25	224.34
782.57	224.32
782.89	224.29
783.22	224.26
783.54	224.22
783.86	224.21
784.19	224.19
784.51	224.20
784.83	224.17
785.16	224.14
785.48	224.13
785.80	224.11
786.12	224.10
786.45	224.08
786.77	224.07
787.09	224.04
787.42	223.99
787.74	223.97
788.06	223.96
788.38	223.94
788.71	223.92
789.03	223.90
789.35	223.90
789.67	223.87
789.99	223.86
790.32	223.84
790.64	223.83
790.96	223.92
791.28	223.87
791.61	223.85
791.93	223.84
792.25	223.82
792.57	223.88
792.89	223.84
793.21	223.83
793.54	223.81
793.86	223.78
794.18	223.77
794.50	223.74
794.82	223.73
795.14	223.73
795.47	223.73
795.79	223.72
796.11	223.68
796.43	223.66
796.75	223.65
797.07	223.65
797.39	223.63
797.71	223.52
798.04	223.52
798.36	223.51
798.68	223.50
799.00	223.49
799.32	223.43
799.64	223.44
799.96	223.43
800.28	223.43
800.60	223.42
800.92	223.42
801.24	223.40
801.56	223.40
801.89	223.37
802.21	223.37
802.53	223.34
802.85	223.36
803.17	223.40
803.49	223.36
803.81	223.34
804.13	223.33
804.45	223.30
804.77	223.30
805.09	223.29
805.41	223.27
805.73	223.24
806.05	223.21
806.37	223.18
806.69	223.16
807.01	223.14
807.33	223.14
807.65	223.10
807.97	223.14
808.28	223.11
808.60	223.10
808.92	223.07
809.24	223.12
809.56	223.10
809.88	223.05
810.20	223.05
810.52	223.06
810.84	223.04
811.16	223.02
811.48	223.00
811.80	223.03
812.12	223.02
812.43	223.03
812.75	223.03
813.07	223.02
813.39	223.02
813.71	223.00
814.03	222.99
814.35	222.99
814.67	222.94
814.98	222.93
815.30	222.92
815.62	222.90
815.94	222.83
816.26	222.84
816.58	222.81
816.89	222.81
817.21	222.78
817.53	222.78
817.85	222.79
818.17	222.78
818.48	222.73
818.80	222.75
819.12	222.73
819.44	222.70
819.76	222.68
820.07	222.68
820.39	222.67
820.71	222.68
821.03	222.67
821.34	222.66
821.66	222.67
821.98	222.68
822.30	222.67
822.61	222.73
822.93	222.71
823.25	222.71
823.57	222.69
823.88	222.70
824.20	222.69
824.52	222.70
824.83	222.69
825.15	222.68
825.47	222.67
825.79	222.67
826.10	222.67
826.42	222.66
826.74	222.66
827.05	222.66
827.37	222.66
827.69	222.64
828.00	222.64
828.32	222.64
828.64	222.62
828.95	222.67
829.27	222.64
829.58	222.64
829.90	222.66
830.22	222.66
830.53	222.64
830.85	222.63
831.17	222.60
831.48	222.60
831.80	222.60
832.11	222.59
832.43	222.57
832.75	222.57
833.06	222.63
833.38	222.60
833.69	222.59
834.01	222.58
834.32	222.58
834.64	222.57
834.96	222.56
835.27	222.56
835.59	222.52
835.90	222.50
836.22	222.50
836.53	222.47
836.85	222.45
837.16	222.56
837.48	222.56
837.79	222.59
838.11	222.59
838.42	222.59
838.74	222.60
839.05	222.59
839.37	222.58
839.68	222.52
840.00	222.52
840.31	222.53
840.63	222.52
840.94	222.51
841.26	222.49
841.57	222.49
841.88	222.49
842.20	222.48
842.51	222.46
842.83	222.45
843.14	222.55
843.46	222.54
843.77	222.47
844.08	222.47
844.40	222.44
844.71	222.43
845.03	222.42
845.34	222.40
845.65	222.40
845.97	222.41
846.28	222.41
846.60	222.42
846.91	222.40
847.22	222.40
847.54	222.43
847.85	222.43
848.16	222.42
848.48	222.40
848.79	222.44
849.10	222.46
849.42	222.47
849.73	222.37
850.04	222.36
850.36	222.33
850.67	222.34
850.98	222.35
851.30	222.36
851.61	222.35
851.92	222.35
852.23	222.39
852.55	222.39
852.86	222.39
853.17	222.39
853.49	222.42
853.80	222.43
854.11	222.44
854.42	222.45
854.74	222.44
855.05	222.44
855.36	222.39
855.67	222.38
855.99	222.38
856.30	222.50
856.61	222.50
856.92	222.51
857.23	222.50
857.55	222.49
857.86	222.48
858.17	222.49
858.48	222.48
858.79	222.45
859.11	222.46
859.42	222.45
859.73	222.43
860.04	222.42
860.35	222.39
860.66	222.36
860.98	222.35
861.29	222.36
861.60	222.36
861.91	222.38
862.22	222.37
862.53	222.35
862.84	222.22
863.16	222.25
863.47	222.23
863.78	222.21
864.09	222.22
864.40	222.23
864.71	222.22
865.02	222.24
865.33	222.22
865.64	222.20
865.95	222.21
866.27	222.27
866.58	222.26
866.89	222.27
867.20	222.27
867.51	222.25
867.82	222.25
868.13	222.28
868.44	222.26
868.75	222.28
869.06	222.28
869.37	222.30
869.68	222.27
869.99	222.29
870.30	222.30
870.61	222.31
870.92	222.29
871.23	222.28
871.54	222.29
871.85	222.32
872.16	222.33
872.47	222.32
872.78	222.26
873.09	222.27
873.40	222.26
873.71	222.26
874.02	222.27
874.33	222.26
874.64	222.24
874.95	222.25
875.26	222.23
875.56	222.23
875.87	222.22
876.18	222.22
876.49	222.32
876.80	222.31
877.11	222.29
877.42	222.29
877.73	222.30
878.04	222.28
878.35	222.27
878.66	222.27
878.96	222.27
879.27	222.27
879.58	222.27
879.89	222.26
880.20	222.29
880.51	222.28
880.82	222.28
881.12	222.28
881.43	222.26
881.74	222.25
882.05	222.24
882.36	222.24
882.67	222.26
882.97	222.14
883.28	222.13
883.59	222.13
883.90	222.14
884.21	222.15
884.51	222.15
884.82	222.13
885.13	222.13
885.44	222.13
885.74	222.13
886.05	222.12
886.36	222.13
886.67	222.09
886.98	222.14
887.28	222.15
887.59	222.15
887.90	222.15
888.20	222.15
888.51	222.18
888.82	222.16
889.13	222.16
889.43	222.25
889.74	222.24
890.05	222.24
890.35	222.23
890.66	222.20
890.97	222.19
891.28	222.18
891.58	222.18
891.89	222.18
892.20	222.17
892.50	222.16
892.81	222.15
893.12	222.15
893.42	222.10
893.73	222.10
894.04	222.10
894.34	222.10
894.65	222.10
894.95	222.09
895.26	222.10
895.57	222.14
895.87	222.03
896.18	222.05
896.48	222.06
896.79	222.05
897.10	222.07
897.40	222.07
897.71	222.09
898.01	222.08
898.32	222.09
898.63	222.09
898.93	222.09
899.24	222.10
899.54	222.09
899.85	222.09
900.15	222.08
900.46	222.08
900.76	222.08
901.07	222.08
901.38	222.07
901.68	222.08
901.99	222.03
902.29	222.03
902.60	222.02
902.90	222.02
903.21	222.01
903.51	222.01
903.82	222.02
904.12	222.02
904.43	222.03
904.73	222.01
905.03	222.02
905.34	222.12
905.64	222.11
905.95	222.11
906.25	222.11
906.56	222.11
906.86	222.11
907.17	222.10
907.47	222.11
907.77	222.10
908.08	222.08
908.38	222.09
908.69	222.09
908.99	222.11
909.30	222.12
909.60	222.11
909.90	222.12
910.21	222.09
910.51	222.07
910.81	222.07
911.12	222.08
911.42	222.08
911.73	221.97
912.03	221.98
912.33	222.00
912.64	221.99
912.94	221.98
913.24	221.97
913.55	221.96
913.85	221.96
914.15	221.98
914.46	221.99
914.76	221.98
915.06	221.97
915.37	221.96
915.67	221.95
915.97	221.96
916.27	221.94
916.58	221.95
916.88	221.94
917.18	221.94
917.49	222.00
917.79	221.99
918.09	222.01
918.39	222.03
918.70	222.02
919.00	222.03
919.30	222.08
919.60	222.07
919.91	222.06
920.21	222.07
920.51	222.05
920.81	222.04
921.12	222.06
921.42	222.06
921.72	222.06
922.02	222.07
922.32	222.08
922.63	222.09
922.93	222.14
923.23	222.15
923.53	222.14
923.83	222.07
924.13	222.08
924.44	222.08
924.74	222.10
925.04	222.12
925.34	222.12
925.64	222.07
925.94	222.07
926.24	222.13
926.55	222.12
926.85	222.13
927.15	222.13
927.45	222.12
927.75	222.12
928.05	222.12
928.35	222.11
928.65	222.12
928.95	222.13
929.26	222.08
929.56	222.10
929.86	222.11
930.16	222.10
930.46	222.09
930.76	222.10
931.06	222.05
931.36	222.02
931.66	222.03
931.96	222.05
932.26	222.05
932.56	222.01
932.86	222.01
933.16	222.01
933.46	222.00
933.76	221.99
934.06	222.01
934.36	222.04
934.66	222.03
934.96	222.02
935.26	222.02
935.56	222.03
935.86	222.00
936.16	221.99
936.46	221.98
936.76	221.97
937.06	221.96
937.36	221.97
937.66	221.97
937.96	221.96
938.26	221.94
938.56	221.93
938.86	221.93
939.16	221.95
939.46	221.96
939.76	221.96
940.06	221.97
940.35	221.95
940.65	221.90
940.95	221.90
941.25	221.88
941.55	221.87
941.85	221.86
942.15	221.88
942.45	221.91
942.75	221.91
943.04	221.91
943.34	221.93
943.64	221.92
943.94	221.90
944.24	221.90
944.54	221.91
944.84	221.91
945.13	221.90
945.43	221.88
945.73	221.87
946.03	221.86
946.33	221.85
946.62	221.84
946.92	221.84
947.22	221.84
947.52	221.85
947.82	221.86
948.11	221.85
948.41	221.82
948.71	221.79
949.01	221.80
949.31	221.79
949.60	221.78
949.90	221.79
950.20	221.79
950.50	221.79
950.79	221.78
951.09	221.79
951.39	221.79
951.69	221.78
951.98	221.80
952.28	221.80
952.58	221.80
952.87	221.81
953.17	221.82
953.47	221.82
953.76	221.81
954.06	221.79
954.36	221.78
954.66	221.78
954.95	221.81
955.25	221.82
955.55	221.83
955.84	221.81
956.14	221.82
956.44	221.83
956.73	221.81
957.03	221.82
957.32	221.82
957.62	221.81
957.92	221.84
958.21	221.82
958.51	221.95
958.81	221.96
959.10	221.97
959.40	221.99
959.69	221.99
959.99	222.01
960.29	222.01
960.58	222.01
960.88	222.05
961.17	222.03
961.47	222.04
961.76	222.03
962.06	222.05
962.36	222.03
962.65	222.04
962.95	222.04
963.24	222.03
963.54	222.03
963.83	222.04
964.13	222.03
964.42	222.02
964.72	221.93
965.01	221.93
965.31	221.92
965.60	221.90
965.90	221.96
966.19	221.94
966.49	221.95
966.78	221.95
967.08	221.94
967.37	221.95
967.67	221.93
967.96	221.95
968.26	221.94
968.55	221.96
968.85	221.95
969.14	221.95
969.43	221.96
969.73	221.94
970.02	221.94
970.32	221.93
970.61	221.92
970.91	221.89
971.20	221.87
971.49	221.87
971.79	221.88
972.08	221.80
972.38	221.81
972.67	221.81
972.96	221.82
973.26	221.80
973.55	221.83
973.85	221.83
974.14	221.82
974.43	221.83
974.73	221.80
975.02	221.79
975.31	221.79
975.61	221.79
975.90	221.79
976.19	221.78
976.49	221.79
976.78	221.80
977.07	221.80
977.37	221.81
977.66	221.82
977.95	221.80
978.24	221.82
978.54	221.84
978.83	221.83
979.12	221.83
979.42	221.83
979.71	221.81
980.00	221.81
980.29	221.81
980.59	221.79
980.88	221.82
981.17	221.83
981.46	221.83
981.76	221.82
982.05	221.86
982.34	221.86
982.63	221.87
982.93	221.87
983.22	221.89
983.51	221.90
983.80	221.91
984.09	221.92
984.39	221.91
984.68	221.90
984.97	221.91
985.26	221.90
985.55	221.90
985.85	221.89
986.14	221.90
986.43	221.91
986.72	221.91
987.01	221.87
987.30	221.87
987.59	221.86
987.89	221.87
988.18	221.84
988.47	221.83
988.76	221.82
989.05	221.81
989.34	221.80
989.63	221.82
989.92	221.81
990.22	221.79
990.51	221.79
990.80	221.78
991.09	221.79
991.38	221.80
991.67	221.79
991.96	221.78
992.25	221.78
992.54	221.76
992.83	221.76
993.12	221.76
993.41	221.78
993.70	221.82
993.99	221.84
994.28	221.85
994.58	221.87
994.87	221.85
995.16	221.85
995.45	221.84
995.74	221.80
996.03	221.82
996.32	221.83
996.61	221.85
996.90	221.85
997.19	221.84
997.48	221.84
997.77	221.83
998.06	221.83
998.34	221.82
998.63	221.82
998.92	221.82
999.21	221.84
999.50	221.83
999.79	221.80
1000.08	221.79
1000.37	221.79
1000.66	221.77
1000.95	221.80
1001.24	221.81
1001.53	221.82
1001.82	221.82
1002.11	221.79
1002.40	221.80
1002.68	221.82
1002.97	221.90
1003.26	221.89
1003.55	221.87
1003.84	221.88
1004.13	221.92
1004.42	221.92
1004.71	221.91
1004.99	221.91
1005.28	221.93
1005.57	221.92
1005.86	221.91
1006.15	221.90
1006.44	221.88
1006.72	221.89
1007.01	221.88
1007.30	221.87
1007.59	221.86
1007.88	221.86
1008.17	221.86
1008.45	221.84
1008.74	221.80
1009.03	221.75
1009.32	221.75
1009.60	221.75
1009.89	221.74
1010.18	221.70
1010.47	221.69
1010.76	221.69
1011.04	221.69
1011.33	221.69
1011.62	221.70
1011.91	221.71
1012.19	221.71
1012.48	221.72
1012.77	221.71
1013.05	221.75
1013.34	221.75
1013.63	221.74
1013.92	221.75
1014.20	221.75
1014.49	221.75
1014.78	221.77
1015.06	221.73
1015.35	221.74
1015.64	221.75
1015.92	221.76
1016.21	221.77
1016.50	221.77
1016.78	221.78
1017.07	221.79
1017.36	221.77
1017.64	221.76
1017.93	221.76
1018.22	221.76
1018.50	221.76
1018.79	221.75
1019.08	221.71
1019.36	221.72
1019.65	221.71
1019.93	221.74
1020.22	221.75
1020.51	221.80
1020.79	221.79
1021.08	221.65
1021.36	221.59
1021.65	221.72
1021.94	221.66
1022.22	221.84
1022.51	221.56
1022.79	222.23
1023.08	221.84
1023.36	222.95
1023.65	221.50
>>>>>End Processed Spectral Data<<<<<
