SpectraSuite Data File
++++++++++++++++++++++++++++++++++++
Date: Thu Oct 01 06:06:26 EDT 2015
User: lab3
Dark Spectrum Present: No
Reference Spectrum Present: No
Number of Sampled Component Spectra: 1
Spectrometers: USB2E7196
Integration Time (usec): 36000 (USB2E7196)
Spectra Averaged: 10000 (USB2E7196)
Boxcar Smoothing: 10 (USB2E7196)
Correct for Electrical Dark: No (USB2E7196)
Strobe/Lamp Enabled: No (USB2E7196)
Correct for Detector Non-linearity: No (USB2E7196)
Correct for Stray Light: No (USB2E7196)
Number of Pixels in Processed Spectrum: 2048
>>>>>Begin Processed Spectral Data<<<<<
339.09	0.00
339.48	211.09
339.86	212.51
340.24	213.86
340.63	215.26
341.01	218.25
341.39	217.96
341.78	219.37
342.16	220.49
342.54	221.00
342.93	209.58
343.31	220.17
343.69	220.70
344.07	221.16
344.46	221.59
344.84	221.98
345.22	222.22
345.60	222.48
345.99	222.67
346.37	222.81
346.75	222.92
347.13	223.00
347.52	223.07
347.90	223.15
348.28	223.18
348.66	223.24
349.05	223.25
349.43	223.29
349.81	223.35
350.19	223.41
350.57	223.48
350.96	223.56
351.34	223.65
351.72	223.75
352.10	223.86
352.48	223.93
352.87	223.99
353.25	224.05
353.63	224.11
354.01	224.18
354.39	224.25
354.77	224.33
355.15	224.44
355.54	224.49
355.92	224.52
356.30	224.60
356.68	224.73
357.06	224.81
357.44	224.86
357.82	224.92
358.20	225.02
358.58	225.08
358.97	225.15
359.35	225.23
359.73	225.31
360.11	225.35
360.49	225.41
360.87	225.46
361.25	225.52
361.63	225.60
362.01	225.66
362.39	225.69
362.77	225.73
363.15	225.75
363.53	225.78
363.91	225.82
364.29	225.84
364.67	225.76
365.05	225.79
365.43	225.82
365.81	225.85
366.19	225.86
366.57	225.91
366.95	225.91
367.33	225.89
367.71	225.88
368.09	225.90
368.47	225.89
368.85	225.88
369.23	225.88
369.61	225.83
369.99	225.84
370.37	225.84
370.75	225.90
371.13	225.86
371.51	225.83
371.89	225.81
372.27	225.78
372.65	225.76
373.03	225.72
373.41	225.67
373.78	225.62
374.16	225.53
374.54	225.45
374.92	225.40
375.30	225.35
375.68	225.29
376.06	225.24
376.44	225.19
376.82	225.14
377.19	225.09
377.57	225.04
377.95	224.96
378.33	224.89
378.71	224.75
379.09	224.70
379.47	224.66
379.84	224.60
380.22	224.54
380.60	224.47
380.98	224.42
381.36	224.37
381.73	224.30
382.11	224.27
382.49	224.23
382.87	224.17
383.25	224.12
383.62	224.19
384.00	224.13
384.38	224.09
384.76	224.07
385.13	224.05
385.51	224.00
385.89	223.95
386.27	223.92
386.64	223.90
387.02	223.85
387.40	223.81
387.78	223.78
388.15	223.75
388.53	223.72
388.91	223.68
389.29	223.65
389.66	223.64
390.04	223.61
390.42	223.60
390.79	223.58
391.17	223.56
391.55	223.43
391.92	223.42
392.30	223.42
392.68	223.38
393.05	223.36
393.43	223.36
393.81	223.37
394.18	223.35
394.56	223.35
394.94	223.37
395.31	223.37
395.69	223.41
396.06	223.44
396.44	223.46
396.82	223.48
397.19	223.56
397.57	223.57
397.95	223.61
398.32	223.60
398.70	223.64
399.07	223.70
399.45	223.74
399.82	223.79
400.20	223.82
400.58	223.87
400.95	223.89
401.33	223.97
401.70	224.10
402.08	224.19
402.45	224.27
402.83	224.38
403.20	224.48
403.58	224.57
403.95	224.69
404.33	224.83
404.71	224.95
405.08	225.14
405.46	225.28
405.83	225.45
406.21	225.62
406.58	225.82
406.96	226.01
407.33	226.23
407.70	226.47
408.08	226.80
408.45	227.10
408.83	227.41
409.20	227.70
409.58	227.95
409.95	228.31
410.33	228.69
410.70	229.05
411.08	229.47
411.45	229.91
411.82	230.36
412.20	230.88
412.57	231.49
412.95	231.97
413.32	232.60
413.69	233.25
414.07	233.94
414.44	234.68
414.82	235.44
415.19	236.34
415.56	237.24
415.94	238.18
416.31	239.24
416.68	240.30
417.06	241.53
417.43	242.68
417.81	244.02
418.18	245.37
418.55	246.85
418.93	248.39
419.30	250.01
419.67	251.72
420.04	253.48
420.42	255.33
420.79	257.45
421.16	259.60
421.54	261.77
421.91	264.05
422.28	266.42
422.66	268.98
423.03	271.41
423.40	273.97
423.77	276.71
424.15	279.51
424.52	282.43
424.89	285.60
425.26	288.74
425.64	291.66
426.01	294.94
426.38	298.28
426.75	301.73
427.13	305.25
427.50	308.94
427.87	312.78
428.24	316.64
428.61	320.34
428.99	324.33
429.36	328.72
429.73	332.90
430.10	337.06
430.47	341.32
430.85	345.69
431.22	350.35
431.59	355.13
431.96	359.79
432.33	364.95
432.70	369.84
433.08	375.62
433.45	381.08
433.82	386.44
434.19	392.45
434.56	398.34
434.93	404.03
435.30	409.64
435.68	415.97
436.05	422.16
436.42	428.36
436.79	433.99
437.16	440.08
437.53	446.61
437.90	453.13
438.27	459.51
438.64	466.42
439.01	472.69
439.38	478.41
439.75	483.94
440.13	490.25
440.50	496.27
440.87	501.00
441.24	506.22
441.61	511.99
441.98	516.21
442.35	521.25
442.72	526.41
443.09	531.35
443.46	534.56
443.83	536.95
444.20	538.98
444.57	541.94
444.94	543.71
445.31	545.55
445.68	547.20
446.05	548.46
446.42	548.37
446.79	548.17
447.16	548.03
447.53	547.92
447.90	546.12
448.27	544.44
448.64	541.75
449.01	539.98
449.37	536.07
449.74	532.53
450.11	527.94
450.48	522.88
450.85	517.78
451.22	513.46
451.59	509.23
451.96	505.38
452.33	499.71
452.70	494.67
453.07	488.50
453.43	482.33
453.80	476.34
454.17	470.59
454.54	465.25
454.91	459.22
455.28	453.54
455.65	448.18
456.02	442.46
456.38	437.85
456.75	431.90
457.12	427.11
457.49	422.26
457.86	417.64
458.23	413.59
458.59	409.11
458.96	404.49
459.33	400.43
459.70	396.29
460.07	393.13
460.43	389.42
460.80	385.93
461.17	382.86
461.54	379.55
461.91	376.47
462.27	373.32
462.64	370.75
463.01	367.80
463.38	364.83
463.74	362.15
464.11	359.76
464.48	357.60
464.85	355.30
465.21	353.52
465.58	351.56
465.95	349.31
466.32	347.50
466.68	345.74
467.05	343.98
467.42	342.27
467.78	340.43
468.15	338.73
468.52	337.47
468.88	335.83
469.25	334.31
469.62	333.11
469.98	331.81
470.35	330.65
470.72	329.61
471.08	328.56
471.45	327.69
471.82	326.72
472.18	325.72
472.55	325.06
472.92	324.26
473.28	323.64
473.65	323.00
474.02	322.39
474.38	321.89
474.75	321.61
475.11	321.20
475.48	321.05
475.85	320.90
476.21	320.86
476.58	320.86
476.94	321.07
477.31	321.20
477.67	321.36
478.04	321.64
478.41	321.99
478.77	322.46
479.14	322.80
479.50	323.37
479.87	324.07
480.23	324.78
480.60	325.47
480.96	326.18
481.33	327.14
481.69	328.12
482.06	329.08
482.42	329.99
482.79	331.08
483.15	332.33
483.52	333.73
483.88	335.08
484.25	336.52
484.61	338.01
484.98	339.63
485.34	341.44
485.71	343.31
486.07	345.30
486.44	347.29
486.80	349.49
487.17	351.74
487.53	354.23
487.90	356.81
488.26	359.61
488.62	362.56
488.99	365.51
489.35	368.60
489.72	371.94
490.08	375.45
490.44	379.06
490.81	382.83
491.17	386.70
491.54	390.83
491.90	395.06
492.26	399.62
492.63	404.42
492.99	409.40
493.36	414.50
493.72	419.89
494.08	425.41
494.45	431.24
494.81	437.29
495.17	443.46
495.54	449.98
495.90	456.82
496.26	463.79
496.63	471.00
496.99	478.51
497.35	486.39
497.72	494.56
498.08	502.89
498.44	511.48
498.80	520.63
499.17	530.00
499.53	539.72
499.89	549.66
500.26	559.78
500.62	570.19
500.98	581.28
501.34	592.53
501.71	604.32
502.07	616.33
502.43	628.75
502.79	641.48
503.16	654.65
503.52	667.98
503.88	681.71
504.24	695.88
504.60	710.30
504.97	725.13
505.33	740.35
505.69	756.51
506.05	772.84
506.41	789.17
506.78	805.82
507.14	822.93
507.50	840.66
507.86	858.77
508.22	877.18
508.59	895.61
508.95	914.73
509.31	934.33
509.67	954.62
510.03	975.12
510.39	995.84
510.75	1016.80
511.12	1038.08
511.48	1059.62
511.84	1081.30
512.20	1103.30
512.56	1126.41
512.92	1149.65
513.28	1172.61
513.64	1195.92
514.00	1219.64
514.37	1243.69
514.73	1267.81
515.09	1291.70
515.45	1316.04
515.81	1340.93
516.17	1365.83
516.53	1390.44
516.89	1415.09
517.25	1439.95
517.61	1464.99
517.97	1490.22
518.33	1515.19
518.69	1540.26
519.05	1565.65
519.41	1591.15
519.77	1616.91
520.13	1641.84
520.49	1666.99
520.85	1692.37
521.21	1717.64
521.57	1743.49
521.93	1768.64
522.29	1794.59
522.65	1820.28
523.01	1845.75
523.37	1870.43
523.73	1895.82
524.09	1921.41
524.45	1946.84
524.81	1971.76
525.17	1996.59
525.53	2020.98
525.89	2045.40
526.25	2070.04
526.61	2094.15
526.97	2118.52
527.33	2142.82
527.68	2166.89
528.04	2190.20
528.40	2213.30
528.76	2236.62
529.12	2258.85
529.48	2281.45
529.84	2302.20
530.20	2323.52
530.56	2344.43
530.91	2365.46
531.27	2385.98
531.63	2405.78
531.99	2425.09
532.35	2444.10
532.71	2463.20
533.07	2482.83
533.42	2501.01
533.78	2519.48
534.14	2537.95
534.50	2555.58
534.86	2573.85
535.21	2590.27
535.57	2606.53
535.93	2622.19
536.29	2636.56
536.65	2651.85
537.00	2665.94
537.36	2680.57
537.72	2694.15
538.08	2707.35
538.44	2719.41
538.79	2731.66
539.15	2742.29
539.51	2752.86
539.87	2763.03
540.22	2770.97
540.58	2779.18
540.94	2787.78
541.29	2795.01
541.65	2801.17
542.01	2806.84
542.37	2810.63
542.72	2816.50
543.08	2821.76
543.44	2826.75
543.79	2831.02
544.15	2834.24
544.51	2837.56
544.87	2839.93
545.22	2841.95
545.58	2843.07
545.94	2844.64
546.29	2844.71
546.65	2844.79
547.01	2845.05
547.36	2845.33
547.72	2845.84
548.07	2844.86
548.43	2843.27
548.79	2840.99
549.14	2838.68
549.50	2837.14
549.86	2834.51
550.21	2829.50
550.57	2824.95
550.92	2819.10
551.28	2813.83
551.64	2808.56
551.99	2803.58
552.35	2798.22
552.70	2792.40
553.06	2787.33
553.41	2781.76
553.77	2775.58
554.13	2770.28
554.48	2763.81
554.84	2755.88
555.19	2748.12
555.55	2739.79
555.90	2732.10
556.26	2725.33
556.61	2717.95
556.97	2708.30
557.32	2699.66
557.68	2691.34
558.03	2682.41
558.39	2674.17
558.74	2665.98
559.10	2656.63
559.45	2646.87
559.81	2637.55
560.16	2627.49
560.52	2617.08
560.87	2607.72
561.23	2597.88
561.58	2587.49
561.94	2576.91
562.29	2565.83
562.64	2555.41
563.00	2545.25
563.35	2534.90
563.71	2523.63
564.06	2511.96
564.42	2501.25
564.77	2490.22
565.12	2479.25
565.48	2468.10
565.83	2457.58
566.19	2447.11
566.54	2436.14
566.89	2424.42
567.25	2412.56
567.60	2401.53
567.96	2390.02
568.31	2377.06
568.66	2364.22
569.02	2352.42
569.37	2340.33
569.72	2328.75
570.08	2316.44
570.43	2303.62
570.78	2290.48
571.14	2277.18
571.49	2264.63
571.84	2252.40
572.20	2238.90
572.55	2225.79
572.90	2212.51
573.26	2198.19
573.61	2183.38
573.96	2168.98
574.31	2154.86
574.67	2140.99
575.02	2126.73
575.37	2112.01
575.72	2097.54
576.08	2083.64
576.43	2068.67
576.78	2053.92
577.13	2039.94
577.49	2025.88
577.84	2012.21
578.19	1997.74
578.54	1982.92
578.90	1967.62
579.25	1952.02
579.60	1937.84
579.95	1923.26
580.30	1908.74
580.66	1894.59
581.01	1880.10
581.36	1865.87
581.71	1852.26
582.06	1838.06
582.42	1824.02
582.77	1810.67
583.12	1796.96
583.47	1783.36
583.82	1769.91
584.17	1756.32
584.53	1742.54
584.88	1728.85
585.23	1714.75
585.58	1701.19
585.93	1688.06
586.28	1675.76
586.63	1663.22
586.98	1649.99
587.34	1637.00
587.69	1623.52
588.04	1610.36
588.39	1597.80
588.74	1584.75
589.09	1571.45
589.44	1558.16
589.79	1545.33
590.14	1532.47
590.49	1519.83
590.84	1507.02
591.19	1494.83
591.54	1482.13
591.89	1469.30
592.25	1456.78
592.60	1443.94
592.95	1431.64
593.30	1419.66
593.65	1407.41
594.00	1395.44
594.35	1384.16
594.70	1372.18
595.05	1361.26
595.40	1350.03
595.75	1338.28
596.10	1327.35
596.45	1316.64
596.80	1306.39
597.15	1295.95
597.50	1285.47
597.85	1275.21
598.19	1265.13
598.54	1254.45
598.89	1244.55
599.24	1234.90
599.59	1225.09
599.94	1216.28
600.29	1207.32
600.64	1198.13
600.99	1188.34
601.34	1179.03
601.69	1169.18
602.04	1160.35
602.39	1151.36
602.74	1142.64
603.08	1134.15
603.43	1125.17
603.78	1116.11
604.13	1107.15
604.48	1098.16
604.83	1089.43
605.18	1080.61
605.53	1071.71
605.87	1062.96
606.22	1054.43
606.57	1045.68
606.92	1037.02
607.27	1028.17
607.62	1019.45
607.96	1010.90
608.31	1003.40
608.66	995.44
609.01	987.91
609.36	980.32
609.70	972.48
610.05	964.51
610.40	956.88
610.75	949.32
611.10	942.04
611.44	934.42
611.79	927.06
612.14	919.33
612.49	911.79
612.83	904.71
613.18	897.66
613.53	890.42
613.88	883.30
614.22	876.75
614.57	870.03
614.92	863.32
615.27	856.62
615.61	849.75
615.96	843.11
616.31	836.41
616.65	829.60
617.00	823.03
617.35	816.64
617.70	810.24
618.04	803.94
618.39	797.63
618.74	791.66
619.08	785.52
619.43	779.63
619.78	773.72
620.12	767.65
620.47	761.76
620.82	756.01
621.16	750.50
621.51	744.65
621.85	738.80
622.20	733.00
622.55	727.40
622.89	721.73
623.24	716.14
623.59	710.57
623.93	705.08
624.28	699.74
624.62	694.36
624.97	688.98
625.32	683.70
625.66	678.29
626.01	672.86
626.35	667.59
626.70	662.35
627.04	657.33
627.39	652.33
627.73	647.47
628.08	642.79
628.43	638.02
628.77	633.29
629.12	628.71
629.46	624.28
629.81	619.66
630.15	614.95
630.50	610.40
630.84	606.07
631.19	601.91
631.53	597.76
631.88	593.53
632.22	589.38
632.57	585.48
632.91	581.52
633.26	577.63
633.60	573.83
633.95	570.12
634.29	566.28
634.64	562.40
634.98	558.44
635.32	554.63
635.67	550.93
636.01	547.21
636.36	543.52
636.70	539.97
637.05	536.44
637.39	533.10
637.73	529.61
638.08	526.17
638.42	522.71
638.77	519.14
639.11	515.54
639.45	512.01
639.80	508.46
640.14	505.11
640.49	501.71
640.83	498.17
641.17	494.72
641.52	491.41
641.86	488.09
642.20	484.95
642.55	481.65
642.89	478.46
643.23	475.44
643.58	472.65
643.92	469.75
644.26	466.86
644.61	463.95
644.95	461.07
645.29	458.14
645.64	455.18
645.98	452.36
646.32	449.73
646.66	447.09
647.01	444.42
647.35	441.79
647.69	439.06
648.04	436.51
648.38	433.96
648.72	431.37
649.06	428.88
649.41	426.38
649.75	423.88
650.09	421.42
650.43	418.97
650.78	416.48
651.12	413.98
651.46	411.60
651.80	409.31
652.14	407.10
652.49	404.89
652.83	402.75
653.17	400.57
653.51	398.46
653.85	396.41
654.20	394.30
654.54	392.13
654.88	390.15
655.22	388.21
655.56	386.23
655.90	384.36
656.25	382.47
656.59	380.62
656.93	378.85
657.27	377.12
657.61	375.28
657.95	373.52
658.29	371.77
658.64	370.03
658.98	368.29
659.32	366.56
659.66	364.94
660.00	363.33
660.34	361.76
660.68	360.13
661.02	358.44
661.36	356.87
661.70	355.36
662.05	353.81
662.39	352.27
662.73	350.82
663.07	349.38
663.41	347.98
663.75	346.59
664.09	345.20
664.43	343.73
664.77	342.37
665.11	340.95
665.45	339.61
665.79	338.26
666.13	336.90
666.47	335.54
666.81	334.14
667.15	332.72
667.49	331.40
667.83	330.13
668.17	328.89
668.51	327.68
668.85	326.48
669.19	325.36
669.53	324.16
669.87	322.94
670.21	321.75
670.55	320.58
670.89	319.48
671.23	318.36
671.57	317.24
671.91	316.18
672.25	315.18
672.58	314.15
672.92	313.11
673.26	312.13
673.60	311.15
673.94	310.17
674.28	309.24
674.62	308.30
674.96	307.33
675.30	306.43
675.64	305.49
675.97	304.57
676.31	303.61
676.65	302.68
676.99	301.81
677.33	300.89
677.67	300.02
678.01	299.06
678.34	298.19
678.68	297.37
679.02	296.51
679.36	295.66
679.70	294.82
680.04	294.01
680.37	293.19
680.71	292.40
681.05	291.66
681.39	290.87
681.73	290.05
682.06	289.27
682.40	288.51
682.74	287.77
683.08	287.05
683.42	286.32
683.75	285.65
684.09	284.91
684.43	284.22
684.77	283.51
685.10	282.84
685.44	282.16
685.78	281.47
686.12	280.83
686.45	280.16
686.79	279.51
687.13	278.87
687.46	278.21
687.80	277.57
688.14	276.88
688.48	276.26
688.81	275.64
689.15	275.07
689.49	274.45
689.82	273.85
690.16	273.19
690.50	272.60
690.83	272.00
691.17	271.42
691.51	270.86
691.84	270.31
692.18	269.74
692.52	269.15
692.85	268.58
693.19	268.05
693.52	267.51
693.86	266.97
694.20	266.44
694.53	265.94
694.87	265.42
695.21	264.93
695.54	264.43
695.88	263.93
696.21	263.38
696.55	262.90
696.88	262.41
697.22	261.94
697.56	261.46
697.89	260.94
698.23	260.45
698.56	259.95
698.90	259.50
699.23	259.03
699.57	258.60
699.90	258.16
700.24	257.68
700.58	257.25
700.91	256.85
701.25	256.52
701.58	256.14
701.92	255.76
702.25	255.36
702.59	254.95
702.92	254.57
703.26	254.19
703.59	253.80
703.93	253.50
704.26	253.14
704.60	252.78
704.93	252.43
705.26	252.08
705.60	251.76
705.93	251.40
706.27	251.10
706.60	250.78
706.94	250.48
707.27	250.12
707.61	249.78
707.94	249.43
708.27	249.01
708.61	248.64
708.94	248.29
709.28	247.98
709.61	247.66
709.94	247.37
710.28	247.09
710.61	246.81
710.95	246.44
711.28	246.22
711.61	245.94
711.95	245.69
712.28	245.42
712.61	245.13
712.95	244.92
713.28	244.70
713.61	244.42
713.95	244.14
714.28	243.92
714.61	243.67
714.95	243.43
715.28	243.18
715.61	242.95
715.95	242.72
716.28	242.49
716.61	242.28
716.95	242.05
717.28	241.83
717.61	241.59
717.94	241.38
718.28	241.09
718.61	240.88
718.94	240.65
719.27	240.45
719.61	240.26
719.94	240.04
720.27	239.78
720.60	239.59
720.94	239.40
721.27	239.21
721.60	239.05
721.93	238.87
722.27	238.72
722.60	238.56
722.93	238.37
723.26	238.21
723.59	238.01
723.93	237.86
724.26	237.70
724.59	237.53
724.92	237.38
725.25	237.26
725.59	237.10
725.92	236.96
726.25	236.81
726.58	236.66
726.91	236.50
727.24	236.37
727.57	236.23
727.91	236.07
728.24	235.94
728.57	235.78
728.90	235.65
729.23	235.47
729.56	235.38
729.89	235.24
730.22	235.10
730.55	234.97
730.89	234.83
731.22	234.69
731.55	234.56
731.88	234.43
732.21	234.29
732.54	234.17
732.87	234.04
733.20	233.94
733.53	233.82
733.86	233.72
734.19	233.59
734.52	233.49
734.85	233.45
735.18	233.32
735.51	233.25
735.84	233.14
736.17	233.06
736.50	232.90
736.83	232.93
737.16	232.83
737.49	232.74
737.82	232.64
738.15	232.56
738.48	232.47
738.81	232.37
739.14	232.27
739.47	232.16
739.80	232.06
740.13	231.97
740.46	231.86
740.79	231.75
741.12	231.66
741.45	231.54
741.78	231.40
742.11	231.34
742.44	231.23
742.77	231.16
743.10	231.05
743.43	230.97
743.75	230.77
744.08	230.84
744.41	230.74
744.74	230.65
745.07	230.55
745.40	230.49
745.73	230.45
746.06	230.38
746.39	230.32
746.71	230.24
747.04	230.15
747.37	230.09
747.70	230.04
748.03	229.97
748.36	229.92
748.68	229.85
749.01	229.75
749.34	229.68
749.67	229.61
750.00	229.56
750.33	229.57
750.65	229.52
750.98	229.30
751.31	229.24
751.64	229.18
751.97	229.17
752.29	229.10
752.62	228.99
752.95	228.92
753.28	228.84
753.60	228.78
753.93	228.74
754.26	228.68
754.59	228.59
754.91	228.52
755.24	228.44
755.57	228.43
755.90	228.36
756.22	228.30
756.55	228.22
756.88	228.14
757.20	228.01
757.53	227.93
757.86	227.87
758.19	227.82
758.51	227.77
758.84	227.66
759.17	227.60
759.49	227.56
759.82	227.56
760.15	227.51
760.47	227.46
760.80	227.39
761.13	227.36
761.45	227.32
761.78	227.27
762.11	227.24
762.43	227.14
762.76	227.09
763.08	227.06
763.41	227.03
763.74	226.99
764.06	226.95
764.39	226.91
764.71	226.86
765.04	226.81
765.37	226.76
765.69	226.73
766.02	226.68
766.34	226.64
766.67	226.56
767.00	226.54
767.32	226.56
767.65	226.58
767.97	226.53
768.30	226.50
768.62	226.46
768.95	226.41
769.27	226.37
769.60	226.34
769.92	226.29
770.25	226.24
770.57	226.18
770.90	226.15
771.22	226.10
771.55	226.07
771.87	226.05
772.20	226.01
772.52	226.07
772.85	226.16
773.17	226.14
773.50	226.10
773.82	226.05
774.15	225.97
774.47	225.87
774.80	225.84
775.12	225.81
775.45	225.78
775.77	225.76
776.09	225.74
776.42	225.72
776.74	225.73
777.07	225.70
777.39	225.68
777.72	225.65
778.04	225.64
778.36	225.61
778.69	225.58
779.01	225.57
779.33	225.46
779.66	225.32
779.98	225.28
780.31	225.26
780.63	225.29
780.95	225.29
781.28	225.27
781.60	225.24
781.92	225.22
782.25	225.20
782.57	225.18
782.89	225.15
783.22	225.13
783.54	225.08
783.86	225.07
784.19	225.05
784.51	225.06
784.83	225.03
785.16	225.00
785.48	224.99
785.80	224.97
786.12	224.96
786.45	224.94
786.77	224.93
787.09	224.91
787.42	224.85
787.74	224.83
788.06	224.82
788.38	224.80
788.71	224.78
789.03	224.77
789.35	224.77
789.67	224.74
789.99	224.73
790.32	224.70
790.64	224.70
790.96	224.78
791.28	224.73
791.61	224.71
791.93	224.70
792.25	224.68
792.57	224.74
792.89	224.71
793.21	224.71
793.54	224.68
793.86	224.65
794.18	224.65
794.50	224.61
794.82	224.60
795.14	224.60
795.47	224.60
795.79	224.59
796.11	224.56
796.43	224.54
796.75	224.53
797.07	224.53
797.39	224.51
797.71	224.41
798.04	224.40
798.36	224.40
798.68	224.38
799.00	224.38
799.32	224.32
799.64	224.33
799.96	224.32
800.28	224.33
800.60	224.32
800.92	224.32
801.24	224.30
801.56	224.30
801.89	224.28
802.21	224.27
802.53	224.25
802.85	224.26
803.17	224.31
803.49	224.28
803.81	224.26
804.13	224.25
804.45	224.22
804.77	224.22
805.09	224.21
805.41	224.20
805.73	224.16
806.05	224.12
806.37	224.10
806.69	224.08
807.01	224.06
807.33	224.06
807.65	224.01
807.97	224.05
808.28	224.03
808.60	224.02
808.92	223.99
809.24	224.05
809.56	224.02
809.88	223.97
810.20	223.96
810.52	223.98
810.84	223.95
811.16	223.94
811.48	223.92
811.80	223.95
812.12	223.94
812.43	223.96
812.75	223.96
813.07	223.94
813.39	223.94
813.71	223.92
814.03	223.91
814.35	223.91
814.67	223.86
814.98	223.84
815.30	223.84
815.62	223.81
815.94	223.74
816.26	223.75
816.58	223.73
816.89	223.73
817.21	223.70
817.53	223.70
817.85	223.70
818.17	223.69
818.48	223.65
818.80	223.66
819.12	223.64
819.44	223.62
819.76	223.60
820.07	223.59
820.39	223.59
820.71	223.59
821.03	223.59
821.34	223.57
821.66	223.59
821.98	223.59
822.30	223.58
822.61	223.64
822.93	223.62
823.25	223.62
823.57	223.60
823.88	223.61
824.20	223.60
824.52	223.62
824.83	223.61
825.15	223.59
825.47	223.58
825.79	223.58
826.10	223.57
826.42	223.57
826.74	223.57
827.05	223.57
827.37	223.57
827.69	223.56
828.00	223.56
828.32	223.56
828.64	223.54
828.95	223.59
829.27	223.56
829.58	223.56
829.90	223.57
830.22	223.58
830.53	223.55
830.85	223.54
831.17	223.51
831.48	223.51
831.80	223.51
832.11	223.50
832.43	223.49
832.75	223.49
833.06	223.55
833.38	223.52
833.69	223.51
834.01	223.51
834.32	223.50
834.64	223.49
834.96	223.49
835.27	223.48
835.59	223.44
835.90	223.43
836.22	223.42
836.53	223.40
836.85	223.38
837.16	223.49
837.48	223.49
837.79	223.52
838.11	223.52
838.42	223.52
838.74	223.53
839.05	223.53
839.37	223.52
839.68	223.46
840.00	223.45
840.31	223.46
840.63	223.45
840.94	223.45
841.26	223.43
841.57	223.42
841.88	223.43
842.20	223.41
842.51	223.39
842.83	223.39
843.14	223.48
843.46	223.48
843.77	223.41
844.08	223.40
844.40	223.37
844.71	223.36
845.03	223.35
845.34	223.33
845.65	223.33
845.97	223.33
846.28	223.33
846.60	223.33
846.91	223.32
847.22	223.31
847.54	223.33
847.85	223.34
848.16	223.33
848.48	223.32
848.79	223.36
849.10	223.37
849.42	223.38
849.73	223.28
850.04	223.28
850.36	223.24
850.67	223.26
850.98	223.26
851.30	223.27
851.61	223.26
851.92	223.26
852.23	223.29
852.55	223.30
852.86	223.30
853.17	223.30
853.49	223.32
853.80	223.34
854.11	223.34
854.42	223.35
854.74	223.34
855.05	223.34
855.36	223.29
855.67	223.29
855.99	223.29
856.30	223.41
856.61	223.40
856.92	223.40
857.23	223.41
857.55	223.39
857.86	223.38
858.17	223.40
858.48	223.39
858.79	223.36
859.11	223.37
859.42	223.36
859.73	223.35
860.04	223.34
860.35	223.31
860.66	223.28
860.98	223.27
861.29	223.29
861.60	223.28
861.91	223.30
862.22	223.29
862.53	223.27
862.84	223.15
863.16	223.17
863.47	223.15
863.78	223.13
864.09	223.14
864.40	223.15
864.71	223.14
865.02	223.16
865.33	223.15
865.64	223.12
865.95	223.12
866.27	223.19
866.58	223.17
866.89	223.18
867.20	223.18
867.51	223.16
867.82	223.16
868.13	223.19
868.44	223.17
868.75	223.18
869.06	223.19
869.37	223.20
869.68	223.18
869.99	223.20
870.30	223.20
870.61	223.21
870.92	223.19
871.23	223.18
871.54	223.19
871.85	223.22
872.16	223.23
872.47	223.22
872.78	223.17
873.09	223.18
873.40	223.17
873.71	223.18
874.02	223.19
874.33	223.18
874.64	223.15
874.95	223.17
875.26	223.15
875.56	223.14
875.87	223.13
876.18	223.13
876.49	223.23
876.80	223.22
877.11	223.20
877.42	223.20
877.73	223.21
878.04	223.19
878.35	223.19
878.66	223.19
878.96	223.19
879.27	223.18
879.58	223.17
879.89	223.17
880.20	223.19
880.51	223.18
880.82	223.19
881.12	223.19
881.43	223.17
881.74	223.16
882.05	223.15
882.36	223.15
882.67	223.16
882.97	223.05
883.28	223.04
883.59	223.04
883.90	223.05
884.21	223.06
884.51	223.06
884.82	223.04
885.13	223.04
885.44	223.04
885.74	223.04
886.05	223.03
886.36	223.03
886.67	222.99
886.98	223.04
887.28	223.05
887.59	223.05
887.90	223.05
888.20	223.05
888.51	223.07
888.82	223.05
889.13	223.06
889.43	223.14
889.74	223.14
890.05	223.14
890.35	223.12
890.66	223.10
890.97	223.09
891.28	223.09
891.58	223.09
891.89	223.09
892.20	223.07
892.50	223.06
892.81	223.05
893.12	223.05
893.42	223.00
893.73	223.00
894.04	223.00
894.34	223.01
894.65	223.01
894.95	223.00
895.26	223.00
895.57	223.04
895.87	222.94
896.18	222.95
896.48	222.96
896.79	222.96
897.10	222.97
897.40	222.98
897.71	222.99
898.01	222.98
898.32	222.99
898.63	222.99
898.93	223.00
899.24	223.01
899.54	223.00
899.85	223.00
900.15	222.99
900.46	222.99
900.76	223.00
901.07	222.99
901.38	222.99
901.68	223.00
901.99	222.95
902.29	222.96
902.60	222.95
902.90	222.93
903.21	222.93
903.51	222.92
903.82	222.94
904.12	222.94
904.43	222.95
904.73	222.94
905.03	222.94
905.34	223.04
905.64	223.03
905.95	223.03
906.25	223.02
906.56	223.02
906.86	223.02
907.17	223.01
907.47	223.01
907.77	223.00
908.08	222.98
908.38	222.99
908.69	223.00
908.99	223.01
909.30	223.02
909.60	223.02
909.90	223.03
910.21	223.00
910.51	222.98
910.81	222.98
911.12	222.99
911.42	222.99
911.73	222.88
912.03	222.89
912.33	222.92
912.64	222.91
912.94	222.89
913.24	222.88
913.55	222.87
913.85	222.87
914.15	222.89
914.46	222.90
914.76	222.89
915.06	222.89
915.37	222.87
915.67	222.86
915.97	222.86
916.27	222.84
916.58	222.85
916.88	222.86
917.18	222.84
917.49	222.91
917.79	222.91
918.09	222.93
918.39	222.95
918.70	222.94
919.00	222.95
919.30	223.00
919.60	222.99
919.91	222.98
920.21	222.99
920.51	222.96
920.81	222.96
921.12	222.97
921.42	222.97
921.72	222.97
922.02	222.98
922.32	222.99
922.63	223.00
922.93	223.05
923.23	223.06
923.53	223.05
923.83	222.98
924.13	222.99
924.44	222.98
924.74	222.99
925.04	223.02
925.34	223.01
925.64	222.97
925.94	222.97
926.24	223.03
926.55	223.02
926.85	223.03
927.15	223.03
927.45	223.03
927.75	223.03
928.05	223.03
928.35	223.02
928.65	223.03
928.95	223.04
929.26	222.99
929.56	223.01
929.86	223.02
930.16	223.01
930.46	223.01
930.76	223.01
931.06	222.96
931.36	222.93
931.66	222.94
931.96	222.96
932.26	222.96
932.56	222.91
932.86	222.92
933.16	222.92
933.46	222.91
933.76	222.89
934.06	222.91
934.36	222.94
934.66	222.93
934.96	222.92
935.26	222.92
935.56	222.93
935.86	222.90
936.16	222.89
936.46	222.88
936.76	222.87
937.06	222.86
937.36	222.87
937.66	222.87
937.96	222.87
938.26	222.84
938.56	222.84
938.86	222.84
939.16	222.87
939.46	222.87
939.76	222.88
940.06	222.88
940.35	222.86
940.65	222.82
940.95	222.82
941.25	222.80
941.55	222.79
941.85	222.78
942.15	222.80
942.45	222.82
942.75	222.82
943.04	222.83
943.34	222.85
943.64	222.84
943.94	222.82
944.24	222.82
944.54	222.83
944.84	222.82
945.13	222.81
945.43	222.78
945.73	222.78
946.03	222.77
946.33	222.76
946.62	222.75
946.92	222.75
947.22	222.76
947.52	222.77
947.82	222.78
948.11	222.77
948.41	222.75
948.71	222.72
949.01	222.72
949.31	222.71
949.60	222.70
949.90	222.72
950.20	222.72
950.50	222.72
950.79	222.71
951.09	222.73
951.39	222.73
951.69	222.72
951.98	222.74
952.28	222.75
952.58	222.74
952.87	222.74
953.17	222.76
953.47	222.74
953.76	222.74
954.06	222.72
954.36	222.71
954.66	222.71
954.95	222.75
955.25	222.75
955.55	222.76
955.84	222.75
956.14	222.75
956.44	222.76
956.73	222.75
957.03	222.75
957.32	222.75
957.62	222.74
957.92	222.77
958.21	222.76
958.51	222.88
958.81	222.89
959.10	222.89
959.40	222.91
959.69	222.92
959.99	222.94
960.29	222.94
960.58	222.94
960.88	222.98
961.17	222.96
961.47	222.97
961.76	222.96
962.06	222.98
962.36	222.97
962.65	222.98
962.95	222.98
963.24	222.97
963.54	222.98
963.83	222.99
964.13	222.98
964.42	222.97
964.72	222.88
965.01	222.88
965.31	222.87
965.60	222.85
965.90	222.91
966.19	222.89
966.49	222.89
966.78	222.89
967.08	222.88
967.37	222.89
967.67	222.87
967.96	222.89
968.26	222.88
968.55	222.89
968.85	222.89
969.14	222.88
969.43	222.89
969.73	222.87
970.02	222.86
970.32	222.85
970.61	222.84
970.91	222.81
971.20	222.79
971.49	222.79
971.79	222.80
972.08	222.72
972.38	222.73
972.67	222.73
972.96	222.74
973.26	222.72
973.55	222.75
973.85	222.75
974.14	222.73
974.43	222.74
974.73	222.72
975.02	222.71
975.31	222.71
975.61	222.71
975.90	222.70
976.19	222.70
976.49	222.71
976.78	222.72
977.07	222.72
977.37	222.73
977.66	222.74
977.95	222.72
978.24	222.74
978.54	222.76
978.83	222.75
979.12	222.74
979.42	222.74
979.71	222.72
980.00	222.72
980.29	222.72
980.59	222.70
980.88	222.73
981.17	222.73
981.46	222.73
981.76	222.72
982.05	222.76
982.34	222.76
982.63	222.76
982.93	222.76
983.22	222.79
983.51	222.79
983.80	222.80
984.09	222.82
984.39	222.81
984.68	222.79
984.97	222.80
985.26	222.79
985.55	222.80
985.85	222.77
986.14	222.79
986.43	222.80
986.72	222.80
987.01	222.76
987.30	222.77
987.59	222.76
987.89	222.77
988.18	222.73
988.47	222.73
988.76	222.72
989.05	222.71
989.34	222.69
989.63	222.72
989.92	222.70
990.22	222.68
990.51	222.68
990.80	222.67
991.09	222.68
991.38	222.69
991.67	222.68
991.96	222.68
992.25	222.68
992.54	222.66
992.83	222.66
993.12	222.66
993.41	222.67
993.70	222.71
993.99	222.73
994.28	222.74
994.58	222.75
994.87	222.74
995.16	222.74
995.45	222.73
995.74	222.70
996.03	222.71
996.32	222.73
996.61	222.75
996.90	222.75
997.19	222.74
997.48	222.74
997.77	222.73
998.06	222.74
998.34	222.73
998.63	222.73
998.92	222.74
999.21	222.75
999.50	222.75
999.79	222.72
1000.08	222.71
1000.37	222.71
1000.66	222.69
1000.95	222.72
1001.24	222.73
1001.53	222.74
1001.82	222.74
1002.11	222.72
1002.40	222.72
1002.68	222.75
1002.97	222.81
1003.26	222.80
1003.55	222.79
1003.84	222.80
1004.13	222.83
1004.42	222.82
1004.71	222.83
1004.99	222.82
1005.28	222.84
1005.57	222.83
1005.86	222.82
1006.15	222.82
1006.44	222.80
1006.72	222.81
1007.01	222.79
1007.30	222.79
1007.59	222.78
1007.88	222.78
1008.17	222.78
1008.45	222.76
1008.74	222.72
1009.03	222.67
1009.32	222.67
1009.60	222.68
1009.89	222.66
1010.18	222.62
1010.47	222.61
1010.76	222.61
1011.04	222.61
1011.33	222.60
1011.62	222.61
1011.91	222.62
1012.19	222.62
1012.48	222.63
1012.77	222.63
1013.05	222.66
1013.34	222.66
1013.63	222.66
1013.92	222.66
1014.20	222.66
1014.49	222.66
1014.78	222.67
1015.06	222.64
1015.35	222.64
1015.64	222.65
1015.92	222.67
1016.21	222.68
1016.50	222.68
1016.78	222.69
1017.07	222.70
1017.36	222.68
1017.64	222.67
1017.93	222.68
1018.22	222.67
1018.50	222.67
1018.79	222.66
1019.08	222.63
1019.36	222.63
1019.65	222.62
1019.93	222.65
1020.22	222.67
1020.51	222.72
1020.79	222.70
1021.08	222.52
1021.36	222.51
1021.65	222.66
1021.94	222.65
1022.22	222.70
1022.51	222.43
1022.79	223.16
1023.08	222.77
1023.36	223.86
1023.65	222.42
>>>>>End Processed Spectral Data<<<<<
