SpectraSuite Data File
++++++++++++++++++++++++++++++++++++
Date: Thu Oct 01 14:05:40 EDT 2015
User: lab3
Dark Spectrum Present: No
Reference Spectrum Present: No
Number of Sampled Component Spectra: 1
Spectrometers: USB2E7196
Integration Time (usec): 36000 (USB2E7196)
Spectra Averaged: 10000 (USB2E7196)
Boxcar Smoothing: 10 (USB2E7196)
Correct for Electrical Dark: No (USB2E7196)
Strobe/Lamp Enabled: No (USB2E7196)
Correct for Detector Non-linearity: No (USB2E7196)
Correct for Stray Light: No (USB2E7196)
Number of Pixels in Processed Spectrum: 2048
>>>>>Begin Processed Spectral Data<<<<<
339.09	0.00
339.48	211.46
339.86	212.89
340.24	214.29
340.63	215.68
341.01	218.64
341.39	218.42
341.78	219.75
342.16	220.95
342.54	221.48
342.93	209.97
343.31	220.57
343.69	221.11
344.07	221.57
344.46	222.00
344.84	222.39
345.22	222.63
345.60	222.89
345.99	223.08
346.37	223.22
346.75	223.33
347.13	223.41
347.52	223.47
347.90	223.56
348.28	223.60
348.66	223.65
349.05	223.65
349.43	223.70
349.81	223.76
350.19	223.81
350.57	223.88
350.96	223.96
351.34	224.06
351.72	224.16
352.10	224.27
352.48	224.34
352.87	224.39
353.25	224.46
353.63	224.52
354.01	224.59
354.39	224.67
354.77	224.74
355.15	224.84
355.54	224.90
355.92	224.93
356.30	225.01
356.68	225.16
357.06	225.23
357.44	225.28
357.82	225.35
358.20	225.46
358.58	225.52
358.97	225.59
359.35	225.67
359.73	225.75
360.11	225.80
360.49	225.86
360.87	225.91
361.25	225.97
361.63	226.05
362.01	226.11
362.39	226.14
362.77	226.19
363.15	226.21
363.53	226.25
363.91	226.29
364.29	226.31
364.67	226.23
365.05	226.26
365.43	226.29
365.81	226.33
366.19	226.34
366.57	226.39
366.95	226.39
367.33	226.37
367.71	226.36
368.09	226.38
368.47	226.38
368.85	226.37
369.23	226.38
369.61	226.32
369.99	226.34
370.37	226.33
370.75	226.39
371.13	226.36
371.51	226.32
371.89	226.30
372.27	226.27
372.65	226.24
373.03	226.21
373.41	226.16
373.78	226.10
374.16	226.01
374.54	225.94
374.92	225.89
375.30	225.85
375.68	225.78
376.06	225.73
376.44	225.68
376.82	225.63
377.19	225.58
377.57	225.53
377.95	225.44
378.33	225.38
378.71	225.24
379.09	225.19
379.47	225.16
379.84	225.09
380.22	225.03
380.60	224.96
380.98	224.90
381.36	224.85
381.73	224.79
382.11	224.76
382.49	224.71
382.87	224.65
383.25	224.60
383.62	224.67
384.00	224.61
384.38	224.57
384.76	224.55
385.13	224.54
385.51	224.50
385.89	224.44
386.27	224.41
386.64	224.38
387.02	224.33
387.40	224.29
387.78	224.27
388.15	224.24
388.53	224.21
388.91	224.18
389.29	224.14
389.66	224.13
390.04	224.09
390.42	224.09
390.79	224.07
391.17	224.05
391.55	223.92
391.92	223.90
392.30	223.90
392.68	223.86
393.05	223.84
393.43	223.84
393.81	223.84
394.18	223.82
394.56	223.82
394.94	223.85
395.31	223.84
395.69	223.88
396.06	223.91
396.44	223.93
396.82	223.94
397.19	224.02
397.57	224.03
397.95	224.07
398.32	224.07
398.70	224.11
399.07	224.17
399.45	224.20
399.82	224.25
400.20	224.28
400.58	224.34
400.95	224.36
401.33	224.44
401.70	224.57
402.08	224.67
402.45	224.75
402.83	224.86
403.20	224.96
403.58	225.05
403.95	225.17
404.33	225.30
404.71	225.43
405.08	225.62
405.46	225.77
405.83	225.93
406.21	226.11
406.58	226.31
406.96	226.50
407.33	226.73
407.70	226.97
408.08	227.31
408.45	227.60
408.83	227.93
409.20	228.22
409.58	228.48
409.95	228.84
410.33	229.23
410.70	229.60
411.08	230.03
411.45	230.49
411.82	230.95
412.20	231.48
412.57	232.11
412.95	232.61
413.32	233.27
413.69	233.93
414.07	234.64
414.44	235.41
414.82	236.19
415.19	237.11
415.56	238.05
415.94	239.02
416.31	240.11
416.68	241.21
417.06	242.48
417.43	243.66
417.81	245.03
418.18	246.43
418.55	247.96
418.93	249.55
419.30	251.21
419.67	252.98
420.04	254.80
420.42	256.70
420.79	258.89
421.16	261.10
421.54	263.35
421.91	265.70
422.28	268.15
422.66	270.78
423.03	273.29
423.40	275.93
423.77	278.76
424.15	281.65
424.52	284.66
424.89	287.92
425.26	291.17
425.64	294.17
426.01	297.55
426.38	300.99
426.75	304.53
427.13	308.17
427.50	311.97
427.87	315.91
428.24	319.89
428.61	323.70
428.99	327.81
429.36	332.31
429.73	336.61
430.10	340.90
430.47	345.27
430.85	349.77
431.22	354.57
431.59	359.48
431.96	364.27
432.33	369.58
432.70	374.60
433.08	380.55
433.45	386.17
433.82	391.70
434.19	397.88
434.56	403.96
434.93	409.81
435.30	415.60
435.68	422.13
436.05	428.52
436.42	434.91
436.79	440.72
437.16	447.01
437.53	453.75
437.90	460.49
438.27	467.08
438.64	474.22
439.01	480.69
439.38	486.61
439.75	492.34
440.13	498.88
440.50	505.11
440.87	510.03
441.24	515.44
441.61	521.41
441.98	525.79
442.35	531.02
442.72	536.37
443.09	541.50
443.46	544.84
443.83	547.33
444.20	549.43
444.57	552.50
444.94	554.36
445.31	556.27
445.68	557.97
446.05	559.27
446.42	559.19
446.79	558.97
447.16	558.82
447.53	558.69
447.90	556.83
448.27	555.08
448.64	552.27
449.01	550.42
449.37	546.36
449.74	542.67
450.11	537.90
450.48	532.64
450.85	527.35
451.22	522.85
451.59	518.45
451.96	514.44
452.33	508.55
452.70	503.30
453.07	496.90
453.43	490.50
453.80	484.29
454.17	478.32
454.54	472.79
454.91	466.53
455.28	460.64
455.65	455.07
456.02	449.13
456.38	444.36
456.75	438.21
457.12	433.24
457.49	428.22
457.86	423.43
458.23	419.22
458.59	414.58
458.96	409.81
459.33	405.59
459.70	401.30
460.07	398.03
460.43	394.18
460.80	390.59
461.17	387.41
461.54	383.99
461.91	380.80
462.27	377.54
462.64	374.89
463.01	371.85
463.38	368.79
463.74	366.03
464.11	363.57
464.48	361.34
464.85	358.96
465.21	357.13
465.58	355.12
465.95	352.81
466.32	350.95
466.68	349.15
467.05	347.34
467.42	345.59
467.78	343.71
468.15	341.96
468.52	340.67
468.88	338.99
469.25	337.45
469.62	336.22
469.98	334.89
470.35	333.71
470.72	332.66
471.08	331.59
471.45	330.70
471.82	329.72
472.18	328.70
472.55	328.04
472.92	327.22
473.28	326.59
473.65	325.94
474.02	325.33
474.38	324.83
474.75	324.55
475.11	324.14
475.48	324.00
475.85	323.85
476.21	323.81
476.58	323.83
476.94	324.04
477.31	324.19
477.67	324.36
478.04	324.65
478.41	325.01
478.77	325.48
479.14	325.84
479.50	326.42
479.87	327.15
480.23	327.87
480.60	328.58
480.96	329.30
481.33	330.29
481.69	331.29
482.06	332.27
482.42	333.20
482.79	334.31
483.15	335.59
483.52	337.00
483.88	338.39
484.25	339.85
484.61	341.37
484.98	343.02
485.34	344.86
485.71	346.76
486.07	348.80
486.44	350.82
486.80	353.07
487.17	355.37
487.53	357.90
487.90	360.53
488.26	363.38
488.62	366.39
488.99	369.41
489.35	372.55
489.72	375.95
490.08	379.53
490.44	383.22
490.81	387.06
491.17	391.01
491.54	395.21
491.90	399.51
492.26	404.17
492.63	409.06
492.99	414.13
493.36	419.33
493.72	424.80
494.08	430.43
494.45	436.37
494.81	442.53
495.17	448.83
495.54	455.47
495.90	462.42
496.26	469.52
496.63	476.87
496.99	484.53
497.35	492.56
497.72	500.89
498.08	509.35
498.44	518.10
498.80	527.42
499.17	536.97
499.53	546.87
499.89	556.98
500.26	567.29
500.62	577.90
500.98	589.21
501.34	600.67
501.71	612.69
502.07	624.92
502.43	637.56
502.79	650.52
503.16	663.92
503.52	677.52
503.88	691.50
504.24	705.91
504.60	720.57
504.97	735.66
505.33	751.16
505.69	767.61
506.05	784.25
506.41	800.86
506.78	817.80
507.14	835.21
507.50	853.23
507.86	871.66
508.22	890.39
508.59	909.13
508.95	928.58
509.31	948.48
509.67	969.12
510.03	989.95
510.39	1011.02
510.75	1032.30
511.12	1053.90
511.48	1075.75
511.84	1097.75
512.20	1120.10
512.56	1143.56
512.92	1167.13
513.28	1190.39
513.64	1214.00
514.00	1238.07
514.37	1262.41
514.73	1286.84
515.09	1311.03
515.45	1335.67
515.81	1360.84
516.17	1386.03
516.53	1410.91
516.89	1435.82
517.25	1460.93
517.61	1486.22
517.97	1511.71
518.33	1536.93
518.69	1562.23
519.05	1587.85
519.41	1613.58
519.77	1639.53
520.13	1664.63
520.49	1689.97
520.85	1715.55
521.21	1741.00
521.57	1766.99
521.93	1792.29
522.29	1818.36
522.65	1844.17
523.01	1869.73
523.37	1894.50
523.73	1919.95
524.09	1945.62
524.45	1971.16
524.81	1996.14
525.17	2021.04
525.53	2045.44
525.89	2069.84
526.25	2094.52
526.61	2118.66
526.97	2142.99
527.33	2167.32
527.68	2191.40
528.04	2214.68
528.40	2237.74
528.76	2261.00
529.12	2283.15
529.48	2305.68
529.84	2326.33
530.20	2347.56
530.56	2368.40
530.91	2389.33
531.27	2409.75
531.63	2429.40
531.99	2448.57
532.35	2467.42
532.71	2486.36
533.07	2505.77
533.42	2523.73
533.78	2542.01
534.14	2560.32
534.50	2577.77
534.86	2595.80
535.21	2611.96
535.57	2627.93
535.93	2643.34
536.29	2657.46
536.65	2672.54
537.00	2686.41
537.36	2700.84
537.72	2714.17
538.08	2727.05
538.44	2738.84
538.79	2750.77
539.15	2761.10
539.51	2771.36
539.87	2781.26
540.22	2788.92
540.58	2796.91
540.94	2805.29
541.29	2812.23
541.65	2818.07
542.01	2823.41
542.37	2826.91
542.72	2832.47
543.08	2837.48
543.44	2842.18
543.79	2846.18
544.15	2849.05
544.51	2852.03
544.87	2854.06
545.22	2855.78
545.58	2856.66
545.94	2857.95
546.29	2857.74
546.65	2857.52
547.01	2857.49
547.36	2857.47
547.72	2857.64
548.07	2856.32
548.43	2854.39
548.79	2851.79
549.14	2849.17
549.50	2847.40
549.86	2844.46
550.21	2839.21
550.57	2834.34
550.92	2828.18
551.28	2822.60
551.64	2817.12
551.99	2811.85
552.35	2806.21
552.70	2800.08
553.06	2794.68
553.41	2788.81
553.77	2782.37
554.13	2776.82
554.48	2770.07
554.84	2761.85
555.19	2753.79
555.55	2745.24
555.90	2737.30
556.26	2730.30
556.61	2722.65
556.97	2712.66
557.32	2703.74
557.68	2695.10
558.03	2685.95
558.39	2677.49
558.74	2668.99
559.10	2659.34
559.45	2649.31
559.81	2639.72
560.16	2629.40
560.52	2618.76
560.87	2609.15
561.23	2599.02
561.58	2588.33
561.94	2577.47
562.29	2566.09
562.64	2555.43
563.00	2544.97
563.35	2534.42
563.71	2522.91
564.06	2510.97
564.42	2500.05
564.77	2488.80
565.12	2477.63
565.48	2466.27
565.83	2455.48
566.19	2444.80
566.54	2433.55
566.89	2421.61
567.25	2409.54
567.60	2398.31
567.96	2386.60
568.31	2373.42
568.66	2360.37
569.02	2348.38
569.37	2336.07
569.72	2324.31
570.08	2311.82
570.43	2298.82
570.78	2285.44
571.14	2271.91
571.49	2259.19
571.84	2246.75
572.20	2233.06
572.55	2219.74
572.90	2206.29
573.26	2191.79
573.61	2176.80
573.96	2162.28
574.31	2148.03
574.67	2133.97
575.02	2119.55
575.37	2104.64
575.72	2090.03
576.08	2075.97
576.43	2060.89
576.78	2046.02
577.13	2031.94
577.49	2017.72
577.84	2003.94
578.19	1989.34
578.54	1974.44
578.90	1959.03
579.25	1943.33
579.60	1929.01
579.95	1914.32
580.30	1899.65
580.66	1885.39
581.01	1870.78
581.36	1856.41
581.71	1842.69
582.06	1828.41
582.42	1814.27
582.77	1800.84
583.12	1787.03
583.47	1773.39
583.82	1759.85
584.17	1746.18
584.53	1732.34
584.88	1718.58
585.23	1704.36
585.58	1690.71
585.93	1677.52
586.28	1665.17
586.63	1652.56
586.98	1639.29
587.34	1626.25
587.69	1612.74
588.04	1599.59
588.39	1586.99
588.74	1573.92
589.09	1560.59
589.44	1547.28
589.79	1534.45
590.14	1521.58
590.49	1508.93
590.84	1496.10
591.19	1483.91
591.54	1471.17
591.89	1458.35
592.25	1445.84
592.60	1433.06
592.95	1420.79
593.30	1408.82
593.65	1396.57
594.00	1384.62
594.35	1373.36
594.70	1361.41
595.05	1350.52
595.40	1339.28
595.75	1327.56
596.10	1316.68
596.45	1305.99
596.80	1295.79
597.15	1285.39
597.50	1274.94
597.85	1264.71
598.19	1254.67
598.54	1244.03
598.89	1234.19
599.24	1224.59
599.59	1214.83
599.94	1206.06
600.29	1197.15
600.64	1187.97
600.99	1178.23
601.34	1168.95
601.69	1159.15
602.04	1150.36
602.39	1141.40
602.74	1132.71
603.08	1124.25
603.43	1115.30
603.78	1106.31
604.13	1097.41
604.48	1088.45
604.83	1079.75
605.18	1070.97
605.53	1062.11
605.87	1053.40
606.22	1044.91
606.57	1036.20
606.92	1027.60
607.27	1018.81
607.62	1010.17
607.96	1001.70
608.31	994.24
608.66	986.34
609.01	978.85
609.36	971.31
609.70	963.53
610.05	955.61
610.40	948.05
610.75	940.53
611.10	933.29
611.44	925.73
611.79	918.41
612.14	910.73
612.49	903.25
612.83	896.22
613.18	889.20
613.53	882.01
613.88	874.94
614.22	868.41
614.57	861.70
614.92	855.01
615.27	848.35
615.61	841.54
615.96	834.94
616.31	828.29
616.65	821.53
617.00	815.02
617.35	808.67
617.70	802.34
618.04	796.09
618.39	789.83
618.74	783.89
619.08	777.83
619.43	771.98
619.78	766.12
620.12	760.10
620.47	754.27
620.82	748.57
621.16	743.11
621.51	737.32
621.85	731.54
622.20	725.81
622.55	720.25
622.89	714.62
623.24	709.06
623.59	703.56
623.93	698.13
624.28	692.82
624.62	687.49
624.97	682.16
625.32	676.93
625.66	671.56
626.01	666.18
626.35	660.96
626.70	655.79
627.04	650.83
627.39	645.91
627.73	641.10
628.08	636.47
628.43	631.72
628.77	627.03
629.12	622.50
629.46	618.10
629.81	613.52
630.15	608.86
630.50	604.37
630.84	600.08
631.19	595.95
631.53	591.85
631.88	587.66
632.22	583.56
632.57	579.68
632.91	575.76
633.26	571.92
633.60	568.14
633.95	564.45
634.29	560.62
634.64	556.78
634.98	552.85
635.32	549.08
635.67	545.44
636.01	541.76
636.36	538.11
636.70	534.60
637.05	531.12
637.39	527.83
637.73	524.38
638.08	520.99
638.42	517.56
638.77	514.04
639.11	510.50
639.45	507.02
639.80	503.53
640.14	500.24
640.49	496.89
640.83	493.41
641.17	490.03
641.52	486.76
641.86	483.49
642.20	480.39
642.55	477.14
642.89	474.00
643.23	471.02
643.58	468.27
643.92	465.41
644.26	462.56
644.61	459.68
644.95	456.84
645.29	453.96
645.64	451.05
645.98	448.28
646.32	445.68
646.66	443.07
647.01	440.44
647.35	437.84
647.69	435.15
648.04	432.65
648.38	430.15
648.72	427.62
649.06	425.17
649.41	422.72
649.75	420.26
650.09	417.84
650.43	415.43
650.78	412.99
651.12	410.54
651.46	408.21
651.80	405.96
652.14	403.78
652.49	401.61
652.83	399.50
653.17	397.36
653.51	395.28
653.85	393.28
654.20	391.20
654.54	389.07
654.88	387.14
655.22	385.23
655.56	383.27
655.90	381.42
656.25	379.57
656.59	377.74
656.93	376.01
657.27	374.30
657.61	372.50
657.95	370.76
658.29	369.04
658.64	367.35
658.98	365.64
659.32	363.94
659.66	362.35
660.00	360.77
660.34	359.23
660.68	357.64
661.02	355.97
661.36	354.43
661.70	352.95
662.05	351.43
662.39	349.91
662.73	348.49
663.07	347.10
663.41	345.71
663.75	344.35
664.09	342.98
664.43	341.54
664.77	340.20
665.11	338.80
665.45	337.49
665.79	336.17
666.13	334.83
666.47	333.48
666.81	332.11
667.15	330.72
667.49	329.42
667.83	328.17
668.17	326.97
668.51	325.76
668.85	324.58
669.19	323.47
669.53	322.30
669.87	321.10
670.21	319.93
670.55	318.77
670.89	317.69
671.23	316.59
671.57	315.50
671.91	314.46
672.25	313.47
672.58	312.47
672.92	311.44
673.26	310.49
673.60	309.53
673.94	308.57
674.28	307.67
674.62	306.74
674.96	305.79
675.30	304.90
675.64	303.98
675.97	303.08
676.31	302.14
676.65	301.23
676.99	300.38
677.33	299.48
677.67	298.62
678.01	297.69
678.34	296.83
678.68	296.02
679.02	295.18
679.36	294.35
679.70	293.52
680.04	292.72
680.37	291.92
680.71	291.15
681.05	290.42
681.39	289.65
681.73	288.84
682.06	288.07
682.40	287.32
682.74	286.60
683.08	285.90
683.42	285.18
683.75	284.53
684.09	283.80
684.43	283.11
684.77	282.42
685.10	281.77
685.44	281.10
685.78	280.42
686.12	279.79
686.45	279.14
686.79	278.49
687.13	277.86
687.46	277.21
687.80	276.58
688.14	275.91
688.48	275.30
688.81	274.69
689.15	274.13
689.49	273.53
689.82	272.93
690.16	272.29
690.50	271.71
690.83	271.13
691.17	270.56
691.51	270.01
691.84	269.48
692.18	268.91
692.52	268.34
692.85	267.79
693.19	267.27
693.52	266.75
693.86	266.22
694.20	265.70
694.53	265.21
694.87	264.70
695.21	264.22
695.54	263.73
695.88	263.24
696.21	262.71
696.55	262.24
696.88	261.76
697.22	261.30
697.56	260.83
697.89	260.32
698.23	259.84
698.56	259.35
698.90	258.91
699.23	258.45
699.57	258.03
699.90	257.59
700.24	257.13
700.58	256.71
700.91	256.32
701.25	256.00
701.58	255.64
701.92	255.27
702.25	254.88
702.59	254.48
702.92	254.10
703.26	253.74
703.59	253.36
703.93	253.07
704.26	252.73
704.60	252.37
704.93	252.03
705.26	251.69
705.60	251.38
705.93	251.01
706.27	250.72
706.60	250.41
706.94	250.12
707.27	249.77
707.61	249.44
707.94	249.09
708.27	248.68
708.61	248.32
708.94	247.99
709.28	247.68
709.61	247.37
709.94	247.09
710.28	246.80
710.61	246.54
710.95	246.18
711.28	245.97
711.61	245.70
711.95	245.46
712.28	245.19
712.61	244.91
712.95	244.71
713.28	244.50
713.61	244.24
713.95	243.97
714.28	243.75
714.61	243.50
714.95	243.27
715.28	243.04
715.61	242.81
715.95	242.60
716.28	242.38
716.61	242.18
716.95	241.95
717.28	241.74
717.61	241.52
717.94	241.31
718.28	241.03
718.61	240.82
718.94	240.60
719.27	240.40
719.61	240.22
719.94	240.01
720.27	239.76
720.60	239.56
720.94	239.38
721.27	239.20
721.60	239.04
721.93	238.86
722.27	238.72
722.60	238.56
722.93	238.37
723.26	238.21
723.59	238.02
723.93	237.87
724.26	237.72
724.59	237.56
724.92	237.42
725.25	237.29
725.59	237.14
725.92	237.02
726.25	236.87
726.58	236.72
726.91	236.57
727.24	236.45
727.57	236.31
727.91	236.15
728.24	236.03
728.57	235.88
728.90	235.76
729.23	235.59
729.56	235.51
729.89	235.38
730.22	235.24
730.55	235.11
730.89	234.98
731.22	234.84
731.55	234.72
731.88	234.59
732.21	234.46
732.54	234.34
732.87	234.22
733.20	234.11
733.53	234.00
733.86	233.90
734.19	233.78
734.52	233.69
734.85	233.65
735.18	233.52
735.51	233.45
735.84	233.34
736.17	233.26
736.50	233.11
736.83	233.13
737.16	233.04
737.49	232.95
737.82	232.86
738.15	232.78
738.48	232.68
738.81	232.58
739.14	232.48
739.47	232.37
739.80	232.28
740.13	232.19
740.46	232.09
740.79	231.98
741.12	231.89
741.45	231.78
741.78	231.64
742.11	231.59
742.44	231.48
742.77	231.41
743.10	231.31
743.43	231.22
743.75	231.03
744.08	231.10
744.41	231.01
744.74	230.92
745.07	230.82
745.40	230.76
745.73	230.73
746.06	230.66
746.39	230.61
746.71	230.52
747.04	230.44
747.37	230.37
747.70	230.32
748.03	230.25
748.36	230.20
748.68	230.13
749.01	230.03
749.34	229.97
749.67	229.90
750.00	229.85
750.33	229.87
750.65	229.81
750.98	229.60
751.31	229.54
751.64	229.48
751.97	229.47
752.29	229.40
752.62	229.29
752.95	229.22
753.28	229.14
753.60	229.07
753.93	229.04
754.26	228.98
754.59	228.89
754.91	228.82
755.24	228.75
755.57	228.73
755.90	228.67
756.22	228.61
756.55	228.53
756.88	228.45
757.20	228.32
757.53	228.24
757.86	228.18
758.19	228.14
758.51	228.09
758.84	227.99
759.17	227.93
759.49	227.89
759.82	227.89
760.15	227.86
760.47	227.81
760.80	227.73
761.13	227.70
761.45	227.66
761.78	227.62
762.11	227.58
762.43	227.48
762.76	227.44
763.08	227.41
763.41	227.37
763.74	227.34
764.06	227.29
764.39	227.26
764.71	227.22
765.04	227.17
765.37	227.12
765.69	227.08
766.02	227.04
766.34	226.99
766.67	226.91
767.00	226.89
767.32	226.90
767.65	226.93
767.97	226.88
768.30	226.85
768.62	226.81
768.95	226.76
769.27	226.72
769.60	226.70
769.92	226.64
770.25	226.59
770.57	226.54
770.90	226.51
771.22	226.47
771.55	226.44
771.87	226.41
772.20	226.38
772.52	226.43
772.85	226.53
773.17	226.50
773.50	226.47
773.82	226.42
774.15	226.34
774.47	226.25
774.80	226.21
775.12	226.18
775.45	226.16
775.77	226.14
776.09	226.12
776.42	226.09
776.74	226.10
777.07	226.07
777.39	226.05
777.72	226.02
778.04	226.00
778.36	225.97
778.69	225.95
779.01	225.93
779.33	225.82
779.66	225.68
779.98	225.65
780.31	225.64
780.63	225.66
780.95	225.66
781.28	225.64
781.60	225.61
781.92	225.59
782.25	225.57
782.57	225.55
782.89	225.52
783.22	225.50
783.54	225.46
783.86	225.45
784.19	225.43
784.51	225.44
784.83	225.41
785.16	225.39
785.48	225.37
785.80	225.36
786.12	225.35
786.45	225.33
786.77	225.32
787.09	225.29
787.42	225.24
787.74	225.22
788.06	225.21
788.38	225.19
788.71	225.17
789.03	225.16
789.35	225.16
789.67	225.13
789.99	225.12
790.32	225.10
790.64	225.09
790.96	225.18
791.28	225.13
791.61	225.11
791.93	225.11
792.25	225.09
792.57	225.14
792.89	225.11
793.21	225.10
793.54	225.08
793.86	225.06
794.18	225.05
794.50	225.01
794.82	225.00
795.14	225.00
795.47	225.01
795.79	224.99
796.11	224.95
796.43	224.94
796.75	224.93
797.07	224.92
797.39	224.90
797.71	224.80
798.04	224.80
798.36	224.79
798.68	224.78
799.00	224.78
799.32	224.72
799.64	224.73
799.96	224.71
800.28	224.73
800.60	224.71
800.92	224.71
801.24	224.69
801.56	224.70
801.89	224.68
802.21	224.67
802.53	224.65
802.85	224.66
803.17	224.70
803.49	224.67
803.81	224.65
804.13	224.64
804.45	224.62
804.77	224.62
805.09	224.61
805.41	224.59
805.73	224.56
806.05	224.53
806.37	224.51
806.69	224.49
807.01	224.47
807.33	224.47
807.65	224.43
807.97	224.47
808.28	224.44
808.60	224.43
808.92	224.40
809.24	224.46
809.56	224.43
809.88	224.39
810.20	224.39
810.52	224.40
810.84	224.38
811.16	224.37
811.48	224.35
811.80	224.38
812.12	224.37
812.43	224.38
812.75	224.39
813.07	224.37
813.39	224.37
813.71	224.35
814.03	224.34
814.35	224.34
814.67	224.29
814.98	224.28
815.30	224.27
815.62	224.26
815.94	224.18
816.26	224.19
816.58	224.16
816.89	224.16
817.21	224.13
817.53	224.12
817.85	224.13
818.17	224.12
818.48	224.07
818.80	224.09
819.12	224.06
819.44	224.04
819.76	224.03
820.07	224.02
820.39	224.02
820.71	224.02
821.03	224.02
821.34	224.01
821.66	224.01
821.98	224.02
822.30	224.01
822.61	224.07
822.93	224.05
823.25	224.04
823.57	224.03
823.88	224.04
824.20	224.04
824.52	224.04
824.83	224.03
825.15	224.02
825.47	224.01
825.79	224.01
826.10	224.00
826.42	224.00
826.74	224.00
827.05	223.99
827.37	223.99
827.69	223.97
828.00	223.98
828.32	223.98
828.64	223.96
828.95	224.02
829.27	223.98
829.58	223.98
829.90	224.00
830.22	224.00
830.53	223.98
830.85	223.97
831.17	223.94
831.48	223.94
831.80	223.94
832.11	223.93
832.43	223.91
832.75	223.91
833.06	223.97
833.38	223.94
833.69	223.94
834.01	223.94
834.32	223.93
834.64	223.92
834.96	223.91
835.27	223.91
835.59	223.87
835.90	223.85
836.22	223.85
836.53	223.82
836.85	223.81
837.16	223.91
837.48	223.91
837.79	223.95
838.11	223.95
838.42	223.95
838.74	223.95
839.05	223.95
839.37	223.95
839.68	223.88
840.00	223.87
840.31	223.89
840.63	223.87
840.94	223.86
841.26	223.85
841.57	223.85
841.88	223.86
842.20	223.84
842.51	223.82
842.83	223.82
843.14	223.91
843.46	223.91
843.77	223.84
844.08	223.84
844.40	223.80
844.71	223.79
845.03	223.78
845.34	223.77
845.65	223.76
845.97	223.76
846.28	223.77
846.60	223.78
846.91	223.76
847.22	223.76
847.54	223.78
847.85	223.78
848.16	223.77
848.48	223.74
848.79	223.78
849.10	223.80
849.42	223.80
849.73	223.70
850.04	223.70
850.36	223.66
850.67	223.68
850.98	223.68
851.30	223.69
851.61	223.68
851.92	223.68
852.23	223.71
852.55	223.72
852.86	223.72
853.17	223.72
853.49	223.74
853.80	223.76
854.11	223.76
854.42	223.77
854.74	223.76
855.05	223.77
855.36	223.71
855.67	223.71
855.99	223.71
856.30	223.83
856.61	223.83
856.92	223.83
857.23	223.83
857.55	223.82
857.86	223.81
858.17	223.82
858.48	223.81
858.79	223.78
859.11	223.79
859.42	223.78
859.73	223.76
860.04	223.76
860.35	223.73
860.66	223.69
860.98	223.69
861.29	223.70
861.60	223.70
861.91	223.72
862.22	223.70
862.53	223.69
862.84	223.57
863.16	223.59
863.47	223.57
863.78	223.55
864.09	223.56
864.40	223.57
864.71	223.57
865.02	223.58
865.33	223.56
865.64	223.54
865.95	223.54
866.27	223.60
866.58	223.59
866.89	223.60
867.20	223.60
867.51	223.59
867.82	223.58
868.13	223.61
868.44	223.58
868.75	223.61
869.06	223.61
869.37	223.62
869.68	223.59
869.99	223.61
870.30	223.62
870.61	223.63
870.92	223.61
871.23	223.60
871.54	223.62
871.85	223.64
872.16	223.66
872.47	223.65
872.78	223.59
873.09	223.60
873.40	223.59
873.71	223.59
874.02	223.60
874.33	223.59
874.64	223.57
874.95	223.59
875.26	223.57
875.56	223.56
875.87	223.56
876.18	223.56
876.49	223.66
876.80	223.65
877.11	223.62
877.42	223.63
877.73	223.63
878.04	223.62
878.35	223.61
878.66	223.61
878.96	223.61
879.27	223.61
879.58	223.60
879.89	223.60
880.20	223.62
880.51	223.62
880.82	223.62
881.12	223.62
881.43	223.60
881.74	223.59
882.05	223.58
882.36	223.59
882.67	223.59
882.97	223.48
883.28	223.47
883.59	223.47
883.90	223.48
884.21	223.49
884.51	223.49
884.82	223.47
885.13	223.47
885.44	223.47
885.74	223.47
886.05	223.47
886.36	223.47
886.67	223.43
886.98	223.48
887.28	223.49
887.59	223.49
887.90	223.49
888.20	223.49
888.51	223.51
888.82	223.49
889.13	223.50
889.43	223.59
889.74	223.58
890.05	223.58
890.35	223.56
890.66	223.55
890.97	223.54
891.28	223.53
891.58	223.53
891.89	223.53
892.20	223.52
892.50	223.51
892.81	223.50
893.12	223.50
893.42	223.45
893.73	223.45
894.04	223.45
894.34	223.46
894.65	223.46
894.95	223.44
895.26	223.45
895.57	223.49
895.87	223.39
896.18	223.41
896.48	223.41
896.79	223.41
897.10	223.43
897.40	223.43
897.71	223.44
898.01	223.43
898.32	223.44
898.63	223.44
898.93	223.45
899.24	223.45
899.54	223.44
899.85	223.44
900.15	223.43
900.46	223.43
900.76	223.44
901.07	223.44
901.38	223.43
901.68	223.44
901.99	223.39
902.29	223.40
902.60	223.38
902.90	223.37
903.21	223.37
903.51	223.36
903.82	223.38
904.12	223.38
904.43	223.38
904.73	223.37
905.03	223.38
905.34	223.48
905.64	223.47
905.95	223.47
906.25	223.47
906.56	223.46
906.86	223.46
907.17	223.45
907.47	223.46
907.77	223.46
908.08	223.43
908.38	223.44
908.69	223.45
908.99	223.46
909.30	223.47
909.60	223.47
909.90	223.48
910.21	223.45
910.51	223.43
910.81	223.43
911.12	223.43
911.42	223.44
911.73	223.33
912.03	223.34
912.33	223.36
912.64	223.35
912.94	223.35
913.24	223.33
913.55	223.32
913.85	223.31
914.15	223.33
914.46	223.34
914.76	223.33
915.06	223.32
915.37	223.30
915.67	223.30
915.97	223.30
916.27	223.28
916.58	223.28
916.88	223.28
917.18	223.28
917.49	223.34
917.79	223.34
918.09	223.36
918.39	223.38
918.70	223.37
919.00	223.38
919.30	223.42
919.60	223.42
919.91	223.41
920.21	223.41
920.51	223.39
920.81	223.38
921.12	223.40
921.42	223.40
921.72	223.41
922.02	223.41
922.32	223.42
922.63	223.43
922.93	223.48
923.23	223.49
923.53	223.48
923.83	223.41
924.13	223.42
924.44	223.42
924.74	223.43
925.04	223.45
925.34	223.44
925.64	223.40
925.94	223.40
926.24	223.46
926.55	223.45
926.85	223.46
927.15	223.46
927.45	223.46
927.75	223.46
928.05	223.46
928.35	223.45
928.65	223.46
928.95	223.47
929.26	223.42
929.56	223.43
929.86	223.44
930.16	223.44
930.46	223.42
930.76	223.43
931.06	223.38
931.36	223.35
931.66	223.37
931.96	223.38
932.26	223.39
932.56	223.34
932.86	223.35
933.16	223.35
933.46	223.34
933.76	223.33
934.06	223.35
934.36	223.38
934.66	223.38
934.96	223.36
935.26	223.37
935.56	223.39
935.86	223.36
936.16	223.35
936.46	223.34
936.76	223.34
937.06	223.32
937.36	223.33
937.66	223.33
937.96	223.32
938.26	223.29
938.56	223.29
938.86	223.29
939.16	223.32
939.46	223.32
939.76	223.33
940.06	223.33
940.35	223.31
940.65	223.26
940.95	223.27
941.25	223.24
941.55	223.22
941.85	223.21
942.15	223.24
942.45	223.26
942.75	223.26
943.04	223.26
943.34	223.28
943.64	223.27
943.94	223.26
944.24	223.25
944.54	223.26
944.84	223.26
945.13	223.25
945.43	223.23
945.73	223.22
946.03	223.21
946.33	223.20
946.62	223.19
946.92	223.19
947.22	223.19
947.52	223.20
947.82	223.22
948.11	223.21
948.41	223.18
948.71	223.15
949.01	223.16
949.31	223.15
949.60	223.14
949.90	223.15
950.20	223.15
950.50	223.15
950.79	223.13
951.09	223.15
951.39	223.14
951.69	223.14
951.98	223.15
952.28	223.16
952.58	223.16
952.87	223.16
953.17	223.18
953.47	223.16
953.76	223.16
954.06	223.14
954.36	223.13
954.66	223.13
954.95	223.15
955.25	223.16
955.55	223.17
955.84	223.15
956.14	223.16
956.44	223.16
956.73	223.15
957.03	223.16
957.32	223.16
957.62	223.16
957.92	223.18
958.21	223.16
958.51	223.28
958.81	223.30
959.10	223.30
959.40	223.32
959.69	223.33
959.99	223.35
960.29	223.35
960.58	223.35
960.88	223.38
961.17	223.37
961.47	223.38
961.76	223.37
962.06	223.39
962.36	223.38
962.65	223.38
962.95	223.39
963.24	223.38
963.54	223.38
963.83	223.39
964.13	223.38
964.42	223.38
964.72	223.28
965.01	223.29
965.31	223.28
965.60	223.25
965.90	223.32
966.19	223.29
966.49	223.30
966.78	223.30
967.08	223.29
967.37	223.29
967.67	223.27
967.96	223.29
968.26	223.28
968.55	223.29
968.85	223.29
969.14	223.29
969.43	223.29
969.73	223.28
970.02	223.27
970.32	223.26
970.61	223.24
970.91	223.22
971.20	223.20
971.49	223.20
971.79	223.21
972.08	223.14
972.38	223.14
972.67	223.14
972.96	223.15
973.26	223.13
973.55	223.17
973.85	223.16
974.14	223.15
974.43	223.16
974.73	223.14
975.02	223.14
975.31	223.13
975.61	223.13
975.90	223.12
976.19	223.12
976.49	223.13
976.78	223.14
977.07	223.13
977.37	223.14
977.66	223.15
977.95	223.14
978.24	223.15
978.54	223.17
978.83	223.16
979.12	223.15
979.42	223.15
979.71	223.13
980.00	223.13
980.29	223.13
980.59	223.12
980.88	223.14
981.17	223.14
981.46	223.14
981.76	223.14
982.05	223.18
982.34	223.19
982.63	223.19
982.93	223.19
983.22	223.21
983.51	223.22
983.80	223.23
984.09	223.25
984.39	223.24
984.68	223.23
984.97	223.23
985.26	223.23
985.55	223.24
985.85	223.22
986.14	223.23
986.43	223.24
986.72	223.24
987.01	223.21
987.30	223.21
987.59	223.20
987.89	223.20
988.18	223.17
988.47	223.16
988.76	223.14
989.05	223.14
989.34	223.12
989.63	223.15
989.92	223.13
990.22	223.12
990.51	223.11
990.80	223.11
991.09	223.11
991.38	223.13
991.67	223.11
991.96	223.11
992.25	223.11
992.54	223.09
992.83	223.09
993.12	223.09
993.41	223.11
993.70	223.15
993.99	223.17
994.28	223.19
994.58	223.20
994.87	223.20
995.16	223.19
995.45	223.19
995.74	223.15
996.03	223.16
996.32	223.17
996.61	223.19
996.90	223.19
997.19	223.18
997.48	223.19
997.77	223.18
998.06	223.18
998.34	223.17
998.63	223.17
998.92	223.17
999.21	223.19
999.50	223.19
999.79	223.15
1000.08	223.14
1000.37	223.15
1000.66	223.13
1000.95	223.16
1001.24	223.17
1001.53	223.18
1001.82	223.18
1002.11	223.16
1002.40	223.17
1002.68	223.19
1002.97	223.25
1003.26	223.24
1003.55	223.23
1003.84	223.24
1004.13	223.27
1004.42	223.27
1004.71	223.27
1004.99	223.26
1005.28	223.28
1005.57	223.27
1005.86	223.25
1006.15	223.25
1006.44	223.23
1006.72	223.24
1007.01	223.22
1007.30	223.22
1007.59	223.21
1007.88	223.21
1008.17	223.22
1008.45	223.19
1008.74	223.15
1009.03	223.11
1009.32	223.11
1009.60	223.10
1009.89	223.10
1010.18	223.05
1010.47	223.04
1010.76	223.04
1011.04	223.04
1011.33	223.04
1011.62	223.05
1011.91	223.06
1012.19	223.06
1012.48	223.07
1012.77	223.07
1013.05	223.10
1013.34	223.10
1013.63	223.10
1013.92	223.10
1014.20	223.10
1014.49	223.11
1014.78	223.12
1015.06	223.08
1015.35	223.08
1015.64	223.10
1015.92	223.12
1016.21	223.13
1016.50	223.13
1016.78	223.14
1017.07	223.15
1017.36	223.13
1017.64	223.11
1017.93	223.12
1018.22	223.11
1018.50	223.10
1018.79	223.10
1019.08	223.06
1019.36	223.07
1019.65	223.06
1019.93	223.08
1020.22	223.10
1020.51	223.15
1020.79	223.14
1021.08	222.96
1021.36	222.90
1021.65	223.10
1021.94	223.00
1022.22	223.20
1022.51	222.90
1022.79	223.59
1023.08	223.20
1023.36	224.31
1023.65	222.85
>>>>>End Processed Spectral Data<<<<<
