SpectraSuite Data File
++++++++++++++++++++++++++++++++++++
Date: Wed Sep 30 14:09:17 EDT 2015
User: lab3
Dark Spectrum Present: No
Reference Spectrum Present: No
Number of Sampled Component Spectra: 1
Spectrometers: USB2E7196
Integration Time (usec): 36000 (USB2E7196)
Spectra Averaged: 1500 (USB2E7196)
Boxcar Smoothing: 10 (USB2E7196)
Correct for Electrical Dark: No (USB2E7196)
Strobe/Lamp Enabled: No (USB2E7196)
Correct for Detector Non-linearity: No (USB2E7196)
Correct for Stray Light: No (USB2E7196)
Number of Pixels in Processed Spectrum: 2048
>>>>>Begin Processed Spectral Data<<<<<
339.09	0.00
339.48	211.04
339.86	212.55
340.24	213.85
340.63	215.42
341.01	218.18
341.39	218.01
341.78	219.10
342.16	220.65
342.54	220.84
342.93	209.54
343.31	220.13
343.69	220.67
344.07	221.13
344.46	221.55
344.84	221.93
345.22	222.17
345.60	222.42
345.99	222.62
346.37	222.75
346.75	222.87
347.13	222.94
347.52	223.01
347.90	223.09
348.28	223.13
348.66	223.18
349.05	223.19
349.43	223.23
349.81	223.28
350.19	223.34
350.57	223.39
350.96	223.47
351.34	223.55
351.72	223.65
352.10	223.74
352.48	223.82
352.87	223.87
353.25	223.94
353.63	224.00
354.01	224.06
354.39	224.13
354.77	224.21
355.15	224.31
355.54	224.37
355.92	224.41
356.30	224.48
356.68	224.62
357.06	224.69
357.44	224.75
357.82	224.80
358.20	224.91
358.58	224.98
358.97	225.04
359.35	225.13
359.73	225.21
360.11	225.26
360.49	225.33
360.87	225.37
361.25	225.43
361.63	225.51
362.01	225.57
362.39	225.60
362.77	225.65
363.15	225.67
363.53	225.70
363.91	225.73
364.29	225.75
364.67	225.67
365.05	225.69
365.43	225.73
365.81	225.76
366.19	225.76
366.57	225.80
366.95	225.80
367.33	225.77
367.71	225.76
368.09	225.77
368.47	225.76
368.85	225.76
369.23	225.76
369.61	225.72
369.99	225.72
370.37	225.72
370.75	225.77
371.13	225.73
371.51	225.69
371.89	225.67
372.27	225.65
372.65	225.62
373.03	225.58
373.41	225.53
373.78	225.49
374.16	225.41
374.54	225.33
374.92	225.27
375.30	225.22
375.68	225.16
376.06	225.12
376.44	225.06
376.82	225.02
377.19	224.97
377.57	224.90
377.95	224.82
378.33	224.76
378.71	224.62
379.09	224.58
379.47	224.55
379.84	224.48
380.22	224.41
380.60	224.35
380.98	224.30
381.36	224.24
381.73	224.18
382.11	224.16
382.49	224.11
382.87	224.05
383.25	224.00
383.62	224.08
384.00	224.00
384.38	223.96
384.76	223.94
385.13	223.92
385.51	223.89
385.89	223.84
386.27	223.80
386.64	223.77
387.02	223.72
387.40	223.67
387.78	223.65
388.15	223.63
388.53	223.59
388.91	223.56
389.29	223.53
389.66	223.52
390.04	223.47
390.42	223.47
390.79	223.45
391.17	223.45
391.55	223.31
391.92	223.30
392.30	223.30
392.68	223.26
393.05	223.24
393.43	223.23
393.81	223.23
394.18	223.22
394.56	223.22
394.94	223.25
395.31	223.25
395.69	223.29
396.06	223.31
396.44	223.34
396.82	223.34
397.19	223.42
397.57	223.43
397.95	223.47
398.32	223.47
398.70	223.51
399.07	223.57
399.45	223.61
399.82	223.65
400.20	223.68
400.58	223.74
400.95	223.76
401.33	223.85
401.70	223.97
402.08	224.06
402.45	224.14
402.83	224.25
403.20	224.35
403.58	224.42
403.95	224.55
404.33	224.67
404.71	224.81
405.08	224.98
405.46	225.12
405.83	225.28
406.21	225.45
406.58	225.64
406.96	225.82
407.33	226.03
407.70	226.27
408.08	226.58
408.45	226.87
408.83	227.17
409.20	227.44
409.58	227.69
409.95	228.04
410.33	228.41
410.70	228.75
411.08	229.16
411.45	229.60
411.82	230.03
412.20	230.54
412.57	231.14
412.95	231.61
413.32	232.23
413.69	232.86
414.07	233.53
414.44	234.25
414.82	235.00
415.19	235.86
415.56	236.74
415.94	237.67
416.31	238.70
416.68	239.74
417.06	240.94
417.43	242.07
417.81	243.36
418.18	244.67
418.55	246.12
418.93	247.63
419.30	249.19
419.67	250.87
420.04	252.59
420.42	254.38
420.79	256.45
421.16	258.55
421.54	260.68
421.91	262.90
422.28	265.22
422.66	267.71
423.03	270.09
423.40	272.60
423.77	275.28
424.15	278.04
424.52	280.90
424.89	283.98
425.26	287.06
425.64	289.92
426.01	293.14
426.38	296.43
426.75	299.82
427.13	303.31
427.50	306.96
427.87	310.76
428.24	314.58
428.61	318.26
428.99	322.20
429.36	326.53
429.73	330.68
430.10	334.83
430.47	339.06
430.85	343.42
431.22	348.05
431.59	352.80
431.96	357.45
432.33	362.62
432.70	367.53
433.08	373.31
433.45	378.75
433.82	384.13
434.19	390.14
434.56	396.04
434.93	401.74
435.30	407.37
435.68	413.69
436.05	419.86
436.42	426.04
436.79	431.68
437.16	437.80
437.53	444.33
437.90	450.84
438.27	457.21
438.64	464.06
439.01	470.29
439.38	475.98
439.75	481.45
440.13	487.63
440.50	493.50
440.87	498.17
441.24	503.29
441.61	508.89
441.98	512.98
442.35	517.89
442.72	522.89
443.09	527.63
443.46	530.65
443.83	532.91
444.20	534.79
444.57	537.53
444.94	539.11
445.31	540.76
445.68	542.18
446.05	543.20
446.42	543.00
446.79	542.70
447.16	542.42
447.53	542.20
447.90	540.34
448.27	538.60
448.64	535.83
449.01	534.03
449.37	530.14
449.74	526.59
450.11	521.99
450.48	516.95
450.85	511.91
451.22	507.64
451.59	503.38
451.96	499.54
452.33	493.97
452.70	488.98
453.07	482.91
453.43	476.85
453.80	470.99
454.17	465.31
454.54	460.04
454.91	454.11
455.28	448.53
455.65	443.25
456.02	437.65
456.38	433.15
456.75	427.33
457.12	422.65
457.49	417.94
457.86	413.45
458.23	409.52
458.59	405.17
458.96	400.70
459.33	396.82
459.70	392.85
460.07	389.83
460.43	386.29
460.80	382.95
461.17	380.02
461.54	376.88
461.91	373.93
462.27	370.91
462.64	368.44
463.01	365.62
463.38	362.81
463.74	360.24
464.11	357.95
464.48	355.87
464.85	353.63
465.21	351.89
465.58	349.99
465.95	347.81
466.32	346.07
466.68	344.37
467.05	342.64
467.42	340.96
467.78	339.15
468.15	337.47
468.52	336.24
468.88	334.61
469.25	333.13
469.62	331.95
469.98	330.69
470.35	329.58
470.72	328.56
471.08	327.52
471.45	326.66
471.82	325.70
472.18	324.69
472.55	324.07
472.92	323.29
473.28	322.68
473.65	322.02
474.02	321.42
474.38	320.91
474.75	320.63
475.11	320.23
475.48	320.09
475.85	319.93
476.21	319.88
476.58	319.89
476.94	320.09
477.31	320.20
477.67	320.34
478.04	320.57
478.41	320.89
478.77	321.33
479.14	321.65
479.50	322.21
479.87	322.90
480.23	323.58
480.60	324.26
480.96	324.97
481.33	325.96
481.69	326.92
482.06	327.88
482.42	328.80
482.79	329.89
483.15	331.16
483.52	332.58
483.88	333.95
484.25	335.42
484.61	336.93
484.98	338.57
485.34	340.42
485.71	342.33
486.07	344.37
486.44	346.42
486.80	348.68
487.17	350.97
487.53	353.48
487.90	356.08
488.26	358.88
488.62	361.84
488.99	364.83
489.35	367.97
489.72	371.38
490.08	374.90
490.44	378.53
490.81	382.33
491.17	386.22
491.54	390.38
491.90	394.60
492.26	399.12
492.63	403.89
492.99	408.87
493.36	414.02
493.72	419.41
494.08	424.98
494.45	430.84
494.81	436.93
495.17	443.11
495.54	449.69
495.90	456.62
496.26	463.67
496.63	470.88
496.99	478.41
497.35	486.23
497.72	494.35
498.08	502.70
498.44	511.27
498.80	520.37
499.17	529.74
499.53	539.43
499.89	549.38
500.26	559.50
500.62	569.84
500.98	580.78
501.34	591.92
501.71	603.52
502.07	615.36
502.43	627.61
502.79	640.27
503.16	653.32
503.52	666.46
503.88	680.05
504.24	694.06
504.60	708.26
504.97	722.88
505.33	737.84
505.69	753.51
506.05	769.46
506.41	785.61
506.78	802.02
507.14	818.96
507.50	836.24
507.86	853.90
508.22	871.78
508.59	889.77
508.95	908.33
509.31	927.39
509.67	947.18
510.03	967.13
510.39	987.20
510.75	1007.41
511.12	1027.94
511.48	1048.72
511.84	1069.79
512.20	1091.07
512.56	1113.21
512.92	1135.49
513.28	1157.75
513.64	1180.25
514.00	1203.12
514.37	1226.54
514.73	1249.93
515.09	1273.12
515.45	1296.54
515.81	1320.23
516.17	1344.05
516.53	1367.72
516.89	1391.17
517.25	1414.56
517.61	1438.15
517.97	1462.02
518.33	1485.97
518.69	1510.06
519.05	1534.45
519.41	1558.76
519.77	1583.50
520.13	1607.43
520.49	1631.50
520.85	1655.41
521.21	1679.40
521.57	1703.88
521.93	1727.51
522.29	1751.62
522.65	1775.59
523.01	1799.60
523.37	1822.99
523.73	1846.96
524.09	1870.71
524.45	1894.58
524.81	1918.32
525.17	1941.52
525.53	1964.48
525.89	1987.30
526.25	2010.15
526.61	2031.60
526.97	2053.31
527.33	2074.84
527.68	2096.34
528.04	2117.42
528.40	2138.51
528.76	2159.22
529.12	2179.21
529.48	2199.93
529.84	2218.54
530.20	2237.68
530.56	2256.19
530.91	2275.34
531.27	2294.00
531.63	2311.87
531.99	2329.29
532.35	2346.17
532.71	2363.95
533.07	2382.06
533.42	2398.37
533.78	2415.19
534.14	2432.46
534.50	2448.95
534.86	2465.82
535.21	2480.77
535.57	2495.59
535.93	2509.87
536.29	2523.62
536.65	2536.97
537.00	2548.94
537.36	2561.94
537.72	2573.73
538.08	2585.59
538.44	2596.17
538.79	2606.13
539.15	2615.20
539.51	2624.20
539.87	2632.24
540.22	2637.79
540.58	2643.38
540.94	2649.71
541.29	2654.86
541.65	2659.82
542.01	2664.54
542.37	2667.25
542.72	2671.35
543.08	2674.58
543.44	2677.49
543.79	2679.74
544.15	2681.53
544.51	2682.90
544.87	2684.18
545.22	2685.04
545.58	2684.65
545.94	2684.28
546.29	2682.76
546.65	2681.59
547.01	2680.19
547.36	2679.22
547.72	2678.75
548.07	2677.01
548.43	2673.85
548.79	2670.41
549.14	2666.92
549.50	2663.56
549.86	2660.07
550.21	2655.41
550.57	2651.12
550.92	2645.60
551.28	2639.98
551.64	2634.32
551.99	2628.91
552.35	2622.34
552.70	2615.87
553.06	2610.28
553.41	2604.40
553.77	2598.29
554.13	2592.15
554.48	2584.74
554.84	2576.43
555.19	2567.87
555.55	2558.75
555.90	2550.74
556.26	2542.88
556.61	2534.20
556.97	2524.19
557.32	2514.37
557.68	2504.65
558.03	2494.52
558.39	2485.36
558.74	2476.99
559.10	2467.16
559.45	2457.14
559.81	2447.65
560.16	2437.68
560.52	2427.32
560.87	2417.14
561.23	2406.45
561.58	2396.16
561.94	2385.87
562.29	2375.19
562.64	2365.03
563.00	2355.11
563.35	2345.01
563.71	2334.14
564.06	2323.57
564.42	2313.20
564.77	2302.71
565.12	2292.08
565.48	2281.22
565.83	2269.93
566.19	2258.18
566.54	2247.12
566.89	2235.29
567.25	2223.39
567.60	2212.48
567.96	2201.05
568.31	2188.62
568.66	2176.63
569.02	2164.88
569.37	2153.54
569.72	2142.99
570.08	2131.41
570.43	2119.40
570.78	2107.25
571.14	2095.13
571.49	2082.63
571.84	2070.42
572.20	2057.39
572.55	2044.46
572.90	2031.88
573.26	2019.77
573.61	2006.86
573.96	1994.27
574.31	1982.09
574.67	1969.85
575.02	1956.59
575.37	1943.31
575.72	1930.51
576.08	1917.79
576.43	1904.46
576.78	1891.18
577.13	1877.58
577.49	1864.39
577.84	1851.32
578.19	1838.40
578.54	1825.09
578.90	1811.55
579.25	1797.79
579.60	1785.19
579.95	1772.74
580.30	1760.16
580.66	1746.98
581.01	1733.88
581.36	1720.40
581.71	1707.40
582.06	1694.59
582.42	1682.11
582.77	1669.60
583.12	1657.35
583.47	1645.44
583.82	1633.15
584.17	1620.08
584.53	1607.35
584.88	1594.74
585.23	1582.15
585.58	1569.47
585.93	1557.29
586.28	1545.70
586.63	1534.03
586.98	1521.83
587.34	1509.74
587.69	1497.15
588.04	1484.94
588.39	1473.16
588.74	1461.17
589.09	1449.58
589.44	1437.30
589.79	1425.17
590.14	1413.23
590.49	1401.23
590.84	1389.26
591.19	1378.01
591.54	1366.69
591.89	1355.13
592.25	1344.15
592.60	1332.76
592.95	1321.78
593.30	1310.64
593.65	1299.60
594.00	1288.73
594.35	1278.38
594.70	1267.23
595.05	1256.93
595.40	1246.38
595.75	1235.68
596.10	1225.66
596.45	1215.18
596.80	1205.40
597.15	1195.75
597.50	1186.05
597.85	1176.71
598.19	1167.38
598.54	1157.65
598.89	1148.62
599.24	1139.83
599.59	1130.98
599.94	1122.72
600.29	1114.15
600.64	1105.65
600.99	1096.50
601.34	1087.86
601.69	1079.02
602.04	1071.10
602.39	1062.76
602.74	1054.90
603.08	1047.30
603.43	1039.44
603.78	1031.57
604.13	1023.71
604.48	1015.69
604.83	1007.94
605.18	1000.04
605.53	992.02
605.87	984.06
606.22	976.35
606.57	968.45
606.92	960.38
607.27	952.48
607.62	944.85
607.96	937.29
608.31	930.76
608.66	923.95
609.01	917.16
609.36	910.30
609.70	903.47
610.05	896.50
610.40	889.65
610.75	882.66
611.10	876.09
611.44	869.32
611.79	862.83
612.14	856.23
612.49	849.47
612.83	843.19
613.18	837.07
613.53	831.01
613.88	825.05
614.22	819.33
614.57	813.41
614.92	807.60
615.27	801.87
615.61	795.67
615.96	789.58
616.31	783.67
616.65	777.60
617.00	771.62
617.35	765.68
617.70	759.84
618.04	754.19
618.39	748.38
618.74	742.88
619.08	737.24
619.43	731.72
619.78	726.36
620.12	720.81
620.47	715.45
620.82	710.08
621.16	704.82
621.51	699.44
621.85	694.17
622.20	688.74
622.55	683.36
622.89	678.14
623.24	673.06
623.59	668.04
623.93	663.28
624.28	658.70
624.62	654.12
624.97	649.46
625.32	644.85
625.66	640.07
626.01	635.26
626.35	630.62
626.70	625.97
627.04	621.56
627.39	617.20
627.73	612.81
628.08	608.50
628.43	604.18
628.77	599.94
629.12	595.76
629.46	591.75
629.81	587.66
630.15	583.58
630.50	579.60
630.84	575.67
631.19	571.81
631.53	568.05
631.88	564.24
632.22	560.38
632.57	556.75
632.91	553.20
633.26	549.64
633.60	546.08
633.95	542.63
634.29	539.10
634.64	535.59
634.98	532.01
635.32	528.54
635.67	525.28
636.01	522.06
636.36	518.79
636.70	515.66
637.05	512.55
637.39	509.51
637.73	506.28
638.08	503.10
638.42	500.01
638.77	496.78
639.11	493.48
639.45	490.31
639.80	487.14
640.14	484.09
640.49	481.07
640.83	478.02
641.17	475.02
641.52	472.03
641.86	469.00
642.20	466.14
642.55	463.15
642.89	460.22
643.23	457.38
643.58	454.75
643.92	451.99
644.26	449.31
644.61	446.66
644.95	444.05
645.29	441.35
645.64	438.60
645.98	435.95
646.32	433.43
646.66	430.93
647.01	428.50
647.35	426.16
647.69	423.74
648.04	421.39
648.38	419.01
648.72	416.68
649.06	414.40
649.41	412.14
649.75	409.93
650.09	407.64
650.43	405.39
650.78	403.15
651.12	400.90
651.46	398.71
651.80	396.58
652.14	394.53
652.49	392.55
652.83	390.59
653.17	388.67
653.51	386.81
653.85	384.97
654.20	383.05
654.54	381.04
654.88	379.12
655.22	377.24
655.56	375.45
655.90	373.70
656.25	371.97
656.59	370.23
656.93	368.57
657.27	367.02
657.61	365.36
657.95	363.73
658.29	362.16
658.64	360.62
658.98	358.97
659.32	357.32
659.66	355.76
660.00	354.24
660.34	352.70
660.68	351.17
661.02	349.60
661.36	348.10
661.70	346.64
662.05	345.24
662.39	343.86
662.73	342.51
663.07	341.21
663.41	339.93
663.75	338.63
664.09	337.36
664.43	336.01
664.77	334.71
665.11	333.35
665.45	332.06
665.79	330.78
666.13	329.59
666.47	328.42
666.81	327.20
667.15	325.94
667.49	324.78
667.83	323.62
668.17	322.49
668.51	321.40
668.85	320.33
669.19	319.29
669.53	318.15
669.87	316.96
670.21	315.84
670.55	314.74
670.89	313.74
671.23	312.69
671.57	311.66
671.91	310.71
672.25	309.83
672.58	308.92
672.92	307.98
673.26	307.10
673.60	306.20
673.94	305.30
674.28	304.46
674.62	303.58
674.96	302.68
675.30	301.86
675.64	301.01
675.97	300.18
676.31	299.31
676.65	298.50
676.99	297.78
677.33	296.96
677.67	296.16
678.01	295.30
678.34	294.51
678.68	293.76
679.02	292.97
679.36	292.18
679.70	291.40
680.04	290.64
680.37	289.85
680.71	289.12
681.05	288.44
681.39	287.73
681.73	287.01
682.06	286.31
682.40	285.60
682.74	284.94
683.08	284.28
683.42	283.61
683.75	282.98
684.09	282.28
684.43	281.65
684.77	281.00
685.10	280.38
685.44	279.75
685.78	279.14
686.12	278.55
686.45	277.96
686.79	277.33
687.13	276.74
687.46	276.12
687.80	275.51
688.14	274.89
688.48	274.33
688.81	273.74
689.15	273.20
689.49	272.62
689.82	272.05
690.16	271.42
690.50	270.84
690.83	270.26
691.17	269.70
691.51	269.15
691.84	268.65
692.18	268.10
692.52	267.56
692.85	267.03
693.19	266.52
693.52	265.99
693.86	265.49
694.20	264.98
694.53	264.49
694.87	263.98
695.21	263.48
695.54	262.98
695.88	262.49
696.21	261.96
696.55	261.50
696.88	261.02
697.22	260.56
697.56	260.14
697.89	259.69
698.23	259.26
698.56	258.81
698.90	258.39
699.23	257.98
699.57	257.57
699.90	257.16
700.24	256.72
700.58	256.32
700.91	255.96
701.25	255.66
701.58	255.31
701.92	254.97
702.25	254.61
702.59	254.23
702.92	253.85
703.26	253.50
703.59	253.14
703.93	252.86
704.26	252.52
704.60	252.16
704.93	251.79
705.26	251.42
705.60	251.11
705.93	250.75
706.27	250.45
706.60	250.13
706.94	249.84
707.27	249.51
707.61	249.18
707.94	248.84
708.27	248.43
708.61	248.07
708.94	247.74
709.28	247.44
709.61	247.13
709.94	246.85
710.28	246.57
710.61	246.31
710.95	245.96
711.28	245.76
711.61	245.49
711.95	245.27
712.28	244.99
712.61	244.71
712.95	244.49
713.28	244.27
713.61	243.99
713.95	243.71
714.28	243.46
714.61	243.19
714.95	242.93
715.28	242.69
715.61	242.46
715.95	242.24
716.28	242.02
716.61	241.83
716.95	241.61
717.28	241.39
717.61	241.16
717.94	240.94
718.28	240.67
718.61	240.47
718.94	240.24
719.27	240.06
719.61	239.88
719.94	239.67
720.27	239.42
720.60	239.23
720.94	239.04
721.27	238.87
721.60	238.73
721.93	238.56
722.27	238.42
722.60	238.25
722.93	238.04
723.26	237.86
723.59	237.67
723.93	237.51
724.26	237.34
724.59	237.17
724.92	237.02
725.25	236.89
725.59	236.72
725.92	236.59
726.25	236.44
726.58	236.29
726.91	236.12
727.24	236.00
727.57	235.85
727.91	235.68
728.24	235.55
728.57	235.39
728.90	235.26
729.23	235.10
729.56	235.01
729.89	234.90
730.22	234.76
730.55	234.62
730.89	234.50
731.22	234.37
731.55	234.24
731.88	234.12
732.21	233.98
732.54	233.84
732.87	233.72
733.20	233.61
733.53	233.50
733.86	233.41
734.19	233.29
734.52	233.20
734.85	233.18
735.18	233.05
735.51	232.98
735.84	232.88
736.17	232.81
736.50	232.65
736.83	232.67
737.16	232.58
737.49	232.48
737.82	232.38
738.15	232.30
738.48	232.21
738.81	232.12
739.14	232.02
739.47	231.93
739.80	231.83
740.13	231.74
740.46	231.63
740.79	231.51
741.12	231.41
741.45	231.30
741.78	231.15
742.11	231.09
742.44	230.98
742.77	230.90
743.10	230.79
743.43	230.71
743.75	230.52
744.08	230.59
744.41	230.51
744.74	230.43
745.07	230.33
745.40	230.27
745.73	230.23
746.06	230.16
746.39	230.10
746.71	230.02
747.04	229.94
747.37	229.88
747.70	229.84
748.03	229.78
748.36	229.73
748.68	229.67
749.01	229.57
749.34	229.50
749.67	229.44
750.00	229.39
750.33	229.39
750.65	229.34
750.98	229.13
751.31	229.07
751.64	229.02
751.97	229.01
752.29	228.94
752.62	228.84
752.95	228.76
753.28	228.69
753.60	228.63
753.93	228.60
754.26	228.54
754.59	228.45
754.91	228.38
755.24	228.31
755.57	228.29
755.90	228.25
756.22	228.19
756.55	228.12
756.88	228.05
757.20	227.93
757.53	227.85
757.86	227.78
758.19	227.74
758.51	227.67
758.84	227.58
759.17	227.51
759.49	227.47
759.82	227.47
760.15	227.42
760.47	227.37
760.80	227.29
761.13	227.26
761.45	227.21
761.78	227.17
762.11	227.12
762.43	227.02
762.76	226.97
763.08	226.94
763.41	226.90
763.74	226.86
764.06	226.81
764.39	226.77
764.71	226.73
765.04	226.68
765.37	226.64
765.69	226.60
766.02	226.55
766.34	226.51
766.67	226.44
767.00	226.41
767.32	226.42
767.65	226.45
767.97	226.40
768.30	226.38
768.62	226.35
768.95	226.30
769.27	226.27
769.60	226.25
769.92	226.19
770.25	226.15
770.57	226.09
770.90	226.05
771.22	226.01
771.55	225.97
771.87	225.95
772.20	225.91
772.52	225.96
772.85	226.06
773.17	226.04
773.50	225.99
773.82	225.95
774.15	225.88
774.47	225.78
774.80	225.74
775.12	225.71
775.45	225.68
775.77	225.66
776.09	225.63
776.42	225.59
776.74	225.60
777.07	225.56
777.39	225.55
777.72	225.52
778.04	225.51
778.36	225.48
778.69	225.46
779.01	225.44
779.33	225.33
779.66	225.19
779.98	225.15
780.31	225.13
780.63	225.14
780.95	225.14
781.28	225.11
781.60	225.09
781.92	225.07
782.25	225.05
782.57	225.02
782.89	225.01
783.22	224.98
783.54	224.95
783.86	224.95
784.19	224.92
784.51	224.93
784.83	224.90
785.16	224.89
785.48	224.86
785.80	224.85
786.12	224.84
786.45	224.82
786.77	224.80
787.09	224.79
787.42	224.75
787.74	224.74
788.06	224.73
788.38	224.72
788.71	224.70
789.03	224.68
789.35	224.68
789.67	224.64
789.99	224.63
790.32	224.60
790.64	224.60
790.96	224.68
791.28	224.62
791.61	224.61
791.93	224.59
792.25	224.57
792.57	224.63
792.89	224.60
793.21	224.59
793.54	224.57
793.86	224.54
794.18	224.52
794.50	224.48
794.82	224.48
795.14	224.48
795.47	224.48
795.79	224.47
796.11	224.44
796.43	224.43
796.75	224.44
797.07	224.43
797.39	224.40
797.71	224.31
798.04	224.32
798.36	224.32
798.68	224.31
799.00	224.31
799.32	224.25
799.64	224.26
799.96	224.25
800.28	224.26
800.60	224.25
800.92	224.26
801.24	224.25
801.56	224.24
801.89	224.22
802.21	224.22
802.53	224.19
802.85	224.21
803.17	224.24
803.49	224.20
803.81	224.20
804.13	224.18
804.45	224.15
804.77	224.14
805.09	224.13
805.41	224.11
805.73	224.09
806.05	224.06
806.37	224.05
806.69	224.04
807.01	224.02
807.33	224.02
807.65	223.98
807.97	224.01
808.28	223.98
808.60	223.96
808.92	223.93
809.24	223.98
809.56	223.96
809.88	223.91
810.20	223.91
810.52	223.92
810.84	223.89
811.16	223.89
811.48	223.87
811.80	223.90
812.12	223.89
812.43	223.90
812.75	223.89
813.07	223.86
813.39	223.85
813.71	223.83
814.03	223.82
814.35	223.81
814.67	223.77
814.98	223.76
815.30	223.75
815.62	223.74
815.94	223.66
816.26	223.66
816.58	223.63
816.89	223.64
817.21	223.61
817.53	223.61
817.85	223.60
818.17	223.59
818.48	223.55
818.80	223.56
819.12	223.54
819.44	223.52
819.76	223.51
820.07	223.51
820.39	223.50
820.71	223.50
821.03	223.50
821.34	223.49
821.66	223.50
821.98	223.52
822.30	223.51
822.61	223.56
822.93	223.54
823.25	223.55
823.57	223.52
823.88	223.53
824.20	223.52
824.52	223.53
824.83	223.53
825.15	223.51
825.47	223.50
825.79	223.51
826.10	223.50
826.42	223.48
826.74	223.48
827.05	223.48
827.37	223.47
827.69	223.47
828.00	223.46
828.32	223.46
828.64	223.44
828.95	223.48
829.27	223.45
829.58	223.45
829.90	223.46
830.22	223.48
830.53	223.46
830.85	223.46
831.17	223.43
831.48	223.43
831.80	223.43
832.11	223.42
832.43	223.40
832.75	223.40
833.06	223.47
833.38	223.44
833.69	223.44
834.01	223.44
834.32	223.44
834.64	223.42
834.96	223.41
835.27	223.41
835.59	223.37
835.90	223.36
836.22	223.35
836.53	223.32
836.85	223.30
837.16	223.39
837.48	223.40
837.79	223.43
838.11	223.42
838.42	223.42
838.74	223.43
839.05	223.42
839.37	223.42
839.68	223.35
840.00	223.36
840.31	223.36
840.63	223.36
840.94	223.35
841.26	223.35
841.57	223.35
841.88	223.36
842.20	223.35
842.51	223.33
842.83	223.33
843.14	223.43
843.46	223.42
843.77	223.37
844.08	223.36
844.40	223.32
844.71	223.31
845.03	223.31
845.34	223.30
845.65	223.29
845.97	223.28
846.28	223.28
846.60	223.28
846.91	223.27
847.22	223.27
847.54	223.29
847.85	223.29
848.16	223.28
848.48	223.26
848.79	223.30
849.10	223.31
849.42	223.32
849.73	223.23
850.04	223.23
850.36	223.19
850.67	223.20
850.98	223.21
851.30	223.22
851.61	223.21
851.92	223.20
852.23	223.24
852.55	223.26
852.86	223.25
853.17	223.25
853.49	223.28
853.80	223.29
854.11	223.29
854.42	223.30
854.74	223.29
855.05	223.29
855.36	223.24
855.67	223.24
855.99	223.23
856.30	223.35
856.61	223.34
856.92	223.35
857.23	223.35
857.55	223.34
857.86	223.33
858.17	223.35
858.48	223.33
858.79	223.31
859.11	223.31
859.42	223.31
859.73	223.29
860.04	223.28
860.35	223.25
860.66	223.22
860.98	223.21
861.29	223.23
861.60	223.22
861.91	223.25
862.22	223.24
862.53	223.22
862.84	223.10
863.16	223.12
863.47	223.11
863.78	223.09
864.09	223.09
864.40	223.10
864.71	223.09
865.02	223.10
865.33	223.09
865.64	223.07
865.95	223.06
866.27	223.12
866.58	223.10
866.89	223.12
867.20	223.11
867.51	223.09
867.82	223.08
868.13	223.11
868.44	223.08
868.75	223.09
869.06	223.10
869.37	223.11
869.68	223.08
869.99	223.10
870.30	223.10
870.61	223.11
870.92	223.10
871.23	223.09
871.54	223.11
871.85	223.14
872.16	223.15
872.47	223.14
872.78	223.09
873.09	223.10
873.40	223.09
873.71	223.10
874.02	223.11
874.33	223.09
874.64	223.07
874.95	223.09
875.26	223.07
875.56	223.07
875.87	223.05
876.18	223.05
876.49	223.15
876.80	223.15
877.11	223.13
877.42	223.13
877.73	223.13
878.04	223.11
878.35	223.11
878.66	223.10
878.96	223.11
879.27	223.11
879.58	223.10
879.89	223.09
880.20	223.13
880.51	223.11
880.82	223.12
881.12	223.12
881.43	223.10
881.74	223.09
882.05	223.09
882.36	223.10
882.67	223.11
882.97	223.00
883.28	222.99
883.59	222.99
883.90	222.99
884.21	223.01
884.51	223.01
884.82	222.99
885.13	222.99
885.44	222.99
885.74	222.99
886.05	222.99
886.36	222.99
886.67	222.95
886.98	223.01
887.28	223.02
887.59	223.02
887.90	223.02
888.20	223.03
888.51	223.05
888.82	223.02
889.13	223.03
889.43	223.11
889.74	223.10
890.05	223.10
890.35	223.10
890.66	223.08
890.97	223.06
891.28	223.06
891.58	223.06
891.89	223.05
892.20	223.04
892.50	223.03
892.81	223.03
893.12	223.03
893.42	222.98
893.73	222.98
894.04	222.98
894.34	222.98
894.65	222.97
894.95	222.96
895.26	222.98
895.57	223.02
895.87	222.92
896.18	222.93
896.48	222.94
896.79	222.93
897.10	222.95
897.40	222.95
897.71	222.96
898.01	222.95
898.32	222.96
898.63	222.96
898.93	222.96
899.24	222.95
899.54	222.94
899.85	222.93
900.15	222.93
900.46	222.92
900.76	222.94
901.07	222.94
901.38	222.92
901.68	222.94
901.99	222.88
902.29	222.88
902.60	222.88
902.90	222.87
903.21	222.85
903.51	222.84
903.82	222.86
904.12	222.86
904.43	222.86
904.73	222.86
905.03	222.86
905.34	222.96
905.64	222.95
905.95	222.96
906.25	222.96
906.56	222.96
906.86	222.95
907.17	222.93
907.47	222.94
907.77	222.93
908.08	222.90
908.38	222.91
908.69	222.92
908.99	222.94
909.30	222.95
909.60	222.96
909.90	222.96
910.21	222.94
910.51	222.92
910.81	222.92
911.12	222.93
911.42	222.93
911.73	222.82
912.03	222.83
912.33	222.85
912.64	222.84
912.94	222.83
913.24	222.81
913.55	222.81
913.85	222.80
914.15	222.81
914.46	222.83
914.76	222.82
915.06	222.82
915.37	222.80
915.67	222.79
915.97	222.78
916.27	222.76
916.58	222.76
916.88	222.76
917.18	222.75
917.49	222.81
917.79	222.82
918.09	222.83
918.39	222.86
918.70	222.85
919.00	222.86
919.30	222.91
919.60	222.91
919.91	222.90
920.21	222.91
920.51	222.89
920.81	222.88
921.12	222.90
921.42	222.89
921.72	222.91
922.02	222.91
922.32	222.94
922.63	222.94
922.93	223.00
923.23	223.01
923.53	223.00
923.83	222.93
924.13	222.94
924.44	222.95
924.74	222.96
925.04	222.98
925.34	222.98
925.64	222.94
925.94	222.95
926.24	222.99
926.55	222.98
926.85	223.00
927.15	223.00
927.45	222.99
927.75	222.99
928.05	222.98
928.35	222.97
928.65	222.99
928.95	223.00
929.26	222.94
929.56	222.96
929.86	222.98
930.16	222.97
930.46	222.96
930.76	222.97
931.06	222.91
931.36	222.89
931.66	222.91
931.96	222.91
932.26	222.92
932.56	222.88
932.86	222.88
933.16	222.88
933.46	222.87
933.76	222.87
934.06	222.89
934.36	222.93
934.66	222.91
934.96	222.90
935.26	222.91
935.56	222.93
935.86	222.89
936.16	222.88
936.46	222.87
936.76	222.86
937.06	222.84
937.36	222.85
937.66	222.86
937.96	222.84
938.26	222.82
938.56	222.81
938.86	222.82
939.16	222.84
939.46	222.85
939.76	222.86
940.06	222.85
940.35	222.84
940.65	222.80
940.95	222.81
941.25	222.79
941.55	222.77
941.85	222.76
942.15	222.79
942.45	222.81
942.75	222.82
943.04	222.81
943.34	222.82
943.64	222.81
943.94	222.79
944.24	222.80
944.54	222.82
944.84	222.81
945.13	222.79
945.43	222.76
945.73	222.75
946.03	222.74
946.33	222.74
946.62	222.72
946.92	222.72
947.22	222.71
947.52	222.73
947.82	222.74
948.11	222.73
948.41	222.71
948.71	222.67
949.01	222.68
949.31	222.68
949.60	222.67
949.90	222.69
950.20	222.68
950.50	222.67
950.79	222.66
951.09	222.68
951.39	222.67
951.69	222.67
951.98	222.69
952.28	222.70
952.58	222.70
952.87	222.70
953.17	222.71
953.47	222.70
953.76	222.69
954.06	222.66
954.36	222.65
954.66	222.65
954.95	222.69
955.25	222.70
955.55	222.71
955.84	222.69
956.14	222.70
956.44	222.72
956.73	222.70
957.03	222.72
957.32	222.72
957.62	222.73
957.92	222.75
958.21	222.74
958.51	222.86
958.81	222.87
959.10	222.88
959.40	222.90
959.69	222.91
959.99	222.92
960.29	222.93
960.58	222.93
960.88	222.97
961.17	222.95
961.47	222.96
961.76	222.94
962.06	222.97
962.36	222.95
962.65	222.95
962.95	222.96
963.24	222.94
963.54	222.94
963.83	222.94
964.13	222.94
964.42	222.93
964.72	222.84
965.01	222.84
965.31	222.84
965.60	222.82
965.90	222.88
966.19	222.86
966.49	222.86
966.78	222.86
967.08	222.85
967.37	222.85
967.67	222.83
967.96	222.85
968.26	222.85
968.55	222.85
968.85	222.85
969.14	222.85
969.43	222.85
969.73	222.84
970.02	222.83
970.32	222.83
970.61	222.82
970.91	222.78
971.20	222.76
971.49	222.75
971.79	222.76
972.08	222.68
972.38	222.69
972.67	222.68
972.96	222.69
973.26	222.67
973.55	222.70
973.85	222.69
974.14	222.68
974.43	222.68
974.73	222.67
975.02	222.66
975.31	222.66
975.61	222.65
975.90	222.64
976.19	222.64
976.49	222.64
976.78	222.65
977.07	222.64
977.37	222.65
977.66	222.66
977.95	222.64
978.24	222.65
978.54	222.68
978.83	222.67
979.12	222.66
979.42	222.67
979.71	222.64
980.00	222.64
980.29	222.63
980.59	222.61
980.88	222.63
981.17	222.63
981.46	222.63
981.76	222.64
982.05	222.67
982.34	222.66
982.63	222.67
982.93	222.66
983.22	222.69
983.51	222.70
983.80	222.70
984.09	222.73
984.39	222.72
984.68	222.70
984.97	222.72
985.26	222.72
985.55	222.72
985.85	222.70
986.14	222.72
986.43	222.74
986.72	222.74
987.01	222.70
987.30	222.71
987.59	222.70
987.89	222.69
988.18	222.66
988.47	222.66
988.76	222.64
989.05	222.64
989.34	222.61
989.63	222.63
989.92	222.62
990.22	222.61
990.51	222.60
990.80	222.59
991.09	222.60
991.38	222.60
991.67	222.58
991.96	222.58
992.25	222.58
992.54	222.56
992.83	222.56
993.12	222.57
993.41	222.59
993.70	222.63
993.99	222.65
994.28	222.66
994.58	222.68
994.87	222.68
995.16	222.68
995.45	222.67
995.74	222.63
996.03	222.64
996.32	222.65
996.61	222.67
996.90	222.67
997.19	222.67
997.48	222.67
997.77	222.67
998.06	222.68
998.34	222.67
998.63	222.66
998.92	222.66
999.21	222.67
999.50	222.66
999.79	222.63
1000.08	222.63
1000.37	222.62
1000.66	222.61
1000.95	222.64
1001.24	222.63
1001.53	222.65
1001.82	222.66
1002.11	222.65
1002.40	222.65
1002.68	222.67
1002.97	222.74
1003.26	222.72
1003.55	222.70
1003.84	222.71
1004.13	222.74
1004.42	222.74
1004.71	222.74
1004.99	222.74
1005.28	222.77
1005.57	222.76
1005.86	222.76
1006.15	222.75
1006.44	222.74
1006.72	222.76
1007.01	222.74
1007.30	222.75
1007.59	222.74
1007.88	222.73
1008.17	222.73
1008.45	222.71
1008.74	222.68
1009.03	222.63
1009.32	222.63
1009.60	222.64
1009.89	222.63
1010.18	222.58
1010.47	222.59
1010.76	222.59
1011.04	222.59
1011.33	222.59
1011.62	222.59
1011.91	222.61
1012.19	222.60
1012.48	222.60
1012.77	222.60
1013.05	222.63
1013.34	222.62
1013.63	222.62
1013.92	222.63
1014.20	222.62
1014.49	222.62
1014.78	222.63
1015.06	222.61
1015.35	222.62
1015.64	222.62
1015.92	222.64
1016.21	222.66
1016.50	222.66
1016.78	222.66
1017.07	222.67
1017.36	222.66
1017.64	222.65
1017.93	222.64
1018.22	222.64
1018.50	222.64
1018.79	222.63
1019.08	222.59
1019.36	222.60
1019.65	222.59
1019.93	222.62
1020.22	222.64
1020.51	222.69
1020.79	222.68
1021.08	222.50
1021.36	222.48
1021.65	222.64
1021.94	222.55
1022.22	222.65
1022.51	222.35
1022.79	223.05
1023.08	222.78
1023.36	223.84
1023.65	222.36
>>>>>End Processed Spectral Data<<<<<
