SpectraSuite Data File
++++++++++++++++++++++++++++++++++++
Date: Wed Sep 30 18:53:42 EDT 2015
User: lab3
Dark Spectrum Present: No
Reference Spectrum Present: No
Number of Sampled Component Spectra: 1
Spectrometers: USB2E7196
Integration Time (usec): 36000 (USB2E7196)
Spectra Averaged: 5000 (USB2E7196)
Boxcar Smoothing: 10 (USB2E7196)
Correct for Electrical Dark: No (USB2E7196)
Strobe/Lamp Enabled: No (USB2E7196)
Correct for Detector Non-linearity: No (USB2E7196)
Correct for Stray Light: No (USB2E7196)
Number of Pixels in Processed Spectrum: 2048
>>>>>Begin Processed Spectral Data<<<<<
339.09	0.00
339.48	210.35
339.86	211.87
340.24	213.29
340.63	214.61
341.01	217.50
341.39	217.33
341.78	218.64
342.16	219.87
342.54	220.33
342.93	208.94
343.31	219.49
343.69	220.03
344.07	220.49
344.46	220.91
344.84	221.30
345.22	221.54
345.60	221.79
345.99	221.99
346.37	222.12
346.75	222.23
347.13	222.31
347.52	222.38
347.90	222.46
348.28	222.50
348.66	222.55
349.05	222.55
349.43	222.60
349.81	222.65
350.19	222.71
350.57	222.77
350.96	222.85
351.34	222.94
351.72	223.04
352.10	223.15
352.48	223.22
352.87	223.27
353.25	223.34
353.63	223.40
354.01	223.46
354.39	223.54
354.77	223.62
355.15	223.71
355.54	223.76
355.92	223.80
356.30	223.87
356.68	224.01
357.06	224.08
357.44	224.13
357.82	224.19
358.20	224.30
358.58	224.36
358.97	224.42
359.35	224.50
359.73	224.58
360.11	224.63
360.49	224.69
360.87	224.74
361.25	224.80
361.63	224.88
362.01	224.93
362.39	224.96
362.77	225.00
363.15	225.03
363.53	225.07
363.91	225.10
364.29	225.12
364.67	225.05
365.05	225.06
365.43	225.09
365.81	225.12
366.19	225.14
366.57	225.19
366.95	225.19
367.33	225.17
367.71	225.16
368.09	225.17
368.47	225.17
368.85	225.16
369.23	225.17
369.61	225.11
369.99	225.12
370.37	225.11
370.75	225.17
371.13	225.14
371.51	225.10
371.89	225.08
372.27	225.05
372.65	225.02
373.03	224.98
373.41	224.94
373.78	224.89
374.16	224.80
374.54	224.72
374.92	224.67
375.30	224.63
375.68	224.56
376.06	224.52
376.44	224.47
376.82	224.42
377.19	224.38
377.57	224.32
377.95	224.24
378.33	224.18
378.71	224.04
379.09	223.99
379.47	223.95
379.84	223.89
380.22	223.83
380.60	223.76
380.98	223.71
381.36	223.66
381.73	223.60
382.11	223.57
382.49	223.53
382.87	223.47
383.25	223.43
383.62	223.50
384.00	223.43
384.38	223.39
384.76	223.37
385.13	223.35
385.51	223.31
385.89	223.25
386.27	223.22
386.64	223.20
387.02	223.16
387.40	223.11
387.78	223.09
388.15	223.07
388.53	223.03
388.91	223.00
389.29	222.97
389.66	222.95
390.04	222.92
390.42	222.91
390.79	222.89
391.17	222.87
391.55	222.74
391.92	222.73
392.30	222.74
392.68	222.69
393.05	222.68
393.43	222.67
393.81	222.68
394.18	222.65
394.56	222.66
394.94	222.68
395.31	222.68
395.69	222.72
396.06	222.74
396.44	222.76
396.82	222.77
397.19	222.84
397.57	222.85
397.95	222.89
398.32	222.89
398.70	222.93
399.07	222.98
399.45	223.01
399.82	223.05
400.20	223.08
400.58	223.14
400.95	223.15
401.33	223.22
401.70	223.36
402.08	223.45
402.45	223.52
402.83	223.62
403.20	223.72
403.58	223.80
403.95	223.91
404.33	224.04
404.71	224.16
405.08	224.34
405.46	224.48
405.83	224.63
406.21	224.80
406.58	224.98
406.96	225.16
407.33	225.38
407.70	225.61
408.08	225.93
408.45	226.21
408.83	226.51
409.20	226.79
409.58	227.03
409.95	227.37
410.33	227.74
410.70	228.08
411.08	228.48
411.45	228.91
411.82	229.34
412.20	229.84
412.57	230.43
412.95	230.89
413.32	231.50
413.69	232.12
414.07	232.77
414.44	233.49
414.82	234.22
415.19	235.08
415.56	235.95
415.94	236.85
416.31	237.86
416.68	238.88
417.06	240.06
417.43	241.16
417.81	242.44
418.18	243.73
418.55	245.15
418.93	246.63
419.30	248.17
419.67	249.81
420.04	251.50
420.42	253.26
420.79	255.30
421.16	257.36
421.54	259.46
421.91	261.65
422.28	263.92
422.66	266.38
423.03	268.72
423.40	271.18
423.77	273.82
424.15	276.52
424.52	279.33
424.89	282.36
425.26	285.39
425.64	288.20
426.01	291.36
426.38	294.60
426.75	297.95
427.13	301.38
427.50	304.95
427.87	308.67
428.24	312.43
428.61	316.03
428.99	319.90
429.36	324.15
429.73	328.22
430.10	332.29
430.47	336.44
430.85	340.71
431.22	345.26
431.59	349.93
431.96	354.48
432.33	359.53
432.70	364.31
433.08	369.97
433.45	375.30
433.82	380.55
434.19	386.41
434.56	392.17
434.93	397.72
435.30	403.22
435.68	409.39
436.05	415.43
436.42	421.48
436.79	427.00
437.16	432.95
437.53	439.31
437.90	445.66
438.27	451.86
438.64	458.58
439.01	464.66
439.38	470.21
439.75	475.56
440.13	481.66
440.50	487.46
440.87	492.03
441.24	497.04
441.61	502.58
441.98	506.63
442.35	511.43
442.72	516.36
443.09	521.07
443.46	524.08
443.83	526.30
444.20	528.17
444.57	530.90
444.94	532.51
445.31	534.16
445.68	535.62
446.05	536.70
446.42	536.49
446.79	536.17
447.16	535.91
447.53	535.68
447.90	533.82
448.27	532.09
448.64	529.39
449.01	527.58
449.37	523.71
449.74	520.18
450.11	515.66
450.48	510.67
450.85	505.68
451.22	501.42
451.59	497.27
451.96	493.49
452.33	487.97
452.70	483.06
453.07	477.09
453.43	471.10
453.80	465.31
454.17	459.75
454.54	454.59
454.91	448.77
455.28	443.29
455.65	438.14
456.02	432.65
456.38	428.21
456.75	422.50
457.12	417.90
457.49	413.26
457.86	408.83
458.23	404.97
458.59	400.69
458.96	396.29
459.33	392.42
459.70	388.47
460.07	385.47
460.43	381.93
460.80	378.62
461.17	375.69
461.54	372.55
461.91	369.61
462.27	366.63
462.64	364.18
463.01	361.38
463.38	358.55
463.74	355.97
464.11	353.69
464.48	351.62
464.85	349.41
465.21	347.71
465.58	345.84
465.95	343.68
466.32	341.94
466.68	340.25
467.05	338.55
467.42	336.90
467.78	335.12
468.15	333.48
468.52	332.26
468.88	330.67
469.25	329.19
469.62	328.03
469.98	326.76
470.35	325.64
470.72	324.62
471.08	323.58
471.45	322.74
471.82	321.80
472.18	320.82
472.55	320.18
472.92	319.40
473.28	318.79
473.65	318.16
474.02	317.57
474.38	317.07
474.75	316.81
475.11	316.40
475.48	316.24
475.85	316.07
476.21	316.01
476.58	316.02
476.94	316.20
477.31	316.31
477.67	316.45
478.04	316.70
478.41	317.03
478.77	317.48
479.14	317.81
479.50	318.35
479.87	319.02
480.23	319.70
480.60	320.35
480.96	321.03
481.33	321.97
481.69	322.91
482.06	323.84
482.42	324.72
482.79	325.78
483.15	327.00
483.52	328.35
483.88	329.67
484.25	331.08
484.61	332.54
484.98	334.11
485.34	335.87
485.71	337.69
486.07	339.63
486.44	341.56
486.80	343.72
487.17	345.93
487.53	348.36
487.90	350.89
488.26	353.62
488.62	356.51
488.99	359.40
489.35	362.41
489.72	365.66
490.08	369.09
490.44	372.61
490.81	376.30
491.17	380.08
491.54	384.12
491.90	388.25
492.26	392.69
492.63	397.38
492.99	402.25
493.36	407.26
493.72	412.54
494.08	417.95
494.45	423.66
494.81	429.58
495.17	435.60
495.54	441.97
495.90	448.67
496.26	455.49
496.63	462.56
496.99	469.91
497.35	477.63
497.72	485.63
498.08	493.81
498.44	502.21
498.80	511.16
499.17	520.35
499.53	529.87
499.89	539.61
500.26	549.54
500.62	559.74
500.98	570.61
501.34	581.60
501.71	593.12
502.07	604.88
502.43	617.03
502.79	629.56
503.16	642.48
503.52	655.57
503.88	668.99
504.24	682.87
504.60	697.04
504.97	711.59
505.33	726.51
505.69	742.33
506.05	758.37
506.41	774.44
506.78	790.80
507.14	807.65
507.50	825.08
507.86	842.90
508.22	860.99
508.59	879.09
508.95	897.93
509.31	917.22
509.67	937.15
510.03	957.35
510.39	977.76
510.75	998.39
511.12	1019.31
511.48	1040.59
511.84	1061.97
512.20	1083.67
512.56	1106.46
512.92	1129.50
513.28	1152.24
513.64	1175.29
514.00	1198.77
514.37	1222.60
514.73	1246.42
515.09	1270.08
515.45	1294.14
515.81	1318.80
516.17	1343.54
516.53	1367.97
516.89	1392.48
517.25	1417.19
517.61	1442.08
517.97	1467.18
518.33	1492.09
518.69	1517.17
519.05	1542.52
519.41	1568.02
519.77	1593.76
520.13	1618.76
520.49	1643.92
520.85	1669.31
521.21	1694.63
521.57	1720.55
521.93	1745.77
522.29	1771.85
522.65	1797.64
523.01	1823.28
523.37	1848.17
523.73	1873.74
524.09	1899.48
524.45	1925.06
524.81	1950.25
525.17	1975.30
525.53	1999.98
525.89	2024.65
526.25	2049.47
526.61	2073.70
526.97	2098.26
527.33	2122.75
527.68	2147.14
528.04	2170.72
528.40	2194.17
528.76	2217.81
529.12	2240.37
529.48	2263.40
529.84	2284.61
530.20	2306.37
530.56	2327.78
530.91	2349.24
531.27	2370.17
531.63	2390.55
531.99	2410.42
532.35	2430.00
532.71	2449.78
533.07	2470.12
533.42	2488.88
533.78	2508.07
534.14	2527.24
534.50	2545.58
534.86	2564.57
535.21	2581.71
535.57	2598.81
535.93	2615.05
536.29	2630.09
536.65	2645.86
537.00	2660.52
537.36	2675.78
537.72	2690.00
538.08	2704.03
538.44	2716.87
538.79	2729.99
539.15	2741.36
539.51	2752.65
539.87	2763.42
540.22	2771.96
540.58	2780.70
540.94	2790.01
541.29	2797.79
541.65	2804.68
542.01	2811.02
542.37	2815.41
542.72	2821.68
543.08	2827.36
543.44	2833.02
543.79	2837.96
544.15	2842.15
544.51	2846.18
544.87	2849.32
545.22	2851.99
545.58	2853.57
545.94	2855.67
546.29	2856.30
546.65	2857.02
547.01	2857.83
547.36	2858.85
547.72	2860.18
548.07	2859.91
548.43	2859.02
548.79	2857.44
549.14	2855.81
549.50	2854.74
549.86	2852.90
550.21	2848.66
550.57	2844.98
550.92	2839.76
551.28	2835.08
551.64	2830.23
551.99	2825.81
552.35	2821.01
552.70	2815.78
553.06	2811.21
553.41	2806.11
553.77	2800.32
554.13	2795.33
554.48	2789.42
554.84	2781.86
555.19	2774.34
555.55	2766.22
555.90	2758.62
556.26	2752.20
556.61	2745.18
556.97	2735.98
557.32	2727.74
557.68	2719.72
558.03	2710.96
558.39	2702.96
558.74	2695.21
559.10	2686.27
559.45	2676.99
559.81	2667.79
560.16	2658.13
560.52	2647.95
560.87	2638.87
561.23	2629.49
561.58	2619.54
561.94	2609.34
562.29	2598.63
562.64	2588.46
563.00	2578.63
563.35	2568.72
563.71	2557.74
564.06	2546.32
564.42	2535.90
564.77	2525.05
565.12	2514.37
565.48	2503.38
565.83	2493.03
566.19	2482.75
566.54	2472.06
566.89	2460.36
567.25	2448.80
567.60	2438.03
567.96	2426.81
568.31	2414.29
568.66	2401.63
569.02	2390.02
569.37	2378.23
569.72	2366.98
570.08	2354.90
570.43	2342.21
570.78	2329.23
571.14	2316.24
571.49	2303.93
571.84	2291.88
572.20	2278.41
572.55	2265.48
572.90	2252.44
573.26	2238.63
573.61	2224.12
573.96	2209.82
574.31	2195.91
574.67	2182.22
575.02	2167.98
575.37	2153.43
575.72	2139.09
576.08	2125.31
576.43	2110.41
576.78	2095.53
577.13	2081.45
577.49	2067.62
577.84	2054.21
578.19	2039.95
578.54	2025.13
578.90	2009.77
579.25	1994.17
579.60	1980.18
579.95	1965.75
580.30	1951.35
580.66	1937.11
581.01	1922.41
581.36	1908.17
581.71	1894.53
582.06	1880.41
582.42	1866.46
582.77	1853.19
583.12	1839.47
583.47	1825.80
583.82	1812.29
584.17	1798.59
584.53	1784.76
584.88	1770.91
585.23	1756.80
585.58	1743.21
585.93	1729.99
586.28	1717.60
586.63	1705.02
586.98	1691.58
587.34	1678.43
587.69	1664.82
588.04	1651.43
588.39	1638.75
588.74	1625.49
589.09	1612.03
589.44	1598.50
589.79	1585.48
590.14	1572.35
590.49	1559.44
590.84	1546.44
591.19	1534.06
591.54	1521.27
591.89	1508.27
592.25	1495.60
592.60	1482.46
592.95	1469.88
593.30	1457.65
593.65	1445.28
594.00	1433.09
594.35	1421.71
594.70	1409.40
595.05	1398.09
595.40	1386.70
595.75	1374.68
596.10	1363.49
596.45	1352.53
596.80	1342.04
597.15	1331.31
597.50	1320.59
597.85	1310.06
598.19	1299.73
598.54	1288.84
598.89	1278.62
599.24	1268.75
599.59	1258.62
599.94	1249.50
600.29	1240.29
600.64	1230.89
600.99	1220.86
601.34	1211.31
601.69	1201.18
602.04	1192.17
602.39	1183.06
602.74	1174.21
603.08	1165.65
603.43	1156.60
603.78	1147.30
604.13	1138.16
604.48	1128.93
604.83	1119.99
605.18	1110.94
605.53	1101.83
605.87	1092.80
606.22	1084.09
606.57	1075.08
606.92	1066.11
607.27	1057.07
607.62	1048.07
607.96	1039.26
608.31	1031.52
608.66	1023.34
609.01	1015.60
609.36	1007.76
609.70	999.69
610.05	991.45
610.40	983.54
610.75	975.74
611.10	968.25
611.44	960.32
611.79	952.76
612.14	944.82
612.49	937.01
612.83	929.71
613.18	922.50
613.53	915.09
613.88	907.76
614.22	901.10
614.57	894.22
614.92	887.32
615.27	880.44
615.61	873.36
615.96	866.55
616.31	859.62
616.65	852.65
617.00	845.90
617.35	839.25
617.70	832.66
618.04	826.16
618.39	819.68
618.74	813.57
619.08	807.23
619.43	801.15
619.78	795.11
620.12	788.85
620.47	782.78
620.82	776.77
621.16	771.12
621.51	765.08
621.85	759.04
622.20	753.05
622.55	747.24
622.89	741.38
623.24	735.55
623.59	729.84
623.93	724.15
624.28	718.63
624.62	713.09
624.97	707.51
625.32	702.06
625.66	696.48
626.01	690.88
626.35	685.45
626.70	680.06
627.04	674.85
627.39	669.70
627.73	664.64
628.08	659.83
628.43	654.86
628.77	649.95
629.12	645.17
629.46	640.62
629.81	635.89
630.15	631.07
630.50	626.38
630.84	621.86
631.19	617.52
631.53	613.23
631.88	608.84
632.22	604.55
632.57	600.48
632.91	596.37
633.26	592.35
633.60	588.41
633.95	584.61
634.29	580.66
634.64	576.66
634.98	572.54
635.32	568.59
635.67	564.80
636.01	560.97
636.36	557.16
636.70	553.51
637.05	549.82
637.39	546.33
637.73	542.71
638.08	539.18
638.42	535.63
638.77	531.94
639.11	528.24
639.45	524.56
639.80	520.87
640.14	517.37
640.49	513.84
640.83	510.21
641.17	506.58
641.52	503.14
641.86	499.70
642.20	496.44
642.55	493.02
642.89	489.68
643.23	486.54
643.58	483.66
643.92	480.64
644.26	477.67
644.61	474.66
644.95	471.68
645.29	468.62
645.64	465.53
645.98	462.59
646.32	459.83
646.66	457.07
647.01	454.29
647.35	451.57
647.69	448.75
648.04	446.04
648.38	443.37
648.72	440.66
649.06	438.03
649.41	435.45
649.75	432.86
650.09	430.28
650.43	427.70
650.78	425.10
651.12	422.49
651.46	419.97
651.80	417.58
652.14	415.27
652.49	412.97
652.83	410.73
653.17	408.46
653.51	406.27
653.85	404.15
654.20	401.97
654.54	399.70
654.88	397.61
655.22	395.59
655.56	393.55
655.90	391.60
656.25	389.65
656.59	387.69
656.93	385.84
657.27	384.04
657.61	382.14
657.95	380.30
658.29	378.46
658.64	376.66
658.98	374.82
659.32	373.01
659.66	371.31
660.00	369.61
660.34	367.96
660.68	366.25
661.02	364.47
661.36	362.82
661.70	361.23
662.05	359.63
662.39	358.01
662.73	356.47
663.07	354.96
663.41	353.48
663.75	352.03
664.09	350.59
664.43	349.07
664.77	347.65
665.11	346.16
665.45	344.75
665.79	343.34
666.13	341.92
666.47	340.49
666.81	339.04
667.15	337.56
667.49	336.17
667.83	334.84
668.17	333.55
668.51	332.27
668.85	331.03
669.19	329.84
669.53	328.59
669.87	327.31
670.21	326.07
670.55	324.83
670.89	323.66
671.23	322.47
671.57	321.28
671.91	320.15
672.25	319.09
672.58	318.04
672.92	316.94
673.26	315.91
673.60	314.90
673.94	313.86
674.28	312.89
674.62	311.92
674.96	310.90
675.30	309.95
675.64	308.98
675.97	308.01
676.31	307.02
676.65	306.06
676.99	305.16
677.33	304.20
677.67	303.29
678.01	302.30
678.34	301.39
678.68	300.54
679.02	299.65
679.36	298.76
679.70	297.89
680.04	297.04
680.37	296.18
680.71	295.35
681.05	294.58
681.39	293.77
681.73	292.92
682.06	292.11
682.40	291.31
682.74	290.53
683.08	289.79
683.42	289.02
683.75	288.32
684.09	287.54
684.43	286.82
684.77	286.09
685.10	285.41
685.44	284.71
685.78	283.99
686.12	283.31
686.45	282.62
686.79	281.93
687.13	281.26
687.46	280.57
687.80	279.90
688.14	279.18
688.48	278.52
688.81	277.87
689.15	277.27
689.49	276.62
689.82	275.99
690.16	275.31
690.50	274.69
690.83	274.06
691.17	273.45
691.51	272.86
691.84	272.29
692.18	271.68
692.52	271.05
692.85	270.46
693.19	269.91
693.52	269.35
693.86	268.79
694.20	268.24
694.53	267.71
694.87	267.16
695.21	266.65
695.54	266.13
695.88	265.60
696.21	265.04
696.55	264.52
696.88	264.00
697.22	263.51
697.56	263.02
697.89	262.47
698.23	261.95
698.56	261.42
698.90	260.94
699.23	260.45
699.57	260.00
699.90	259.54
700.24	259.04
700.58	258.59
700.91	258.16
701.25	257.81
701.58	257.41
701.92	257.02
702.25	256.59
702.59	256.16
702.92	255.75
703.26	255.35
703.59	254.96
703.93	254.63
704.26	254.25
704.60	253.86
704.93	253.49
705.26	253.12
705.60	252.79
705.93	252.41
706.27	252.09
706.60	251.75
706.94	251.43
707.27	251.05
707.61	250.68
707.94	250.31
708.27	249.87
708.61	249.48
708.94	249.11
709.28	248.77
709.61	248.44
709.94	248.14
710.28	247.82
710.61	247.53
710.95	247.14
711.28	246.92
711.61	246.62
711.95	246.35
712.28	246.06
712.61	245.76
712.95	245.53
713.28	245.30
713.61	245.01
713.95	244.71
714.28	244.47
714.61	244.20
714.95	243.95
715.28	243.68
715.61	243.43
715.95	243.20
716.28	242.95
716.61	242.74
716.95	242.48
717.28	242.26
717.61	242.01
717.94	241.79
718.28	241.49
718.61	241.26
718.94	241.02
719.27	240.80
719.61	240.60
719.94	240.36
720.27	240.09
720.60	239.88
720.94	239.68
721.27	239.49
721.60	239.31
721.93	239.12
722.27	238.97
722.60	238.79
722.93	238.59
723.26	238.42
723.59	238.21
723.93	238.04
724.26	237.87
724.59	237.69
724.92	237.52
725.25	237.38
725.59	237.22
725.92	237.08
726.25	236.91
726.58	236.75
726.91	236.59
727.24	236.44
727.57	236.28
727.91	236.11
728.24	235.96
728.57	235.80
728.90	235.66
729.23	235.48
729.56	235.37
729.89	235.23
730.22	235.07
730.55	234.93
730.89	234.79
731.22	234.64
731.55	234.50
731.88	234.37
732.21	234.21
732.54	234.07
732.87	233.94
733.20	233.82
733.53	233.70
733.86	233.58
734.19	233.45
734.52	233.35
734.85	233.30
735.18	233.17
735.51	233.08
735.84	232.96
736.17	232.88
736.50	232.71
736.83	232.73
737.16	232.62
737.49	232.53
737.82	232.42
738.15	232.34
738.48	232.24
738.81	232.13
739.14	232.01
739.47	231.91
739.80	231.80
740.13	231.71
740.46	231.59
740.79	231.47
741.12	231.38
741.45	231.26
741.78	231.11
742.11	231.04
742.44	230.92
742.77	230.84
743.10	230.73
743.43	230.64
743.75	230.44
744.08	230.50
744.41	230.40
744.74	230.31
745.07	230.19
745.40	230.12
745.73	230.08
746.06	230.00
746.39	229.94
746.71	229.85
747.04	229.76
747.37	229.68
747.70	229.63
748.03	229.55
748.36	229.50
748.68	229.43
749.01	229.32
749.34	229.25
749.67	229.18
750.00	229.13
750.33	229.14
750.65	229.07
750.98	228.85
751.31	228.79
751.64	228.73
751.97	228.72
752.29	228.64
752.62	228.53
752.95	228.46
753.28	228.37
753.60	228.31
753.93	228.27
754.26	228.21
754.59	228.11
754.91	228.04
755.24	227.96
755.57	227.94
755.90	227.88
756.22	227.81
756.55	227.73
756.88	227.64
757.20	227.51
757.53	227.43
757.86	227.37
758.19	227.32
758.51	227.27
758.84	227.16
759.17	227.10
759.49	227.06
759.82	227.06
760.15	227.02
760.47	226.97
760.80	226.89
761.13	226.85
761.45	226.81
761.78	226.76
762.11	226.71
762.43	226.61
762.76	226.56
763.08	226.53
763.41	226.49
763.74	226.45
764.06	226.41
764.39	226.37
764.71	226.32
765.04	226.26
765.37	226.21
765.69	226.16
766.02	226.11
766.34	226.06
766.67	225.97
767.00	225.95
767.32	225.96
767.65	225.99
767.97	225.94
768.30	225.91
768.62	225.87
768.95	225.82
769.27	225.78
769.60	225.76
769.92	225.70
770.25	225.64
770.57	225.59
770.90	225.56
771.22	225.51
771.55	225.48
771.87	225.47
772.20	225.44
772.52	225.49
772.85	225.59
773.17	225.56
773.50	225.53
773.82	225.48
774.15	225.39
774.47	225.29
774.80	225.24
775.12	225.21
775.45	225.18
775.77	225.16
776.09	225.14
776.42	225.11
776.74	225.12
777.07	225.09
777.39	225.06
777.72	225.02
778.04	225.01
778.36	224.98
778.69	224.94
779.01	224.92
779.33	224.81
779.66	224.66
779.98	224.63
780.31	224.62
780.63	224.64
780.95	224.64
781.28	224.62
781.60	224.60
781.92	224.58
782.25	224.56
782.57	224.54
782.89	224.51
783.22	224.47
783.54	224.43
783.86	224.43
784.19	224.41
784.51	224.42
784.83	224.39
785.16	224.37
785.48	224.35
785.80	224.34
786.12	224.33
786.45	224.31
786.77	224.30
787.09	224.27
787.42	224.20
787.74	224.18
788.06	224.17
788.38	224.15
788.71	224.13
789.03	224.12
789.35	224.12
789.67	224.09
789.99	224.08
790.32	224.05
790.64	224.05
790.96	224.12
791.28	224.07
791.61	224.06
791.93	224.05
792.25	224.03
792.57	224.08
792.89	224.05
793.21	224.04
793.54	224.02
793.86	224.00
794.18	224.00
794.50	223.96
794.82	223.94
795.14	223.94
795.47	223.94
795.79	223.94
796.11	223.89
796.43	223.87
796.75	223.86
797.07	223.85
797.39	223.84
797.71	223.74
798.04	223.73
798.36	223.73
798.68	223.71
799.00	223.71
799.32	223.64
799.64	223.65
799.96	223.63
800.28	223.64
800.60	223.63
800.92	223.63
801.24	223.62
801.56	223.61
801.89	223.59
802.21	223.58
802.53	223.55
802.85	223.57
803.17	223.61
803.49	223.58
803.81	223.56
804.13	223.55
804.45	223.52
804.77	223.52
805.09	223.50
805.41	223.49
805.73	223.46
806.05	223.43
806.37	223.41
806.69	223.39
807.01	223.37
807.33	223.37
807.65	223.32
807.97	223.35
808.28	223.33
808.60	223.32
808.92	223.29
809.24	223.35
809.56	223.33
809.88	223.29
810.20	223.28
810.52	223.30
810.84	223.27
811.16	223.26
811.48	223.24
811.80	223.27
812.12	223.26
812.43	223.27
812.75	223.27
813.07	223.26
813.39	223.25
813.71	223.23
814.03	223.22
814.35	223.22
814.67	223.17
814.98	223.16
815.30	223.16
815.62	223.15
815.94	223.07
816.26	223.07
816.58	223.05
816.89	223.05
817.21	223.02
817.53	223.03
817.85	223.03
818.17	223.02
818.48	222.97
818.80	222.99
819.12	222.97
819.44	222.94
819.76	222.93
820.07	222.92
820.39	222.91
820.71	222.92
821.03	222.91
821.34	222.90
821.66	222.92
821.98	222.92
822.30	222.91
822.61	222.97
822.93	222.95
823.25	222.95
823.57	222.93
823.88	222.94
824.20	222.93
824.52	222.94
824.83	222.94
825.15	222.92
825.47	222.91
825.79	222.92
826.10	222.91
826.42	222.90
826.74	222.91
827.05	222.91
827.37	222.90
827.69	222.89
828.00	222.89
828.32	222.88
828.64	222.86
828.95	222.92
829.27	222.88
829.58	222.87
829.90	222.89
830.22	222.90
830.53	222.87
830.85	222.86
831.17	222.83
831.48	222.82
831.80	222.83
832.11	222.82
832.43	222.80
832.75	222.80
833.06	222.87
833.38	222.83
833.69	222.82
834.01	222.82
834.32	222.82
834.64	222.80
834.96	222.80
835.27	222.80
835.59	222.76
835.90	222.74
836.22	222.74
836.53	222.71
836.85	222.69
837.16	222.80
837.48	222.80
837.79	222.84
838.11	222.84
838.42	222.84
838.74	222.85
839.05	222.84
839.37	222.83
839.68	222.76
840.00	222.76
840.31	222.77
840.63	222.76
840.94	222.75
841.26	222.74
841.57	222.73
841.88	222.74
842.20	222.73
842.51	222.71
842.83	222.71
843.14	222.81
843.46	222.80
843.77	222.74
844.08	222.73
844.40	222.69
844.71	222.68
845.03	222.66
845.34	222.65
845.65	222.64
845.97	222.64
846.28	222.64
846.60	222.65
846.91	222.63
847.22	222.63
847.54	222.65
847.85	222.66
848.16	222.65
848.48	222.62
848.79	222.65
849.10	222.67
849.42	222.67
849.73	222.57
850.04	222.57
850.36	222.53
850.67	222.55
850.98	222.56
851.30	222.56
851.61	222.57
851.92	222.56
852.23	222.60
852.55	222.61
852.86	222.61
853.17	222.61
853.49	222.63
853.80	222.65
854.11	222.65
854.42	222.66
854.74	222.65
855.05	222.66
855.36	222.61
855.67	222.61
855.99	222.60
856.30	222.72
856.61	222.72
856.92	222.72
857.23	222.71
857.55	222.70
857.86	222.69
858.17	222.70
858.48	222.69
858.79	222.66
859.11	222.67
859.42	222.66
859.73	222.65
860.04	222.64
860.35	222.61
860.66	222.57
860.98	222.57
861.29	222.57
861.60	222.56
861.91	222.58
862.22	222.57
862.53	222.55
862.84	222.43
863.16	222.45
863.47	222.44
863.78	222.42
864.09	222.43
864.40	222.44
864.71	222.45
865.02	222.46
865.33	222.44
865.64	222.42
865.95	222.42
866.27	222.48
866.58	222.47
866.89	222.49
867.20	222.49
867.51	222.47
867.82	222.47
868.13	222.50
868.44	222.48
868.75	222.49
869.06	222.50
869.37	222.51
869.68	222.48
869.99	222.50
870.30	222.51
870.61	222.51
870.92	222.49
871.23	222.48
871.54	222.50
871.85	222.52
872.16	222.53
872.47	222.52
872.78	222.46
873.09	222.47
873.40	222.46
873.71	222.47
874.02	222.48
874.33	222.47
874.64	222.44
874.95	222.47
875.26	222.45
875.56	222.44
875.87	222.44
876.18	222.44
876.49	222.54
876.80	222.52
877.11	222.51
877.42	222.52
877.73	222.52
878.04	222.50
878.35	222.50
878.66	222.50
878.96	222.50
879.27	222.50
879.58	222.50
879.89	222.49
880.20	222.52
880.51	222.51
880.82	222.51
881.12	222.52
881.43	222.49
881.74	222.47
882.05	222.47
882.36	222.47
882.67	222.48
882.97	222.36
883.28	222.35
883.59	222.35
883.90	222.36
884.21	222.37
884.51	222.36
884.82	222.35
885.13	222.34
885.44	222.34
885.74	222.34
886.05	222.33
886.36	222.34
886.67	222.30
886.98	222.35
887.28	222.36
887.59	222.36
887.90	222.37
888.20	222.37
888.51	222.39
888.82	222.38
889.13	222.39
889.43	222.48
889.74	222.48
890.05	222.47
890.35	222.46
890.66	222.44
890.97	222.43
891.28	222.42
891.58	222.43
891.89	222.42
892.20	222.41
892.50	222.40
892.81	222.39
893.12	222.39
893.42	222.34
893.73	222.33
894.04	222.33
894.34	222.33
894.65	222.33
894.95	222.32
895.26	222.33
895.57	222.36
895.87	222.27
896.18	222.29
896.48	222.29
896.79	222.29
897.10	222.30
897.40	222.31
897.71	222.32
898.01	222.31
898.32	222.32
898.63	222.32
898.93	222.32
899.24	222.32
899.54	222.32
899.85	222.31
900.15	222.31
900.46	222.31
900.76	222.31
901.07	222.31
901.38	222.30
901.68	222.31
901.99	222.25
902.29	222.26
902.60	222.25
902.90	222.24
903.21	222.24
903.51	222.23
903.82	222.25
904.12	222.25
904.43	222.25
904.73	222.24
905.03	222.25
905.34	222.35
905.64	222.35
905.95	222.35
906.25	222.35
906.56	222.34
906.86	222.34
907.17	222.34
907.47	222.34
907.77	222.34
908.08	222.31
908.38	222.32
908.69	222.33
908.99	222.34
909.30	222.35
909.60	222.35
909.90	222.35
910.21	222.32
910.51	222.30
910.81	222.30
911.12	222.31
911.42	222.31
911.73	222.20
912.03	222.21
912.33	222.23
912.64	222.22
912.94	222.21
913.24	222.19
913.55	222.19
913.85	222.18
914.15	222.20
914.46	222.21
914.76	222.21
915.06	222.21
915.37	222.18
915.67	222.18
915.97	222.18
916.27	222.16
916.58	222.17
916.88	222.16
917.18	222.16
917.49	222.23
917.79	222.22
918.09	222.24
918.39	222.27
918.70	222.26
919.00	222.26
919.30	222.31
919.60	222.31
919.91	222.30
920.21	222.30
920.51	222.28
920.81	222.27
921.12	222.28
921.42	222.28
921.72	222.29
922.02	222.29
922.32	222.30
922.63	222.30
922.93	222.36
923.23	222.37
923.53	222.35
923.83	222.28
924.13	222.28
924.44	222.28
924.74	222.29
925.04	222.32
925.34	222.32
925.64	222.27
925.94	222.27
926.24	222.33
926.55	222.33
926.85	222.35
927.15	222.34
927.45	222.34
927.75	222.34
928.05	222.34
928.35	222.33
928.65	222.34
928.95	222.35
929.26	222.30
929.56	222.32
929.86	222.33
930.16	222.32
930.46	222.31
930.76	222.32
931.06	222.26
931.36	222.23
931.66	222.25
931.96	222.26
932.26	222.26
932.56	222.21
932.86	222.22
933.16	222.22
933.46	222.21
933.76	222.19
934.06	222.21
934.36	222.24
934.66	222.23
934.96	222.21
935.26	222.21
935.56	222.23
935.86	222.21
936.16	222.19
936.46	222.18
936.76	222.17
937.06	222.15
937.36	222.16
937.66	222.17
937.96	222.16
938.26	222.14
938.56	222.13
938.86	222.13
939.16	222.15
939.46	222.16
939.76	222.17
940.06	222.17
940.35	222.15
940.65	222.09
940.95	222.10
941.25	222.08
941.55	222.07
941.85	222.06
942.15	222.08
942.45	222.11
942.75	222.11
943.04	222.12
943.34	222.14
943.64	222.13
943.94	222.11
944.24	222.11
944.54	222.12
944.84	222.12
945.13	222.11
945.43	222.08
945.73	222.08
946.03	222.07
946.33	222.06
946.62	222.06
946.92	222.06
947.22	222.06
947.52	222.08
947.82	222.09
948.11	222.08
948.41	222.06
948.71	222.04
949.01	222.04
949.31	222.03
949.60	222.02
949.90	222.05
950.20	222.05
950.50	222.04
950.79	222.04
951.09	222.05
951.39	222.06
951.69	222.04
951.98	222.06
952.28	222.06
952.58	222.06
952.87	222.06
953.17	222.08
953.47	222.06
953.76	222.06
954.06	222.03
954.36	222.02
954.66	222.02
954.95	222.04
955.25	222.05
955.55	222.05
955.84	222.04
956.14	222.04
956.44	222.05
956.73	222.03
957.03	222.04
957.32	222.03
957.62	222.03
957.92	222.06
958.21	222.05
958.51	222.16
958.81	222.17
959.10	222.18
959.40	222.20
959.69	222.21
959.99	222.23
960.29	222.23
960.58	222.23
960.88	222.27
961.17	222.26
961.47	222.27
961.76	222.26
962.06	222.28
962.36	222.27
962.65	222.27
962.95	222.28
963.24	222.26
963.54	222.27
963.83	222.27
964.13	222.26
964.42	222.25
964.72	222.16
965.01	222.16
965.31	222.15
965.60	222.13
965.90	222.20
966.19	222.17
966.49	222.18
966.78	222.18
967.08	222.17
967.37	222.17
967.67	222.15
967.96	222.17
968.26	222.16
968.55	222.17
968.85	222.17
969.14	222.17
969.43	222.17
969.73	222.16
970.02	222.15
970.32	222.15
970.61	222.13
970.91	222.10
971.20	222.09
971.49	222.08
971.79	222.09
972.08	222.01
972.38	222.02
972.67	222.01
972.96	222.02
973.26	222.00
973.55	222.03
973.85	222.03
974.14	222.02
974.43	222.03
974.73	222.01
975.02	221.99
975.31	222.00
975.61	221.99
975.90	221.99
976.19	221.98
976.49	221.99
976.78	221.99
977.07	222.00
977.37	222.00
977.66	222.02
977.95	222.00
978.24	222.01
978.54	222.03
978.83	222.03
979.12	222.02
979.42	222.03
979.71	222.01
980.00	222.01
980.29	222.01
980.59	221.99
980.88	222.02
981.17	222.02
981.46	222.02
981.76	222.01
982.05	222.05
982.34	222.06
982.63	222.06
982.93	222.06
983.22	222.08
983.51	222.09
983.80	222.10
984.09	222.12
984.39	222.11
984.68	222.09
984.97	222.10
985.26	222.09
985.55	222.10
985.85	222.08
986.14	222.09
986.43	222.10
986.72	222.10
987.01	222.07
987.30	222.08
987.59	222.07
987.89	222.08
988.18	222.04
988.47	222.03
988.76	222.02
989.05	222.02
989.34	222.00
989.63	222.03
989.92	222.01
990.22	221.99
990.51	221.99
990.80	221.98
991.09	221.98
991.38	221.99
991.67	221.97
991.96	221.97
992.25	221.97
992.54	221.95
992.83	221.96
993.12	221.95
993.41	221.97
993.70	222.01
993.99	222.03
994.28	222.05
994.58	222.06
994.87	222.06
995.16	222.05
995.45	222.04
995.74	222.00
996.03	222.01
996.32	222.03
996.61	222.05
996.90	222.06
997.19	222.05
997.48	222.06
997.77	222.05
998.06	222.05
998.34	222.04
998.63	222.04
998.92	222.04
999.21	222.06
999.50	222.06
999.79	222.02
1000.08	222.01
1000.37	222.01
1000.66	221.99
1000.95	222.02
1001.24	222.03
1001.53	222.04
1001.82	222.04
1002.11	222.02
1002.40	222.02
1002.68	222.05
1002.97	222.12
1003.26	222.10
1003.55	222.08
1003.84	222.09
1004.13	222.13
1004.42	222.12
1004.71	222.12
1004.99	222.11
1005.28	222.13
1005.57	222.12
1005.86	222.11
1006.15	222.10
1006.44	222.09
1006.72	222.10
1007.01	222.08
1007.30	222.08
1007.59	222.07
1007.88	222.07
1008.17	222.08
1008.45	222.05
1008.74	222.01
1009.03	221.96
1009.32	221.96
1009.60	221.96
1009.89	221.95
1010.18	221.91
1010.47	221.90
1010.76	221.90
1011.04	221.90
1011.33	221.90
1011.62	221.91
1011.91	221.91
1012.19	221.91
1012.48	221.91
1012.77	221.91
1013.05	221.95
1013.34	221.95
1013.63	221.95
1013.92	221.95
1014.20	221.95
1014.49	221.95
1014.78	221.96
1015.06	221.93
1015.35	221.94
1015.64	221.95
1015.92	221.98
1016.21	221.98
1016.50	221.99
1016.78	222.00
1017.07	222.01
1017.36	221.99
1017.64	221.97
1017.93	221.99
1018.22	221.98
1018.50	221.98
1018.79	221.97
1019.08	221.93
1019.36	221.94
1019.65	221.93
1019.93	221.96
1020.22	221.98
1020.51	222.03
1020.79	222.01
1021.08	221.84
1021.36	221.75
1021.65	221.93
1021.94	221.91
1022.22	222.09
1022.51	221.75
1022.79	222.48
1023.08	222.10
1023.36	223.19
1023.65	221.69
>>>>>End Processed Spectral Data<<<<<
