SpectraSuite Data File
++++++++++++++++++++++++++++++++++++
Date: Thu Oct 01 13:53:22 EDT 2015
User: lab3
Dark Spectrum Present: No
Reference Spectrum Present: No
Number of Sampled Component Spectra: 1
Spectrometers: USB2E7196
Integration Time (usec): 36000 (USB2E7196)
Spectra Averaged: 10000 (USB2E7196)
Boxcar Smoothing: 10 (USB2E7196)
Correct for Electrical Dark: No (USB2E7196)
Strobe/Lamp Enabled: No (USB2E7196)
Correct for Detector Non-linearity: No (USB2E7196)
Correct for Stray Light: No (USB2E7196)
Number of Pixels in Processed Spectrum: 2048
>>>>>Begin Processed Spectral Data<<<<<
339.09	0.00
339.48	211.22
339.86	212.71
340.24	214.06
340.63	215.51
341.01	218.43
341.39	218.12
341.78	219.57
342.16	220.72
342.54	221.19
342.93	209.76
343.31	220.36
343.69	220.90
344.07	221.36
344.46	221.80
344.84	222.18
345.22	222.42
345.60	222.68
345.99	222.88
346.37	223.02
346.75	223.12
347.13	223.21
347.52	223.27
347.90	223.36
348.28	223.40
348.66	223.46
349.05	223.46
349.43	223.51
349.81	223.56
350.19	223.62
350.57	223.69
350.96	223.77
351.34	223.86
351.72	223.96
352.10	224.06
352.48	224.14
352.87	224.19
353.25	224.26
353.63	224.32
354.01	224.38
354.39	224.46
354.77	224.54
355.15	224.64
355.54	224.69
355.92	224.73
356.30	224.80
356.68	224.94
357.06	225.01
357.44	225.06
357.82	225.12
358.20	225.23
358.58	225.29
358.97	225.36
359.35	225.44
359.73	225.52
360.11	225.57
360.49	225.62
360.87	225.68
361.25	225.73
361.63	225.82
362.01	225.87
362.39	225.90
362.77	225.95
363.15	225.97
363.53	226.00
363.91	226.03
364.29	226.06
364.67	225.98
365.05	226.01
365.43	226.04
365.81	226.06
366.19	226.08
366.57	226.13
366.95	226.13
367.33	226.10
367.71	226.10
368.09	226.11
368.47	226.10
368.85	226.09
369.23	226.10
369.61	226.05
369.99	226.06
370.37	226.06
370.75	226.11
371.13	226.08
371.51	226.04
371.89	226.02
372.27	225.99
372.65	225.97
373.03	225.93
373.41	225.88
373.78	225.83
374.16	225.74
374.54	225.66
374.92	225.61
375.30	225.57
375.68	225.50
376.06	225.46
376.44	225.40
376.82	225.35
377.19	225.31
377.57	225.25
377.95	225.17
378.33	225.10
378.71	224.96
379.09	224.92
379.47	224.88
379.84	224.82
380.22	224.75
380.60	224.69
380.98	224.64
381.36	224.58
381.73	224.52
382.11	224.49
382.49	224.46
382.87	224.40
383.25	224.35
383.62	224.43
384.00	224.36
384.38	224.33
384.76	224.30
385.13	224.29
385.51	224.25
385.89	224.20
386.27	224.16
386.64	224.14
387.02	224.10
387.40	224.05
387.78	224.02
388.15	224.00
388.53	223.97
388.91	223.94
389.29	223.91
389.66	223.90
390.04	223.86
390.42	223.85
390.79	223.83
391.17	223.81
391.55	223.68
391.92	223.67
392.30	223.66
392.68	223.63
393.05	223.61
393.43	223.60
393.81	223.61
394.18	223.59
394.56	223.59
394.94	223.61
395.31	223.61
395.69	223.65
396.06	223.68
396.44	223.70
396.82	223.71
397.19	223.79
397.57	223.80
397.95	223.84
398.32	223.84
398.70	223.89
399.07	223.95
399.45	223.98
399.82	224.03
400.20	224.06
400.58	224.12
400.95	224.13
401.33	224.22
401.70	224.35
402.08	224.44
402.45	224.52
402.83	224.63
403.20	224.74
403.58	224.82
403.95	224.94
404.33	225.08
404.71	225.21
405.08	225.39
405.46	225.53
405.83	225.69
406.21	225.87
406.58	226.06
406.96	226.26
407.33	226.48
407.70	226.73
408.08	227.06
408.45	227.36
408.83	227.67
409.20	227.96
409.58	228.22
409.95	228.58
410.33	228.97
410.70	229.33
411.08	229.76
411.45	230.22
411.82	230.68
412.20	231.21
412.57	231.84
412.95	232.34
413.32	232.98
413.69	233.64
414.07	234.35
414.44	235.12
414.82	235.90
415.19	236.82
415.56	237.75
415.94	238.72
416.31	239.80
416.68	240.89
417.06	242.16
417.43	243.35
417.81	244.72
418.18	246.11
418.55	247.64
418.93	249.22
419.30	250.88
419.67	252.65
420.04	254.47
420.42	256.37
420.79	258.56
421.16	260.77
421.54	263.01
421.91	265.36
422.28	267.81
422.66	270.44
423.03	272.94
423.40	275.58
423.77	278.40
424.15	281.29
424.52	284.30
424.89	287.55
425.26	290.80
425.64	293.80
426.01	297.18
426.38	300.63
426.75	304.17
427.13	307.80
427.50	311.59
427.87	315.53
428.24	319.51
428.61	323.33
428.99	327.43
429.36	331.94
429.73	336.24
430.10	340.52
430.47	344.89
430.85	349.39
431.22	354.19
431.59	359.11
431.96	363.90
432.33	369.22
432.70	374.24
433.08	380.19
433.45	385.81
433.82	391.34
434.19	397.52
434.56	403.59
434.93	409.45
435.30	415.25
435.68	421.78
436.05	428.16
436.42	434.55
436.79	440.37
437.16	446.66
437.53	453.40
437.90	460.14
438.27	466.72
438.64	473.88
439.01	480.36
439.38	486.29
439.75	492.01
440.13	498.54
440.50	504.78
440.87	509.70
441.24	515.11
441.61	521.07
441.98	525.46
442.35	530.69
442.72	536.05
443.09	541.17
443.46	544.51
443.83	546.98
444.20	549.08
444.57	552.14
444.94	553.99
445.31	555.89
445.68	557.59
446.05	558.89
446.42	558.79
446.79	558.56
447.16	558.38
447.53	558.24
447.90	556.36
448.27	554.60
448.64	551.78
449.01	549.91
449.37	545.84
449.74	542.13
450.11	537.35
450.48	532.07
450.85	526.77
451.22	522.26
451.59	517.86
451.96	513.85
452.33	507.95
452.70	502.70
453.07	496.31
453.43	489.89
453.80	483.67
454.17	477.71
454.54	472.18
454.91	465.92
455.28	460.03
455.65	454.47
456.02	448.53
456.38	443.76
456.75	437.61
457.12	432.64
457.49	427.63
457.86	422.84
458.23	418.64
458.59	414.01
458.96	409.23
459.33	405.02
459.70	400.73
460.07	397.47
460.43	393.63
460.80	390.03
461.17	386.86
461.54	383.44
461.91	380.25
462.27	377.01
462.64	374.36
463.01	371.33
463.38	368.27
463.74	365.52
464.11	363.06
464.48	360.84
464.85	358.46
465.21	356.63
465.58	354.62
465.95	352.31
466.32	350.46
466.68	348.66
467.05	346.85
467.42	345.10
467.78	343.22
468.15	341.48
468.52	340.19
468.88	338.51
469.25	336.97
469.62	335.75
469.98	334.42
470.35	333.25
470.72	332.19
471.08	331.12
471.45	330.23
471.82	329.24
472.18	328.23
472.55	327.57
472.92	326.76
473.28	326.13
473.65	325.48
474.02	324.87
474.38	324.37
474.75	324.10
475.11	323.69
475.48	323.55
475.85	323.40
476.21	323.36
476.58	323.38
476.94	323.60
477.31	323.74
477.67	323.91
478.04	324.19
478.41	324.56
478.77	325.03
479.14	325.39
479.50	325.98
479.87	326.70
480.23	327.43
480.60	328.12
480.96	328.85
481.33	329.84
481.69	330.83
482.06	331.82
482.42	332.75
482.79	333.86
483.15	335.13
483.52	336.56
483.88	337.94
484.25	339.39
484.61	340.92
484.98	342.56
485.34	344.40
485.71	346.30
486.07	348.34
486.44	350.35
486.80	352.60
487.17	354.89
487.53	357.42
487.90	360.05
488.26	362.90
488.62	365.90
488.99	368.91
489.35	372.06
489.72	375.45
490.08	379.03
490.44	382.71
490.81	386.54
491.17	390.48
491.54	394.68
491.90	398.99
492.26	403.63
492.63	408.52
492.99	413.59
493.36	418.78
493.72	424.25
494.08	429.87
494.45	435.81
494.81	441.97
495.17	448.25
495.54	454.89
495.90	461.85
496.26	468.95
496.63	476.30
496.99	483.95
497.35	491.97
497.72	500.28
498.08	508.75
498.44	517.50
498.80	526.83
499.17	536.37
499.53	546.27
499.89	556.39
500.26	566.69
500.62	577.29
500.98	588.59
501.34	600.05
501.71	612.05
502.07	624.28
502.43	636.91
502.79	649.88
503.16	663.28
503.52	676.86
503.88	690.85
504.24	705.25
504.60	719.92
504.97	735.00
505.33	750.50
505.69	766.94
506.05	783.58
506.41	800.19
506.78	817.12
507.14	834.52
507.50	852.55
507.86	870.96
508.22	889.67
508.59	908.41
508.95	927.84
509.31	947.73
509.67	968.36
510.03	989.19
510.39	1010.22
510.75	1031.50
511.12	1053.08
511.48	1074.95
511.84	1096.93
512.20	1119.23
512.56	1142.68
512.92	1166.25
513.28	1189.51
513.64	1213.11
514.00	1237.14
514.37	1261.50
514.73	1285.90
515.09	1310.06
515.45	1334.68
515.81	1359.84
516.17	1385.05
516.53	1409.92
516.89	1434.82
517.25	1459.92
517.61	1485.21
517.97	1510.67
518.33	1535.86
518.69	1561.17
519.05	1586.76
519.41	1612.49
519.77	1638.44
520.13	1663.54
520.49	1688.84
520.85	1714.39
521.21	1739.81
521.57	1765.80
521.93	1791.06
522.29	1817.16
522.65	1842.95
523.01	1868.52
523.37	1893.31
523.73	1918.74
524.09	1944.37
524.45	1969.88
524.81	1994.87
525.17	2019.76
525.53	2044.18
525.89	2068.60
526.25	2093.25
526.61	2117.36
526.97	2141.68
527.33	2165.99
527.68	2190.08
528.04	2213.35
528.40	2236.40
528.76	2259.66
529.12	2281.82
529.48	2304.33
529.84	2324.95
530.20	2346.20
530.56	2367.05
530.91	2387.95
531.27	2408.35
531.63	2428.04
531.99	2447.22
532.35	2466.04
532.71	2484.96
533.07	2504.42
533.42	2522.40
533.78	2540.70
534.14	2559.02
534.50	2576.48
534.86	2594.53
535.21	2610.70
535.57	2626.72
535.93	2642.11
536.29	2656.25
536.65	2671.28
537.00	2685.17
537.36	2699.58
537.72	2712.90
538.08	2725.79
538.44	2737.58
538.79	2749.55
539.15	2759.90
539.51	2770.18
539.87	2780.13
540.22	2787.89
540.58	2795.83
540.94	2804.21
541.29	2811.10
541.65	2816.93
542.01	2822.31
542.37	2825.83
542.72	2831.32
543.08	2836.27
543.44	2841.04
543.79	2845.02
544.15	2848.00
544.51	2851.00
544.87	2853.10
545.22	2854.83
545.58	2855.67
545.94	2856.95
546.29	2856.71
546.65	2856.53
547.01	2856.47
547.36	2856.48
547.72	2856.64
548.07	2855.36
548.43	2853.42
548.79	2850.83
549.14	2848.26
549.50	2846.45
549.86	2843.60
550.21	2838.38
550.57	2833.57
550.92	2827.40
551.28	2821.83
551.64	2816.27
551.99	2811.01
552.35	2805.36
552.70	2799.24
553.06	2793.88
553.41	2788.02
553.77	2781.66
554.13	2776.05
554.48	2769.40
554.84	2761.15
555.19	2753.07
555.55	2744.47
555.90	2736.50
556.26	2729.50
556.61	2721.86
556.97	2711.89
557.32	2702.93
557.68	2694.32
558.03	2685.14
558.39	2676.68
558.74	2668.21
559.10	2658.55
559.45	2648.54
559.81	2638.95
560.16	2628.66
560.52	2617.98
560.87	2608.37
561.23	2598.24
561.58	2587.56
561.94	2576.67
562.29	2565.30
562.64	2554.62
563.00	2544.19
563.35	2533.67
563.71	2522.23
564.06	2510.28
564.42	2499.36
564.77	2488.10
565.12	2476.99
565.48	2465.60
565.83	2454.81
566.19	2444.12
566.54	2432.94
566.89	2420.99
567.25	2408.95
567.60	2397.72
567.96	2386.07
568.31	2372.92
568.66	2359.84
569.02	2347.85
569.37	2335.55
569.72	2323.76
570.08	2311.26
570.43	2298.25
570.78	2284.87
571.14	2271.33
571.49	2258.62
571.84	2246.19
572.20	2232.47
572.55	2219.13
572.90	2205.70
573.26	2191.28
573.61	2176.35
573.96	2161.81
574.31	2147.58
574.67	2133.53
575.02	2119.10
575.37	2104.20
575.72	2089.59
576.08	2075.54
576.43	2060.51
576.78	2045.64
577.13	2031.60
577.49	2017.45
577.84	2003.71
578.19	1989.16
578.54	1974.27
578.90	1958.85
579.25	1943.18
579.60	1928.90
579.95	1914.23
580.30	1899.58
580.66	1885.31
581.01	1870.66
581.36	1856.31
581.71	1842.54
582.06	1828.29
582.42	1814.13
582.77	1800.73
583.12	1786.95
583.47	1773.30
583.82	1759.73
584.17	1746.06
584.53	1732.18
584.88	1718.40
585.23	1704.20
585.58	1690.55
585.93	1677.36
586.28	1665.01
586.63	1652.40
586.98	1639.15
587.34	1626.14
587.69	1612.65
588.04	1599.44
588.39	1586.86
588.74	1573.83
589.09	1560.52
589.44	1547.19
589.79	1534.38
590.14	1521.49
590.49	1508.85
590.84	1496.02
591.19	1483.86
591.54	1471.15
591.89	1458.35
592.25	1445.88
592.60	1433.07
592.95	1420.80
593.30	1408.81
593.65	1396.56
594.00	1384.61
594.35	1373.36
594.70	1361.38
595.05	1350.46
595.40	1339.28
595.75	1327.56
596.10	1316.66
596.45	1305.96
596.80	1295.75
597.15	1285.34
597.50	1274.89
597.85	1264.64
598.19	1254.59
598.54	1243.94
598.89	1234.08
599.24	1224.50
599.59	1214.72
599.94	1205.94
600.29	1197.01
600.64	1187.85
600.99	1178.14
601.34	1168.86
601.69	1159.05
602.04	1150.28
602.39	1141.32
602.74	1132.61
603.08	1124.15
603.43	1115.19
603.78	1106.19
604.13	1097.27
604.48	1088.30
604.83	1079.60
605.18	1070.81
605.53	1061.95
605.87	1053.25
606.22	1044.78
606.57	1036.04
606.92	1027.41
607.27	1018.66
607.62	1010.02
607.96	1001.54
608.31	994.05
608.66	986.13
609.01	978.63
609.36	971.08
609.70	963.30
610.05	955.38
610.40	947.81
610.75	940.33
611.10	933.10
611.44	925.53
611.79	918.24
612.14	910.60
612.49	903.12
612.83	896.09
613.18	889.10
613.53	881.90
613.88	874.83
614.22	868.31
614.57	861.62
614.92	854.92
615.27	848.27
615.61	841.47
615.96	834.89
616.31	828.25
616.65	821.50
617.00	815.00
617.35	808.65
617.70	802.32
618.04	796.05
618.39	789.79
618.74	783.87
619.08	777.79
619.43	771.93
619.78	766.08
620.12	760.06
620.47	754.22
620.82	748.50
621.16	743.05
621.51	737.26
621.85	731.45
622.20	725.71
622.55	720.14
622.89	714.52
623.24	708.94
623.59	703.43
623.93	697.98
624.28	692.68
624.62	687.35
624.97	682.01
625.32	676.80
625.66	671.45
626.01	666.08
626.35	660.86
626.70	655.68
627.04	650.70
627.39	645.76
627.73	640.94
628.08	636.31
628.43	631.57
628.77	626.89
629.12	622.35
629.46	617.96
629.81	613.40
630.15	608.74
630.50	604.25
630.84	599.95
631.19	595.82
631.53	591.71
631.88	587.52
632.22	583.41
632.57	579.52
632.91	575.60
633.26	571.76
633.60	567.99
633.95	564.30
634.29	560.48
634.64	556.63
634.98	552.72
635.32	548.95
635.67	545.31
636.01	541.63
636.36	537.98
636.70	534.47
637.05	530.98
637.39	527.67
637.73	524.23
638.08	520.85
638.42	517.44
638.77	513.91
639.11	510.38
639.45	506.90
639.80	503.40
640.14	500.09
640.49	496.73
640.83	493.27
641.17	489.86
641.52	486.62
641.86	483.35
642.20	480.24
642.55	476.99
642.89	473.83
643.23	470.86
643.58	468.11
643.92	465.25
644.26	462.41
644.61	459.55
644.95	456.71
645.29	453.82
645.64	450.91
645.98	448.13
646.32	445.52
646.66	442.91
647.01	440.28
647.35	437.70
647.69	435.01
648.04	432.49
648.38	429.99
648.72	427.45
649.06	424.99
649.41	422.54
649.75	420.09
650.09	417.67
650.43	415.26
650.78	412.82
651.12	410.37
651.46	408.02
651.80	405.77
652.14	403.58
652.49	401.42
652.83	399.31
653.17	397.18
653.51	395.10
653.85	393.10
654.20	391.03
654.54	388.89
654.88	386.95
655.22	385.05
655.56	383.10
655.90	381.25
656.25	379.40
656.59	377.57
656.93	375.83
657.27	374.13
657.61	372.32
657.95	370.58
658.29	368.86
658.64	367.16
658.98	365.44
659.32	363.76
659.66	362.16
660.00	360.59
660.34	359.04
660.68	357.45
661.02	355.78
661.36	354.24
661.70	352.76
662.05	351.24
662.39	349.72
662.73	348.29
663.07	346.89
663.41	345.51
663.75	344.14
664.09	342.79
664.43	341.35
664.77	340.01
665.11	338.62
665.45	337.30
665.79	335.98
666.13	334.65
666.47	333.30
666.81	331.93
667.15	330.53
667.49	329.23
667.83	327.97
668.17	326.76
668.51	325.57
668.85	324.38
669.19	323.28
669.53	322.11
669.87	320.92
670.21	319.75
670.55	318.59
670.89	317.51
671.23	316.40
671.57	315.31
671.91	314.27
672.25	313.28
672.58	312.28
672.92	311.25
673.26	310.29
673.60	309.33
673.94	308.37
674.28	307.47
674.62	306.55
674.96	305.60
675.30	304.71
675.64	303.78
675.97	302.88
676.31	301.94
676.65	301.02
676.99	300.17
677.33	299.27
677.67	298.42
678.01	297.48
678.34	296.62
678.68	295.81
679.02	294.97
679.36	294.13
679.70	293.31
680.04	292.51
680.37	291.71
680.71	290.94
681.05	290.20
681.39	289.43
681.73	288.62
682.06	287.86
682.40	287.11
682.74	286.39
683.08	285.69
683.42	284.96
683.75	284.31
684.09	283.58
684.43	282.90
684.77	282.20
685.10	281.56
685.44	280.89
685.78	280.21
686.12	279.57
686.45	278.93
686.79	278.27
687.13	277.65
687.46	276.99
687.80	276.36
688.14	275.69
688.48	275.08
688.81	274.47
689.15	273.91
689.49	273.30
689.82	272.71
690.16	272.06
690.50	271.48
690.83	270.90
691.17	270.33
691.51	269.77
691.84	269.23
692.18	268.67
692.52	268.09
692.85	267.54
693.19	267.03
693.52	266.50
693.86	265.98
694.20	265.46
694.53	264.97
694.87	264.47
695.21	263.99
695.54	263.50
695.88	263.01
696.21	262.48
696.55	262.00
696.88	261.52
697.22	261.06
697.56	260.60
697.89	260.09
698.23	259.62
698.56	259.14
698.90	258.69
699.23	258.23
699.57	257.82
699.90	257.39
700.24	256.92
700.58	256.51
700.91	256.11
701.25	255.79
701.58	255.43
701.92	255.06
702.25	254.66
702.59	254.26
702.92	253.89
703.26	253.52
703.59	253.14
703.93	252.86
704.26	252.51
704.60	252.15
704.93	251.81
705.26	251.46
705.60	251.15
705.93	250.80
706.27	250.50
706.60	250.19
706.94	249.89
707.27	249.54
707.61	249.20
707.94	248.86
708.27	248.45
708.61	248.09
708.94	247.76
709.28	247.45
709.61	247.14
709.94	246.86
710.28	246.58
710.61	246.31
710.95	245.95
711.28	245.74
711.61	245.47
711.95	245.23
712.28	244.96
712.61	244.68
712.95	244.48
713.28	244.27
713.61	244.01
713.95	243.73
714.28	243.51
714.61	243.27
714.95	243.04
715.28	242.80
715.61	242.57
715.95	242.35
716.28	242.13
716.61	241.93
716.95	241.70
717.28	241.49
717.61	241.27
717.94	241.06
718.28	240.77
718.61	240.57
718.94	240.34
719.27	240.14
719.61	239.96
719.94	239.74
720.27	239.50
720.60	239.31
720.94	239.13
721.27	238.95
721.60	238.79
721.93	238.61
722.27	238.47
722.60	238.32
722.93	238.13
723.26	237.97
723.59	237.78
723.93	237.63
724.26	237.48
724.59	237.32
724.92	237.17
725.25	237.04
725.59	236.89
725.92	236.76
726.25	236.62
726.58	236.47
726.91	236.32
727.24	236.19
727.57	236.05
727.91	235.90
728.24	235.77
728.57	235.63
728.90	235.51
729.23	235.34
729.56	235.25
729.89	235.12
730.22	234.97
730.55	234.85
730.89	234.71
731.22	234.58
731.55	234.45
731.88	234.34
732.21	234.20
732.54	234.07
732.87	233.96
733.20	233.85
733.53	233.74
733.86	233.64
734.19	233.51
734.52	233.42
734.85	233.39
735.18	233.26
735.51	233.19
735.84	233.08
736.17	233.01
736.50	232.85
736.83	232.88
737.16	232.79
737.49	232.70
737.82	232.61
738.15	232.53
738.48	232.44
738.81	232.33
739.14	232.23
739.47	232.13
739.80	232.03
740.13	231.95
740.46	231.84
740.79	231.74
741.12	231.65
741.45	231.54
741.78	231.40
742.11	231.34
742.44	231.23
742.77	231.16
743.10	231.06
743.43	230.97
743.75	230.78
744.08	230.86
744.41	230.77
744.74	230.68
745.07	230.58
745.40	230.53
745.73	230.49
746.06	230.43
746.39	230.37
746.71	230.29
747.04	230.21
747.37	230.14
747.70	230.08
748.03	230.02
748.36	229.97
748.68	229.90
749.01	229.80
749.34	229.74
749.67	229.67
750.00	229.62
750.33	229.63
750.65	229.58
750.98	229.36
751.31	229.30
751.64	229.25
751.97	229.26
752.29	229.18
752.62	229.07
752.95	229.00
753.28	228.92
753.60	228.86
753.93	228.82
754.26	228.77
754.59	228.68
754.91	228.61
755.24	228.54
755.57	228.53
755.90	228.46
756.22	228.40
756.55	228.32
756.88	228.24
757.20	228.11
757.53	228.03
757.86	227.97
758.19	227.92
758.51	227.86
758.84	227.76
759.17	227.69
759.49	227.65
759.82	227.66
760.15	227.62
760.47	227.58
760.80	227.50
761.13	227.46
761.45	227.42
761.78	227.38
762.11	227.34
762.43	227.24
762.76	227.20
763.08	227.17
763.41	227.14
763.74	227.11
764.06	227.06
764.39	227.03
764.71	226.98
765.04	226.93
765.37	226.88
765.69	226.84
766.02	226.80
766.34	226.75
766.67	226.67
767.00	226.65
767.32	226.67
767.65	226.70
767.97	226.65
768.30	226.62
768.62	226.58
768.95	226.53
769.27	226.49
769.60	226.47
769.92	226.41
770.25	226.36
770.57	226.31
770.90	226.28
771.22	226.24
771.55	226.21
771.87	226.18
772.20	226.15
772.52	226.21
772.85	226.30
773.17	226.28
773.50	226.24
773.82	226.19
774.15	226.11
774.47	226.01
774.80	225.98
775.12	225.95
775.45	225.92
775.77	225.90
776.09	225.88
776.42	225.85
776.74	225.86
777.07	225.83
777.39	225.81
777.72	225.78
778.04	225.77
778.36	225.74
778.69	225.71
779.01	225.69
779.33	225.58
779.66	225.44
779.98	225.41
780.31	225.39
780.63	225.42
780.95	225.41
781.28	225.39
781.60	225.37
781.92	225.35
782.25	225.33
782.57	225.31
782.89	225.29
783.22	225.26
783.54	225.22
783.86	225.21
784.19	225.19
784.51	225.20
784.83	225.16
785.16	225.14
785.48	225.13
785.80	225.11
786.12	225.10
786.45	225.08
786.77	225.07
787.09	225.05
787.42	225.00
787.74	224.98
788.06	224.97
788.38	224.95
788.71	224.93
789.03	224.92
789.35	224.91
789.67	224.89
789.99	224.88
790.32	224.85
790.64	224.85
790.96	224.93
791.28	224.88
791.61	224.86
791.93	224.86
792.25	224.84
792.57	224.90
792.89	224.87
793.21	224.87
793.54	224.85
793.86	224.82
794.18	224.81
794.50	224.78
794.82	224.77
795.14	224.77
795.47	224.78
795.79	224.76
796.11	224.73
796.43	224.71
796.75	224.70
797.07	224.69
797.39	224.67
797.71	224.57
798.04	224.57
798.36	224.56
798.68	224.55
799.00	224.55
799.32	224.49
799.64	224.49
799.96	224.48
800.28	224.49
800.60	224.48
800.92	224.47
801.24	224.45
801.56	224.45
801.89	224.43
802.21	224.43
802.53	224.40
802.85	224.42
803.17	224.46
803.49	224.43
803.81	224.41
804.13	224.40
804.45	224.38
804.77	224.37
805.09	224.36
805.41	224.34
805.73	224.31
806.05	224.28
806.37	224.26
806.69	224.24
807.01	224.22
807.33	224.22
807.65	224.17
807.97	224.21
808.28	224.19
808.60	224.18
808.92	224.16
809.24	224.21
809.56	224.18
809.88	224.14
810.20	224.14
810.52	224.15
810.84	224.13
811.16	224.11
811.48	224.09
811.80	224.13
812.12	224.12
812.43	224.13
812.75	224.13
813.07	224.12
813.39	224.12
813.71	224.10
814.03	224.08
814.35	224.08
814.67	224.03
814.98	224.02
815.30	224.01
815.62	223.99
815.94	223.92
816.26	223.92
816.58	223.90
816.89	223.90
817.21	223.87
817.53	223.88
817.85	223.88
818.17	223.87
818.48	223.83
818.80	223.84
819.12	223.82
819.44	223.80
819.76	223.78
820.07	223.78
820.39	223.77
820.71	223.77
821.03	223.77
821.34	223.75
821.66	223.76
821.98	223.77
822.30	223.76
822.61	223.82
822.93	223.80
823.25	223.79
823.57	223.78
823.88	223.79
824.20	223.78
824.52	223.79
824.83	223.78
825.15	223.77
825.47	223.76
825.79	223.76
826.10	223.75
826.42	223.75
826.74	223.75
827.05	223.75
827.37	223.75
827.69	223.74
828.00	223.75
828.32	223.74
828.64	223.73
828.95	223.78
829.27	223.75
829.58	223.75
829.90	223.76
830.22	223.76
830.53	223.74
830.85	223.73
831.17	223.70
831.48	223.70
831.80	223.70
832.11	223.69
832.43	223.67
832.75	223.67
833.06	223.74
833.38	223.71
833.69	223.70
834.01	223.70
834.32	223.69
834.64	223.67
834.96	223.67
835.27	223.67
835.59	223.63
835.90	223.61
836.22	223.61
836.53	223.58
836.85	223.57
837.16	223.67
837.48	223.67
837.79	223.71
838.11	223.71
838.42	223.71
838.74	223.72
839.05	223.71
839.37	223.70
839.68	223.63
840.00	223.63
840.31	223.64
840.63	223.63
840.94	223.62
841.26	223.61
841.57	223.60
841.88	223.61
842.20	223.59
842.51	223.58
842.83	223.57
843.14	223.67
843.46	223.67
843.77	223.60
844.08	223.60
844.40	223.56
844.71	223.55
845.03	223.54
845.34	223.53
845.65	223.52
845.97	223.52
846.28	223.53
846.60	223.53
846.91	223.51
847.22	223.51
847.54	223.53
847.85	223.54
848.16	223.53
848.48	223.51
848.79	223.55
849.10	223.56
849.42	223.57
849.73	223.47
850.04	223.47
850.36	223.43
850.67	223.45
850.98	223.45
851.30	223.46
851.61	223.45
851.92	223.45
852.23	223.48
852.55	223.48
852.86	223.48
853.17	223.48
853.49	223.50
853.80	223.53
854.11	223.53
854.42	223.54
854.74	223.53
855.05	223.53
855.36	223.47
855.67	223.47
855.99	223.47
856.30	223.59
856.61	223.59
856.92	223.59
857.23	223.59
857.55	223.57
857.86	223.56
858.17	223.58
858.48	223.56
858.79	223.53
859.11	223.54
859.42	223.53
859.73	223.52
860.04	223.51
860.35	223.48
860.66	223.45
860.98	223.44
861.29	223.45
861.60	223.44
861.91	223.47
862.22	223.45
862.53	223.44
862.84	223.32
863.16	223.34
863.47	223.32
863.78	223.31
864.09	223.32
864.40	223.32
864.71	223.32
865.02	223.34
865.33	223.33
865.64	223.31
865.95	223.31
866.27	223.37
866.58	223.36
866.89	223.37
867.20	223.37
867.51	223.35
867.82	223.35
868.13	223.38
868.44	223.35
868.75	223.37
869.06	223.37
869.37	223.38
869.68	223.36
869.99	223.37
870.30	223.38
870.61	223.38
870.92	223.37
871.23	223.36
871.54	223.37
871.85	223.39
872.16	223.40
872.47	223.40
872.78	223.34
873.09	223.35
873.40	223.34
873.71	223.34
874.02	223.35
874.33	223.34
874.64	223.32
874.95	223.34
875.26	223.32
875.56	223.31
875.87	223.31
876.18	223.30
876.49	223.41
876.80	223.40
877.11	223.38
877.42	223.38
877.73	223.38
878.04	223.37
878.35	223.36
878.66	223.36
878.96	223.36
879.27	223.35
879.58	223.35
879.89	223.35
880.20	223.37
880.51	223.37
880.82	223.37
881.12	223.38
881.43	223.36
881.74	223.35
882.05	223.34
882.36	223.35
882.67	223.36
882.97	223.25
883.28	223.24
883.59	223.24
883.90	223.25
884.21	223.26
884.51	223.25
884.82	223.24
885.13	223.24
885.44	223.24
885.74	223.24
886.05	223.23
886.36	223.23
886.67	223.19
886.98	223.24
887.28	223.25
887.59	223.24
887.90	223.24
888.20	223.24
888.51	223.26
888.82	223.24
889.13	223.25
889.43	223.33
889.74	223.33
890.05	223.33
890.35	223.31
890.66	223.30
890.97	223.29
891.28	223.28
891.58	223.28
891.89	223.28
892.20	223.27
892.50	223.26
892.81	223.25
893.12	223.26
893.42	223.20
893.73	223.21
894.04	223.21
894.34	223.21
894.65	223.21
894.95	223.19
895.26	223.20
895.57	223.23
895.87	223.13
896.18	223.15
896.48	223.16
896.79	223.16
897.10	223.17
897.40	223.18
897.71	223.19
898.01	223.18
898.32	223.19
898.63	223.19
898.93	223.20
899.24	223.20
899.54	223.19
899.85	223.19
900.15	223.18
900.46	223.17
900.76	223.18
901.07	223.18
901.38	223.18
901.68	223.19
901.99	223.14
902.29	223.15
902.60	223.14
902.90	223.12
903.21	223.12
903.51	223.11
903.82	223.13
904.12	223.12
904.43	223.13
904.73	223.12
905.03	223.13
905.34	223.22
905.64	223.22
905.95	223.22
906.25	223.22
906.56	223.22
906.86	223.21
907.17	223.20
907.47	223.21
907.77	223.20
908.08	223.18
908.38	223.19
908.69	223.19
908.99	223.20
909.30	223.21
909.60	223.21
909.90	223.22
910.21	223.19
910.51	223.17
910.81	223.17
911.12	223.18
911.42	223.18
911.73	223.07
912.03	223.08
912.33	223.10
912.64	223.09
912.94	223.08
913.24	223.07
913.55	223.06
913.85	223.05
914.15	223.07
914.46	223.09
914.76	223.07
915.06	223.07
915.37	223.05
915.67	223.04
915.97	223.04
916.27	223.02
916.58	223.02
916.88	223.03
917.18	223.02
917.49	223.09
917.79	223.08
918.09	223.09
918.39	223.11
918.70	223.11
919.00	223.12
919.30	223.17
919.60	223.16
919.91	223.15
920.21	223.16
920.51	223.13
920.81	223.12
921.12	223.14
921.42	223.14
921.72	223.15
922.02	223.15
922.32	223.17
922.63	223.17
922.93	223.23
923.23	223.23
923.53	223.22
923.83	223.15
924.13	223.16
924.44	223.16
924.74	223.17
925.04	223.19
925.34	223.19
925.64	223.14
925.94	223.14
926.24	223.20
926.55	223.19
926.85	223.20
927.15	223.20
927.45	223.20
927.75	223.20
928.05	223.19
928.35	223.19
928.65	223.20
928.95	223.20
929.26	223.16
929.56	223.18
929.86	223.19
930.16	223.19
930.46	223.17
930.76	223.17
931.06	223.13
931.36	223.10
931.66	223.11
931.96	223.12
932.26	223.12
932.56	223.08
932.86	223.09
933.16	223.09
933.46	223.08
933.76	223.06
934.06	223.08
934.36	223.12
934.66	223.11
934.96	223.10
935.26	223.10
935.56	223.11
935.86	223.09
936.16	223.07
936.46	223.07
936.76	223.06
937.06	223.04
937.36	223.05
937.66	223.06
937.96	223.05
938.26	223.03
938.56	223.03
938.86	223.03
939.16	223.05
939.46	223.06
939.76	223.07
940.06	223.07
940.35	223.05
940.65	223.00
940.95	223.01
941.25	222.99
941.55	222.97
941.85	222.96
942.15	222.99
942.45	223.01
942.75	223.01
943.04	223.02
943.34	223.04
943.64	223.03
943.94	223.01
944.24	223.01
944.54	223.02
944.84	223.02
945.13	223.01
945.43	222.99
945.73	222.99
946.03	222.98
946.33	222.97
946.62	222.96
946.92	222.96
947.22	222.96
947.52	222.97
947.82	222.98
948.11	222.97
948.41	222.95
948.71	222.93
949.01	222.93
949.31	222.92
949.60	222.91
949.90	222.92
950.20	222.92
950.50	222.92
950.79	222.91
951.09	222.92
951.39	222.92
951.69	222.91
951.98	222.93
952.28	222.93
952.58	222.93
952.87	222.94
953.17	222.95
953.47	222.94
953.76	222.94
954.06	222.92
954.36	222.91
954.66	222.91
954.95	222.94
955.25	222.94
955.55	222.95
955.84	222.94
956.14	222.95
956.44	222.95
956.73	222.94
957.03	222.95
957.32	222.95
957.62	222.94
957.92	222.97
958.21	222.95
958.51	223.07
958.81	223.09
959.10	223.09
959.40	223.11
959.69	223.12
959.99	223.13
960.29	223.14
960.58	223.13
960.88	223.17
961.17	223.16
961.47	223.16
961.76	223.15
962.06	223.17
962.36	223.16
962.65	223.16
962.95	223.17
963.24	223.15
963.54	223.16
963.83	223.16
964.13	223.15
964.42	223.14
964.72	223.05
965.01	223.05
965.31	223.04
965.60	223.01
965.90	223.08
966.19	223.05
966.49	223.05
966.78	223.05
967.08	223.04
967.37	223.04
967.67	223.02
967.96	223.04
968.26	223.03
968.55	223.05
968.85	223.05
969.14	223.05
969.43	223.04
969.73	223.03
970.02	223.03
970.32	223.02
970.61	223.00
970.91	222.97
971.20	222.96
971.49	222.95
971.79	222.96
972.08	222.89
972.38	222.90
972.67	222.89
972.96	222.91
973.26	222.89
973.55	222.92
973.85	222.91
974.14	222.90
974.43	222.91
974.73	222.89
975.02	222.88
975.31	222.88
975.61	222.88
975.90	222.87
976.19	222.87
976.49	222.87
976.78	222.88
977.07	222.88
977.37	222.89
977.66	222.90
977.95	222.89
978.24	222.90
978.54	222.91
978.83	222.91
979.12	222.89
979.42	222.89
979.71	222.87
980.00	222.87
980.29	222.88
980.59	222.86
980.88	222.89
981.17	222.88
981.46	222.88
981.76	222.88
982.05	222.92
982.34	222.93
982.63	222.93
982.93	222.93
983.22	222.95
983.51	222.96
983.80	222.97
984.09	222.98
984.39	222.97
984.68	222.96
984.97	222.97
985.26	222.96
985.55	222.96
985.85	222.94
986.14	222.95
986.43	222.97
986.72	222.96
987.01	222.93
987.30	222.93
987.59	222.93
987.89	222.93
988.18	222.90
988.47	222.89
988.76	222.88
989.05	222.87
989.34	222.85
989.63	222.88
989.92	222.87
990.22	222.85
990.51	222.85
990.80	222.84
991.09	222.86
991.38	222.87
991.67	222.86
991.96	222.86
992.25	222.86
992.54	222.85
992.83	222.85
993.12	222.85
993.41	222.86
993.70	222.90
993.99	222.92
994.28	222.94
994.58	222.96
994.87	222.95
995.16	222.94
995.45	222.93
995.74	222.89
996.03	222.90
996.32	222.92
996.61	222.94
996.90	222.94
997.19	222.93
997.48	222.93
997.77	222.92
998.06	222.92
998.34	222.91
998.63	222.91
998.92	222.91
999.21	222.93
999.50	222.93
999.79	222.89
1000.08	222.88
1000.37	222.88
1000.66	222.86
1000.95	222.89
1001.24	222.90
1001.53	222.92
1001.82	222.91
1002.11	222.89
1002.40	222.90
1002.68	222.92
1002.97	222.99
1003.26	222.98
1003.55	222.96
1003.84	222.97
1004.13	223.01
1004.42	223.00
1004.71	223.00
1004.99	222.99
1005.28	223.01
1005.57	223.00
1005.86	222.99
1006.15	222.98
1006.44	222.96
1006.72	222.97
1007.01	222.95
1007.30	222.95
1007.59	222.94
1007.88	222.94
1008.17	222.94
1008.45	222.92
1008.74	222.87
1009.03	222.82
1009.32	222.83
1009.60	222.83
1009.89	222.83
1010.18	222.78
1010.47	222.77
1010.76	222.78
1011.04	222.78
1011.33	222.78
1011.62	222.79
1011.91	222.80
1012.19	222.80
1012.48	222.81
1012.77	222.80
1013.05	222.84
1013.34	222.84
1013.63	222.82
1013.92	222.83
1014.20	222.83
1014.49	222.83
1014.78	222.84
1015.06	222.81
1015.35	222.82
1015.64	222.83
1015.92	222.84
1016.21	222.85
1016.50	222.86
1016.78	222.87
1017.07	222.88
1017.36	222.86
1017.64	222.84
1017.93	222.85
1018.22	222.84
1018.50	222.84
1018.79	222.84
1019.08	222.81
1019.36	222.82
1019.65	222.81
1019.93	222.83
1020.22	222.85
1020.51	222.90
1020.79	222.89
1021.08	222.69
1021.36	222.69
1021.65	222.86
1021.94	222.81
1022.22	222.91
1022.51	222.62
1022.79	223.29
1023.08	222.95
1023.36	224.03
1023.65	222.58
>>>>>End Processed Spectral Data<<<<<
