SpectraSuite Data File
++++++++++++++++++++++++++++++++++++
Date: Wed Sep 30 21:36:31 EDT 2015
User: lab3
Dark Spectrum Present: No
Reference Spectrum Present: No
Number of Sampled Component Spectra: 1
Spectrometers: USB2E7196
Integration Time (usec): 36000 (USB2E7196)
Spectra Averaged: 10000 (USB2E7196)
Boxcar Smoothing: 10 (USB2E7196)
Correct for Electrical Dark: No (USB2E7196)
Strobe/Lamp Enabled: No (USB2E7196)
Correct for Detector Non-linearity: No (USB2E7196)
Correct for Stray Light: No (USB2E7196)
Number of Pixels in Processed Spectrum: 2048
>>>>>Begin Processed Spectral Data<<<<<
339.09	0.00
339.48	211.42
339.86	212.88
340.24	214.23
340.63	215.73
341.01	218.61
341.39	218.48
341.78	219.71
342.16	220.96
342.54	221.40
342.93	209.94
343.31	220.55
343.69	221.09
344.07	221.55
344.46	221.98
344.84	222.36
345.22	222.60
345.60	222.85
345.99	223.04
346.37	223.18
346.75	223.28
347.13	223.36
347.52	223.43
347.90	223.51
348.28	223.54
348.66	223.60
349.05	223.59
349.43	223.64
349.81	223.69
350.19	223.74
350.57	223.81
350.96	223.89
351.34	223.97
351.72	224.07
352.10	224.17
352.48	224.24
352.87	224.30
353.25	224.36
353.63	224.42
354.01	224.49
354.39	224.57
354.77	224.64
355.15	224.74
355.54	224.80
355.92	224.84
356.30	224.91
356.68	225.05
357.06	225.13
357.44	225.18
357.82	225.24
358.20	225.35
358.58	225.41
358.97	225.48
359.35	225.56
359.73	225.64
360.11	225.69
360.49	225.75
360.87	225.80
361.25	225.86
361.63	225.94
362.01	225.99
362.39	226.02
362.77	226.07
363.15	226.09
363.53	226.13
363.91	226.16
364.29	226.19
364.67	226.11
365.05	226.14
365.43	226.17
365.81	226.19
366.19	226.21
366.57	226.26
366.95	226.26
367.33	226.24
367.71	226.23
368.09	226.25
368.47	226.25
368.85	226.24
369.23	226.25
369.61	226.19
369.99	226.21
370.37	226.20
370.75	226.26
371.13	226.23
371.51	226.19
371.89	226.17
372.27	226.14
372.65	226.12
373.03	226.08
373.41	226.03
373.78	225.99
374.16	225.90
374.54	225.82
374.92	225.77
375.30	225.73
375.68	225.67
376.06	225.62
376.44	225.56
376.82	225.52
377.19	225.46
377.57	225.42
377.95	225.33
378.33	225.27
378.71	225.13
379.09	225.08
379.47	225.04
379.84	224.98
380.22	224.92
380.60	224.85
380.98	224.80
381.36	224.74
381.73	224.68
382.11	224.65
382.49	224.61
382.87	224.54
383.25	224.50
383.62	224.57
384.00	224.51
384.38	224.47
384.76	224.45
385.13	224.43
385.51	224.39
385.89	224.34
386.27	224.30
386.64	224.28
387.02	224.24
387.40	224.19
387.78	224.16
388.15	224.13
388.53	224.10
388.91	224.07
389.29	224.04
389.66	224.03
390.04	223.99
390.42	223.98
390.79	223.97
391.17	223.95
391.55	223.81
391.92	223.80
392.30	223.80
392.68	223.76
393.05	223.74
393.43	223.73
393.81	223.74
394.18	223.72
394.56	223.72
394.94	223.75
395.31	223.74
395.69	223.78
396.06	223.81
396.44	223.83
396.82	223.84
397.19	223.91
397.57	223.92
397.95	223.96
398.32	223.95
398.70	223.99
399.07	224.05
399.45	224.09
399.82	224.13
400.20	224.16
400.58	224.22
400.95	224.23
401.33	224.31
401.70	224.44
402.08	224.52
402.45	224.60
402.83	224.71
403.20	224.81
403.58	224.89
403.95	225.01
404.33	225.14
404.71	225.27
405.08	225.45
405.46	225.59
405.83	225.75
406.21	225.92
406.58	226.11
406.96	226.30
407.33	226.51
407.70	226.75
408.08	227.08
408.45	227.36
408.83	227.66
409.20	227.95
409.58	228.20
409.95	228.54
410.33	228.91
410.70	229.26
411.08	229.68
411.45	230.11
411.82	230.55
412.20	231.05
412.57	231.65
412.95	232.12
413.32	232.73
413.69	233.36
414.07	234.03
414.44	234.75
414.82	235.49
415.19	236.36
415.56	237.24
415.94	238.15
416.31	239.18
416.68	240.20
417.06	241.39
417.43	242.51
417.81	243.80
418.18	245.11
418.55	246.54
418.93	248.03
419.30	249.59
419.67	251.25
420.04	252.95
420.42	254.73
420.79	256.79
421.16	258.86
421.54	260.97
421.91	263.18
422.28	265.47
422.66	267.94
423.03	270.29
423.40	272.77
423.77	275.41
424.15	278.12
424.52	280.95
424.89	284.00
425.26	287.04
425.64	289.85
426.01	293.03
426.38	296.28
426.75	299.62
427.13	303.05
427.50	306.62
427.87	310.35
428.24	314.10
428.61	317.69
428.99	321.56
429.36	325.81
429.73	329.88
430.10	333.94
430.47	338.07
430.85	342.32
431.22	346.86
431.59	351.52
431.96	356.05
432.33	361.07
432.70	365.82
433.08	371.45
433.45	376.76
433.82	381.98
434.19	387.81
434.56	393.52
434.93	399.04
435.30	404.50
435.68	410.64
436.05	416.65
436.42	422.66
436.79	428.13
437.16	434.03
437.53	440.34
437.90	446.65
438.27	452.82
438.64	459.51
439.01	465.56
439.38	471.08
439.75	476.42
440.13	482.51
440.50	488.30
440.87	492.86
441.24	497.88
441.61	503.43
441.98	507.49
442.35	512.33
442.72	517.29
443.09	522.03
443.46	525.09
443.83	527.36
444.20	529.29
444.57	532.11
444.94	533.79
445.31	535.54
445.68	537.11
446.05	538.28
446.42	538.17
446.79	537.95
447.16	537.78
447.53	537.66
447.90	535.90
448.27	534.26
448.64	531.64
449.01	529.92
449.37	526.13
449.74	522.69
450.11	518.27
450.48	513.37
450.85	508.46
451.22	504.29
451.59	500.20
451.96	496.48
452.33	491.02
452.70	486.16
453.07	480.21
453.43	474.26
453.80	468.50
454.17	462.97
454.54	457.84
454.91	452.03
455.28	446.56
455.65	441.40
456.02	435.91
456.38	431.49
456.75	425.77
457.12	421.17
457.49	416.51
457.86	412.06
458.23	408.17
458.59	403.86
458.96	399.43
459.33	395.53
459.70	391.55
460.07	388.52
460.43	384.95
460.80	381.60
461.17	378.65
461.54	375.46
461.91	372.49
462.27	369.46
462.64	366.99
463.01	364.15
463.38	361.29
463.74	358.69
464.11	356.38
464.48	354.30
464.85	352.06
465.21	350.35
465.58	348.46
465.95	346.27
466.32	344.53
466.68	342.82
467.05	341.11
467.42	339.46
467.78	337.67
468.15	336.01
468.52	334.78
468.88	333.18
469.25	331.71
469.62	330.54
469.98	329.27
470.35	328.14
470.72	327.11
471.08	326.08
471.45	325.22
471.82	324.28
472.18	323.29
472.55	322.65
472.92	321.86
473.28	321.24
473.65	320.60
474.02	320.00
474.38	319.51
474.75	319.23
475.11	318.82
475.48	318.66
475.85	318.51
476.21	318.45
476.58	318.45
476.94	318.64
477.31	318.76
477.67	318.91
478.04	319.16
478.41	319.50
478.77	319.95
479.14	320.28
479.50	320.83
479.87	321.51
480.23	322.20
480.60	322.86
480.96	323.55
481.33	324.50
481.69	325.45
482.06	326.39
482.42	327.28
482.79	328.34
483.15	329.56
483.52	330.93
483.88	332.25
484.25	333.66
484.61	335.12
484.98	336.70
485.34	338.47
485.71	340.31
486.07	342.26
486.44	344.20
486.80	346.36
487.17	348.57
487.53	351.01
487.90	353.54
488.26	356.28
488.62	359.17
488.99	362.06
489.35	365.09
489.72	368.35
490.08	371.79
490.44	375.32
490.81	379.01
491.17	382.80
491.54	386.85
491.90	390.99
492.26	395.44
492.63	400.13
492.99	405.01
493.36	410.01
493.72	415.29
494.08	420.70
494.45	426.41
494.81	432.33
495.17	438.37
495.54	444.75
495.90	451.44
496.26	458.27
496.63	465.34
496.99	472.69
497.35	480.40
497.72	488.40
498.08	496.56
498.44	504.99
498.80	513.95
499.17	523.14
499.53	532.67
499.89	542.42
500.26	552.35
500.62	562.56
500.98	573.43
501.34	584.43
501.71	595.99
502.07	607.75
502.43	619.92
502.79	632.41
503.16	645.31
503.52	658.38
503.88	671.84
504.24	685.72
504.60	699.88
504.97	714.43
505.33	729.36
505.69	745.19
506.05	761.20
506.41	777.21
506.78	793.55
507.14	810.36
507.50	827.76
507.86	845.57
508.22	863.62
508.59	881.70
508.95	900.50
509.31	919.71
509.67	939.64
510.03	959.78
510.39	980.13
510.75	1000.71
511.12	1021.61
511.48	1042.80
511.84	1064.12
512.20	1085.76
512.56	1108.48
512.92	1131.41
513.28	1154.04
513.64	1177.03
514.00	1200.41
514.37	1224.10
514.73	1247.86
515.09	1271.44
515.45	1295.42
515.81	1319.98
516.17	1344.57
516.53	1368.88
516.89	1393.27
517.25	1417.83
517.61	1442.58
517.97	1467.58
518.33	1492.31
518.69	1517.16
519.05	1542.29
519.41	1567.55
519.77	1593.09
520.13	1617.86
520.49	1642.82
520.85	1668.02
521.21	1693.11
521.57	1718.84
521.93	1743.86
522.29	1769.71
522.65	1795.28
523.01	1820.68
523.37	1845.33
523.73	1870.68
524.09	1896.20
524.45	1921.58
524.81	1946.51
525.17	1971.33
525.53	1995.74
525.89	2020.23
526.25	2044.93
526.61	2069.08
526.97	2093.53
527.33	2117.91
527.68	2142.05
528.04	2165.41
528.40	2188.61
528.76	2212.02
529.12	2234.40
529.48	2257.16
529.84	2278.08
530.20	2299.58
530.56	2320.70
530.91	2341.96
531.27	2362.70
531.63	2382.78
531.99	2402.36
532.35	2421.64
532.71	2441.04
533.07	2460.98
533.42	2479.43
533.78	2498.21
534.14	2516.99
534.50	2534.91
534.86	2553.48
535.21	2570.25
535.57	2586.90
535.93	2602.93
536.29	2617.67
536.65	2633.27
537.00	2647.73
537.36	2662.70
537.72	2676.67
538.08	2690.33
538.44	2702.81
538.79	2715.46
539.15	2726.47
539.51	2737.41
539.87	2747.96
540.22	2756.34
540.58	2764.94
540.94	2774.00
541.29	2781.67
541.65	2788.30
542.01	2794.41
542.37	2798.70
542.72	2804.98
543.08	2810.64
543.44	2816.09
543.79	2820.77
544.15	2824.49
544.51	2828.25
544.87	2831.12
545.22	2833.55
545.58	2834.96
545.94	2836.89
546.29	2837.37
546.65	2837.91
547.01	2838.59
547.36	2839.35
547.72	2840.29
548.07	2839.71
548.43	2838.52
548.79	2836.68
549.14	2834.87
549.50	2833.73
549.86	2831.53
550.21	2826.91
550.57	2822.80
550.92	2817.32
551.28	2812.46
551.64	2807.55
551.99	2802.99
552.35	2798.00
552.70	2792.58
553.06	2787.95
553.41	2782.77
553.77	2776.97
554.13	2771.96
554.48	2765.90
554.84	2758.30
555.19	2750.90
555.55	2742.86
555.90	2735.43
556.26	2728.98
556.61	2721.84
556.97	2712.51
557.32	2704.16
557.68	2696.16
558.03	2687.53
558.39	2679.57
558.74	2671.76
559.10	2662.77
559.45	2653.38
559.81	2644.37
560.16	2634.60
560.52	2624.45
560.87	2615.34
561.23	2605.80
561.58	2595.80
561.94	2585.54
562.29	2574.79
562.64	2564.58
563.00	2554.74
563.35	2544.71
563.71	2533.73
564.06	2522.32
564.42	2511.92
564.77	2501.16
565.12	2490.49
565.48	2479.61
565.83	2469.40
566.19	2459.19
566.54	2448.48
566.89	2436.94
567.25	2425.28
567.60	2414.52
567.96	2403.28
568.31	2390.61
568.66	2377.96
569.02	2366.35
569.37	2354.50
569.72	2343.15
570.08	2331.09
570.43	2318.52
570.78	2305.59
571.14	2292.50
571.49	2280.18
571.84	2268.18
572.20	2254.84
572.55	2241.89
572.90	2228.79
573.26	2214.70
573.61	2200.06
573.96	2185.79
574.31	2171.84
574.67	2158.16
575.02	2144.08
575.37	2129.51
575.72	2115.24
576.08	2101.57
576.43	2086.78
576.78	2072.11
577.13	2058.20
577.49	2044.34
577.84	2030.81
578.19	2016.47
578.54	2001.75
578.90	1986.52
579.25	1971.02
579.60	1957.00
579.95	1942.60
580.30	1928.20
580.66	1914.12
581.01	1899.66
581.36	1885.56
581.71	1872.04
582.06	1857.96
582.42	1843.94
582.77	1830.67
583.12	1817.03
583.47	1803.46
583.82	1790.03
584.17	1776.48
584.53	1762.80
584.88	1749.10
585.23	1735.04
585.58	1721.51
585.93	1708.39
586.28	1696.12
586.63	1683.59
586.98	1670.34
587.34	1657.32
587.69	1643.84
588.04	1630.61
588.39	1618.04
588.74	1604.94
589.09	1591.60
589.44	1578.26
589.79	1565.44
590.14	1552.54
590.49	1539.81
590.84	1526.94
591.19	1514.71
591.54	1501.97
591.89	1489.08
592.25	1476.51
592.60	1463.59
592.95	1451.23
593.30	1439.19
593.65	1426.89
594.00	1414.84
594.35	1403.51
594.70	1391.45
595.05	1380.43
595.40	1369.20
595.75	1357.39
596.10	1346.38
596.45	1335.59
596.80	1325.24
597.15	1314.69
597.50	1304.12
597.85	1293.78
598.19	1283.63
598.54	1272.84
598.89	1262.82
599.24	1253.08
599.59	1243.13
599.94	1234.20
600.29	1225.14
600.64	1215.84
600.99	1205.96
601.34	1196.56
601.69	1186.59
602.04	1177.66
602.39	1168.56
602.74	1159.75
603.08	1151.17
603.43	1142.08
603.78	1132.89
604.13	1123.86
604.48	1114.75
604.83	1105.91
605.18	1096.99
605.53	1087.99
605.87	1079.14
606.22	1070.54
606.57	1061.70
606.92	1052.93
607.27	1043.99
607.62	1035.17
607.96	1026.51
608.31	1018.89
608.66	1010.81
609.01	1003.20
609.36	995.52
609.70	987.60
610.05	979.52
610.40	971.79
610.75	964.16
611.10	956.82
611.44	949.08
611.79	941.65
612.14	933.82
612.49	926.17
612.83	918.98
613.18	911.87
613.53	904.55
613.88	897.32
614.22	890.71
614.57	883.91
614.92	877.09
615.27	870.29
615.61	863.35
615.96	856.62
616.31	849.81
616.65	842.90
617.00	836.26
617.35	829.75
617.70	823.27
618.04	816.87
618.39	810.46
618.74	804.41
619.08	798.17
619.43	792.20
619.78	786.22
620.12	780.06
620.47	774.07
620.82	768.19
621.16	762.62
621.51	756.68
621.85	750.74
622.20	744.87
622.55	739.19
622.89	733.44
623.24	727.75
623.59	722.14
623.93	716.56
624.28	711.12
624.62	705.66
624.97	700.18
625.32	694.81
625.66	689.32
626.01	683.81
626.35	678.45
626.70	673.12
627.04	667.99
627.39	662.90
627.73	657.94
628.08	653.19
628.43	648.32
628.77	643.53
629.12	638.87
629.46	634.39
629.81	629.70
630.15	624.92
630.50	620.29
630.84	615.85
631.19	611.61
631.53	607.40
631.88	603.08
632.22	598.88
632.57	594.92
632.91	590.89
633.26	586.95
633.60	583.09
633.95	579.34
634.29	575.45
634.64	571.52
634.98	567.48
635.32	563.60
635.67	559.84
636.01	556.04
636.36	552.28
636.70	548.65
637.05	545.03
637.39	541.61
637.73	538.05
638.08	534.56
638.42	531.03
638.77	527.38
639.11	523.72
639.45	520.09
639.80	516.47
640.14	513.05
640.49	509.57
640.83	505.97
641.17	502.43
641.52	499.05
641.86	495.65
642.20	492.44
642.55	489.08
642.89	485.81
643.23	482.74
643.58	479.91
643.92	476.95
644.26	474.02
644.61	471.07
644.95	468.13
645.29	465.14
645.64	462.12
645.98	459.24
646.32	456.54
646.66	453.85
647.01	451.11
647.35	448.42
647.69	445.61
648.04	442.98
648.38	440.36
648.72	437.71
649.06	435.14
649.41	432.59
649.75	430.03
650.09	427.52
650.43	424.99
650.78	422.43
651.12	419.86
651.46	417.42
651.80	415.06
652.14	412.79
652.49	410.52
652.83	408.31
653.17	406.08
653.51	403.92
653.85	401.82
654.20	399.67
654.54	397.44
654.88	395.41
655.22	393.42
655.56	391.39
655.90	389.47
656.25	387.55
656.59	385.64
656.93	383.82
657.27	382.03
657.61	380.16
657.95	378.35
658.29	376.55
658.64	374.77
658.98	372.97
659.32	371.19
659.66	369.52
660.00	367.87
660.34	366.26
660.68	364.58
661.02	362.84
661.36	361.22
661.70	359.67
662.05	358.09
662.39	356.51
662.73	355.02
663.07	353.55
663.41	352.09
663.75	350.67
664.09	349.25
664.43	347.74
664.77	346.35
665.11	344.89
665.45	343.51
665.79	342.13
666.13	340.74
666.47	339.33
666.81	337.91
667.15	336.45
667.49	335.09
667.83	333.78
668.17	332.50
668.51	331.25
668.85	330.03
669.19	328.87
669.53	327.64
669.87	326.39
670.21	325.17
670.55	323.96
670.89	322.83
671.23	321.67
671.57	320.51
671.91	319.42
672.25	318.39
672.58	317.34
672.92	316.27
673.26	315.26
673.60	314.26
673.94	313.24
674.28	312.30
674.62	311.34
674.96	310.35
675.30	309.42
675.64	308.46
675.97	307.52
676.31	306.54
676.65	305.59
676.99	304.70
677.33	303.76
677.67	302.87
678.01	301.90
678.34	301.00
678.68	300.16
679.02	299.29
679.36	298.42
679.70	297.56
680.04	296.72
680.37	295.88
680.71	295.07
681.05	294.32
681.39	293.52
681.73	292.68
682.06	291.88
682.40	291.10
682.74	290.34
683.08	289.61
683.42	288.85
683.75	288.17
684.09	287.42
684.43	286.70
684.77	285.98
685.10	285.30
685.44	284.60
685.78	283.89
686.12	283.23
686.45	282.54
686.79	281.87
687.13	281.21
687.46	280.53
687.80	279.88
688.14	279.17
688.48	278.53
688.81	277.89
689.15	277.30
689.49	276.67
689.82	276.05
690.16	275.38
690.50	274.77
690.83	274.15
691.17	273.55
691.51	272.98
691.84	272.41
692.18	271.82
692.52	271.22
692.85	270.64
693.19	270.10
693.52	269.55
693.86	269.00
694.20	268.46
694.53	267.94
694.87	267.40
695.21	266.90
695.54	266.39
695.88	265.87
696.21	265.31
696.55	264.80
696.88	264.30
697.22	263.81
697.56	263.32
697.89	262.78
698.23	262.27
698.56	261.76
698.90	261.28
699.23	260.80
699.57	260.35
699.90	259.89
700.24	259.40
700.58	258.95
700.91	258.53
701.25	258.19
701.58	257.81
701.92	257.42
702.25	257.00
702.59	256.57
702.92	256.18
703.26	255.78
703.59	255.38
703.93	255.07
704.26	254.70
704.60	254.31
704.93	253.96
705.26	253.59
705.60	253.27
705.93	252.89
706.27	252.57
706.60	252.24
706.94	251.93
707.27	251.55
707.61	251.19
707.94	250.82
708.27	250.39
708.61	250.01
708.94	249.65
709.28	249.32
709.61	248.99
709.94	248.69
710.28	248.39
710.61	248.11
710.95	247.73
711.28	247.50
711.61	247.21
711.95	246.95
712.28	246.66
712.61	246.36
712.95	246.14
713.28	245.91
713.61	245.63
713.95	245.34
714.28	245.11
714.61	244.85
714.95	244.60
715.28	244.34
715.61	244.10
715.95	243.87
716.28	243.63
716.61	243.42
716.95	243.18
717.28	242.95
717.61	242.71
717.94	242.49
718.28	242.20
718.61	241.97
718.94	241.73
719.27	241.52
719.61	241.32
719.94	241.09
720.27	240.83
720.60	240.62
720.94	240.42
721.27	240.23
721.60	240.06
721.93	239.87
722.27	239.71
722.60	239.54
722.93	239.34
723.26	239.17
723.59	238.96
723.93	238.79
724.26	238.63
724.59	238.45
724.92	238.29
725.25	238.15
725.59	237.99
725.92	237.85
726.25	237.69
726.58	237.53
726.91	237.37
727.24	237.23
727.57	237.08
727.91	236.91
728.24	236.78
728.57	236.62
728.90	236.48
729.23	236.31
729.56	236.20
729.89	236.06
730.22	235.92
730.55	235.78
730.89	235.64
731.22	235.50
731.55	235.36
731.88	235.23
732.21	235.08
732.54	234.95
732.87	234.83
733.20	234.71
733.53	234.59
733.86	234.48
734.19	234.35
734.52	234.25
734.85	234.21
735.18	234.07
735.51	233.99
735.84	233.87
736.17	233.79
736.50	233.63
736.83	233.64
737.16	233.54
737.49	233.45
737.82	233.34
738.15	233.26
738.48	233.16
738.81	233.05
739.14	232.94
739.47	232.84
739.80	232.73
740.13	232.64
740.46	232.53
740.79	232.41
741.12	232.32
741.45	232.20
741.78	232.05
742.11	231.99
742.44	231.87
742.77	231.79
743.10	231.68
743.43	231.59
743.75	231.39
744.08	231.46
744.41	231.36
744.74	231.27
745.07	231.16
745.40	231.09
745.73	231.05
746.06	230.98
746.39	230.92
746.71	230.83
747.04	230.74
747.37	230.67
747.70	230.61
748.03	230.54
748.36	230.49
748.68	230.41
749.01	230.31
749.34	230.24
749.67	230.18
750.00	230.12
750.33	230.13
750.65	230.07
750.98	229.86
751.31	229.79
751.64	229.74
751.97	229.73
752.29	229.65
752.62	229.53
752.95	229.45
753.28	229.37
753.60	229.31
753.93	229.27
754.26	229.21
754.59	229.11
754.91	229.03
755.24	228.95
755.57	228.94
755.90	228.87
756.22	228.80
756.55	228.72
756.88	228.64
757.20	228.51
757.53	228.42
757.86	228.36
758.19	228.31
758.51	228.25
758.84	228.15
759.17	228.08
759.49	228.04
759.82	228.03
760.15	227.99
760.47	227.94
760.80	227.86
761.13	227.82
761.45	227.78
761.78	227.74
762.11	227.70
762.43	227.60
762.76	227.55
763.08	227.52
763.41	227.48
763.74	227.44
764.06	227.40
764.39	227.36
764.71	227.32
765.04	227.26
765.37	227.21
765.69	227.18
766.02	227.14
766.34	227.08
766.67	227.01
767.00	226.98
767.32	227.00
767.65	227.02
767.97	226.97
768.30	226.94
768.62	226.90
768.95	226.85
769.27	226.81
769.60	226.78
769.92	226.73
770.25	226.68
770.57	226.63
770.90	226.59
771.22	226.55
771.55	226.51
771.87	226.49
772.20	226.45
772.52	226.51
772.85	226.60
773.17	226.57
773.50	226.53
773.82	226.49
774.15	226.41
774.47	226.32
774.80	226.28
775.12	226.24
775.45	226.21
775.77	226.19
776.09	226.17
776.42	226.14
776.74	226.14
777.07	226.12
777.39	226.10
777.72	226.06
778.04	226.06
778.36	226.02
778.69	226.00
779.01	225.98
779.33	225.87
779.66	225.73
779.98	225.70
780.31	225.68
780.63	225.70
780.95	225.70
781.28	225.68
781.60	225.65
781.92	225.63
782.25	225.61
782.57	225.59
782.89	225.56
783.22	225.53
783.54	225.49
783.86	225.48
784.19	225.45
784.51	225.47
784.83	225.43
785.16	225.41
785.48	225.40
785.80	225.38
786.12	225.37
786.45	225.36
786.77	225.35
787.09	225.32
787.42	225.27
787.74	225.25
788.06	225.24
788.38	225.23
788.71	225.20
789.03	225.19
789.35	225.19
789.67	225.16
789.99	225.16
790.32	225.13
790.64	225.13
790.96	225.21
791.28	225.16
791.61	225.14
791.93	225.14
792.25	225.11
792.57	225.17
792.89	225.14
793.21	225.13
793.54	225.10
793.86	225.08
794.18	225.08
794.50	225.04
794.82	225.02
795.14	225.02
795.47	225.03
795.79	225.02
796.11	224.98
796.43	224.97
796.75	224.95
797.07	224.95
797.39	224.92
797.71	224.82
798.04	224.82
798.36	224.81
798.68	224.80
799.00	224.79
799.32	224.73
799.64	224.74
799.96	224.73
800.28	224.73
800.60	224.72
800.92	224.71
801.24	224.70
801.56	224.70
801.89	224.68
802.21	224.67
802.53	224.64
802.85	224.65
803.17	224.69
803.49	224.66
803.81	224.64
804.13	224.63
804.45	224.61
804.77	224.60
805.09	224.59
805.41	224.57
805.73	224.55
806.05	224.51
806.37	224.49
806.69	224.47
807.01	224.45
807.33	224.45
807.65	224.40
807.97	224.44
808.28	224.41
808.60	224.40
808.92	224.37
809.24	224.43
809.56	224.40
809.88	224.35
810.20	224.35
810.52	224.37
810.84	224.34
811.16	224.33
811.48	224.31
811.80	224.34
812.12	224.33
812.43	224.35
812.75	224.35
813.07	224.33
813.39	224.33
813.71	224.32
814.03	224.30
814.35	224.31
814.67	224.26
814.98	224.25
815.30	224.24
815.62	224.22
815.94	224.15
816.26	224.16
816.58	224.13
816.89	224.14
817.21	224.11
817.53	224.11
817.85	224.12
818.17	224.11
818.48	224.07
818.80	224.08
819.12	224.06
819.44	224.03
819.76	224.01
820.07	224.00
820.39	224.00
820.71	224.00
821.03	224.00
821.34	223.99
821.66	224.00
821.98	224.01
822.30	224.00
822.61	224.06
822.93	224.04
823.25	224.03
823.57	224.01
823.88	224.02
824.20	224.02
824.52	224.03
824.83	224.02
825.15	224.01
825.47	224.00
825.79	224.00
826.10	224.00
826.42	224.00
826.74	224.00
827.05	223.99
827.37	223.99
827.69	223.98
828.00	223.98
828.32	223.98
828.64	223.96
828.95	224.02
829.27	223.98
829.58	223.98
829.90	223.99
830.22	224.00
830.53	223.98
830.85	223.96
831.17	223.94
831.48	223.94
831.80	223.94
832.11	223.93
832.43	223.91
832.75	223.91
833.06	223.97
833.38	223.93
833.69	223.93
834.01	223.93
834.32	223.92
834.64	223.91
834.96	223.90
835.27	223.90
835.59	223.85
835.90	223.84
836.22	223.83
836.53	223.81
836.85	223.79
837.16	223.89
837.48	223.89
837.79	223.92
838.11	223.91
838.42	223.91
838.74	223.92
839.05	223.91
839.37	223.90
839.68	223.83
840.00	223.83
840.31	223.84
840.63	223.82
840.94	223.81
841.26	223.80
841.57	223.80
841.88	223.80
842.20	223.79
842.51	223.77
842.83	223.77
843.14	223.86
843.46	223.86
843.77	223.80
844.08	223.79
844.40	223.76
844.71	223.75
845.03	223.73
845.34	223.72
845.65	223.71
845.97	223.71
846.28	223.71
846.60	223.72
846.91	223.70
847.22	223.70
847.54	223.72
847.85	223.73
848.16	223.71
848.48	223.69
848.79	223.73
849.10	223.75
849.42	223.75
849.73	223.65
850.04	223.64
850.36	223.60
850.67	223.61
850.98	223.62
851.30	223.63
851.61	223.63
851.92	223.62
852.23	223.66
852.55	223.66
852.86	223.66
853.17	223.66
853.49	223.68
853.80	223.70
854.11	223.71
854.42	223.72
854.74	223.70
855.05	223.71
855.36	223.65
855.67	223.65
855.99	223.64
856.30	223.77
856.61	223.76
856.92	223.76
857.23	223.77
857.55	223.75
857.86	223.74
858.17	223.76
858.48	223.75
858.79	223.72
859.11	223.73
859.42	223.73
859.73	223.71
860.04	223.71
860.35	223.67
860.66	223.64
860.98	223.64
861.29	223.66
861.60	223.65
861.91	223.68
862.22	223.66
862.53	223.64
862.84	223.52
863.16	223.54
863.47	223.53
863.78	223.51
864.09	223.52
864.40	223.52
864.71	223.52
865.02	223.53
865.33	223.52
865.64	223.50
865.95	223.50
866.27	223.56
866.58	223.55
866.89	223.56
867.20	223.57
867.51	223.54
867.82	223.54
868.13	223.57
868.44	223.55
868.75	223.57
869.06	223.57
869.37	223.59
869.68	223.56
869.99	223.58
870.30	223.58
870.61	223.59
870.92	223.57
871.23	223.56
871.54	223.58
871.85	223.60
872.16	223.62
872.47	223.60
872.78	223.55
873.09	223.56
873.40	223.55
873.71	223.55
874.02	223.56
874.33	223.56
874.64	223.53
874.95	223.55
875.26	223.52
875.56	223.52
875.87	223.52
876.18	223.52
876.49	223.62
876.80	223.61
877.11	223.59
877.42	223.60
877.73	223.60
878.04	223.58
878.35	223.58
878.66	223.58
878.96	223.58
879.27	223.57
879.58	223.57
879.89	223.56
880.20	223.58
880.51	223.58
880.82	223.58
881.12	223.58
881.43	223.56
881.74	223.55
882.05	223.55
882.36	223.55
882.67	223.56
882.97	223.44
883.28	223.44
883.59	223.43
883.90	223.44
884.21	223.45
884.51	223.45
884.82	223.43
885.13	223.43
885.44	223.43
885.74	223.43
886.05	223.42
886.36	223.43
886.67	223.39
886.98	223.44
887.28	223.45
887.59	223.44
887.90	223.45
888.20	223.44
888.51	223.46
888.82	223.44
889.13	223.45
889.43	223.54
889.74	223.53
890.05	223.53
890.35	223.52
890.66	223.50
890.97	223.49
891.28	223.48
891.58	223.48
891.89	223.48
892.20	223.47
892.50	223.46
892.81	223.45
893.12	223.45
893.42	223.40
893.73	223.40
894.04	223.40
894.34	223.41
894.65	223.41
894.95	223.40
895.26	223.40
895.57	223.44
895.87	223.34
896.18	223.36
896.48	223.36
896.79	223.36
897.10	223.37
897.40	223.38
897.71	223.39
898.01	223.38
898.32	223.39
898.63	223.39
898.93	223.40
899.24	223.40
899.54	223.39
899.85	223.39
900.15	223.38
900.46	223.38
900.76	223.39
901.07	223.38
901.38	223.37
901.68	223.38
901.99	223.33
902.29	223.34
902.60	223.33
902.90	223.32
903.21	223.31
903.51	223.30
903.82	223.32
904.12	223.31
904.43	223.32
904.73	223.31
905.03	223.31
905.34	223.41
905.64	223.40
905.95	223.40
906.25	223.41
906.56	223.40
906.86	223.40
907.17	223.39
907.47	223.40
907.77	223.40
908.08	223.37
908.38	223.38
908.69	223.38
908.99	223.40
909.30	223.41
909.60	223.41
909.90	223.41
910.21	223.39
910.51	223.37
910.81	223.37
911.12	223.38
911.42	223.38
911.73	223.27
912.03	223.29
912.33	223.31
912.64	223.30
912.94	223.29
913.24	223.27
913.55	223.26
913.85	223.26
914.15	223.28
914.46	223.29
914.76	223.28
915.06	223.28
915.37	223.26
915.67	223.25
915.97	223.24
916.27	223.23
916.58	223.23
916.88	223.23
917.18	223.22
917.49	223.28
917.79	223.28
918.09	223.30
918.39	223.32
918.70	223.31
919.00	223.32
919.30	223.36
919.60	223.36
919.91	223.35
920.21	223.35
920.51	223.33
920.81	223.32
921.12	223.34
921.42	223.34
921.72	223.34
922.02	223.35
922.32	223.36
922.63	223.37
922.93	223.42
923.23	223.42
923.53	223.41
923.83	223.35
924.13	223.36
924.44	223.35
924.74	223.36
925.04	223.38
925.34	223.38
925.64	223.34
925.94	223.34
926.24	223.40
926.55	223.39
926.85	223.40
927.15	223.40
927.45	223.40
927.75	223.40
928.05	223.40
928.35	223.40
928.65	223.41
928.95	223.42
929.26	223.37
929.56	223.39
929.86	223.41
930.16	223.40
930.46	223.38
930.76	223.39
931.06	223.34
931.36	223.31
931.66	223.32
931.96	223.34
932.26	223.34
932.56	223.30
932.86	223.30
933.16	223.30
933.46	223.29
933.76	223.28
934.06	223.30
934.36	223.33
934.66	223.32
934.96	223.31
935.26	223.31
935.56	223.32
935.86	223.29
936.16	223.28
936.46	223.27
936.76	223.26
937.06	223.25
937.36	223.26
937.66	223.26
937.96	223.26
938.26	223.24
938.56	223.23
938.86	223.23
939.16	223.26
939.46	223.26
939.76	223.27
940.06	223.27
940.35	223.25
940.65	223.20
940.95	223.20
941.25	223.18
941.55	223.17
941.85	223.16
942.15	223.18
942.45	223.21
942.75	223.21
943.04	223.21
943.34	223.23
943.64	223.23
943.94	223.21
944.24	223.20
944.54	223.21
944.84	223.21
945.13	223.19
945.43	223.17
945.73	223.17
946.03	223.16
946.33	223.15
946.62	223.13
946.92	223.13
947.22	223.14
947.52	223.15
947.82	223.16
948.11	223.15
948.41	223.13
948.71	223.10
949.01	223.10
949.31	223.09
949.60	223.08
949.90	223.10
950.20	223.09
950.50	223.09
950.79	223.08
951.09	223.10
951.39	223.10
951.69	223.09
951.98	223.11
952.28	223.12
952.58	223.12
952.87	223.12
953.17	223.14
953.47	223.13
953.76	223.13
954.06	223.11
954.36	223.10
954.66	223.09
954.95	223.13
955.25	223.13
955.55	223.15
955.84	223.13
956.14	223.14
956.44	223.15
956.73	223.14
957.03	223.15
957.32	223.14
957.62	223.14
957.92	223.16
958.21	223.14
958.51	223.27
958.81	223.28
959.10	223.29
959.40	223.31
959.69	223.32
959.99	223.33
960.29	223.34
960.58	223.34
960.88	223.37
961.17	223.36
961.47	223.36
961.76	223.35
962.06	223.37
962.36	223.36
962.65	223.36
962.95	223.36
963.24	223.35
963.54	223.36
963.83	223.37
964.13	223.36
964.42	223.35
964.72	223.26
965.01	223.26
965.31	223.25
965.60	223.22
965.90	223.28
966.19	223.26
966.49	223.26
966.78	223.26
967.08	223.25
967.37	223.25
967.67	223.23
967.96	223.25
968.26	223.24
968.55	223.25
968.85	223.25
969.14	223.25
969.43	223.24
969.73	223.23
970.02	223.22
970.32	223.22
970.61	223.20
970.91	223.17
971.20	223.15
971.49	223.14
971.79	223.15
972.08	223.08
972.38	223.09
972.67	223.09
972.96	223.10
973.26	223.08
973.55	223.11
973.85	223.10
974.14	223.09
974.43	223.10
974.73	223.08
975.02	223.07
975.31	223.07
975.61	223.07
975.90	223.06
976.19	223.05
976.49	223.06
976.78	223.07
977.07	223.07
977.37	223.08
977.66	223.09
977.95	223.07
978.24	223.08
978.54	223.10
978.83	223.09
979.12	223.08
979.42	223.08
979.71	223.06
980.00	223.06
980.29	223.06
980.59	223.04
980.88	223.07
981.17	223.07
981.46	223.08
981.76	223.08
982.05	223.11
982.34	223.12
982.63	223.12
982.93	223.12
983.22	223.14
983.51	223.14
983.80	223.16
984.09	223.17
984.39	223.16
984.68	223.15
984.97	223.16
985.26	223.15
985.55	223.16
985.85	223.14
986.14	223.16
986.43	223.17
986.72	223.16
987.01	223.13
987.30	223.13
987.59	223.12
987.89	223.12
988.18	223.09
988.47	223.08
988.76	223.07
989.05	223.06
989.34	223.05
989.63	223.07
989.92	223.05
990.22	223.04
990.51	223.04
990.80	223.03
991.09	223.04
991.38	223.05
991.67	223.04
991.96	223.03
992.25	223.03
992.54	223.02
992.83	223.02
993.12	223.01
993.41	223.03
993.70	223.07
993.99	223.09
994.28	223.10
994.58	223.12
994.87	223.11
995.16	223.11
995.45	223.11
995.74	223.07
996.03	223.09
996.32	223.11
996.61	223.13
996.90	223.13
997.19	223.12
997.48	223.12
997.77	223.11
998.06	223.12
998.34	223.11
998.63	223.11
998.92	223.11
999.21	223.13
999.50	223.13
999.79	223.09
1000.08	223.08
1000.37	223.08
1000.66	223.06
1000.95	223.09
1001.24	223.10
1001.53	223.11
1001.82	223.11
1002.11	223.08
1002.40	223.09
1002.68	223.11
1002.97	223.18
1003.26	223.17
1003.55	223.15
1003.84	223.16
1004.13	223.20
1004.42	223.19
1004.71	223.20
1004.99	223.19
1005.28	223.21
1005.57	223.20
1005.86	223.19
1006.15	223.19
1006.44	223.17
1006.72	223.19
1007.01	223.17
1007.30	223.16
1007.59	223.15
1007.88	223.15
1008.17	223.16
1008.45	223.14
1008.74	223.09
1009.03	223.05
1009.32	223.05
1009.60	223.05
1009.89	223.05
1010.18	223.00
1010.47	223.00
1010.76	223.00
1011.04	223.00
1011.33	223.00
1011.62	223.00
1011.91	223.01
1012.19	223.02
1012.48	223.02
1012.77	223.02
1013.05	223.06
1013.34	223.06
1013.63	223.06
1013.92	223.06
1014.20	223.05
1014.49	223.06
1014.78	223.07
1015.06	223.04
1015.35	223.04
1015.64	223.05
1015.92	223.06
1016.21	223.07
1016.50	223.08
1016.78	223.09
1017.07	223.09
1017.36	223.07
1017.64	223.06
1017.93	223.07
1018.22	223.06
1018.50	223.06
1018.79	223.05
1019.08	223.01
1019.36	223.02
1019.65	223.01
1019.93	223.05
1020.22	223.06
1020.51	223.11
1020.79	223.10
1021.08	222.92
1021.36	222.87
1021.65	223.02
1021.94	223.00
1022.22	223.09
1022.51	222.89
1022.79	223.62
1023.08	223.19
1023.36	224.30
1023.65	222.77
>>>>>End Processed Spectral Data<<<<<
