SpectraSuite Data File
++++++++++++++++++++++++++++++++++++
Date: Wed Sep 30 20:10:30 EDT 2015
User: lab3
Dark Spectrum Present: No
Reference Spectrum Present: No
Number of Sampled Component Spectra: 1
Spectrometers: USB2E7196
Integration Time (usec): 36000 (USB2E7196)
Spectra Averaged: 10000 (USB2E7196)
Boxcar Smoothing: 10 (USB2E7196)
Correct for Electrical Dark: No (USB2E7196)
Strobe/Lamp Enabled: No (USB2E7196)
Correct for Detector Non-linearity: No (USB2E7196)
Correct for Stray Light: No (USB2E7196)
Number of Pixels in Processed Spectrum: 2048
>>>>>Begin Processed Spectral Data<<<<<
339.09	0.00
339.48	211.09
339.86	212.61
340.24	213.96
340.63	215.45
341.01	218.32
341.39	218.10
341.78	219.46
342.16	220.64
342.54	221.17
342.93	209.68
343.31	220.27
343.69	220.81
344.07	221.28
344.46	221.70
344.84	222.09
345.22	222.33
345.60	222.58
345.99	222.77
346.37	222.91
346.75	223.01
347.13	223.09
347.52	223.16
347.90	223.24
348.28	223.27
348.66	223.32
349.05	223.32
349.43	223.37
349.81	223.43
350.19	223.48
350.57	223.55
350.96	223.63
351.34	223.72
351.72	223.81
352.10	223.91
352.48	223.99
352.87	224.04
353.25	224.11
353.63	224.17
354.01	224.23
354.39	224.31
354.77	224.39
355.15	224.49
355.54	224.55
355.92	224.58
356.30	224.66
356.68	224.79
357.06	224.87
357.44	224.92
357.82	224.98
358.20	225.09
358.58	225.15
358.97	225.22
359.35	225.30
359.73	225.38
360.11	225.43
360.49	225.48
360.87	225.54
361.25	225.60
361.63	225.68
362.01	225.74
362.39	225.77
362.77	225.81
363.15	225.83
363.53	225.87
363.91	225.91
364.29	225.93
364.67	225.85
365.05	225.88
365.43	225.91
365.81	225.94
366.19	225.96
366.57	226.01
366.95	226.01
367.33	225.99
367.71	225.98
368.09	226.00
368.47	226.00
368.85	225.99
369.23	225.99
369.61	225.94
369.99	225.95
370.37	225.95
370.75	226.00
371.13	225.97
371.51	225.93
371.89	225.91
372.27	225.89
372.65	225.87
373.03	225.82
373.41	225.78
373.78	225.73
374.16	225.63
374.54	225.56
374.92	225.51
375.30	225.47
375.68	225.40
376.06	225.36
376.44	225.30
376.82	225.25
377.19	225.20
377.57	225.15
377.95	225.06
378.33	225.00
378.71	224.86
379.09	224.81
379.47	224.77
379.84	224.71
380.22	224.65
380.60	224.58
380.98	224.53
381.36	224.48
381.73	224.41
382.11	224.39
382.49	224.34
382.87	224.28
383.25	224.24
383.62	224.31
384.00	224.24
384.38	224.20
384.76	224.18
385.13	224.17
385.51	224.13
385.89	224.08
386.27	224.04
386.64	224.02
387.02	223.97
387.40	223.93
387.78	223.90
388.15	223.87
388.53	223.84
388.91	223.81
389.29	223.78
389.66	223.77
390.04	223.73
390.42	223.72
390.79	223.71
391.17	223.68
391.55	223.55
391.92	223.54
392.30	223.54
392.68	223.50
393.05	223.48
393.43	223.48
393.81	223.48
394.18	223.46
394.56	223.46
394.94	223.49
395.31	223.49
395.69	223.53
396.06	223.55
396.44	223.57
396.82	223.58
397.19	223.65
397.57	223.66
397.95	223.69
398.32	223.69
398.70	223.73
399.07	223.79
399.45	223.82
399.82	223.86
400.20	223.89
400.58	223.95
400.95	223.95
401.33	224.03
401.70	224.16
402.08	224.25
402.45	224.32
402.83	224.42
403.20	224.52
403.58	224.60
403.95	224.72
404.33	224.85
404.71	224.97
405.08	225.15
405.46	225.29
405.83	225.45
406.21	225.62
406.58	225.80
406.96	225.98
407.33	226.19
407.70	226.44
408.08	226.76
408.45	227.04
408.83	227.34
409.20	227.62
409.58	227.87
409.95	228.21
410.33	228.58
410.70	228.92
411.08	229.33
411.45	229.76
411.82	230.19
412.20	230.69
412.57	231.29
412.95	231.75
413.32	232.36
413.69	232.98
414.07	233.65
414.44	234.37
414.82	235.10
415.19	235.97
415.56	236.84
415.94	237.74
416.31	238.76
416.68	239.78
417.06	240.96
417.43	242.07
417.81	243.35
418.18	244.65
418.55	246.07
418.93	247.56
419.30	249.10
419.67	250.75
420.04	252.44
420.42	254.20
420.79	256.25
421.16	258.31
421.54	260.40
421.91	262.59
422.28	264.86
422.66	267.32
423.03	269.66
423.40	272.12
423.77	274.75
424.15	277.45
424.52	280.26
424.89	283.29
425.26	286.31
425.64	289.12
426.01	292.27
426.38	295.49
426.75	298.82
427.13	302.23
427.50	305.79
427.87	309.49
428.24	313.23
428.61	316.80
428.99	320.65
429.36	324.88
429.73	328.93
430.10	332.96
430.47	337.08
430.85	341.32
431.22	345.83
431.59	350.46
431.96	354.98
432.33	359.98
432.70	364.71
433.08	370.32
433.45	375.61
433.82	380.81
434.19	386.62
434.56	392.32
434.93	397.81
435.30	403.25
435.68	409.38
436.05	415.37
436.42	421.35
436.79	426.80
437.16	432.68
437.53	438.99
437.90	445.27
438.27	451.41
438.64	458.07
439.01	464.09
439.38	469.60
439.75	474.91
440.13	480.97
440.50	486.74
440.87	491.28
441.24	496.28
441.61	501.79
441.98	505.83
442.35	510.64
442.72	515.58
443.09	520.30
443.46	523.35
443.83	525.60
444.20	527.50
444.57	530.30
444.94	531.97
445.31	533.69
445.68	535.23
446.05	536.40
446.42	536.26
446.79	536.04
447.16	535.86
447.53	535.73
447.90	533.96
448.27	532.32
448.64	529.70
449.01	527.97
449.37	524.19
449.74	520.76
450.11	516.33
450.48	511.45
450.85	506.54
451.22	502.36
451.59	498.29
451.96	494.59
452.33	489.14
452.70	484.29
453.07	478.38
453.43	472.45
453.80	466.72
454.17	461.21
454.54	456.10
454.91	450.31
455.28	444.88
455.65	439.75
456.02	434.29
456.38	429.89
456.75	424.20
457.12	419.62
457.49	414.99
457.86	410.57
458.23	406.72
458.59	402.44
458.96	398.04
459.33	394.16
459.70	390.22
460.07	387.21
460.43	383.66
460.80	380.33
461.17	377.40
461.54	374.23
461.91	371.28
462.27	368.27
462.64	365.82
463.01	363.00
463.38	360.15
463.74	357.58
464.11	355.29
464.48	353.22
464.85	350.99
465.21	349.29
465.58	347.42
465.95	345.25
466.32	343.51
466.68	341.81
467.05	340.10
467.42	338.45
467.78	336.67
468.15	335.03
468.52	333.81
468.88	332.21
469.25	330.74
469.62	329.58
469.98	328.31
470.35	327.18
470.72	326.16
471.08	325.13
471.45	324.27
471.82	323.33
472.18	322.35
472.55	321.72
472.92	320.93
473.28	320.32
473.65	319.68
474.02	319.08
474.38	318.59
474.75	318.31
475.11	317.90
475.48	317.74
475.85	317.58
476.21	317.52
476.58	317.52
476.94	317.70
477.31	317.81
477.67	317.96
478.04	318.22
478.41	318.55
478.77	319.00
479.14	319.33
479.50	319.87
479.87	320.54
480.23	321.21
480.60	321.87
480.96	322.55
481.33	323.49
481.69	324.43
482.06	325.36
482.42	326.25
482.79	327.31
483.15	328.53
483.52	329.89
483.88	331.21
484.25	332.61
484.61	334.07
484.98	335.64
485.34	337.40
485.71	339.23
486.07	341.18
486.44	343.10
486.80	345.25
487.17	347.45
487.53	349.88
487.90	352.40
488.26	355.12
488.62	358.00
488.99	360.88
489.35	363.90
489.72	367.15
490.08	370.57
490.44	374.08
490.81	377.76
491.17	381.54
491.54	385.57
491.90	389.69
492.26	394.13
492.63	398.80
492.99	403.66
493.36	408.65
493.72	413.91
494.08	419.30
494.45	425.00
494.81	430.90
495.17	436.92
495.54	443.28
495.90	449.95
496.26	456.76
496.63	463.81
496.99	471.13
497.35	478.82
497.72	486.80
498.08	494.93
498.44	503.32
498.80	512.26
499.17	521.42
499.53	530.91
499.89	540.64
500.26	550.54
500.62	560.71
500.98	571.54
501.34	582.51
501.71	594.02
502.07	605.74
502.43	617.88
502.79	630.32
503.16	643.19
503.52	656.23
503.88	669.64
504.24	683.50
504.60	697.63
504.97	712.15
505.33	727.03
505.69	742.81
506.05	758.79
506.41	774.76
506.78	791.06
507.14	807.82
507.50	825.18
507.86	842.94
508.22	860.95
508.59	879.01
508.95	897.77
509.31	916.96
509.67	936.86
510.03	956.95
510.39	977.27
510.75	997.83
511.12	1018.68
511.48	1039.83
511.84	1061.12
512.20	1082.73
512.56	1105.39
512.92	1128.27
513.28	1150.88
513.64	1173.83
514.00	1197.19
514.37	1220.86
514.73	1244.60
515.09	1268.14
515.45	1292.10
515.81	1316.64
516.17	1341.20
516.53	1365.49
516.89	1389.87
517.25	1414.43
517.61	1439.18
517.97	1464.16
518.33	1488.88
518.69	1513.73
519.05	1538.88
519.41	1564.12
519.77	1589.64
520.13	1614.44
520.49	1639.40
520.85	1664.60
521.21	1689.70
521.57	1715.44
521.93	1740.49
522.29	1766.35
522.65	1791.94
523.01	1817.40
523.37	1842.10
523.73	1867.51
524.09	1893.05
524.45	1918.45
524.81	1943.39
525.17	1968.24
525.53	1992.72
525.89	2017.26
526.25	2042.00
526.61	2066.18
526.97	2090.68
527.33	2115.10
527.68	2139.28
528.04	2162.73
528.40	2186.01
528.76	2209.49
529.12	2231.93
529.48	2254.73
529.84	2275.76
530.20	2297.33
530.56	2318.50
530.91	2339.79
531.27	2360.58
531.63	2380.75
531.99	2400.44
532.35	2419.81
532.71	2439.29
533.07	2459.31
533.42	2477.82
533.78	2496.70
534.14	2515.57
534.50	2533.60
534.86	2552.29
535.21	2569.18
535.57	2585.93
535.93	2602.02
536.29	2616.86
536.65	2632.56
537.00	2647.11
537.36	2662.16
537.72	2676.24
538.08	2690.00
538.44	2702.56
538.79	2715.35
539.15	2726.48
539.51	2737.53
539.87	2748.21
540.22	2756.70
540.58	2765.40
540.94	2774.59
541.29	2782.35
541.65	2789.10
542.01	2795.31
542.37	2799.69
542.72	2806.06
543.08	2811.80
543.44	2817.37
543.79	2822.17
544.15	2826.00
544.51	2829.91
544.87	2832.89
545.22	2835.45
545.58	2837.01
545.94	2839.09
546.29	2839.67
546.65	2840.29
547.01	2841.04
547.36	2841.88
547.72	2842.92
548.07	2842.43
548.43	2841.33
548.79	2839.59
549.14	2837.87
549.50	2836.78
549.86	2834.66
550.21	2830.14
550.57	2826.11
550.92	2820.73
551.28	2815.92
551.64	2811.06
551.99	2806.52
552.35	2801.58
552.70	2796.23
553.06	2791.63
553.41	2786.51
553.77	2780.71
554.13	2775.75
554.48	2769.78
554.84	2762.26
555.19	2754.90
555.55	2746.93
555.90	2739.55
556.26	2733.18
556.61	2726.12
556.97	2716.89
557.32	2708.61
557.68	2700.67
558.03	2692.11
558.39	2684.17
558.74	2676.42
559.10	2667.49
559.45	2658.16
559.81	2649.18
560.16	2639.48
560.52	2629.39
560.87	2620.33
561.23	2610.90
561.58	2600.95
561.94	2590.73
562.29	2580.02
562.64	2569.89
563.00	2560.08
563.35	2550.06
563.71	2539.09
564.06	2527.72
564.42	2517.34
564.77	2506.59
565.12	2495.97
565.48	2485.12
565.83	2474.95
566.19	2464.79
566.54	2454.14
566.89	2442.64
567.25	2431.02
567.60	2420.26
567.96	2409.04
568.31	2396.38
568.66	2383.76
569.02	2372.17
569.37	2360.37
569.72	2349.04
570.08	2336.99
570.43	2324.44
570.78	2311.54
571.14	2298.50
571.49	2286.20
571.84	2274.19
572.20	2260.92
572.55	2247.98
572.90	2234.90
573.26	2220.85
573.61	2206.21
573.96	2191.94
574.31	2178.00
574.67	2164.36
575.02	2150.29
575.37	2135.75
575.72	2121.48
576.08	2107.81
576.43	2093.01
576.78	2078.30
577.13	2064.39
577.49	2050.53
577.84	2037.01
578.19	2022.67
578.54	2007.94
578.90	1992.71
579.25	1977.17
579.60	1963.12
579.95	1948.71
580.30	1934.32
580.66	1920.23
581.01	1905.77
581.36	1891.68
581.71	1878.16
582.06	1864.06
582.42	1850.04
582.77	1836.75
583.12	1823.09
583.47	1809.50
583.82	1796.08
584.17	1782.53
584.53	1768.83
584.88	1755.12
585.23	1741.05
585.58	1727.52
585.93	1714.38
586.28	1702.08
586.63	1689.55
586.98	1676.31
587.34	1663.27
587.69	1649.76
588.04	1636.51
588.39	1623.94
588.74	1610.81
589.09	1597.46
589.44	1584.09
589.79	1571.25
590.14	1558.33
590.49	1545.59
590.84	1532.70
591.19	1520.44
591.54	1507.68
591.89	1494.75
592.25	1482.15
592.60	1469.20
592.95	1456.80
593.30	1444.74
593.65	1432.43
594.00	1420.35
594.35	1409.01
594.70	1396.90
595.05	1385.83
595.40	1374.57
595.75	1362.70
596.10	1351.63
596.45	1340.79
596.80	1330.41
597.15	1319.82
597.50	1309.22
597.85	1298.84
598.19	1288.64
598.54	1277.83
598.89	1267.76
599.24	1257.97
599.59	1247.98
599.94	1239.01
600.29	1229.92
600.64	1220.59
600.99	1210.67
601.34	1201.25
601.69	1191.22
602.04	1182.26
602.39	1173.16
602.74	1164.33
603.08	1155.71
603.43	1146.61
603.78	1137.38
604.13	1128.31
604.48	1119.16
604.83	1110.27
605.18	1101.32
605.53	1092.29
605.87	1083.39
606.22	1074.75
606.57	1065.87
606.92	1057.07
607.27	1048.10
607.62	1039.22
607.96	1030.52
608.31	1022.87
608.66	1014.76
609.01	1007.11
609.36	999.39
609.70	991.43
610.05	983.30
610.40	975.54
610.75	967.87
611.10	960.49
611.44	952.73
611.79	945.27
612.14	937.40
612.49	929.70
612.83	922.50
613.18	915.36
613.53	908.03
613.88	900.77
614.22	894.12
614.57	887.30
614.92	880.46
615.27	873.64
615.61	866.66
615.96	859.90
616.31	853.06
616.65	846.11
617.00	839.44
617.35	832.91
617.70	826.39
618.04	819.95
618.39	813.52
618.74	807.44
619.08	801.16
619.43	795.16
619.78	789.16
620.12	782.97
620.47	776.95
620.82	771.02
621.16	765.43
621.51	759.46
621.85	753.48
622.20	747.57
622.55	741.86
622.89	736.09
623.24	730.38
623.59	724.74
623.93	719.14
624.28	713.68
624.62	708.19
624.97	702.69
625.32	697.31
625.66	691.77
626.01	686.22
626.35	680.85
626.70	675.50
627.04	670.35
627.39	665.23
627.73	660.24
628.08	655.48
628.43	650.58
628.77	645.76
629.12	641.09
629.46	636.59
629.81	631.88
630.15	627.06
630.50	622.40
630.84	617.95
631.19	613.68
631.53	609.44
631.88	605.10
632.22	600.87
632.57	596.88
632.91	592.84
633.26	588.89
633.60	585.01
633.95	581.25
634.29	577.33
634.64	573.39
634.98	569.32
635.32	565.41
635.67	561.64
636.01	557.81
636.36	554.02
636.70	550.38
637.05	546.74
637.39	543.30
637.73	539.73
638.08	536.20
638.42	532.66
638.77	528.99
639.11	525.32
639.45	521.68
639.80	518.03
640.14	514.59
640.49	511.09
640.83	507.47
641.17	503.90
641.52	500.48
641.86	497.07
642.20	493.86
642.55	490.48
642.89	487.19
643.23	484.10
643.58	481.26
643.92	478.28
644.26	475.32
644.61	472.35
644.95	469.39
645.29	466.37
645.64	463.34
645.98	460.44
646.32	457.72
646.66	455.00
647.01	452.25
647.35	449.54
647.69	446.72
648.04	444.07
648.38	441.44
648.72	438.77
649.06	436.19
649.41	433.61
649.75	431.05
650.09	428.51
650.43	425.96
650.78	423.39
651.12	420.81
651.46	418.35
651.80	415.99
652.14	413.70
652.49	411.42
652.83	409.20
653.17	406.96
653.51	404.78
653.85	402.68
654.20	400.52
654.54	398.27
654.88	396.23
655.22	394.23
655.56	392.20
655.90	390.27
656.25	388.33
656.59	386.41
656.93	384.58
657.27	382.80
657.61	380.91
657.95	379.09
658.29	377.28
658.64	375.49
658.98	373.68
659.32	371.90
659.66	370.23
660.00	368.57
660.34	366.94
660.68	365.26
661.02	363.51
661.36	361.88
661.70	360.32
662.05	358.73
662.39	357.13
662.73	355.62
663.07	354.14
663.41	352.68
663.75	351.25
664.09	349.81
664.43	348.29
664.77	346.88
665.11	345.41
665.45	344.03
665.79	342.64
666.13	341.24
666.47	339.83
666.81	338.40
667.15	336.93
667.49	335.56
667.83	334.24
668.17	332.97
668.51	331.71
668.85	330.47
669.19	329.30
669.53	328.07
669.87	326.82
670.21	325.59
670.55	324.38
670.89	323.24
671.23	322.08
671.57	320.92
671.91	319.82
672.25	318.78
672.58	317.73
672.92	316.65
673.26	315.64
673.60	314.63
673.94	313.60
674.28	312.65
674.62	311.68
674.96	310.68
675.30	309.74
675.64	308.78
675.97	307.83
676.31	306.85
676.65	305.89
676.99	305.00
677.33	304.05
677.67	303.15
678.01	302.17
678.34	301.26
678.68	300.43
679.02	299.55
679.36	298.67
679.70	297.81
680.04	296.97
680.37	296.12
680.71	295.31
681.05	294.54
681.39	293.74
681.73	292.90
682.06	292.10
682.40	291.31
682.74	290.55
683.08	289.81
683.42	289.05
683.75	288.37
684.09	287.60
684.43	286.89
684.77	286.15
685.10	285.47
685.44	284.78
685.78	284.06
686.12	283.39
686.45	282.71
686.79	282.03
687.13	281.37
687.46	280.69
687.80	280.02
688.14	279.31
688.48	278.67
688.81	278.02
689.15	277.43
689.49	276.78
689.82	276.16
690.16	275.49
690.50	274.87
690.83	274.25
691.17	273.65
691.51	273.07
691.84	272.51
692.18	271.91
692.52	271.30
692.85	270.72
693.19	270.17
693.52	269.62
693.86	269.06
694.20	268.52
694.53	268.00
694.87	267.46
695.21	266.96
695.54	266.45
695.88	265.92
696.21	265.36
696.55	264.86
696.88	264.35
697.22	263.86
697.56	263.37
697.89	262.82
698.23	262.32
698.56	261.79
698.90	261.31
699.23	260.82
699.57	260.37
699.90	259.90
700.24	259.41
700.58	258.96
700.91	258.54
701.25	258.19
701.58	257.81
701.92	257.41
702.25	256.99
702.59	256.56
702.92	256.16
703.26	255.76
703.59	255.36
703.93	255.04
704.26	254.67
704.60	254.28
704.93	253.92
705.26	253.55
705.60	253.22
705.93	252.84
706.27	252.52
706.60	252.20
706.94	251.88
707.27	251.50
707.61	251.14
707.94	250.77
708.27	250.33
708.61	249.94
708.94	249.57
709.28	249.24
709.61	248.91
709.94	248.61
710.28	248.31
710.61	248.02
710.95	247.64
711.28	247.41
711.61	247.12
711.95	246.86
712.28	246.57
712.61	246.27
712.95	246.04
713.28	245.82
713.61	245.53
713.95	245.24
714.28	245.00
714.61	244.73
714.95	244.48
715.28	244.23
715.61	243.98
715.95	243.75
716.28	243.50
716.61	243.29
716.95	243.04
717.28	242.81
717.61	242.57
717.94	242.34
718.28	242.05
718.61	241.82
718.94	241.58
719.27	241.37
719.61	241.17
719.94	240.94
720.27	240.67
720.60	240.46
720.94	240.26
721.27	240.07
721.60	239.90
721.93	239.70
722.27	239.55
722.60	239.38
722.93	239.18
723.26	239.00
723.59	238.80
723.93	238.63
724.26	238.46
724.59	238.28
724.92	238.12
725.25	237.98
725.59	237.82
725.92	237.68
726.25	237.52
726.58	237.36
726.91	237.19
727.24	237.06
727.57	236.90
727.91	236.74
728.24	236.60
728.57	236.44
728.90	236.31
729.23	236.13
729.56	236.03
729.89	235.89
730.22	235.74
730.55	235.60
730.89	235.46
731.22	235.31
731.55	235.17
731.88	235.04
732.21	234.89
732.54	234.76
732.87	234.63
733.20	234.51
733.53	234.39
733.86	234.28
734.19	234.15
734.52	234.05
734.85	234.01
735.18	233.87
735.51	233.78
735.84	233.67
736.17	233.58
736.50	233.42
736.83	233.43
737.16	233.33
737.49	233.24
737.82	233.14
738.15	233.06
738.48	232.96
738.81	232.85
739.14	232.74
739.47	232.63
739.80	232.52
740.13	232.43
740.46	232.31
740.79	232.19
741.12	232.10
741.45	231.98
741.78	231.83
742.11	231.77
742.44	231.65
742.77	231.57
743.10	231.46
743.43	231.37
743.75	231.17
744.08	231.24
744.41	231.14
744.74	231.05
745.07	230.93
745.40	230.87
745.73	230.83
746.06	230.75
746.39	230.69
746.71	230.61
747.04	230.52
747.37	230.44
747.70	230.39
748.03	230.31
748.36	230.25
748.68	230.18
749.01	230.07
749.34	230.00
749.67	229.92
750.00	229.87
750.33	229.88
750.65	229.82
750.98	229.60
751.31	229.54
751.64	229.48
751.97	229.47
752.29	229.40
752.62	229.28
752.95	229.21
753.28	229.13
753.60	229.06
753.93	229.02
754.26	228.97
754.59	228.87
754.91	228.79
755.24	228.72
755.57	228.70
755.90	228.64
756.22	228.57
756.55	228.49
756.88	228.41
757.20	228.28
757.53	228.20
757.86	228.14
758.19	228.09
758.51	228.03
758.84	227.92
759.17	227.86
759.49	227.81
759.82	227.81
760.15	227.78
760.47	227.72
760.80	227.65
761.13	227.61
761.45	227.57
761.78	227.53
762.11	227.48
762.43	227.38
762.76	227.33
763.08	227.30
763.41	227.26
763.74	227.22
764.06	227.18
764.39	227.14
764.71	227.09
765.04	227.04
765.37	226.99
765.69	226.94
766.02	226.90
766.34	226.85
766.67	226.77
767.00	226.75
767.32	226.76
767.65	226.79
767.97	226.73
768.30	226.70
768.62	226.66
768.95	226.61
769.27	226.57
769.60	226.55
769.92	226.49
770.25	226.44
770.57	226.39
770.90	226.35
771.22	226.30
771.55	226.27
771.87	226.24
772.20	226.21
772.52	226.27
772.85	226.36
773.17	226.33
773.50	226.29
773.82	226.24
774.15	226.15
774.47	226.05
774.80	226.01
775.12	225.98
775.45	225.95
775.77	225.93
776.09	225.91
776.42	225.88
776.74	225.89
777.07	225.86
777.39	225.84
777.72	225.81
778.04	225.79
778.36	225.76
778.69	225.74
779.01	225.72
779.33	225.61
779.66	225.46
779.98	225.43
780.31	225.42
780.63	225.44
780.95	225.44
781.28	225.42
781.60	225.39
781.92	225.37
782.25	225.35
782.57	225.32
782.89	225.29
783.22	225.27
783.54	225.22
783.86	225.21
784.19	225.19
784.51	225.20
784.83	225.17
785.16	225.15
785.48	225.13
785.80	225.10
786.12	225.09
786.45	225.08
786.77	225.07
787.09	225.05
787.42	225.00
787.74	224.98
788.06	224.96
788.38	224.95
788.71	224.92
789.03	224.91
789.35	224.91
789.67	224.88
789.99	224.87
790.32	224.85
790.64	224.84
790.96	224.93
791.28	224.87
791.61	224.86
791.93	224.85
792.25	224.83
792.57	224.89
792.89	224.86
793.21	224.85
793.54	224.83
793.86	224.81
794.18	224.80
794.50	224.76
794.82	224.75
795.14	224.75
795.47	224.76
795.79	224.75
796.11	224.71
796.43	224.70
796.75	224.69
797.07	224.68
797.39	224.66
797.71	224.56
798.04	224.56
798.36	224.56
798.68	224.54
799.00	224.54
799.32	224.48
799.64	224.49
799.96	224.47
800.28	224.48
800.60	224.47
800.92	224.46
801.24	224.44
801.56	224.44
801.89	224.42
802.21	224.41
802.53	224.39
802.85	224.40
803.17	224.44
803.49	224.41
803.81	224.38
804.13	224.37
804.45	224.34
804.77	224.34
805.09	224.33
805.41	224.31
805.73	224.28
806.05	224.24
806.37	224.22
806.69	224.21
807.01	224.19
807.33	224.19
807.65	224.14
807.97	224.18
808.28	224.16
808.60	224.15
808.92	224.12
809.24	224.18
809.56	224.15
809.88	224.10
810.20	224.11
810.52	224.12
810.84	224.10
811.16	224.08
811.48	224.07
811.80	224.10
812.12	224.09
812.43	224.10
812.75	224.10
813.07	224.09
813.39	224.09
813.71	224.07
814.03	224.05
814.35	224.05
814.67	224.00
814.98	223.99
815.30	223.98
815.62	223.96
815.94	223.89
816.26	223.89
816.58	223.87
816.89	223.87
817.21	223.84
817.53	223.84
817.85	223.84
818.17	223.83
818.48	223.78
818.80	223.80
819.12	223.77
819.44	223.75
819.76	223.73
820.07	223.73
820.39	223.72
820.71	223.72
821.03	223.72
821.34	223.70
821.66	223.71
821.98	223.72
822.30	223.71
822.61	223.77
822.93	223.75
823.25	223.74
823.57	223.73
823.88	223.74
824.20	223.73
824.52	223.74
824.83	223.73
825.15	223.72
825.47	223.71
825.79	223.71
826.10	223.70
826.42	223.70
826.74	223.70
827.05	223.70
827.37	223.70
827.69	223.69
828.00	223.69
828.32	223.69
828.64	223.67
828.95	223.72
829.27	223.68
829.58	223.68
829.90	223.70
830.22	223.70
830.53	223.68
830.85	223.67
831.17	223.64
831.48	223.64
831.80	223.64
832.11	223.64
832.43	223.62
832.75	223.61
833.06	223.68
833.38	223.64
833.69	223.63
834.01	223.63
834.32	223.63
834.64	223.62
834.96	223.61
835.27	223.61
835.59	223.57
835.90	223.56
836.22	223.55
836.53	223.53
836.85	223.51
837.16	223.61
837.48	223.61
837.79	223.65
838.11	223.64
838.42	223.64
838.74	223.65
839.05	223.64
839.37	223.63
839.68	223.57
840.00	223.56
840.31	223.58
840.63	223.57
840.94	223.56
841.26	223.54
841.57	223.54
841.88	223.55
842.20	223.53
842.51	223.51
842.83	223.51
843.14	223.60
843.46	223.59
843.77	223.53
844.08	223.52
844.40	223.49
844.71	223.48
845.03	223.47
845.34	223.46
845.65	223.45
845.97	223.45
846.28	223.46
846.60	223.47
846.91	223.44
847.22	223.43
847.54	223.46
847.85	223.46
848.16	223.44
848.48	223.42
848.79	223.46
849.10	223.47
849.42	223.47
849.73	223.38
850.04	223.38
850.36	223.34
850.67	223.36
850.98	223.36
851.30	223.36
851.61	223.36
851.92	223.36
852.23	223.39
852.55	223.39
852.86	223.39
853.17	223.40
853.49	223.42
853.80	223.44
854.11	223.44
854.42	223.45
854.74	223.45
855.05	223.45
855.36	223.40
855.67	223.40
855.99	223.40
856.30	223.52
856.61	223.52
856.92	223.52
857.23	223.52
857.55	223.51
857.86	223.51
858.17	223.53
858.48	223.50
858.79	223.48
859.11	223.48
859.42	223.48
859.73	223.46
860.04	223.46
860.35	223.43
860.66	223.39
860.98	223.39
861.29	223.40
861.60	223.39
861.91	223.42
862.22	223.40
862.53	223.38
862.84	223.26
863.16	223.28
863.47	223.26
863.78	223.25
864.09	223.25
864.40	223.26
864.71	223.25
865.02	223.27
865.33	223.26
865.64	223.24
865.95	223.24
866.27	223.31
866.58	223.30
866.89	223.32
867.20	223.32
867.51	223.30
867.82	223.29
868.13	223.32
868.44	223.30
868.75	223.32
869.06	223.32
869.37	223.34
869.68	223.30
869.99	223.32
870.30	223.33
870.61	223.34
870.92	223.32
871.23	223.31
871.54	223.32
871.85	223.35
872.16	223.36
872.47	223.35
872.78	223.29
873.09	223.30
873.40	223.28
873.71	223.29
874.02	223.30
874.33	223.29
874.64	223.27
874.95	223.28
875.26	223.26
875.56	223.26
875.87	223.25
876.18	223.25
876.49	223.35
876.80	223.33
877.11	223.32
877.42	223.32
877.73	223.32
878.04	223.30
878.35	223.30
878.66	223.30
878.96	223.29
879.27	223.29
879.58	223.28
879.89	223.27
880.20	223.30
880.51	223.29
880.82	223.29
881.12	223.29
881.43	223.28
881.74	223.26
882.05	223.26
882.36	223.26
882.67	223.27
882.97	223.15
883.28	223.15
883.59	223.14
883.90	223.15
884.21	223.16
884.51	223.16
884.82	223.15
885.13	223.15
885.44	223.14
885.74	223.14
886.05	223.14
886.36	223.14
886.67	223.10
886.98	223.15
887.28	223.16
887.59	223.16
887.90	223.16
888.20	223.16
888.51	223.17
888.82	223.15
889.13	223.16
889.43	223.25
889.74	223.24
890.05	223.24
890.35	223.23
890.66	223.21
890.97	223.20
891.28	223.19
891.58	223.19
891.89	223.19
892.20	223.18
892.50	223.17
892.81	223.16
893.12	223.16
893.42	223.11
893.73	223.11
894.04	223.11
894.34	223.11
894.65	223.11
894.95	223.11
895.26	223.11
895.57	223.15
895.87	223.05
896.18	223.07
896.48	223.07
896.79	223.07
897.10	223.08
897.40	223.09
897.71	223.10
898.01	223.09
898.32	223.10
898.63	223.10
898.93	223.10
899.24	223.11
899.54	223.10
899.85	223.10
900.15	223.09
900.46	223.10
900.76	223.10
901.07	223.10
901.38	223.09
901.68	223.11
901.99	223.05
902.29	223.06
902.60	223.04
902.90	223.03
903.21	223.03
903.51	223.02
903.82	223.04
904.12	223.04
904.43	223.04
904.73	223.03
905.03	223.04
905.34	223.14
905.64	223.13
905.95	223.13
906.25	223.13
906.56	223.13
906.86	223.12
907.17	223.11
907.47	223.12
907.77	223.11
908.08	223.08
908.38	223.09
908.69	223.10
908.99	223.12
909.30	223.13
909.60	223.13
909.90	223.14
910.21	223.10
910.51	223.09
910.81	223.09
911.12	223.10
911.42	223.10
911.73	222.99
912.03	223.00
912.33	223.02
912.64	223.01
912.94	223.00
913.24	222.99
913.55	222.98
913.85	222.98
914.15	223.00
914.46	223.01
914.76	223.00
915.06	223.00
915.37	222.98
915.67	222.97
915.97	222.97
916.27	222.95
916.58	222.96
916.88	222.96
917.18	222.95
917.49	223.02
917.79	223.01
918.09	223.02
918.39	223.05
918.70	223.04
919.00	223.05
919.30	223.10
919.60	223.10
919.91	223.09
920.21	223.10
920.51	223.07
920.81	223.07
921.12	223.08
921.42	223.08
921.72	223.09
922.02	223.10
922.32	223.11
922.63	223.11
922.93	223.17
923.23	223.18
923.53	223.16
923.83	223.10
924.13	223.11
924.44	223.11
924.74	223.12
925.04	223.14
925.34	223.14
925.64	223.09
925.94	223.09
926.24	223.15
926.55	223.13
926.85	223.15
927.15	223.14
927.45	223.14
927.75	223.14
928.05	223.14
928.35	223.13
928.65	223.14
928.95	223.15
929.26	223.10
929.56	223.12
929.86	223.13
930.16	223.12
930.46	223.11
930.76	223.11
931.06	223.07
931.36	223.04
931.66	223.05
931.96	223.06
932.26	223.06
932.56	223.02
932.86	223.03
933.16	223.03
933.46	223.01
933.76	223.00
934.06	223.02
934.36	223.05
934.66	223.05
934.96	223.03
935.26	223.03
935.56	223.05
935.86	223.02
936.16	223.01
936.46	223.00
936.76	223.00
937.06	222.98
937.36	222.99
937.66	222.99
937.96	222.98
938.26	222.96
938.56	222.95
938.86	222.96
939.16	222.98
939.46	222.98
939.76	222.99
940.06	222.99
940.35	222.97
940.65	222.92
940.95	222.93
941.25	222.91
941.55	222.90
941.85	222.89
942.15	222.91
942.45	222.94
942.75	222.94
943.04	222.94
943.34	222.96
943.64	222.95
943.94	222.93
944.24	222.94
944.54	222.95
944.84	222.94
945.13	222.93
945.43	222.91
945.73	222.90
946.03	222.89
946.33	222.88
946.62	222.88
946.92	222.87
947.22	222.87
947.52	222.88
947.82	222.90
948.11	222.89
948.41	222.86
948.71	222.83
949.01	222.84
949.31	222.83
949.60	222.82
949.90	222.84
950.20	222.84
950.50	222.83
950.79	222.82
951.09	222.84
951.39	222.84
951.69	222.83
951.98	222.85
952.28	222.86
952.58	222.86
952.87	222.86
953.17	222.88
953.47	222.87
953.76	222.87
954.06	222.85
954.36	222.84
954.66	222.84
954.95	222.87
955.25	222.88
955.55	222.89
955.84	222.88
956.14	222.88
956.44	222.89
956.73	222.87
957.03	222.88
957.32	222.88
957.62	222.88
957.92	222.90
958.21	222.89
958.51	223.00
958.81	223.02
959.10	223.03
959.40	223.05
959.69	223.05
959.99	223.07
960.29	223.07
960.58	223.07
960.88	223.10
961.17	223.09
961.47	223.10
961.76	223.08
962.06	223.10
962.36	223.08
962.65	223.09
962.95	223.10
963.24	223.09
963.54	223.09
963.83	223.09
964.13	223.09
964.42	223.07
964.72	222.98
965.01	222.98
965.31	222.97
965.60	222.94
965.90	223.01
966.19	222.98
966.49	222.99
966.78	222.98
967.08	222.97
967.37	222.97
967.67	222.95
967.96	222.97
968.26	222.97
968.55	222.98
968.85	222.98
969.14	222.97
969.43	222.97
969.73	222.96
970.02	222.96
970.32	222.95
970.61	222.94
970.91	222.91
971.20	222.89
971.49	222.88
971.79	222.90
972.08	222.82
972.38	222.83
972.67	222.83
972.96	222.84
973.26	222.82
973.55	222.85
973.85	222.85
974.14	222.83
974.43	222.84
974.73	222.82
975.02	222.81
975.31	222.81
975.61	222.81
975.90	222.80
976.19	222.79
976.49	222.79
976.78	222.80
977.07	222.80
977.37	222.81
977.66	222.82
977.95	222.81
978.24	222.82
978.54	222.84
978.83	222.83
979.12	222.82
979.42	222.82
979.71	222.80
980.00	222.79
980.29	222.80
980.59	222.78
980.88	222.81
981.17	222.81
981.46	222.81
981.76	222.80
982.05	222.83
982.34	222.84
982.63	222.84
982.93	222.84
983.22	222.86
983.51	222.87
983.80	222.88
984.09	222.89
984.39	222.88
984.68	222.87
984.97	222.87
985.26	222.87
985.55	222.88
985.85	222.86
986.14	222.88
986.43	222.89
986.72	222.89
987.01	222.86
987.30	222.86
987.59	222.85
987.89	222.86
988.18	222.83
988.47	222.82
988.76	222.81
989.05	222.80
989.34	222.79
989.63	222.81
989.92	222.79
990.22	222.77
990.51	222.77
990.80	222.76
991.09	222.77
991.38	222.79
991.67	222.77
991.96	222.77
992.25	222.77
992.54	222.74
992.83	222.75
993.12	222.74
993.41	222.76
993.70	222.80
993.99	222.82
994.28	222.84
994.58	222.85
994.87	222.84
995.16	222.84
995.45	222.83
995.74	222.79
996.03	222.81
996.32	222.83
996.61	222.85
996.90	222.84
997.19	222.83
997.48	222.83
997.77	222.82
998.06	222.83
998.34	222.82
998.63	222.82
998.92	222.82
999.21	222.84
999.50	222.83
999.79	222.80
1000.08	222.80
1000.37	222.79
1000.66	222.78
1000.95	222.81
1001.24	222.81
1001.53	222.83
1001.82	222.82
1002.11	222.80
1002.40	222.81
1002.68	222.83
1002.97	222.91
1003.26	222.90
1003.55	222.88
1003.84	222.89
1004.13	222.93
1004.42	222.93
1004.71	222.93
1004.99	222.92
1005.28	222.94
1005.57	222.94
1005.86	222.92
1006.15	222.91
1006.44	222.90
1006.72	222.91
1007.01	222.89
1007.30	222.89
1007.59	222.88
1007.88	222.88
1008.17	222.89
1008.45	222.87
1008.74	222.83
1009.03	222.78
1009.32	222.78
1009.60	222.78
1009.89	222.77
1010.18	222.73
1010.47	222.73
1010.76	222.73
1011.04	222.73
1011.33	222.73
1011.62	222.73
1011.91	222.74
1012.19	222.75
1012.48	222.75
1012.77	222.75
1013.05	222.78
1013.34	222.78
1013.63	222.78
1013.92	222.79
1014.20	222.78
1014.49	222.78
1014.78	222.79
1015.06	222.76
1015.35	222.76
1015.64	222.77
1015.92	222.79
1016.21	222.80
1016.50	222.81
1016.78	222.81
1017.07	222.82
1017.36	222.80
1017.64	222.79
1017.93	222.79
1018.22	222.79
1018.50	222.78
1018.79	222.78
1019.08	222.74
1019.36	222.75
1019.65	222.74
1019.93	222.77
1020.22	222.78
1020.51	222.84
1020.79	222.82
1021.08	222.64
1021.36	222.62
1021.65	222.77
1021.94	222.72
1022.22	222.84
1022.51	222.65
1022.79	223.23
1023.08	222.89
1023.36	224.00
1023.65	222.49
>>>>>End Processed Spectral Data<<<<<
