SpectraSuite Data File
++++++++++++++++++++++++++++++++++++
Date: Thu Oct 01 05:41:52 EDT 2015
User: lab3
Dark Spectrum Present: No
Reference Spectrum Present: No
Number of Sampled Component Spectra: 1
Spectrometers: USB2E7196
Integration Time (usec): 36000 (USB2E7196)
Spectra Averaged: 10000 (USB2E7196)
Boxcar Smoothing: 10 (USB2E7196)
Correct for Electrical Dark: No (USB2E7196)
Strobe/Lamp Enabled: No (USB2E7196)
Correct for Detector Non-linearity: No (USB2E7196)
Correct for Stray Light: No (USB2E7196)
Number of Pixels in Processed Spectrum: 2048
>>>>>Begin Processed Spectral Data<<<<<
339.09	0.00
339.48	210.13
339.86	211.61
340.24	213.07
340.63	214.40
341.01	217.41
341.39	217.12
341.78	218.46
342.16	219.68
342.54	220.16
342.93	208.73
343.31	219.28
343.69	219.82
344.07	220.28
344.46	220.71
344.84	221.09
345.22	221.33
345.60	221.59
345.99	221.78
346.37	221.91
346.75	222.02
347.13	222.10
347.52	222.17
347.90	222.24
348.28	222.28
348.66	222.34
349.05	222.34
349.43	222.39
349.81	222.45
350.19	222.51
350.57	222.58
350.96	222.66
351.34	222.75
351.72	222.84
352.10	222.94
352.48	223.01
352.87	223.07
353.25	223.13
353.63	223.18
354.01	223.25
354.39	223.33
354.77	223.40
355.15	223.50
355.54	223.55
355.92	223.59
356.30	223.67
356.68	223.80
357.06	223.87
357.44	223.92
357.82	223.98
358.20	224.09
358.58	224.15
358.97	224.22
359.35	224.30
359.73	224.38
360.11	224.43
360.49	224.49
360.87	224.54
361.25	224.60
361.63	224.69
362.01	224.74
362.39	224.76
362.77	224.81
363.15	224.84
363.53	224.87
363.91	224.90
364.29	224.92
364.67	224.85
365.05	224.87
365.43	224.91
365.81	224.94
366.19	224.95
366.57	225.00
366.95	225.00
367.33	224.98
367.71	224.97
368.09	224.99
368.47	224.99
368.85	224.98
369.23	224.99
369.61	224.93
369.99	224.95
370.37	224.95
370.75	225.01
371.13	224.98
371.51	224.94
371.89	224.92
372.27	224.90
372.65	224.87
373.03	224.83
373.41	224.79
373.78	224.74
374.16	224.65
374.54	224.58
374.92	224.52
375.30	224.48
375.68	224.42
376.06	224.37
376.44	224.32
376.82	224.28
377.19	224.23
377.57	224.17
377.95	224.09
378.33	224.03
378.71	223.89
379.09	223.84
379.47	223.81
379.84	223.74
380.22	223.68
380.60	223.61
380.98	223.56
381.36	223.51
381.73	223.44
382.11	223.41
382.49	223.37
382.87	223.31
383.25	223.26
383.62	223.33
384.00	223.26
384.38	223.22
384.76	223.20
385.13	223.18
385.51	223.14
385.89	223.09
386.27	223.05
386.64	223.03
387.02	222.98
387.40	222.93
387.78	222.90
388.15	222.88
388.53	222.85
388.91	222.82
389.29	222.78
389.66	222.78
390.04	222.74
390.42	222.73
390.79	222.72
391.17	222.70
391.55	222.57
391.92	222.56
392.30	222.56
392.68	222.52
393.05	222.50
393.43	222.50
393.81	222.50
394.18	222.49
394.56	222.49
394.94	222.52
395.31	222.51
395.69	222.55
396.06	222.58
396.44	222.60
396.82	222.61
397.19	222.68
397.57	222.70
397.95	222.73
398.32	222.73
398.70	222.77
399.07	222.83
399.45	222.86
399.82	222.90
400.20	222.94
400.58	222.99
400.95	223.01
401.33	223.09
401.70	223.22
402.08	223.31
402.45	223.39
402.83	223.50
403.20	223.60
403.58	223.68
403.95	223.81
404.33	223.94
404.71	224.07
405.08	224.25
405.46	224.39
405.83	224.56
406.21	224.73
406.58	224.92
406.96	225.11
407.33	225.33
407.70	225.58
408.08	225.91
408.45	226.20
408.83	226.51
409.20	226.79
409.58	227.04
409.95	227.39
410.33	227.77
410.70	228.13
411.08	228.55
411.45	228.99
411.82	229.44
412.20	229.95
412.57	230.57
412.95	231.05
413.32	231.68
413.69	232.32
414.07	233.01
414.44	233.75
414.82	234.51
415.19	235.40
415.56	236.30
415.94	237.24
416.31	238.29
416.68	239.34
417.06	240.57
417.43	241.72
417.81	243.05
418.18	244.40
418.55	245.88
418.93	247.42
419.30	249.02
419.67	250.73
420.04	252.48
420.42	254.31
420.79	256.43
421.16	258.57
421.54	260.75
421.91	263.01
422.28	265.38
422.66	267.92
423.03	270.35
423.40	272.91
423.77	275.64
424.15	278.44
424.52	281.35
424.89	284.50
425.26	287.63
425.64	290.53
426.01	293.79
426.38	297.13
426.75	300.57
427.13	304.09
427.50	307.77
427.87	311.59
428.24	315.45
428.61	319.14
428.99	323.12
429.36	327.49
429.73	331.66
430.10	335.82
430.47	340.06
430.85	344.42
431.22	349.07
431.59	353.85
431.96	358.50
432.33	363.65
432.70	368.53
433.08	374.30
433.45	379.75
433.82	385.10
434.19	391.09
434.56	396.97
434.93	402.64
435.30	408.24
435.68	414.56
436.05	420.74
436.42	426.92
436.79	432.55
437.16	438.63
437.53	445.14
437.90	451.65
438.27	458.01
438.64	464.91
439.01	471.16
439.38	476.87
439.75	482.38
440.13	488.68
440.50	494.68
440.87	499.41
441.24	504.62
441.61	510.37
441.98	514.60
442.35	519.63
442.72	524.80
443.09	529.74
443.46	532.94
443.83	535.33
444.20	537.37
444.57	540.33
444.94	542.11
445.31	543.96
445.68	545.62
446.05	546.88
446.42	546.80
446.79	546.61
447.16	546.47
447.53	546.38
447.90	544.60
448.27	542.93
448.64	540.26
449.01	538.50
449.37	534.61
449.74	531.07
450.11	526.51
450.48	521.45
450.85	516.38
451.22	512.06
451.59	507.84
451.96	504.00
452.33	498.34
452.70	493.31
453.07	487.15
453.43	480.99
453.80	475.03
454.17	469.29
454.54	463.97
454.91	457.95
455.28	452.28
455.65	446.93
456.02	441.23
456.38	436.64
456.75	430.71
457.12	425.92
457.49	421.09
457.86	416.47
458.23	412.43
458.59	407.96
458.96	403.36
459.33	399.30
459.70	395.17
460.07	392.03
460.43	388.32
460.80	384.84
461.17	381.77
461.54	378.47
461.91	375.38
462.27	372.25
462.64	369.68
463.01	366.75
463.38	363.78
463.74	361.10
464.11	358.71
464.48	356.55
464.85	354.24
465.21	352.47
465.58	350.52
465.95	348.27
466.32	346.46
466.68	344.70
467.05	342.94
467.42	341.23
467.78	339.38
468.15	337.69
468.52	336.43
468.88	334.78
469.25	333.27
469.62	332.07
469.98	330.77
470.35	329.61
470.72	328.57
471.08	327.51
471.45	326.64
471.82	325.67
472.18	324.66
472.55	324.01
472.92	323.21
473.28	322.58
473.65	321.93
474.02	321.32
474.38	320.82
474.75	320.54
475.11	320.13
475.48	319.98
475.85	319.82
476.21	319.78
476.58	319.79
476.94	319.98
477.31	320.11
477.67	320.27
478.04	320.54
478.41	320.88
478.77	321.35
479.14	321.70
479.50	322.27
479.87	322.97
480.23	323.68
480.60	324.35
480.96	325.06
481.33	326.03
481.69	327.00
482.06	327.97
482.42	328.88
482.79	329.97
483.15	331.21
483.52	332.61
483.88	333.96
484.25	335.39
484.61	336.89
484.98	338.50
485.34	340.30
485.71	342.17
486.07	344.16
486.44	346.14
486.80	348.34
487.17	350.59
487.53	353.07
487.90	355.65
488.26	358.44
488.62	361.39
488.99	364.34
489.35	367.42
489.72	370.75
490.08	374.25
490.44	377.85
490.81	381.62
491.17	385.47
491.54	389.59
491.90	393.81
492.26	398.36
492.63	403.15
492.99	408.11
493.36	413.22
493.72	418.59
494.08	424.10
494.45	429.92
494.81	435.95
495.17	442.10
495.54	448.61
495.90	455.43
496.26	462.39
496.63	469.58
496.99	477.06
497.35	484.92
497.72	493.07
498.08	501.39
498.44	509.96
498.80	519.10
499.17	528.45
499.53	538.15
499.89	548.09
500.26	558.19
500.62	568.58
500.98	579.65
501.34	590.88
501.71	602.64
502.07	614.63
502.43	627.01
502.79	639.73
503.16	652.86
503.52	666.18
503.88	679.88
504.24	694.01
504.60	708.44
504.97	723.24
505.33	738.43
505.69	754.54
506.05	770.86
506.41	787.16
506.78	803.77
507.14	820.86
507.50	838.55
507.86	856.64
508.22	875.01
508.59	893.40
508.95	912.51
509.31	932.05
509.67	952.30
510.03	972.77
510.39	993.46
510.75	1014.39
511.12	1035.61
511.48	1057.14
511.84	1078.77
512.20	1100.71
512.56	1123.77
512.92	1147.00
513.28	1169.94
513.64	1193.22
514.00	1216.91
514.37	1240.96
514.73	1265.03
515.09	1288.90
515.45	1313.20
515.81	1338.06
516.17	1362.96
516.53	1387.52
516.89	1412.16
517.25	1436.99
517.61	1462.01
517.97	1487.21
518.33	1512.15
518.69	1537.23
519.05	1562.57
519.41	1588.05
519.77	1613.79
520.13	1638.72
520.49	1663.83
520.85	1689.17
521.21	1714.41
521.57	1740.25
521.93	1765.34
522.29	1791.27
522.65	1816.95
523.01	1842.40
523.37	1867.09
523.73	1892.45
524.09	1917.99
524.45	1943.42
524.81	1968.35
525.17	1993.19
525.53	2017.58
525.89	2041.99
526.25	2066.61
526.61	2090.70
526.97	2115.06
527.33	2139.35
527.68	2163.44
528.04	2186.74
528.40	2209.87
528.76	2233.17
529.12	2255.41
529.48	2278.04
529.84	2298.80
530.20	2320.12
530.56	2341.09
530.91	2362.12
531.27	2382.64
531.63	2402.47
531.99	2421.79
532.35	2440.81
532.71	2459.91
533.07	2479.60
533.42	2497.76
533.78	2516.28
534.14	2534.78
534.50	2552.43
534.86	2570.71
535.21	2587.17
535.57	2603.50
535.93	2619.13
536.29	2633.54
536.65	2648.82
537.00	2662.92
537.36	2677.55
537.72	2691.15
538.08	2704.37
538.44	2716.44
538.79	2728.73
539.15	2739.41
539.51	2749.99
539.87	2760.21
540.22	2768.26
540.58	2776.43
540.94	2785.15
541.29	2792.38
541.65	2798.59
542.01	2804.32
542.37	2808.16
542.72	2813.95
543.08	2819.22
543.44	2824.27
543.79	2828.55
544.15	2831.88
544.51	2835.22
544.87	2837.66
545.22	2839.70
545.58	2840.81
545.94	2842.37
546.29	2842.42
546.65	2842.57
547.01	2842.83
547.36	2843.16
547.72	2843.67
548.07	2842.72
548.43	2841.13
548.79	2838.87
549.14	2836.62
549.50	2835.04
549.86	2832.54
550.21	2827.60
550.57	2823.08
550.92	2817.27
551.28	2812.03
551.64	2806.71
551.99	2801.77
552.35	2796.44
552.70	2790.65
553.06	2785.58
553.41	2780.09
553.77	2774.01
554.13	2768.65
554.48	2762.30
554.84	2754.36
555.19	2746.59
555.55	2738.25
555.90	2730.49
556.26	2723.75
556.61	2716.38
556.97	2706.77
557.32	2698.09
557.68	2689.82
558.03	2680.89
558.39	2672.62
558.74	2664.48
559.10	2655.15
559.45	2645.44
559.81	2636.11
560.16	2626.09
560.52	2615.67
560.87	2606.26
561.23	2596.46
561.58	2586.12
561.94	2575.54
562.29	2564.48
562.64	2554.05
563.00	2543.93
563.35	2533.65
563.71	2522.42
564.06	2510.73
564.42	2500.05
564.77	2489.00
565.12	2478.08
565.48	2466.94
565.83	2456.43
566.19	2445.95
566.54	2435.04
566.89	2423.31
567.25	2411.47
567.60	2400.48
567.96	2389.03
568.31	2376.15
568.66	2363.26
569.02	2351.44
569.37	2339.37
569.72	2327.82
570.08	2315.53
570.43	2302.70
570.78	2289.58
571.14	2276.28
571.49	2263.75
571.84	2251.52
572.20	2238.04
572.55	2224.90
572.90	2211.64
573.26	2197.40
573.61	2182.64
573.96	2168.21
574.31	2154.13
574.67	2140.27
575.02	2126.00
575.37	2111.28
575.72	2096.82
576.08	2082.96
576.43	2068.06
576.78	2053.27
577.13	2039.30
577.49	2025.30
577.84	2011.70
578.19	1997.25
578.54	1982.46
578.90	1967.15
579.25	1951.58
579.60	1937.41
579.95	1922.89
580.30	1908.40
580.66	1894.27
581.01	1879.76
581.36	1865.54
581.71	1851.91
582.06	1837.76
582.42	1823.71
582.77	1810.41
583.12	1796.74
583.47	1783.15
583.82	1769.68
584.17	1756.10
584.53	1742.33
584.88	1728.61
585.23	1714.50
585.58	1700.94
585.93	1687.82
586.28	1675.53
586.63	1663.03
586.98	1649.81
587.34	1636.82
587.69	1623.36
588.04	1610.14
588.39	1597.58
588.74	1584.55
589.09	1571.24
589.44	1557.93
589.79	1545.14
590.14	1532.25
590.49	1519.58
590.84	1506.75
591.19	1494.58
591.54	1481.89
591.89	1469.05
592.25	1456.57
592.60	1443.73
592.95	1431.42
593.30	1419.41
593.65	1407.16
594.00	1395.17
594.35	1383.92
594.70	1371.89
595.05	1360.93
595.40	1349.77
595.75	1338.02
596.10	1327.09
596.45	1316.38
596.80	1306.12
597.15	1295.66
597.50	1285.19
597.85	1274.94
598.19	1264.86
598.54	1254.16
598.89	1244.24
599.24	1234.62
599.59	1224.78
599.94	1215.95
600.29	1207.00
600.64	1197.81
600.99	1188.03
601.34	1178.72
601.69	1168.85
602.04	1160.04
602.39	1151.05
602.74	1142.31
603.08	1133.82
603.43	1124.83
603.78	1115.75
604.13	1106.81
604.48	1097.80
604.83	1089.06
605.18	1080.23
605.53	1071.33
605.87	1062.57
606.22	1054.05
606.57	1045.30
606.92	1036.62
607.27	1027.79
607.62	1019.07
607.96	1010.51
608.31	1003.00
608.66	995.02
609.01	987.47
609.36	979.88
609.70	972.04
610.05	964.06
610.40	956.42
610.75	948.89
611.10	941.62
611.44	933.98
611.79	926.65
612.14	918.94
612.49	911.38
612.83	904.31
613.18	897.28
613.53	890.04
613.88	882.90
614.22	876.36
614.57	869.64
614.92	862.91
615.27	856.21
615.61	849.35
615.96	842.73
616.31	836.02
616.65	829.21
617.00	822.67
617.35	816.26
617.70	809.86
618.04	803.54
618.39	797.23
618.74	791.26
619.08	785.11
619.43	779.20
619.78	773.31
620.12	767.23
620.47	761.33
620.82	755.55
621.16	750.06
621.51	744.22
621.85	738.36
622.20	732.57
622.55	726.96
622.89	721.30
623.24	715.68
623.59	710.13
623.93	704.64
624.28	699.28
624.62	693.91
624.97	688.53
625.32	683.26
625.66	677.85
626.01	672.43
626.35	667.15
626.70	661.92
627.04	656.88
627.39	651.88
627.73	647.01
628.08	642.34
628.43	637.55
628.77	632.82
629.12	628.24
629.46	623.81
629.81	619.20
630.15	614.49
630.50	609.94
630.84	605.58
631.19	601.41
631.53	597.27
631.88	593.02
632.22	588.87
632.57	584.95
632.91	580.99
633.26	577.12
633.60	573.31
633.95	569.61
634.29	565.76
634.64	561.89
634.98	557.92
635.32	554.10
635.67	550.41
636.01	546.68
636.36	542.99
636.70	539.44
637.05	535.89
637.39	532.55
637.73	529.07
638.08	525.64
638.42	522.18
638.77	518.59
639.11	515.01
639.45	511.47
639.80	507.92
640.14	504.56
640.49	501.15
640.83	497.63
641.17	494.16
641.52	490.85
641.86	487.53
642.20	484.38
642.55	481.08
642.89	477.87
643.23	474.84
643.58	472.05
643.92	469.14
644.26	466.26
644.61	463.36
644.95	460.48
645.29	457.54
645.64	454.58
645.98	451.76
646.32	449.11
646.66	446.46
647.01	443.79
647.35	441.16
647.69	438.42
648.04	435.85
648.38	433.31
648.72	430.71
649.06	428.20
649.41	425.71
649.75	423.21
650.09	420.75
650.43	418.30
650.78	415.81
651.12	413.32
651.46	410.92
651.80	408.62
652.14	406.40
652.49	404.18
652.83	402.03
653.17	399.86
653.51	397.75
653.85	395.70
654.20	393.60
654.54	391.42
654.88	389.43
655.22	387.49
655.56	385.51
655.90	383.63
656.25	381.76
656.59	379.89
656.93	378.13
657.27	376.39
657.61	374.55
657.95	372.78
658.29	371.02
658.64	369.29
658.98	367.54
659.32	365.81
659.66	364.19
660.00	362.58
660.34	361.01
660.68	359.37
661.02	357.68
661.36	356.10
661.70	354.59
662.05	353.05
662.39	351.50
662.73	350.04
663.07	348.61
663.41	347.20
663.75	345.81
664.09	344.43
664.43	342.96
664.77	341.60
665.11	340.17
665.45	338.83
665.79	337.48
666.13	336.12
666.47	334.76
666.81	333.36
667.15	331.93
667.49	330.60
667.83	329.33
668.17	328.10
668.51	326.88
668.85	325.68
669.19	324.55
669.53	323.35
669.87	322.13
670.21	320.94
670.55	319.76
670.89	318.66
671.23	317.53
671.57	316.41
671.91	315.34
672.25	314.34
672.58	313.32
672.92	312.27
673.26	311.29
673.60	310.32
673.94	309.33
674.28	308.41
674.62	307.48
674.96	306.50
675.30	305.59
675.64	304.65
675.97	303.74
676.31	302.78
676.65	301.85
676.99	300.99
677.33	300.07
677.67	299.19
678.01	298.24
678.34	297.36
678.68	296.54
679.02	295.68
679.36	294.83
679.70	293.99
680.04	293.18
680.37	292.36
680.71	291.57
681.05	290.82
681.39	290.04
681.73	289.23
682.06	288.45
682.40	287.69
682.74	286.95
683.08	286.23
683.42	285.50
683.75	284.83
684.09	284.09
684.43	283.40
684.77	282.69
685.10	282.03
685.44	281.35
685.78	280.67
686.12	280.02
686.45	279.36
686.79	278.69
687.13	278.05
687.46	277.38
687.80	276.74
688.14	276.06
688.48	275.44
688.81	274.81
689.15	274.24
689.49	273.62
689.82	273.02
690.16	272.36
690.50	271.77
690.83	271.17
691.17	270.59
691.51	270.02
691.84	269.48
692.18	268.90
692.52	268.31
692.85	267.74
693.19	267.22
693.52	266.68
693.86	266.15
694.20	265.62
694.53	265.12
694.87	264.61
695.21	264.11
695.54	263.62
695.88	263.11
696.21	262.57
696.55	262.08
696.88	261.59
697.22	261.12
697.56	260.64
697.89	260.12
698.23	259.63
698.56	259.13
698.90	258.67
699.23	258.20
699.57	257.77
699.90	257.32
700.24	256.85
700.58	256.42
700.91	256.01
701.25	255.68
701.58	255.31
701.92	254.93
702.25	254.53
702.59	254.11
702.92	253.73
703.26	253.35
703.59	252.96
703.93	252.66
704.26	252.30
704.60	251.93
704.93	251.58
705.26	251.23
705.60	250.92
705.93	250.55
706.27	250.25
706.60	249.94
706.94	249.64
707.27	249.28
707.61	248.94
707.94	248.59
708.27	248.17
708.61	247.80
708.94	247.45
709.28	247.13
709.61	246.82
709.94	246.53
710.28	246.24
710.61	245.97
710.95	245.59
711.28	245.38
711.61	245.10
711.95	244.85
712.28	244.57
712.61	244.28
712.95	244.07
713.28	243.85
713.61	243.58
713.95	243.30
714.28	243.07
714.61	242.81
714.95	242.57
715.28	242.32
715.61	242.09
715.95	241.87
716.28	241.64
716.61	241.44
716.95	241.20
717.28	240.98
717.61	240.76
717.94	240.54
718.28	240.26
718.61	240.05
718.94	239.81
719.27	239.61
719.61	239.43
719.94	239.19
720.27	238.94
720.60	238.74
720.94	238.55
721.27	238.37
721.60	238.21
721.93	238.03
722.27	237.88
722.60	237.72
722.93	237.52
723.26	237.36
723.59	237.16
723.93	237.01
724.26	236.85
724.59	236.68
724.92	236.53
725.25	236.40
725.59	236.24
725.92	236.11
726.25	235.96
726.58	235.81
726.91	235.65
727.24	235.52
727.57	235.38
727.91	235.22
728.24	235.08
728.57	234.93
728.90	234.80
729.23	234.62
729.56	234.53
729.89	234.40
730.22	234.25
730.55	234.12
730.89	233.98
731.22	233.85
731.55	233.71
731.88	233.58
732.21	233.44
732.54	233.31
732.87	233.19
733.20	233.08
733.53	232.96
733.86	232.86
734.19	232.73
734.52	232.64
734.85	232.60
735.18	232.47
735.51	232.39
735.84	232.28
736.17	232.21
736.50	232.05
736.83	232.07
737.16	231.97
737.49	231.88
737.82	231.78
738.15	231.70
738.48	231.61
738.81	231.50
739.14	231.40
739.47	231.30
739.80	231.19
740.13	231.11
740.46	231.00
740.79	230.89
741.12	230.80
741.45	230.69
741.78	230.54
742.11	230.48
742.44	230.36
742.77	230.29
743.10	230.19
743.43	230.10
743.75	229.90
744.08	229.98
744.41	229.88
744.74	229.79
745.07	229.68
745.40	229.62
745.73	229.59
746.06	229.51
746.39	229.45
746.71	229.37
747.04	229.28
747.37	229.21
747.70	229.16
748.03	229.09
748.36	229.04
748.68	228.97
749.01	228.87
749.34	228.80
749.67	228.73
750.00	228.68
750.33	228.70
750.65	228.64
750.98	228.42
751.31	228.37
751.64	228.31
751.97	228.31
752.29	228.24
752.62	228.13
752.95	228.06
753.28	227.98
753.60	227.92
753.93	227.88
754.26	227.83
754.59	227.73
754.91	227.65
755.24	227.58
755.57	227.56
755.90	227.50
756.22	227.43
756.55	227.36
756.88	227.27
757.20	227.14
757.53	227.06
757.86	227.00
758.19	226.95
758.51	226.89
758.84	226.79
759.17	226.73
759.49	226.68
759.82	226.68
760.15	226.64
760.47	226.60
760.80	226.52
761.13	226.48
761.45	226.44
761.78	226.40
762.11	226.36
762.43	226.26
762.76	226.22
763.08	226.18
763.41	226.14
763.74	226.11
764.06	226.06
764.39	226.03
764.71	225.99
765.04	225.93
765.37	225.88
765.69	225.84
766.02	225.80
766.34	225.75
766.67	225.67
767.00	225.65
767.32	225.67
767.65	225.70
767.97	225.65
768.30	225.61
768.62	225.58
768.95	225.53
769.27	225.49
769.60	225.47
769.92	225.42
770.25	225.37
770.57	225.31
770.90	225.28
771.22	225.23
771.55	225.20
771.87	225.17
772.20	225.14
772.52	225.19
772.85	225.28
773.17	225.25
773.50	225.21
773.82	225.16
774.15	225.08
774.47	224.98
774.80	224.94
775.12	224.91
775.45	224.88
775.77	224.86
776.09	224.83
776.42	224.81
776.74	224.81
777.07	224.78
777.39	224.76
777.72	224.73
778.04	224.72
778.36	224.69
778.69	224.67
779.01	224.66
779.33	224.54
779.66	224.40
779.98	224.37
780.31	224.36
780.63	224.38
780.95	224.38
781.28	224.36
781.60	224.33
781.92	224.30
782.25	224.28
782.57	224.26
782.89	224.24
783.22	224.21
783.54	224.16
783.86	224.16
784.19	224.13
784.51	224.15
784.83	224.12
785.16	224.09
785.48	224.08
785.80	224.05
786.12	224.05
786.45	224.03
786.77	224.02
787.09	224.00
787.42	223.94
787.74	223.93
788.06	223.92
788.38	223.90
788.71	223.88
789.03	223.87
789.35	223.86
789.67	223.84
789.99	223.83
790.32	223.80
790.64	223.80
790.96	223.88
791.28	223.83
791.61	223.81
791.93	223.81
792.25	223.79
792.57	223.85
792.89	223.81
793.21	223.81
793.54	223.78
793.86	223.75
794.18	223.74
794.50	223.70
794.82	223.69
795.14	223.69
795.47	223.69
795.79	223.68
796.11	223.64
796.43	223.63
796.75	223.61
797.07	223.61
797.39	223.59
797.71	223.49
798.04	223.48
798.36	223.48
798.68	223.47
799.00	223.46
799.32	223.40
799.64	223.41
799.96	223.40
800.28	223.42
800.60	223.40
800.92	223.40
801.24	223.39
801.56	223.38
801.89	223.36
802.21	223.35
802.53	223.32
802.85	223.34
803.17	223.38
803.49	223.35
803.81	223.33
804.13	223.32
804.45	223.30
804.77	223.30
805.09	223.29
805.41	223.27
805.73	223.24
806.05	223.20
806.37	223.18
806.69	223.16
807.01	223.14
807.33	223.14
807.65	223.10
807.97	223.14
808.28	223.12
808.60	223.11
808.92	223.09
809.24	223.14
809.56	223.11
809.88	223.07
810.20	223.06
810.52	223.08
810.84	223.05
811.16	223.04
811.48	223.02
811.80	223.05
812.12	223.04
812.43	223.05
812.75	223.06
813.07	223.04
813.39	223.04
813.71	223.02
814.03	223.01
814.35	223.01
814.67	222.95
814.98	222.94
815.30	222.93
815.62	222.91
815.94	222.84
816.26	222.84
816.58	222.82
816.89	222.82
817.21	222.79
817.53	222.80
817.85	222.80
818.17	222.79
818.48	222.74
818.80	222.76
819.12	222.73
819.44	222.71
819.76	222.70
820.07	222.70
820.39	222.69
820.71	222.69
821.03	222.69
821.34	222.68
821.66	222.69
821.98	222.70
822.30	222.70
822.61	222.76
822.93	222.74
823.25	222.74
823.57	222.72
823.88	222.74
824.20	222.73
824.52	222.74
824.83	222.74
825.15	222.73
825.47	222.71
825.79	222.72
826.10	222.71
826.42	222.70
826.74	222.70
827.05	222.70
827.37	222.70
827.69	222.69
828.00	222.69
828.32	222.69
828.64	222.67
828.95	222.72
829.27	222.69
829.58	222.69
829.90	222.70
830.22	222.71
830.53	222.69
830.85	222.68
831.17	222.65
831.48	222.65
831.80	222.65
832.11	222.65
832.43	222.63
832.75	222.63
833.06	222.69
833.38	222.66
833.69	222.65
834.01	222.65
834.32	222.65
834.64	222.63
834.96	222.63
835.27	222.62
835.59	222.58
835.90	222.57
836.22	222.56
836.53	222.54
836.85	222.52
837.16	222.63
837.48	222.63
837.79	222.66
838.11	222.66
838.42	222.65
838.74	222.66
839.05	222.65
839.37	222.65
839.68	222.58
840.00	222.58
840.31	222.59
840.63	222.58
840.94	222.57
841.26	222.55
841.57	222.55
841.88	222.56
842.20	222.54
842.51	222.53
842.83	222.52
843.14	222.62
843.46	222.61
843.77	222.55
844.08	222.54
844.40	222.51
844.71	222.50
845.03	222.49
845.34	222.47
845.65	222.47
845.97	222.47
846.28	222.47
846.60	222.48
846.91	222.46
847.22	222.46
847.54	222.48
847.85	222.49
848.16	222.48
848.48	222.45
848.79	222.50
849.10	222.51
849.42	222.51
849.73	222.41
850.04	222.41
850.36	222.37
850.67	222.39
850.98	222.39
851.30	222.40
851.61	222.40
851.92	222.40
852.23	222.43
852.55	222.43
852.86	222.44
853.17	222.45
853.49	222.47
853.80	222.49
854.11	222.49
854.42	222.50
854.74	222.50
855.05	222.50
855.36	222.45
855.67	222.45
855.99	222.45
856.30	222.57
856.61	222.57
856.92	222.57
857.23	222.57
857.55	222.55
857.86	222.54
858.17	222.55
858.48	222.53
858.79	222.51
859.11	222.52
859.42	222.51
859.73	222.49
860.04	222.49
860.35	222.46
860.66	222.42
860.98	222.41
861.29	222.42
861.60	222.41
861.91	222.43
862.22	222.42
862.53	222.40
862.84	222.28
863.16	222.30
863.47	222.28
863.78	222.27
864.09	222.28
864.40	222.28
864.71	222.28
865.02	222.29
865.33	222.28
865.64	222.26
865.95	222.25
866.27	222.32
866.58	222.30
866.89	222.31
867.20	222.31
867.51	222.29
867.82	222.29
868.13	222.32
868.44	222.30
868.75	222.31
869.06	222.32
869.37	222.33
869.68	222.31
869.99	222.32
870.30	222.33
870.61	222.34
870.92	222.32
871.23	222.32
871.54	222.33
871.85	222.35
872.16	222.37
872.47	222.36
872.78	222.30
873.09	222.31
873.40	222.30
873.71	222.31
874.02	222.32
874.33	222.31
874.64	222.29
874.95	222.30
875.26	222.28
875.56	222.27
875.87	222.27
876.18	222.26
876.49	222.36
876.80	222.35
877.11	222.33
877.42	222.34
877.73	222.34
878.04	222.32
878.35	222.31
878.66	222.31
878.96	222.31
879.27	222.31
879.58	222.30
879.89	222.29
880.20	222.32
880.51	222.31
880.82	222.31
881.12	222.31
881.43	222.29
881.74	222.28
882.05	222.27
882.36	222.28
882.67	222.28
882.97	222.17
883.28	222.16
883.59	222.16
883.90	222.17
884.21	222.18
884.51	222.18
884.82	222.16
885.13	222.16
885.44	222.16
885.74	222.16
886.05	222.16
886.36	222.16
886.67	222.12
886.98	222.18
887.28	222.18
887.59	222.18
887.90	222.19
888.20	222.18
888.51	222.20
888.82	222.18
889.13	222.19
889.43	222.28
889.74	222.27
890.05	222.27
890.35	222.25
890.66	222.23
890.97	222.22
891.28	222.22
891.58	222.22
891.89	222.21
892.20	222.21
892.50	222.19
892.81	222.19
893.12	222.19
893.42	222.13
893.73	222.13
894.04	222.13
894.34	222.14
894.65	222.13
894.95	222.13
895.26	222.13
895.57	222.17
895.87	222.07
896.18	222.09
896.48	222.09
896.79	222.09
897.10	222.11
897.40	222.11
897.71	222.12
898.01	222.10
898.32	222.12
898.63	222.11
898.93	222.12
899.24	222.12
899.54	222.12
899.85	222.11
900.15	222.11
900.46	222.11
900.76	222.12
901.07	222.12
901.38	222.11
901.68	222.12
901.99	222.07
902.29	222.08
902.60	222.06
902.90	222.05
903.21	222.05
903.51	222.04
903.82	222.06
904.12	222.06
904.43	222.06
904.73	222.05
905.03	222.06
905.34	222.16
905.64	222.15
905.95	222.15
906.25	222.15
906.56	222.15
906.86	222.14
907.17	222.13
907.47	222.13
907.77	222.12
908.08	222.10
908.38	222.11
908.69	222.12
908.99	222.14
909.30	222.15
909.60	222.15
909.90	222.16
910.21	222.12
910.51	222.11
910.81	222.11
911.12	222.11
911.42	222.11
911.73	222.01
912.03	222.01
912.33	222.04
912.64	222.03
912.94	222.02
913.24	222.01
913.55	222.00
913.85	221.99
914.15	222.02
914.46	222.03
914.76	222.02
915.06	222.01
915.37	221.99
915.67	221.98
915.97	221.98
916.27	221.96
916.58	221.97
916.88	221.97
917.18	221.96
917.49	222.03
917.79	222.03
918.09	222.04
918.39	222.06
918.70	222.05
919.00	222.06
919.30	222.11
919.60	222.10
919.91	222.09
920.21	222.09
920.51	222.07
920.81	222.06
921.12	222.08
921.42	222.07
921.72	222.08
922.02	222.08
922.32	222.10
922.63	222.10
922.93	222.16
923.23	222.16
923.53	222.15
923.83	222.08
924.13	222.09
924.44	222.09
924.74	222.10
925.04	222.12
925.34	222.12
925.64	222.07
925.94	222.07
926.24	222.13
926.55	222.13
926.85	222.14
927.15	222.14
927.45	222.14
927.75	222.14
928.05	222.14
928.35	222.13
928.65	222.14
928.95	222.15
929.26	222.10
929.56	222.12
929.86	222.13
930.16	222.12
930.46	222.12
930.76	222.12
931.06	222.07
931.36	222.04
931.66	222.06
931.96	222.08
932.26	222.08
932.56	222.04
932.86	222.05
933.16	222.04
933.46	222.03
933.76	222.01
934.06	222.03
934.36	222.07
934.66	222.07
934.96	222.05
935.26	222.05
935.56	222.06
935.86	222.03
936.16	222.02
936.46	222.02
936.76	222.01
937.06	221.99
937.36	222.00
937.66	222.01
937.96	222.00
938.26	221.98
938.56	221.97
938.86	221.98
939.16	222.00
939.46	222.01
939.76	222.02
940.06	222.02
940.35	222.00
940.65	221.95
940.95	221.96
941.25	221.93
941.55	221.92
941.85	221.91
942.15	221.94
942.45	221.96
942.75	221.96
943.04	221.96
943.34	221.98
943.64	221.97
943.94	221.95
944.24	221.95
944.54	221.96
944.84	221.96
945.13	221.94
945.43	221.92
945.73	221.91
946.03	221.90
946.33	221.89
946.62	221.88
946.92	221.88
947.22	221.89
947.52	221.90
947.82	221.91
948.11	221.90
948.41	221.87
948.71	221.84
949.01	221.85
949.31	221.84
949.60	221.83
949.90	221.85
950.20	221.84
950.50	221.84
950.79	221.83
951.09	221.84
951.39	221.84
951.69	221.83
951.98	221.85
952.28	221.85
952.58	221.85
952.87	221.85
953.17	221.87
953.47	221.85
953.76	221.85
954.06	221.83
954.36	221.82
954.66	221.82
954.95	221.85
955.25	221.85
955.55	221.86
955.84	221.85
956.14	221.85
956.44	221.86
956.73	221.84
957.03	221.85
957.32	221.85
957.62	221.85
957.92	221.87
958.21	221.86
958.51	221.98
958.81	222.00
959.10	222.01
959.40	222.03
959.69	222.03
959.99	222.05
960.29	222.05
960.58	222.05
960.88	222.09
961.17	222.08
961.47	222.09
961.76	222.08
962.06	222.10
962.36	222.09
962.65	222.09
962.95	222.10
963.24	222.09
963.54	222.09
963.83	222.10
964.13	222.09
964.42	222.08
964.72	221.99
965.01	221.99
965.31	221.98
965.60	221.95
965.90	222.02
966.19	221.99
966.49	222.00
966.78	221.99
967.08	221.98
967.37	221.98
967.67	221.96
967.96	221.98
968.26	221.97
968.55	221.99
968.85	221.98
969.14	221.98
969.43	221.98
969.73	221.97
970.02	221.97
970.32	221.96
970.61	221.95
970.91	221.91
971.20	221.90
971.49	221.89
971.79	221.90
972.08	221.83
972.38	221.84
972.67	221.83
972.96	221.84
973.26	221.83
973.55	221.86
973.85	221.85
974.14	221.84
974.43	221.85
974.73	221.83
975.02	221.82
975.31	221.82
975.61	221.82
975.90	221.82
976.19	221.81
976.49	221.81
976.78	221.82
977.07	221.82
977.37	221.83
977.66	221.84
977.95	221.83
978.24	221.84
978.54	221.86
978.83	221.85
979.12	221.84
979.42	221.84
979.71	221.82
980.00	221.82
980.29	221.83
980.59	221.81
980.88	221.83
981.17	221.83
981.46	221.83
981.76	221.83
982.05	221.86
982.34	221.87
982.63	221.87
982.93	221.87
983.22	221.89
983.51	221.90
983.80	221.91
984.09	221.93
984.39	221.92
984.68	221.90
984.97	221.91
985.26	221.90
985.55	221.91
985.85	221.90
986.14	221.91
986.43	221.92
986.72	221.91
987.01	221.88
987.30	221.88
987.59	221.87
987.89	221.88
988.18	221.85
988.47	221.83
988.76	221.82
989.05	221.81
989.34	221.80
989.63	221.82
989.92	221.81
990.22	221.79
990.51	221.79
990.80	221.78
991.09	221.79
991.38	221.80
991.67	221.79
991.96	221.78
992.25	221.78
992.54	221.76
992.83	221.76
993.12	221.76
993.41	221.77
993.70	221.81
993.99	221.83
994.28	221.84
994.58	221.86
994.87	221.85
995.16	221.85
995.45	221.84
995.74	221.80
996.03	221.81
996.32	221.83
996.61	221.85
996.90	221.85
997.19	221.84
997.48	221.84
997.77	221.84
998.06	221.84
998.34	221.83
998.63	221.83
998.92	221.84
999.21	221.86
999.50	221.86
999.79	221.82
1000.08	221.82
1000.37	221.82
1000.66	221.81
1000.95	221.84
1001.24	221.85
1001.53	221.86
1001.82	221.86
1002.11	221.83
1002.40	221.84
1002.68	221.86
1002.97	221.93
1003.26	221.92
1003.55	221.91
1003.84	221.91
1004.13	221.95
1004.42	221.95
1004.71	221.94
1004.99	221.94
1005.28	221.96
1005.57	221.95
1005.86	221.94
1006.15	221.93
1006.44	221.91
1006.72	221.92
1007.01	221.90
1007.30	221.90
1007.59	221.89
1007.88	221.89
1008.17	221.89
1008.45	221.87
1008.74	221.83
1009.03	221.78
1009.32	221.78
1009.60	221.78
1009.89	221.78
1010.18	221.73
1010.47	221.73
1010.76	221.73
1011.04	221.73
1011.33	221.73
1011.62	221.73
1011.91	221.74
1012.19	221.74
1012.48	221.75
1012.77	221.75
1013.05	221.79
1013.34	221.79
1013.63	221.78
1013.92	221.79
1014.20	221.79
1014.49	221.79
1014.78	221.80
1015.06	221.76
1015.35	221.76
1015.64	221.77
1015.92	221.79
1016.21	221.80
1016.50	221.80
1016.78	221.81
1017.07	221.82
1017.36	221.80
1017.64	221.78
1017.93	221.79
1018.22	221.79
1018.50	221.78
1018.79	221.78
1019.08	221.74
1019.36	221.75
1019.65	221.74
1019.93	221.77
1020.22	221.78
1020.51	221.84
1020.79	221.83
1021.08	221.66
1021.36	221.64
1021.65	221.74
1021.94	221.73
1022.22	221.86
1022.51	221.60
1022.79	222.28
1023.08	221.90
1023.36	223.06
1023.65	221.61
>>>>>End Processed Spectral Data<<<<<
