SpectraSuite Data File
++++++++++++++++++++++++++++++++++++
Date: Thu Oct 01 06:18:43 EDT 2015
User: lab3
Dark Spectrum Present: No
Reference Spectrum Present: No
Number of Sampled Component Spectra: 1
Spectrometers: USB2E7196
Integration Time (usec): 36000 (USB2E7196)
Spectra Averaged: 10000 (USB2E7196)
Boxcar Smoothing: 10 (USB2E7196)
Correct for Electrical Dark: No (USB2E7196)
Strobe/Lamp Enabled: No (USB2E7196)
Correct for Detector Non-linearity: No (USB2E7196)
Correct for Stray Light: No (USB2E7196)
Number of Pixels in Processed Spectrum: 2048
>>>>>Begin Processed Spectral Data<<<<<
339.09	0.00
339.48	210.97
339.86	212.48
340.24	213.85
340.63	215.30
341.01	218.17
341.39	217.99
341.78	219.27
342.16	220.49
342.54	220.96
342.93	209.52
343.31	220.12
343.69	220.65
344.07	221.11
344.46	221.54
344.84	221.92
345.22	222.16
345.60	222.42
345.99	222.61
346.37	222.74
346.75	222.85
347.13	222.93
347.52	223.00
347.90	223.08
348.28	223.11
348.66	223.17
349.05	223.17
349.43	223.22
349.81	223.27
350.19	223.33
350.57	223.40
350.96	223.47
351.34	223.57
351.72	223.66
352.10	223.77
352.48	223.84
352.87	223.90
353.25	223.96
353.63	224.02
354.01	224.09
354.39	224.16
354.77	224.24
355.15	224.34
355.54	224.40
355.92	224.44
356.30	224.51
356.68	224.65
357.06	224.73
357.44	224.78
357.82	224.83
358.20	224.94
358.58	225.00
358.97	225.07
359.35	225.14
359.73	225.22
360.11	225.27
360.49	225.33
360.87	225.38
361.25	225.44
361.63	225.52
362.01	225.57
362.39	225.61
362.77	225.65
363.15	225.67
363.53	225.71
363.91	225.74
364.29	225.76
364.67	225.68
365.05	225.70
365.43	225.74
365.81	225.77
366.19	225.79
366.57	225.84
366.95	225.84
367.33	225.82
367.71	225.81
368.09	225.82
368.47	225.82
368.85	225.81
369.23	225.82
369.61	225.76
369.99	225.77
370.37	225.77
370.75	225.83
371.13	225.80
371.51	225.76
371.89	225.74
372.27	225.72
372.65	225.69
373.03	225.65
373.41	225.61
373.78	225.56
374.16	225.47
374.54	225.39
374.92	225.34
375.30	225.30
375.68	225.23
376.06	225.19
376.44	225.12
376.82	225.08
377.19	225.03
377.57	224.98
377.95	224.89
378.33	224.83
378.71	224.68
379.09	224.63
379.47	224.60
379.84	224.53
380.22	224.47
380.60	224.40
380.98	224.35
381.36	224.30
381.73	224.23
382.11	224.20
382.49	224.16
382.87	224.10
383.25	224.05
383.62	224.13
384.00	224.06
384.38	224.02
384.76	223.99
385.13	223.99
385.51	223.95
385.89	223.89
386.27	223.86
386.64	223.84
387.02	223.79
387.40	223.75
387.78	223.72
388.15	223.70
388.53	223.66
388.91	223.63
389.29	223.59
389.66	223.59
390.04	223.55
390.42	223.54
390.79	223.53
391.17	223.51
391.55	223.38
391.92	223.38
392.30	223.38
392.68	223.34
393.05	223.32
393.43	223.32
393.81	223.33
394.18	223.31
394.56	223.30
394.94	223.33
395.31	223.33
395.69	223.37
396.06	223.40
396.44	223.42
396.82	223.43
397.19	223.51
397.57	223.52
397.95	223.56
398.32	223.55
398.70	223.59
399.07	223.65
399.45	223.68
399.82	223.73
400.20	223.76
400.58	223.82
400.95	223.83
401.33	223.91
401.70	224.05
402.08	224.14
402.45	224.22
402.83	224.32
403.20	224.42
403.58	224.51
403.95	224.63
404.33	224.76
404.71	224.89
405.08	225.07
405.46	225.22
405.83	225.38
406.21	225.56
406.58	225.75
406.96	225.94
407.33	226.16
407.70	226.40
408.08	226.73
408.45	227.02
408.83	227.33
409.20	227.61
409.58	227.87
409.95	228.22
410.33	228.61
410.70	228.97
411.08	229.39
411.45	229.84
411.82	230.29
412.20	230.81
412.57	231.42
412.95	231.90
413.32	232.53
413.69	233.18
414.07	233.87
414.44	234.62
414.82	235.38
415.19	236.27
415.56	237.18
415.94	238.13
416.31	239.18
416.68	240.24
417.06	241.47
417.43	242.62
417.81	243.95
418.18	245.30
418.55	246.78
418.93	248.32
419.30	249.92
419.67	251.64
420.04	253.39
420.42	255.23
420.79	257.35
421.16	259.50
421.54	261.67
421.91	263.95
422.28	266.31
422.66	268.86
423.03	271.29
423.40	273.84
423.77	276.58
424.15	279.38
424.52	282.29
424.89	285.44
425.26	288.58
425.64	291.49
426.01	294.75
426.38	298.09
426.75	301.53
427.13	305.04
427.50	308.72
427.87	312.54
428.24	316.40
428.61	320.09
428.99	324.06
429.36	328.43
429.73	332.60
430.10	336.76
430.47	340.99
430.85	345.35
431.22	350.00
431.59	354.77
431.96	359.41
432.33	364.55
432.70	369.42
433.08	375.18
433.45	380.62
433.82	385.97
434.19	391.95
434.56	397.82
434.93	403.48
435.30	409.07
435.68	415.38
436.05	421.55
436.42	427.72
436.79	433.33
437.16	439.39
437.53	445.90
437.90	452.40
438.27	458.74
438.64	465.64
439.01	471.88
439.38	477.58
439.75	483.08
440.13	489.38
440.50	495.38
440.87	500.11
441.24	505.32
441.61	511.07
441.98	515.29
442.35	520.31
442.72	525.48
443.09	530.42
443.46	533.63
443.83	536.02
444.20	538.06
444.57	541.02
444.94	542.82
445.31	544.68
445.68	546.34
446.05	547.62
446.42	547.55
446.79	547.38
447.16	547.26
447.53	547.18
447.90	545.42
448.27	543.77
448.64	541.10
449.01	539.36
449.37	535.49
449.74	531.97
450.11	527.42
450.48	522.39
450.85	517.32
451.22	513.03
451.59	508.82
451.96	505.00
452.33	499.37
452.70	494.34
453.07	488.19
453.43	482.04
453.80	476.09
454.17	470.35
454.54	465.05
454.91	459.03
455.28	453.36
455.65	448.02
456.02	442.32
456.38	437.73
456.75	431.79
457.12	427.01
457.49	422.18
457.86	417.56
458.23	413.52
458.59	409.06
458.96	404.45
459.33	400.38
459.70	396.25
460.07	393.10
460.43	389.39
460.80	385.91
461.17	382.83
461.54	379.52
461.91	376.44
462.27	373.29
462.64	370.72
463.01	367.78
463.38	364.82
463.74	362.13
464.11	359.75
464.48	357.59
464.85	355.28
465.21	353.50
465.58	351.55
465.95	349.30
466.32	347.50
466.68	345.73
467.05	343.97
467.42	342.27
467.78	340.43
468.15	338.73
468.52	337.47
468.88	335.83
469.25	334.33
469.62	333.13
469.98	331.83
470.35	330.68
470.72	329.64
471.08	328.58
471.45	327.70
471.82	326.73
472.18	325.73
472.55	325.08
472.92	324.28
473.28	323.66
473.65	323.01
474.02	322.40
474.38	321.90
474.75	321.63
475.11	321.22
475.48	321.07
475.85	320.91
476.21	320.87
476.58	320.88
476.94	321.08
477.31	321.21
477.67	321.37
478.04	321.65
478.41	322.00
478.77	322.46
479.14	322.81
479.50	323.38
479.87	324.08
480.23	324.79
480.60	325.47
480.96	326.18
481.33	327.15
481.69	328.12
482.06	329.08
482.42	329.99
482.79	331.08
483.15	332.33
483.52	333.72
483.88	335.08
484.25	336.51
484.61	338.01
484.98	339.61
485.34	341.41
485.71	343.29
486.07	345.28
486.44	347.26
486.80	349.47
487.17	351.72
487.53	354.20
487.90	356.78
488.26	359.58
488.62	362.53
488.99	365.48
489.35	368.57
489.72	371.91
490.08	375.41
490.44	379.01
490.81	382.77
491.17	386.63
491.54	390.75
491.90	394.96
492.26	399.52
492.63	404.31
492.99	409.28
493.36	414.38
493.72	419.75
494.08	425.26
494.45	431.08
494.81	437.12
495.17	443.28
495.54	449.78
495.90	456.59
496.26	463.54
496.63	470.75
496.99	478.24
497.35	486.10
497.72	494.26
498.08	502.57
498.44	511.15
498.80	520.28
499.17	529.64
499.53	539.35
499.89	549.27
500.26	559.38
500.62	569.77
500.98	580.83
501.34	592.05
501.71	603.82
502.07	615.81
502.43	628.19
502.79	640.91
503.16	654.04
503.52	667.36
503.88	681.07
504.24	695.19
504.60	709.59
504.97	724.40
505.33	739.59
505.69	755.71
506.05	772.01
506.41	788.31
506.78	804.93
507.14	822.02
507.50	839.72
507.86	857.80
508.22	876.17
508.59	894.57
508.95	913.67
509.31	933.19
509.67	953.45
510.03	973.90
510.39	994.57
510.75	1015.49
511.12	1036.72
511.48	1058.23
511.84	1079.85
512.20	1101.80
512.56	1124.85
512.92	1148.06
513.28	1170.99
513.64	1194.27
514.00	1217.94
514.37	1241.95
514.73	1266.00
515.09	1289.83
515.45	1314.11
515.81	1338.95
516.17	1363.82
516.53	1388.38
516.89	1413.00
517.25	1437.79
517.61	1462.78
517.97	1487.97
518.33	1512.89
518.69	1537.94
519.05	1563.26
519.41	1588.71
519.77	1614.41
520.13	1639.30
520.49	1664.40
520.85	1689.71
521.21	1714.92
521.57	1740.71
521.93	1765.79
522.29	1791.69
522.65	1817.33
523.01	1842.74
523.37	1867.38
523.73	1892.71
524.09	1918.21
524.45	1943.59
524.81	1968.48
525.17	1993.28
525.53	2017.63
525.89	2042.00
526.25	2066.57
526.61	2090.61
526.97	2114.91
527.33	2139.17
527.68	2163.21
528.04	2186.44
528.40	2209.51
528.76	2232.76
529.12	2254.95
529.48	2277.49
529.84	2298.20
530.20	2319.49
530.56	2340.39
530.91	2361.38
531.27	2381.85
531.63	2401.65
531.99	2420.93
532.35	2439.89
532.71	2458.94
533.07	2478.51
533.42	2496.64
533.78	2515.11
534.14	2533.57
534.50	2551.18
534.86	2569.37
535.21	2585.74
535.57	2601.98
535.93	2617.55
536.29	2631.88
536.65	2647.11
537.00	2661.19
537.36	2675.81
537.72	2689.34
538.08	2702.51
538.44	2714.54
538.79	2726.75
539.15	2737.32
539.51	2747.84
539.87	2758.00
540.22	2765.98
540.58	2774.15
540.94	2782.78
541.29	2789.96
541.65	2796.10
542.01	2801.75
542.37	2805.55
542.72	2811.35
543.08	2816.59
543.44	2821.60
543.79	2825.86
544.15	2829.10
544.51	2832.39
544.87	2834.75
545.22	2836.77
545.58	2837.86
545.94	2839.42
546.29	2839.48
546.65	2839.60
547.01	2839.84
547.36	2840.13
547.72	2840.62
548.07	2839.60
548.43	2837.97
548.79	2835.70
549.14	2833.42
549.50	2831.86
549.86	2829.29
550.21	2824.32
550.57	2819.78
550.92	2813.93
551.28	2808.68
551.64	2803.38
551.99	2798.41
552.35	2793.05
552.70	2787.24
553.06	2782.18
553.41	2776.60
553.77	2770.47
554.13	2765.13
554.48	2758.72
554.84	2750.77
555.19	2742.98
555.55	2734.65
555.90	2726.93
556.26	2720.16
556.61	2712.77
556.97	2703.10
557.32	2694.42
557.68	2686.12
558.03	2677.20
558.39	2668.98
558.74	2660.82
559.10	2651.48
559.45	2641.75
559.81	2632.43
560.16	2622.38
560.52	2611.93
560.87	2602.51
561.23	2592.66
561.58	2582.28
561.94	2571.68
562.29	2560.59
562.64	2550.14
563.00	2540.02
563.35	2529.74
563.71	2518.52
564.06	2506.83
564.42	2496.16
564.77	2485.15
565.12	2474.21
565.48	2463.06
565.83	2452.53
566.19	2442.03
566.54	2431.09
566.89	2419.36
567.25	2407.51
567.60	2396.51
567.96	2385.07
568.31	2372.18
568.66	2359.31
569.02	2347.51
569.37	2335.45
569.72	2323.90
570.08	2311.65
570.43	2298.87
570.78	2285.72
571.14	2272.42
571.49	2259.93
571.84	2247.70
572.20	2234.19
572.55	2221.09
572.90	2207.85
573.26	2193.63
573.61	2178.88
573.96	2164.49
574.31	2150.42
574.67	2136.58
575.02	2122.34
575.37	2107.62
575.72	2093.19
576.08	2079.35
576.43	2064.47
576.78	2049.72
577.13	2035.79
577.49	2021.79
577.84	2008.17
578.19	1993.74
578.54	1978.98
578.90	1963.68
579.25	1948.14
579.60	1934.01
579.95	1919.47
580.30	1904.99
580.66	1890.84
581.01	1876.33
581.36	1862.15
581.71	1848.55
582.06	1834.40
582.42	1820.35
582.77	1807.06
583.12	1793.37
583.47	1779.81
583.82	1766.36
584.17	1752.80
584.53	1739.04
584.88	1725.32
585.23	1711.23
585.58	1697.66
585.93	1684.55
586.28	1672.29
586.63	1659.76
586.98	1646.56
587.34	1633.60
587.69	1620.14
588.04	1606.96
588.39	1594.41
588.74	1581.41
589.09	1568.11
589.44	1554.83
589.79	1542.08
590.14	1529.23
590.49	1516.62
590.84	1503.82
591.19	1491.66
591.54	1478.98
591.89	1466.20
592.25	1453.74
592.60	1440.93
592.95	1428.67
593.30	1416.70
593.65	1404.45
594.00	1392.49
594.35	1381.25
594.70	1369.28
595.05	1358.38
595.40	1347.22
595.75	1335.51
596.10	1324.58
596.45	1313.89
596.80	1303.66
597.15	1293.23
597.50	1282.77
597.85	1272.52
598.19	1262.47
598.54	1251.81
598.89	1241.92
599.24	1232.31
599.59	1222.49
599.94	1213.70
600.29	1204.76
600.64	1195.58
600.99	1185.83
601.34	1176.55
601.69	1166.71
602.04	1157.91
602.39	1148.93
602.74	1140.22
603.08	1131.74
603.43	1122.78
603.78	1113.74
604.13	1104.81
604.48	1095.83
604.83	1087.11
605.18	1078.29
605.53	1069.41
605.87	1060.68
606.22	1052.17
606.57	1043.43
606.92	1034.78
607.27	1025.97
607.62	1017.30
607.96	1008.77
608.31	1001.27
608.66	993.32
609.01	985.79
609.36	978.21
609.70	970.40
610.05	962.45
610.40	954.85
610.75	947.34
611.10	940.09
611.44	932.48
611.79	925.16
612.14	917.46
612.49	909.94
612.83	902.88
613.18	895.86
613.53	888.64
613.88	881.53
614.22	875.01
614.57	868.29
614.92	861.57
615.27	854.89
615.61	848.06
615.96	841.44
616.31	834.76
616.65	827.97
617.00	821.43
617.35	815.04
617.70	808.67
618.04	802.36
618.39	796.07
618.74	790.12
619.08	784.00
619.43	778.14
619.78	772.26
620.12	766.22
620.47	760.35
620.82	754.59
621.16	749.11
621.51	743.27
621.85	737.45
622.20	731.67
622.55	726.08
622.89	720.43
623.24	714.83
623.59	709.29
623.93	703.83
624.28	698.49
624.62	693.12
624.97	687.75
625.32	682.49
625.66	677.09
626.01	671.69
626.35	666.42
626.70	661.20
627.04	656.18
627.39	651.20
627.73	646.33
628.08	641.68
628.43	636.89
628.77	632.17
629.12	627.61
629.46	623.20
629.81	618.60
630.15	613.90
630.50	609.37
630.84	605.04
631.19	600.87
631.53	596.74
631.88	592.53
632.22	588.39
632.57	584.49
632.91	580.54
633.26	576.66
633.60	572.87
633.95	569.17
634.29	565.33
634.64	561.46
634.98	557.51
635.32	553.71
635.67	550.03
636.01	546.32
636.36	542.63
636.70	539.09
637.05	535.55
637.39	532.22
637.73	528.75
638.08	525.33
638.42	521.87
638.77	518.30
639.11	514.71
639.45	511.19
639.80	507.65
640.14	504.31
640.49	500.92
640.83	497.40
641.17	493.96
641.52	490.66
641.86	487.35
642.20	484.22
642.55	480.93
642.89	477.73
643.23	474.73
643.58	471.95
643.92	469.06
644.26	466.18
644.61	463.29
644.95	460.42
645.29	457.50
645.64	454.55
645.98	451.74
646.32	449.11
646.66	446.47
647.01	443.80
647.35	441.18
647.69	438.46
648.04	435.90
648.38	433.36
648.72	430.78
649.06	428.28
649.41	425.79
649.75	423.30
650.09	420.85
650.43	418.39
650.78	415.91
651.12	413.42
651.46	411.05
651.80	408.76
652.14	406.54
652.49	404.33
652.83	402.19
653.17	400.02
653.51	397.91
653.85	395.87
654.20	393.77
654.54	391.60
654.88	389.62
655.22	387.69
655.56	385.71
655.90	383.84
656.25	381.97
656.59	380.11
656.93	378.36
657.27	376.63
657.61	374.81
657.95	373.04
658.29	371.29
658.64	369.57
658.98	367.82
659.32	366.10
659.66	364.49
660.00	362.89
660.34	361.32
660.68	359.71
661.02	358.02
661.36	356.44
661.70	354.94
662.05	353.40
662.39	351.86
662.73	350.41
663.07	348.99
663.41	347.58
663.75	346.20
664.09	344.81
664.43	343.34
664.77	341.98
665.11	340.56
665.45	339.23
665.79	337.88
666.13	336.53
666.47	335.17
666.81	333.78
667.15	332.35
667.49	331.03
667.83	329.75
668.17	328.52
668.51	327.31
668.85	326.11
669.19	324.99
669.53	323.80
669.87	322.58
670.21	321.40
670.55	320.22
670.89	319.12
671.23	318.00
671.57	316.89
671.91	315.83
672.25	314.83
672.58	313.82
672.92	312.77
673.26	311.80
673.60	310.82
673.94	309.84
674.28	308.92
674.62	307.99
674.96	307.02
675.30	306.12
675.64	305.19
675.97	304.27
676.31	303.32
676.65	302.39
676.99	301.53
677.33	300.62
677.67	299.75
678.01	298.80
678.34	297.92
678.68	297.10
679.02	296.25
679.36	295.40
679.70	294.56
680.04	293.75
680.37	292.93
680.71	292.15
681.05	291.42
681.39	290.63
681.73	289.82
682.06	289.04
682.40	288.27
682.74	287.54
683.08	286.82
683.42	286.09
683.75	285.43
684.09	284.68
684.43	283.99
684.77	283.28
685.10	282.62
685.44	281.94
685.78	281.26
686.12	280.61
686.45	279.95
686.79	279.28
687.13	278.64
687.46	277.98
687.80	277.33
688.14	276.65
688.48	276.02
688.81	275.41
689.15	274.84
689.49	274.22
689.82	273.61
690.16	272.96
690.50	272.37
690.83	271.77
691.17	271.20
691.51	270.64
691.84	270.10
692.18	269.52
692.52	268.94
692.85	268.37
693.19	267.84
693.52	267.31
693.86	266.78
694.20	266.25
694.53	265.75
694.87	265.23
695.21	264.73
695.54	264.24
695.88	263.74
696.21	263.20
696.55	262.71
696.88	262.23
697.22	261.76
697.56	261.29
697.89	260.76
698.23	260.28
698.56	259.77
698.90	259.32
699.23	258.85
699.57	258.42
699.90	257.98
700.24	257.51
700.58	257.09
700.91	256.69
701.25	256.36
701.58	255.99
701.92	255.62
702.25	255.22
702.59	254.81
702.92	254.42
703.26	254.05
703.59	253.66
703.93	253.36
704.26	253.00
704.60	252.64
704.93	252.30
705.26	251.95
705.60	251.63
705.93	251.27
706.27	250.97
706.60	250.65
706.94	250.35
707.27	249.99
707.61	249.64
707.94	249.29
708.27	248.87
708.61	248.50
708.94	248.16
709.28	247.84
709.61	247.53
709.94	247.24
710.28	246.95
710.61	246.68
710.95	246.31
711.28	246.10
711.61	245.82
711.95	245.57
712.28	245.29
712.61	245.01
712.95	244.80
713.28	244.58
713.61	244.31
713.95	244.03
714.28	243.81
714.61	243.55
714.95	243.32
715.28	243.07
715.61	242.84
715.95	242.62
716.28	242.39
716.61	242.19
716.95	241.95
717.28	241.73
717.61	241.50
717.94	241.28
718.28	240.99
718.61	240.78
718.94	240.55
719.27	240.34
719.61	240.15
719.94	239.93
720.27	239.68
720.60	239.49
720.94	239.30
721.27	239.12
721.60	238.96
721.93	238.78
722.27	238.63
722.60	238.47
722.93	238.28
723.26	238.11
723.59	237.91
723.93	237.76
724.26	237.60
724.59	237.44
724.92	237.29
725.25	237.16
725.59	237.00
725.92	236.87
726.25	236.72
726.58	236.57
726.91	236.40
727.24	236.27
727.57	236.12
727.91	235.96
728.24	235.83
728.57	235.67
728.90	235.55
729.23	235.38
729.56	235.29
729.89	235.16
730.22	235.02
730.55	234.89
730.89	234.75
731.22	234.61
731.55	234.48
731.88	234.36
732.21	234.22
732.54	234.09
732.87	233.97
733.20	233.87
733.53	233.75
733.86	233.65
734.19	233.52
734.52	233.43
734.85	233.40
735.18	233.26
735.51	233.18
735.84	233.07
736.17	232.99
736.50	232.84
736.83	232.85
737.16	232.76
737.49	232.67
737.82	232.57
738.15	232.49
738.48	232.39
738.81	232.29
739.14	232.18
739.47	232.08
739.80	231.98
740.13	231.89
740.46	231.78
740.79	231.67
741.12	231.58
741.45	231.47
741.78	231.33
742.11	231.27
742.44	231.15
742.77	231.08
743.10	230.98
743.43	230.89
743.75	230.69
744.08	230.76
744.41	230.67
744.74	230.59
745.07	230.48
745.40	230.42
745.73	230.38
746.06	230.32
746.39	230.25
746.71	230.17
747.04	230.08
747.37	230.01
747.70	229.96
748.03	229.89
748.36	229.84
748.68	229.77
749.01	229.67
749.34	229.61
749.67	229.54
750.00	229.48
750.33	229.50
750.65	229.44
750.98	229.23
751.31	229.16
751.64	229.10
751.97	229.10
752.29	229.02
752.62	228.92
752.95	228.84
753.28	228.76
753.60	228.70
753.93	228.66
754.26	228.61
754.59	228.51
754.91	228.44
755.24	228.36
755.57	228.35
755.90	228.29
756.22	228.22
756.55	228.14
756.88	228.06
757.20	227.93
757.53	227.84
757.86	227.78
758.19	227.74
758.51	227.68
758.84	227.58
759.17	227.51
759.49	227.47
759.82	227.47
760.15	227.44
760.47	227.39
760.80	227.31
761.13	227.28
761.45	227.23
761.78	227.19
762.11	227.15
762.43	227.05
762.76	227.01
763.08	226.98
763.41	226.94
763.74	226.91
764.06	226.87
764.39	226.83
764.71	226.79
765.04	226.74
765.37	226.69
765.69	226.65
766.02	226.61
766.34	226.56
766.67	226.48
767.00	226.46
767.32	226.48
767.65	226.51
767.97	226.46
768.30	226.43
768.62	226.39
768.95	226.34
769.27	226.31
769.60	226.28
769.92	226.23
770.25	226.18
770.57	226.13
770.90	226.09
771.22	226.05
771.55	226.02
771.87	226.00
772.20	225.96
772.52	226.02
772.85	226.11
773.17	226.08
773.50	226.04
773.82	225.99
774.15	225.91
774.47	225.82
774.80	225.78
775.12	225.74
775.45	225.71
775.77	225.69
776.09	225.67
776.42	225.65
776.74	225.65
777.07	225.62
777.39	225.60
777.72	225.57
778.04	225.56
778.36	225.53
778.69	225.50
779.01	225.49
779.33	225.37
779.66	225.23
779.98	225.20
780.31	225.18
780.63	225.20
780.95	225.20
781.28	225.18
781.60	225.15
781.92	225.13
782.25	225.11
782.57	225.09
782.89	225.06
783.22	225.03
783.54	224.99
783.86	224.98
784.19	224.96
784.51	224.97
784.83	224.93
785.16	224.91
785.48	224.89
785.80	224.87
786.12	224.86
786.45	224.84
786.77	224.83
787.09	224.81
787.42	224.75
787.74	224.74
788.06	224.72
788.38	224.71
788.71	224.69
789.03	224.67
789.35	224.67
789.67	224.64
789.99	224.63
790.32	224.61
790.64	224.60
790.96	224.68
791.28	224.63
791.61	224.61
791.93	224.60
792.25	224.58
792.57	224.64
792.89	224.60
793.21	224.60
793.54	224.57
793.86	224.55
794.18	224.54
794.50	224.51
794.82	224.49
795.14	224.49
795.47	224.49
795.79	224.48
796.11	224.45
796.43	224.44
796.75	224.42
797.07	224.42
797.39	224.40
797.71	224.30
798.04	224.30
798.36	224.30
798.68	224.29
799.00	224.29
799.32	224.23
799.64	224.24
799.96	224.23
800.28	224.24
800.60	224.23
800.92	224.23
801.24	224.22
801.56	224.22
801.89	224.20
802.21	224.19
802.53	224.17
802.85	224.18
803.17	224.22
803.49	224.19
803.81	224.17
804.13	224.16
804.45	224.14
804.77	224.14
805.09	224.12
805.41	224.11
805.73	224.08
806.05	224.04
806.37	224.02
806.69	224.00
807.01	223.98
807.33	223.98
807.65	223.93
807.97	223.97
808.28	223.95
808.60	223.94
808.92	223.91
809.24	223.97
809.56	223.94
809.88	223.89
810.20	223.90
810.52	223.91
810.84	223.88
811.16	223.87
811.48	223.85
811.80	223.88
812.12	223.87
812.43	223.88
812.75	223.89
813.07	223.87
813.39	223.87
813.71	223.85
814.03	223.84
814.35	223.84
814.67	223.79
814.98	223.78
815.30	223.76
815.62	223.74
815.94	223.67
816.26	223.68
816.58	223.65
816.89	223.65
817.21	223.62
817.53	223.63
817.85	223.63
818.17	223.62
818.48	223.58
818.80	223.59
819.12	223.57
819.44	223.55
819.76	223.53
820.07	223.52
820.39	223.52
820.71	223.53
821.03	223.52
821.34	223.51
821.66	223.52
821.98	223.53
822.30	223.53
822.61	223.58
822.93	223.56
823.25	223.56
823.57	223.55
823.88	223.55
824.20	223.55
824.52	223.56
824.83	223.55
825.15	223.54
825.47	223.53
825.79	223.53
826.10	223.52
826.42	223.52
826.74	223.52
827.05	223.51
827.37	223.51
827.69	223.50
828.00	223.50
828.32	223.50
828.64	223.48
828.95	223.53
829.27	223.50
829.58	223.50
829.90	223.51
830.22	223.52
830.53	223.50
830.85	223.49
831.17	223.46
831.48	223.46
831.80	223.46
832.11	223.45
832.43	223.43
832.75	223.43
833.06	223.49
833.38	223.46
833.69	223.46
834.01	223.46
834.32	223.45
834.64	223.44
834.96	223.43
835.27	223.43
835.59	223.39
835.90	223.37
836.22	223.37
836.53	223.34
836.85	223.33
837.16	223.43
837.48	223.43
837.79	223.47
838.11	223.47
838.42	223.46
838.74	223.47
839.05	223.46
839.37	223.45
839.68	223.39
840.00	223.38
840.31	223.39
840.63	223.38
840.94	223.37
841.26	223.36
841.57	223.35
841.88	223.36
842.20	223.35
842.51	223.33
842.83	223.32
843.14	223.42
843.46	223.41
843.77	223.35
844.08	223.34
844.40	223.30
844.71	223.29
845.03	223.28
845.34	223.27
845.65	223.26
845.97	223.27
846.28	223.27
846.60	223.27
846.91	223.26
847.22	223.25
847.54	223.27
847.85	223.27
848.16	223.27
848.48	223.24
848.79	223.28
849.10	223.30
849.42	223.30
849.73	223.20
850.04	223.20
850.36	223.16
850.67	223.17
850.98	223.18
851.30	223.18
851.61	223.18
851.92	223.18
852.23	223.21
852.55	223.21
852.86	223.21
853.17	223.22
853.49	223.24
853.80	223.26
854.11	223.27
854.42	223.28
854.74	223.26
855.05	223.26
855.36	223.21
855.67	223.21
855.99	223.21
856.30	223.33
856.61	223.33
856.92	223.33
857.23	223.33
857.55	223.32
857.86	223.31
858.17	223.33
858.48	223.31
858.79	223.29
859.11	223.29
859.42	223.29
859.73	223.27
860.04	223.26
860.35	223.23
860.66	223.20
860.98	223.19
861.29	223.21
861.60	223.20
861.91	223.22
862.22	223.21
862.53	223.19
862.84	223.07
863.16	223.09
863.47	223.07
863.78	223.05
864.09	223.06
864.40	223.07
864.71	223.06
865.02	223.08
865.33	223.07
865.64	223.05
865.95	223.05
866.27	223.11
866.58	223.10
866.89	223.11
867.20	223.11
867.51	223.10
867.82	223.09
868.13	223.13
868.44	223.10
868.75	223.12
869.06	223.13
869.37	223.14
869.68	223.12
869.99	223.14
870.30	223.14
870.61	223.15
870.92	223.14
871.23	223.13
871.54	223.14
871.85	223.17
872.16	223.18
872.47	223.17
872.78	223.12
873.09	223.13
873.40	223.12
873.71	223.13
874.02	223.13
874.33	223.12
874.64	223.10
874.95	223.12
875.26	223.09
875.56	223.09
875.87	223.09
876.18	223.08
876.49	223.18
876.80	223.17
877.11	223.15
877.42	223.15
877.73	223.15
878.04	223.14
878.35	223.13
878.66	223.13
878.96	223.13
879.27	223.12
879.58	223.12
879.89	223.11
880.20	223.14
880.51	223.14
880.82	223.14
881.12	223.14
881.43	223.12
881.74	223.11
882.05	223.10
882.36	223.10
882.67	223.11
882.97	223.00
883.28	222.99
883.59	222.99
883.90	223.00
884.21	223.01
884.51	223.01
884.82	222.99
885.13	222.99
885.44	222.99
885.74	222.98
886.05	222.98
886.36	222.98
886.67	222.94
886.98	222.99
887.28	222.99
887.59	222.99
887.90	222.99
888.20	222.99
888.51	223.01
888.82	223.00
889.13	223.00
889.43	223.09
889.74	223.08
890.05	223.08
890.35	223.07
890.66	223.05
890.97	223.03
891.28	223.02
891.58	223.02
891.89	223.02
892.20	223.01
892.50	223.00
892.81	222.99
893.12	222.99
893.42	222.94
893.73	222.94
894.04	222.94
894.34	222.94
894.65	222.94
894.95	222.93
895.26	222.93
895.57	222.97
895.87	222.87
896.18	222.89
896.48	222.89
896.79	222.88
897.10	222.90
897.40	222.91
897.71	222.92
898.01	222.91
898.32	222.93
898.63	222.92
898.93	222.93
899.24	222.93
899.54	222.93
899.85	222.93
900.15	222.92
900.46	222.92
900.76	222.92
901.07	222.92
901.38	222.91
901.68	222.92
901.99	222.87
902.29	222.88
902.60	222.87
902.90	222.86
903.21	222.86
903.51	222.85
903.82	222.87
904.12	222.86
904.43	222.87
904.73	222.86
905.03	222.87
905.34	222.96
905.64	222.96
905.95	222.96
906.25	222.96
906.56	222.96
906.86	222.96
907.17	222.95
907.47	222.96
907.77	222.95
908.08	222.94
908.38	222.94
908.69	222.95
908.99	222.97
909.30	222.98
909.60	222.98
909.90	222.98
910.21	222.95
910.51	222.93
910.81	222.93
911.12	222.94
911.42	222.94
911.73	222.83
912.03	222.84
912.33	222.86
912.64	222.85
912.94	222.84
913.24	222.82
913.55	222.82
913.85	222.80
914.15	222.82
914.46	222.84
914.76	222.83
915.06	222.82
915.37	222.80
915.67	222.79
915.97	222.79
916.27	222.77
916.58	222.78
916.88	222.78
917.18	222.77
917.49	222.84
917.79	222.83
918.09	222.85
918.39	222.87
918.70	222.87
919.00	222.87
919.30	222.92
919.60	222.92
919.91	222.91
920.21	222.92
920.51	222.89
920.81	222.89
921.12	222.90
921.42	222.90
921.72	222.91
922.02	222.91
922.32	222.93
922.63	222.93
922.93	222.99
923.23	222.99
923.53	222.98
923.83	222.91
924.13	222.92
924.44	222.92
924.74	222.93
925.04	222.95
925.34	222.95
925.64	222.91
925.94	222.90
926.24	222.96
926.55	222.95
926.85	222.97
927.15	222.97
927.45	222.96
927.75	222.96
928.05	222.96
928.35	222.95
928.65	222.97
928.95	222.97
929.26	222.92
929.56	222.94
929.86	222.95
930.16	222.95
930.46	222.94
930.76	222.94
931.06	222.89
931.36	222.86
931.66	222.88
931.96	222.88
932.26	222.89
932.56	222.85
932.86	222.85
933.16	222.85
933.46	222.84
933.76	222.83
934.06	222.85
934.36	222.88
934.66	222.87
934.96	222.86
935.26	222.86
935.56	222.88
935.86	222.85
936.16	222.83
936.46	222.82
936.76	222.82
937.06	222.80
937.36	222.81
937.66	222.82
937.96	222.81
938.26	222.79
938.56	222.78
938.86	222.79
939.16	222.81
939.46	222.82
939.76	222.82
940.06	222.82
940.35	222.80
940.65	222.75
940.95	222.76
941.25	222.74
941.55	222.73
941.85	222.72
942.15	222.74
942.45	222.77
942.75	222.77
943.04	222.77
943.34	222.79
943.64	222.78
943.94	222.77
944.24	222.76
944.54	222.77
944.84	222.77
945.13	222.75
945.43	222.73
945.73	222.72
946.03	222.71
946.33	222.70
946.62	222.69
946.92	222.69
947.22	222.70
947.52	222.71
947.82	222.72
948.11	222.70
948.41	222.68
948.71	222.65
949.01	222.66
949.31	222.65
949.60	222.64
949.90	222.65
950.20	222.65
950.50	222.65
950.79	222.64
951.09	222.66
951.39	222.66
951.69	222.65
951.98	222.67
952.28	222.68
952.58	222.68
952.87	222.68
953.17	222.69
953.47	222.68
953.76	222.67
954.06	222.66
954.36	222.65
954.66	222.65
954.95	222.68
955.25	222.68
955.55	222.69
955.84	222.67
956.14	222.68
956.44	222.68
956.73	222.67
957.03	222.68
957.32	222.67
957.62	222.67
957.92	222.69
958.21	222.68
958.51	222.80
958.81	222.81
959.10	222.82
959.40	222.84
959.69	222.85
959.99	222.87
960.29	222.87
960.58	222.86
960.88	222.90
961.17	222.89
961.47	222.90
961.76	222.89
962.06	222.91
962.36	222.89
962.65	222.90
962.95	222.91
963.24	222.90
963.54	222.90
963.83	222.91
964.13	222.90
964.42	222.88
964.72	222.79
965.01	222.79
965.31	222.78
965.60	222.76
965.90	222.82
966.19	222.79
966.49	222.80
966.78	222.80
967.08	222.78
967.37	222.78
967.67	222.76
967.96	222.78
968.26	222.77
968.55	222.78
968.85	222.78
969.14	222.78
969.43	222.78
969.73	222.77
970.02	222.76
970.32	222.76
970.61	222.74
970.91	222.71
971.20	222.70
971.49	222.69
971.79	222.70
972.08	222.62
972.38	222.64
972.67	222.63
972.96	222.64
973.26	222.62
973.55	222.66
973.85	222.65
974.14	222.64
974.43	222.65
974.73	222.62
975.02	222.62
975.31	222.62
975.61	222.61
975.90	222.61
976.19	222.60
976.49	222.61
976.78	222.61
977.07	222.62
977.37	222.62
977.66	222.64
977.95	222.62
978.24	222.63
978.54	222.65
978.83	222.65
979.12	222.64
979.42	222.64
979.71	222.62
980.00	222.62
980.29	222.62
980.59	222.60
980.88	222.64
981.17	222.63
981.46	222.63
981.76	222.64
982.05	222.67
982.34	222.68
982.63	222.67
982.93	222.68
983.22	222.70
983.51	222.70
983.80	222.72
984.09	222.73
984.39	222.72
984.68	222.71
984.97	222.71
985.26	222.71
985.55	222.72
985.85	222.70
986.14	222.71
986.43	222.73
986.72	222.72
987.01	222.68
987.30	222.68
987.59	222.68
987.89	222.68
988.18	222.65
988.47	222.64
988.76	222.63
989.05	222.62
989.34	222.61
989.63	222.63
989.92	222.61
990.22	222.60
990.51	222.60
990.80	222.59
991.09	222.60
991.38	222.62
991.67	222.61
991.96	222.60
992.25	222.60
992.54	222.59
992.83	222.59
993.12	222.59
993.41	222.61
993.70	222.65
993.99	222.67
994.28	222.68
994.58	222.70
994.87	222.69
995.16	222.69
995.45	222.68
995.74	222.65
996.03	222.66
996.32	222.68
996.61	222.70
996.90	222.70
997.19	222.69
997.48	222.68
997.77	222.68
998.06	222.69
998.34	222.68
998.63	222.67
998.92	222.68
999.21	222.69
999.50	222.69
999.79	222.65
1000.08	222.65
1000.37	222.65
1000.66	222.63
1000.95	222.66
1001.24	222.66
1001.53	222.68
1001.82	222.68
1002.11	222.65
1002.40	222.66
1002.68	222.68
1002.97	222.75
1003.26	222.74
1003.55	222.73
1003.84	222.74
1004.13	222.77
1004.42	222.76
1004.71	222.76
1004.99	222.76
1005.28	222.78
1005.57	222.77
1005.86	222.76
1006.15	222.75
1006.44	222.73
1006.72	222.74
1007.01	222.73
1007.30	222.73
1007.59	222.71
1007.88	222.71
1008.17	222.72
1008.45	222.70
1008.74	222.65
1009.03	222.61
1009.32	222.61
1009.60	222.61
1009.89	222.60
1010.18	222.56
1010.47	222.55
1010.76	222.55
1011.04	222.55
1011.33	222.55
1011.62	222.55
1011.91	222.56
1012.19	222.57
1012.48	222.57
1012.77	222.57
1013.05	222.61
1013.34	222.61
1013.63	222.60
1013.92	222.61
1014.20	222.60
1014.49	222.60
1014.78	222.62
1015.06	222.58
1015.35	222.58
1015.64	222.59
1015.92	222.61
1016.21	222.62
1016.50	222.62
1016.78	222.63
1017.07	222.64
1017.36	222.62
1017.64	222.61
1017.93	222.61
1018.22	222.61
1018.50	222.61
1018.79	222.61
1019.08	222.57
1019.36	222.58
1019.65	222.57
1019.93	222.60
1020.22	222.62
1020.51	222.67
1020.79	222.66
1021.08	222.50
1021.36	222.45
1021.65	222.62
1021.94	222.61
1022.22	222.67
1022.51	222.43
1022.79	223.14
1023.08	222.79
1023.36	223.79
1023.65	222.44
>>>>>End Processed Spectral Data<<<<<
