SpectraSuite Data File
++++++++++++++++++++++++++++++++++++
Date: Thu Oct 01 12:15:04 EDT 2015
User: lab3
Dark Spectrum Present: No
Reference Spectrum Present: No
Number of Sampled Component Spectra: 1
Spectrometers: USB2E7196
Integration Time (usec): 36000 (USB2E7196)
Spectra Averaged: 10000 (USB2E7196)
Boxcar Smoothing: 10 (USB2E7196)
Correct for Electrical Dark: No (USB2E7196)
Strobe/Lamp Enabled: No (USB2E7196)
Correct for Detector Non-linearity: No (USB2E7196)
Correct for Stray Light: No (USB2E7196)
Number of Pixels in Processed Spectrum: 2048
>>>>>Begin Processed Spectral Data<<<<<
339.09	0.00
339.48	210.42
339.86	211.97
340.24	213.32
340.63	214.74
341.01	217.68
341.39	217.40
341.78	218.75
342.16	219.99
342.54	220.47
342.93	209.04
343.31	219.60
343.69	220.14
344.07	220.60
344.46	221.02
344.84	221.41
345.22	221.65
345.60	221.90
345.99	222.10
346.37	222.23
346.75	222.34
347.13	222.42
347.52	222.49
347.90	222.57
348.28	222.61
348.66	222.67
349.05	222.67
349.43	222.72
349.81	222.78
350.19	222.84
350.57	222.91
350.96	222.99
351.34	223.08
351.72	223.18
352.10	223.29
352.48	223.37
352.87	223.42
353.25	223.48
353.63	223.55
354.01	223.61
354.39	223.69
354.77	223.77
355.15	223.87
355.54	223.93
355.92	223.96
356.30	224.04
356.68	224.17
357.06	224.25
357.44	224.30
357.82	224.36
358.20	224.47
358.58	224.54
358.97	224.60
359.35	224.68
359.73	224.76
360.11	224.81
360.49	224.87
360.87	224.93
361.25	224.99
361.63	225.07
362.01	225.12
362.39	225.15
362.77	225.20
363.15	225.22
363.53	225.25
363.91	225.29
364.29	225.31
364.67	225.23
365.05	225.26
365.43	225.29
365.81	225.31
366.19	225.32
366.57	225.37
366.95	225.37
367.33	225.35
367.71	225.34
368.09	225.36
368.47	225.35
368.85	225.35
369.23	225.35
369.61	225.30
369.99	225.32
370.37	225.31
370.75	225.36
371.13	225.33
371.51	225.29
371.89	225.27
372.27	225.25
372.65	225.22
373.03	225.18
373.41	225.14
373.78	225.09
374.16	225.00
374.54	224.92
374.92	224.87
375.30	224.82
375.68	224.76
376.06	224.71
376.44	224.65
376.82	224.61
377.19	224.56
377.57	224.51
377.95	224.42
378.33	224.36
378.71	224.22
379.09	224.17
379.47	224.13
379.84	224.07
380.22	224.01
380.60	223.94
380.98	223.89
381.36	223.84
381.73	223.78
382.11	223.75
382.49	223.71
382.87	223.65
383.25	223.60
383.62	223.68
384.00	223.61
384.38	223.57
384.76	223.54
385.13	223.53
385.51	223.49
385.89	223.44
386.27	223.40
386.64	223.38
387.02	223.33
387.40	223.28
387.78	223.26
388.15	223.23
388.53	223.20
388.91	223.17
389.29	223.13
389.66	223.12
390.04	223.08
390.42	223.08
390.79	223.06
391.17	223.04
391.55	222.91
391.92	222.90
392.30	222.90
392.68	222.86
393.05	222.84
393.43	222.83
393.81	222.84
394.18	222.82
394.56	222.82
394.94	222.85
395.31	222.85
395.69	222.89
396.06	222.92
396.44	222.95
396.82	222.95
397.19	223.03
397.57	223.04
397.95	223.08
398.32	223.08
398.70	223.12
399.07	223.18
399.45	223.21
399.82	223.26
400.20	223.29
400.58	223.35
400.95	223.36
401.33	223.44
401.70	223.58
402.08	223.67
402.45	223.75
402.83	223.85
403.20	223.95
403.58	224.04
403.95	224.16
404.33	224.30
404.71	224.43
405.08	224.61
405.46	224.76
405.83	224.93
406.21	225.10
406.58	225.30
406.96	225.49
407.33	225.72
407.70	225.97
408.08	226.31
408.45	226.61
408.83	226.92
409.20	227.22
409.58	227.48
409.95	227.84
410.33	228.23
410.70	228.59
411.08	229.03
411.45	229.48
411.82	229.94
412.20	230.47
412.57	231.09
412.95	231.58
413.32	232.22
413.69	232.88
414.07	233.59
414.44	234.35
414.82	235.13
415.19	236.04
415.56	236.97
415.94	237.93
416.31	239.00
416.68	240.08
417.06	241.34
417.43	242.51
417.81	243.87
418.18	245.25
418.55	246.77
418.93	248.33
419.30	249.98
419.67	251.73
420.04	253.52
420.42	255.40
420.79	257.57
421.16	259.77
421.54	261.99
421.91	264.32
422.28	266.73
422.66	269.34
423.03	271.82
423.40	274.42
423.77	277.22
424.15	280.07
424.52	283.05
424.89	286.26
425.26	289.46
425.64	292.43
426.01	295.76
426.38	299.17
426.75	302.67
427.13	306.26
427.50	310.00
427.87	313.90
428.24	317.83
428.61	321.58
428.99	325.63
429.36	330.07
429.73	334.31
430.10	338.53
430.47	342.84
430.85	347.27
431.22	351.99
431.59	356.84
431.96	361.55
432.33	366.78
432.70	371.72
433.08	377.58
433.45	383.11
433.82	388.54
434.19	394.61
434.56	400.59
434.93	406.35
435.30	412.04
435.68	418.45
436.05	424.73
436.42	431.02
436.79	436.74
437.16	442.91
437.53	449.54
437.90	456.16
438.27	462.63
438.64	469.67
439.01	476.04
439.38	481.87
439.75	487.50
440.13	493.94
440.50	500.08
440.87	504.94
441.24	510.27
441.61	516.16
441.98	520.51
442.35	525.67
442.72	530.98
443.09	536.07
443.46	539.39
443.83	541.87
444.20	543.99
444.57	547.06
444.94	548.94
445.31	550.88
445.68	552.62
446.05	553.98
446.42	553.95
446.79	553.82
447.16	553.73
447.53	553.69
447.90	551.93
448.27	550.29
448.64	547.59
449.01	545.85
449.37	541.92
449.74	538.35
450.11	533.72
450.48	528.59
450.85	523.44
451.22	519.07
451.59	514.80
451.96	510.91
452.33	505.15
452.70	500.02
453.07	493.75
453.43	487.47
453.80	481.37
454.17	475.52
454.54	470.08
454.91	463.93
455.28	458.13
455.65	452.66
456.02	446.81
456.38	442.11
456.75	436.03
457.12	431.13
457.49	426.18
457.86	421.45
458.23	417.30
458.59	412.70
458.96	407.98
459.33	403.80
459.70	399.55
460.07	396.32
460.43	392.52
460.80	388.95
461.17	385.80
461.54	382.41
461.91	379.24
462.27	376.02
462.64	373.38
463.01	370.37
463.38	367.33
463.74	364.59
464.11	362.14
464.48	359.93
464.85	357.57
465.21	355.75
465.58	353.75
465.95	351.45
466.32	349.61
466.68	347.81
467.05	346.01
467.42	344.27
467.78	342.39
468.15	340.66
468.52	339.38
468.88	337.70
469.25	336.17
469.62	334.95
469.98	333.62
470.35	332.44
470.72	331.39
471.08	330.32
471.45	329.42
471.82	328.44
472.18	327.41
472.55	326.76
472.92	325.94
473.28	325.31
473.65	324.65
474.02	324.03
474.38	323.53
474.75	323.25
475.11	322.84
475.48	322.69
475.85	322.53
476.21	322.49
476.58	322.49
476.94	322.70
477.31	322.83
477.67	323.00
478.04	323.28
478.41	323.63
478.77	324.11
479.14	324.46
479.50	325.04
479.87	325.76
480.23	326.47
480.60	327.16
480.96	327.88
481.33	328.87
481.69	329.86
482.06	330.84
482.42	331.75
482.79	332.85
483.15	334.12
483.52	335.53
483.88	336.90
484.25	338.35
484.61	339.86
484.98	341.49
485.34	343.32
485.71	345.20
486.07	347.22
486.44	349.23
486.80	351.45
487.17	353.74
487.53	356.25
487.90	358.86
488.26	361.69
488.62	364.67
488.99	367.67
489.35	370.79
489.72	374.16
490.08	377.72
490.44	381.36
490.81	385.17
491.17	389.07
491.54	393.23
491.90	397.50
492.26	402.11
492.63	406.96
492.99	412.00
493.36	417.17
493.72	422.60
494.08	428.18
494.45	434.08
494.81	440.18
495.17	446.42
495.54	453.01
495.90	459.92
496.26	466.96
496.63	474.25
496.99	481.83
497.35	489.79
497.72	498.04
498.08	506.46
498.44	515.14
498.80	524.40
499.17	533.87
499.53	543.70
499.89	553.75
500.26	563.97
500.62	574.48
500.98	585.68
501.34	597.05
501.71	608.96
502.07	621.09
502.43	633.62
502.79	646.50
503.16	659.78
503.52	673.26
503.88	687.13
504.24	701.42
504.60	715.99
504.97	730.96
505.33	746.33
505.69	762.63
506.05	779.13
506.41	795.64
506.78	812.45
507.14	829.73
507.50	847.63
507.86	865.91
508.22	884.49
508.59	903.08
508.95	922.38
509.31	942.11
509.67	962.59
510.03	983.26
510.39	1004.16
510.75	1025.28
511.12	1046.71
511.48	1068.46
511.84	1090.29
512.20	1112.44
512.56	1135.71
512.92	1159.17
513.28	1182.32
513.64	1205.79
514.00	1229.69
514.37	1253.90
514.73	1278.15
515.09	1302.17
515.45	1326.66
515.81	1351.68
516.17	1376.76
516.53	1401.50
516.89	1426.28
517.25	1451.23
517.61	1476.39
517.97	1501.73
518.33	1526.82
518.69	1552.02
519.05	1577.47
519.41	1603.05
519.77	1628.90
520.13	1653.92
520.49	1679.11
520.85	1704.52
521.21	1729.85
521.57	1755.70
521.93	1780.85
522.29	1806.83
522.65	1832.55
523.01	1858.01
523.37	1882.73
523.73	1908.04
524.09	1933.55
524.45	1959.01
524.81	1983.96
525.17	2008.80
525.53	2033.15
525.89	2057.49
526.25	2082.07
526.61	2106.11
526.97	2130.40
527.33	2154.64
527.68	2178.72
528.04	2201.90
528.40	2224.93
528.76	2248.12
529.12	2270.28
529.48	2292.78
529.84	2313.40
530.20	2334.62
530.56	2355.46
530.91	2376.37
531.27	2396.79
531.63	2416.52
531.99	2435.69
532.35	2454.48
532.71	2473.39
533.07	2492.88
533.42	2510.84
533.78	2529.19
534.14	2547.51
534.50	2564.98
534.86	2583.04
535.21	2599.17
535.57	2615.28
535.93	2630.68
536.29	2644.86
536.65	2659.89
537.00	2673.80
537.36	2688.25
537.72	2701.60
538.08	2714.58
538.44	2726.41
538.79	2738.40
539.15	2748.75
539.51	2759.04
539.87	2769.01
540.22	2776.87
540.58	2784.81
540.94	2793.32
541.29	2800.23
541.65	2806.19
542.01	2811.63
542.37	2815.20
542.72	2820.74
543.08	2825.76
543.44	2830.59
543.79	2834.59
544.15	2837.68
544.51	2840.72
544.87	2842.89
545.22	2844.65
545.58	2845.50
545.94	2846.79
546.29	2846.60
546.65	2846.56
547.01	2846.56
547.36	2846.67
547.72	2846.89
548.07	2845.65
548.43	2843.74
548.79	2841.24
549.14	2838.78
549.50	2836.96
549.86	2834.27
550.21	2829.13
550.57	2824.39
550.92	2818.27
551.28	2812.79
551.64	2807.24
551.99	2802.08
552.35	2796.51
552.70	2790.47
553.06	2785.17
553.41	2779.41
553.77	2773.17
554.13	2767.58
554.48	2761.07
554.84	2752.87
555.19	2744.86
555.55	2736.31
555.90	2728.36
556.26	2721.36
556.61	2713.72
556.97	2703.86
557.32	2694.91
557.68	2686.42
558.03	2677.29
558.39	2668.89
558.74	2660.58
559.10	2651.02
559.45	2641.13
559.81	2631.59
560.16	2621.39
560.52	2610.74
560.87	2601.10
561.23	2591.05
561.58	2580.47
561.94	2569.66
562.29	2558.35
562.64	2547.69
563.00	2537.39
563.35	2526.98
563.71	2515.68
564.06	2503.78
564.42	2492.97
564.77	2481.80
565.12	2470.70
565.48	2459.36
565.83	2448.63
566.19	2437.93
566.54	2426.84
566.89	2414.89
567.25	2402.90
567.60	2391.75
567.96	2380.22
568.31	2367.22
568.66	2354.17
569.02	2342.20
569.37	2329.98
569.72	2318.30
570.08	2305.90
570.43	2292.96
570.78	2279.68
571.14	2266.19
571.49	2253.58
571.84	2241.20
572.20	2227.51
572.55	2214.22
572.90	2200.84
573.26	2186.53
573.61	2171.70
573.96	2157.19
574.31	2143.05
574.67	2129.09
575.02	2114.70
575.37	2099.84
575.72	2085.31
576.08	2071.38
576.43	2056.45
576.78	2041.59
577.13	2027.57
577.49	2013.50
577.84	1999.84
578.19	1985.36
578.54	1970.55
578.90	1955.19
579.25	1939.58
579.60	1925.38
579.95	1910.80
580.30	1896.24
580.66	1882.04
581.01	1867.44
581.36	1853.15
581.71	1839.44
582.06	1825.26
582.42	1811.12
582.77	1797.78
583.12	1784.10
583.47	1770.47
583.82	1756.94
584.17	1743.33
584.53	1729.51
584.88	1715.73
585.23	1701.58
585.58	1687.96
585.93	1674.78
586.28	1662.47
586.63	1649.96
586.98	1636.76
587.34	1623.79
587.69	1610.34
588.04	1597.11
588.39	1584.56
588.74	1571.56
589.09	1558.25
589.44	1544.93
589.79	1532.22
590.14	1519.34
590.49	1506.69
590.84	1493.90
591.19	1481.76
591.54	1469.08
591.89	1456.32
592.25	1443.88
592.60	1431.08
592.95	1418.83
593.30	1406.85
593.65	1394.63
594.00	1382.63
594.35	1371.44
594.70	1359.47
595.05	1348.57
595.40	1337.47
595.75	1325.79
596.10	1314.91
596.45	1304.25
596.80	1294.04
597.15	1283.62
597.50	1273.21
597.85	1262.97
598.19	1252.93
598.54	1242.30
598.89	1232.46
599.24	1222.91
599.59	1213.13
599.94	1204.36
600.29	1195.45
600.64	1186.31
600.99	1176.62
601.34	1167.39
601.69	1157.57
602.04	1148.82
602.39	1139.85
602.74	1131.15
603.08	1122.71
603.43	1113.76
603.78	1104.76
604.13	1095.87
604.48	1086.93
604.83	1078.27
605.18	1069.49
605.53	1060.67
605.87	1051.97
606.22	1043.52
606.57	1034.81
606.92	1026.20
607.27	1017.47
607.62	1008.86
607.96	1000.39
608.31	992.91
608.66	984.99
609.01	977.51
609.36	969.96
609.70	962.22
610.05	954.31
610.40	946.75
610.75	939.31
611.10	932.13
611.44	924.56
611.79	917.29
612.14	909.65
612.49	902.18
612.83	895.15
613.18	888.18
613.53	881.01
613.88	873.94
614.22	867.43
614.57	860.74
614.92	854.05
615.27	847.41
615.61	840.62
615.96	834.05
616.31	827.41
616.65	820.67
617.00	814.17
617.35	807.83
617.70	801.49
618.04	795.23
618.39	788.98
618.74	783.07
619.08	776.99
619.43	771.16
619.78	765.35
620.12	759.35
620.47	753.53
620.82	747.79
621.16	742.34
621.51	736.56
621.85	730.78
622.20	725.06
622.55	719.50
622.89	713.90
623.24	708.33
623.59	702.84
623.93	697.40
624.28	692.10
624.62	686.78
624.97	681.46
625.32	676.24
625.66	670.90
626.01	665.55
626.35	660.33
626.70	655.15
627.04	650.16
627.39	645.22
627.73	640.40
628.08	635.78
628.43	631.05
628.77	626.37
629.12	621.83
629.46	617.46
629.81	612.91
630.15	608.25
630.50	603.76
630.84	599.46
631.19	595.33
631.53	591.25
631.88	587.05
632.22	582.94
632.57	579.08
632.91	575.16
633.26	571.33
633.60	567.55
633.95	563.86
634.29	560.05
634.64	556.20
634.98	552.29
635.32	548.53
635.67	544.89
636.01	541.21
636.36	537.57
636.70	534.06
637.05	530.56
637.39	527.26
637.73	523.82
638.08	520.44
638.42	517.03
638.77	513.49
639.11	509.97
639.45	506.49
639.80	502.98
640.14	499.67
640.49	496.32
640.83	492.86
641.17	489.45
641.52	486.20
641.86	482.95
642.20	479.84
642.55	476.59
642.89	473.44
643.23	470.48
643.58	467.71
643.92	464.86
644.26	462.02
644.61	459.17
644.95	456.33
645.29	453.45
645.64	450.54
645.98	447.77
646.32	445.16
646.66	442.54
647.01	439.92
647.35	437.33
647.69	434.64
648.04	432.10
648.38	429.60
648.72	427.06
649.06	424.59
649.41	422.13
649.75	419.68
650.09	417.25
650.43	414.83
650.78	412.40
651.12	409.95
651.46	407.59
651.80	405.33
652.14	403.14
652.49	400.96
652.83	398.84
653.17	396.70
653.51	394.63
653.85	392.62
654.20	390.56
654.54	388.42
654.88	386.46
655.22	384.56
655.56	382.61
655.90	380.76
656.25	378.92
656.59	377.10
656.93	375.36
657.27	373.65
657.61	371.85
657.95	370.11
658.29	368.38
658.64	366.69
658.98	364.97
659.32	363.28
659.66	361.69
660.00	360.11
660.34	358.57
660.68	356.96
661.02	355.29
661.36	353.74
661.70	352.25
662.05	350.75
662.39	349.23
662.73	347.80
663.07	346.41
663.41	345.01
663.75	343.65
664.09	342.29
664.43	340.85
664.77	339.51
665.11	338.11
665.45	336.79
665.79	335.46
666.13	334.13
666.47	332.78
666.81	331.41
667.15	330.01
667.49	328.71
667.83	327.46
668.17	326.25
668.51	325.07
668.85	323.88
669.19	322.77
669.53	321.60
669.87	320.40
670.21	319.22
670.55	318.06
670.89	316.98
671.23	315.86
671.57	314.77
671.91	313.72
672.25	312.73
672.58	311.73
672.92	310.70
673.26	309.73
673.60	308.78
673.94	307.81
674.28	306.91
674.62	305.99
674.96	305.04
675.30	304.14
675.64	303.22
675.97	302.32
676.31	301.38
676.65	300.47
676.99	299.61
677.33	298.72
677.67	297.86
678.01	296.92
678.34	296.06
678.68	295.26
679.02	294.42
679.36	293.58
679.70	292.75
680.04	291.96
680.37	291.16
680.71	290.38
681.05	289.65
681.39	288.88
681.73	288.07
682.06	287.31
682.40	286.55
682.74	285.82
683.08	285.12
683.42	284.39
683.75	283.74
684.09	283.01
684.43	282.33
684.77	281.62
685.10	280.98
685.44	280.31
685.78	279.63
686.12	278.99
686.45	278.35
686.79	277.70
687.13	277.06
687.46	276.41
687.80	275.78
688.14	275.11
688.48	274.49
688.81	273.88
689.15	273.32
689.49	272.71
689.82	272.12
690.16	271.48
690.50	270.90
690.83	270.32
691.17	269.75
691.51	269.20
691.84	268.67
692.18	268.10
692.52	267.53
692.85	266.97
693.19	266.46
693.52	265.93
693.86	265.41
694.20	264.89
694.53	264.40
694.87	263.90
695.21	263.41
695.54	262.93
695.88	262.43
696.21	261.91
696.55	261.43
696.88	260.95
697.22	260.49
697.56	260.03
697.89	259.52
698.23	259.04
698.56	258.55
698.90	258.10
699.23	257.64
699.57	257.22
699.90	256.79
700.24	256.33
700.58	255.91
700.91	255.51
701.25	255.19
701.58	254.83
701.92	254.46
702.25	254.07
702.59	253.67
702.92	253.29
703.26	252.91
703.59	252.54
703.93	252.24
704.26	251.89
704.60	251.54
704.93	251.19
705.26	250.85
705.60	250.54
705.93	250.18
706.27	249.89
706.60	249.58
706.94	249.28
707.27	248.92
707.61	248.59
707.94	248.25
708.27	247.84
708.61	247.48
708.94	247.14
709.28	246.83
709.61	246.52
709.94	246.24
710.28	245.95
710.61	245.69
710.95	245.32
711.28	245.12
711.61	244.84
711.95	244.60
712.28	244.34
712.61	244.06
712.95	243.85
713.28	243.64
713.61	243.38
713.95	243.10
714.28	242.88
714.61	242.63
714.95	242.39
715.28	242.15
715.61	241.92
715.95	241.70
716.28	241.48
716.61	241.27
716.95	241.04
717.28	240.83
717.61	240.61
717.94	240.40
718.28	240.12
718.61	239.91
718.94	239.68
719.27	239.48
719.61	239.30
719.94	239.08
720.27	238.82
720.60	238.63
720.94	238.44
721.27	238.26
721.60	238.10
721.93	237.92
722.27	237.78
722.60	237.62
722.93	237.44
723.26	237.28
723.59	237.09
723.93	236.94
724.26	236.78
724.59	236.62
724.92	236.47
725.25	236.34
725.59	236.19
725.92	236.06
726.25	235.92
726.58	235.77
726.91	235.62
727.24	235.50
727.57	235.35
727.91	235.20
728.24	235.08
728.57	234.93
728.90	234.81
729.23	234.64
729.56	234.55
729.89	234.42
730.22	234.27
730.55	234.15
730.89	234.01
731.22	233.88
731.55	233.75
731.88	233.63
732.21	233.49
732.54	233.37
732.87	233.25
733.20	233.14
733.53	233.03
733.86	232.93
734.19	232.80
734.52	232.71
734.85	232.68
735.18	232.55
735.51	232.47
735.84	232.37
736.17	232.30
736.50	232.14
736.83	232.17
737.16	232.07
737.49	231.99
737.82	231.89
738.15	231.81
738.48	231.72
738.81	231.62
739.14	231.52
739.47	231.42
739.80	231.33
740.13	231.25
740.46	231.14
740.79	231.03
741.12	230.94
741.45	230.84
741.78	230.70
742.11	230.64
742.44	230.53
742.77	230.46
743.10	230.36
743.43	230.27
743.75	230.08
744.08	230.16
744.41	230.07
744.74	229.98
745.07	229.88
745.40	229.82
745.73	229.79
746.06	229.72
746.39	229.67
746.71	229.59
747.04	229.50
747.37	229.43
747.70	229.38
748.03	229.31
748.36	229.26
748.68	229.19
749.01	229.08
749.34	229.02
749.67	228.95
750.00	228.91
750.33	228.92
750.65	228.87
750.98	228.65
751.31	228.60
751.64	228.54
751.97	228.54
752.29	228.47
752.62	228.35
752.95	228.28
753.28	228.20
753.60	228.13
753.93	228.10
754.26	228.05
754.59	227.95
754.91	227.88
755.24	227.81
755.57	227.79
755.90	227.73
756.22	227.66
756.55	227.58
756.88	227.50
757.20	227.37
757.53	227.29
757.86	227.23
758.19	227.19
758.51	227.13
758.84	227.02
759.17	226.96
759.49	226.93
759.82	226.93
760.15	226.89
760.47	226.84
760.80	226.76
761.13	226.73
761.45	226.69
761.78	226.65
762.11	226.61
762.43	226.51
762.76	226.47
763.08	226.44
763.41	226.40
763.74	226.37
764.06	226.32
764.39	226.28
764.71	226.24
765.04	226.19
765.37	226.14
765.69	226.11
766.02	226.06
766.34	226.01
766.67	225.93
767.00	225.91
767.32	225.92
767.65	225.95
767.97	225.90
768.30	225.87
768.62	225.83
768.95	225.78
769.27	225.74
769.60	225.72
769.92	225.67
770.25	225.62
770.57	225.57
770.90	225.53
771.22	225.49
771.55	225.46
771.87	225.44
772.20	225.40
772.52	225.46
772.85	225.56
773.17	225.53
773.50	225.49
773.82	225.45
774.15	225.36
774.47	225.28
774.80	225.24
775.12	225.20
775.45	225.18
775.77	225.16
776.09	225.14
776.42	225.12
776.74	225.12
777.07	225.10
777.39	225.08
777.72	225.05
778.04	225.04
778.36	225.00
778.69	224.98
779.01	224.96
779.33	224.85
779.66	224.71
779.98	224.68
780.31	224.66
780.63	224.69
780.95	224.68
781.28	224.66
781.60	224.63
781.92	224.62
782.25	224.60
782.57	224.57
782.89	224.54
783.22	224.51
783.54	224.47
783.86	224.46
784.19	224.43
784.51	224.45
784.83	224.42
785.16	224.40
785.48	224.39
785.80	224.37
786.12	224.36
786.45	224.34
786.77	224.33
787.09	224.31
787.42	224.25
787.74	224.24
788.06	224.23
788.38	224.21
788.71	224.19
789.03	224.17
789.35	224.17
789.67	224.15
789.99	224.14
790.32	224.12
790.64	224.11
790.96	224.19
791.28	224.14
791.61	224.12
791.93	224.12
792.25	224.10
792.57	224.16
792.89	224.12
793.21	224.11
793.54	224.09
793.86	224.07
794.18	224.06
794.50	224.03
794.82	224.02
795.14	224.02
795.47	224.02
795.79	224.01
796.11	223.97
796.43	223.96
796.75	223.94
797.07	223.94
797.39	223.92
797.71	223.82
798.04	223.82
798.36	223.81
798.68	223.80
799.00	223.79
799.32	223.73
799.64	223.74
799.96	223.72
800.28	223.74
800.60	223.73
800.92	223.72
801.24	223.71
801.56	223.70
801.89	223.68
802.21	223.68
802.53	223.65
802.85	223.67
803.17	223.71
803.49	223.68
803.81	223.66
804.13	223.64
804.45	223.62
804.77	223.62
805.09	223.61
805.41	223.59
805.73	223.56
806.05	223.53
806.37	223.52
806.69	223.50
807.01	223.48
807.33	223.48
807.65	223.44
807.97	223.48
808.28	223.46
808.60	223.45
808.92	223.43
809.24	223.49
809.56	223.45
809.88	223.41
810.20	223.41
810.52	223.42
810.84	223.40
811.16	223.39
811.48	223.37
811.80	223.40
812.12	223.39
812.43	223.41
812.75	223.41
813.07	223.40
813.39	223.39
813.71	223.37
814.03	223.36
814.35	223.36
814.67	223.31
814.98	223.29
815.30	223.28
815.62	223.26
815.94	223.18
816.26	223.19
816.58	223.17
816.89	223.18
817.21	223.14
817.53	223.15
817.85	223.15
818.17	223.14
818.48	223.09
818.80	223.11
819.12	223.08
819.44	223.06
819.76	223.04
820.07	223.03
820.39	223.03
820.71	223.03
821.03	223.02
821.34	223.01
821.66	223.03
821.98	223.03
822.30	223.02
822.61	223.08
822.93	223.07
823.25	223.06
823.57	223.05
823.88	223.06
824.20	223.05
824.52	223.06
824.83	223.05
825.15	223.04
825.47	223.03
825.79	223.03
826.10	223.03
826.42	223.02
826.74	223.02
827.05	223.02
827.37	223.02
827.69	223.01
828.00	223.01
828.32	223.01
828.64	222.99
828.95	223.04
829.27	223.01
829.58	223.00
829.90	223.01
830.22	223.01
830.53	222.99
830.85	222.98
831.17	222.96
831.48	222.95
831.80	222.96
832.11	222.95
832.43	222.93
832.75	222.93
833.06	222.99
833.38	222.96
833.69	222.95
834.01	222.95
834.32	222.94
834.64	222.93
834.96	222.93
835.27	222.92
835.59	222.88
835.90	222.86
836.22	222.86
836.53	222.84
836.85	222.83
837.16	222.92
837.48	222.92
837.79	222.96
838.11	222.96
838.42	222.95
838.74	222.96
839.05	222.96
839.37	222.95
839.68	222.89
840.00	222.89
840.31	222.90
840.63	222.89
840.94	222.88
841.26	222.87
841.57	222.87
841.88	222.87
842.20	222.86
842.51	222.84
842.83	222.84
843.14	222.93
843.46	222.93
843.77	222.87
844.08	222.86
844.40	222.83
844.71	222.82
845.03	222.80
845.34	222.79
845.65	222.78
845.97	222.78
846.28	222.79
846.60	222.79
846.91	222.77
847.22	222.77
847.54	222.79
847.85	222.80
848.16	222.78
848.48	222.76
848.79	222.80
849.10	222.81
849.42	222.82
849.73	222.72
850.04	222.72
850.36	222.68
850.67	222.69
850.98	222.70
851.30	222.70
851.61	222.70
851.92	222.70
852.23	222.73
852.55	222.74
852.86	222.74
853.17	222.75
853.49	222.77
853.80	222.79
854.11	222.79
854.42	222.80
854.74	222.79
855.05	222.80
855.36	222.75
855.67	222.75
855.99	222.74
856.30	222.87
856.61	222.87
856.92	222.87
857.23	222.87
857.55	222.86
857.86	222.85
858.17	222.86
858.48	222.85
858.79	222.82
859.11	222.82
859.42	222.81
859.73	222.80
860.04	222.79
860.35	222.76
860.66	222.72
860.98	222.72
861.29	222.73
861.60	222.72
861.91	222.74
862.22	222.73
862.53	222.71
862.84	222.58
863.16	222.60
863.47	222.59
863.78	222.57
864.09	222.58
864.40	222.59
864.71	222.58
865.02	222.60
865.33	222.59
865.64	222.56
865.95	222.56
866.27	222.63
866.58	222.61
866.89	222.63
867.20	222.63
867.51	222.61
867.82	222.61
868.13	222.64
868.44	222.62
868.75	222.63
869.06	222.64
869.37	222.65
869.68	222.62
869.99	222.64
870.30	222.64
870.61	222.65
870.92	222.64
871.23	222.63
871.54	222.64
871.85	222.66
872.16	222.68
872.47	222.67
872.78	222.61
873.09	222.62
873.40	222.61
873.71	222.61
874.02	222.62
874.33	222.61
874.64	222.59
874.95	222.60
875.26	222.58
875.56	222.58
875.87	222.57
876.18	222.57
876.49	222.67
876.80	222.66
877.11	222.64
877.42	222.64
877.73	222.64
878.04	222.63
878.35	222.62
878.66	222.62
878.96	222.62
879.27	222.62
879.58	222.61
879.89	222.61
880.20	222.63
880.51	222.62
880.82	222.63
881.12	222.63
881.43	222.61
881.74	222.60
882.05	222.59
882.36	222.60
882.67	222.61
882.97	222.49
883.28	222.49
883.59	222.49
883.90	222.50
884.21	222.51
884.51	222.50
884.82	222.49
885.13	222.49
885.44	222.48
885.74	222.49
886.05	222.48
886.36	222.48
886.67	222.44
886.98	222.50
887.28	222.50
887.59	222.50
887.90	222.51
888.20	222.50
888.51	222.53
888.82	222.51
889.13	222.52
889.43	222.61
889.74	222.60
890.05	222.60
890.35	222.59
890.66	222.57
890.97	222.56
891.28	222.55
891.58	222.55
891.89	222.55
892.20	222.54
892.50	222.53
892.81	222.53
893.12	222.53
893.42	222.48
893.73	222.48
894.04	222.47
894.34	222.48
894.65	222.48
894.95	222.47
895.26	222.47
895.57	222.51
895.87	222.40
896.18	222.42
896.48	222.43
896.79	222.43
897.10	222.44
897.40	222.45
897.71	222.46
898.01	222.45
898.32	222.46
898.63	222.46
898.93	222.47
899.24	222.47
899.54	222.47
899.85	222.47
900.15	222.46
900.46	222.46
900.76	222.46
901.07	222.46
901.38	222.45
901.68	222.47
901.99	222.41
902.29	222.43
902.60	222.42
902.90	222.40
903.21	222.40
903.51	222.39
903.82	222.41
904.12	222.41
904.43	222.42
904.73	222.41
905.03	222.42
905.34	222.51
905.64	222.50
905.95	222.50
906.25	222.50
906.56	222.50
906.86	222.50
907.17	222.49
907.47	222.50
907.77	222.49
908.08	222.46
908.38	222.46
908.69	222.47
908.99	222.48
909.30	222.49
909.60	222.49
909.90	222.49
910.21	222.46
910.51	222.44
910.81	222.44
911.12	222.44
911.42	222.44
911.73	222.33
912.03	222.34
912.33	222.37
912.64	222.36
912.94	222.35
913.24	222.33
913.55	222.32
913.85	222.31
914.15	222.33
914.46	222.34
914.76	222.33
915.06	222.33
915.37	222.31
915.67	222.30
915.97	222.30
916.27	222.28
916.58	222.28
916.88	222.28
917.18	222.28
917.49	222.34
917.79	222.34
918.09	222.35
918.39	222.38
918.70	222.37
919.00	222.38
919.30	222.42
919.60	222.42
919.91	222.41
920.21	222.41
920.51	222.39
920.81	222.39
921.12	222.40
921.42	222.40
921.72	222.41
922.02	222.41
922.32	222.43
922.63	222.44
922.93	222.49
923.23	222.49
923.53	222.48
923.83	222.41
924.13	222.42
924.44	222.42
924.74	222.43
925.04	222.45
925.34	222.45
925.64	222.40
925.94	222.40
926.24	222.46
926.55	222.45
926.85	222.47
927.15	222.47
927.45	222.46
927.75	222.46
928.05	222.46
928.35	222.45
928.65	222.47
928.95	222.47
929.26	222.42
929.56	222.44
929.86	222.46
930.16	222.45
930.46	222.44
930.76	222.44
931.06	222.39
931.36	222.36
931.66	222.37
931.96	222.39
932.26	222.39
932.56	222.35
932.86	222.35
933.16	222.35
933.46	222.34
933.76	222.33
934.06	222.35
934.36	222.38
934.66	222.38
934.96	222.36
935.26	222.37
935.56	222.38
935.86	222.35
936.16	222.34
936.46	222.33
936.76	222.32
937.06	222.31
937.36	222.32
937.66	222.32
937.96	222.31
938.26	222.29
938.56	222.29
938.86	222.29
939.16	222.31
939.46	222.31
939.76	222.32
940.06	222.32
940.35	222.30
940.65	222.25
940.95	222.26
941.25	222.23
941.55	222.22
941.85	222.21
942.15	222.24
942.45	222.27
942.75	222.26
943.04	222.27
943.34	222.29
943.64	222.28
943.94	222.26
944.24	222.26
944.54	222.27
944.84	222.27
945.13	222.26
945.43	222.23
945.73	222.23
946.03	222.22
946.33	222.21
946.62	222.20
946.92	222.21
947.22	222.21
947.52	222.22
947.82	222.23
948.11	222.22
948.41	222.19
948.71	222.16
949.01	222.17
949.31	222.17
949.60	222.16
949.90	222.17
950.20	222.17
950.50	222.17
950.79	222.16
951.09	222.18
951.39	222.18
951.69	222.16
951.98	222.18
952.28	222.19
952.58	222.19
952.87	222.18
953.17	222.20
953.47	222.18
953.76	222.18
954.06	222.16
954.36	222.15
954.66	222.15
954.95	222.18
955.25	222.19
955.55	222.19
955.84	222.18
956.14	222.18
956.44	222.19
956.73	222.18
957.03	222.18
957.32	222.18
957.62	222.18
957.92	222.20
958.21	222.19
958.51	222.31
958.81	222.33
959.10	222.34
959.40	222.36
959.69	222.37
959.99	222.38
960.29	222.39
960.58	222.39
960.88	222.43
961.17	222.42
961.47	222.42
961.76	222.41
962.06	222.43
962.36	222.42
962.65	222.42
962.95	222.43
963.24	222.42
963.54	222.42
963.83	222.43
964.13	222.43
964.42	222.41
964.72	222.32
965.01	222.32
965.31	222.31
965.60	222.29
965.90	222.35
966.19	222.32
966.49	222.33
966.78	222.32
967.08	222.31
967.37	222.31
967.67	222.29
967.96	222.31
968.26	222.30
968.55	222.32
968.85	222.31
969.14	222.31
969.43	222.31
969.73	222.30
970.02	222.29
970.32	222.28
970.61	222.27
970.91	222.24
971.20	222.23
971.49	222.22
971.79	222.23
972.08	222.16
972.38	222.18
972.67	222.17
972.96	222.18
973.26	222.16
973.55	222.20
973.85	222.19
974.14	222.18
974.43	222.19
974.73	222.17
975.02	222.15
975.31	222.16
975.61	222.16
975.90	222.15
976.19	222.14
976.49	222.15
976.78	222.15
977.07	222.15
977.37	222.16
977.66	222.17
977.95	222.15
978.24	222.16
978.54	222.18
978.83	222.17
979.12	222.16
979.42	222.17
979.71	222.14
980.00	222.14
980.29	222.14
980.59	222.13
980.88	222.16
981.17	222.16
981.46	222.16
981.76	222.16
982.05	222.19
982.34	222.20
982.63	222.20
982.93	222.20
983.22	222.23
983.51	222.23
983.80	222.24
984.09	222.25
984.39	222.25
984.68	222.23
984.97	222.24
985.26	222.24
985.55	222.24
985.85	222.22
986.14	222.24
986.43	222.25
986.72	222.24
987.01	222.21
987.30	222.21
987.59	222.20
987.89	222.20
988.18	222.17
988.47	222.16
988.76	222.15
989.05	222.14
989.34	222.12
989.63	222.15
989.92	222.13
990.22	222.11
990.51	222.11
990.80	222.10
991.09	222.11
991.38	222.12
991.67	222.11
991.96	222.10
992.25	222.11
992.54	222.09
992.83	222.09
993.12	222.09
993.41	222.10
993.70	222.15
993.99	222.17
994.28	222.18
994.58	222.20
994.87	222.19
995.16	222.19
995.45	222.18
995.74	222.15
996.03	222.16
996.32	222.18
996.61	222.20
996.90	222.20
997.19	222.19
997.48	222.19
997.77	222.18
998.06	222.19
998.34	222.17
998.63	222.18
998.92	222.18
999.21	222.20
999.50	222.20
999.79	222.16
1000.08	222.16
1000.37	222.16
1000.66	222.14
1000.95	222.17
1001.24	222.17
1001.53	222.19
1001.82	222.18
1002.11	222.16
1002.40	222.17
1002.68	222.19
1002.97	222.26
1003.26	222.25
1003.55	222.24
1003.84	222.24
1004.13	222.28
1004.42	222.28
1004.71	222.28
1004.99	222.27
1005.28	222.29
1005.57	222.28
1005.86	222.27
1006.15	222.26
1006.44	222.24
1006.72	222.26
1007.01	222.24
1007.30	222.24
1007.59	222.23
1007.88	222.23
1008.17	222.24
1008.45	222.22
1008.74	222.17
1009.03	222.12
1009.32	222.12
1009.60	222.13
1009.89	222.12
1010.18	222.08
1010.47	222.08
1010.76	222.07
1011.04	222.07
1011.33	222.07
1011.62	222.08
1011.91	222.09
1012.19	222.10
1012.48	222.10
1012.77	222.09
1013.05	222.13
1013.34	222.13
1013.63	222.13
1013.92	222.13
1014.20	222.13
1014.49	222.13
1014.78	222.14
1015.06	222.11
1015.35	222.11
1015.64	222.13
1015.92	222.14
1016.21	222.15
1016.50	222.15
1016.78	222.16
1017.07	222.17
1017.36	222.15
1017.64	222.14
1017.93	222.14
1018.22	222.13
1018.50	222.13
1018.79	222.13
1019.08	222.09
1019.36	222.10
1019.65	222.08
1019.93	222.11
1020.22	222.13
1020.51	222.18
1020.79	222.16
1021.08	221.98
1021.36	221.95
1021.65	222.12
1021.94	222.05
1022.22	222.15
1022.51	221.86
1022.79	222.60
1023.08	222.26
1023.36	223.37
1023.65	221.83
>>>>>End Processed Spectral Data<<<<<
