SpectraSuite Data File
++++++++++++++++++++++++++++++++++++
Date: Wed Sep 30 17:10:55 EDT 2015
User: lab3
Dark Spectrum Present: No
Reference Spectrum Present: No
Number of Sampled Component Spectra: 1
Spectrometers: USB2E7196
Integration Time (usec): 36000 (USB2E7196)
Spectra Averaged: 3000 (USB2E7196)
Boxcar Smoothing: 10 (USB2E7196)
Correct for Electrical Dark: No (USB2E7196)
Strobe/Lamp Enabled: No (USB2E7196)
Correct for Detector Non-linearity: No (USB2E7196)
Correct for Stray Light: No (USB2E7196)
Number of Pixels in Processed Spectrum: 2048
>>>>>Begin Processed Spectral Data<<<<<
339.09	0.00
339.48	210.21
339.86	211.63
340.24	213.03
340.63	214.42
341.01	217.53
341.39	217.03
341.78	218.43
342.16	219.59
342.54	220.11
342.93	208.74
343.31	219.29
343.69	219.82
344.07	220.28
344.46	220.71
344.84	221.10
345.22	221.32
345.60	221.58
345.99	221.78
346.37	221.92
346.75	222.03
347.13	222.10
347.52	222.17
347.90	222.25
348.28	222.29
348.66	222.34
349.05	222.34
349.43	222.39
349.81	222.44
350.19	222.50
350.57	222.56
350.96	222.64
351.34	222.73
351.72	222.82
352.10	222.93
352.48	223.01
352.87	223.06
353.25	223.12
353.63	223.18
354.01	223.24
354.39	223.32
354.77	223.40
355.15	223.50
355.54	223.55
355.92	223.59
356.30	223.66
356.68	223.80
357.06	223.87
357.44	223.92
357.82	223.98
358.20	224.10
358.58	224.16
358.97	224.22
359.35	224.30
359.73	224.39
360.11	224.44
360.49	224.49
360.87	224.54
361.25	224.61
361.63	224.69
362.01	224.75
362.39	224.78
362.77	224.83
363.15	224.85
363.53	224.89
363.91	224.93
364.29	224.95
364.67	224.88
365.05	224.90
365.43	224.93
365.81	224.96
366.19	224.98
366.57	225.03
366.95	225.03
367.33	225.01
367.71	225.01
368.09	225.03
368.47	225.03
368.85	225.02
369.23	225.03
369.61	224.97
369.99	224.99
370.37	224.99
370.75	225.04
371.13	225.01
371.51	224.97
371.89	224.95
372.27	224.93
372.65	224.90
373.03	224.86
373.41	224.82
373.78	224.77
374.16	224.67
374.54	224.60
374.92	224.55
375.30	224.51
375.68	224.44
376.06	224.39
376.44	224.33
376.82	224.29
377.19	224.23
377.57	224.18
377.95	224.10
378.33	224.04
378.71	223.89
379.09	223.85
379.47	223.81
379.84	223.74
380.22	223.68
380.60	223.61
380.98	223.56
381.36	223.50
381.73	223.44
382.11	223.41
382.49	223.37
382.87	223.30
383.25	223.25
383.62	223.32
384.00	223.25
384.38	223.22
384.76	223.19
385.13	223.18
385.51	223.14
385.89	223.08
386.27	223.05
386.64	223.02
387.02	222.97
387.40	222.93
387.78	222.90
388.15	222.87
388.53	222.84
388.91	222.82
389.29	222.78
389.66	222.77
390.04	222.74
390.42	222.73
390.79	222.72
391.17	222.71
391.55	222.58
391.92	222.56
392.30	222.56
392.68	222.53
393.05	222.51
393.43	222.50
393.81	222.51
394.18	222.48
394.56	222.48
394.94	222.51
395.31	222.50
395.69	222.54
396.06	222.56
396.44	222.58
396.82	222.59
397.19	222.67
397.57	222.67
397.95	222.71
398.32	222.70
398.70	222.74
399.07	222.79
399.45	222.83
399.82	222.87
400.20	222.91
400.58	222.95
400.95	222.96
401.33	223.04
401.70	223.17
402.08	223.26
402.45	223.33
402.83	223.43
403.20	223.53
403.58	223.62
403.95	223.74
404.33	223.87
404.71	224.00
405.08	224.18
405.46	224.32
405.83	224.48
406.21	224.64
406.58	224.83
406.96	225.01
407.33	225.22
407.70	225.46
408.08	225.78
408.45	226.06
408.83	226.36
409.20	226.64
409.58	226.88
409.95	227.23
410.33	227.60
410.70	227.95
411.08	228.36
411.45	228.79
411.82	229.22
412.20	229.72
412.57	230.31
412.95	230.77
413.32	231.38
413.69	231.99
414.07	232.65
414.44	233.37
414.82	234.10
415.19	234.95
415.56	235.82
415.94	236.72
416.31	237.73
416.68	238.74
417.06	239.91
417.43	241.02
417.81	242.28
418.18	243.57
418.55	244.97
418.93	246.43
419.30	247.95
419.67	249.58
420.04	251.25
420.42	252.99
420.79	255.02
421.16	257.06
421.54	259.14
421.91	261.30
422.28	263.55
422.66	265.97
423.03	268.29
423.40	270.71
423.77	273.32
424.15	275.98
424.52	278.76
424.89	281.76
425.26	284.74
425.64	287.51
426.01	290.64
426.38	293.82
426.75	297.11
427.13	300.48
427.50	304.00
427.87	307.66
428.24	311.35
428.61	314.89
428.99	318.71
429.36	322.90
429.73	326.90
430.10	330.89
430.47	334.96
430.85	339.15
431.22	343.60
431.59	348.19
431.96	352.67
432.33	357.61
432.70	362.31
433.08	367.85
433.45	373.09
433.82	378.22
434.19	383.96
434.56	389.61
434.93	395.03
435.30	400.41
435.68	406.45
436.05	412.36
436.42	418.26
436.79	423.65
437.16	429.47
437.53	435.70
437.90	441.91
438.27	447.98
438.64	454.57
439.01	460.53
439.38	465.96
439.75	471.20
440.13	477.18
440.50	482.88
440.87	487.36
441.24	492.29
441.61	497.75
441.98	501.76
442.35	506.52
442.72	511.41
443.09	516.09
443.46	519.12
443.83	521.37
444.20	523.28
444.57	526.05
444.94	527.71
445.31	529.43
445.68	530.98
446.05	532.15
446.42	532.05
446.79	531.87
447.16	531.72
447.53	531.63
447.90	529.93
448.27	528.36
448.64	525.82
449.01	524.19
449.37	520.50
449.74	517.14
450.11	512.81
450.48	508.02
450.85	503.21
451.22	499.14
451.59	495.15
451.96	491.52
452.33	486.16
452.70	481.41
453.07	475.58
453.43	469.75
453.80	464.11
454.17	458.69
454.54	453.65
454.91	447.96
455.28	442.59
455.65	437.53
456.02	432.15
456.38	427.80
456.75	422.17
457.12	417.64
457.49	413.06
457.86	408.69
458.23	404.88
458.59	400.66
458.96	396.30
459.33	392.46
459.70	388.57
460.07	385.59
460.43	382.08
460.80	378.80
461.17	375.90
461.54	372.78
461.91	369.85
462.27	366.88
462.64	364.43
463.01	361.66
463.38	358.85
463.74	356.27
464.11	354.00
464.48	351.94
464.85	349.72
465.21	348.04
465.58	346.19
465.95	344.03
466.32	342.30
466.68	340.61
467.05	338.91
467.42	337.27
467.78	335.51
468.15	333.87
468.52	332.65
468.88	331.06
469.25	329.59
469.62	328.43
469.98	327.17
470.35	326.05
470.72	325.02
471.08	323.98
471.45	323.13
471.82	322.19
472.18	321.22
472.55	320.59
472.92	319.80
473.28	319.19
473.65	318.55
474.02	317.95
474.38	317.45
474.75	317.17
475.11	316.76
475.48	316.60
475.85	316.43
476.21	316.37
476.58	316.36
476.94	316.53
477.31	316.64
477.67	316.77
478.04	317.01
478.41	317.34
478.77	317.78
479.14	318.10
479.50	318.63
479.87	319.29
480.23	319.96
480.60	320.60
480.96	321.26
481.33	322.19
481.69	323.12
482.06	324.05
482.42	324.92
482.79	325.97
483.15	327.18
483.52	328.53
483.88	329.83
484.25	331.23
484.61	332.68
484.98	334.25
485.34	336.00
485.71	337.81
486.07	339.75
486.44	341.67
486.80	343.81
487.17	346.00
487.53	348.42
487.90	350.93
488.26	353.66
488.62	356.52
488.99	359.39
489.35	362.39
489.72	365.63
490.08	369.03
490.44	372.52
490.81	376.17
491.17	379.92
491.54	383.92
491.90	388.02
492.26	392.43
492.63	397.07
492.99	401.91
493.36	406.88
493.72	412.11
494.08	417.47
494.45	423.15
494.81	429.02
495.17	434.99
495.54	441.32
495.90	447.95
496.26	454.73
496.63	461.74
496.99	469.03
497.35	476.68
497.72	484.61
498.08	492.72
498.44	501.07
498.80	509.96
499.17	519.07
499.53	528.51
499.89	538.18
500.26	548.03
500.62	558.14
500.98	568.91
501.34	579.82
501.71	591.24
502.07	602.88
502.43	614.93
502.79	627.33
503.16	640.13
503.52	653.08
503.88	666.39
504.24	680.12
504.60	694.15
504.97	708.53
505.33	723.31
505.69	738.97
506.05	754.86
506.41	770.77
506.78	786.98
507.14	803.69
507.50	820.96
507.86	838.60
508.22	856.50
508.59	874.42
508.95	893.07
509.31	912.17
509.67	931.95
510.03	951.94
510.39	972.15
510.75	992.55
511.12	1013.28
511.48	1034.34
511.84	1055.54
512.20	1077.01
512.56	1099.61
512.92	1122.41
513.28	1144.93
513.64	1167.76
514.00	1191.04
514.37	1214.59
514.73	1238.17
515.09	1261.59
515.45	1285.41
515.81	1309.83
516.17	1334.33
516.53	1358.50
516.89	1382.78
517.25	1407.23
517.61	1431.91
517.97	1456.77
518.33	1481.48
518.69	1506.38
519.05	1531.54
519.41	1556.79
519.77	1582.36
520.13	1607.20
520.49	1632.20
520.85	1657.40
521.21	1682.47
521.57	1708.12
521.93	1733.13
522.29	1758.93
522.65	1784.50
523.01	1809.93
523.37	1834.55
523.73	1859.82
524.09	1885.32
524.45	1910.71
524.81	1935.66
525.17	1960.43
525.53	1984.89
525.89	2009.26
526.25	2033.80
526.61	2057.77
526.97	2082.15
527.33	2106.38
527.68	2130.46
528.04	2153.77
528.40	2176.96
528.76	2200.37
529.12	2222.73
529.48	2245.55
529.84	2266.58
530.20	2288.10
530.56	2309.31
530.91	2330.68
531.27	2351.50
531.63	2371.71
531.99	2391.37
532.35	2410.84
532.71	2430.50
533.07	2450.71
533.42	2469.30
533.78	2488.41
534.14	2507.43
534.50	2525.57
534.86	2544.35
535.21	2561.38
535.57	2578.28
535.93	2594.37
536.29	2609.25
536.65	2624.85
537.00	2639.41
537.36	2654.63
537.72	2668.78
538.08	2682.71
538.44	2695.50
538.79	2708.55
539.15	2719.78
539.51	2730.90
539.87	2741.45
540.22	2749.92
540.58	2758.49
540.94	2767.75
541.29	2775.37
541.65	2782.12
542.01	2788.40
542.37	2792.74
542.72	2798.88
543.08	2804.57
543.44	2810.18
543.79	2815.07
544.15	2819.23
544.51	2823.17
544.87	2826.14
545.22	2828.77
545.58	2830.31
545.94	2832.30
546.29	2832.84
546.65	2833.56
547.01	2834.32
547.36	2835.35
547.72	2836.62
548.07	2836.34
548.43	2835.41
548.79	2833.85
549.14	2832.26
549.50	2831.19
549.86	2829.35
550.21	2825.16
550.57	2821.48
550.92	2816.28
551.28	2811.68
551.64	2806.84
551.99	2802.45
552.35	2797.66
552.70	2792.38
553.06	2787.73
553.41	2782.59
553.77	2776.85
554.13	2771.80
554.48	2765.88
554.84	2758.34
555.19	2750.83
555.55	2742.65
555.90	2735.05
556.26	2728.54
556.61	2721.47
556.97	2712.20
557.32	2703.96
557.68	2695.96
558.03	2687.23
558.39	2679.37
558.74	2671.61
559.10	2662.74
559.45	2653.49
559.81	2644.33
560.16	2634.69
560.52	2624.58
560.87	2615.46
561.23	2606.03
561.58	2596.17
561.94	2586.17
562.29	2575.52
562.64	2565.41
563.00	2555.74
563.35	2545.94
563.71	2535.04
564.06	2523.70
564.42	2513.39
564.77	2502.63
565.12	2492.00
565.48	2480.98
565.83	2470.61
566.19	2460.34
566.54	2449.58
566.89	2437.97
567.25	2426.55
567.60	2415.88
567.96	2404.78
568.31	2392.42
568.66	2379.90
569.02	2368.38
569.37	2356.65
569.72	2345.50
570.08	2333.58
570.43	2321.06
570.78	2308.22
571.14	2295.38
571.49	2283.19
571.84	2271.25
572.20	2257.91
572.55	2245.17
572.90	2232.29
573.26	2218.58
573.61	2204.30
573.96	2190.23
574.31	2176.46
574.67	2162.85
575.02	2148.71
575.37	2134.27
575.72	2120.11
576.08	2106.40
576.43	2091.64
576.78	2076.83
577.13	2062.87
577.49	2049.08
577.84	2035.73
578.19	2021.56
578.54	2006.92
578.90	1991.74
579.25	1976.32
579.60	1962.43
579.95	1948.08
580.30	1933.80
580.66	1919.73
581.01	1905.12
581.36	1891.00
581.71	1877.55
582.06	1863.58
582.42	1849.76
582.77	1836.63
583.12	1823.00
583.47	1809.53
583.82	1796.18
584.17	1782.69
584.53	1769.04
584.88	1755.40
585.23	1741.42
585.58	1727.94
585.93	1714.78
586.28	1702.52
586.63	1690.07
586.98	1676.77
587.34	1663.73
587.69	1650.25
588.04	1637.00
588.39	1624.42
588.74	1611.28
589.09	1597.86
589.44	1584.46
589.79	1571.61
590.14	1558.61
590.49	1545.87
590.84	1532.99
591.19	1520.71
591.54	1508.00
591.89	1495.10
592.25	1482.53
592.60	1469.52
592.95	1457.06
593.30	1445.00
593.65	1432.72
594.00	1420.67
594.35	1409.43
594.70	1397.24
595.05	1386.04
595.40	1374.73
595.75	1362.86
596.10	1351.83
596.45	1341.07
596.80	1330.67
597.15	1320.03
597.50	1309.38
597.85	1298.90
598.19	1288.65
598.54	1277.89
598.89	1267.82
599.24	1258.06
599.59	1248.03
599.94	1239.05
600.29	1229.94
600.64	1220.62
600.99	1210.68
601.34	1201.18
601.69	1191.11
602.04	1182.26
602.39	1173.26
602.74	1164.49
603.08	1155.99
603.43	1146.96
603.78	1137.71
604.13	1128.65
604.48	1119.53
604.83	1110.73
605.18	1101.82
605.53	1092.83
605.87	1083.88
606.22	1075.23
606.57	1066.31
606.92	1057.41
607.27	1048.43
607.62	1039.57
607.96	1030.88
608.31	1023.24
608.66	1015.21
609.01	1007.58
609.36	999.81
609.70	991.82
610.05	983.67
610.40	975.87
610.75	968.20
611.10	960.77
611.44	952.98
611.79	945.51
612.14	937.63
612.49	929.89
612.83	922.65
613.18	915.51
613.53	908.19
613.88	900.98
614.22	894.40
614.57	887.59
614.92	880.74
615.27	873.94
615.61	866.95
615.96	860.23
616.31	853.39
616.65	846.49
617.00	839.83
617.35	833.25
617.70	826.72
618.04	820.29
618.39	813.89
618.74	807.84
619.08	801.58
619.43	795.59
619.78	789.63
620.12	783.47
620.47	777.49
620.82	771.55
621.16	765.94
621.51	759.98
621.85	754.03
622.20	748.11
622.55	742.35
622.89	736.51
623.24	730.70
623.59	725.02
623.93	719.41
624.28	713.95
624.62	708.48
624.97	702.96
625.32	697.58
625.66	692.08
626.01	686.54
626.35	681.17
626.70	675.83
627.04	670.68
627.39	665.60
627.73	660.61
628.08	655.86
628.43	650.93
628.77	646.06
629.12	641.33
629.46	636.81
629.81	632.14
630.15	627.37
630.50	622.76
630.84	618.30
631.19	614.02
631.53	609.79
631.88	605.46
632.22	601.23
632.57	597.21
632.91	593.15
633.26	589.18
633.60	585.28
633.95	581.50
634.29	577.57
634.64	573.58
634.98	569.50
635.32	565.59
635.67	561.87
636.01	558.08
636.36	554.31
636.70	550.70
637.05	547.05
637.39	543.61
637.73	540.03
638.08	536.53
638.42	533.02
638.77	529.35
639.11	525.68
639.45	522.03
639.80	518.38
640.14	514.91
640.49	511.41
640.83	507.81
641.17	504.23
641.52	500.84
641.86	497.46
642.20	494.24
642.55	490.86
642.89	487.54
643.23	484.45
643.58	481.60
643.92	478.60
644.26	475.66
644.61	472.69
644.95	469.74
645.29	466.71
645.64	463.64
645.98	460.73
646.32	458.00
646.66	455.27
647.01	452.51
647.35	449.83
647.69	447.04
648.04	444.35
648.38	441.72
648.72	439.05
649.06	436.43
649.41	433.88
649.75	431.31
650.09	428.76
650.43	426.21
650.78	423.65
651.12	421.08
651.46	418.59
651.80	416.21
652.14	413.92
652.49	411.64
652.83	409.43
653.17	407.20
653.51	405.03
653.85	402.92
654.20	400.76
654.54	398.49
654.88	396.42
655.22	394.42
655.56	392.38
655.90	390.44
656.25	388.52
656.59	386.57
656.93	384.73
657.27	382.94
657.61	381.05
657.95	379.22
658.29	377.38
658.64	375.59
658.98	373.76
659.32	371.97
659.66	370.28
660.00	368.61
660.34	366.97
660.68	365.28
661.02	363.53
661.36	361.89
661.70	360.32
662.05	358.74
662.39	357.13
662.73	355.62
663.07	354.13
663.41	352.67
663.75	351.24
664.09	349.82
664.43	348.31
664.77	346.90
665.11	345.43
665.45	344.04
665.79	342.65
666.13	341.26
666.47	339.85
666.81	338.41
667.15	336.94
667.49	335.56
667.83	334.23
668.17	332.95
668.51	331.69
668.85	330.44
669.19	329.26
669.53	328.04
669.87	326.76
670.21	325.51
670.55	324.28
670.89	323.12
671.23	321.92
671.57	320.75
671.91	319.63
672.25	318.57
672.58	317.51
672.92	316.42
673.26	315.40
673.60	314.38
673.94	313.35
674.28	312.39
674.62	311.43
674.96	310.43
675.30	309.47
675.64	308.51
675.97	307.56
676.31	306.57
676.65	305.61
676.99	304.73
677.33	303.78
677.67	302.87
678.01	301.89
678.34	300.99
678.68	300.14
679.02	299.26
679.36	298.39
679.70	297.52
680.04	296.68
680.37	295.82
680.71	295.00
681.05	294.23
681.39	293.42
681.73	292.57
682.06	291.76
682.40	290.97
682.74	290.19
683.08	289.44
683.42	288.68
683.75	287.98
684.09	287.20
684.43	286.48
684.77	285.76
685.10	285.08
685.44	284.38
685.78	283.67
686.12	283.00
686.45	282.32
686.79	281.63
687.13	280.96
687.46	280.28
687.80	279.61
688.14	278.90
688.48	278.26
688.81	277.62
689.15	277.01
689.49	276.36
689.82	275.74
690.16	275.05
690.50	274.44
690.83	273.82
691.17	273.22
691.51	272.64
691.84	272.06
692.18	271.45
692.52	270.83
692.85	270.24
693.19	269.69
693.52	269.13
693.86	268.58
694.20	268.03
694.53	267.50
694.87	266.96
695.21	266.44
695.54	265.91
695.88	265.39
696.21	264.83
696.55	264.32
696.88	263.82
697.22	263.33
697.56	262.84
697.89	262.28
698.23	261.78
698.56	261.25
698.90	260.77
699.23	260.28
699.57	259.83
699.90	259.36
700.24	258.87
700.58	258.42
700.91	257.99
701.25	257.64
701.58	257.25
701.92	256.86
702.25	256.44
702.59	256.01
702.92	255.60
703.26	255.20
703.59	254.79
703.93	254.46
704.26	254.09
704.60	253.69
704.93	253.33
705.26	252.96
705.60	252.63
705.93	252.24
706.27	251.93
706.60	251.60
706.94	251.27
707.27	250.89
707.61	250.52
707.94	250.15
708.27	249.71
708.61	249.32
708.94	248.96
709.28	248.62
709.61	248.29
709.94	247.98
710.28	247.68
710.61	247.39
710.95	247.01
711.28	246.78
711.61	246.49
711.95	246.22
712.28	245.92
712.61	245.62
712.95	245.39
713.28	245.16
713.61	244.87
713.95	244.57
714.28	244.33
714.61	244.06
714.95	243.81
715.28	243.54
715.61	243.29
715.95	243.05
716.28	242.81
716.61	242.59
716.95	242.34
717.28	242.11
717.61	241.87
717.94	241.63
718.28	241.33
718.61	241.10
718.94	240.85
719.27	240.63
719.61	240.44
719.94	240.20
720.27	239.92
720.60	239.72
720.94	239.52
721.27	239.32
721.60	239.15
721.93	238.95
722.27	238.80
722.60	238.62
722.93	238.41
723.26	238.24
723.59	238.03
723.93	237.86
724.26	237.69
724.59	237.51
724.92	237.34
725.25	237.20
725.59	237.03
725.92	236.89
726.25	236.73
726.58	236.57
726.91	236.39
727.24	236.24
727.57	236.09
727.91	235.92
728.24	235.78
728.57	235.62
728.90	235.49
729.23	235.30
729.56	235.20
729.89	235.06
730.22	234.91
730.55	234.77
730.89	234.62
731.22	234.47
731.55	234.33
731.88	234.20
732.21	234.05
732.54	233.92
732.87	233.79
733.20	233.67
733.53	233.54
733.86	233.44
734.19	233.31
734.52	233.21
734.85	233.16
735.18	233.01
735.51	232.93
735.84	232.81
736.17	232.73
736.50	232.57
736.83	232.58
737.16	232.48
737.49	232.37
737.82	232.27
738.15	232.19
738.48	232.09
738.81	231.98
739.14	231.87
739.47	231.76
739.80	231.65
740.13	231.56
740.46	231.45
740.79	231.33
741.12	231.22
741.45	231.11
741.78	230.96
742.11	230.89
742.44	230.77
742.77	230.69
743.10	230.58
743.43	230.48
743.75	230.28
744.08	230.35
744.41	230.26
744.74	230.16
745.07	230.04
745.40	229.98
745.73	229.94
746.06	229.87
746.39	229.80
746.71	229.71
747.04	229.63
747.37	229.56
747.70	229.50
748.03	229.43
748.36	229.37
748.68	229.30
749.01	229.19
749.34	229.12
749.67	229.05
750.00	229.00
750.33	229.01
750.65	228.95
750.98	228.73
751.31	228.67
751.64	228.61
751.97	228.61
752.29	228.53
752.62	228.42
752.95	228.34
753.28	228.26
753.60	228.19
753.93	228.14
754.26	228.08
754.59	227.98
754.91	227.91
755.24	227.84
755.57	227.82
755.90	227.75
756.22	227.69
756.55	227.61
756.88	227.53
757.20	227.39
757.53	227.30
757.86	227.24
758.19	227.19
758.51	227.12
758.84	227.01
759.17	226.94
759.49	226.90
759.82	226.90
760.15	226.86
760.47	226.81
760.80	226.73
761.13	226.69
761.45	226.65
761.78	226.61
762.11	226.56
762.43	226.45
762.76	226.41
763.08	226.37
763.41	226.33
763.74	226.28
764.06	226.24
764.39	226.20
764.71	226.16
765.04	226.10
765.37	226.05
765.69	226.00
766.02	225.97
766.34	225.91
766.67	225.82
767.00	225.80
767.32	225.81
767.65	225.84
767.97	225.78
768.30	225.75
768.62	225.70
768.95	225.65
769.27	225.61
769.60	225.58
769.92	225.53
770.25	225.48
770.57	225.43
770.90	225.38
771.22	225.34
771.55	225.31
771.87	225.28
772.20	225.24
772.52	225.30
772.85	225.39
773.17	225.37
773.50	225.33
773.82	225.28
774.15	225.19
774.47	225.10
774.80	225.06
775.12	225.02
775.45	224.99
775.77	224.97
776.09	224.96
776.42	224.93
776.74	224.94
777.07	224.90
777.39	224.88
777.72	224.85
778.04	224.84
778.36	224.81
778.69	224.78
779.01	224.77
779.33	224.65
779.66	224.51
779.98	224.48
780.31	224.46
780.63	224.48
780.95	224.49
781.28	224.46
781.60	224.44
781.92	224.42
782.25	224.40
782.57	224.38
782.89	224.35
783.22	224.32
783.54	224.27
783.86	224.26
784.19	224.23
784.51	224.25
784.83	224.22
785.16	224.19
785.48	224.18
785.80	224.16
786.12	224.14
786.45	224.12
786.77	224.12
787.09	224.09
787.42	224.03
787.74	224.02
788.06	224.01
788.38	223.99
788.71	223.97
789.03	223.94
789.35	223.94
789.67	223.91
789.99	223.90
790.32	223.88
790.64	223.87
790.96	223.96
791.28	223.91
791.61	223.89
791.93	223.89
792.25	223.87
792.57	223.93
792.89	223.91
793.21	223.90
793.54	223.88
793.86	223.85
794.18	223.84
794.50	223.81
794.82	223.79
795.14	223.79
795.47	223.80
795.79	223.80
796.11	223.77
796.43	223.76
796.75	223.75
797.07	223.74
797.39	223.72
797.71	223.62
798.04	223.61
798.36	223.61
798.68	223.60
799.00	223.59
799.32	223.53
799.64	223.54
799.96	223.52
800.28	223.53
800.60	223.52
800.92	223.52
801.24	223.50
801.56	223.50
801.89	223.48
802.21	223.46
802.53	223.44
802.85	223.45
803.17	223.48
803.49	223.45
803.81	223.44
804.13	223.42
804.45	223.39
804.77	223.39
805.09	223.38
805.41	223.37
805.73	223.33
806.05	223.30
806.37	223.27
806.69	223.25
807.01	223.23
807.33	223.22
807.65	223.18
807.97	223.22
808.28	223.19
808.60	223.19
808.92	223.17
809.24	223.22
809.56	223.19
809.88	223.15
810.20	223.15
810.52	223.16
810.84	223.14
811.16	223.12
811.48	223.11
811.80	223.14
812.12	223.12
812.43	223.14
812.75	223.14
813.07	223.13
813.39	223.14
813.71	223.12
814.03	223.10
814.35	223.10
814.67	223.05
814.98	223.04
815.30	223.02
815.62	223.00
815.94	222.92
816.26	222.93
816.58	222.90
816.89	222.90
817.21	222.87
817.53	222.86
817.85	222.86
818.17	222.85
818.48	222.80
818.80	222.82
819.12	222.79
819.44	222.77
819.76	222.76
820.07	222.75
820.39	222.74
820.71	222.75
821.03	222.75
821.34	222.74
821.66	222.75
821.98	222.75
822.30	222.74
822.61	222.80
822.93	222.78
823.25	222.78
823.57	222.76
823.88	222.78
824.20	222.78
824.52	222.79
824.83	222.78
825.15	222.76
825.47	222.75
825.79	222.75
826.10	222.74
826.42	222.74
826.74	222.74
827.05	222.75
827.37	222.75
827.69	222.73
828.00	222.73
828.32	222.72
828.64	222.71
828.95	222.76
829.27	222.73
829.58	222.73
829.90	222.75
830.22	222.75
830.53	222.73
830.85	222.71
831.17	222.68
831.48	222.68
831.80	222.69
832.11	222.68
832.43	222.67
832.75	222.67
833.06	222.72
833.38	222.69
833.69	222.68
834.01	222.68
834.32	222.68
834.64	222.67
834.96	222.67
835.27	222.67
835.59	222.63
835.90	222.61
836.22	222.60
836.53	222.58
836.85	222.57
837.16	222.67
837.48	222.67
837.79	222.70
838.11	222.70
838.42	222.70
838.74	222.71
839.05	222.70
839.37	222.69
839.68	222.62
840.00	222.61
840.31	222.63
840.63	222.61
840.94	222.60
841.26	222.58
841.57	222.58
841.88	222.58
842.20	222.56
842.51	222.54
842.83	222.54
843.14	222.63
843.46	222.62
843.77	222.55
844.08	222.55
844.40	222.51
844.71	222.50
845.03	222.48
845.34	222.47
845.65	222.47
845.97	222.47
846.28	222.47
846.60	222.47
846.91	222.45
847.22	222.45
847.54	222.48
847.85	222.49
848.16	222.48
848.48	222.46
848.79	222.50
849.10	222.51
849.42	222.52
849.73	222.41
850.04	222.41
850.36	222.38
850.67	222.40
850.98	222.40
851.30	222.41
851.61	222.41
851.92	222.41
852.23	222.44
852.55	222.44
852.86	222.45
853.17	222.46
853.49	222.48
853.80	222.50
854.11	222.50
854.42	222.51
854.74	222.50
855.05	222.51
855.36	222.46
855.67	222.45
855.99	222.45
856.30	222.57
856.61	222.57
856.92	222.58
857.23	222.58
857.55	222.57
857.86	222.56
858.17	222.57
858.48	222.55
858.79	222.53
859.11	222.54
859.42	222.54
859.73	222.53
860.04	222.52
860.35	222.49
860.66	222.46
860.98	222.45
861.29	222.46
861.60	222.46
861.91	222.48
862.22	222.47
862.53	222.45
862.84	222.33
863.16	222.35
863.47	222.32
863.78	222.31
864.09	222.32
864.40	222.33
864.71	222.33
865.02	222.34
865.33	222.33
865.64	222.31
865.95	222.31
866.27	222.37
866.58	222.36
866.89	222.37
867.20	222.37
867.51	222.35
867.82	222.34
868.13	222.38
868.44	222.35
868.75	222.38
869.06	222.38
869.37	222.39
869.68	222.36
869.99	222.39
870.30	222.39
870.61	222.39
870.92	222.37
871.23	222.36
871.54	222.38
871.85	222.40
872.16	222.41
872.47	222.40
872.78	222.34
873.09	222.35
873.40	222.34
873.71	222.35
874.02	222.35
874.33	222.34
874.64	222.31
874.95	222.33
875.26	222.30
875.56	222.30
875.87	222.29
876.18	222.29
876.49	222.38
876.80	222.37
877.11	222.36
877.42	222.37
877.73	222.37
878.04	222.35
878.35	222.34
878.66	222.34
878.96	222.34
879.27	222.33
879.58	222.31
879.89	222.31
880.20	222.33
880.51	222.33
880.82	222.34
881.12	222.34
881.43	222.31
881.74	222.30
882.05	222.30
882.36	222.30
882.67	222.31
882.97	222.19
883.28	222.18
883.59	222.17
883.90	222.17
884.21	222.18
884.51	222.18
884.82	222.16
885.13	222.16
885.44	222.16
885.74	222.16
886.05	222.15
886.36	222.15
886.67	222.11
886.98	222.16
887.28	222.17
887.59	222.16
887.90	222.16
888.20	222.17
888.51	222.18
888.82	222.17
889.13	222.18
889.43	222.27
889.74	222.26
890.05	222.27
890.35	222.26
890.66	222.24
890.97	222.23
891.28	222.22
891.58	222.22
891.89	222.22
892.20	222.21
892.50	222.20
892.81	222.19
893.12	222.19
893.42	222.13
893.73	222.14
894.04	222.14
894.34	222.15
894.65	222.15
894.95	222.13
895.26	222.14
895.57	222.18
895.87	222.08
896.18	222.10
896.48	222.10
896.79	222.10
897.10	222.12
897.40	222.12
897.71	222.14
898.01	222.14
898.32	222.14
898.63	222.14
898.93	222.15
899.24	222.17
899.54	222.17
899.85	222.17
900.15	222.16
900.46	222.16
900.76	222.17
901.07	222.17
901.38	222.16
901.68	222.18
901.99	222.12
902.29	222.12
902.60	222.12
902.90	222.10
903.21	222.10
903.51	222.09
903.82	222.11
904.12	222.12
904.43	222.12
904.73	222.12
905.03	222.13
905.34	222.22
905.64	222.21
905.95	222.21
906.25	222.21
906.56	222.21
906.86	222.21
907.17	222.20
907.47	222.21
907.77	222.20
908.08	222.17
908.38	222.18
908.69	222.19
908.99	222.21
909.30	222.22
909.60	222.23
909.90	222.23
910.21	222.20
910.51	222.17
910.81	222.17
911.12	222.17
911.42	222.18
911.73	222.07
912.03	222.08
912.33	222.09
912.64	222.09
912.94	222.08
913.24	222.06
913.55	222.05
913.85	222.05
914.15	222.07
914.46	222.09
914.76	222.07
915.06	222.07
915.37	222.05
915.67	222.03
915.97	222.03
916.27	222.01
916.58	222.01
916.88	222.01
917.18	222.00
917.49	222.07
917.79	222.07
918.09	222.08
918.39	222.10
918.70	222.10
919.00	222.10
919.30	222.15
919.60	222.14
919.91	222.13
920.21	222.13
920.51	222.11
920.81	222.09
921.12	222.11
921.42	222.10
921.72	222.11
922.02	222.12
922.32	222.13
922.63	222.14
922.93	222.20
923.23	222.20
923.53	222.18
923.83	222.11
924.13	222.12
924.44	222.11
924.74	222.13
925.04	222.15
925.34	222.14
925.64	222.10
925.94	222.10
926.24	222.17
926.55	222.16
926.85	222.17
927.15	222.17
927.45	222.17
927.75	222.17
928.05	222.17
928.35	222.17
928.65	222.18
928.95	222.18
929.26	222.13
929.56	222.16
929.86	222.17
930.16	222.17
930.46	222.15
930.76	222.16
931.06	222.11
931.36	222.08
931.66	222.10
931.96	222.10
932.26	222.10
932.56	222.05
932.86	222.06
933.16	222.07
933.46	222.05
933.76	222.03
934.06	222.06
934.36	222.09
934.66	222.09
934.96	222.07
935.26	222.07
935.56	222.10
935.86	222.07
936.16	222.05
936.46	222.04
936.76	222.04
937.06	222.02
937.36	222.03
937.66	222.04
937.96	222.03
938.26	222.02
938.56	222.02
938.86	222.02
939.16	222.05
939.46	222.05
939.76	222.07
940.06	222.07
940.35	222.05
940.65	222.00
940.95	222.01
941.25	221.99
941.55	221.97
941.85	221.96
942.15	221.98
942.45	222.01
942.75	222.01
943.04	222.02
943.34	222.04
943.64	222.03
943.94	222.01
944.24	222.02
944.54	222.02
944.84	222.02
945.13	222.01
945.43	221.99
945.73	221.98
946.03	221.96
946.33	221.95
946.62	221.93
946.92	221.93
947.22	221.94
947.52	221.94
947.82	221.95
948.11	221.94
948.41	221.92
948.71	221.89
949.01	221.89
949.31	221.88
949.60	221.87
949.90	221.89
950.20	221.88
950.50	221.88
950.79	221.87
951.09	221.89
951.39	221.88
951.69	221.87
951.98	221.90
952.28	221.91
952.58	221.91
952.87	221.91
953.17	221.92
953.47	221.91
953.76	221.91
954.06	221.89
954.36	221.88
954.66	221.87
954.95	221.90
955.25	221.91
955.55	221.93
955.84	221.92
956.14	221.92
956.44	221.93
956.73	221.91
957.03	221.92
957.32	221.92
957.62	221.92
957.92	221.94
958.21	221.92
958.51	222.05
958.81	222.07
959.10	222.07
959.40	222.09
959.69	222.09
959.99	222.11
960.29	222.11
960.58	222.11
960.88	222.15
961.17	222.13
961.47	222.14
961.76	222.13
962.06	222.14
962.36	222.13
962.65	222.13
962.95	222.13
963.24	222.12
963.54	222.12
963.83	222.12
964.13	222.12
964.42	222.11
964.72	222.02
965.01	222.02
965.31	222.02
965.60	221.99
965.90	222.05
966.19	222.02
966.49	222.03
966.78	222.03
967.08	222.02
967.37	222.02
967.67	221.99
967.96	222.01
968.26	222.01
968.55	222.03
968.85	222.02
969.14	222.02
969.43	222.02
969.73	222.01
970.02	221.99
970.32	221.98
970.61	221.96
970.91	221.93
971.20	221.91
971.49	221.91
971.79	221.93
972.08	221.84
972.38	221.86
972.67	221.85
972.96	221.86
973.26	221.84
973.55	221.87
973.85	221.87
974.14	221.85
974.43	221.86
974.73	221.84
975.02	221.83
975.31	221.83
975.61	221.83
975.90	221.81
976.19	221.81
976.49	221.82
976.78	221.83
977.07	221.83
977.37	221.84
977.66	221.84
977.95	221.83
978.24	221.85
978.54	221.86
978.83	221.86
979.12	221.86
979.42	221.87
979.71	221.85
980.00	221.85
980.29	221.86
980.59	221.83
980.88	221.86
981.17	221.86
981.46	221.86
981.76	221.86
982.05	221.90
982.34	221.90
982.63	221.90
982.93	221.90
983.22	221.92
983.51	221.92
983.80	221.94
984.09	221.94
984.39	221.94
984.68	221.92
984.97	221.92
985.26	221.91
985.55	221.90
985.85	221.88
986.14	221.90
986.43	221.90
986.72	221.90
987.01	221.87
987.30	221.87
987.59	221.87
987.89	221.87
988.18	221.84
988.47	221.83
988.76	221.82
989.05	221.82
989.34	221.80
989.63	221.84
989.92	221.82
990.22	221.81
990.51	221.81
990.80	221.80
991.09	221.81
991.38	221.83
991.67	221.82
991.96	221.82
992.25	221.82
992.54	221.80
992.83	221.80
993.12	221.80
993.41	221.81
993.70	221.85
993.99	221.87
994.28	221.88
994.58	221.89
994.87	221.88
995.16	221.88
995.45	221.87
995.74	221.83
996.03	221.84
996.32	221.86
996.61	221.88
996.90	221.88
997.19	221.87
997.48	221.87
997.77	221.86
998.06	221.86
998.34	221.85
998.63	221.85
998.92	221.86
999.21	221.87
999.50	221.86
999.79	221.82
1000.08	221.82
1000.37	221.82
1000.66	221.81
1000.95	221.84
1001.24	221.85
1001.53	221.86
1001.82	221.86
1002.11	221.83
1002.40	221.85
1002.68	221.86
1002.97	221.93
1003.26	221.93
1003.55	221.91
1003.84	221.92
1004.13	221.96
1004.42	221.96
1004.71	221.96
1004.99	221.95
1005.28	221.98
1005.57	221.97
1005.86	221.96
1006.15	221.96
1006.44	221.95
1006.72	221.97
1007.01	221.94
1007.30	221.94
1007.59	221.93
1007.88	221.93
1008.17	221.95
1008.45	221.92
1008.74	221.89
1009.03	221.84
1009.32	221.84
1009.60	221.85
1009.89	221.84
1010.18	221.80
1010.47	221.79
1010.76	221.79
1011.04	221.79
1011.33	221.78
1011.62	221.79
1011.91	221.80
1012.19	221.80
1012.48	221.80
1012.77	221.80
1013.05	221.84
1013.34	221.84
1013.63	221.83
1013.92	221.84
1014.20	221.83
1014.49	221.83
1014.78	221.84
1015.06	221.81
1015.35	221.81
1015.64	221.82
1015.92	221.83
1016.21	221.84
1016.50	221.85
1016.78	221.87
1017.07	221.88
1017.36	221.86
1017.64	221.85
1017.93	221.85
1018.22	221.84
1018.50	221.84
1018.79	221.84
1019.08	221.80
1019.36	221.80
1019.65	221.80
1019.93	221.82
1020.22	221.83
1020.51	221.88
1020.79	221.86
1021.08	221.56
1021.36	221.76
1021.65	221.81
1021.94	221.71
1022.22	221.89
1022.51	221.63
1022.79	222.25
1023.08	221.96
1023.36	222.99
1023.65	221.45
>>>>>End Processed Spectral Data<<<<<
