SpectraSuite Data File
++++++++++++++++++++++++++++++++++++
Date: Wed Sep 30 16:50:38 EDT 2015
User: lab3
Dark Spectrum Present: No
Reference Spectrum Present: No
Number of Sampled Component Spectra: 1
Spectrometers: USB2E7196
Integration Time (usec): 36000 (USB2E7196)
Spectra Averaged: 3000 (USB2E7196)
Boxcar Smoothing: 10 (USB2E7196)
Correct for Electrical Dark: No (USB2E7196)
Strobe/Lamp Enabled: No (USB2E7196)
Correct for Detector Non-linearity: No (USB2E7196)
Correct for Stray Light: No (USB2E7196)
Number of Pixels in Processed Spectrum: 2048
>>>>>Begin Processed Spectral Data<<<<<
339.09	0.00
339.48	210.64
339.86	212.01
340.24	213.56
340.63	214.92
341.01	217.79
341.39	217.66
341.78	218.96
342.16	220.14
342.54	220.60
342.93	209.20
343.31	219.77
343.69	220.31
344.07	220.77
344.46	221.20
344.84	221.58
345.22	221.82
345.60	222.07
345.99	222.26
346.37	222.39
346.75	222.50
347.13	222.58
347.52	222.65
347.90	222.72
348.28	222.76
348.66	222.81
349.05	222.82
349.43	222.87
349.81	222.92
350.19	222.98
350.57	223.04
350.96	223.13
351.34	223.22
351.72	223.31
352.10	223.42
352.48	223.49
352.87	223.55
353.25	223.62
353.63	223.68
354.01	223.75
354.39	223.82
354.77	223.90
355.15	224.01
355.54	224.06
355.92	224.10
356.30	224.17
356.68	224.31
357.06	224.39
357.44	224.43
357.82	224.49
358.20	224.61
358.58	224.67
358.97	224.73
359.35	224.82
359.73	224.91
360.11	224.95
360.49	225.02
360.87	225.07
361.25	225.13
361.63	225.21
362.01	225.26
362.39	225.29
362.77	225.34
363.15	225.37
363.53	225.40
363.91	225.44
364.29	225.47
364.67	225.39
365.05	225.41
365.43	225.44
365.81	225.47
366.19	225.49
366.57	225.54
366.95	225.53
367.33	225.51
367.71	225.50
368.09	225.52
368.47	225.51
368.85	225.50
369.23	225.50
369.61	225.44
369.99	225.46
370.37	225.46
370.75	225.52
371.13	225.48
371.51	225.44
371.89	225.41
372.27	225.39
372.65	225.37
373.03	225.33
373.41	225.29
373.78	225.24
374.16	225.14
374.54	225.07
374.92	225.02
375.30	224.98
375.68	224.91
376.06	224.87
376.44	224.81
376.82	224.77
377.19	224.71
377.57	224.66
377.95	224.58
378.33	224.51
378.71	224.36
379.09	224.31
379.47	224.28
379.84	224.22
380.22	224.16
380.60	224.09
380.98	224.03
381.36	223.98
381.73	223.91
382.11	223.88
382.49	223.83
382.87	223.77
383.25	223.72
383.62	223.79
384.00	223.72
384.38	223.68
384.76	223.66
385.13	223.65
385.51	223.61
385.89	223.55
386.27	223.52
386.64	223.50
387.02	223.46
387.40	223.41
387.78	223.38
388.15	223.35
388.53	223.33
388.91	223.29
389.29	223.27
389.66	223.25
390.04	223.22
390.42	223.22
390.79	223.20
391.17	223.18
391.55	223.06
391.92	223.05
392.30	223.04
392.68	223.00
393.05	222.98
393.43	222.98
393.81	222.98
394.18	222.97
394.56	222.96
394.94	222.98
395.31	222.97
395.69	223.01
396.06	223.03
396.44	223.05
396.82	223.05
397.19	223.11
397.57	223.12
397.95	223.16
398.32	223.15
398.70	223.19
399.07	223.25
399.45	223.28
399.82	223.32
400.20	223.35
400.58	223.41
400.95	223.41
401.33	223.49
401.70	223.62
402.08	223.70
402.45	223.78
402.83	223.88
403.20	223.98
403.58	224.07
403.95	224.18
404.33	224.32
404.71	224.44
405.08	224.63
405.46	224.77
405.83	224.93
406.21	225.10
406.58	225.30
406.96	225.48
407.33	225.69
407.70	225.92
408.08	226.25
408.45	226.53
408.83	226.84
409.20	227.12
409.58	227.36
409.95	227.70
410.33	228.07
410.70	228.42
411.08	228.83
411.45	229.27
411.82	229.70
412.20	230.20
412.57	230.79
412.95	231.25
413.32	231.85
413.69	232.47
414.07	233.13
414.44	233.84
414.82	234.57
415.19	235.43
415.56	236.30
415.94	237.20
416.31	238.21
416.68	239.22
417.06	240.40
417.43	241.50
417.81	242.77
418.18	244.07
418.55	245.48
418.93	246.95
419.30	248.47
419.67	250.10
420.04	251.79
420.42	253.54
420.79	255.56
421.16	257.61
421.54	259.70
421.91	261.87
422.28	264.12
422.66	266.56
423.03	268.88
423.40	271.31
423.77	273.92
424.15	276.59
424.52	279.38
424.89	282.39
425.26	285.39
425.64	288.17
426.01	291.29
426.38	294.50
426.75	297.80
427.13	301.18
427.50	304.72
427.87	308.38
428.24	312.09
428.61	315.64
428.99	319.46
429.36	323.66
429.73	327.68
430.10	331.68
430.47	335.77
430.85	339.96
431.22	344.44
431.59	349.04
431.96	353.52
432.33	358.48
432.70	363.19
433.08	368.75
433.45	374.00
433.82	379.16
434.19	384.91
434.56	390.57
434.93	396.02
435.30	401.40
435.68	407.47
436.05	413.40
436.42	419.34
436.79	424.75
437.16	430.58
437.53	436.83
437.90	443.05
438.27	449.14
438.64	455.76
439.01	461.74
439.38	467.20
439.75	472.45
440.13	478.46
440.50	484.17
440.87	488.67
441.24	493.63
441.61	499.10
441.98	503.11
442.35	507.87
442.72	512.77
443.09	517.45
443.46	520.48
443.83	522.72
444.20	524.62
444.57	527.38
444.94	529.03
445.31	530.76
445.68	532.31
446.05	533.48
446.42	533.36
446.79	533.17
447.16	533.00
447.53	532.91
447.90	531.19
448.27	529.61
448.64	527.05
449.01	525.40
449.37	521.70
449.74	518.34
450.11	514.00
450.48	509.21
450.85	504.39
451.22	500.30
451.59	496.30
451.96	492.66
452.33	487.31
452.70	482.56
453.07	476.72
453.43	470.88
453.80	465.22
454.17	459.79
454.54	454.74
454.91	449.03
455.28	443.66
455.65	438.60
456.02	433.19
456.38	428.85
456.75	423.19
457.12	418.65
457.49	414.07
457.86	409.70
458.23	405.88
458.59	401.64
458.96	397.28
459.33	393.44
459.70	389.53
460.07	386.54
460.43	383.02
460.80	379.72
461.17	376.82
461.54	373.69
461.91	370.75
462.27	367.77
462.64	365.33
463.01	362.53
463.38	359.69
463.74	357.12
464.11	354.83
464.48	352.78
464.85	350.57
465.21	348.89
465.58	347.02
465.95	344.86
466.32	343.13
466.68	341.44
467.05	339.75
467.42	338.11
467.78	336.34
468.15	334.70
468.52	333.49
468.88	331.88
469.25	330.42
469.62	329.26
469.98	327.99
470.35	326.86
470.72	325.84
471.08	324.81
471.45	323.96
471.82	323.02
472.18	322.03
472.55	321.39
472.92	320.60
473.28	319.99
473.65	319.35
474.02	318.75
474.38	318.25
474.75	317.97
475.11	317.55
475.48	317.38
475.85	317.22
476.21	317.16
476.58	317.16
476.94	317.33
477.31	317.44
477.67	317.57
478.04	317.82
478.41	318.14
478.77	318.59
479.14	318.91
479.50	319.45
479.87	320.11
480.23	320.79
480.60	321.43
480.96	322.10
481.33	323.03
481.69	323.96
482.06	324.89
482.42	325.76
482.79	326.81
483.15	328.02
483.52	329.37
483.88	330.68
484.25	332.09
484.61	333.54
484.98	335.11
485.34	336.88
485.71	338.69
486.07	340.64
486.44	342.57
486.80	344.72
487.17	346.92
487.53	349.34
487.90	351.86
488.26	354.59
488.62	357.47
488.99	360.35
489.35	363.35
489.72	366.60
490.08	370.03
490.44	373.52
490.81	377.18
491.17	380.95
491.54	384.96
491.90	389.08
492.26	393.50
492.63	398.16
492.99	403.02
493.36	408.01
493.72	413.24
494.08	418.62
494.45	424.31
494.81	430.19
495.17	436.19
495.54	442.53
495.90	449.18
496.26	455.97
496.63	463.00
496.99	470.32
497.35	477.99
497.72	485.95
498.08	494.09
498.44	502.47
498.80	511.37
499.17	520.50
499.53	529.95
499.89	539.62
500.26	549.48
500.62	559.60
500.98	570.40
501.34	581.32
501.71	592.77
502.07	604.42
502.43	616.50
502.79	628.92
503.16	641.72
503.52	654.71
503.88	668.01
504.24	681.76
504.60	695.79
504.97	710.18
505.33	724.97
505.69	740.64
506.05	756.53
506.41	772.45
506.78	788.66
507.14	805.37
507.50	822.66
507.86	840.30
508.22	858.19
508.59	876.12
508.95	894.79
509.31	913.89
509.67	933.68
510.03	953.66
510.39	973.86
510.75	994.27
511.12	1014.94
511.48	1035.98
511.84	1057.16
512.20	1078.63
512.56	1101.24
512.92	1124.00
513.28	1146.49
513.64	1169.28
514.00	1192.51
514.37	1216.06
514.73	1239.60
515.09	1262.99
515.45	1286.79
515.81	1311.17
516.17	1335.58
516.53	1359.69
516.89	1383.91
517.25	1408.26
517.61	1432.87
517.97	1457.67
518.33	1482.29
518.69	1507.14
519.05	1532.23
519.41	1557.39
519.77	1582.88
520.13	1607.58
520.49	1632.49
520.85	1657.57
521.21	1682.53
521.57	1708.09
521.93	1732.93
522.29	1758.61
522.65	1784.08
523.01	1809.35
523.37	1833.80
523.73	1858.97
524.09	1884.38
524.45	1909.63
524.81	1934.46
525.17	1959.08
525.53	1983.37
525.89	2007.59
526.25	2031.98
526.61	2055.81
526.97	2079.99
527.33	2104.06
527.68	2127.98
528.04	2151.14
528.40	2174.15
528.76	2197.38
529.12	2219.55
529.48	2242.23
529.84	2263.05
530.20	2284.31
530.56	2305.32
530.91	2326.55
531.27	2347.18
531.63	2367.16
531.99	2386.61
532.35	2405.89
532.71	2425.37
533.07	2445.34
533.42	2463.82
533.78	2482.67
534.14	2501.50
534.50	2519.46
534.86	2538.02
535.21	2554.81
535.57	2571.46
535.93	2587.38
536.29	2602.03
536.65	2617.50
537.00	2631.87
537.36	2646.93
537.72	2660.96
538.08	2674.69
538.44	2687.27
538.79	2700.07
539.15	2711.08
539.51	2721.97
539.87	2732.29
540.22	2740.50
540.58	2748.90
540.94	2757.86
541.29	2765.31
541.65	2771.85
542.01	2777.91
542.37	2782.09
542.72	2788.13
543.08	2793.62
543.44	2798.99
543.79	2803.81
544.15	2807.71
544.51	2811.44
544.87	2814.22
545.22	2816.66
545.58	2818.02
545.94	2819.88
546.29	2820.28
546.65	2820.83
547.01	2821.48
547.36	2822.32
547.72	2823.47
548.07	2823.05
548.43	2822.01
548.79	2820.33
549.14	2818.58
549.50	2817.44
549.86	2815.36
550.21	2811.01
550.57	2807.20
550.92	2801.92
551.28	2797.17
551.64	2792.26
551.99	2787.72
552.35	2782.83
552.70	2777.44
553.06	2772.70
553.41	2767.43
553.77	2761.58
554.13	2756.48
554.48	2750.43
554.84	2742.87
555.19	2735.29
555.55	2727.05
555.90	2719.39
556.26	2712.77
556.61	2705.62
556.97	2696.25
557.32	2688.05
557.68	2679.97
558.03	2671.24
558.39	2663.32
558.74	2655.45
559.10	2646.52
559.45	2637.23
559.81	2628.02
560.16	2618.30
560.52	2608.17
560.87	2599.10
561.23	2589.64
561.58	2579.74
561.94	2569.70
562.29	2559.00
562.64	2548.85
563.00	2539.15
563.35	2529.32
563.71	2518.41
564.06	2507.11
564.42	2496.81
564.77	2486.04
565.12	2475.37
565.48	2464.36
565.83	2453.99
566.19	2443.76
566.54	2432.99
566.89	2421.42
567.25	2410.04
567.60	2399.40
567.96	2388.33
568.31	2375.89
568.66	2363.45
569.02	2351.97
569.37	2340.30
569.72	2329.21
570.08	2317.32
570.43	2304.85
570.78	2292.04
571.14	2279.26
571.49	2267.12
571.84	2255.17
572.20	2241.84
572.55	2229.15
572.90	2216.33
573.26	2202.67
573.61	2188.41
573.96	2174.37
574.31	2160.65
574.67	2147.07
575.02	2133.00
575.37	2118.58
575.72	2104.49
576.08	2090.81
576.43	2076.09
576.78	2061.37
577.13	2047.44
577.49	2033.71
577.84	2020.40
578.19	2006.28
578.54	1991.69
578.90	1976.57
579.25	1961.27
579.60	1947.47
579.95	1933.20
580.30	1919.00
580.66	1904.99
581.01	1890.48
581.36	1876.49
581.71	1863.11
582.06	1849.20
582.42	1835.47
582.77	1822.41
583.12	1808.86
583.47	1795.46
583.82	1782.19
584.17	1768.78
584.53	1755.26
584.88	1741.71
585.23	1727.82
585.58	1714.48
585.93	1701.43
586.28	1689.25
586.63	1676.84
586.98	1663.64
587.34	1650.68
587.69	1637.29
588.04	1624.13
588.39	1611.65
588.74	1598.59
589.09	1585.30
589.44	1572.03
589.79	1559.27
590.14	1546.40
590.49	1533.75
590.84	1520.99
591.19	1508.81
591.54	1496.15
591.89	1483.32
592.25	1470.83
592.60	1457.95
592.95	1445.57
593.30	1433.61
593.65	1421.43
594.00	1409.51
594.35	1398.35
594.70	1386.26
595.05	1375.14
595.40	1363.93
595.75	1352.15
596.10	1341.22
596.45	1330.51
596.80	1320.20
597.15	1309.66
597.50	1299.09
597.85	1288.70
598.19	1278.53
598.54	1267.87
598.89	1257.92
599.24	1248.24
599.59	1238.31
599.94	1229.42
600.29	1220.38
600.64	1211.13
600.99	1201.27
601.34	1191.84
601.69	1181.86
602.04	1173.09
602.39	1164.19
602.74	1155.53
603.08	1147.08
603.43	1138.12
603.78	1129.00
604.13	1120.01
604.48	1110.98
604.83	1102.26
605.18	1093.45
605.53	1084.55
605.87	1075.69
606.22	1067.12
606.57	1058.29
606.92	1049.47
607.27	1040.52
607.62	1031.75
607.96	1023.13
608.31	1015.60
608.66	1007.66
609.01	1000.09
609.36	992.39
609.70	984.45
610.05	976.39
610.40	968.69
610.75	961.09
611.10	953.70
611.44	945.99
611.79	938.57
612.14	930.77
612.49	923.11
612.83	915.92
613.18	908.85
613.53	901.60
613.88	894.46
614.22	887.96
614.57	881.23
614.92	874.47
615.27	867.74
615.61	860.81
615.96	854.14
616.31	847.38
616.65	840.54
617.00	833.93
617.35	827.42
617.70	820.97
618.04	814.63
618.39	808.30
618.74	802.31
619.08	796.13
619.43	790.20
619.78	784.28
620.12	778.19
620.47	772.28
620.82	766.41
621.16	760.84
621.51	754.93
621.85	749.03
622.20	743.16
622.55	737.48
622.89	731.70
623.24	725.94
623.59	720.34
623.93	714.78
624.28	709.41
624.62	703.99
624.97	698.53
625.32	693.19
625.66	687.75
626.01	682.28
626.35	676.96
626.70	671.69
627.04	666.61
627.39	661.58
627.73	656.64
628.08	651.93
628.43	647.05
628.77	642.24
629.12	637.58
629.46	633.13
629.81	628.49
630.15	623.78
630.50	619.23
630.84	614.82
631.19	610.59
631.53	606.37
631.88	602.09
632.22	597.92
632.57	593.94
632.91	589.91
633.26	585.98
633.60	582.13
633.95	578.41
634.29	574.50
634.64	570.57
634.98	566.54
635.32	562.67
635.67	558.99
636.01	555.25
636.36	551.51
636.70	547.94
637.05	544.35
637.39	540.94
637.73	537.37
638.08	533.91
638.42	530.43
638.77	526.81
639.11	523.17
639.45	519.54
639.80	515.94
640.14	512.50
640.49	509.04
640.83	505.47
641.17	501.93
641.52	498.57
641.86	495.21
642.20	492.02
642.55	488.67
642.89	485.40
643.23	482.34
643.58	479.53
643.92	476.55
644.26	473.62
644.61	470.69
644.95	467.78
645.29	464.79
645.64	461.75
645.98	458.88
646.32	456.18
646.66	453.49
647.01	450.76
647.35	448.10
647.69	445.31
648.04	442.66
648.38	440.04
648.72	437.39
649.06	434.82
649.41	432.29
649.75	429.74
650.09	427.22
650.43	424.69
650.78	422.14
651.12	419.60
651.46	417.14
651.80	414.79
652.14	412.51
652.49	410.25
652.83	408.06
653.17	405.84
653.51	403.69
653.85	401.61
654.20	399.47
654.54	397.24
654.88	395.20
655.22	393.22
655.56	391.20
655.90	389.28
656.25	387.37
656.59	385.44
656.93	383.63
657.27	381.86
657.61	380.00
657.95	378.18
658.29	376.37
658.64	374.60
658.98	372.80
659.32	371.03
659.66	369.36
660.00	367.70
660.34	366.08
660.68	364.41
661.02	362.67
661.36	361.05
661.70	359.49
662.05	357.91
662.39	356.32
662.73	354.83
663.07	353.36
663.41	351.90
663.75	350.50
664.09	349.07
664.43	347.58
664.77	346.18
665.11	344.72
665.45	343.35
665.79	341.97
666.13	340.58
666.47	339.19
666.81	337.76
667.15	336.30
667.49	334.94
667.83	333.62
668.17	332.35
668.51	331.11
668.85	329.87
669.19	328.71
669.53	327.49
669.87	326.24
670.21	325.01
670.55	323.79
670.89	322.64
671.23	321.47
671.57	320.31
671.91	319.19
672.25	318.14
672.58	317.09
672.92	316.02
673.26	315.02
673.60	314.02
673.94	313.00
674.28	312.06
674.62	311.11
674.96	310.11
675.30	309.17
675.64	308.21
675.97	307.28
676.31	306.32
676.65	305.36
676.99	304.48
677.33	303.55
677.67	302.67
678.01	301.70
678.34	300.80
678.68	299.96
679.02	299.10
679.36	298.24
679.70	297.38
680.04	296.54
680.37	295.69
680.71	294.87
681.05	294.11
681.39	293.31
681.73	292.47
682.06	291.68
682.40	290.90
682.74	290.13
683.08	289.39
683.42	288.64
683.75	287.96
684.09	287.19
684.43	286.48
684.77	285.75
685.10	285.08
685.44	284.38
685.78	283.68
686.12	283.01
686.45	282.33
686.79	281.65
687.13	281.00
687.46	280.32
687.80	279.67
688.14	278.97
688.48	278.33
688.81	277.69
689.15	277.09
689.49	276.46
689.82	275.83
690.16	275.16
690.50	274.54
690.83	273.92
691.17	273.32
691.51	272.74
691.84	272.17
692.18	271.57
692.52	270.96
692.85	270.37
693.19	269.84
693.52	269.28
693.86	268.73
694.20	268.20
694.53	267.67
694.87	267.13
695.21	266.62
695.54	266.10
695.88	265.57
696.21	265.01
696.55	264.50
696.88	264.00
697.22	263.50
697.56	263.01
697.89	262.47
698.23	261.96
698.56	261.44
698.90	260.96
699.23	260.47
699.57	260.03
699.90	259.56
700.24	259.06
700.58	258.61
700.91	258.18
701.25	257.82
701.58	257.44
701.92	257.05
702.25	256.63
702.59	256.20
702.92	255.80
703.26	255.40
703.59	254.99
703.93	254.66
704.26	254.28
704.60	253.90
704.93	253.55
705.26	253.18
705.60	252.85
705.93	252.47
706.27	252.15
706.60	251.82
706.94	251.50
707.27	251.12
707.61	250.76
707.94	250.40
708.27	249.97
708.61	249.58
708.94	249.21
709.28	248.88
709.61	248.54
709.94	248.24
710.28	247.93
710.61	247.65
710.95	247.27
711.28	247.04
711.61	246.74
711.95	246.47
712.28	246.18
712.61	245.88
712.95	245.67
713.28	245.44
713.61	245.15
713.95	244.85
714.28	244.61
714.61	244.34
714.95	244.09
715.28	243.82
715.61	243.56
715.95	243.33
716.28	243.08
716.61	242.87
716.95	242.62
717.28	242.39
717.61	242.15
717.94	241.93
718.28	241.63
718.61	241.40
718.94	241.15
719.27	240.94
719.61	240.74
719.94	240.50
720.27	240.23
720.60	240.02
720.94	239.82
721.27	239.63
721.60	239.45
721.93	239.26
722.27	239.11
722.60	238.94
722.93	238.74
723.26	238.56
723.59	238.35
723.93	238.18
724.26	238.01
724.59	237.84
724.92	237.66
725.25	237.53
725.59	237.36
725.92	237.23
726.25	237.07
726.58	236.91
726.91	236.73
727.24	236.59
727.57	236.43
727.91	236.26
728.24	236.12
728.57	235.97
728.90	235.82
729.23	235.64
729.56	235.54
729.89	235.41
730.22	235.27
730.55	235.13
730.89	234.98
731.22	234.83
731.55	234.70
731.88	234.57
732.21	234.42
732.54	234.29
732.87	234.16
733.20	234.04
733.53	233.92
733.86	233.82
734.19	233.68
734.52	233.58
734.85	233.53
735.18	233.39
735.51	233.31
735.84	233.20
736.17	233.12
736.50	232.95
736.83	232.97
737.16	232.86
737.49	232.77
737.82	232.66
738.15	232.59
738.48	232.49
738.81	232.37
739.14	232.26
739.47	232.16
739.80	232.06
740.13	231.97
740.46	231.86
740.79	231.74
741.12	231.65
741.45	231.53
741.78	231.38
742.11	231.32
742.44	231.19
742.77	231.11
743.10	231.00
743.43	230.91
743.75	230.71
744.08	230.77
744.41	230.67
744.74	230.58
745.07	230.46
745.40	230.39
745.73	230.35
746.06	230.28
746.39	230.21
746.71	230.12
747.04	230.03
747.37	229.96
747.70	229.91
748.03	229.83
748.36	229.77
748.68	229.69
749.01	229.59
749.34	229.52
749.67	229.44
750.00	229.39
750.33	229.40
750.65	229.33
750.98	229.12
751.31	229.05
751.64	228.99
751.97	228.98
752.29	228.90
752.62	228.79
752.95	228.71
753.28	228.63
753.60	228.56
753.93	228.52
754.26	228.46
754.59	228.35
754.91	228.27
755.24	228.19
755.57	228.18
755.90	228.11
756.22	228.04
756.55	227.96
756.88	227.87
757.20	227.74
757.53	227.66
757.86	227.59
758.19	227.54
758.51	227.49
758.84	227.38
759.17	227.31
759.49	227.27
759.82	227.27
760.15	227.23
760.47	227.17
760.80	227.09
761.13	227.06
761.45	227.02
761.78	226.99
762.11	226.94
762.43	226.85
762.76	226.80
763.08	226.78
763.41	226.74
763.74	226.70
764.06	226.65
764.39	226.61
764.71	226.57
765.04	226.51
765.37	226.47
765.69	226.43
766.02	226.39
766.34	226.34
766.67	226.26
767.00	226.24
767.32	226.26
767.65	226.29
767.97	226.23
768.30	226.19
768.62	226.16
768.95	226.10
769.27	226.07
769.60	226.05
769.92	225.99
770.25	225.94
770.57	225.89
770.90	225.85
771.22	225.82
771.55	225.78
771.87	225.76
772.20	225.72
772.52	225.77
772.85	225.87
773.17	225.84
773.50	225.79
773.82	225.74
774.15	225.66
774.47	225.56
774.80	225.53
775.12	225.50
775.45	225.47
775.77	225.45
776.09	225.43
776.42	225.40
776.74	225.40
777.07	225.38
777.39	225.35
777.72	225.32
778.04	225.31
778.36	225.28
778.69	225.25
779.01	225.24
779.33	225.13
779.66	224.98
779.98	224.96
780.31	224.95
780.63	224.96
780.95	224.97
781.28	224.94
781.60	224.91
781.92	224.89
782.25	224.86
782.57	224.85
782.89	224.82
783.22	224.79
783.54	224.74
783.86	224.73
784.19	224.70
784.51	224.72
784.83	224.68
785.16	224.67
785.48	224.64
785.80	224.62
786.12	224.61
786.45	224.59
786.77	224.58
787.09	224.54
787.42	224.49
787.74	224.48
788.06	224.47
788.38	224.45
788.71	224.43
789.03	224.41
789.35	224.41
789.67	224.38
789.99	224.37
790.32	224.34
790.64	224.34
790.96	224.42
791.28	224.37
791.61	224.35
791.93	224.34
792.25	224.32
792.57	224.38
792.89	224.34
793.21	224.34
793.54	224.31
793.86	224.30
794.18	224.29
794.50	224.24
794.82	224.23
795.14	224.23
795.47	224.23
795.79	224.22
796.11	224.18
796.43	224.17
796.75	224.15
797.07	224.15
797.39	224.13
797.71	224.03
798.04	224.02
798.36	224.02
798.68	224.00
799.00	224.00
799.32	223.93
799.64	223.94
799.96	223.93
800.28	223.94
800.60	223.92
800.92	223.91
801.24	223.90
801.56	223.90
801.89	223.88
802.21	223.88
802.53	223.85
802.85	223.87
803.17	223.92
803.49	223.89
803.81	223.87
804.13	223.84
804.45	223.82
804.77	223.82
805.09	223.81
805.41	223.79
805.73	223.77
806.05	223.72
806.37	223.70
806.69	223.68
807.01	223.66
807.33	223.66
807.65	223.62
807.97	223.66
808.28	223.64
808.60	223.63
808.92	223.60
809.24	223.65
809.56	223.62
809.88	223.57
810.20	223.57
810.52	223.60
810.84	223.58
811.16	223.56
811.48	223.55
811.80	223.58
812.12	223.57
812.43	223.59
812.75	223.60
813.07	223.58
813.39	223.58
813.71	223.56
814.03	223.53
814.35	223.53
814.67	223.48
814.98	223.47
815.30	223.45
815.62	223.44
815.94	223.36
816.26	223.37
816.58	223.35
816.89	223.35
817.21	223.31
817.53	223.32
817.85	223.32
818.17	223.31
818.48	223.26
818.80	223.28
819.12	223.25
819.44	223.23
819.76	223.21
820.07	223.20
820.39	223.20
820.71	223.21
821.03	223.21
821.34	223.19
821.66	223.20
821.98	223.21
822.30	223.20
822.61	223.26
822.93	223.24
823.25	223.23
823.57	223.22
823.88	223.22
824.20	223.21
824.52	223.22
824.83	223.21
825.15	223.20
825.47	223.19
825.79	223.20
826.10	223.19
826.42	223.18
826.74	223.19
827.05	223.18
827.37	223.18
827.69	223.17
828.00	223.18
828.32	223.17
828.64	223.16
828.95	223.20
829.27	223.17
829.58	223.17
829.90	223.19
830.22	223.19
830.53	223.18
830.85	223.16
831.17	223.13
831.48	223.13
831.80	223.14
832.11	223.13
832.43	223.11
832.75	223.11
833.06	223.17
833.38	223.14
833.69	223.13
834.01	223.13
834.32	223.13
834.64	223.12
834.96	223.12
835.27	223.11
835.59	223.08
835.90	223.06
836.22	223.05
836.53	223.02
836.85	223.01
837.16	223.11
837.48	223.11
837.79	223.14
838.11	223.15
838.42	223.14
838.74	223.15
839.05	223.14
839.37	223.14
839.68	223.08
840.00	223.07
840.31	223.08
840.63	223.07
840.94	223.06
841.26	223.05
841.57	223.04
841.88	223.05
842.20	223.03
842.51	223.02
842.83	223.01
843.14	223.10
843.46	223.10
843.77	223.04
844.08	223.03
844.40	222.99
844.71	222.98
845.03	222.97
845.34	222.95
845.65	222.95
845.97	222.94
846.28	222.95
846.60	222.96
846.91	222.94
847.22	222.93
847.54	222.95
847.85	222.95
848.16	222.94
848.48	222.92
848.79	222.96
849.10	222.97
849.42	222.98
849.73	222.88
850.04	222.87
850.36	222.83
850.67	222.85
850.98	222.85
851.30	222.86
851.61	222.86
851.92	222.85
852.23	222.89
852.55	222.89
852.86	222.89
853.17	222.90
853.49	222.92
853.80	222.94
854.11	222.94
854.42	222.94
854.74	222.92
855.05	222.93
855.36	222.87
855.67	222.87
855.99	222.87
856.30	222.99
856.61	222.99
856.92	222.99
857.23	222.99
857.55	222.98
857.86	222.97
858.17	222.98
858.48	222.97
858.79	222.94
859.11	222.95
859.42	222.94
859.73	222.92
860.04	222.92
860.35	222.89
860.66	222.86
860.98	222.86
861.29	222.88
861.60	222.87
861.91	222.90
862.22	222.88
862.53	222.87
862.84	222.74
863.16	222.75
863.47	222.73
863.78	222.71
864.09	222.73
864.40	222.73
864.71	222.74
865.02	222.75
865.33	222.73
865.64	222.71
865.95	222.71
866.27	222.78
866.58	222.77
866.89	222.78
867.20	222.77
867.51	222.75
867.82	222.75
868.13	222.78
868.44	222.76
868.75	222.77
869.06	222.78
869.37	222.80
869.68	222.77
869.99	222.80
870.30	222.81
870.61	222.82
870.92	222.80
871.23	222.79
871.54	222.80
871.85	222.83
872.16	222.85
872.47	222.84
872.78	222.78
873.09	222.79
873.40	222.78
873.71	222.80
874.02	222.80
874.33	222.80
874.64	222.78
874.95	222.80
875.26	222.77
875.56	222.78
875.87	222.77
876.18	222.77
876.49	222.87
876.80	222.86
877.11	222.83
877.42	222.84
877.73	222.85
878.04	222.82
878.35	222.82
878.66	222.81
878.96	222.81
879.27	222.80
879.58	222.79
879.89	222.78
880.20	222.80
880.51	222.80
880.82	222.79
881.12	222.80
881.43	222.78
881.74	222.77
882.05	222.76
882.36	222.77
882.67	222.77
882.97	222.66
883.28	222.65
883.59	222.65
883.90	222.66
884.21	222.66
884.51	222.66
884.82	222.65
885.13	222.65
885.44	222.65
885.74	222.65
886.05	222.65
886.36	222.65
886.67	222.61
886.98	222.66
887.28	222.67
887.59	222.66
887.90	222.67
888.20	222.67
888.51	222.68
888.82	222.67
889.13	222.67
889.43	222.75
889.74	222.75
890.05	222.74
890.35	222.73
890.66	222.71
890.97	222.70
891.28	222.69
891.58	222.69
891.89	222.69
892.20	222.67
892.50	222.66
892.81	222.66
893.12	222.66
893.42	222.61
893.73	222.60
894.04	222.60
894.34	222.61
894.65	222.60
894.95	222.59
895.26	222.60
895.57	222.64
895.87	222.55
896.18	222.56
896.48	222.56
896.79	222.56
897.10	222.57
897.40	222.57
897.71	222.59
898.01	222.58
898.32	222.59
898.63	222.59
898.93	222.60
899.24	222.61
899.54	222.60
899.85	222.60
900.15	222.59
900.46	222.59
900.76	222.59
901.07	222.60
901.38	222.59
901.68	222.60
901.99	222.55
902.29	222.55
902.60	222.54
902.90	222.54
903.21	222.54
903.51	222.53
903.82	222.56
904.12	222.55
904.43	222.56
904.73	222.54
905.03	222.55
905.34	222.64
905.64	222.62
905.95	222.62
906.25	222.62
906.56	222.62
906.86	222.63
907.17	222.62
907.47	222.62
907.77	222.61
908.08	222.59
908.38	222.60
908.69	222.61
908.99	222.63
909.30	222.63
909.60	222.63
909.90	222.63
910.21	222.61
910.51	222.60
910.81	222.59
911.12	222.60
911.42	222.60
911.73	222.49
912.03	222.51
912.33	222.53
912.64	222.52
912.94	222.51
913.24	222.50
913.55	222.49
913.85	222.48
914.15	222.50
914.46	222.51
914.76	222.50
915.06	222.50
915.37	222.48
915.67	222.47
915.97	222.48
916.27	222.46
916.58	222.45
916.88	222.45
917.18	222.45
917.49	222.52
917.79	222.51
918.09	222.53
918.39	222.55
918.70	222.54
919.00	222.55
919.30	222.59
919.60	222.59
919.91	222.58
920.21	222.58
920.51	222.57
920.81	222.56
921.12	222.58
921.42	222.57
921.72	222.57
922.02	222.58
922.32	222.59
922.63	222.60
922.93	222.65
923.23	222.66
923.53	222.65
923.83	222.58
924.13	222.58
924.44	222.58
924.74	222.60
925.04	222.62
925.34	222.61
925.64	222.58
925.94	222.57
926.24	222.63
926.55	222.62
926.85	222.63
927.15	222.62
927.45	222.62
927.75	222.62
928.05	222.62
928.35	222.61
928.65	222.61
928.95	222.62
929.26	222.57
929.56	222.59
929.86	222.61
930.16	222.60
930.46	222.59
930.76	222.60
931.06	222.54
931.36	222.51
931.66	222.53
931.96	222.54
932.26	222.55
932.56	222.51
932.86	222.51
933.16	222.51
933.46	222.50
933.76	222.48
934.06	222.49
934.36	222.53
934.66	222.52
934.96	222.51
935.26	222.52
935.56	222.53
935.86	222.50
936.16	222.49
936.46	222.49
936.76	222.48
937.06	222.46
937.36	222.47
937.66	222.48
937.96	222.47
938.26	222.44
938.56	222.44
938.86	222.44
939.16	222.46
939.46	222.47
939.76	222.48
940.06	222.49
940.35	222.47
940.65	222.42
940.95	222.43
941.25	222.41
941.55	222.39
941.85	222.38
942.15	222.40
942.45	222.42
942.75	222.42
943.04	222.43
943.34	222.45
943.64	222.44
943.94	222.42
944.24	222.42
944.54	222.43
944.84	222.43
945.13	222.41
945.43	222.40
945.73	222.40
946.03	222.39
946.33	222.38
946.62	222.36
946.92	222.37
947.22	222.37
947.52	222.38
947.82	222.40
948.11	222.39
948.41	222.36
948.71	222.34
949.01	222.34
949.31	222.33
949.60	222.32
949.90	222.34
950.20	222.33
950.50	222.33
950.79	222.32
951.09	222.33
951.39	222.33
951.69	222.32
951.98	222.34
952.28	222.35
952.58	222.35
952.87	222.35
953.17	222.36
953.47	222.35
953.76	222.35
954.06	222.32
954.36	222.31
954.66	222.30
954.95	222.33
955.25	222.35
955.55	222.36
955.84	222.34
956.14	222.34
956.44	222.35
956.73	222.34
957.03	222.35
957.32	222.35
957.62	222.34
957.92	222.35
958.21	222.34
958.51	222.46
958.81	222.47
959.10	222.47
959.40	222.50
959.69	222.50
959.99	222.52
960.29	222.52
960.58	222.52
960.88	222.56
961.17	222.54
961.47	222.54
961.76	222.54
962.06	222.56
962.36	222.54
962.65	222.55
962.95	222.56
963.24	222.54
963.54	222.54
963.83	222.55
964.13	222.55
964.42	222.53
964.72	222.44
965.01	222.44
965.31	222.43
965.60	222.40
965.90	222.47
966.19	222.45
966.49	222.45
966.78	222.44
967.08	222.44
967.37	222.44
967.67	222.41
967.96	222.43
968.26	222.42
968.55	222.43
968.85	222.43
969.14	222.43
969.43	222.42
969.73	222.42
970.02	222.41
970.32	222.41
970.61	222.40
970.91	222.37
971.20	222.35
971.49	222.35
971.79	222.36
972.08	222.29
972.38	222.30
972.67	222.29
972.96	222.31
973.26	222.29
973.55	222.32
973.85	222.32
974.14	222.31
974.43	222.32
974.73	222.31
975.02	222.29
975.31	222.30
975.61	222.30
975.90	222.30
976.19	222.29
976.49	222.31
976.78	222.31
977.07	222.31
977.37	222.32
977.66	222.33
977.95	222.32
978.24	222.33
978.54	222.35
978.83	222.35
979.12	222.33
979.42	222.34
979.71	222.32
980.00	222.32
980.29	222.33
980.59	222.31
980.88	222.34
981.17	222.33
981.46	222.32
981.76	222.33
982.05	222.36
982.34	222.36
982.63	222.35
982.93	222.36
983.22	222.38
983.51	222.38
983.80	222.39
984.09	222.41
984.39	222.39
984.68	222.38
984.97	222.38
985.26	222.37
985.55	222.38
985.85	222.35
986.14	222.37
986.43	222.38
986.72	222.38
987.01	222.34
987.30	222.35
987.59	222.35
987.89	222.35
988.18	222.32
988.47	222.31
988.76	222.31
989.05	222.30
989.34	222.28
989.63	222.31
989.92	222.29
990.22	222.28
990.51	222.28
990.80	222.28
991.09	222.29
991.38	222.31
991.67	222.29
991.96	222.29
992.25	222.29
992.54	222.27
992.83	222.27
993.12	222.27
993.41	222.28
993.70	222.31
993.99	222.33
994.28	222.35
994.58	222.36
994.87	222.35
995.16	222.35
995.45	222.33
995.74	222.30
996.03	222.31
996.32	222.32
996.61	222.34
996.90	222.35
997.19	222.34
997.48	222.34
997.77	222.33
998.06	222.33
998.34	222.32
998.63	222.33
998.92	222.33
999.21	222.34
999.50	222.35
999.79	222.31
1000.08	222.31
1000.37	222.31
1000.66	222.29
1000.95	222.32
1001.24	222.33
1001.53	222.35
1001.82	222.35
1002.11	222.32
1002.40	222.33
1002.68	222.36
1002.97	222.43
1003.26	222.42
1003.55	222.40
1003.84	222.41
1004.13	222.44
1004.42	222.44
1004.71	222.43
1004.99	222.42
1005.28	222.44
1005.57	222.43
1005.86	222.42
1006.15	222.42
1006.44	222.40
1006.72	222.42
1007.01	222.40
1007.30	222.40
1007.59	222.38
1007.88	222.38
1008.17	222.39
1008.45	222.37
1008.74	222.32
1009.03	222.27
1009.32	222.27
1009.60	222.27
1009.89	222.26
1010.18	222.23
1010.47	222.23
1010.76	222.23
1011.04	222.23
1011.33	222.22
1011.62	222.23
1011.91	222.24
1012.19	222.24
1012.48	222.24
1012.77	222.24
1013.05	222.28
1013.34	222.28
1013.63	222.27
1013.92	222.28
1014.20	222.27
1014.49	222.27
1014.78	222.29
1015.06	222.26
1015.35	222.25
1015.64	222.26
1015.92	222.28
1016.21	222.28
1016.50	222.27
1016.78	222.28
1017.07	222.29
1017.36	222.28
1017.64	222.27
1017.93	222.28
1018.22	222.26
1018.50	222.26
1018.79	222.25
1019.08	222.21
1019.36	222.21
1019.65	222.20
1019.93	222.23
1020.22	222.25
1020.51	222.30
1020.79	222.27
1021.08	222.02
1021.36	222.10
1021.65	222.17
1021.94	222.21
1022.22	222.30
1022.51	222.00
1022.79	222.77
1023.08	222.35
1023.36	223.51
1023.65	221.84
>>>>>End Processed Spectral Data<<<<<
