SpectraSuite Data File
++++++++++++++++++++++++++++++++++++
Date: Wed Sep 30 18:59:50 EDT 2015
User: lab3
Dark Spectrum Present: No
Reference Spectrum Present: No
Number of Sampled Component Spectra: 1
Spectrometers: USB2E7196
Integration Time (usec): 36000 (USB2E7196)
Spectra Averaged: 5000 (USB2E7196)
Boxcar Smoothing: 10 (USB2E7196)
Correct for Electrical Dark: No (USB2E7196)
Strobe/Lamp Enabled: No (USB2E7196)
Correct for Detector Non-linearity: No (USB2E7196)
Correct for Stray Light: No (USB2E7196)
Number of Pixels in Processed Spectrum: 2048
>>>>>Begin Processed Spectral Data<<<<<
339.09	0.00
339.48	210.28
339.86	211.72
340.24	213.03
340.63	214.50
341.01	217.49
341.39	217.16
341.78	218.58
342.16	219.72
342.54	220.23
342.93	208.81
343.31	219.37
343.69	219.91
344.07	220.37
344.46	220.80
344.84	221.18
345.22	221.42
345.60	221.68
345.99	221.88
346.37	222.01
346.75	222.12
347.13	222.20
347.52	222.28
347.90	222.35
348.28	222.39
348.66	222.44
349.05	222.45
349.43	222.50
349.81	222.56
350.19	222.61
350.57	222.68
350.96	222.77
351.34	222.86
351.72	222.95
352.10	223.05
352.48	223.13
352.87	223.19
353.25	223.26
353.63	223.31
354.01	223.38
354.39	223.46
354.77	223.53
355.15	223.63
355.54	223.69
355.92	223.72
356.30	223.80
356.68	223.94
357.06	224.02
357.44	224.07
357.82	224.13
358.20	224.24
358.58	224.30
358.97	224.37
359.35	224.45
359.73	224.53
360.11	224.58
360.49	224.64
360.87	224.69
361.25	224.75
361.63	224.83
362.01	224.89
362.39	224.92
362.77	224.97
363.15	225.00
363.53	225.03
363.91	225.07
364.29	225.09
364.67	225.01
365.05	225.03
365.43	225.07
365.81	225.09
366.19	225.11
366.57	225.16
366.95	225.16
367.33	225.13
367.71	225.13
368.09	225.14
368.47	225.14
368.85	225.13
369.23	225.13
369.61	225.08
369.99	225.09
370.37	225.09
370.75	225.15
371.13	225.11
371.51	225.07
371.89	225.05
372.27	225.02
372.65	225.00
373.03	224.96
373.41	224.91
373.78	224.87
374.16	224.77
374.54	224.69
374.92	224.64
375.30	224.60
375.68	224.53
376.06	224.49
376.44	224.43
376.82	224.38
377.19	224.33
377.57	224.28
377.95	224.19
378.33	224.13
378.71	223.98
379.09	223.93
379.47	223.90
379.84	223.84
380.22	223.78
380.60	223.71
380.98	223.66
381.36	223.60
381.73	223.54
382.11	223.51
382.49	223.47
382.87	223.41
383.25	223.36
383.62	223.44
384.00	223.37
384.38	223.33
384.76	223.31
385.13	223.30
385.51	223.26
385.89	223.21
386.27	223.17
386.64	223.15
387.02	223.10
387.40	223.06
387.78	223.03
388.15	223.00
388.53	222.96
388.91	222.93
389.29	222.89
389.66	222.88
390.04	222.84
390.42	222.84
390.79	222.83
391.17	222.80
391.55	222.67
391.92	222.65
392.30	222.65
392.68	222.62
393.05	222.59
393.43	222.59
393.81	222.59
394.18	222.58
394.56	222.58
394.94	222.61
395.31	222.60
395.69	222.64
396.06	222.67
396.44	222.69
396.82	222.70
397.19	222.77
397.57	222.78
397.95	222.82
398.32	222.81
398.70	222.85
399.07	222.91
399.45	222.94
399.82	222.98
400.20	223.02
400.58	223.07
400.95	223.08
401.33	223.15
401.70	223.28
402.08	223.37
402.45	223.44
402.83	223.54
403.20	223.64
403.58	223.72
403.95	223.84
404.33	223.96
404.71	224.08
405.08	224.26
405.46	224.40
405.83	224.56
406.21	224.73
406.58	224.92
406.96	225.10
407.33	225.31
407.70	225.54
408.08	225.86
408.45	226.14
408.83	226.44
409.20	226.72
409.58	226.97
409.95	227.32
410.33	227.69
410.70	228.03
411.08	228.43
411.45	228.86
411.82	229.30
412.20	229.80
412.57	230.39
412.95	230.85
413.32	231.45
413.69	232.07
414.07	232.73
414.44	233.44
414.82	234.18
415.19	235.04
415.56	235.91
415.94	236.81
416.31	237.83
416.68	238.84
417.06	240.01
417.43	241.11
417.81	242.39
418.18	243.69
418.55	245.11
418.93	246.58
419.30	248.12
419.67	249.77
420.04	251.45
420.42	253.21
420.79	255.26
421.16	257.32
421.54	259.42
421.91	261.61
422.28	263.89
422.66	266.34
423.03	268.68
423.40	271.15
423.77	273.79
424.15	276.50
424.52	279.31
424.89	282.35
425.26	285.39
425.64	288.20
426.01	291.36
426.38	294.60
426.75	297.94
427.13	301.36
427.50	304.94
427.87	308.66
428.24	312.42
428.61	316.01
428.99	319.89
429.36	324.14
429.73	328.22
430.10	332.28
430.47	336.43
430.85	340.69
431.22	345.24
431.59	349.91
431.96	354.46
432.33	359.50
432.70	364.29
433.08	369.94
433.45	375.28
433.82	380.52
434.19	386.39
434.56	392.15
434.93	397.71
435.30	403.19
435.68	409.36
436.05	415.41
436.42	421.45
436.79	426.97
437.16	432.91
437.53	439.27
437.90	445.62
438.27	451.81
438.64	458.53
439.01	464.61
439.38	470.15
439.75	475.50
440.13	481.60
440.50	487.40
440.87	491.96
441.24	496.98
441.61	502.52
441.98	506.57
442.35	511.38
442.72	516.31
443.09	521.03
443.46	524.07
443.83	526.29
444.20	528.16
444.57	530.91
444.94	532.51
445.31	534.17
445.68	535.65
446.05	536.75
446.42	536.54
446.79	536.23
447.16	535.96
447.53	535.75
447.90	533.91
448.27	532.17
448.64	529.46
449.01	527.67
449.37	523.79
449.74	520.26
450.11	515.73
450.48	510.77
450.85	505.76
451.22	501.51
451.59	497.36
451.96	493.57
452.33	488.06
452.70	483.15
453.07	477.17
453.43	471.18
453.80	465.40
454.17	459.84
454.54	454.69
454.91	448.88
455.28	443.39
455.65	438.23
456.02	432.74
456.38	428.32
456.75	422.61
457.12	418.01
457.49	413.37
457.86	408.96
458.23	405.08
458.59	400.81
458.96	396.41
459.33	392.54
459.70	388.59
460.07	385.57
460.43	382.03
460.80	378.72
461.17	375.79
461.54	372.65
461.91	369.70
462.27	366.70
462.64	364.25
463.01	361.44
463.38	358.62
463.74	356.03
464.11	353.74
464.48	351.66
464.85	349.44
465.21	347.74
465.58	345.87
465.95	343.69
466.32	341.95
466.68	340.26
467.05	338.55
467.42	336.91
467.78	335.14
468.15	333.50
468.52	332.28
468.88	330.67
469.25	329.20
469.62	328.03
469.98	326.77
470.35	325.64
470.72	324.63
471.08	323.59
471.45	322.74
471.82	321.80
472.18	320.83
472.55	320.20
472.92	319.41
473.28	318.80
473.65	318.18
474.02	317.59
474.38	317.10
474.75	316.82
475.11	316.41
475.48	316.25
475.85	316.08
476.21	316.02
476.58	316.02
476.94	316.21
477.31	316.32
477.67	316.45
478.04	316.70
478.41	317.02
478.77	317.47
479.14	317.80
479.50	318.34
479.87	319.01
480.23	319.69
480.60	320.34
480.96	321.02
481.33	321.95
481.69	322.89
482.06	323.81
482.42	324.69
482.79	325.76
483.15	326.98
483.52	328.34
483.88	329.67
484.25	331.07
484.61	332.54
484.98	334.12
485.34	335.88
485.71	337.70
486.07	339.65
486.44	341.59
486.80	343.74
487.17	345.94
487.53	348.38
487.90	350.91
488.26	353.64
488.62	356.52
488.99	359.40
489.35	362.42
489.72	365.69
490.08	369.11
490.44	372.62
490.81	376.31
491.17	380.08
491.54	384.12
491.90	388.25
492.26	392.69
492.63	397.37
492.99	402.26
493.36	407.27
493.72	412.55
494.08	417.97
494.45	423.69
494.81	429.61
495.17	435.64
495.54	442.02
495.90	448.71
496.26	455.54
496.63	462.61
496.99	469.96
497.35	477.68
497.72	485.69
498.08	493.86
498.44	502.28
498.80	511.24
499.17	520.44
499.53	529.95
499.89	539.70
500.26	549.64
500.62	559.84
500.98	570.71
501.34	581.71
501.71	593.25
502.07	605.00
502.43	617.16
502.79	629.67
503.16	642.59
503.52	655.69
503.88	669.13
504.24	683.03
504.60	697.19
504.97	711.73
505.33	726.66
505.69	742.49
506.05	758.54
506.41	774.61
506.78	790.99
507.14	807.87
507.50	825.32
507.86	843.14
508.22	861.21
508.59	879.31
508.95	898.17
509.31	917.44
509.67	937.40
510.03	957.60
510.39	978.02
510.75	998.63
511.12	1019.54
511.48	1040.81
511.84	1062.18
512.20	1083.87
512.56	1106.67
512.92	1129.69
513.28	1152.43
513.64	1175.47
514.00	1198.96
514.37	1222.76
514.73	1246.56
515.09	1270.22
515.45	1294.28
515.81	1318.96
516.17	1343.71
516.53	1368.12
516.89	1392.64
517.25	1417.35
517.61	1442.24
517.97	1467.34
518.33	1492.26
518.69	1517.37
519.05	1542.74
519.41	1568.23
519.77	1593.99
520.13	1619.02
520.49	1644.18
520.85	1669.53
521.21	1694.84
521.57	1720.74
521.93	1745.96
522.29	1772.04
522.65	1797.81
523.01	1823.44
523.37	1848.31
523.73	1873.86
524.09	1899.60
524.45	1925.19
524.81	1950.35
525.17	1975.39
525.53	2000.05
525.89	2024.70
526.25	2049.51
526.61	2073.71
526.97	2098.28
527.33	2122.77
527.68	2147.13
528.04	2170.73
528.40	2194.19
528.76	2217.81
529.12	2240.39
529.48	2263.41
529.84	2284.60
530.20	2306.34
530.56	2327.74
530.91	2349.22
531.27	2370.16
531.63	2390.50
531.99	2410.35
532.35	2429.95
532.71	2449.71
533.07	2470.02
533.42	2488.77
533.78	2507.93
534.14	2527.09
534.50	2545.42
534.86	2564.38
535.21	2581.53
535.57	2598.58
535.93	2614.81
536.29	2629.87
536.65	2645.65
537.00	2660.28
537.36	2675.54
537.72	2689.77
538.08	2703.80
538.44	2716.63
538.79	2729.70
539.15	2741.08
539.51	2752.33
539.87	2763.05
540.22	2771.58
540.58	2780.30
540.94	2789.61
541.29	2797.39
541.65	2804.26
542.01	2810.58
542.37	2814.97
542.72	2821.20
543.08	2826.90
543.44	2832.57
543.79	2837.45
544.15	2841.58
544.51	2845.60
544.87	2848.69
545.22	2851.37
545.58	2852.94
545.94	2855.01
546.29	2855.66
546.65	2856.38
547.01	2857.19
547.36	2858.20
547.72	2859.53
548.07	2859.26
548.43	2858.34
548.79	2856.74
549.14	2855.09
549.50	2854.05
549.86	2852.19
550.21	2847.95
550.57	2844.22
550.92	2838.97
551.28	2834.32
551.64	2829.47
551.99	2825.05
552.35	2820.26
552.70	2814.97
553.06	2810.36
553.41	2805.26
553.77	2799.48
554.13	2794.45
554.48	2788.56
554.84	2780.98
555.19	2773.46
555.55	2765.32
555.90	2757.74
556.26	2751.34
556.61	2744.31
556.97	2735.06
557.32	2726.80
557.68	2718.80
558.03	2710.07
558.39	2702.10
558.74	2694.30
559.10	2685.36
559.45	2676.07
559.81	2666.89
560.16	2657.21
560.52	2647.05
560.87	2637.96
561.23	2628.57
561.58	2618.62
561.94	2608.41
562.29	2597.71
562.64	2587.57
563.00	2577.80
563.35	2567.87
563.71	2556.88
564.06	2545.46
564.42	2535.07
564.77	2524.24
565.12	2513.54
565.48	2502.53
565.83	2492.18
566.19	2481.92
566.54	2471.22
566.89	2459.54
567.25	2447.98
567.60	2437.22
567.96	2425.99
568.31	2413.44
568.66	2400.79
569.02	2389.16
569.37	2377.35
569.72	2366.09
570.08	2353.96
570.43	2341.28
570.78	2328.30
571.14	2315.29
571.49	2302.97
571.84	2290.91
572.20	2277.46
572.55	2264.52
572.90	2251.49
573.26	2237.65
573.61	2223.14
573.96	2208.85
574.31	2194.92
574.67	2181.22
575.02	2167.01
575.37	2152.45
575.72	2138.10
576.08	2124.30
576.43	2109.43
576.78	2094.55
577.13	2080.48
577.49	2066.66
577.84	2053.22
578.19	2038.95
578.54	2024.13
578.90	2008.80
579.25	1993.23
579.60	1979.19
579.95	1964.76
580.30	1950.35
580.66	1936.11
581.01	1921.42
581.36	1907.21
581.71	1893.58
582.06	1879.45
582.42	1865.46
582.77	1852.18
583.12	1838.46
583.47	1824.78
583.82	1811.26
584.17	1797.58
584.53	1783.77
584.88	1769.92
585.23	1755.81
585.58	1742.21
585.93	1728.98
586.28	1716.56
586.63	1703.95
586.98	1690.55
587.34	1677.41
587.69	1663.80
588.04	1650.41
588.39	1637.73
588.74	1624.47
589.09	1611.00
589.44	1597.47
589.79	1584.46
590.14	1571.36
590.49	1558.47
590.84	1545.47
591.19	1533.10
591.54	1520.31
591.89	1507.32
592.25	1494.66
592.60	1481.52
592.95	1468.94
593.30	1456.74
593.65	1444.37
594.00	1432.20
594.35	1420.81
594.70	1408.50
595.05	1397.21
595.40	1385.82
595.75	1373.81
596.10	1362.64
596.45	1351.70
596.80	1341.22
597.15	1330.50
597.50	1319.78
597.85	1309.26
598.19	1298.94
598.54	1288.05
598.89	1277.85
599.24	1267.95
599.59	1257.82
599.94	1248.72
600.29	1239.53
600.64	1230.12
600.99	1220.08
601.34	1210.54
601.69	1200.40
602.04	1191.42
602.39	1182.31
602.74	1173.46
603.08	1164.88
603.43	1155.79
603.78	1146.49
604.13	1137.34
604.48	1128.12
604.83	1119.16
605.18	1110.13
605.53	1101.02
605.87	1092.00
606.22	1083.28
606.57	1074.29
606.92	1065.34
607.27	1056.29
607.62	1047.29
607.96	1038.51
608.31	1030.79
608.66	1022.61
609.01	1014.88
609.36	1007.04
609.70	998.97
610.05	990.73
610.40	982.84
610.75	975.07
611.10	967.58
611.44	959.68
611.79	952.14
612.14	944.20
612.49	936.39
612.83	929.10
613.18	921.89
613.53	914.48
613.88	907.15
614.22	900.49
614.57	893.62
614.92	886.73
615.27	879.84
615.61	872.77
615.96	865.97
616.31	859.05
616.65	852.07
617.00	845.33
617.35	838.68
617.70	832.09
618.04	825.58
618.39	819.10
618.74	812.99
619.08	806.65
619.43	800.58
619.78	794.55
620.12	788.31
620.47	782.25
620.82	776.24
621.16	770.59
621.51	764.55
621.85	758.51
622.20	752.52
622.55	746.71
622.89	740.84
623.24	735.00
623.59	729.30
623.93	723.63
624.28	718.11
624.62	712.59
624.97	707.02
625.32	701.58
625.66	695.99
626.01	690.40
626.35	684.97
626.70	679.58
627.04	674.37
627.39	669.22
627.73	664.17
628.08	659.37
628.43	654.42
628.77	649.51
629.12	644.76
629.46	640.22
629.81	635.50
630.15	630.68
630.50	626.00
630.84	621.48
631.19	617.16
631.53	612.87
631.88	608.48
632.22	604.21
632.57	600.16
632.91	596.06
633.26	592.05
633.60	588.14
633.95	584.33
634.29	580.38
634.64	576.38
634.98	572.27
635.32	568.32
635.67	564.53
636.01	560.69
636.36	556.89
636.70	553.22
637.05	549.54
637.39	546.05
637.73	542.43
638.08	538.90
638.42	535.35
638.77	531.65
639.11	527.95
639.45	524.27
639.80	520.59
640.14	517.10
640.49	513.55
640.83	509.92
641.17	506.30
641.52	502.86
641.86	499.42
642.20	496.16
642.55	492.75
642.89	489.40
643.23	486.28
643.58	483.41
643.92	480.39
644.26	477.43
644.61	474.43
644.95	471.45
645.29	468.39
645.64	465.30
645.98	462.37
646.32	459.60
646.66	456.84
647.01	454.07
647.35	451.35
647.69	448.53
648.04	445.81
648.38	443.16
648.72	440.44
649.06	437.81
649.41	435.24
649.75	432.64
650.09	430.07
650.43	427.50
650.78	424.89
651.12	422.28
651.46	419.77
651.80	417.38
652.14	415.07
652.49	412.76
652.83	410.52
653.17	408.26
653.51	406.07
653.85	403.96
654.20	401.78
654.54	399.50
654.88	397.41
655.22	395.39
655.56	393.34
655.90	391.40
656.25	389.45
656.59	387.50
656.93	385.64
657.27	383.85
657.61	381.94
657.95	380.10
658.29	378.27
658.64	376.47
658.98	374.62
659.32	372.82
659.66	371.12
660.00	369.43
660.34	367.77
660.68	366.06
661.02	364.28
661.36	362.62
661.70	361.05
662.05	359.45
662.39	357.82
662.73	356.29
663.07	354.78
663.41	353.29
663.75	351.85
664.09	350.41
664.43	348.88
664.77	347.46
665.11	345.98
665.45	344.59
665.79	343.18
666.13	341.76
666.47	340.33
666.81	338.88
667.15	337.40
667.49	336.01
667.83	334.68
668.17	333.39
668.51	332.12
668.85	330.87
669.19	329.68
669.53	328.44
669.87	327.17
670.21	325.92
670.55	324.70
670.89	323.54
671.23	322.34
671.57	321.16
671.91	320.03
672.25	318.97
672.58	317.90
672.92	316.80
673.26	315.78
673.60	314.76
673.94	313.73
674.28	312.76
674.62	311.79
674.96	310.77
675.30	309.82
675.64	308.85
675.97	307.89
676.31	306.90
676.65	305.93
676.99	305.04
677.33	304.08
677.67	303.17
678.01	302.17
678.34	301.26
678.68	300.41
679.02	299.51
679.36	298.63
679.70	297.76
680.04	296.91
680.37	296.05
680.71	295.22
681.05	294.45
681.39	293.63
681.73	292.79
682.06	291.98
682.40	291.19
682.74	290.41
683.08	289.66
683.42	288.90
683.75	288.20
684.09	287.42
684.43	286.70
684.77	285.97
685.10	285.29
685.44	284.59
685.78	283.87
686.12	283.20
686.45	282.50
686.79	281.81
687.13	281.14
687.46	280.45
687.80	279.78
688.14	279.07
688.48	278.42
688.81	277.76
689.15	277.16
689.49	276.51
689.82	275.89
690.16	275.20
690.50	274.58
690.83	273.96
691.17	273.36
691.51	272.77
691.84	272.19
692.18	271.58
692.52	270.96
692.85	270.37
693.19	269.82
693.52	269.26
693.86	268.71
694.20	268.16
694.53	267.63
694.87	267.09
695.21	266.57
695.54	266.06
695.88	265.52
696.21	264.97
696.55	264.45
696.88	263.93
697.22	263.44
697.56	262.94
697.89	262.39
698.23	261.88
698.56	261.35
698.90	260.87
699.23	260.38
699.57	259.92
699.90	259.45
700.24	258.95
700.58	258.50
700.91	258.07
701.25	257.72
701.58	257.34
701.92	256.94
702.25	256.51
702.59	256.08
702.92	255.67
703.26	255.27
703.59	254.86
703.93	254.54
704.26	254.16
704.60	253.77
704.93	253.40
705.26	253.02
705.60	252.69
705.93	252.30
706.27	251.99
706.60	251.65
706.94	251.33
707.27	250.95
707.61	250.59
707.94	250.22
708.27	249.77
708.61	249.37
708.94	249.01
709.28	248.68
709.61	248.35
709.94	248.03
710.28	247.72
710.61	247.44
710.95	247.05
711.28	246.82
711.61	246.53
711.95	246.26
712.28	245.97
712.61	245.67
712.95	245.44
713.28	245.21
713.61	244.91
713.95	244.62
714.28	244.37
714.61	244.10
714.95	243.84
715.28	243.59
715.61	243.34
715.95	243.10
716.28	242.85
716.61	242.63
716.95	242.39
717.28	242.15
717.61	241.91
717.94	241.68
718.28	241.38
718.61	241.15
718.94	240.90
719.27	240.69
719.61	240.49
719.94	240.25
720.27	239.99
720.60	239.78
720.94	239.58
721.27	239.39
721.60	239.21
721.93	239.02
722.27	238.86
722.60	238.69
722.93	238.49
723.26	238.31
723.59	238.10
723.93	237.93
724.26	237.76
724.59	237.57
724.92	237.41
725.25	237.27
725.59	237.10
725.92	236.97
726.25	236.81
726.58	236.64
726.91	236.47
727.24	236.32
727.57	236.16
727.91	235.99
728.24	235.85
728.57	235.69
728.90	235.56
729.23	235.38
729.56	235.28
729.89	235.14
730.22	234.98
730.55	234.84
730.89	234.69
731.22	234.54
731.55	234.41
731.88	234.27
732.21	234.12
732.54	233.98
732.87	233.86
733.20	233.74
733.53	233.61
733.86	233.50
734.19	233.37
734.52	233.26
734.85	233.23
735.18	233.08
735.51	232.99
735.84	232.88
736.17	232.80
736.50	232.63
736.83	232.64
737.16	232.54
737.49	232.45
737.82	232.34
738.15	232.26
738.48	232.15
738.81	232.04
739.14	231.93
739.47	231.83
739.80	231.71
740.13	231.62
740.46	231.51
740.79	231.40
741.12	231.30
741.45	231.19
741.78	231.03
742.11	230.97
742.44	230.85
742.77	230.77
743.10	230.65
743.43	230.55
743.75	230.35
744.08	230.41
744.41	230.32
744.74	230.23
745.07	230.11
745.40	230.05
745.73	230.01
746.06	229.94
746.39	229.88
746.71	229.79
747.04	229.70
747.37	229.62
747.70	229.56
748.03	229.48
748.36	229.42
748.68	229.35
749.01	229.24
749.34	229.17
749.67	229.10
750.00	229.04
750.33	229.05
750.65	228.99
750.98	228.78
751.31	228.71
751.64	228.65
751.97	228.65
752.29	228.57
752.62	228.45
752.95	228.38
753.28	228.30
753.60	228.23
753.93	228.18
754.26	228.13
754.59	228.04
754.91	227.96
755.24	227.88
755.57	227.87
755.90	227.81
756.22	227.73
756.55	227.65
756.88	227.57
757.20	227.44
757.53	227.36
757.86	227.29
758.19	227.24
758.51	227.18
758.84	227.08
759.17	227.02
759.49	226.97
759.82	226.96
760.15	226.92
760.47	226.87
760.80	226.80
761.13	226.76
761.45	226.72
761.78	226.68
762.11	226.64
762.43	226.54
762.76	226.49
763.08	226.46
763.41	226.42
763.74	226.38
764.06	226.34
764.39	226.30
764.71	226.26
765.04	226.20
765.37	226.15
765.69	226.10
766.02	226.06
766.34	226.01
766.67	225.93
767.00	225.91
767.32	225.93
767.65	225.96
767.97	225.91
768.30	225.88
768.62	225.83
768.95	225.78
769.27	225.74
769.60	225.72
769.92	225.66
770.25	225.60
770.57	225.55
770.90	225.52
771.22	225.47
771.55	225.43
771.87	225.41
772.20	225.38
772.52	225.44
772.85	225.53
773.17	225.50
773.50	225.46
773.82	225.41
774.15	225.32
774.47	225.22
774.80	225.18
775.12	225.15
775.45	225.12
775.77	225.10
776.09	225.08
776.42	225.04
776.74	225.05
777.07	225.02
777.39	225.00
777.72	224.97
778.04	224.96
778.36	224.92
778.69	224.90
779.01	224.88
779.33	224.77
779.66	224.63
779.98	224.59
780.31	224.56
780.63	224.58
780.95	224.58
781.28	224.56
781.60	224.53
781.92	224.51
782.25	224.49
782.57	224.46
782.89	224.44
783.22	224.41
783.54	224.36
783.86	224.35
784.19	224.32
784.51	224.34
784.83	224.30
785.16	224.28
785.48	224.26
785.80	224.24
786.12	224.23
786.45	224.21
786.77	224.20
787.09	224.18
787.42	224.12
787.74	224.10
788.06	224.09
788.38	224.08
788.71	224.04
789.03	224.03
789.35	224.03
789.67	224.00
789.99	224.00
790.32	223.97
790.64	223.96
790.96	224.05
791.28	224.00
791.61	223.98
791.93	223.98
792.25	223.96
792.57	224.02
792.89	223.99
793.21	223.98
793.54	223.96
793.86	223.93
794.18	223.92
794.50	223.89
794.82	223.87
795.14	223.87
795.47	223.88
795.79	223.88
796.11	223.84
796.43	223.82
796.75	223.81
797.07	223.81
797.39	223.79
797.71	223.69
798.04	223.68
798.36	223.68
798.68	223.66
799.00	223.65
799.32	223.59
799.64	223.60
799.96	223.58
800.28	223.59
800.60	223.58
800.92	223.58
801.24	223.57
801.56	223.56
801.89	223.54
802.21	223.53
802.53	223.50
802.85	223.52
803.17	223.56
803.49	223.53
803.81	223.51
804.13	223.49
804.45	223.47
804.77	223.46
805.09	223.45
805.41	223.44
805.73	223.41
806.05	223.37
806.37	223.35
806.69	223.33
807.01	223.31
807.33	223.31
807.65	223.26
807.97	223.30
808.28	223.28
808.60	223.27
808.92	223.24
809.24	223.29
809.56	223.26
809.88	223.21
810.20	223.22
810.52	223.23
810.84	223.21
811.16	223.19
811.48	223.17
811.80	223.20
812.12	223.19
812.43	223.20
812.75	223.20
813.07	223.18
813.39	223.18
813.71	223.16
814.03	223.14
814.35	223.14
814.67	223.10
814.98	223.08
815.30	223.08
815.62	223.06
815.94	222.98
816.26	222.99
816.58	222.97
816.89	222.97
817.21	222.93
817.53	222.94
817.85	222.94
818.17	222.93
818.48	222.89
818.80	222.90
819.12	222.88
819.44	222.85
819.76	222.83
820.07	222.83
820.39	222.82
820.71	222.82
821.03	222.82
821.34	222.80
821.66	222.81
821.98	222.82
822.30	222.81
822.61	222.87
822.93	222.85
823.25	222.85
823.57	222.83
823.88	222.84
824.20	222.84
824.52	222.85
824.83	222.84
825.15	222.82
825.47	222.81
825.79	222.82
826.10	222.82
826.42	222.81
826.74	222.81
827.05	222.81
827.37	222.81
827.69	222.80
828.00	222.80
828.32	222.80
828.64	222.78
828.95	222.83
829.27	222.79
829.58	222.79
829.90	222.80
830.22	222.80
830.53	222.78
830.85	222.77
831.17	222.74
831.48	222.74
831.80	222.74
832.11	222.74
832.43	222.72
832.75	222.72
833.06	222.78
833.38	222.75
833.69	222.74
834.01	222.74
834.32	222.73
834.64	222.72
834.96	222.71
835.27	222.71
835.59	222.67
835.90	222.65
836.22	222.63
836.53	222.61
836.85	222.60
837.16	222.70
837.48	222.70
837.79	222.73
838.11	222.72
838.42	222.73
838.74	222.73
839.05	222.72
839.37	222.71
839.68	222.65
840.00	222.64
840.31	222.66
840.63	222.65
840.94	222.64
841.26	222.63
841.57	222.63
841.88	222.64
842.20	222.63
842.51	222.61
842.83	222.62
843.14	222.71
843.46	222.70
843.77	222.65
844.08	222.64
844.40	222.61
844.71	222.60
845.03	222.59
845.34	222.58
845.65	222.57
845.97	222.57
846.28	222.57
846.60	222.58
846.91	222.56
847.22	222.56
847.54	222.58
847.85	222.58
848.16	222.56
848.48	222.54
848.79	222.58
849.10	222.59
849.42	222.60
849.73	222.50
850.04	222.50
850.36	222.46
850.67	222.47
850.98	222.47
851.30	222.48
851.61	222.48
851.92	222.47
852.23	222.51
852.55	222.51
852.86	222.51
853.17	222.52
853.49	222.54
853.80	222.56
854.11	222.56
854.42	222.57
854.74	222.57
855.05	222.57
855.36	222.52
855.67	222.51
855.99	222.51
856.30	222.63
856.61	222.63
856.92	222.63
857.23	222.63
857.55	222.62
857.86	222.61
858.17	222.63
858.48	222.62
858.79	222.59
859.11	222.60
859.42	222.59
859.73	222.57
860.04	222.57
860.35	222.54
860.66	222.50
860.98	222.49
861.29	222.50
861.60	222.49
861.91	222.51
862.22	222.50
862.53	222.48
862.84	222.36
863.16	222.39
863.47	222.37
863.78	222.35
864.09	222.36
864.40	222.37
864.71	222.36
865.02	222.38
865.33	222.36
865.64	222.34
865.95	222.34
866.27	222.41
866.58	222.40
866.89	222.41
867.20	222.41
867.51	222.40
867.82	222.40
868.13	222.42
868.44	222.40
868.75	222.42
869.06	222.42
869.37	222.43
869.68	222.40
869.99	222.42
870.30	222.42
870.61	222.43
870.92	222.41
871.23	222.40
871.54	222.41
871.85	222.44
872.16	222.45
872.47	222.44
872.78	222.38
873.09	222.39
873.40	222.37
873.71	222.38
874.02	222.39
874.33	222.38
874.64	222.36
874.95	222.38
875.26	222.36
875.56	222.36
875.87	222.35
876.18	222.35
876.49	222.46
876.80	222.45
877.11	222.43
877.42	222.44
877.73	222.44
878.04	222.42
878.35	222.42
878.66	222.42
878.96	222.42
879.27	222.41
879.58	222.40
879.89	222.40
880.20	222.43
880.51	222.42
880.82	222.42
881.12	222.42
881.43	222.40
881.74	222.40
882.05	222.39
882.36	222.40
882.67	222.41
882.97	222.29
883.28	222.28
883.59	222.28
883.90	222.29
884.21	222.30
884.51	222.30
884.82	222.28
885.13	222.29
885.44	222.29
885.74	222.29
886.05	222.29
886.36	222.29
886.67	222.25
886.98	222.30
887.28	222.31
887.59	222.31
887.90	222.32
888.20	222.31
888.51	222.33
888.82	222.31
889.13	222.31
889.43	222.40
889.74	222.39
890.05	222.39
890.35	222.38
890.66	222.37
890.97	222.36
891.28	222.35
891.58	222.34
891.89	222.34
892.20	222.33
892.50	222.32
892.81	222.31
893.12	222.31
893.42	222.26
893.73	222.26
894.04	222.26
894.34	222.26
894.65	222.26
894.95	222.25
895.26	222.25
895.57	222.29
895.87	222.20
896.18	222.22
896.48	222.22
896.79	222.22
897.10	222.23
897.40	222.23
897.71	222.24
898.01	222.23
898.32	222.24
898.63	222.24
898.93	222.25
899.24	222.25
899.54	222.24
899.85	222.23
900.15	222.23
900.46	222.23
900.76	222.24
901.07	222.23
901.38	222.23
901.68	222.24
901.99	222.19
902.29	222.20
902.60	222.18
902.90	222.17
903.21	222.17
903.51	222.16
903.82	222.18
904.12	222.18
904.43	222.18
904.73	222.17
905.03	222.18
905.34	222.28
905.64	222.26
905.95	222.26
906.25	222.26
906.56	222.26
906.86	222.26
907.17	222.25
907.47	222.25
907.77	222.25
908.08	222.22
908.38	222.23
908.69	222.23
908.99	222.25
909.30	222.26
909.60	222.25
909.90	222.26
910.21	222.23
910.51	222.21
910.81	222.21
911.12	222.21
911.42	222.21
911.73	222.10
912.03	222.11
912.33	222.14
912.64	222.12
912.94	222.11
913.24	222.09
913.55	222.08
913.85	222.07
914.15	222.09
914.46	222.11
914.76	222.09
915.06	222.09
915.37	222.07
915.67	222.06
915.97	222.06
916.27	222.03
916.58	222.04
916.88	222.04
917.18	222.03
917.49	222.10
917.79	222.10
918.09	222.11
918.39	222.13
918.70	222.12
919.00	222.13
919.30	222.18
919.60	222.18
919.91	222.17
920.21	222.17
920.51	222.15
920.81	222.14
921.12	222.15
921.42	222.15
921.72	222.15
922.02	222.16
922.32	222.18
922.63	222.19
922.93	222.24
923.23	222.24
923.53	222.24
923.83	222.17
924.13	222.18
924.44	222.17
924.74	222.18
925.04	222.21
925.34	222.21
925.64	222.16
925.94	222.17
926.24	222.23
926.55	222.22
926.85	222.23
927.15	222.23
927.45	222.23
927.75	222.24
928.05	222.24
928.35	222.23
928.65	222.24
928.95	222.25
929.26	222.20
929.56	222.22
929.86	222.23
930.16	222.22
930.46	222.21
930.76	222.22
931.06	222.17
931.36	222.14
931.66	222.15
931.96	222.16
932.26	222.17
932.56	222.13
932.86	222.14
933.16	222.14
933.46	222.13
933.76	222.11
934.06	222.13
934.36	222.16
934.66	222.16
934.96	222.13
935.26	222.14
935.56	222.16
935.86	222.13
936.16	222.12
936.46	222.11
936.76	222.11
937.06	222.10
937.36	222.11
937.66	222.12
937.96	222.12
938.26	222.10
938.56	222.09
938.86	222.09
939.16	222.11
939.46	222.12
939.76	222.13
940.06	222.13
940.35	222.11
940.65	222.06
940.95	222.07
941.25	222.05
941.55	222.04
941.85	222.03
942.15	222.06
942.45	222.08
942.75	222.08
943.04	222.08
943.34	222.10
943.64	222.08
943.94	222.07
944.24	222.07
944.54	222.08
944.84	222.07
945.13	222.06
945.43	222.04
945.73	222.04
946.03	222.03
946.33	222.02
946.62	222.01
946.92	222.01
947.22	222.01
947.52	222.02
947.82	222.02
948.11	222.01
948.41	221.99
948.71	221.97
949.01	221.97
949.31	221.96
949.60	221.95
949.90	221.98
950.20	221.97
950.50	221.97
950.79	221.96
951.09	221.97
951.39	221.97
951.69	221.96
951.98	221.97
952.28	221.99
952.58	221.99
952.87	221.99
953.17	222.00
953.47	221.99
953.76	222.00
954.06	221.98
954.36	221.97
954.66	221.97
954.95	221.99
955.25	222.00
955.55	222.01
955.84	221.99
956.14	222.00
956.44	222.00
956.73	221.99
957.03	222.00
957.32	222.00
957.62	222.00
957.92	222.02
958.21	222.00
958.51	222.12
958.81	222.13
959.10	222.14
959.40	222.16
959.69	222.17
959.99	222.18
960.29	222.18
960.58	222.17
960.88	222.21
961.17	222.20
961.47	222.20
961.76	222.19
962.06	222.21
962.36	222.19
962.65	222.20
962.95	222.21
963.24	222.19
963.54	222.20
963.83	222.21
964.13	222.20
964.42	222.19
964.72	222.09
965.01	222.09
965.31	222.08
965.60	222.06
965.90	222.12
966.19	222.10
966.49	222.11
966.78	222.11
967.08	222.10
967.37	222.10
967.67	222.08
967.96	222.10
968.26	222.09
968.55	222.11
968.85	222.11
969.14	222.10
969.43	222.10
969.73	222.09
970.02	222.08
970.32	222.07
970.61	222.06
970.91	222.03
971.20	222.02
971.49	222.01
971.79	222.02
972.08	221.95
972.38	221.96
972.67	221.95
972.96	221.97
973.26	221.94
973.55	221.98
973.85	221.97
974.14	221.97
974.43	221.97
974.73	221.95
975.02	221.94
975.31	221.94
975.61	221.94
975.90	221.94
976.19	221.93
976.49	221.94
976.78	221.94
977.07	221.95
977.37	221.95
977.66	221.97
977.95	221.96
978.24	221.97
978.54	222.00
978.83	221.99
979.12	221.98
979.42	221.99
979.71	221.97
980.00	221.97
980.29	221.97
980.59	221.95
980.88	221.98
981.17	221.98
981.46	221.98
981.76	221.97
982.05	222.00
982.34	222.01
982.63	222.00
982.93	222.00
983.22	222.02
983.51	222.03
983.80	222.04
984.09	222.05
984.39	222.03
984.68	222.02
984.97	222.02
985.26	222.01
985.55	222.02
985.85	222.00
986.14	222.01
986.43	222.02
986.72	222.01
987.01	221.98
987.30	221.98
987.59	221.97
987.89	221.98
988.18	221.95
988.47	221.94
988.76	221.93
989.05	221.92
989.34	221.91
989.63	221.93
989.92	221.91
990.22	221.89
990.51	221.89
990.80	221.88
991.09	221.89
991.38	221.90
991.67	221.89
991.96	221.88
992.25	221.89
992.54	221.86
992.83	221.87
993.12	221.87
993.41	221.88
993.70	221.93
993.99	221.94
994.28	221.96
994.58	221.97
994.87	221.96
995.16	221.96
995.45	221.94
995.74	221.90
996.03	221.92
996.32	221.94
996.61	221.95
996.90	221.96
997.19	221.95
997.48	221.95
997.77	221.94
998.06	221.95
998.34	221.93
998.63	221.93
998.92	221.93
999.21	221.95
999.50	221.95
999.79	221.91
1000.08	221.91
1000.37	221.91
1000.66	221.89
1000.95	221.92
1001.24	221.93
1001.53	221.95
1001.82	221.95
1002.11	221.92
1002.40	221.93
1002.68	221.95
1002.97	222.02
1003.26	222.01
1003.55	222.00
1003.84	222.00
1004.13	222.04
1004.42	222.04
1004.71	222.04
1004.99	222.03
1005.28	222.05
1005.57	222.04
1005.86	222.03
1006.15	222.02
1006.44	222.00
1006.72	222.01
1007.01	221.99
1007.30	221.99
1007.59	221.98
1007.88	221.98
1008.17	221.99
1008.45	221.96
1008.74	221.92
1009.03	221.87
1009.32	221.87
1009.60	221.88
1009.89	221.87
1010.18	221.83
1010.47	221.83
1010.76	221.83
1011.04	221.84
1011.33	221.84
1011.62	221.85
1011.91	221.86
1012.19	221.87
1012.48	221.87
1012.77	221.87
1013.05	221.91
1013.34	221.91
1013.63	221.90
1013.92	221.91
1014.20	221.91
1014.49	221.92
1014.78	221.92
1015.06	221.89
1015.35	221.89
1015.64	221.91
1015.92	221.92
1016.21	221.93
1016.50	221.93
1016.78	221.94
1017.07	221.94
1017.36	221.92
1017.64	221.91
1017.93	221.92
1018.22	221.91
1018.50	221.91
1018.79	221.91
1019.08	221.87
1019.36	221.88
1019.65	221.86
1019.93	221.89
1020.22	221.91
1020.51	221.96
1020.79	221.95
1021.08	221.79
1021.36	221.72
1021.65	221.92
1021.94	221.87
1022.22	221.93
1022.51	221.66
1022.79	222.45
1023.08	222.09
1023.36	223.07
1023.65	221.64
>>>>>End Processed Spectral Data<<<<<
