SpectraSuite Data File
++++++++++++++++++++++++++++++++++++
Date: Wed Sep 30 15:14:45 EDT 2015
User: lab3
Dark Spectrum Present: No
Reference Spectrum Present: No
Number of Sampled Component Spectra: 1
Spectrometers: USB2E7196
Integration Time (usec): 36000 (USB2E7196)
Spectra Averaged: 1500 (USB2E7196)
Boxcar Smoothing: 10 (USB2E7196)
Correct for Electrical Dark: No (USB2E7196)
Strobe/Lamp Enabled: No (USB2E7196)
Correct for Detector Non-linearity: No (USB2E7196)
Correct for Stray Light: No (USB2E7196)
Number of Pixels in Processed Spectrum: 2048
>>>>>Begin Processed Spectral Data<<<<<
339.09	0.00
339.48	211.44
339.86	212.84
340.24	214.03
340.63	215.62
341.01	218.63
341.39	218.47
341.78	219.70
342.16	220.90
342.54	221.42
342.93	209.90
343.31	220.50
343.69	221.03
344.07	221.49
344.46	221.92
344.84	222.31
345.22	222.54
345.60	222.78
345.99	222.96
346.37	223.09
346.75	223.18
347.13	223.25
347.52	223.31
347.90	223.38
348.28	223.42
348.66	223.47
349.05	223.47
349.43	223.52
349.81	223.57
350.19	223.63
350.57	223.69
350.96	223.75
351.34	223.84
351.72	223.93
352.10	224.04
352.48	224.11
352.87	224.16
353.25	224.23
353.63	224.29
354.01	224.36
354.39	224.44
354.77	224.51
355.15	224.61
355.54	224.67
355.92	224.71
356.30	224.78
356.68	224.91
357.06	224.99
357.44	225.04
357.82	225.11
358.20	225.21
358.58	225.26
358.97	225.34
359.35	225.42
359.73	225.50
360.11	225.55
360.49	225.62
360.87	225.67
361.25	225.73
361.63	225.81
362.01	225.87
362.39	225.89
362.77	225.96
363.15	225.99
363.53	226.02
363.91	226.06
364.29	226.08
364.67	226.01
365.05	226.03
365.43	226.05
365.81	226.09
366.19	226.11
366.57	226.17
366.95	226.17
367.33	226.15
367.71	226.14
368.09	226.16
368.47	226.15
368.85	226.14
369.23	226.14
369.61	226.08
369.99	226.10
370.37	226.10
370.75	226.13
371.13	226.10
371.51	226.05
371.89	226.03
372.27	226.01
372.65	226.00
373.03	225.95
373.41	225.92
373.78	225.86
374.16	225.78
374.54	225.69
374.92	225.64
375.30	225.59
375.68	225.53
376.06	225.49
376.44	225.43
376.82	225.38
377.19	225.34
377.57	225.30
377.95	225.22
378.33	225.16
378.71	225.03
379.09	224.98
379.47	224.94
379.84	224.88
380.22	224.82
380.60	224.74
380.98	224.70
381.36	224.64
381.73	224.58
382.11	224.55
382.49	224.51
382.87	224.45
383.25	224.40
383.62	224.48
384.00	224.42
384.38	224.39
384.76	224.37
385.13	224.34
385.51	224.30
385.89	224.24
386.27	224.19
386.64	224.16
387.02	224.11
387.40	224.07
387.78	224.04
388.15	224.01
388.53	223.97
388.91	223.94
389.29	223.89
389.66	223.88
390.04	223.84
390.42	223.84
390.79	223.83
391.17	223.80
391.55	223.66
391.92	223.64
392.30	223.63
392.68	223.60
393.05	223.58
393.43	223.59
393.81	223.60
394.18	223.58
394.56	223.58
394.94	223.61
395.31	223.61
395.69	223.65
396.06	223.67
396.44	223.70
396.82	223.71
397.19	223.79
397.57	223.80
397.95	223.84
398.32	223.83
398.70	223.87
399.07	223.93
399.45	223.97
399.82	224.01
400.20	224.04
400.58	224.10
400.95	224.12
401.33	224.18
401.70	224.31
402.08	224.40
402.45	224.48
402.83	224.57
403.20	224.68
403.58	224.76
403.95	224.89
404.33	225.02
404.71	225.15
405.08	225.33
405.46	225.47
405.83	225.64
406.21	225.82
406.58	226.01
406.96	226.20
407.33	226.42
407.70	226.66
408.08	227.00
408.45	227.28
408.83	227.59
409.20	227.87
409.58	228.12
409.95	228.46
410.33	228.85
410.70	229.21
411.08	229.62
411.45	230.06
411.82	230.50
412.20	231.02
412.57	231.63
412.95	232.10
413.32	232.73
413.69	233.36
414.07	234.03
414.44	234.78
414.82	235.53
415.19	236.41
415.56	237.30
415.94	238.22
416.31	239.26
416.68	240.31
417.06	241.53
417.43	242.67
417.81	243.99
418.18	245.32
418.55	246.78
418.93	248.31
419.30	249.89
419.67	251.58
420.04	253.32
420.42	255.13
420.79	257.23
421.16	259.34
421.54	261.50
421.91	263.75
422.28	266.10
422.66	268.62
423.03	271.03
423.40	273.56
423.77	276.28
424.15	279.07
424.52	281.96
424.89	285.09
425.26	288.21
425.64	291.11
426.01	294.37
426.38	297.71
426.75	301.16
427.13	304.70
427.50	308.39
427.87	312.23
428.24	316.12
428.61	319.86
428.99	323.90
429.36	328.30
429.73	332.50
430.10	336.68
430.47	340.98
430.85	345.38
431.22	350.08
431.59	354.91
431.96	359.63
432.33	364.85
432.70	369.80
433.08	375.67
433.45	381.18
433.82	386.62
434.19	392.71
434.56	398.68
434.93	404.44
435.30	410.17
435.68	416.55
436.05	422.79
436.42	429.03
436.79	434.71
437.16	440.87
437.53	447.45
437.90	454.03
438.27	460.47
438.64	467.41
439.01	473.69
439.38	479.44
439.75	484.99
440.13	491.30
440.50	497.26
440.87	501.97
441.24	507.16
441.61	512.85
441.98	516.99
442.35	521.96
442.72	527.04
443.09	531.83
443.46	534.89
443.83	537.18
444.20	539.08
444.57	541.88
444.94	543.53
445.31	545.21
445.68	546.67
446.05	547.73
446.42	547.49
446.79	547.15
447.16	546.84
447.53	546.59
447.90	544.68
448.27	542.88
448.64	540.09
449.01	538.23
449.37	534.27
449.74	530.63
450.11	525.97
450.48	520.81
450.85	515.68
451.22	511.33
451.59	507.02
451.96	503.10
452.33	497.42
452.70	492.34
453.07	486.18
453.43	480.03
453.80	474.06
454.17	468.35
454.54	463.03
454.91	457.05
455.28	451.39
455.65	446.05
456.02	440.41
456.38	435.84
456.75	429.94
457.12	425.18
457.49	420.43
457.86	415.87
458.23	411.88
458.59	407.49
458.96	402.98
459.33	399.03
459.70	395.02
460.07	391.97
460.43	388.37
460.80	384.99
461.17	382.05
461.54	378.84
461.91	375.83
462.27	372.78
462.64	370.27
463.01	367.38
463.38	364.50
463.74	361.88
464.11	359.55
464.48	357.46
464.85	355.19
465.21	353.42
465.58	351.50
465.95	349.30
466.32	347.53
466.68	345.79
467.05	344.06
467.42	342.36
467.78	340.52
468.15	338.82
468.52	337.58
468.88	335.93
469.25	334.44
469.62	333.25
469.98	331.98
470.35	330.84
470.72	329.84
471.08	328.78
471.45	327.92
471.82	326.96
472.18	325.95
472.55	325.32
472.92	324.54
473.28	323.92
473.65	323.27
474.02	322.66
474.38	322.15
474.75	321.86
475.11	321.46
475.48	321.32
475.85	321.17
476.21	321.11
476.58	321.11
476.94	321.31
477.31	321.43
477.67	321.57
478.04	321.83
478.41	322.15
478.77	322.62
479.14	322.95
479.50	323.50
479.87	324.19
480.23	324.88
480.60	325.58
480.96	326.28
481.33	327.26
481.69	328.26
482.06	329.24
482.42	330.18
482.79	331.29
483.15	332.57
483.52	334.02
483.88	335.42
484.25	336.89
484.61	338.42
484.98	340.08
485.34	341.94
485.71	343.89
486.07	345.94
486.44	347.98
486.80	350.24
487.17	352.57
487.53	355.11
487.90	357.73
488.26	360.54
488.62	363.56
488.99	366.60
489.35	369.75
489.72	373.17
490.08	376.76
490.44	380.41
490.81	384.22
491.17	388.10
491.54	392.30
491.90	396.58
492.26	401.19
492.63	406.02
492.99	411.03
493.36	416.20
493.72	421.65
494.08	427.24
494.45	433.15
494.81	439.29
495.17	445.52
495.54	452.13
495.90	459.09
496.26	466.20
496.63	473.51
496.99	481.13
497.35	489.06
497.72	497.25
498.08	505.71
498.44	514.40
498.80	523.57
499.17	533.02
499.53	542.80
499.89	552.80
500.26	563.05
500.62	573.50
500.98	584.60
501.34	595.90
501.71	607.70
502.07	619.71
502.43	632.03
502.79	644.78
503.16	657.94
503.52	671.25
503.88	684.87
504.24	698.91
504.60	713.15
504.97	727.82
505.33	742.87
505.69	758.73
506.05	774.81
506.41	791.06
506.78	807.49
507.14	824.47
507.50	841.82
507.86	859.47
508.22	877.51
508.59	895.63
508.95	914.37
509.31	933.58
509.67	953.60
510.03	973.90
510.39	994.35
510.75	1014.89
511.12	1035.60
511.48	1056.70
511.84	1078.13
512.20	1099.65
512.56	1122.03
512.92	1144.65
513.28	1167.07
513.64	1189.85
514.00	1213.01
514.37	1236.60
514.73	1260.21
515.09	1283.55
515.45	1307.16
515.81	1331.28
516.17	1355.50
516.53	1379.36
516.89	1403.18
517.25	1426.95
517.61	1450.88
517.97	1475.12
518.33	1499.27
518.69	1523.81
519.05	1548.60
519.41	1573.21
519.77	1598.38
520.13	1622.88
520.49	1647.55
520.85	1672.10
521.21	1696.37
521.57	1721.23
521.93	1745.12
522.29	1769.34
522.65	1793.57
523.01	1817.88
523.37	1841.27
523.73	1865.43
524.09	1889.71
524.45	1913.79
524.81	1937.63
525.17	1961.06
525.53	1983.98
525.89	2006.68
526.25	2029.38
526.61	2051.20
526.97	2073.42
527.33	2095.39
527.68	2117.09
528.04	2138.12
528.40	2159.15
528.76	2180.27
529.12	2200.34
529.48	2221.47
529.84	2240.95
530.20	2260.71
530.56	2279.68
530.91	2299.32
531.27	2317.92
531.63	2335.95
531.99	2353.47
532.35	2370.67
532.71	2388.24
533.07	2406.30
533.42	2423.30
533.78	2440.66
534.14	2458.07
534.50	2474.47
534.86	2491.30
535.21	2506.32
535.57	2521.15
535.93	2535.39
536.29	2548.76
536.65	2562.62
537.00	2575.15
537.36	2588.18
537.72	2600.28
538.08	2612.37
538.44	2623.19
538.79	2634.24
539.15	2643.54
539.51	2652.58
539.87	2660.76
540.22	2667.02
540.58	2673.19
540.94	2679.69
541.29	2684.71
541.65	2688.96
542.01	2693.37
542.37	2696.16
542.72	2700.70
543.08	2704.52
543.44	2707.95
543.79	2710.43
544.15	2711.91
544.51	2713.17
544.87	2714.03
545.22	2714.50
545.58	2714.26
545.94	2713.95
546.29	2712.28
546.65	2711.32
547.01	2710.37
547.36	2709.70
547.72	2709.40
548.07	2707.95
548.43	2705.65
548.79	2702.48
549.14	2699.37
549.50	2696.46
549.86	2692.79
550.21	2687.32
550.57	2682.49
550.92	2676.43
551.28	2671.02
551.64	2665.31
551.99	2659.72
552.35	2653.66
552.70	2647.20
553.06	2641.21
553.41	2635.17
553.77	2628.42
554.13	2621.98
554.48	2614.99
554.84	2606.67
555.19	2597.93
555.55	2588.72
555.90	2580.04
556.26	2572.28
556.61	2563.81
556.97	2553.28
557.32	2543.86
557.68	2534.76
558.03	2525.09
558.39	2516.06
558.74	2507.14
559.10	2497.38
559.45	2487.25
559.81	2477.31
560.16	2466.94
560.52	2456.14
560.87	2445.94
561.23	2435.67
561.58	2425.25
561.94	2414.61
562.29	2403.39
562.64	2392.86
563.00	2382.41
563.35	2372.26
563.71	2361.23
564.06	2350.20
564.42	2340.03
564.77	2329.25
565.12	2318.21
565.48	2306.66
565.83	2295.70
566.19	2284.82
566.54	2273.68
566.89	2262.00
567.25	2250.59
567.60	2240.38
567.96	2229.71
568.31	2217.80
568.66	2205.74
569.02	2194.18
569.37	2182.50
569.72	2171.72
570.08	2160.48
570.43	2148.62
570.78	2136.06
571.14	2123.75
571.49	2111.95
571.84	2100.00
572.20	2087.07
572.55	2074.97
572.90	2062.76
573.26	2050.13
573.61	2036.84
573.96	2024.07
574.31	2011.44
574.67	1998.55
575.02	1984.78
575.37	1970.92
575.72	1957.41
576.08	1944.07
576.43	1929.88
576.78	1915.91
577.13	1902.26
577.49	1888.56
577.84	1875.66
578.19	1862.21
578.54	1848.44
578.90	1834.13
579.25	1819.58
579.60	1806.26
579.95	1792.42
580.30	1779.07
580.66	1765.61
581.01	1752.13
581.36	1738.50
581.71	1725.40
582.06	1712.30
582.42	1699.57
582.77	1687.04
583.12	1674.26
583.47	1661.99
583.82	1649.62
584.17	1636.68
584.53	1623.88
584.88	1611.24
585.23	1597.91
585.58	1585.29
585.93	1573.09
586.28	1561.45
586.63	1549.97
586.98	1537.57
587.34	1525.54
587.69	1512.91
588.04	1500.75
588.39	1488.91
588.74	1476.72
589.09	1464.66
589.44	1452.10
589.79	1439.95
590.14	1427.97
590.49	1416.03
590.84	1404.13
591.19	1392.95
591.54	1381.54
591.89	1369.76
592.25	1358.34
592.60	1346.70
592.95	1335.28
593.30	1323.98
593.65	1312.67
594.00	1301.55
594.35	1291.25
594.70	1279.96
595.05	1269.37
595.40	1258.58
595.75	1247.42
596.10	1237.15
596.45	1226.89
596.80	1217.28
597.15	1207.26
597.50	1197.16
597.85	1187.64
598.19	1178.04
598.54	1168.19
598.89	1158.93
599.24	1150.11
599.59	1141.05
599.94	1132.85
600.29	1124.41
600.64	1115.87
600.99	1106.68
601.34	1097.89
601.69	1088.85
602.04	1080.86
602.39	1072.67
602.74	1064.73
603.08	1057.11
603.43	1049.11
603.78	1041.03
604.13	1033.03
604.48	1025.04
604.83	1017.33
605.18	1009.34
605.53	1001.41
605.87	993.33
606.22	985.60
606.57	977.59
606.92	969.49
607.27	961.43
607.62	953.61
607.96	946.02
608.31	939.49
608.66	932.67
609.01	925.94
609.36	919.01
609.70	912.07
610.05	904.92
610.40	898.01
610.75	891.15
611.10	884.47
611.44	877.46
611.79	870.76
612.14	863.80
612.49	856.90
612.83	850.43
613.18	844.11
613.53	837.70
613.88	831.41
614.22	825.56
614.57	819.53
614.92	813.48
615.27	807.40
615.61	801.03
615.96	794.92
616.31	788.69
616.65	782.43
617.00	776.39
617.35	770.48
617.70	764.61
618.04	758.90
618.39	753.18
618.74	747.77
619.08	742.12
619.43	736.64
619.78	731.11
620.12	725.47
620.47	720.10
620.82	714.81
621.16	709.64
621.51	704.26
621.85	698.90
622.20	693.58
622.55	688.28
622.89	682.91
623.24	677.59
623.59	672.52
623.93	667.66
624.28	662.90
624.62	658.03
624.97	653.06
625.32	648.23
625.66	643.39
626.01	638.56
626.35	633.88
626.70	629.22
627.04	624.84
627.39	620.40
627.73	615.93
628.08	611.60
628.43	607.17
628.77	602.76
629.12	598.49
629.46	594.41
629.81	590.28
630.15	586.18
630.50	582.24
630.84	578.37
631.19	574.50
631.53	570.74
631.88	566.93
632.22	563.15
632.57	559.56
632.91	555.82
633.26	552.11
633.60	548.48
633.95	545.00
634.29	541.41
634.64	537.83
634.98	534.20
635.32	530.70
635.67	527.42
636.01	524.11
636.36	520.78
636.70	517.60
637.05	514.40
637.39	511.31
637.73	508.03
638.08	504.85
638.42	501.71
638.77	498.42
639.11	495.08
639.45	491.88
639.80	488.65
640.14	485.58
640.49	482.53
640.83	479.37
641.17	476.25
641.52	473.24
641.86	470.24
642.20	467.36
642.55	464.33
642.89	461.38
643.23	458.62
643.58	456.06
643.92	453.34
644.26	450.67
644.61	447.99
644.95	445.35
645.29	442.65
645.64	439.90
645.98	437.33
646.32	434.91
646.66	432.42
647.01	429.98
647.35	427.61
647.69	425.15
648.04	422.82
648.38	420.51
648.72	418.13
649.06	415.80
649.41	413.53
649.75	411.27
650.09	409.00
650.43	406.68
650.78	404.34
651.12	402.08
651.46	399.87
651.80	397.77
652.14	395.75
652.49	393.76
652.83	391.85
653.17	389.88
653.51	387.99
653.85	386.17
654.20	384.22
654.54	382.20
654.88	380.36
655.22	378.57
655.56	376.74
655.90	374.98
656.25	373.24
656.59	371.50
656.93	369.86
657.27	368.27
657.61	366.66
657.95	365.12
658.29	363.49
658.64	361.91
658.98	360.28
659.32	358.63
659.66	357.07
660.00	355.53
660.34	354.02
660.68	352.45
661.02	350.85
661.36	349.37
661.70	347.95
662.05	346.51
662.39	345.05
662.73	343.67
663.07	342.36
663.41	341.05
663.75	339.75
664.09	338.47
664.43	337.10
664.77	335.81
665.11	334.44
665.45	333.16
665.79	331.92
666.13	330.68
666.47	329.48
666.81	328.23
667.15	326.94
667.49	325.72
667.83	324.55
668.17	323.42
668.51	322.30
668.85	321.20
669.19	320.14
669.53	319.01
669.87	317.86
670.21	316.75
670.55	315.64
670.89	314.61
671.23	313.55
671.57	312.50
671.91	311.51
672.25	310.57
672.58	309.64
672.92	308.69
673.26	307.79
673.60	306.84
673.94	305.89
674.28	305.00
674.62	304.12
674.96	303.21
675.30	302.35
675.64	301.49
675.97	300.65
676.31	299.77
676.65	298.95
676.99	298.19
677.33	297.35
677.67	296.57
678.01	295.72
678.34	294.92
678.68	294.17
679.02	293.37
679.36	292.59
679.70	291.79
680.04	291.01
680.37	290.24
680.71	289.51
681.05	288.84
681.39	288.14
681.73	287.41
682.06	286.70
682.40	286.02
682.74	285.33
683.08	284.66
683.42	283.98
683.75	283.35
684.09	282.64
684.43	282.00
684.77	281.34
685.10	280.72
685.44	280.09
685.78	279.46
686.12	278.86
686.45	278.25
686.79	277.64
687.13	277.04
687.46	276.43
687.80	275.86
688.14	275.24
688.48	274.67
688.81	274.10
689.15	273.57
689.49	272.97
689.82	272.41
690.16	271.79
690.50	271.24
690.83	270.66
691.17	270.09
691.51	269.54
691.84	269.01
692.18	268.46
692.52	267.89
692.85	267.34
693.19	266.85
693.52	266.34
693.86	265.85
694.20	265.36
694.53	264.87
694.87	264.36
695.21	263.87
695.54	263.38
695.88	262.87
696.21	262.34
696.55	261.87
696.88	261.41
697.22	260.97
697.56	260.53
697.89	260.05
698.23	259.62
698.56	259.16
698.90	258.74
699.23	258.30
699.57	257.92
699.90	257.52
700.24	257.09
700.58	256.68
700.91	256.30
701.25	255.98
701.58	255.62
701.92	255.26
702.25	254.87
702.59	254.49
702.92	254.12
703.26	253.76
703.59	253.40
703.93	253.11
704.26	252.75
704.60	252.38
704.93	252.04
705.26	251.67
705.60	251.37
705.93	251.02
706.27	250.74
706.60	250.41
706.94	250.12
707.27	249.78
707.61	249.45
707.94	249.11
708.27	248.71
708.61	248.35
708.94	248.03
709.28	247.73
709.61	247.42
709.94	247.16
710.28	246.88
710.61	246.61
710.95	246.25
711.28	246.04
711.61	245.77
711.95	245.53
712.28	245.26
712.61	244.99
712.95	244.78
713.28	244.56
713.61	244.29
713.95	244.00
714.28	243.76
714.61	243.50
714.95	243.26
715.28	243.02
715.61	242.78
715.95	242.56
716.28	242.34
716.61	242.14
716.95	241.91
717.28	241.70
717.61	241.48
717.94	241.27
718.28	240.99
718.61	240.79
718.94	240.57
719.27	240.38
719.61	240.18
719.94	239.97
720.27	239.72
720.60	239.54
720.94	239.36
721.27	239.18
721.60	239.02
721.93	238.84
722.27	238.71
722.60	238.55
722.93	238.34
723.26	238.17
723.59	237.97
723.93	237.80
724.26	237.65
724.59	237.49
724.92	237.34
725.25	237.21
725.59	237.05
725.92	236.92
726.25	236.76
726.58	236.62
726.91	236.46
727.24	236.32
727.57	236.16
727.91	236.00
728.24	235.87
728.57	235.72
728.90	235.60
729.23	235.42
729.56	235.34
729.89	235.22
730.22	235.09
730.55	234.97
730.89	234.85
731.22	234.71
731.55	234.58
731.88	234.45
732.21	234.29
732.54	234.17
732.87	234.05
733.20	233.94
733.53	233.82
733.86	233.73
734.19	233.61
734.52	233.52
734.85	233.50
735.18	233.36
735.51	233.29
735.84	233.17
736.17	233.10
736.50	232.94
736.83	232.97
737.16	232.86
737.49	232.76
737.82	232.66
738.15	232.58
738.48	232.49
738.81	232.39
739.14	232.31
739.47	232.21
739.80	232.12
740.13	232.04
740.46	231.94
740.79	231.83
741.12	231.74
741.45	231.62
741.78	231.48
742.11	231.43
742.44	231.32
742.77	231.26
743.10	231.16
743.43	231.08
743.75	230.88
744.08	230.96
744.41	230.88
744.74	230.78
745.07	230.69
745.40	230.64
745.73	230.60
746.06	230.53
746.39	230.48
746.71	230.40
747.04	230.32
747.37	230.25
747.70	230.20
748.03	230.13
748.36	230.08
748.68	230.01
749.01	229.91
749.34	229.84
749.67	229.78
750.00	229.73
750.33	229.74
750.65	229.70
750.98	229.48
751.31	229.41
751.64	229.36
751.97	229.35
752.29	229.28
752.62	229.17
752.95	229.11
753.28	229.02
753.60	228.96
753.93	228.92
754.26	228.86
754.59	228.77
754.91	228.70
755.24	228.63
755.57	228.62
755.90	228.56
756.22	228.50
756.55	228.42
756.88	228.34
757.20	228.21
757.53	228.13
757.86	228.08
758.19	228.04
758.51	227.98
758.84	227.88
759.17	227.81
759.49	227.77
759.82	227.76
760.15	227.73
760.47	227.68
760.80	227.61
761.13	227.59
761.45	227.54
761.78	227.49
762.11	227.45
762.43	227.36
762.76	227.32
763.08	227.29
763.41	227.25
763.74	227.23
764.06	227.19
764.39	227.14
764.71	227.10
765.04	227.05
765.37	226.99
765.69	226.96
766.02	226.92
766.34	226.88
766.67	226.81
767.00	226.78
767.32	226.79
767.65	226.83
767.97	226.77
768.30	226.74
768.62	226.70
768.95	226.66
769.27	226.61
769.60	226.58
769.92	226.53
770.25	226.47
770.57	226.42
770.90	226.39
771.22	226.36
771.55	226.33
771.87	226.31
772.20	226.28
772.52	226.34
772.85	226.43
773.17	226.40
773.50	226.36
773.82	226.32
774.15	226.24
774.47	226.14
774.80	226.10
775.12	226.07
775.45	226.04
775.77	226.02
776.09	226.00
776.42	225.98
776.74	225.99
777.07	225.96
777.39	225.93
777.72	225.90
778.04	225.88
778.36	225.85
778.69	225.82
779.01	225.80
779.33	225.68
779.66	225.54
779.98	225.51
780.31	225.50
780.63	225.52
780.95	225.52
781.28	225.50
781.60	225.48
781.92	225.46
782.25	225.44
782.57	225.43
782.89	225.41
783.22	225.38
783.54	225.34
783.86	225.33
784.19	225.31
784.51	225.32
784.83	225.29
785.16	225.27
785.48	225.25
785.80	225.24
786.12	225.23
786.45	225.22
786.77	225.21
787.09	225.19
787.42	225.13
787.74	225.11
788.06	225.09
788.38	225.07
788.71	225.04
789.03	225.03
789.35	225.01
789.67	224.98
789.99	224.96
790.32	224.94
790.64	224.93
790.96	225.01
791.28	224.95
791.61	224.93
791.93	224.92
792.25	224.91
792.57	224.96
792.89	224.93
793.21	224.93
793.54	224.89
793.86	224.87
794.18	224.86
794.50	224.83
794.82	224.82
795.14	224.83
795.47	224.83
795.79	224.83
796.11	224.79
796.43	224.78
796.75	224.77
797.07	224.77
797.39	224.75
797.71	224.65
798.04	224.64
798.36	224.64
798.68	224.63
799.00	224.63
799.32	224.57
799.64	224.57
799.96	224.55
800.28	224.57
800.60	224.55
800.92	224.55
801.24	224.54
801.56	224.55
801.89	224.52
802.21	224.52
802.53	224.48
802.85	224.50
803.17	224.55
803.49	224.51
803.81	224.50
804.13	224.49
804.45	224.47
804.77	224.48
805.09	224.46
805.41	224.44
805.73	224.41
806.05	224.38
806.37	224.37
806.69	224.36
807.01	224.34
807.33	224.34
807.65	224.29
807.97	224.33
808.28	224.30
808.60	224.30
808.92	224.28
809.24	224.32
809.56	224.30
809.88	224.24
810.20	224.25
810.52	224.26
810.84	224.24
811.16	224.21
811.48	224.20
811.80	224.25
812.12	224.25
812.43	224.25
812.75	224.25
813.07	224.23
813.39	224.22
813.71	224.21
814.03	224.20
814.35	224.20
814.67	224.15
814.98	224.14
815.30	224.12
815.62	224.10
815.94	224.04
816.26	224.05
816.58	224.03
816.89	224.03
817.21	224.00
817.53	224.00
817.85	224.00
818.17	223.99
818.48	223.92
818.80	223.93
819.12	223.91
819.44	223.88
819.76	223.86
820.07	223.85
820.39	223.84
820.71	223.83
821.03	223.82
821.34	223.81
821.66	223.81
821.98	223.82
822.30	223.82
822.61	223.87
822.93	223.85
823.25	223.84
823.57	223.82
823.88	223.82
824.20	223.82
824.52	223.83
824.83	223.82
825.15	223.81
825.47	223.80
825.79	223.81
826.10	223.80
826.42	223.80
826.74	223.80
827.05	223.79
827.37	223.80
827.69	223.79
828.00	223.79
828.32	223.78
828.64	223.76
828.95	223.81
829.27	223.77
829.58	223.77
829.90	223.79
830.22	223.79
830.53	223.78
830.85	223.77
831.17	223.75
831.48	223.75
831.80	223.75
832.11	223.74
832.43	223.73
832.75	223.73
833.06	223.78
833.38	223.76
833.69	223.76
834.01	223.76
834.32	223.75
834.64	223.74
834.96	223.75
835.27	223.75
835.59	223.70
835.90	223.69
836.22	223.67
836.53	223.65
836.85	223.63
837.16	223.73
837.48	223.73
837.79	223.75
838.11	223.75
838.42	223.75
838.74	223.76
839.05	223.75
839.37	223.75
839.68	223.68
840.00	223.67
840.31	223.68
840.63	223.67
840.94	223.67
841.26	223.66
841.57	223.64
841.88	223.65
842.20	223.63
842.51	223.62
842.83	223.62
843.14	223.71
843.46	223.70
843.77	223.64
844.08	223.62
844.40	223.59
844.71	223.58
845.03	223.58
845.34	223.56
845.65	223.56
845.97	223.56
846.28	223.57
846.60	223.58
846.91	223.56
847.22	223.55
847.54	223.56
847.85	223.57
848.16	223.56
848.48	223.54
848.79	223.59
849.10	223.60
849.42	223.61
849.73	223.51
850.04	223.51
850.36	223.48
850.67	223.50
850.98	223.50
851.30	223.51
851.61	223.50
851.92	223.50
852.23	223.53
852.55	223.53
852.86	223.54
853.17	223.53
853.49	223.56
853.80	223.58
854.11	223.59
854.42	223.60
854.74	223.59
855.05	223.61
855.36	223.55
855.67	223.55
855.99	223.54
856.30	223.67
856.61	223.66
856.92	223.67
857.23	223.67
857.55	223.65
857.86	223.65
858.17	223.67
858.48	223.66
858.79	223.64
859.11	223.65
859.42	223.63
859.73	223.62
860.04	223.61
860.35	223.57
860.66	223.55
860.98	223.54
861.29	223.55
861.60	223.54
861.91	223.57
862.22	223.55
862.53	223.54
862.84	223.41
863.16	223.44
863.47	223.43
863.78	223.42
864.09	223.42
864.40	223.43
864.71	223.42
865.02	223.43
865.33	223.41
865.64	223.39
865.95	223.40
866.27	223.46
866.58	223.46
866.89	223.47
867.20	223.47
867.51	223.45
867.82	223.44
868.13	223.47
868.44	223.45
868.75	223.47
869.06	223.48
869.37	223.49
869.68	223.46
869.99	223.47
870.30	223.48
870.61	223.49
870.92	223.48
871.23	223.47
871.54	223.49
871.85	223.52
872.16	223.54
872.47	223.53
872.78	223.47
873.09	223.48
873.40	223.47
873.71	223.47
874.02	223.48
874.33	223.46
874.64	223.44
874.95	223.45
875.26	223.42
875.56	223.43
875.87	223.42
876.18	223.42
876.49	223.52
876.80	223.50
877.11	223.49
877.42	223.49
877.73	223.48
878.04	223.46
878.35	223.46
878.66	223.46
878.96	223.46
879.27	223.45
879.58	223.45
879.89	223.44
880.20	223.47
880.51	223.47
880.82	223.48
881.12	223.49
881.43	223.47
881.74	223.46
882.05	223.45
882.36	223.45
882.67	223.45
882.97	223.34
883.28	223.32
883.59	223.31
883.90	223.31
884.21	223.33
884.51	223.33
884.82	223.31
885.13	223.31
885.44	223.30
885.74	223.31
886.05	223.31
886.36	223.30
886.67	223.27
886.98	223.32
887.28	223.32
887.59	223.31
887.90	223.32
888.20	223.32
888.51	223.35
888.82	223.34
889.13	223.35
889.43	223.44
889.74	223.44
890.05	223.45
890.35	223.44
890.66	223.42
890.97	223.41
891.28	223.40
891.58	223.41
891.89	223.41
892.20	223.39
892.50	223.38
892.81	223.38
893.12	223.37
893.42	223.32
893.73	223.34
894.04	223.34
894.34	223.35
894.65	223.35
894.95	223.33
895.26	223.34
895.57	223.38
895.87	223.28
896.18	223.30
896.48	223.30
896.79	223.29
897.10	223.30
897.40	223.30
897.71	223.31
898.01	223.30
898.32	223.30
898.63	223.30
898.93	223.31
899.24	223.32
899.54	223.32
899.85	223.31
900.15	223.30
900.46	223.30
900.76	223.30
901.07	223.31
901.38	223.30
901.68	223.31
901.99	223.26
902.29	223.27
902.60	223.26
902.90	223.25
903.21	223.25
903.51	223.24
903.82	223.27
904.12	223.27
904.43	223.27
904.73	223.27
905.03	223.27
905.34	223.36
905.64	223.36
905.95	223.36
906.25	223.35
906.56	223.35
906.86	223.34
907.17	223.33
907.47	223.33
907.77	223.32
908.08	223.30
908.38	223.31
908.69	223.31
908.99	223.34
909.30	223.34
909.60	223.33
909.90	223.34
910.21	223.31
910.51	223.30
910.81	223.31
911.12	223.30
911.42	223.31
911.73	223.20
912.03	223.21
912.33	223.23
912.64	223.22
912.94	223.22
913.24	223.21
913.55	223.20
913.85	223.19
914.15	223.22
914.46	223.23
914.76	223.22
915.06	223.21
915.37	223.19
915.67	223.19
915.97	223.20
916.27	223.18
916.58	223.18
916.88	223.19
917.18	223.17
917.49	223.24
917.79	223.24
918.09	223.26
918.39	223.28
918.70	223.27
919.00	223.27
919.30	223.32
919.60	223.32
919.91	223.31
920.21	223.31
920.51	223.28
920.81	223.27
921.12	223.28
921.42	223.28
921.72	223.29
922.02	223.29
922.32	223.30
922.63	223.30
922.93	223.36
923.23	223.36
923.53	223.36
923.83	223.28
924.13	223.29
924.44	223.28
924.74	223.30
925.04	223.32
925.34	223.32
925.64	223.27
925.94	223.28
926.24	223.34
926.55	223.34
926.85	223.34
927.15	223.34
927.45	223.34
927.75	223.34
928.05	223.34
928.35	223.34
928.65	223.35
928.95	223.36
929.26	223.31
929.56	223.33
929.86	223.34
930.16	223.33
930.46	223.32
930.76	223.32
931.06	223.27
931.36	223.23
931.66	223.24
931.96	223.25
932.26	223.26
932.56	223.20
932.86	223.20
933.16	223.21
933.46	223.20
933.76	223.19
934.06	223.20
934.36	223.23
934.66	223.23
934.96	223.21
935.26	223.21
935.56	223.23
935.86	223.20
936.16	223.18
936.46	223.17
936.76	223.16
937.06	223.15
937.36	223.15
937.66	223.16
937.96	223.15
938.26	223.14
938.56	223.12
938.86	223.12
939.16	223.15
939.46	223.15
939.76	223.16
940.06	223.15
940.35	223.12
940.65	223.07
940.95	223.08
941.25	223.05
941.55	223.04
941.85	223.03
942.15	223.06
942.45	223.08
942.75	223.08
943.04	223.09
943.34	223.10
943.64	223.10
943.94	223.08
944.24	223.08
944.54	223.08
944.84	223.08
945.13	223.07
945.43	223.04
945.73	223.04
946.03	223.03
946.33	223.02
946.62	223.01
946.92	223.00
947.22	223.00
947.52	223.02
947.82	223.02
948.11	223.01
948.41	222.98
948.71	222.95
949.01	222.96
949.31	222.94
949.60	222.93
949.90	222.94
950.20	222.93
950.50	222.92
950.79	222.91
951.09	222.93
951.39	222.92
951.69	222.91
951.98	222.93
952.28	222.94
952.58	222.92
952.87	222.92
953.17	222.95
953.47	222.95
953.76	222.94
954.06	222.92
954.36	222.91
954.66	222.90
954.95	222.93
955.25	222.94
955.55	222.95
955.84	222.94
956.14	222.95
956.44	222.96
956.73	222.96
957.03	222.96
957.32	222.97
957.62	222.96
957.92	222.98
958.21	222.97
958.51	223.09
958.81	223.11
959.10	223.12
959.40	223.14
959.69	223.14
959.99	223.15
960.29	223.16
960.58	223.16
960.88	223.21
961.17	223.19
961.47	223.21
961.76	223.20
962.06	223.22
962.36	223.21
962.65	223.21
962.95	223.22
963.24	223.21
963.54	223.21
963.83	223.22
964.13	223.22
964.42	223.21
964.72	223.12
965.01	223.11
965.31	223.11
965.60	223.08
965.90	223.14
966.19	223.12
966.49	223.13
966.78	223.13
967.08	223.11
967.37	223.11
967.67	223.09
967.96	223.11
968.26	223.12
968.55	223.13
968.85	223.12
969.14	223.13
969.43	223.12
969.73	223.12
970.02	223.12
970.32	223.11
970.61	223.09
970.91	223.07
971.20	223.06
971.49	223.05
971.79	223.06
972.08	223.00
972.38	223.00
972.67	223.00
972.96	223.01
973.26	222.99
973.55	223.02
973.85	223.01
974.14	222.99
974.43	222.99
974.73	222.96
975.02	222.95
975.31	222.94
975.61	222.94
975.90	222.93
976.19	222.93
976.49	222.94
976.78	222.94
977.07	222.94
977.37	222.95
977.66	222.96
977.95	222.94
978.24	222.94
978.54	222.97
978.83	222.96
979.12	222.95
979.42	222.95
979.71	222.93
980.00	222.93
980.29	222.94
980.59	222.92
980.88	222.96
981.17	222.97
981.46	222.97
981.76	222.98
982.05	223.01
982.34	223.00
982.63	223.00
982.93	223.00
983.22	223.02
983.51	223.03
983.80	223.04
984.09	223.06
984.39	223.05
984.68	223.03
984.97	223.04
985.26	223.03
985.55	223.04
985.85	223.02
986.14	223.03
986.43	223.05
986.72	223.05
987.01	223.02
987.30	223.02
987.59	223.01
987.89	223.00
988.18	222.97
988.47	222.96
988.76	222.94
989.05	222.94
989.34	222.93
989.63	222.96
989.92	222.94
990.22	222.93
990.51	222.93
990.80	222.92
991.09	222.93
991.38	222.94
991.67	222.93
991.96	222.93
992.25	222.93
992.54	222.91
992.83	222.91
993.12	222.91
993.41	222.92
993.70	222.97
993.99	222.99
994.28	223.01
994.58	223.03
994.87	223.03
995.16	223.02
995.45	223.01
995.74	222.97
996.03	222.99
996.32	223.00
996.61	223.03
996.90	223.02
997.19	223.01
997.48	223.02
997.77	223.01
998.06	223.00
998.34	222.99
998.63	222.99
998.92	223.00
999.21	223.02
999.50	223.01
999.79	222.97
1000.08	222.97
1000.37	222.97
1000.66	222.95
1000.95	222.98
1001.24	222.99
1001.53	223.01
1001.82	223.00
1002.11	222.96
1002.40	222.96
1002.68	222.99
1002.97	223.06
1003.26	223.05
1003.55	223.03
1003.84	223.04
1004.13	223.08
1004.42	223.08
1004.71	223.08
1004.99	223.06
1005.28	223.09
1005.57	223.08
1005.86	223.07
1006.15	223.07
1006.44	223.05
1006.72	223.07
1007.01	223.05
1007.30	223.05
1007.59	223.02
1007.88	223.03
1008.17	223.05
1008.45	223.03
1008.74	222.98
1009.03	222.94
1009.32	222.93
1009.60	222.94
1009.89	222.93
1010.18	222.88
1010.47	222.88
1010.76	222.88
1011.04	222.87
1011.33	222.87
1011.62	222.87
1011.91	222.88
1012.19	222.89
1012.48	222.89
1012.77	222.88
1013.05	222.92
1013.34	222.92
1013.63	222.93
1013.92	222.93
1014.20	222.92
1014.49	222.93
1014.78	222.94
1015.06	222.91
1015.35	222.92
1015.64	222.94
1015.92	222.95
1016.21	222.96
1016.50	222.96
1016.78	222.98
1017.07	222.99
1017.36	222.97
1017.64	222.96
1017.93	222.96
1018.22	222.94
1018.50	222.95
1018.79	222.95
1019.08	222.92
1019.36	222.92
1019.65	222.93
1019.93	222.95
1020.22	222.98
1020.51	223.03
1020.79	223.02
1021.08	222.68
1021.36	222.88
1021.65	223.02
1021.94	222.91
1022.22	223.10
1022.51	222.99
1022.79	223.39
1023.08	223.23
1023.36	224.19
1023.65	222.68
>>>>>End Processed Spectral Data<<<<<
