SpectraSuite Data File
++++++++++++++++++++++++++++++++++++
Date: Wed Sep 30 15:35:58 EDT 2015
User: lab3
Dark Spectrum Present: No
Reference Spectrum Present: No
Number of Sampled Component Spectra: 1
Spectrometers: USB2E7196
Integration Time (usec): 36000 (USB2E7196)
Spectra Averaged: 1500 (USB2E7196)
Boxcar Smoothing: 10 (USB2E7196)
Correct for Electrical Dark: No (USB2E7196)
Strobe/Lamp Enabled: No (USB2E7196)
Correct for Detector Non-linearity: No (USB2E7196)
Correct for Stray Light: No (USB2E7196)
Number of Pixels in Processed Spectrum: 2048
>>>>>Begin Processed Spectral Data<<<<<
339.09	0.00
339.48	211.53
339.86	212.94
340.24	214.45
340.63	215.77
341.01	218.79
341.39	218.52
341.78	220.00
342.16	221.02
342.54	221.55
342.93	210.08
343.31	220.71
343.69	221.25
344.07	221.71
344.46	222.14
344.84	222.52
345.22	222.76
345.60	223.00
345.99	223.19
346.37	223.33
346.75	223.43
347.13	223.51
347.52	223.58
347.90	223.67
348.28	223.70
348.66	223.76
349.05	223.77
349.43	223.80
349.81	223.85
350.19	223.92
350.57	223.98
350.96	224.06
351.34	224.15
351.72	224.24
352.10	224.35
352.48	224.41
352.87	224.48
353.25	224.54
353.63	224.61
354.01	224.68
354.39	224.76
354.77	224.83
355.15	224.93
355.54	224.98
355.92	225.01
356.30	225.09
356.68	225.23
357.06	225.30
357.44	225.35
357.82	225.41
358.20	225.52
358.58	225.57
358.97	225.63
359.35	225.71
359.73	225.79
360.11	225.84
360.49	225.90
360.87	225.94
361.25	226.00
361.63	226.07
362.01	226.12
362.39	226.14
362.77	226.19
363.15	226.21
363.53	226.24
363.91	226.27
364.29	226.29
364.67	226.21
365.05	226.22
365.43	226.25
365.81	226.29
366.19	226.28
366.57	226.33
366.95	226.33
367.33	226.30
367.71	226.28
368.09	226.29
368.47	226.28
368.85	226.27
369.23	226.27
369.61	226.22
369.99	226.22
370.37	226.21
370.75	226.27
371.13	226.23
371.51	226.19
371.89	226.16
372.27	226.13
372.65	226.11
373.03	226.07
373.41	226.02
373.78	225.97
374.16	225.88
374.54	225.80
374.92	225.75
375.30	225.71
375.68	225.65
376.06	225.59
376.44	225.54
376.82	225.49
377.19	225.44
377.57	225.39
377.95	225.32
378.33	225.26
378.71	225.11
379.09	225.07
379.47	225.04
379.84	224.98
380.22	224.91
380.60	224.84
380.98	224.79
381.36	224.73
381.73	224.66
382.11	224.63
382.49	224.58
382.87	224.52
383.25	224.48
383.62	224.56
384.00	224.50
384.38	224.45
384.76	224.43
385.13	224.41
385.51	224.37
385.89	224.31
386.27	224.28
386.64	224.26
387.02	224.21
387.40	224.17
387.78	224.14
388.15	224.13
388.53	224.09
388.91	224.06
389.29	224.03
389.66	224.02
390.04	223.98
390.42	223.98
390.79	223.96
391.17	223.95
391.55	223.81
391.92	223.80
392.30	223.80
392.68	223.77
393.05	223.75
393.43	223.75
393.81	223.76
394.18	223.74
394.56	223.74
394.94	223.77
395.31	223.76
395.69	223.79
396.06	223.81
396.44	223.85
396.82	223.86
397.19	223.93
397.57	223.95
397.95	223.99
398.32	224.00
398.70	224.04
399.07	224.09
399.45	224.13
399.82	224.17
400.20	224.21
400.58	224.26
400.95	224.27
401.33	224.35
401.70	224.47
402.08	224.56
402.45	224.64
402.83	224.74
403.20	224.84
403.58	224.93
403.95	225.05
404.33	225.19
404.71	225.30
405.08	225.48
405.46	225.63
405.83	225.79
406.21	225.95
406.58	226.14
406.96	226.33
407.33	226.55
407.70	226.79
408.08	227.12
408.45	227.42
408.83	227.74
409.20	228.02
409.58	228.28
409.95	228.63
410.33	229.01
410.70	229.36
411.08	229.77
411.45	230.22
411.82	230.66
412.20	231.17
412.57	231.78
412.95	232.25
413.32	232.88
413.69	233.52
414.07	234.21
414.44	234.95
414.82	235.70
415.19	236.59
415.56	237.49
415.94	238.42
416.31	239.46
416.68	240.49
417.06	241.71
417.43	242.85
417.81	244.17
418.18	245.51
418.55	246.97
418.93	248.51
419.30	250.10
419.67	251.80
420.04	253.54
420.42	255.36
420.79	257.48
421.16	259.60
421.54	261.76
421.91	264.02
422.28	266.38
422.66	268.90
423.03	271.31
423.40	273.84
423.77	276.55
424.15	279.35
424.52	282.26
424.89	285.40
425.26	288.54
425.64	291.45
426.01	294.71
426.38	298.05
426.75	301.49
427.13	305.03
427.50	308.73
427.87	312.57
428.24	316.46
428.61	320.19
428.99	324.20
429.36	328.59
429.73	332.79
430.10	336.98
430.47	341.28
430.85	345.68
431.22	350.37
431.59	355.23
431.96	359.93
432.33	365.15
432.70	370.10
433.08	375.97
433.45	381.48
433.82	386.93
434.19	393.03
434.56	398.99
434.93	404.74
435.30	410.42
435.68	416.81
436.05	423.05
436.42	429.32
436.79	435.04
437.16	441.23
437.53	447.81
437.90	454.40
438.27	460.82
438.64	467.81
439.01	474.13
439.38	479.86
439.75	485.41
440.13	491.72
440.50	497.70
440.87	502.41
441.24	507.60
441.61	513.32
441.98	517.50
442.35	522.48
442.72	527.56
443.09	532.41
443.46	535.53
443.83	537.82
444.20	539.73
444.57	542.53
444.94	544.14
445.31	545.84
445.68	547.35
446.05	548.46
446.42	548.23
446.79	547.86
447.16	547.55
447.53	547.30
447.90	545.39
448.27	543.62
448.64	540.83
449.01	538.97
449.37	534.96
449.74	531.29
450.11	526.59
450.48	521.46
450.85	516.31
451.22	511.94
451.59	507.65
451.96	503.73
452.33	498.03
452.70	492.97
453.07	486.80
453.43	480.62
453.80	474.64
454.17	468.90
454.54	463.61
454.91	457.65
455.28	452.01
455.65	446.69
456.02	441.00
456.38	436.42
456.75	430.53
457.12	425.80
457.49	421.05
457.86	416.53
458.23	412.54
458.59	408.14
458.96	403.60
459.33	399.63
459.70	395.60
460.07	392.53
460.43	388.91
460.80	385.52
461.17	382.53
461.54	379.30
461.91	376.30
462.27	373.23
462.64	370.71
463.01	367.83
463.38	364.92
463.74	362.28
464.11	359.94
464.48	357.81
464.85	355.54
465.21	353.77
465.58	351.84
465.95	349.63
466.32	347.85
466.68	346.12
467.05	344.37
467.42	342.68
467.78	340.85
468.15	339.15
468.52	337.91
468.88	336.29
469.25	334.78
469.62	333.58
469.98	332.28
470.35	331.14
470.72	330.10
471.08	329.05
471.45	328.20
471.82	327.24
472.18	326.24
472.55	325.59
472.92	324.81
473.28	324.19
473.65	323.55
474.02	322.94
474.38	322.44
474.75	322.16
475.11	321.75
475.48	321.61
475.85	321.47
476.21	321.42
476.58	321.42
476.94	321.61
477.31	321.72
477.67	321.88
478.04	322.13
478.41	322.49
478.77	322.95
479.14	323.28
479.50	323.86
479.87	324.58
480.23	325.29
480.60	325.97
480.96	326.68
481.33	327.65
481.69	328.63
482.06	329.59
482.42	330.51
482.79	331.63
483.15	332.92
483.52	334.34
483.88	335.72
484.25	337.18
484.61	338.71
484.98	340.35
485.34	342.18
485.71	344.11
486.07	346.13
486.44	348.16
486.80	350.39
487.17	352.68
487.53	355.20
487.90	357.83
488.26	360.69
488.62	363.70
488.99	366.73
489.35	369.90
489.72	373.31
490.08	376.87
490.44	380.49
490.81	384.29
491.17	388.20
491.54	392.40
491.90	396.70
492.26	401.33
492.63	406.22
492.99	411.26
493.36	416.42
493.72	421.86
494.08	427.47
494.45	433.37
494.81	439.52
495.17	445.76
495.54	452.36
495.90	459.26
496.26	466.32
496.63	473.60
496.99	481.20
497.35	489.17
497.72	497.39
498.08	505.86
498.44	514.53
498.80	523.72
499.17	533.11
499.53	542.85
499.89	552.82
500.26	563.02
500.62	573.46
500.98	584.59
501.34	595.85
501.71	607.61
502.07	619.62
502.43	631.96
502.79	644.66
503.16	657.78
503.52	671.03
503.88	684.63
504.24	698.68
504.60	712.94
504.97	727.56
505.33	742.64
505.69	758.54
506.05	774.72
506.41	790.97
506.78	807.46
507.14	824.43
507.50	841.84
507.86	859.57
508.22	877.63
508.59	895.75
508.95	914.56
509.31	933.80
509.67	953.76
510.03	973.90
510.39	994.26
510.75	1014.73
511.12	1035.48
511.48	1056.44
511.84	1077.68
512.20	1099.24
512.56	1121.85
512.92	1144.42
513.28	1166.70
513.64	1189.30
514.00	1212.32
514.37	1235.67
514.73	1259.03
515.09	1282.14
515.45	1305.63
515.81	1329.63
516.17	1353.66
516.53	1377.38
516.89	1401.14
517.25	1425.04
517.61	1449.11
517.97	1473.35
518.33	1497.54
518.69	1521.95
519.05	1546.62
519.41	1571.16
519.77	1595.96
520.13	1619.91
520.49	1644.20
520.85	1668.73
521.21	1692.95
521.57	1717.62
521.93	1741.43
522.29	1765.83
522.65	1790.19
523.01	1814.31
523.37	1837.56
523.73	1861.45
524.09	1885.58
524.45	1909.58
524.81	1933.03
525.17	1956.34
525.53	1979.26
525.89	2001.97
526.25	2024.67
526.61	2046.71
526.97	2069.09
527.33	2091.30
527.68	2113.45
528.04	2134.89
528.40	2155.89
528.76	2177.19
529.12	2197.48
529.48	2218.45
529.84	2237.58
530.20	2257.03
530.56	2276.06
530.91	2295.47
531.27	2314.25
531.63	2332.18
531.99	2349.55
532.35	2366.84
532.71	2384.24
533.07	2402.07
533.42	2418.56
533.78	2435.44
534.14	2452.39
534.50	2468.43
534.86	2485.00
535.21	2499.74
535.57	2514.01
535.93	2527.91
536.29	2540.39
536.65	2553.72
537.00	2566.11
537.36	2579.14
537.72	2591.14
538.08	2602.96
538.44	2613.73
538.79	2624.59
539.15	2633.72
539.51	2642.56
539.87	2650.56
540.22	2656.63
540.58	2662.88
540.94	2669.52
541.29	2674.71
541.65	2679.12
542.01	2683.16
542.37	2685.43
542.72	2689.43
543.08	2692.93
543.44	2696.12
543.79	2699.14
544.15	2700.86
544.51	2702.38
544.87	2703.14
545.22	2703.82
545.58	2703.62
545.94	2703.46
546.29	2701.98
546.65	2700.60
547.01	2699.48
547.36	2698.84
547.72	2698.49
548.07	2696.87
548.43	2694.46
548.79	2691.28
549.14	2688.04
549.50	2685.33
549.86	2681.67
550.21	2676.35
550.57	2671.40
550.92	2665.22
551.28	2659.37
551.64	2653.60
551.99	2648.05
552.35	2642.34
552.70	2635.84
553.06	2629.89
553.41	2623.58
553.77	2616.69
554.13	2610.74
554.48	2603.72
554.84	2595.25
555.19	2586.68
555.55	2577.37
555.90	2568.74
556.26	2561.11
556.61	2552.75
556.97	2542.57
557.32	2533.67
557.68	2524.56
558.03	2515.28
558.39	2506.69
558.74	2497.97
559.10	2488.49
559.45	2478.28
559.81	2468.18
560.16	2457.70
560.52	2446.99
560.87	2437.13
561.23	2426.89
561.58	2416.44
561.94	2405.99
562.29	2394.88
562.64	2384.25
563.00	2373.97
563.35	2363.78
563.71	2352.60
564.06	2341.64
564.42	2331.29
564.77	2320.48
565.12	2309.59
565.48	2298.32
565.83	2287.71
566.19	2277.28
566.54	2266.06
566.89	2254.51
567.25	2243.28
567.60	2232.89
567.96	2221.90
568.31	2209.83
568.66	2197.81
569.02	2186.53
569.37	2175.05
569.72	2164.16
570.08	2152.78
570.43	2140.87
570.78	2128.44
571.14	2116.36
571.49	2104.45
571.84	2092.58
572.20	2079.66
572.55	2067.47
572.90	2055.04
573.26	2041.84
573.61	2028.20
573.96	2015.04
574.31	2001.94
574.67	1988.83
575.02	1975.17
575.37	1961.36
575.72	1947.93
576.08	1934.65
576.43	1920.44
576.78	1906.48
577.13	1893.13
577.49	1879.75
577.84	1866.93
578.19	1853.38
578.54	1839.43
578.90	1825.16
579.25	1810.76
579.60	1797.54
579.95	1784.02
580.30	1770.78
580.66	1757.52
581.01	1744.01
581.36	1730.72
581.71	1718.29
582.06	1705.30
582.42	1692.62
582.77	1680.20
583.12	1667.24
583.47	1654.81
583.82	1642.43
584.17	1629.80
584.53	1617.10
584.88	1604.61
585.23	1591.60
585.58	1579.26
585.93	1567.09
586.28	1555.62
586.63	1544.01
586.98	1531.68
587.34	1519.60
587.69	1507.05
588.04	1495.05
588.39	1483.32
588.74	1471.10
589.09	1458.62
589.44	1446.12
589.79	1434.00
590.14	1422.13
590.49	1410.44
590.84	1398.63
591.19	1387.29
591.54	1375.47
591.89	1363.67
592.25	1352.20
592.60	1340.46
592.95	1329.02
593.30	1317.97
593.65	1306.76
594.00	1295.92
594.35	1285.64
594.70	1274.48
595.05	1264.02
595.40	1253.33
595.75	1242.43
596.10	1232.46
596.45	1222.62
596.80	1213.20
597.15	1203.58
597.50	1193.79
597.85	1184.29
598.19	1174.87
598.54	1165.18
598.89	1156.18
599.24	1147.28
599.59	1138.15
599.94	1129.97
600.29	1121.68
600.64	1113.18
600.99	1104.06
601.34	1095.27
601.69	1086.27
602.04	1078.24
602.39	1070.27
602.74	1062.41
603.08	1054.72
603.43	1046.60
603.78	1038.40
604.13	1030.31
604.48	1022.08
604.83	1014.17
605.18	1006.16
605.53	998.19
605.87	990.14
606.22	982.33
606.57	974.37
606.92	966.29
607.27	958.14
607.62	950.28
607.96	942.57
608.31	935.92
608.66	928.91
609.01	922.10
609.36	915.18
609.70	908.03
610.05	900.80
610.40	893.86
610.75	886.88
611.10	880.17
611.44	873.17
611.79	866.42
612.14	859.40
612.49	852.55
612.83	846.03
613.18	839.65
613.53	833.20
613.88	826.84
614.22	821.04
614.57	815.01
614.92	808.90
615.27	802.86
615.61	796.58
615.96	790.55
616.31	784.42
616.65	778.24
617.00	772.23
617.35	766.34
617.70	760.54
618.04	754.87
618.39	749.19
618.74	743.84
619.08	738.37
619.43	733.05
619.78	727.69
620.12	722.23
620.47	716.96
620.82	711.73
621.16	706.74
621.51	701.44
621.85	696.15
622.20	690.92
622.55	685.78
622.89	680.51
623.24	675.33
623.59	670.29
623.93	665.38
624.28	660.63
624.62	655.83
624.97	650.99
625.32	646.29
625.66	641.48
626.01	636.62
626.35	631.90
626.70	627.21
627.04	622.78
627.39	618.37
627.73	613.97
628.08	609.73
628.43	605.30
628.77	600.92
629.12	596.73
629.46	592.64
629.81	588.47
630.15	584.29
630.50	580.23
630.84	576.34
631.19	572.50
631.53	568.74
631.88	564.93
632.22	561.16
632.57	557.54
632.91	553.86
633.26	550.27
633.60	546.75
633.95	543.37
634.29	539.77
634.64	536.15
634.98	532.54
635.32	529.06
635.67	525.77
636.01	522.44
636.36	519.11
636.70	515.94
637.05	512.76
637.39	509.71
637.73	506.52
638.08	503.42
638.42	500.31
638.77	497.06
639.11	493.76
639.45	490.56
639.80	487.38
640.14	484.33
640.49	481.21
640.83	478.01
641.17	474.90
641.52	471.91
641.86	468.92
642.20	466.06
642.55	463.03
642.89	460.10
643.23	457.36
643.58	454.82
643.92	452.14
644.26	449.49
644.61	446.83
644.95	444.21
645.29	441.48
645.64	438.79
645.98	436.22
646.32	433.80
646.66	431.35
647.01	428.89
647.35	426.52
647.69	424.09
648.04	421.79
648.38	419.46
648.72	417.10
649.06	414.83
649.41	412.60
649.75	410.35
650.09	408.14
650.43	405.88
650.78	403.61
651.12	401.35
651.46	399.20
651.80	397.11
652.14	395.10
652.49	393.11
652.83	391.18
653.17	389.20
653.51	387.30
653.85	385.44
654.20	383.50
654.54	381.50
654.88	379.65
655.22	377.84
655.56	376.05
655.90	374.33
656.25	372.60
656.59	370.88
656.93	369.26
657.27	367.67
657.61	366.01
657.95	364.39
658.29	362.75
658.64	361.11
658.98	359.48
659.32	357.85
659.66	356.35
660.00	354.83
660.34	353.37
660.68	351.84
661.02	350.27
661.36	348.83
661.70	347.40
662.05	345.98
662.39	344.55
662.73	343.20
663.07	341.89
663.41	340.60
663.75	339.32
664.09	338.05
664.43	336.69
664.77	335.44
665.11	334.13
665.45	332.90
665.79	331.68
666.13	330.44
666.47	329.23
666.81	327.96
667.15	326.66
667.49	325.42
667.83	324.24
668.17	323.11
668.51	321.98
668.85	320.90
669.19	319.87
669.53	318.75
669.87	317.60
670.21	316.48
670.55	315.36
670.89	314.34
671.23	313.26
671.57	312.23
671.91	311.21
672.25	310.26
672.58	309.32
672.92	308.35
673.26	307.46
673.60	306.54
673.94	305.63
674.28	304.79
674.62	303.94
674.96	303.04
675.30	302.20
675.64	301.35
675.97	300.50
676.31	299.63
676.65	298.80
676.99	298.04
677.33	297.21
677.67	296.43
678.01	295.55
678.34	294.76
678.68	294.00
679.02	293.23
679.36	292.46
679.70	291.68
680.04	290.93
680.37	290.16
680.71	289.44
681.05	288.76
681.39	288.04
681.73	287.28
682.06	286.59
682.40	285.88
682.74	285.19
683.08	284.53
683.42	283.85
683.75	283.24
684.09	282.54
684.43	281.90
684.77	281.25
685.10	280.64
685.44	280.02
685.78	279.40
686.12	278.81
686.45	278.20
686.79	277.59
687.13	277.00
687.46	276.39
687.80	275.81
688.14	275.19
688.48	274.61
688.81	274.04
689.15	273.50
689.49	272.93
689.82	272.37
690.16	271.76
690.50	271.20
690.83	270.63
691.17	270.07
691.51	269.52
691.84	269.00
692.18	268.45
692.52	267.89
692.85	267.35
693.19	266.87
693.52	266.35
693.86	265.85
694.20	265.36
694.53	264.88
694.87	264.37
695.21	263.88
695.54	263.40
695.88	262.93
696.21	262.40
696.55	261.94
696.88	261.47
697.22	261.02
697.56	260.58
697.89	260.09
698.23	259.64
698.56	259.17
698.90	258.75
699.23	258.31
699.57	257.91
699.90	257.49
700.24	257.03
700.58	256.64
700.91	256.26
701.25	255.93
701.58	255.57
701.92	255.21
702.25	254.84
702.59	254.46
702.92	254.09
703.26	253.71
703.59	253.34
703.93	253.06
704.26	252.72
704.60	252.37
704.93	252.03
705.26	251.69
705.60	251.38
705.93	251.03
706.27	250.74
706.60	250.44
706.94	250.14
707.27	249.80
707.61	249.46
707.94	249.12
708.27	248.73
708.61	248.39
708.94	248.05
709.28	247.74
709.61	247.43
709.94	247.15
710.28	246.89
710.61	246.62
710.95	246.26
711.28	246.05
711.61	245.78
711.95	245.54
712.28	245.27
712.61	244.99
712.95	244.79
713.28	244.59
713.61	244.32
713.95	244.05
714.28	243.82
714.61	243.57
714.95	243.34
715.28	243.09
715.61	242.85
715.95	242.64
716.28	242.41
716.61	242.22
716.95	242.00
717.28	241.79
717.61	241.58
717.94	241.38
718.28	241.10
718.61	240.91
718.94	240.69
719.27	240.49
719.61	240.32
719.94	240.11
720.27	239.85
720.60	239.66
720.94	239.47
721.27	239.28
721.60	239.13
721.93	238.95
722.27	238.81
722.60	238.65
722.93	238.46
723.26	238.30
723.59	238.10
723.93	237.95
724.26	237.79
724.59	237.62
724.92	237.46
725.25	237.34
725.59	237.18
725.92	237.04
726.25	236.88
726.58	236.73
726.91	236.57
727.24	236.45
727.57	236.30
727.91	236.15
728.24	236.03
728.57	235.86
728.90	235.75
729.23	235.57
729.56	235.48
729.89	235.35
730.22	235.21
730.55	235.09
730.89	234.95
731.22	234.81
731.55	234.68
731.88	234.56
732.21	234.42
732.54	234.30
732.87	234.19
733.20	234.09
733.53	233.98
733.86	233.87
734.19	233.74
734.52	233.66
734.85	233.63
735.18	233.49
735.51	233.42
735.84	233.32
736.17	233.25
736.50	233.10
736.83	233.12
737.16	233.02
737.49	232.93
737.82	232.83
738.15	232.75
738.48	232.67
738.81	232.57
739.14	232.46
739.47	232.35
739.80	232.24
740.13	232.16
740.46	232.04
740.79	231.94
741.12	231.85
741.45	231.74
741.78	231.59
742.11	231.54
742.44	231.43
742.77	231.35
743.10	231.25
743.43	231.16
743.75	230.98
744.08	231.06
744.41	230.97
744.74	230.88
745.07	230.79
745.40	230.72
745.73	230.69
746.06	230.61
746.39	230.56
746.71	230.48
747.04	230.40
747.37	230.33
747.70	230.27
748.03	230.21
748.36	230.16
748.68	230.08
749.01	229.99
749.34	229.92
749.67	229.87
750.00	229.82
750.33	229.84
750.65	229.78
750.98	229.57
751.31	229.51
751.64	229.46
751.97	229.45
752.29	229.38
752.62	229.28
752.95	229.22
753.28	229.15
753.60	229.08
753.93	229.05
754.26	229.01
754.59	228.91
754.91	228.85
755.24	228.78
755.57	228.76
755.90	228.70
756.22	228.63
756.55	228.55
756.88	228.46
757.20	228.34
757.53	228.27
757.86	228.21
758.19	228.16
758.51	228.10
758.84	228.00
759.17	227.94
759.49	227.90
759.82	227.89
760.15	227.85
760.47	227.81
760.80	227.74
761.13	227.70
761.45	227.65
761.78	227.60
762.11	227.55
762.43	227.46
762.76	227.42
763.08	227.39
763.41	227.36
763.74	227.33
764.06	227.28
764.39	227.23
764.71	227.19
765.04	227.15
765.37	227.10
765.69	227.07
766.02	227.03
766.34	226.98
766.67	226.90
767.00	226.88
767.32	226.91
767.65	226.95
767.97	226.90
768.30	226.88
768.62	226.85
768.95	226.82
769.27	226.79
769.60	226.78
769.92	226.73
770.25	226.67
770.57	226.63
770.90	226.60
771.22	226.57
771.55	226.54
771.87	226.51
772.20	226.48
772.52	226.53
772.85	226.63
773.17	226.60
773.50	226.57
773.82	226.52
774.15	226.43
774.47	226.34
774.80	226.30
775.12	226.27
775.45	226.24
775.77	226.21
776.09	226.19
776.42	226.17
776.74	226.17
777.07	226.14
777.39	226.12
777.72	226.08
778.04	226.06
778.36	226.03
778.69	226.01
779.01	226.00
779.33	225.88
779.66	225.75
779.98	225.71
780.31	225.70
780.63	225.73
780.95	225.71
781.28	225.69
781.60	225.65
781.92	225.63
782.25	225.62
782.57	225.59
782.89	225.56
783.22	225.53
783.54	225.50
783.86	225.50
784.19	225.48
784.51	225.49
784.83	225.47
785.16	225.45
785.48	225.44
785.80	225.42
786.12	225.42
786.45	225.40
786.77	225.40
787.09	225.38
787.42	225.32
787.74	225.31
788.06	225.29
788.38	225.28
788.71	225.26
789.03	225.24
789.35	225.23
789.67	225.21
789.99	225.21
790.32	225.18
790.64	225.17
790.96	225.26
791.28	225.20
791.61	225.19
791.93	225.18
792.25	225.15
792.57	225.20
792.89	225.17
793.21	225.15
793.54	225.12
793.86	225.10
794.18	225.08
794.50	225.05
794.82	225.03
795.14	225.02
795.47	225.04
795.79	225.03
796.11	225.00
796.43	224.98
796.75	224.96
797.07	224.95
797.39	224.93
797.71	224.81
798.04	224.81
798.36	224.80
798.68	224.79
799.00	224.79
799.32	224.74
799.64	224.74
799.96	224.73
800.28	224.75
800.60	224.74
800.92	224.74
801.24	224.72
801.56	224.73
801.89	224.71
802.21	224.70
802.53	224.68
802.85	224.70
803.17	224.74
803.49	224.71
803.81	224.69
804.13	224.68
804.45	224.66
804.77	224.65
805.09	224.64
805.41	224.62
805.73	224.59
806.05	224.55
806.37	224.53
806.69	224.51
807.01	224.49
807.33	224.49
807.65	224.44
807.97	224.49
808.28	224.46
808.60	224.45
808.92	224.42
809.24	224.47
809.56	224.45
809.88	224.39
810.20	224.39
810.52	224.41
810.84	224.38
811.16	224.37
811.48	224.35
811.80	224.38
812.12	224.37
812.43	224.39
812.75	224.39
813.07	224.37
813.39	224.36
813.71	224.35
814.03	224.33
814.35	224.33
814.67	224.28
814.98	224.28
815.30	224.27
815.62	224.25
815.94	224.18
816.26	224.17
816.58	224.15
816.89	224.15
817.21	224.12
817.53	224.13
817.85	224.12
818.17	224.12
818.48	224.08
818.80	224.10
819.12	224.07
819.44	224.04
819.76	224.02
820.07	224.02
820.39	224.00
820.71	224.01
821.03	224.00
821.34	224.00
821.66	223.99
821.98	224.01
822.30	224.01
822.61	224.06
822.93	224.05
823.25	224.04
823.57	224.03
823.88	224.04
824.20	224.04
824.52	224.05
824.83	224.03
825.15	224.02
825.47	224.00
825.79	224.01
826.10	224.00
826.42	224.00
826.74	224.01
827.05	224.01
827.37	224.01
827.69	224.00
828.00	224.00
828.32	224.00
828.64	223.98
828.95	224.03
829.27	224.00
829.58	223.99
829.90	224.01
830.22	224.01
830.53	224.00
830.85	223.99
831.17	223.95
831.48	223.96
831.80	223.97
832.11	223.96
832.43	223.94
832.75	223.94
833.06	223.99
833.38	223.96
833.69	223.95
834.01	223.95
834.32	223.95
834.64	223.93
834.96	223.92
835.27	223.92
835.59	223.89
835.90	223.87
836.22	223.87
836.53	223.85
836.85	223.83
837.16	223.93
837.48	223.93
837.79	223.97
838.11	223.97
838.42	223.96
838.74	223.97
839.05	223.97
839.37	223.97
839.68	223.91
840.00	223.91
840.31	223.92
840.63	223.90
840.94	223.90
841.26	223.88
841.57	223.88
841.88	223.89
842.20	223.86
842.51	223.85
842.83	223.85
843.14	223.93
843.46	223.93
843.77	223.87
844.08	223.86
844.40	223.82
844.71	223.80
845.03	223.79
845.34	223.78
845.65	223.77
845.97	223.78
846.28	223.77
846.60	223.77
846.91	223.76
847.22	223.76
847.54	223.77
847.85	223.78
848.16	223.77
848.48	223.75
848.79	223.79
849.10	223.80
849.42	223.81
849.73	223.72
850.04	223.72
850.36	223.68
850.67	223.69
850.98	223.69
851.30	223.70
851.61	223.70
851.92	223.70
852.23	223.73
852.55	223.74
852.86	223.75
853.17	223.74
853.49	223.76
853.80	223.78
854.11	223.78
854.42	223.79
854.74	223.78
855.05	223.78
855.36	223.73
855.67	223.73
855.99	223.72
856.30	223.85
856.61	223.84
856.92	223.84
857.23	223.85
857.55	223.85
857.86	223.85
858.17	223.85
858.48	223.83
858.79	223.80
859.11	223.80
859.42	223.79
859.73	223.79
860.04	223.78
860.35	223.75
860.66	223.73
860.98	223.72
861.29	223.73
861.60	223.73
861.91	223.76
862.22	223.74
862.53	223.72
862.84	223.60
863.16	223.62
863.47	223.60
863.78	223.58
864.09	223.58
864.40	223.59
864.71	223.60
865.02	223.63
865.33	223.62
865.64	223.61
865.95	223.61
866.27	223.67
866.58	223.65
866.89	223.67
867.20	223.67
867.51	223.65
867.82	223.65
868.13	223.67
868.44	223.65
868.75	223.68
869.06	223.68
869.37	223.69
869.68	223.67
869.99	223.69
870.30	223.70
870.61	223.70
870.92	223.68
871.23	223.66
871.54	223.66
871.85	223.70
872.16	223.70
872.47	223.69
872.78	223.63
873.09	223.65
873.40	223.63
873.71	223.64
874.02	223.65
874.33	223.64
874.64	223.62
874.95	223.63
875.26	223.61
875.56	223.60
875.87	223.60
876.18	223.59
876.49	223.69
876.80	223.69
877.11	223.66
877.42	223.67
877.73	223.68
878.04	223.66
878.35	223.65
878.66	223.66
878.96	223.65
879.27	223.65
879.58	223.64
879.89	223.63
880.20	223.66
880.51	223.66
880.82	223.65
881.12	223.66
881.43	223.63
881.74	223.62
882.05	223.61
882.36	223.61
882.67	223.62
882.97	223.50
883.28	223.49
883.59	223.49
883.90	223.50
884.21	223.50
884.51	223.50
884.82	223.48
885.13	223.47
885.44	223.47
885.74	223.47
886.05	223.46
886.36	223.46
886.67	223.42
886.98	223.47
887.28	223.48
887.59	223.47
887.90	223.48
888.20	223.48
888.51	223.50
888.82	223.47
889.13	223.47
889.43	223.57
889.74	223.57
890.05	223.56
890.35	223.55
890.66	223.53
890.97	223.53
891.28	223.52
891.58	223.52
891.89	223.52
892.20	223.52
892.50	223.52
892.81	223.51
893.12	223.51
893.42	223.46
893.73	223.46
894.04	223.44
894.34	223.45
894.65	223.44
894.95	223.43
895.26	223.44
895.57	223.48
895.87	223.37
896.18	223.39
896.48	223.39
896.79	223.40
897.10	223.41
897.40	223.42
897.71	223.42
898.01	223.41
898.32	223.43
898.63	223.42
898.93	223.42
899.24	223.43
899.54	223.43
899.85	223.42
900.15	223.41
900.46	223.42
900.76	223.43
901.07	223.44
901.38	223.43
901.68	223.46
901.99	223.40
902.29	223.42
902.60	223.41
902.90	223.41
903.21	223.41
903.51	223.40
903.82	223.41
904.12	223.42
904.43	223.42
904.73	223.40
905.03	223.41
905.34	223.52
905.64	223.51
905.95	223.50
906.25	223.51
906.56	223.51
906.86	223.49
907.17	223.49
907.47	223.49
907.77	223.47
908.08	223.44
908.38	223.46
908.69	223.45
908.99	223.47
909.30	223.46
909.60	223.46
909.90	223.47
910.21	223.44
910.51	223.42
910.81	223.43
911.12	223.44
911.42	223.44
911.73	223.33
912.03	223.34
912.33	223.37
912.64	223.35
912.94	223.35
913.24	223.34
913.55	223.33
913.85	223.32
914.15	223.34
914.46	223.35
914.76	223.34
915.06	223.33
915.37	223.31
915.67	223.30
915.97	223.29
916.27	223.27
916.58	223.28
916.88	223.28
917.18	223.26
917.49	223.32
917.79	223.32
918.09	223.33
918.39	223.37
918.70	223.35
919.00	223.36
919.30	223.41
919.60	223.41
919.91	223.40
920.21	223.41
920.51	223.39
920.81	223.39
921.12	223.41
921.42	223.40
921.72	223.41
922.02	223.42
922.32	223.44
922.63	223.46
922.93	223.51
923.23	223.53
923.53	223.53
923.83	223.45
924.13	223.46
924.44	223.45
924.74	223.46
925.04	223.48
925.34	223.49
925.64	223.45
925.94	223.46
926.24	223.52
926.55	223.52
926.85	223.53
927.15	223.53
927.45	223.52
927.75	223.52
928.05	223.52
928.35	223.51
928.65	223.53
928.95	223.52
929.26	223.47
929.56	223.49
929.86	223.50
930.16	223.49
930.46	223.49
930.76	223.49
931.06	223.45
931.36	223.41
931.66	223.43
931.96	223.44
932.26	223.44
932.56	223.39
932.86	223.39
933.16	223.39
933.46	223.38
933.76	223.37
934.06	223.40
934.36	223.43
934.66	223.43
934.96	223.42
935.26	223.43
935.56	223.45
935.86	223.42
936.16	223.40
936.46	223.39
936.76	223.39
937.06	223.37
937.36	223.38
937.66	223.39
937.96	223.37
938.26	223.34
938.56	223.34
938.86	223.35
939.16	223.37
939.46	223.37
939.76	223.39
940.06	223.39
940.35	223.38
940.65	223.32
940.95	223.33
941.25	223.30
941.55	223.28
941.85	223.27
942.15	223.28
942.45	223.32
942.75	223.32
943.04	223.31
943.34	223.33
943.64	223.32
943.94	223.31
944.24	223.31
944.54	223.32
944.84	223.32
945.13	223.31
945.43	223.28
945.73	223.27
946.03	223.26
946.33	223.24
946.62	223.23
946.92	223.24
947.22	223.24
947.52	223.25
947.82	223.27
948.11	223.26
948.41	223.23
948.71	223.19
949.01	223.19
949.31	223.19
949.60	223.18
949.90	223.19
950.20	223.19
950.50	223.19
950.79	223.19
951.09	223.20
951.39	223.19
951.69	223.18
951.98	223.20
952.28	223.21
952.58	223.21
952.87	223.20
953.17	223.21
953.47	223.20
953.76	223.19
954.06	223.17
954.36	223.15
954.66	223.16
954.95	223.18
955.25	223.20
955.55	223.21
955.84	223.19
956.14	223.20
956.44	223.21
956.73	223.18
957.03	223.18
957.32	223.18
957.62	223.18
957.92	223.19
958.21	223.19
958.51	223.30
958.81	223.32
959.10	223.33
959.40	223.36
959.69	223.36
959.99	223.38
960.29	223.38
960.58	223.38
960.88	223.41
961.17	223.41
961.47	223.41
961.76	223.39
962.06	223.42
962.36	223.40
962.65	223.40
962.95	223.42
963.24	223.41
963.54	223.41
963.83	223.42
964.13	223.41
964.42	223.39
964.72	223.31
965.01	223.30
965.31	223.30
965.60	223.27
965.90	223.33
966.19	223.30
966.49	223.32
966.78	223.32
967.08	223.31
967.37	223.31
967.67	223.30
967.96	223.32
968.26	223.32
968.55	223.33
968.85	223.32
969.14	223.32
969.43	223.33
969.73	223.32
970.02	223.32
970.32	223.32
970.61	223.30
970.91	223.27
971.20	223.26
971.49	223.26
971.79	223.26
972.08	223.20
972.38	223.22
972.67	223.21
972.96	223.22
973.26	223.20
973.55	223.23
973.85	223.22
974.14	223.22
974.43	223.22
974.73	223.22
975.02	223.21
975.31	223.21
975.61	223.20
975.90	223.20
976.19	223.19
976.49	223.19
976.78	223.20
977.07	223.20
977.37	223.21
977.66	223.22
977.95	223.21
978.24	223.22
978.54	223.23
978.83	223.22
979.12	223.21
979.42	223.21
979.71	223.19
980.00	223.19
980.29	223.19
980.59	223.16
980.88	223.17
981.17	223.17
981.46	223.17
981.76	223.17
982.05	223.20
982.34	223.21
982.63	223.20
982.93	223.21
983.22	223.23
983.51	223.23
983.80	223.23
984.09	223.26
984.39	223.24
984.68	223.23
984.97	223.22
985.26	223.22
985.55	223.23
985.85	223.20
986.14	223.21
986.43	223.21
986.72	223.21
987.01	223.18
987.30	223.18
987.59	223.17
987.89	223.17
988.18	223.14
988.47	223.13
988.76	223.12
989.05	223.10
989.34	223.09
989.63	223.12
989.92	223.10
990.22	223.08
990.51	223.07
990.80	223.05
991.09	223.07
991.38	223.07
991.67	223.06
991.96	223.06
992.25	223.06
992.54	223.05
992.83	223.05
993.12	223.05
993.41	223.07
993.70	223.12
993.99	223.13
994.28	223.15
994.58	223.16
994.87	223.15
995.16	223.15
995.45	223.14
995.74	223.11
996.03	223.12
996.32	223.13
996.61	223.17
996.90	223.16
997.19	223.17
997.48	223.17
997.77	223.16
998.06	223.17
998.34	223.16
998.63	223.17
998.92	223.17
999.21	223.19
999.50	223.18
999.79	223.14
1000.08	223.13
1000.37	223.13
1000.66	223.12
1000.95	223.15
1001.24	223.16
1001.53	223.16
1001.82	223.17
1002.11	223.15
1002.40	223.16
1002.68	223.18
1002.97	223.25
1003.26	223.23
1003.55	223.22
1003.84	223.22
1004.13	223.26
1004.42	223.27
1004.71	223.27
1004.99	223.25
1005.28	223.28
1005.57	223.28
1005.86	223.28
1006.15	223.27
1006.44	223.26
1006.72	223.27
1007.01	223.26
1007.30	223.26
1007.59	223.25
1007.88	223.24
1008.17	223.25
1008.45	223.23
1008.74	223.19
1009.03	223.15
1009.32	223.15
1009.60	223.16
1009.89	223.16
1010.18	223.11
1010.47	223.10
1010.76	223.10
1011.04	223.11
1011.33	223.10
1011.62	223.11
1011.91	223.11
1012.19	223.12
1012.48	223.12
1012.77	223.12
1013.05	223.16
1013.34	223.16
1013.63	223.16
1013.92	223.17
1014.20	223.17
1014.49	223.17
1014.78	223.18
1015.06	223.15
1015.35	223.15
1015.64	223.16
1015.92	223.18
1016.21	223.18
1016.50	223.19
1016.78	223.21
1017.07	223.22
1017.36	223.20
1017.64	223.18
1017.93	223.20
1018.22	223.19
1018.50	223.19
1018.79	223.19
1019.08	223.15
1019.36	223.15
1019.65	223.15
1019.93	223.17
1020.22	223.19
1020.51	223.24
1020.79	223.23
1021.08	223.20
1021.36	223.08
1021.65	223.18
1021.94	223.01
1022.22	223.20
1022.51	223.00
1022.79	223.64
1023.08	223.34
1023.36	224.45
1023.65	222.93
>>>>>End Processed Spectral Data<<<<<
