SpectraSuite Data File
++++++++++++++++++++++++++++++++++++
Date: Wed Sep 30 20:35:04 EDT 2015
User: lab3
Dark Spectrum Present: No
Reference Spectrum Present: No
Number of Sampled Component Spectra: 1
Spectrometers: USB2E7196
Integration Time (usec): 36000 (USB2E7196)
Spectra Averaged: 10000 (USB2E7196)
Boxcar Smoothing: 10 (USB2E7196)
Correct for Electrical Dark: No (USB2E7196)
Strobe/Lamp Enabled: No (USB2E7196)
Correct for Detector Non-linearity: No (USB2E7196)
Correct for Stray Light: No (USB2E7196)
Number of Pixels in Processed Spectrum: 2048
>>>>>Begin Processed Spectral Data<<<<<
339.09	0.00
339.48	210.42
339.86	211.85
340.24	213.21
340.63	214.67
341.01	217.65
341.39	217.38
341.78	218.74
342.16	219.88
342.54	220.37
342.93	208.99
343.31	219.55
343.69	220.09
344.07	220.55
344.46	220.98
344.84	221.37
345.22	221.60
345.60	221.86
345.99	222.05
346.37	222.19
346.75	222.30
347.13	222.38
347.52	222.45
347.90	222.53
348.28	222.57
348.66	222.62
349.05	222.62
349.43	222.68
349.81	222.73
350.19	222.78
350.57	222.85
350.96	222.94
351.34	223.03
351.72	223.13
352.10	223.23
352.48	223.31
352.87	223.36
353.25	223.43
353.63	223.49
354.01	223.56
354.39	223.64
354.77	223.71
355.15	223.82
355.54	223.87
355.92	223.91
356.30	223.98
356.68	224.12
357.06	224.20
357.44	224.25
357.82	224.31
358.20	224.42
358.58	224.48
358.97	224.54
359.35	224.62
359.73	224.70
360.11	224.76
360.49	224.81
360.87	224.86
361.25	224.92
361.63	225.00
362.01	225.06
362.39	225.09
362.77	225.13
363.15	225.16
363.53	225.19
363.91	225.22
364.29	225.25
364.67	225.17
365.05	225.20
365.43	225.23
365.81	225.26
366.19	225.27
366.57	225.32
366.95	225.32
367.33	225.30
367.71	225.29
368.09	225.30
368.47	225.29
368.85	225.29
369.23	225.30
369.61	225.24
369.99	225.25
370.37	225.25
370.75	225.31
371.13	225.27
371.51	225.23
371.89	225.21
372.27	225.18
372.65	225.16
373.03	225.12
373.41	225.07
373.78	225.02
374.16	224.93
374.54	224.85
374.92	224.80
375.30	224.76
375.68	224.69
376.06	224.65
376.44	224.59
376.82	224.54
377.19	224.49
377.57	224.44
377.95	224.35
378.33	224.29
378.71	224.14
379.09	224.10
379.47	224.06
379.84	223.99
380.22	223.93
380.60	223.86
380.98	223.81
381.36	223.76
381.73	223.69
382.11	223.66
382.49	223.62
382.87	223.56
383.25	223.51
383.62	223.58
384.00	223.52
384.38	223.47
384.76	223.45
385.13	223.44
385.51	223.40
385.89	223.35
386.27	223.32
386.64	223.30
387.02	223.25
387.40	223.20
387.78	223.18
388.15	223.15
388.53	223.12
388.91	223.08
389.29	223.05
389.66	223.04
390.04	223.00
390.42	222.99
390.79	222.98
391.17	222.96
391.55	222.83
391.92	222.82
392.30	222.82
392.68	222.78
393.05	222.76
393.43	222.76
393.81	222.76
394.18	222.74
394.56	222.74
394.94	222.77
395.31	222.77
395.69	222.80
396.06	222.83
396.44	222.85
396.82	222.86
397.19	222.93
397.57	222.95
397.95	222.98
398.32	222.98
398.70	223.02
399.07	223.08
399.45	223.11
399.82	223.15
400.20	223.18
400.58	223.24
400.95	223.25
401.33	223.33
401.70	223.46
402.08	223.55
402.45	223.63
402.83	223.73
403.20	223.83
403.58	223.92
403.95	224.03
404.33	224.16
404.71	224.28
405.08	224.46
405.46	224.61
405.83	224.77
406.21	224.94
406.58	225.13
406.96	225.31
407.33	225.53
407.70	225.76
408.08	226.08
408.45	226.36
408.83	226.67
409.20	226.94
409.58	227.19
409.95	227.53
410.33	227.90
410.70	228.24
411.08	228.65
411.45	229.08
411.82	229.52
412.20	230.02
412.57	230.62
412.95	231.09
413.32	231.70
413.69	232.31
414.07	232.98
414.44	233.69
414.82	234.43
415.19	235.28
415.56	236.15
415.94	237.06
416.31	238.08
416.68	239.10
417.06	240.28
417.43	241.39
417.81	242.67
418.18	243.97
418.55	245.39
418.93	246.86
419.30	248.40
419.67	250.05
420.04	251.73
420.42	253.50
420.79	255.54
421.16	257.60
421.54	259.69
421.91	261.88
422.28	264.15
422.66	266.60
423.03	268.94
423.40	271.40
423.77	274.02
424.15	276.72
424.52	279.52
424.89	282.55
425.26	285.56
425.64	288.36
426.01	291.51
426.38	294.73
426.75	298.05
427.13	301.45
427.50	305.00
427.87	308.70
428.24	312.42
428.61	315.98
428.99	319.83
429.36	324.05
429.73	328.09
430.10	332.12
430.47	336.23
430.85	340.45
431.22	344.96
431.59	349.58
431.96	354.07
432.33	359.06
432.70	363.78
433.08	369.37
433.45	374.65
433.82	379.83
434.19	385.61
434.56	391.29
434.93	396.77
435.30	402.18
435.68	408.29
436.05	414.26
436.42	420.22
436.79	425.66
437.16	431.51
437.53	437.79
437.90	444.06
438.27	450.18
438.64	456.83
439.01	462.84
439.38	468.32
439.75	473.63
440.13	479.68
440.50	485.44
440.87	489.98
441.24	494.97
441.61	500.49
441.98	504.54
442.35	509.35
442.72	514.30
443.09	519.03
443.46	522.09
443.83	524.36
444.20	526.29
444.57	529.10
444.94	530.80
445.31	532.54
445.68	534.12
446.05	535.31
446.42	535.21
446.79	535.02
447.16	534.88
447.53	534.78
447.90	533.06
448.27	531.45
448.64	528.87
449.01	527.19
449.37	523.45
449.74	520.05
450.11	515.66
450.48	510.81
450.85	505.95
451.22	501.81
451.59	497.77
451.96	494.10
452.33	488.68
452.70	483.86
453.07	477.98
453.43	472.07
453.80	466.36
454.17	460.87
454.54	455.78
454.91	450.01
455.28	444.58
455.65	439.47
456.02	434.02
456.38	429.62
456.75	423.93
457.12	419.35
457.49	414.73
457.86	410.31
458.23	406.45
458.59	402.17
458.96	397.76
459.33	393.88
459.70	389.92
460.07	386.91
460.43	383.35
460.80	380.02
461.17	377.08
461.54	373.92
461.91	370.96
462.27	367.95
462.64	365.49
463.01	362.66
463.38	359.82
463.74	357.24
464.11	354.94
464.48	352.86
464.85	350.64
465.21	348.93
465.58	347.06
465.95	344.88
466.32	343.14
466.68	341.44
467.05	339.73
467.42	338.09
467.78	336.30
468.15	334.66
468.52	333.43
468.88	331.83
469.25	330.36
469.62	329.19
469.98	327.92
470.35	326.79
470.72	325.77
471.08	324.74
471.45	323.88
471.82	322.93
472.18	321.95
472.55	321.31
472.92	320.52
473.28	319.90
473.65	319.27
474.02	318.66
474.38	318.17
474.75	317.89
475.11	317.48
475.48	317.32
475.85	317.15
476.21	317.10
476.58	317.10
476.94	317.28
477.31	317.39
477.67	317.54
478.04	317.79
478.41	318.12
478.77	318.57
479.14	318.90
479.50	319.44
479.87	320.11
480.23	320.79
480.60	321.44
480.96	322.12
481.33	323.06
481.69	324.00
482.06	324.93
482.42	325.81
482.79	326.87
483.15	328.07
483.52	329.43
483.88	330.74
484.25	332.15
484.61	333.61
484.98	335.18
485.34	336.94
485.71	338.76
486.07	340.70
486.44	342.64
486.80	344.79
487.17	346.99
487.53	349.41
487.90	351.93
488.26	354.66
488.62	357.53
488.99	360.41
489.35	363.43
489.72	366.67
490.08	370.09
490.44	373.60
490.81	377.28
491.17	381.05
491.54	385.07
491.90	389.19
492.26	393.62
492.63	398.29
492.99	403.14
493.36	408.13
493.72	413.38
494.08	418.77
494.45	424.46
494.81	430.35
495.17	436.36
495.54	442.72
495.90	449.37
496.26	456.17
496.63	463.20
496.99	470.51
497.35	478.18
497.72	486.15
498.08	494.28
498.44	502.66
498.80	511.58
499.17	520.73
499.53	530.23
499.89	539.94
500.26	549.81
500.62	559.96
500.98	570.78
501.34	581.73
501.71	593.21
502.07	604.92
502.43	617.03
502.79	629.48
503.16	642.32
503.52	655.36
503.88	668.75
504.24	682.59
504.60	696.70
504.97	711.20
505.33	726.07
505.69	741.82
506.05	757.76
506.41	773.73
506.78	789.99
507.14	806.73
507.50	824.08
507.86	841.82
508.22	859.81
508.59	877.82
508.95	896.55
509.31	915.72
509.67	935.56
510.03	955.63
510.39	975.92
510.75	996.43
511.12	1017.24
511.48	1038.41
511.84	1059.64
512.20	1081.20
512.56	1103.82
512.92	1126.68
513.28	1149.29
513.64	1172.21
514.00	1195.53
514.37	1219.18
514.73	1242.87
515.09	1266.36
515.45	1290.28
515.81	1314.79
516.17	1339.34
516.53	1363.59
516.89	1387.93
517.25	1412.45
517.61	1437.15
517.97	1462.07
518.33	1486.73
518.69	1511.54
519.05	1536.61
519.41	1561.82
519.77	1587.30
520.13	1612.07
520.49	1636.97
520.85	1662.10
521.21	1687.17
521.57	1712.86
521.93	1737.83
522.29	1763.66
522.65	1789.23
523.01	1814.60
523.37	1839.27
523.73	1864.59
524.09	1890.07
524.45	1915.43
524.81	1940.33
525.17	1965.16
525.53	1989.59
525.89	2014.10
526.25	2038.79
526.61	2062.92
526.97	2087.39
527.33	2111.75
527.68	2135.91
528.04	2159.28
528.40	2182.53
528.76	2205.96
529.12	2228.35
529.48	2251.13
529.84	2272.11
530.20	2293.64
530.56	2314.84
530.91	2336.11
531.27	2356.86
531.63	2377.01
531.99	2396.66
532.35	2415.96
532.71	2435.39
533.07	2455.43
533.42	2473.87
533.78	2492.76
534.14	2511.61
534.50	2529.58
534.86	2548.22
535.21	2565.05
535.57	2581.85
535.93	2597.85
536.29	2612.69
536.65	2628.32
537.00	2642.82
537.36	2657.81
537.72	2671.80
538.08	2685.53
538.44	2698.05
538.79	2710.82
539.15	2721.93
539.51	2732.97
539.87	2743.67
540.22	2752.20
540.58	2760.81
540.94	2770.04
541.29	2777.72
541.65	2784.44
542.01	2790.66
542.37	2795.01
542.72	2801.30
543.08	2806.98
543.44	2812.55
543.79	2817.27
544.15	2821.15
544.51	2825.03
544.87	2828.02
545.22	2830.54
545.58	2832.04
545.94	2834.04
546.29	2834.56
546.65	2835.24
547.01	2835.90
547.36	2836.73
547.72	2837.74
548.07	2837.27
548.43	2836.16
548.79	2834.39
549.14	2832.70
549.50	2831.51
549.86	2829.53
550.21	2825.03
550.57	2821.03
550.92	2815.65
551.28	2810.84
551.64	2805.89
551.99	2801.38
552.35	2796.45
552.70	2791.10
553.06	2786.51
553.41	2781.43
553.77	2775.73
554.13	2770.67
554.48	2764.79
554.84	2757.24
555.19	2749.82
555.55	2741.80
555.90	2734.33
556.26	2727.91
556.61	2720.84
556.97	2711.65
557.32	2703.27
557.68	2695.35
558.03	2686.73
558.39	2678.76
558.74	2671.06
559.10	2662.11
559.45	2652.82
559.81	2643.83
560.16	2634.17
560.52	2624.01
560.87	2614.90
561.23	2605.45
561.58	2595.50
561.94	2585.26
562.29	2574.57
562.64	2564.43
563.00	2554.62
563.35	2544.66
563.71	2533.79
564.06	2522.39
564.42	2512.02
564.77	2501.27
565.12	2490.66
565.48	2479.78
565.83	2469.59
566.19	2459.37
566.54	2448.83
566.89	2437.28
567.25	2425.67
567.60	2414.94
567.96	2403.74
568.31	2391.14
568.66	2378.48
569.02	2366.87
569.37	2355.07
569.72	2343.74
570.08	2331.69
570.43	2319.12
570.78	2306.25
571.14	2293.16
571.49	2280.84
571.84	2268.86
572.20	2255.56
572.55	2242.60
572.90	2229.54
573.26	2215.60
573.61	2201.04
573.96	2186.74
574.31	2172.82
574.67	2159.19
575.02	2145.11
575.37	2130.61
575.72	2116.36
576.08	2102.73
576.43	2088.03
576.78	2073.32
577.13	2059.41
577.49	2045.62
577.84	2032.19
578.19	2017.90
578.54	2003.22
578.90	1988.03
579.25	1972.52
579.60	1958.52
579.95	1944.17
580.30	1929.82
580.66	1915.72
581.01	1901.23
581.36	1887.15
581.71	1873.61
582.06	1859.55
582.42	1845.54
582.77	1832.29
583.12	1818.71
583.47	1805.12
583.82	1791.68
584.17	1778.13
584.53	1764.44
584.88	1750.72
585.23	1736.68
585.58	1723.16
585.93	1710.03
586.28	1697.73
586.63	1685.26
586.98	1672.04
587.34	1659.06
587.69	1645.57
588.04	1632.30
588.39	1619.77
588.74	1606.69
589.09	1593.35
589.44	1579.98
589.79	1567.20
590.14	1554.27
590.49	1541.52
590.84	1528.65
591.19	1516.44
591.54	1503.74
591.89	1490.86
592.25	1478.32
592.60	1465.35
592.95	1452.96
593.30	1440.90
593.65	1428.61
594.00	1416.50
594.35	1405.21
594.70	1393.08
595.05	1382.02
595.40	1370.83
595.75	1359.01
596.10	1347.96
596.45	1337.13
596.80	1326.76
597.15	1316.16
597.50	1305.58
597.85	1295.21
598.19	1285.04
598.54	1274.24
598.89	1264.17
599.24	1254.41
599.59	1244.41
599.94	1235.46
600.29	1226.40
600.64	1217.10
600.99	1207.22
601.34	1197.84
601.69	1187.81
602.04	1178.88
602.39	1169.80
602.74	1160.97
603.08	1152.38
603.43	1143.29
603.78	1134.07
604.13	1125.03
604.48	1115.91
604.83	1107.06
605.18	1098.12
605.53	1089.12
605.87	1080.24
606.22	1071.64
606.57	1062.77
606.92	1053.99
607.27	1045.05
607.62	1036.19
607.96	1027.52
608.31	1019.85
608.66	1011.75
609.01	1004.11
609.36	996.40
609.70	988.47
610.05	980.36
610.40	972.61
610.75	964.98
611.10	957.65
611.44	949.89
611.79	942.47
612.14	934.64
612.49	926.95
612.83	919.77
613.18	912.66
613.53	905.34
613.88	898.09
614.22	891.45
614.57	884.67
614.92	877.85
615.27	871.05
615.61	864.11
615.96	857.38
616.31	850.56
616.65	843.66
617.00	837.00
617.35	830.48
617.70	823.99
618.04	817.57
618.39	811.16
618.74	805.10
619.08	798.82
619.43	792.84
619.78	786.88
620.12	780.71
620.47	774.71
620.82	768.79
621.16	763.22
621.51	757.28
621.85	751.32
622.20	745.41
622.55	739.70
622.89	733.95
623.24	728.23
623.59	722.62
623.93	717.03
624.28	711.57
624.62	706.11
624.97	700.61
625.32	695.24
625.66	689.73
626.01	684.23
626.35	678.88
626.70	673.53
627.04	668.37
627.39	663.26
627.73	658.27
628.08	653.51
628.43	648.64
628.77	643.85
629.12	639.18
629.46	634.70
629.81	630.03
630.15	625.22
630.50	620.59
630.84	616.12
631.19	611.86
631.53	607.65
631.88	603.31
632.22	599.09
632.57	595.10
632.91	591.08
633.26	587.13
633.60	583.26
633.95	579.52
634.29	575.62
634.64	571.69
634.98	567.63
635.32	563.74
635.67	559.99
636.01	556.18
636.36	552.40
636.70	548.77
637.05	545.13
637.39	541.70
637.73	538.13
638.08	534.64
638.42	531.11
638.77	527.44
639.11	523.78
639.45	520.15
639.80	516.51
640.14	513.07
640.49	509.58
640.83	505.98
641.17	502.42
641.52	499.02
641.86	495.63
642.20	492.41
642.55	489.05
642.89	485.75
643.23	482.65
643.58	479.80
643.92	476.83
644.26	473.90
644.61	470.94
644.95	468.00
645.29	464.99
645.64	461.96
645.98	459.07
646.32	456.35
646.66	453.64
647.01	450.90
647.35	448.21
647.69	445.40
648.04	442.74
648.38	440.11
648.72	437.44
649.06	434.85
649.41	432.29
649.75	429.73
650.09	427.20
650.43	424.66
650.78	422.10
651.12	419.54
651.46	417.07
651.80	414.71
652.14	412.42
652.49	410.15
652.83	407.93
653.17	405.70
653.51	403.54
653.85	401.44
654.20	399.29
654.54	397.03
654.88	394.99
655.22	393.00
655.56	390.97
655.90	389.05
656.25	387.13
656.59	385.20
656.93	383.38
657.27	381.61
657.61	379.73
657.95	377.91
658.29	376.09
658.64	374.32
658.98	372.51
659.32	370.74
659.66	369.07
660.00	367.42
660.34	365.79
660.68	364.11
661.02	362.36
661.36	360.73
661.70	359.18
662.05	357.60
662.39	356.01
662.73	354.51
663.07	353.03
663.41	351.57
663.75	350.14
664.09	348.72
664.43	347.21
664.77	345.81
665.11	344.34
665.45	342.96
665.79	341.57
666.13	340.19
666.47	338.78
666.81	337.35
667.15	335.88
667.49	334.51
667.83	333.19
668.17	331.92
668.51	330.67
668.85	329.43
669.19	328.27
669.53	327.04
669.87	325.78
670.21	324.56
670.55	323.35
670.89	322.22
671.23	321.04
671.57	319.88
671.91	318.78
672.25	317.75
672.58	316.70
672.92	315.62
673.26	314.61
673.60	313.60
673.94	312.58
674.28	311.63
674.62	310.67
674.96	309.68
675.30	308.75
675.64	307.79
675.97	306.85
676.31	305.86
676.65	304.91
676.99	304.02
677.33	303.07
677.67	302.18
678.01	301.20
678.34	300.30
678.68	299.46
679.02	298.58
679.36	297.71
679.70	296.85
680.04	296.01
680.37	295.17
680.71	294.35
681.05	293.59
681.39	292.79
681.73	291.95
682.06	291.15
682.40	290.36
682.74	289.60
683.08	288.86
683.42	288.10
683.75	287.42
684.09	286.65
684.43	285.94
684.77	285.21
685.10	284.53
685.44	283.84
685.78	283.13
686.12	282.47
686.45	281.78
686.79	281.10
687.13	280.44
687.46	279.76
687.80	279.09
688.14	278.39
688.48	277.75
688.81	277.11
689.15	276.52
689.49	275.87
689.82	275.25
690.16	274.58
690.50	273.97
690.83	273.35
691.17	272.76
691.51	272.18
691.84	271.62
692.18	271.03
692.52	270.43
692.85	269.85
693.19	269.30
693.52	268.75
693.86	268.20
694.20	267.65
694.53	267.14
694.87	266.60
695.21	266.10
695.54	265.59
695.88	265.06
696.21	264.50
696.55	264.00
696.88	263.49
697.22	263.00
697.56	262.52
697.89	261.98
698.23	261.47
698.56	260.94
698.90	260.47
699.23	259.98
699.57	259.53
699.90	259.07
700.24	258.58
700.58	258.13
700.91	257.71
701.25	257.36
701.58	256.98
701.92	256.59
702.25	256.17
702.59	255.74
702.92	255.34
703.26	254.95
703.59	254.55
703.93	254.23
704.26	253.86
704.60	253.48
704.93	253.11
705.26	252.75
705.60	252.43
705.93	252.05
706.27	251.73
706.60	251.40
706.94	251.08
707.27	250.70
707.61	250.34
707.94	249.98
708.27	249.54
708.61	249.16
708.94	248.80
709.28	248.46
709.61	248.13
709.94	247.83
710.28	247.53
710.61	247.24
710.95	246.86
711.28	246.63
711.61	246.35
711.95	246.09
712.28	245.80
712.61	245.49
712.95	245.27
713.28	245.04
713.61	244.76
713.95	244.47
714.28	244.22
714.61	243.96
714.95	243.70
715.28	243.44
715.61	243.20
715.95	242.97
716.28	242.73
716.61	242.51
716.95	242.26
717.28	242.04
717.61	241.79
717.94	241.57
718.28	241.27
718.61	241.04
718.94	240.79
719.27	240.58
719.61	240.39
719.94	240.15
720.27	239.88
720.60	239.68
720.94	239.48
721.27	239.29
721.60	239.12
721.93	238.93
722.27	238.78
722.60	238.60
722.93	238.40
723.26	238.23
723.59	238.02
723.93	237.85
724.26	237.69
724.59	237.51
724.92	237.35
725.25	237.22
725.59	237.05
725.92	236.92
726.25	236.76
726.58	236.60
726.91	236.43
727.24	236.29
727.57	236.14
727.91	235.97
728.24	235.84
728.57	235.68
728.90	235.55
729.23	235.37
729.56	235.26
729.89	235.13
730.22	234.97
730.55	234.84
730.89	234.69
731.22	234.55
731.55	234.41
731.88	234.28
732.21	234.13
732.54	234.00
732.87	233.87
733.20	233.75
733.53	233.64
733.86	233.53
734.19	233.39
734.52	233.30
734.85	233.26
735.18	233.12
735.51	233.04
735.84	232.92
736.17	232.85
736.50	232.69
736.83	232.70
737.16	232.60
737.49	232.51
737.82	232.41
738.15	232.32
738.48	232.23
738.81	232.12
739.14	232.02
739.47	231.91
739.80	231.81
740.13	231.72
740.46	231.61
740.79	231.50
741.12	231.41
741.45	231.29
741.78	231.14
742.11	231.08
742.44	230.95
742.77	230.87
743.10	230.77
743.43	230.67
743.75	230.47
744.08	230.54
744.41	230.45
744.74	230.36
745.07	230.24
745.40	230.18
745.73	230.14
746.06	230.07
746.39	230.01
746.71	229.92
747.04	229.83
747.37	229.75
747.70	229.69
748.03	229.62
748.36	229.56
748.68	229.49
749.01	229.38
749.34	229.31
749.67	229.24
750.00	229.19
750.33	229.20
750.65	229.14
750.98	228.92
751.31	228.85
751.64	228.79
751.97	228.79
752.29	228.71
752.62	228.59
752.95	228.52
753.28	228.43
753.60	228.37
753.93	228.33
754.26	228.27
754.59	228.17
754.91	228.09
755.24	228.02
755.57	228.00
755.90	227.94
756.22	227.87
756.55	227.79
756.88	227.70
757.20	227.57
757.53	227.48
757.86	227.42
758.19	227.37
758.51	227.32
758.84	227.21
759.17	227.15
759.49	227.10
759.82	227.10
760.15	227.06
760.47	227.00
760.80	226.92
761.13	226.89
761.45	226.84
761.78	226.80
762.11	226.75
762.43	226.65
762.76	226.61
763.08	226.58
763.41	226.54
763.74	226.50
764.06	226.45
764.39	226.41
764.71	226.37
765.04	226.31
765.37	226.26
765.69	226.22
766.02	226.17
766.34	226.12
766.67	226.05
767.00	226.02
767.32	226.04
767.65	226.07
767.97	226.01
768.30	225.99
768.62	225.95
768.95	225.90
769.27	225.86
769.60	225.83
769.92	225.78
770.25	225.73
770.57	225.68
770.90	225.65
771.22	225.60
771.55	225.57
771.87	225.55
772.20	225.51
772.52	225.57
772.85	225.67
773.17	225.64
773.50	225.60
773.82	225.55
774.15	225.46
774.47	225.37
774.80	225.33
775.12	225.29
775.45	225.26
775.77	225.24
776.09	225.22
776.42	225.19
776.74	225.20
777.07	225.17
777.39	225.15
777.72	225.11
778.04	225.10
778.36	225.07
778.69	225.04
779.01	225.03
779.33	224.91
779.66	224.76
779.98	224.73
780.31	224.71
780.63	224.74
780.95	224.74
781.28	224.71
781.60	224.69
781.92	224.67
782.25	224.65
782.57	224.62
782.89	224.60
783.22	224.57
783.54	224.53
783.86	224.51
784.19	224.49
784.51	224.50
784.83	224.47
785.16	224.45
785.48	224.43
785.80	224.41
786.12	224.40
786.45	224.39
786.77	224.38
787.09	224.36
787.42	224.31
787.74	224.29
788.06	224.28
788.38	224.26
788.71	224.24
789.03	224.22
789.35	224.22
789.67	224.19
789.99	224.19
790.32	224.16
790.64	224.15
790.96	224.23
791.28	224.18
791.61	224.16
791.93	224.15
792.25	224.13
792.57	224.18
792.89	224.15
793.21	224.14
793.54	224.12
793.86	224.09
794.18	224.08
794.50	224.04
794.82	224.03
795.14	224.03
795.47	224.03
795.79	224.02
796.11	223.99
796.43	223.97
796.75	223.96
797.07	223.96
797.39	223.94
797.71	223.84
798.04	223.84
798.36	223.83
798.68	223.82
799.00	223.82
799.32	223.76
799.64	223.77
799.96	223.75
800.28	223.76
800.60	223.75
800.92	223.75
801.24	223.73
801.56	223.73
801.89	223.71
802.21	223.70
802.53	223.67
802.85	223.69
803.17	223.73
803.49	223.69
803.81	223.67
804.13	223.65
804.45	223.63
804.77	223.63
805.09	223.62
805.41	223.60
805.73	223.57
806.05	223.53
806.37	223.51
806.69	223.50
807.01	223.48
807.33	223.47
807.65	223.42
807.97	223.46
808.28	223.45
808.60	223.43
808.92	223.41
809.24	223.47
809.56	223.44
809.88	223.39
810.20	223.40
810.52	223.41
810.84	223.39
811.16	223.38
811.48	223.36
811.80	223.39
812.12	223.38
812.43	223.39
812.75	223.39
813.07	223.38
813.39	223.38
813.71	223.36
814.03	223.34
814.35	223.34
814.67	223.29
814.98	223.27
815.30	223.26
815.62	223.24
815.94	223.17
816.26	223.17
816.58	223.15
816.89	223.15
817.21	223.11
817.53	223.11
817.85	223.11
818.17	223.10
818.48	223.06
818.80	223.07
819.12	223.05
819.44	223.03
819.76	223.01
820.07	223.00
820.39	223.00
820.71	223.00
821.03	223.00
821.34	222.99
821.66	222.99
821.98	223.00
822.30	222.99
822.61	223.05
822.93	223.03
823.25	223.02
823.57	223.01
823.88	223.02
824.20	223.02
824.52	223.03
824.83	223.02
825.15	223.01
825.47	222.99
825.79	223.00
826.10	222.99
826.42	222.98
826.74	222.98
827.05	222.97
827.37	222.97
827.69	222.96
828.00	222.97
828.32	222.96
828.64	222.94
828.95	223.00
829.27	222.96
829.58	222.97
829.90	222.98
830.22	222.98
830.53	222.97
830.85	222.95
831.17	222.92
831.48	222.92
831.80	222.92
832.11	222.91
832.43	222.89
832.75	222.89
833.06	222.95
833.38	222.92
833.69	222.92
834.01	222.92
834.32	222.91
834.64	222.90
834.96	222.90
835.27	222.90
835.59	222.86
835.90	222.84
836.22	222.83
836.53	222.81
836.85	222.79
837.16	222.89
837.48	222.89
837.79	222.93
838.11	222.93
838.42	222.92
838.74	222.93
839.05	222.92
839.37	222.92
839.68	222.85
840.00	222.85
840.31	222.86
840.63	222.85
840.94	222.84
841.26	222.83
841.57	222.82
841.88	222.84
842.20	222.82
842.51	222.80
842.83	222.80
843.14	222.89
843.46	222.89
843.77	222.82
844.08	222.82
844.40	222.78
844.71	222.77
845.03	222.76
845.34	222.75
845.65	222.75
845.97	222.75
846.28	222.75
846.60	222.76
846.91	222.73
847.22	222.73
847.54	222.75
847.85	222.76
848.16	222.75
848.48	222.73
848.79	222.76
849.10	222.78
849.42	222.79
849.73	222.69
850.04	222.69
850.36	222.65
850.67	222.66
850.98	222.66
851.30	222.67
851.61	222.67
851.92	222.66
852.23	222.69
852.55	222.69
852.86	222.70
853.17	222.70
853.49	222.73
853.80	222.75
854.11	222.74
854.42	222.76
854.74	222.74
855.05	222.75
855.36	222.69
855.67	222.69
855.99	222.68
856.30	222.81
856.61	222.81
856.92	222.81
857.23	222.81
857.55	222.80
857.86	222.79
858.17	222.80
858.48	222.79
858.79	222.77
859.11	222.77
859.42	222.76
859.73	222.74
860.04	222.73
860.35	222.70
860.66	222.67
860.98	222.66
861.29	222.68
861.60	222.67
861.91	222.70
862.22	222.68
862.53	222.67
862.84	222.54
863.16	222.56
863.47	222.54
863.78	222.53
864.09	222.54
864.40	222.54
864.71	222.54
865.02	222.56
865.33	222.55
865.64	222.53
865.95	222.53
866.27	222.60
866.58	222.59
866.89	222.60
867.20	222.60
867.51	222.59
867.82	222.58
868.13	222.61
868.44	222.59
868.75	222.61
869.06	222.62
869.37	222.63
869.68	222.60
869.99	222.62
870.30	222.63
870.61	222.64
870.92	222.62
871.23	222.61
871.54	222.62
871.85	222.64
872.16	222.65
872.47	222.65
872.78	222.58
873.09	222.59
873.40	222.58
873.71	222.58
874.02	222.59
874.33	222.58
874.64	222.55
874.95	222.56
875.26	222.54
875.56	222.54
875.87	222.53
876.18	222.52
876.49	222.63
876.80	222.61
877.11	222.60
877.42	222.60
877.73	222.61
878.04	222.58
878.35	222.58
878.66	222.58
878.96	222.58
879.27	222.58
879.58	222.57
879.89	222.57
880.20	222.59
880.51	222.59
880.82	222.59
881.12	222.60
881.43	222.58
881.74	222.57
882.05	222.56
882.36	222.57
882.67	222.57
882.97	222.46
883.28	222.45
883.59	222.45
883.90	222.45
884.21	222.47
884.51	222.46
884.82	222.45
885.13	222.44
885.44	222.44
885.74	222.44
886.05	222.44
886.36	222.44
886.67	222.40
886.98	222.45
887.28	222.46
887.59	222.46
887.90	222.45
888.20	222.45
888.51	222.48
888.82	222.46
889.13	222.47
889.43	222.56
889.74	222.55
890.05	222.55
890.35	222.54
890.66	222.52
890.97	222.51
891.28	222.50
891.58	222.50
891.89	222.50
892.20	222.49
892.50	222.48
892.81	222.47
893.12	222.47
893.42	222.42
893.73	222.42
894.04	222.42
894.34	222.43
894.65	222.43
894.95	222.41
895.26	222.42
895.57	222.46
895.87	222.36
896.18	222.38
896.48	222.39
896.79	222.38
897.10	222.40
897.40	222.41
897.71	222.42
898.01	222.41
898.32	222.42
898.63	222.42
898.93	222.43
899.24	222.43
899.54	222.43
899.85	222.43
900.15	222.42
900.46	222.42
900.76	222.43
901.07	222.42
901.38	222.42
901.68	222.42
901.99	222.37
902.29	222.38
902.60	222.37
902.90	222.36
903.21	222.36
903.51	222.35
903.82	222.37
904.12	222.37
904.43	222.37
904.73	222.36
905.03	222.37
905.34	222.47
905.64	222.46
905.95	222.46
906.25	222.46
906.56	222.46
906.86	222.46
907.17	222.44
907.47	222.45
907.77	222.44
908.08	222.42
908.38	222.43
908.69	222.43
908.99	222.45
909.30	222.45
909.60	222.45
909.90	222.46
910.21	222.42
910.51	222.41
910.81	222.40
911.12	222.41
911.42	222.41
911.73	222.30
912.03	222.31
912.33	222.33
912.64	222.32
912.94	222.31
913.24	222.30
913.55	222.29
913.85	222.27
914.15	222.29
914.46	222.31
914.76	222.30
915.06	222.29
915.37	222.27
915.67	222.26
915.97	222.26
916.27	222.24
916.58	222.25
916.88	222.25
917.18	222.24
917.49	222.31
917.79	222.31
918.09	222.32
918.39	222.35
918.70	222.34
919.00	222.34
919.30	222.39
919.60	222.39
919.91	222.38
920.21	222.39
920.51	222.37
920.81	222.36
921.12	222.38
921.42	222.38
921.72	222.38
922.02	222.39
922.32	222.41
922.63	222.41
922.93	222.46
923.23	222.47
923.53	222.46
923.83	222.39
924.13	222.40
924.44	222.39
924.74	222.40
925.04	222.42
925.34	222.42
925.64	222.38
925.94	222.38
926.24	222.44
926.55	222.43
926.85	222.44
927.15	222.44
927.45	222.43
927.75	222.43
928.05	222.43
928.35	222.42
928.65	222.43
928.95	222.44
929.26	222.39
929.56	222.41
929.86	222.42
930.16	222.42
930.46	222.41
930.76	222.42
931.06	222.36
931.36	222.33
931.66	222.35
931.96	222.36
932.26	222.37
932.56	222.32
932.86	222.33
933.16	222.33
933.46	222.32
933.76	222.30
934.06	222.32
934.36	222.36
934.66	222.35
934.96	222.34
935.26	222.33
935.56	222.35
935.86	222.32
936.16	222.30
936.46	222.29
936.76	222.29
937.06	222.27
937.36	222.28
937.66	222.28
937.96	222.27
938.26	222.25
938.56	222.24
938.86	222.24
939.16	222.26
939.46	222.27
939.76	222.28
940.06	222.27
940.35	222.25
940.65	222.21
940.95	222.21
941.25	222.19
941.55	222.18
941.85	222.16
942.15	222.19
942.45	222.22
942.75	222.22
943.04	222.23
943.34	222.25
943.64	222.24
943.94	222.23
944.24	222.23
944.54	222.24
944.84	222.23
945.13	222.22
945.43	222.20
945.73	222.20
946.03	222.19
946.33	222.18
946.62	222.17
946.92	222.17
947.22	222.18
947.52	222.18
947.82	222.19
948.11	222.18
948.41	222.16
948.71	222.13
949.01	222.13
949.31	222.13
949.60	222.11
949.90	222.13
950.20	222.13
950.50	222.12
950.79	222.12
951.09	222.13
951.39	222.13
951.69	222.12
951.98	222.15
952.28	222.15
952.58	222.15
952.87	222.15
953.17	222.17
953.47	222.16
953.76	222.16
954.06	222.14
954.36	222.13
954.66	222.13
954.95	222.16
955.25	222.16
955.55	222.17
955.84	222.16
956.14	222.16
956.44	222.17
956.73	222.15
957.03	222.16
957.32	222.16
957.62	222.15
957.92	222.17
958.21	222.16
958.51	222.28
958.81	222.29
959.10	222.30
959.40	222.33
959.69	222.33
959.99	222.35
960.29	222.35
960.58	222.34
960.88	222.38
961.17	222.37
961.47	222.38
961.76	222.37
962.06	222.39
962.36	222.38
962.65	222.38
962.95	222.38
963.24	222.37
963.54	222.38
963.83	222.38
964.13	222.38
964.42	222.37
964.72	222.27
965.01	222.27
965.31	222.26
965.60	222.23
965.90	222.29
966.19	222.27
966.49	222.28
966.78	222.27
967.08	222.26
967.37	222.26
967.67	222.23
967.96	222.26
968.26	222.25
968.55	222.26
968.85	222.26
969.14	222.25
969.43	222.25
969.73	222.24
970.02	222.24
970.32	222.23
970.61	222.21
970.91	222.18
971.20	222.16
971.49	222.16
971.79	222.17
972.08	222.10
972.38	222.11
972.67	222.10
972.96	222.11
973.26	222.09
973.55	222.12
973.85	222.12
974.14	222.11
974.43	222.11
974.73	222.09
975.02	222.08
975.31	222.08
975.61	222.08
975.90	222.07
976.19	222.07
976.49	222.08
976.78	222.08
977.07	222.08
977.37	222.09
977.66	222.10
977.95	222.08
978.24	222.09
978.54	222.11
978.83	222.10
979.12	222.09
979.42	222.09
979.71	222.07
980.00	222.07
980.29	222.08
980.59	222.05
980.88	222.08
981.17	222.08
981.46	222.08
981.76	222.08
982.05	222.11
982.34	222.12
982.63	222.12
982.93	222.12
983.22	222.15
983.51	222.15
983.80	222.17
984.09	222.18
984.39	222.17
984.68	222.16
984.97	222.16
985.26	222.15
985.55	222.16
985.85	222.15
986.14	222.16
986.43	222.18
986.72	222.17
987.01	222.14
987.30	222.14
987.59	222.14
987.89	222.14
988.18	222.11
988.47	222.10
988.76	222.09
989.05	222.08
989.34	222.07
989.63	222.09
989.92	222.07
990.22	222.06
990.51	222.06
990.80	222.06
991.09	222.06
991.38	222.08
991.67	222.07
991.96	222.06
992.25	222.06
992.54	222.04
992.83	222.04
993.12	222.04
993.41	222.06
993.70	222.10
993.99	222.12
994.28	222.13
994.58	222.15
994.87	222.14
995.16	222.14
995.45	222.13
995.74	222.09
996.03	222.11
996.32	222.13
996.61	222.14
996.90	222.15
997.19	222.14
997.48	222.14
997.77	222.13
998.06	222.13
998.34	222.12
998.63	222.12
998.92	222.13
999.21	222.15
999.50	222.14
999.79	222.11
1000.08	222.10
1000.37	222.10
1000.66	222.09
1000.95	222.11
1001.24	222.12
1001.53	222.13
1001.82	222.13
1002.11	222.11
1002.40	222.12
1002.68	222.14
1002.97	222.21
1003.26	222.20
1003.55	222.18
1003.84	222.19
1004.13	222.23
1004.42	222.22
1004.71	222.23
1004.99	222.22
1005.28	222.24
1005.57	222.23
1005.86	222.22
1006.15	222.21
1006.44	222.20
1006.72	222.21
1007.01	222.19
1007.30	222.19
1007.59	222.18
1007.88	222.17
1008.17	222.18
1008.45	222.15
1008.74	222.11
1009.03	222.06
1009.32	222.07
1009.60	222.07
1009.89	222.06
1010.18	222.01
1010.47	222.01
1010.76	222.01
1011.04	222.00
1011.33	222.00
1011.62	222.01
1011.91	222.02
1012.19	222.02
1012.48	222.02
1012.77	222.02
1013.05	222.06
1013.34	222.06
1013.63	222.05
1013.92	222.06
1014.20	222.06
1014.49	222.06
1014.78	222.07
1015.06	222.04
1015.35	222.04
1015.64	222.05
1015.92	222.07
1016.21	222.08
1016.50	222.09
1016.78	222.10
1017.07	222.11
1017.36	222.09
1017.64	222.07
1017.93	222.08
1018.22	222.08
1018.50	222.07
1018.79	222.07
1019.08	222.04
1019.36	222.04
1019.65	222.04
1019.93	222.07
1020.22	222.08
1020.51	222.14
1020.79	222.13
1021.08	221.95
1021.36	221.89
1021.65	222.10
1021.94	222.08
1022.22	222.14
1022.51	221.91
1022.79	222.58
1023.08	222.23
1023.36	223.31
1023.65	221.85
>>>>>End Processed Spectral Data<<<<<
