SpectraSuite Data File
++++++++++++++++++++++++++++++++++++
Date: Wed Sep 30 16:32:12 EDT 2015
User: lab3
Dark Spectrum Present: No
Reference Spectrum Present: No
Number of Sampled Component Spectra: 1
Spectrometers: USB2E7196
Integration Time (usec): 36000 (USB2E7196)
Spectra Averaged: 3000 (USB2E7196)
Boxcar Smoothing: 10 (USB2E7196)
Correct for Electrical Dark: No (USB2E7196)
Strobe/Lamp Enabled: No (USB2E7196)
Correct for Detector Non-linearity: No (USB2E7196)
Correct for Stray Light: No (USB2E7196)
Number of Pixels in Processed Spectrum: 2048
>>>>>Begin Processed Spectral Data<<<<<
339.09	0.00
339.48	211.33
339.86	212.78
340.24	214.09
340.63	215.56
341.01	218.50
341.39	218.21
341.78	219.65
342.16	220.83
342.54	221.14
342.93	209.81
343.31	220.41
343.69	220.94
344.07	221.40
344.46	221.83
344.84	222.22
345.22	222.45
345.60	222.71
345.99	222.90
346.37	223.03
346.75	223.14
347.13	223.22
347.52	223.28
347.90	223.36
348.28	223.40
348.66	223.46
349.05	223.46
349.43	223.51
349.81	223.56
350.19	223.61
350.57	223.67
350.96	223.75
351.34	223.84
351.72	223.93
352.10	224.04
352.48	224.12
352.87	224.17
353.25	224.24
353.63	224.30
354.01	224.36
354.39	224.44
354.77	224.52
355.15	224.62
355.54	224.67
355.92	224.71
356.30	224.78
356.68	224.92
357.06	224.99
357.44	225.04
357.82	225.10
358.20	225.21
358.58	225.27
358.97	225.34
359.35	225.42
359.73	225.49
360.11	225.54
360.49	225.59
360.87	225.64
361.25	225.70
361.63	225.79
362.01	225.84
362.39	225.87
362.77	225.92
363.15	225.94
363.53	225.98
363.91	226.01
364.29	226.04
364.67	225.96
365.05	225.99
365.43	226.03
365.81	226.06
366.19	226.07
366.57	226.12
366.95	226.12
367.33	226.11
367.71	226.10
368.09	226.12
368.47	226.13
368.85	226.12
369.23	226.13
369.61	226.08
369.99	226.09
370.37	226.09
370.75	226.15
371.13	226.12
371.51	226.08
371.89	226.06
372.27	226.03
372.65	226.01
373.03	225.97
373.41	225.93
373.78	225.89
374.16	225.79
374.54	225.72
374.92	225.67
375.30	225.62
375.68	225.55
376.06	225.51
376.44	225.46
376.82	225.41
377.19	225.36
377.57	225.31
377.95	225.22
378.33	225.16
378.71	225.01
379.09	224.97
379.47	224.93
379.84	224.86
380.22	224.80
380.60	224.72
380.98	224.67
381.36	224.62
381.73	224.55
382.11	224.52
382.49	224.48
382.87	224.42
383.25	224.38
383.62	224.45
384.00	224.38
384.38	224.34
384.76	224.32
385.13	224.29
385.51	224.25
385.89	224.20
386.27	224.16
386.64	224.14
387.02	224.09
387.40	224.03
387.78	224.01
388.15	223.98
388.53	223.96
388.91	223.92
389.29	223.89
389.66	223.89
390.04	223.85
390.42	223.84
390.79	223.82
391.17	223.80
391.55	223.67
391.92	223.66
392.30	223.65
392.68	223.61
393.05	223.60
393.43	223.59
393.81	223.60
394.18	223.58
394.56	223.58
394.94	223.61
395.31	223.61
395.69	223.65
396.06	223.67
396.44	223.69
396.82	223.70
397.19	223.77
397.57	223.78
397.95	223.82
398.32	223.82
398.70	223.86
399.07	223.92
399.45	223.95
399.82	223.99
400.20	224.02
400.58	224.08
400.95	224.09
401.33	224.17
401.70	224.30
402.08	224.39
402.45	224.46
402.83	224.56
403.20	224.66
403.58	224.74
403.95	224.86
404.33	224.99
404.71	225.10
405.08	225.28
405.46	225.43
405.83	225.58
406.21	225.75
406.58	225.94
406.96	226.12
407.33	226.34
407.70	226.58
408.08	226.91
408.45	227.18
408.83	227.49
409.20	227.76
409.58	228.01
409.95	228.35
410.33	228.72
410.70	229.06
411.08	229.47
411.45	229.90
411.82	230.34
412.20	230.84
412.57	231.43
412.95	231.89
413.32	232.49
413.69	233.12
414.07	233.78
414.44	234.49
414.82	235.22
415.19	236.08
415.56	236.94
415.94	237.84
416.31	238.86
416.68	239.87
417.06	241.05
417.43	242.15
417.81	243.43
418.18	244.73
418.55	246.14
418.93	247.61
419.30	249.15
419.67	250.78
420.04	252.46
420.42	254.22
420.79	256.25
421.16	258.31
421.54	260.39
421.91	262.57
422.28	264.84
422.66	267.27
423.03	269.59
423.40	272.04
423.77	274.65
424.15	277.33
424.52	280.11
424.89	283.13
425.26	286.13
425.64	288.91
426.01	292.04
426.38	295.24
426.75	298.55
427.13	301.94
427.50	305.48
427.87	309.16
428.24	312.88
428.61	316.43
428.99	320.26
429.36	324.46
429.73	328.49
430.10	332.49
430.47	336.60
430.85	340.80
431.22	345.29
431.59	349.90
431.96	354.39
432.33	359.36
432.70	364.08
433.08	369.65
433.45	374.91
433.82	380.08
434.19	385.85
434.56	391.52
434.93	397.00
435.30	402.40
435.68	408.48
436.05	414.41
436.42	420.35
436.79	425.77
437.16	431.62
437.53	437.88
437.90	444.13
438.27	450.23
438.64	456.85
439.01	462.85
439.38	468.30
439.75	473.56
440.13	479.57
440.50	485.27
440.87	489.77
441.24	494.71
441.61	500.19
441.98	504.20
442.35	508.97
442.72	513.86
443.09	518.53
443.46	521.55
443.83	523.80
444.20	525.70
444.57	528.46
444.94	530.09
445.31	531.80
445.68	533.32
446.05	534.46
446.42	534.33
446.79	534.11
447.16	533.94
447.53	533.82
447.90	532.10
448.27	530.51
448.64	527.93
449.01	526.27
449.37	522.55
449.74	519.15
450.11	514.78
450.48	509.95
450.85	505.11
451.22	501.01
451.59	496.99
451.96	493.32
452.33	487.95
452.70	483.18
453.07	477.33
453.43	471.47
453.80	465.80
454.17	460.36
454.54	455.32
454.91	449.61
455.28	444.22
455.65	439.15
456.02	433.74
456.38	429.39
456.75	423.74
457.12	419.19
457.49	414.61
457.86	410.24
458.23	406.42
458.59	402.19
458.96	397.83
459.33	393.99
459.70	390.08
460.07	387.10
460.43	383.59
460.80	380.29
461.17	377.38
461.54	374.26
461.91	371.33
462.27	368.33
462.64	365.89
463.01	363.10
463.38	360.28
463.74	357.71
464.11	355.42
464.48	353.37
464.85	351.16
465.21	349.47
465.58	347.61
465.95	345.44
466.32	343.71
466.68	342.02
467.05	340.33
467.42	338.69
467.78	336.93
468.15	335.28
468.52	334.07
468.88	332.48
469.25	331.01
469.62	329.85
469.98	328.59
470.35	327.48
470.72	326.47
471.08	325.44
471.45	324.59
471.82	323.65
472.18	322.67
472.55	322.05
472.92	321.27
473.28	320.65
473.65	320.02
474.02	319.42
474.38	318.93
474.75	318.65
475.11	318.23
475.48	318.06
475.85	317.90
476.21	317.84
476.58	317.83
476.94	318.01
477.31	318.13
477.67	318.27
478.04	318.52
478.41	318.84
478.77	319.29
479.14	319.62
479.50	320.17
479.87	320.84
480.23	321.52
480.60	322.16
480.96	322.84
481.33	323.78
481.69	324.72
482.06	325.65
482.42	326.54
482.79	327.59
483.15	328.82
483.52	330.18
483.88	331.50
484.25	332.91
484.61	334.37
484.98	335.95
485.34	337.71
485.71	339.55
486.07	341.50
486.44	343.43
486.80	345.59
487.17	347.81
487.53	350.24
487.90	352.77
488.26	355.51
488.62	358.40
488.99	361.28
489.35	364.30
489.72	367.56
490.08	370.98
490.44	374.50
490.81	378.18
491.17	381.96
491.54	386.00
491.90	390.12
492.26	394.56
492.63	399.23
492.99	404.10
493.36	409.09
493.72	414.35
494.08	419.75
494.45	425.44
494.81	431.33
495.17	437.34
495.54	443.69
495.90	450.35
496.26	457.16
496.63	464.22
496.99	471.54
497.35	479.23
497.72	487.21
498.08	495.35
498.44	503.73
498.80	512.65
499.17	521.79
499.53	531.26
499.89	540.94
500.26	550.82
500.62	560.96
500.98	571.77
501.34	582.70
501.71	594.16
502.07	605.85
502.43	617.93
502.79	630.34
503.16	643.17
503.52	656.15
503.88	669.46
504.24	683.23
504.60	697.26
504.97	711.64
505.33	726.42
505.69	742.10
506.05	757.99
506.41	773.89
506.78	790.10
507.14	806.80
507.50	824.05
507.86	841.68
508.22	859.56
508.59	877.47
508.95	896.11
509.31	915.20
509.67	934.94
510.03	954.90
510.39	975.09
510.75	995.48
511.12	1016.14
511.48	1037.12
511.84	1058.24
512.20	1079.71
512.56	1102.30
512.92	1124.99
513.28	1147.38
513.64	1170.14
514.00	1193.32
514.37	1216.77
514.73	1240.24
515.09	1263.57
515.45	1287.30
515.81	1311.59
516.17	1335.91
516.53	1359.94
516.89	1384.05
517.25	1408.35
517.61	1432.86
517.97	1457.57
518.33	1482.10
518.69	1506.84
519.05	1531.84
519.41	1556.92
519.77	1582.29
520.13	1606.89
520.49	1631.73
520.85	1656.77
521.21	1681.63
521.57	1707.08
521.93	1731.84
522.29	1757.39
522.65	1782.72
523.01	1807.87
523.37	1832.21
523.73	1857.24
524.09	1882.52
524.45	1907.64
524.81	1932.29
525.17	1956.77
525.53	1980.90
525.89	2004.95
526.25	2029.19
526.61	2052.87
526.97	2076.86
527.33	2100.75
527.68	2124.42
528.04	2147.39
528.40	2170.16
528.76	2193.16
529.12	2215.15
529.48	2237.63
529.84	2258.29
530.20	2279.36
530.56	2300.13
530.91	2321.14
531.27	2341.59
531.63	2361.35
531.99	2380.58
532.35	2399.69
532.71	2418.99
533.07	2438.72
533.42	2456.99
533.78	2475.61
534.14	2494.25
534.50	2511.98
534.86	2530.34
535.21	2546.96
535.57	2563.32
535.93	2579.08
536.29	2593.51
536.65	2608.73
537.00	2622.87
537.36	2637.72
537.72	2651.59
538.08	2665.10
538.44	2677.50
538.79	2690.06
539.15	2700.88
539.51	2711.56
539.87	2721.63
540.22	2729.53
540.58	2737.80
540.94	2746.54
541.29	2753.81
541.65	2760.14
542.01	2766.03
542.37	2770.04
542.72	2775.92
543.08	2781.26
543.44	2786.44
543.79	2791.10
544.15	2794.78
544.51	2798.36
544.87	2800.95
545.22	2803.20
545.58	2804.45
545.94	2806.18
546.29	2806.46
546.65	2806.77
547.01	2807.33
547.36	2808.03
547.72	2809.03
548.07	2808.42
548.43	2807.24
548.79	2805.43
549.14	2803.52
549.50	2802.30
549.86	2800.02
550.21	2795.57
550.57	2791.60
550.92	2786.22
551.28	2781.36
551.64	2776.41
551.99	2771.78
552.35	2766.79
552.70	2761.30
553.06	2756.45
553.41	2751.05
553.77	2745.07
554.13	2740.00
554.48	2733.78
554.84	2726.15
555.19	2718.56
555.55	2710.32
555.90	2702.65
556.26	2696.02
556.61	2688.78
556.97	2679.35
557.32	2671.14
557.68	2662.96
558.03	2654.29
558.39	2646.33
558.74	2638.41
559.10	2629.50
559.45	2620.15
559.81	2610.94
560.16	2601.17
560.52	2591.07
560.87	2582.00
561.23	2572.50
561.58	2562.58
561.94	2552.57
562.29	2541.88
562.64	2531.75
563.00	2522.03
563.35	2512.16
563.71	2501.20
564.06	2489.97
564.42	2479.64
564.77	2468.87
565.12	2458.21
565.48	2447.20
565.83	2436.86
566.19	2426.70
566.54	2415.86
566.89	2404.32
567.25	2392.95
567.60	2382.30
567.96	2371.22
568.31	2358.81
568.66	2346.47
569.02	2335.04
569.37	2323.39
569.72	2312.32
570.08	2300.53
570.43	2288.17
570.78	2275.40
571.14	2262.70
571.49	2250.59
571.84	2238.69
572.20	2225.49
572.55	2212.89
572.90	2200.12
573.26	2186.44
573.61	2172.17
573.96	2158.27
574.31	2144.60
574.67	2131.12
575.02	2117.18
575.37	2102.87
575.72	2088.86
576.08	2075.21
576.43	2060.54
576.78	2045.94
577.13	2032.09
577.49	2018.35
577.84	2005.03
578.19	1990.95
578.54	1976.47
578.90	1961.47
579.25	1946.28
579.60	1932.57
579.95	1918.38
580.30	1904.29
580.66	1890.43
581.01	1876.06
581.36	1862.19
581.71	1848.92
582.06	1835.09
582.42	1821.50
582.77	1808.50
583.12	1794.99
583.47	1781.74
583.82	1768.58
584.17	1755.29
584.53	1741.88
584.88	1728.48
585.23	1714.69
585.58	1701.44
585.93	1688.50
586.28	1676.42
586.63	1664.08
586.98	1650.96
587.34	1638.09
587.69	1624.77
588.04	1611.77
588.39	1599.40
588.74	1586.40
589.09	1573.23
589.44	1560.07
589.79	1547.36
590.14	1534.63
590.49	1522.10
590.84	1509.42
591.19	1497.32
591.54	1484.74
591.89	1472.04
592.25	1459.62
592.60	1446.86
592.95	1434.64
593.30	1422.78
593.65	1410.70
594.00	1398.93
594.35	1387.82
594.70	1375.87
595.05	1364.88
595.40	1353.66
595.75	1341.97
596.10	1331.13
596.45	1320.52
596.80	1310.30
597.15	1299.85
597.50	1289.35
597.85	1279.09
598.19	1269.03
598.54	1258.49
598.89	1248.63
599.24	1239.02
599.59	1229.22
599.94	1220.43
600.29	1211.50
600.64	1202.30
600.99	1192.50
601.34	1183.15
601.69	1173.29
602.04	1164.58
602.39	1155.78
602.74	1147.22
603.08	1138.87
603.43	1130.04
603.78	1121.04
604.13	1112.19
604.48	1103.28
604.83	1094.64
605.18	1085.93
605.53	1077.12
605.87	1068.33
606.22	1059.84
606.57	1051.12
606.92	1042.41
607.27	1033.56
607.62	1024.84
607.96	1016.34
608.31	1008.91
608.66	1001.05
609.01	993.58
609.36	985.95
609.70	978.08
610.05	970.13
610.40	962.51
610.75	954.94
611.10	947.62
611.44	939.99
611.79	932.63
612.14	924.90
612.49	917.30
612.83	910.17
613.18	903.16
613.53	895.99
613.88	888.92
614.22	882.47
614.57	875.81
614.92	869.10
615.27	862.42
615.61	855.57
615.96	848.92
616.31	842.22
616.65	835.48
617.00	828.94
617.35	822.49
617.70	816.09
618.04	809.82
618.39	803.55
618.74	797.60
619.08	791.48
619.43	785.63
619.78	779.76
620.12	773.73
620.47	767.89
620.82	762.10
621.16	756.62
621.51	750.76
621.85	744.91
622.20	739.15
622.55	733.55
622.89	727.82
623.24	722.18
623.59	716.63
623.93	711.13
624.28	705.80
624.62	700.44
624.97	695.03
625.32	689.74
625.66	684.34
626.01	678.92
626.35	673.65
626.70	668.41
627.04	663.42
627.39	658.46
627.73	653.58
628.08	648.91
628.43	644.05
628.77	639.27
629.12	634.67
629.46	630.22
629.81	625.60
630.15	620.92
630.50	616.38
630.84	612.03
631.19	607.86
631.53	603.69
631.88	599.46
632.22	595.33
632.57	591.40
632.91	587.40
633.26	583.50
633.60	579.68
633.95	575.99
634.29	572.10
634.64	568.20
634.98	564.21
635.32	560.38
635.67	556.72
636.01	553.02
636.36	549.32
636.70	545.79
637.05	542.24
637.39	538.88
637.73	535.36
638.08	531.93
638.42	528.46
638.77	524.86
639.11	521.24
639.45	517.66
639.80	514.10
640.14	510.71
640.49	507.29
640.83	503.74
641.17	500.25
641.52	496.92
641.86	493.58
642.20	490.42
642.55	487.11
642.89	483.87
643.23	480.84
643.58	478.05
643.92	475.12
644.26	472.21
644.61	469.30
644.95	466.41
645.29	463.43
645.64	460.43
645.98	457.60
646.32	454.95
646.66	452.27
647.01	449.57
647.35	446.94
647.69	444.18
648.04	441.58
648.38	439.01
648.72	436.37
649.06	433.84
649.41	431.32
649.75	428.81
650.09	426.33
650.43	423.83
650.78	421.31
651.12	418.78
651.46	416.37
651.80	414.03
652.14	411.78
652.49	409.54
652.83	407.38
653.17	405.18
653.51	403.04
653.85	400.98
654.20	398.84
654.54	396.64
654.88	394.61
655.22	392.64
655.56	390.64
655.90	388.75
656.25	386.85
656.59	384.95
656.93	383.15
657.27	381.39
657.61	379.53
657.95	377.74
658.29	375.96
658.64	374.18
658.98	372.39
659.32	370.62
659.66	368.98
660.00	367.33
660.34	365.72
660.68	364.06
661.02	362.33
661.36	360.75
661.70	359.21
662.05	357.64
662.39	356.06
662.73	354.57
663.07	353.10
663.41	351.66
663.75	350.25
664.09	348.84
664.43	347.35
664.77	345.98
665.11	344.54
665.45	343.18
665.79	341.82
666.13	340.45
666.47	339.07
666.81	337.65
667.15	336.21
667.49	334.86
667.83	333.56
668.17	332.30
668.51	331.04
668.85	329.81
669.19	328.67
669.53	327.45
669.87	326.20
670.21	324.98
670.55	323.77
670.89	322.64
671.23	321.48
671.57	320.32
671.91	319.22
672.25	318.17
672.58	317.12
672.92	316.06
673.26	315.06
673.60	314.07
673.94	313.06
674.28	312.12
674.62	311.17
674.96	310.18
675.30	309.25
675.64	308.31
675.97	307.37
676.31	306.40
676.65	305.46
676.99	304.58
677.33	303.66
677.67	302.78
678.01	301.83
678.34	300.94
678.68	300.11
679.02	299.24
679.36	298.39
679.70	297.54
680.04	296.72
680.37	295.88
680.71	295.08
681.05	294.33
681.39	293.53
681.73	292.71
682.06	291.92
682.40	291.15
682.74	290.38
683.08	289.66
683.42	288.91
683.75	288.24
684.09	287.48
684.43	286.78
684.77	286.06
685.10	285.38
685.44	284.70
685.78	284.00
686.12	283.34
686.45	282.66
686.79	281.98
687.13	281.32
687.46	280.64
687.80	280.00
688.14	279.30
688.48	278.67
688.81	278.04
689.15	277.45
689.49	276.82
689.82	276.20
690.16	275.53
690.50	274.93
690.83	274.31
691.17	273.71
691.51	273.12
691.84	272.57
692.18	271.97
692.52	271.36
692.85	270.78
693.19	270.24
693.52	269.69
693.86	269.14
694.20	268.60
694.53	268.08
694.87	267.54
695.21	267.02
695.54	266.51
695.88	265.98
696.21	265.43
696.55	264.92
696.88	264.42
697.22	263.93
697.56	263.44
697.89	262.90
698.23	262.40
698.56	261.88
698.90	261.40
699.23	260.92
699.57	260.47
699.90	260.02
700.24	259.54
700.58	259.09
700.91	258.66
701.25	258.30
701.58	257.92
701.92	257.52
702.25	257.10
702.59	256.68
702.92	256.28
703.26	255.88
703.59	255.48
703.93	255.15
704.26	254.79
704.60	254.41
704.93	254.05
705.26	253.68
705.60	253.35
705.93	252.96
706.27	252.65
706.60	252.31
706.94	251.99
707.27	251.60
707.61	251.25
707.94	250.88
708.27	250.45
708.61	250.07
708.94	249.71
709.28	249.38
709.61	249.05
709.94	248.75
710.28	248.44
710.61	248.15
710.95	247.77
711.28	247.54
711.61	247.24
711.95	246.98
712.28	246.69
712.61	246.39
712.95	246.17
713.28	245.94
713.61	245.66
713.95	245.37
714.28	245.13
714.61	244.86
714.95	244.61
715.28	244.35
715.61	244.10
715.95	243.86
716.28	243.62
716.61	243.41
716.95	243.16
717.28	242.93
717.61	242.69
717.94	242.47
718.28	242.17
718.61	241.95
718.94	241.71
719.27	241.49
719.61	241.29
719.94	241.06
720.27	240.79
720.60	240.57
720.94	240.37
721.27	240.17
721.60	239.99
721.93	239.80
722.27	239.65
722.60	239.48
722.93	239.27
723.26	239.10
723.59	238.89
723.93	238.73
724.26	238.56
724.59	238.38
724.92	238.22
725.25	238.09
725.59	237.93
725.92	237.78
726.25	237.63
726.58	237.46
726.91	237.29
727.24	237.15
727.57	237.00
727.91	236.84
728.24	236.70
728.57	236.55
728.90	236.42
729.23	236.23
729.56	236.14
729.89	235.99
730.22	235.85
730.55	235.71
730.89	235.56
731.22	235.42
731.55	235.28
731.88	235.14
732.21	234.99
732.54	234.86
732.87	234.72
733.20	234.60
733.53	234.49
733.86	234.38
734.19	234.25
734.52	234.15
734.85	234.11
735.18	233.97
735.51	233.89
735.84	233.77
736.17	233.69
736.50	233.52
736.83	233.54
737.16	233.44
737.49	233.34
737.82	233.24
738.15	233.16
738.48	233.06
738.81	232.95
739.14	232.85
739.47	232.74
739.80	232.64
740.13	232.55
740.46	232.43
740.79	232.33
741.12	232.23
741.45	232.11
741.78	231.96
742.11	231.90
742.44	231.79
742.77	231.71
743.10	231.60
743.43	231.50
743.75	231.31
744.08	231.37
744.41	231.27
744.74	231.18
745.07	231.08
745.40	231.01
745.73	230.98
746.06	230.90
746.39	230.84
746.71	230.75
747.04	230.67
747.37	230.60
747.70	230.54
748.03	230.46
748.36	230.40
748.68	230.32
749.01	230.22
749.34	230.15
749.67	230.08
750.00	230.03
750.33	230.04
750.65	229.98
750.98	229.76
751.31	229.69
751.64	229.63
751.97	229.61
752.29	229.54
752.62	229.42
752.95	229.36
753.28	229.28
753.60	229.20
753.93	229.16
754.26	229.10
754.59	229.00
754.91	228.93
755.24	228.87
755.57	228.85
755.90	228.79
756.22	228.71
756.55	228.63
756.88	228.55
757.20	228.42
757.53	228.33
757.86	228.27
758.19	228.23
758.51	228.17
758.84	228.06
759.17	227.99
759.49	227.95
759.82	227.94
760.15	227.90
760.47	227.84
760.80	227.77
761.13	227.73
761.45	227.68
761.78	227.64
762.11	227.58
762.43	227.48
762.76	227.44
763.08	227.41
763.41	227.37
763.74	227.33
764.06	227.29
764.39	227.25
764.71	227.21
765.04	227.15
765.37	227.10
765.69	227.06
766.02	227.02
766.34	226.96
766.67	226.88
767.00	226.86
767.32	226.88
767.65	226.91
767.97	226.86
768.30	226.83
768.62	226.79
768.95	226.74
769.27	226.70
769.60	226.68
769.92	226.62
770.25	226.57
770.57	226.52
770.90	226.48
771.22	226.44
771.55	226.41
771.87	226.38
772.20	226.35
772.52	226.40
772.85	226.49
773.17	226.47
773.50	226.43
773.82	226.37
774.15	226.30
774.47	226.20
774.80	226.16
775.12	226.12
775.45	226.10
775.77	226.08
776.09	226.07
776.42	226.04
776.74	226.05
777.07	226.02
777.39	225.99
777.72	225.97
778.04	225.95
778.36	225.92
778.69	225.90
779.01	225.88
779.33	225.78
779.66	225.63
779.98	225.60
780.31	225.59
780.63	225.61
780.95	225.62
781.28	225.59
781.60	225.57
781.92	225.55
782.25	225.53
782.57	225.50
782.89	225.47
783.22	225.45
783.54	225.41
783.86	225.40
784.19	225.38
784.51	225.39
784.83	225.36
785.16	225.34
785.48	225.33
785.80	225.31
786.12	225.29
786.45	225.28
786.77	225.27
787.09	225.25
787.42	225.19
787.74	225.17
788.06	225.16
788.38	225.14
788.71	225.11
789.03	225.10
789.35	225.10
789.67	225.07
789.99	225.05
790.32	225.02
790.64	225.02
790.96	225.10
791.28	225.05
791.61	225.03
791.93	225.03
792.25	225.00
792.57	225.05
792.89	225.01
793.21	225.01
793.54	224.99
793.86	224.96
794.18	224.95
794.50	224.92
794.82	224.90
795.14	224.90
795.47	224.90
795.79	224.89
796.11	224.86
796.43	224.85
796.75	224.84
797.07	224.83
797.39	224.80
797.71	224.71
798.04	224.70
798.36	224.69
798.68	224.68
799.00	224.67
799.32	224.61
799.64	224.62
799.96	224.60
800.28	224.61
800.60	224.60
800.92	224.60
801.24	224.58
801.56	224.58
801.89	224.55
802.21	224.55
802.53	224.52
802.85	224.53
803.17	224.57
803.49	224.53
803.81	224.51
804.13	224.49
804.45	224.46
804.77	224.47
805.09	224.45
805.41	224.44
805.73	224.41
806.05	224.37
806.37	224.36
806.69	224.34
807.01	224.31
807.33	224.30
807.65	224.26
807.97	224.29
808.28	224.27
808.60	224.26
808.92	224.23
809.24	224.29
809.56	224.27
809.88	224.22
810.20	224.22
810.52	224.24
810.84	224.22
811.16	224.20
811.48	224.19
811.80	224.21
812.12	224.20
812.43	224.22
812.75	224.21
813.07	224.20
813.39	224.19
813.71	224.18
814.03	224.17
814.35	224.18
814.67	224.13
814.98	224.11
815.30	224.10
815.62	224.09
815.94	224.01
816.26	224.02
816.58	224.00
816.89	224.00
817.21	223.97
817.53	223.97
817.85	223.98
818.17	223.97
818.48	223.92
818.80	223.93
819.12	223.91
819.44	223.89
819.76	223.87
820.07	223.86
820.39	223.85
820.71	223.85
821.03	223.84
821.34	223.84
821.66	223.85
821.98	223.85
822.30	223.85
822.61	223.91
822.93	223.88
823.25	223.87
823.57	223.86
823.88	223.87
824.20	223.85
824.52	223.87
824.83	223.86
825.15	223.85
825.47	223.84
825.79	223.85
826.10	223.83
826.42	223.83
826.74	223.84
827.05	223.83
827.37	223.83
827.69	223.81
828.00	223.81
828.32	223.80
828.64	223.78
828.95	223.83
829.27	223.79
829.58	223.79
829.90	223.81
830.22	223.81
830.53	223.78
830.85	223.78
831.17	223.74
831.48	223.74
831.80	223.74
832.11	223.73
832.43	223.71
832.75	223.71
833.06	223.76
833.38	223.74
833.69	223.73
834.01	223.73
834.32	223.72
834.64	223.71
834.96	223.70
835.27	223.70
835.59	223.67
835.90	223.65
836.22	223.64
836.53	223.62
836.85	223.60
837.16	223.71
837.48	223.70
837.79	223.74
838.11	223.73
838.42	223.73
838.74	223.74
839.05	223.73
839.37	223.73
839.68	223.66
840.00	223.65
840.31	223.68
840.63	223.66
840.94	223.65
841.26	223.64
841.57	223.63
841.88	223.64
842.20	223.62
842.51	223.60
842.83	223.60
843.14	223.70
843.46	223.70
843.77	223.63
844.08	223.63
844.40	223.59
844.71	223.59
845.03	223.58
845.34	223.57
845.65	223.56
845.97	223.57
846.28	223.58
846.60	223.59
846.91	223.57
847.22	223.56
847.54	223.59
847.85	223.59
848.16	223.59
848.48	223.57
848.79	223.60
849.10	223.62
849.42	223.62
849.73	223.52
850.04	223.52
850.36	223.47
850.67	223.49
850.98	223.50
851.30	223.50
851.61	223.50
851.92	223.49
852.23	223.52
852.55	223.52
852.86	223.51
853.17	223.52
853.49	223.54
853.80	223.56
854.11	223.57
854.42	223.58
854.74	223.56
855.05	223.57
855.36	223.51
855.67	223.51
855.99	223.51
856.30	223.63
856.61	223.63
856.92	223.64
857.23	223.64
857.55	223.63
857.86	223.62
858.17	223.63
858.48	223.61
858.79	223.59
859.11	223.60
859.42	223.59
859.73	223.58
860.04	223.57
860.35	223.54
860.66	223.51
860.98	223.50
861.29	223.52
861.60	223.51
861.91	223.53
862.22	223.52
862.53	223.50
862.84	223.38
863.16	223.40
863.47	223.37
863.78	223.36
864.09	223.36
864.40	223.37
864.71	223.38
865.02	223.38
865.33	223.38
865.64	223.35
865.95	223.36
866.27	223.43
866.58	223.42
866.89	223.43
867.20	223.42
867.51	223.41
867.82	223.40
868.13	223.43
868.44	223.41
868.75	223.43
869.06	223.43
869.37	223.45
869.68	223.43
869.99	223.45
870.30	223.45
870.61	223.46
870.92	223.45
871.23	223.44
871.54	223.46
871.85	223.48
872.16	223.50
872.47	223.49
872.78	223.43
873.09	223.44
873.40	223.43
873.71	223.43
874.02	223.44
874.33	223.42
874.64	223.40
874.95	223.41
875.26	223.39
875.56	223.38
875.87	223.37
876.18	223.36
876.49	223.46
876.80	223.44
877.11	223.43
877.42	223.43
877.73	223.43
878.04	223.41
878.35	223.41
878.66	223.41
878.96	223.40
879.27	223.40
879.58	223.39
879.89	223.38
880.20	223.41
880.51	223.41
880.82	223.41
881.12	223.42
881.43	223.40
881.74	223.40
882.05	223.39
882.36	223.40
882.67	223.40
882.97	223.30
883.28	223.29
883.59	223.28
883.90	223.29
884.21	223.30
884.51	223.29
884.82	223.27
885.13	223.27
885.44	223.26
885.74	223.27
886.05	223.26
886.36	223.27
886.67	223.23
886.98	223.28
887.28	223.29
887.59	223.29
887.90	223.29
888.20	223.28
888.51	223.30
888.82	223.29
889.13	223.30
889.43	223.38
889.74	223.38
890.05	223.37
890.35	223.37
890.66	223.35
890.97	223.34
891.28	223.34
891.58	223.33
891.89	223.34
892.20	223.32
892.50	223.31
892.81	223.31
893.12	223.31
893.42	223.25
893.73	223.25
894.04	223.25
894.34	223.26
894.65	223.26
894.95	223.24
895.26	223.25
895.57	223.28
895.87	223.18
896.18	223.20
896.48	223.20
896.79	223.20
897.10	223.21
897.40	223.21
897.71	223.21
898.01	223.21
898.32	223.22
898.63	223.22
898.93	223.23
899.24	223.23
899.54	223.22
899.85	223.21
900.15	223.20
900.46	223.20
900.76	223.20
901.07	223.20
901.38	223.20
901.68	223.21
901.99	223.15
902.29	223.16
902.60	223.15
902.90	223.13
903.21	223.13
903.51	223.13
903.82	223.15
904.12	223.16
904.43	223.15
904.73	223.15
905.03	223.16
905.34	223.25
905.64	223.24
905.95	223.24
906.25	223.25
906.56	223.25
906.86	223.25
907.17	223.23
907.47	223.25
907.77	223.24
908.08	223.22
908.38	223.23
908.69	223.23
908.99	223.25
909.30	223.26
909.60	223.26
909.90	223.26
910.21	223.23
910.51	223.22
910.81	223.22
911.12	223.22
911.42	223.23
911.73	223.13
912.03	223.14
912.33	223.16
912.64	223.15
912.94	223.14
913.24	223.13
913.55	223.12
913.85	223.11
914.15	223.14
914.46	223.15
914.76	223.14
915.06	223.13
915.37	223.12
915.67	223.11
915.97	223.11
916.27	223.09
916.58	223.10
916.88	223.09
917.18	223.08
917.49	223.15
917.79	223.15
918.09	223.16
918.39	223.18
918.70	223.18
919.00	223.18
919.30	223.23
919.60	223.22
919.91	223.21
920.21	223.22
920.51	223.20
920.81	223.19
921.12	223.21
921.42	223.20
921.72	223.21
922.02	223.22
922.32	223.23
922.63	223.24
922.93	223.30
923.23	223.31
923.53	223.29
923.83	223.23
924.13	223.23
924.44	223.23
924.74	223.25
925.04	223.26
925.34	223.26
925.64	223.22
925.94	223.22
926.24	223.28
926.55	223.27
926.85	223.28
927.15	223.28
927.45	223.28
927.75	223.28
928.05	223.29
928.35	223.28
928.65	223.29
928.95	223.29
929.26	223.24
929.56	223.26
929.86	223.27
930.16	223.26
930.46	223.26
930.76	223.26
931.06	223.21
931.36	223.19
931.66	223.20
931.96	223.21
932.26	223.22
932.56	223.18
932.86	223.19
933.16	223.18
933.46	223.18
933.76	223.16
934.06	223.18
934.36	223.21
934.66	223.20
934.96	223.19
935.26	223.19
935.56	223.21
935.86	223.18
936.16	223.17
936.46	223.16
936.76	223.14
937.06	223.13
937.36	223.13
937.66	223.13
937.96	223.13
938.26	223.11
938.56	223.10
938.86	223.10
939.16	223.13
939.46	223.15
939.76	223.15
940.06	223.15
940.35	223.14
940.65	223.08
940.95	223.09
941.25	223.06
941.55	223.05
941.85	223.04
942.15	223.06
942.45	223.08
942.75	223.08
943.04	223.09
943.34	223.12
943.64	223.11
943.94	223.09
944.24	223.09
944.54	223.10
944.84	223.10
945.13	223.08
945.43	223.05
945.73	223.04
946.03	223.03
946.33	223.01
946.62	223.01
946.92	223.01
947.22	223.02
947.52	223.03
947.82	223.04
948.11	223.03
948.41	223.00
948.71	222.98
949.01	222.99
949.31	222.98
949.60	222.96
949.90	222.98
950.20	222.98
950.50	222.98
950.79	222.97
951.09	222.98
951.39	222.99
951.69	222.97
951.98	222.99
952.28	223.00
952.58	223.01
952.87	223.01
953.17	223.02
953.47	223.00
953.76	222.99
954.06	222.98
954.36	222.96
954.66	222.97
954.95	223.00
955.25	223.00
955.55	223.02
955.84	223.01
956.14	223.02
956.44	223.03
956.73	223.01
957.03	223.02
957.32	223.01
957.62	223.01
957.92	223.03
958.21	223.02
958.51	223.13
958.81	223.15
959.10	223.16
959.40	223.18
959.69	223.19
959.99	223.21
960.29	223.21
960.58	223.21
960.88	223.25
961.17	223.23
961.47	223.23
961.76	223.21
962.06	223.23
962.36	223.21
962.65	223.21
962.95	223.22
963.24	223.21
963.54	223.22
963.83	223.22
964.13	223.21
964.42	223.20
964.72	223.11
965.01	223.11
965.31	223.10
965.60	223.07
965.90	223.13
966.19	223.10
966.49	223.11
966.78	223.11
967.08	223.09
967.37	223.09
967.67	223.08
967.96	223.10
968.26	223.09
968.55	223.11
968.85	223.10
969.14	223.09
969.43	223.10
969.73	223.09
970.02	223.08
970.32	223.07
970.61	223.06
970.91	223.04
971.20	223.02
971.49	223.01
971.79	223.03
972.08	222.96
972.38	222.97
972.67	222.96
972.96	222.97
973.26	222.95
973.55	222.98
973.85	222.98
974.14	222.96
974.43	222.97
974.73	222.94
975.02	222.93
975.31	222.94
975.61	222.93
975.90	222.92
976.19	222.92
976.49	222.92
976.78	222.93
977.07	222.93
977.37	222.93
977.66	222.94
977.95	222.92
978.24	222.93
978.54	222.95
978.83	222.95
979.12	222.94
979.42	222.95
979.71	222.92
980.00	222.91
980.29	222.92
980.59	222.91
980.88	222.93
981.17	222.94
981.46	222.93
981.76	222.94
982.05	222.96
982.34	222.97
982.63	222.97
982.93	222.97
983.22	223.00
983.51	223.00
983.80	223.01
984.09	223.03
984.39	223.03
984.68	223.01
984.97	223.02
985.26	223.01
985.55	223.02
985.85	223.00
986.14	223.01
986.43	223.02
986.72	223.02
987.01	222.98
987.30	222.99
987.59	222.98
987.89	222.98
988.18	222.95
988.47	222.94
988.76	222.93
989.05	222.92
989.34	222.90
989.63	222.92
989.92	222.90
990.22	222.88
990.51	222.87
990.80	222.86
991.09	222.87
991.38	222.88
991.67	222.87
991.96	222.86
992.25	222.86
992.54	222.84
992.83	222.84
993.12	222.84
993.41	222.85
993.70	222.90
993.99	222.91
994.28	222.94
994.58	222.95
994.87	222.94
995.16	222.93
995.45	222.93
995.74	222.89
996.03	222.90
996.32	222.92
996.61	222.95
996.90	222.95
997.19	222.95
997.48	222.95
997.77	222.94
998.06	222.95
998.34	222.94
998.63	222.95
998.92	222.96
999.21	222.97
999.50	222.98
999.79	222.94
1000.08	222.93
1000.37	222.93
1000.66	222.92
1000.95	222.95
1001.24	222.96
1001.53	222.98
1001.82	222.98
1002.11	222.96
1002.40	222.97
1002.68	222.98
1002.97	223.05
1003.26	223.04
1003.55	223.03
1003.84	223.03
1004.13	223.06
1004.42	223.05
1004.71	223.05
1004.99	223.04
1005.28	223.06
1005.57	223.04
1005.86	223.04
1006.15	223.03
1006.44	223.01
1006.72	223.03
1007.01	223.00
1007.30	223.01
1007.59	222.99
1007.88	222.99
1008.17	223.00
1008.45	222.97
1008.74	222.93
1009.03	222.89
1009.32	222.89
1009.60	222.89
1009.89	222.89
1010.18	222.86
1010.47	222.86
1010.76	222.86
1011.04	222.86
1011.33	222.85
1011.62	222.86
1011.91	222.87
1012.19	222.87
1012.48	222.87
1012.77	222.87
1013.05	222.91
1013.34	222.90
1013.63	222.90
1013.92	222.90
1014.20	222.90
1014.49	222.90
1014.78	222.91
1015.06	222.87
1015.35	222.87
1015.64	222.88
1015.92	222.90
1016.21	222.90
1016.50	222.90
1016.78	222.91
1017.07	222.92
1017.36	222.90
1017.64	222.89
1017.93	222.89
1018.22	222.88
1018.50	222.87
1018.79	222.87
1019.08	222.83
1019.36	222.84
1019.65	222.83
1019.93	222.87
1020.22	222.89
1020.51	222.94
1020.79	222.93
1021.08	222.67
1021.36	222.69
1021.65	222.84
1021.94	222.85
1022.22	222.97
1022.51	222.71
1022.79	223.45
1023.08	223.08
1023.36	224.06
1023.65	222.67
>>>>>End Processed Spectral Data<<<<<
