SpectraSuite Data File
++++++++++++++++++++++++++++++++++++
Date: Thu Oct 01 05:35:43 EDT 2015
User: lab3
Dark Spectrum Present: No
Reference Spectrum Present: No
Number of Sampled Component Spectra: 1
Spectrometers: USB2E7196
Integration Time (usec): 36000 (USB2E7196)
Spectra Averaged: 10000 (USB2E7196)
Boxcar Smoothing: 10 (USB2E7196)
Correct for Electrical Dark: No (USB2E7196)
Strobe/Lamp Enabled: No (USB2E7196)
Correct for Detector Non-linearity: No (USB2E7196)
Correct for Stray Light: No (USB2E7196)
Number of Pixels in Processed Spectrum: 2048
>>>>>Begin Processed Spectral Data<<<<<
339.09	0.00
339.48	209.96
339.86	211.55
340.24	212.87
340.63	214.25
341.01	217.17
341.39	216.95
341.78	218.33
342.16	219.53
342.54	220.01
342.93	208.59
343.31	219.13
343.69	219.67
344.07	220.13
344.46	220.56
344.84	220.95
345.22	221.19
345.60	221.44
345.99	221.64
346.37	221.78
346.75	221.88
347.13	221.96
347.52	222.02
347.90	222.11
348.28	222.14
348.66	222.20
349.05	222.20
349.43	222.25
349.81	222.31
350.19	222.37
350.57	222.44
350.96	222.52
351.34	222.61
351.72	222.71
352.10	222.81
352.48	222.89
352.87	222.94
353.25	223.01
353.63	223.07
354.01	223.13
354.39	223.21
354.77	223.29
355.15	223.39
355.54	223.44
355.92	223.48
356.30	223.55
356.68	223.69
357.06	223.77
357.44	223.81
357.82	223.88
358.20	223.99
358.58	224.04
358.97	224.10
359.35	224.18
359.73	224.26
360.11	224.31
360.49	224.37
360.87	224.42
361.25	224.48
361.63	224.56
362.01	224.61
362.39	224.63
362.77	224.68
363.15	224.70
363.53	224.74
363.91	224.77
364.29	224.79
364.67	224.71
365.05	224.74
365.43	224.76
365.81	224.79
366.19	224.81
366.57	224.86
366.95	224.86
367.33	224.83
367.71	224.82
368.09	224.84
368.47	224.83
368.85	224.82
369.23	224.83
369.61	224.78
369.99	224.79
370.37	224.79
370.75	224.85
371.13	224.82
371.51	224.78
371.89	224.76
372.27	224.74
372.65	224.72
373.03	224.68
373.41	224.63
373.78	224.58
374.16	224.49
374.54	224.41
374.92	224.36
375.30	224.32
375.68	224.25
376.06	224.20
376.44	224.15
376.82	224.10
377.19	224.05
377.57	224.00
377.95	223.91
378.33	223.85
378.71	223.71
379.09	223.66
379.47	223.63
379.84	223.56
380.22	223.50
380.60	223.43
380.98	223.38
381.36	223.33
381.73	223.26
382.11	223.23
382.49	223.19
382.87	223.14
383.25	223.09
383.62	223.17
384.00	223.10
384.38	223.06
384.76	223.04
385.13	223.03
385.51	222.99
385.89	222.93
386.27	222.90
386.64	222.88
387.02	222.83
387.40	222.78
387.78	222.75
388.15	222.73
388.53	222.70
388.91	222.67
389.29	222.63
389.66	222.62
390.04	222.58
390.42	222.58
390.79	222.56
391.17	222.54
391.55	222.41
391.92	222.39
392.30	222.39
392.68	222.36
393.05	222.34
393.43	222.34
393.81	222.34
394.18	222.32
394.56	222.32
394.94	222.35
395.31	222.35
395.69	222.39
396.06	222.41
396.44	222.43
396.82	222.44
397.19	222.52
397.57	222.53
397.95	222.57
398.32	222.57
398.70	222.61
399.07	222.67
399.45	222.70
399.82	222.75
400.20	222.78
400.58	222.84
400.95	222.85
401.33	222.93
401.70	223.07
402.08	223.16
402.45	223.23
402.83	223.34
403.20	223.44
403.58	223.52
403.95	223.65
404.33	223.78
404.71	223.91
405.08	224.09
405.46	224.24
405.83	224.40
406.21	224.57
406.58	224.77
406.96	224.96
407.33	225.18
407.70	225.42
408.08	225.75
408.45	226.03
408.83	226.35
409.20	226.63
409.58	226.89
409.95	227.24
410.33	227.62
410.70	227.97
411.08	228.40
411.45	228.84
411.82	229.29
412.20	229.80
412.57	230.42
412.95	230.90
413.32	231.53
413.69	232.17
414.07	232.85
414.44	233.60
414.82	234.35
415.19	235.24
415.56	236.15
415.94	237.08
416.31	238.13
416.68	239.19
417.06	240.41
417.43	241.56
417.81	242.89
418.18	244.23
418.55	245.71
418.93	247.24
419.30	248.84
419.67	250.55
420.04	252.30
420.42	254.13
420.79	256.25
421.16	258.38
421.54	260.55
421.91	262.82
422.28	265.18
422.66	267.72
423.03	270.14
423.40	272.69
423.77	275.42
424.15	278.21
424.52	281.11
424.89	284.26
425.26	287.39
425.64	290.29
426.01	293.55
426.38	296.88
426.75	300.31
427.13	303.83
427.50	307.50
427.87	311.32
428.24	315.16
428.61	318.85
428.99	322.81
429.36	327.17
429.73	331.33
430.10	335.48
430.47	339.72
430.85	344.07
431.22	348.70
431.59	353.46
431.96	358.10
432.33	363.23
432.70	368.10
433.08	373.85
433.45	379.28
433.82	384.62
434.19	390.59
434.56	396.45
434.93	402.11
435.30	407.70
435.68	414.00
436.05	420.16
436.42	426.32
436.79	431.94
437.16	438.00
437.53	444.50
437.90	450.99
438.27	457.33
438.64	464.23
439.01	470.46
439.38	476.17
439.75	481.67
440.13	487.96
440.50	493.96
440.87	498.70
441.24	503.90
441.61	509.65
441.98	513.87
442.35	518.89
442.72	524.04
443.09	528.98
443.46	532.19
443.83	534.58
444.20	536.63
444.57	539.58
444.94	541.37
445.31	543.22
445.68	544.89
446.05	546.16
446.42	546.09
446.79	545.91
447.16	545.79
447.53	545.71
447.90	543.94
448.27	542.29
448.64	539.62
449.01	537.88
449.37	534.00
449.74	530.48
450.11	525.94
450.48	520.92
450.85	515.85
451.22	511.56
451.59	507.36
451.96	503.54
452.33	497.91
452.70	492.90
453.07	486.77
453.43	480.62
453.80	474.66
454.17	468.94
454.54	463.63
454.91	457.62
455.28	451.95
455.65	446.61
456.02	440.92
456.38	436.33
456.75	430.42
457.12	425.64
457.49	420.82
457.86	416.21
458.23	412.17
458.59	407.71
458.96	403.12
459.33	399.06
459.70	394.93
460.07	391.78
460.43	388.07
460.80	384.61
461.17	381.54
461.54	378.24
461.91	375.16
462.27	372.02
462.64	369.46
463.01	366.53
463.38	363.57
463.74	360.90
464.11	358.51
464.48	356.35
464.85	354.04
465.21	352.27
465.58	350.31
465.95	348.06
466.32	346.26
466.68	344.51
467.05	342.75
467.42	341.04
467.78	339.21
468.15	337.51
468.52	336.25
468.88	334.60
469.25	333.09
469.62	331.89
469.98	330.59
470.35	329.44
470.72	328.39
471.08	327.33
471.45	326.45
471.82	325.49
472.18	324.48
472.55	323.84
472.92	323.04
473.28	322.41
473.65	321.77
474.02	321.15
474.38	320.65
474.75	320.37
475.11	319.95
475.48	319.80
475.85	319.64
476.21	319.60
476.58	319.60
476.94	319.80
477.31	319.92
477.67	320.08
478.04	320.35
478.41	320.69
478.77	321.16
479.14	321.50
479.50	322.07
479.87	322.77
480.23	323.47
480.60	324.15
480.96	324.85
481.33	325.83
481.69	326.79
482.06	327.76
482.42	328.66
482.79	329.75
483.15	331.00
483.52	332.39
483.88	333.74
484.25	335.18
484.61	336.67
484.98	338.28
485.34	340.09
485.71	341.95
486.07	343.94
486.44	345.92
486.80	348.13
487.17	350.38
487.53	352.85
487.90	355.43
488.26	358.21
488.62	361.16
488.99	364.11
489.35	367.19
489.72	370.51
490.08	374.01
490.44	377.60
490.81	381.36
491.17	385.21
491.54	389.32
491.90	393.53
492.26	398.06
492.63	402.85
492.99	407.81
493.36	412.91
493.72	418.28
494.08	423.78
494.45	429.59
494.81	435.62
495.17	441.76
495.54	448.27
495.90	455.08
496.26	462.03
496.63	469.21
496.99	476.69
497.35	484.53
497.72	492.68
498.08	500.98
498.44	509.55
498.80	518.67
499.17	528.01
499.53	537.71
499.89	547.63
500.26	557.72
500.62	568.09
500.98	579.14
501.34	590.34
501.71	602.08
502.07	614.06
502.43	626.42
502.79	639.12
503.16	652.23
503.52	665.53
503.88	679.22
504.24	693.33
504.60	707.72
504.97	722.50
505.33	737.67
505.69	753.75
506.05	770.04
506.41	786.33
506.78	802.93
507.14	819.99
507.50	837.67
507.86	855.73
508.22	874.08
508.59	892.45
508.95	911.54
509.31	931.05
509.67	951.28
510.03	971.72
510.39	992.38
510.75	1013.27
511.12	1034.46
511.48	1055.97
511.84	1077.56
512.20	1099.47
512.56	1122.50
512.92	1145.72
513.28	1168.67
513.64	1191.92
514.00	1215.58
514.37	1239.59
514.73	1263.63
515.09	1287.46
515.45	1311.72
515.81	1336.53
516.17	1361.40
516.53	1385.93
516.89	1410.54
517.25	1435.33
517.61	1460.32
517.97	1485.50
518.33	1510.42
518.69	1535.47
519.05	1560.77
519.41	1586.21
519.77	1611.92
520.13	1636.82
520.49	1661.90
520.85	1687.18
521.21	1712.41
521.57	1738.21
521.93	1763.28
522.29	1789.18
522.65	1814.85
523.01	1840.28
523.37	1864.96
523.73	1890.27
524.09	1915.79
524.45	1941.19
524.81	1966.10
525.17	1990.91
525.53	2015.30
525.89	2039.69
526.25	2064.29
526.61	2088.37
526.97	2112.71
527.33	2136.97
527.68	2161.07
528.04	2184.34
528.40	2207.45
528.76	2230.73
529.12	2252.95
529.48	2275.55
529.84	2296.31
530.20	2317.62
530.56	2338.59
530.91	2359.62
531.27	2380.12
531.63	2399.95
531.99	2419.29
532.35	2438.29
532.71	2457.38
533.07	2477.06
533.42	2495.20
533.78	2513.72
534.14	2532.21
534.50	2549.87
534.86	2568.15
535.21	2584.57
535.57	2600.91
535.93	2616.52
536.29	2630.94
536.65	2646.20
537.00	2660.29
537.36	2674.92
537.72	2688.45
538.08	2701.68
538.44	2713.74
538.79	2726.04
539.15	2736.71
539.51	2747.29
539.87	2757.52
540.22	2765.60
540.58	2773.75
540.94	2782.50
541.29	2789.70
541.65	2795.92
542.01	2801.64
542.37	2805.47
542.72	2811.23
543.08	2816.48
543.44	2821.57
543.79	2825.81
544.15	2829.17
544.51	2832.51
544.87	2834.96
545.22	2837.02
545.58	2838.11
545.94	2839.68
546.29	2839.75
546.65	2839.93
547.01	2840.17
547.36	2840.51
547.72	2841.02
548.07	2840.09
548.43	2838.50
548.79	2836.26
549.14	2834.04
549.50	2832.44
549.86	2830.00
550.21	2825.10
550.57	2820.62
550.92	2814.79
551.28	2809.56
551.64	2804.26
551.99	2799.33
552.35	2794.01
552.70	2788.25
553.06	2783.22
553.41	2777.71
553.77	2771.66
554.13	2766.28
554.48	2760.00
554.84	2752.06
555.19	2744.28
555.55	2735.91
555.90	2728.14
556.26	2721.38
556.61	2714.00
556.97	2704.41
557.32	2695.69
557.68	2687.45
558.03	2678.50
558.39	2670.24
558.74	2662.15
559.10	2652.81
559.45	2643.14
559.81	2633.82
560.16	2623.82
560.52	2613.37
560.87	2603.95
561.23	2594.14
561.58	2583.79
561.94	2573.18
562.29	2562.13
562.64	2551.70
563.00	2541.61
563.35	2531.34
563.71	2520.18
564.06	2508.48
564.42	2497.84
564.77	2486.82
565.12	2475.90
565.48	2464.77
565.83	2454.28
566.19	2443.79
566.54	2432.93
566.89	2421.17
567.25	2409.33
567.60	2398.33
567.96	2386.91
568.31	2374.08
568.66	2361.19
569.02	2349.38
569.37	2337.33
569.72	2325.80
570.08	2313.51
570.43	2300.70
570.78	2287.60
571.14	2274.28
571.49	2261.79
571.84	2249.58
572.20	2236.07
572.55	2222.93
572.90	2209.68
573.26	2195.49
573.61	2180.76
573.96	2166.35
574.31	2152.29
574.67	2138.46
575.02	2124.21
575.37	2109.52
575.72	2095.08
576.08	2081.29
576.43	2066.44
576.78	2051.65
577.13	2037.68
577.49	2023.74
577.84	2010.17
578.19	1995.76
578.54	1981.00
578.90	1965.73
579.25	1950.17
579.60	1936.03
579.95	1921.53
580.30	1907.07
580.66	1892.93
581.01	1878.40
581.36	1864.20
581.71	1850.57
582.06	1836.45
582.42	1822.39
582.77	1809.09
583.12	1795.46
583.47	1781.85
583.82	1768.38
584.17	1754.80
584.53	1741.03
584.88	1727.29
585.23	1713.19
585.58	1699.62
585.93	1686.50
586.28	1674.20
586.63	1661.73
586.98	1648.53
587.34	1635.57
587.69	1622.11
588.04	1608.89
588.39	1596.35
588.74	1583.33
589.09	1570.04
589.44	1556.72
589.79	1543.97
590.14	1531.09
590.49	1518.42
590.84	1505.62
591.19	1493.47
591.54	1480.79
591.89	1467.99
592.25	1455.54
592.60	1442.71
592.95	1430.42
593.30	1418.41
593.65	1406.17
594.00	1394.15
594.35	1382.93
594.70	1370.90
595.05	1359.96
595.40	1348.84
595.75	1337.11
596.10	1326.17
596.45	1315.45
596.80	1305.21
597.15	1294.76
597.50	1284.29
597.85	1274.03
598.19	1263.95
598.54	1253.25
598.89	1243.34
599.24	1233.73
599.59	1223.87
599.94	1215.04
600.29	1206.08
600.64	1196.91
600.99	1187.17
601.34	1177.87
601.69	1168.00
602.04	1159.20
602.39	1150.20
602.74	1141.46
603.08	1132.98
603.43	1124.00
603.78	1114.93
604.13	1105.99
604.48	1096.98
604.83	1088.25
605.18	1079.41
605.53	1070.51
605.87	1061.76
606.22	1053.25
606.57	1044.49
606.92	1035.83
607.27	1027.03
607.62	1018.32
607.96	1009.78
608.31	1002.24
608.66	994.26
609.01	986.72
609.36	979.12
609.70	971.31
610.05	963.33
610.40	955.68
610.75	948.17
611.10	940.93
611.44	933.30
611.79	925.98
612.14	918.27
612.49	910.73
612.83	903.66
613.18	896.65
613.53	889.42
613.88	882.28
614.22	875.73
614.57	869.00
614.92	862.27
615.27	855.57
615.61	848.72
615.96	842.11
616.31	835.43
616.65	828.63
617.00	822.08
617.35	815.68
617.70	809.30
618.04	802.97
618.39	796.67
618.74	790.70
619.08	784.56
619.43	778.68
619.78	772.81
620.12	766.74
620.47	760.86
620.82	755.07
621.16	749.60
621.51	743.76
621.85	737.92
622.20	732.13
622.55	726.52
622.89	720.86
623.24	715.25
623.59	709.70
623.93	704.20
624.28	698.84
624.62	693.47
624.97	688.09
625.32	682.83
625.66	677.42
626.01	672.01
626.35	666.74
626.70	661.51
627.04	656.47
627.39	651.47
627.73	646.58
628.08	641.92
628.43	637.13
628.77	632.41
629.12	627.82
629.46	623.41
629.81	618.81
630.15	614.10
630.50	609.55
630.84	605.20
631.19	601.03
631.53	596.90
631.88	592.65
632.22	588.50
632.57	584.59
632.91	580.63
633.26	576.75
633.60	572.94
633.95	569.23
634.29	565.39
634.64	561.51
634.98	557.54
635.32	553.72
635.67	550.05
636.01	546.32
636.36	542.63
636.70	539.08
637.05	535.53
637.39	532.19
637.73	528.71
638.08	525.29
638.42	521.84
638.77	518.25
639.11	514.67
639.45	511.13
639.80	507.58
640.14	504.22
640.49	500.81
640.83	497.30
641.17	493.83
641.52	490.52
641.86	487.21
642.20	484.07
642.55	480.77
642.89	477.56
643.23	474.54
643.58	471.74
643.92	468.83
644.26	465.96
644.61	463.06
644.95	460.18
645.29	457.25
645.64	454.29
645.98	451.46
646.32	448.81
646.66	446.17
647.01	443.49
647.35	440.87
647.69	438.15
648.04	435.56
648.38	433.02
648.72	430.43
649.06	427.92
649.41	425.44
649.75	422.94
650.09	420.47
650.43	418.01
650.78	415.52
651.12	413.03
651.46	410.63
651.80	408.33
652.14	406.11
652.49	403.90
652.83	401.75
653.17	399.58
653.51	397.47
653.85	395.43
654.20	393.34
654.54	391.15
654.88	389.16
655.22	387.23
655.56	385.25
655.90	383.37
656.25	381.50
656.59	379.62
656.93	377.85
657.27	376.13
657.61	374.30
657.95	372.53
658.29	370.78
658.64	369.06
658.98	367.32
659.32	365.59
659.66	363.97
660.00	362.36
660.34	360.78
660.68	359.15
661.02	357.46
661.36	355.87
661.70	354.36
662.05	352.83
662.39	351.28
662.73	349.83
663.07	348.41
663.41	347.00
663.75	345.62
664.09	344.24
664.43	342.78
664.77	341.41
665.11	339.99
665.45	338.65
665.79	337.30
666.13	335.94
666.47	334.57
666.81	333.18
667.15	331.75
667.49	330.43
667.83	329.15
668.17	327.92
668.51	326.70
668.85	325.50
669.19	324.38
669.53	323.18
669.87	321.96
670.21	320.76
670.55	319.58
670.89	318.48
671.23	317.35
671.57	316.22
671.91	315.16
672.25	314.15
672.58	313.13
672.92	312.09
673.26	311.11
673.60	310.13
673.94	309.14
674.28	308.22
674.62	307.29
674.96	306.31
675.30	305.40
675.64	304.47
675.97	303.55
676.31	302.59
676.65	301.66
676.99	300.80
677.33	299.88
677.67	299.01
678.01	298.05
678.34	297.17
678.68	296.35
679.02	295.50
679.36	294.65
679.70	293.80
680.04	292.99
680.37	292.17
680.71	291.38
681.05	290.64
681.39	289.86
681.73	289.04
682.06	288.27
682.40	287.50
682.74	286.76
683.08	286.04
683.42	285.31
683.75	284.64
684.09	283.90
684.43	283.20
684.77	282.48
685.10	281.83
685.44	281.15
685.78	280.46
686.12	279.81
686.45	279.15
686.79	278.48
687.13	277.85
687.46	277.18
687.80	276.54
688.14	275.85
688.48	275.23
688.81	274.60
689.15	274.03
689.49	273.41
689.82	272.82
690.16	272.16
690.50	271.57
690.83	270.97
691.17	270.40
691.51	269.83
691.84	269.29
692.18	268.71
692.52	268.13
692.85	267.57
693.19	267.04
693.52	266.51
693.86	265.97
694.20	265.44
694.53	264.94
694.87	264.42
695.21	263.94
695.54	263.44
695.88	262.94
696.21	262.39
696.55	261.90
696.88	261.41
697.22	260.94
697.56	260.46
697.89	259.94
698.23	259.45
698.56	258.95
698.90	258.49
699.23	258.02
699.57	257.59
699.90	257.15
700.24	256.67
700.58	256.24
700.91	255.84
701.25	255.51
701.58	255.14
701.92	254.76
702.25	254.36
702.59	253.95
702.92	253.57
703.26	253.19
703.59	252.81
703.93	252.51
704.26	252.16
704.60	251.79
704.93	251.44
705.26	251.09
705.60	250.77
705.93	250.40
706.27	250.10
706.60	249.79
706.94	249.49
707.27	249.13
707.61	248.79
707.94	248.43
708.27	248.01
708.61	247.64
708.94	247.30
709.28	246.98
709.61	246.67
709.94	246.38
710.28	246.09
710.61	245.81
710.95	245.44
711.28	245.22
711.61	244.94
711.95	244.69
712.28	244.42
712.61	244.13
712.95	243.92
713.28	243.71
713.61	243.44
713.95	243.15
714.28	242.93
714.61	242.67
714.95	242.43
715.28	242.19
715.61	241.95
715.95	241.73
716.28	241.49
716.61	241.29
716.95	241.05
717.28	240.83
717.61	240.60
717.94	240.38
718.28	240.09
718.61	239.88
718.94	239.64
719.27	239.44
719.61	239.26
719.94	239.03
720.27	238.77
720.60	238.57
720.94	238.38
721.27	238.20
721.60	238.03
721.93	237.85
722.27	237.70
722.60	237.54
722.93	237.35
723.26	237.18
723.59	236.98
723.93	236.82
724.26	236.66
724.59	236.50
724.92	236.34
725.25	236.22
725.59	236.06
725.92	235.93
726.25	235.78
726.58	235.63
726.91	235.47
727.24	235.34
727.57	235.19
727.91	235.03
728.24	234.90
728.57	234.75
728.90	234.62
729.23	234.45
729.56	234.35
729.89	234.22
730.22	234.07
730.55	233.95
730.89	233.81
731.22	233.67
731.55	233.54
731.88	233.42
732.21	233.27
732.54	233.15
732.87	233.03
733.20	232.92
733.53	232.80
733.86	232.70
734.19	232.57
734.52	232.48
734.85	232.44
735.18	232.31
735.51	232.23
735.84	232.12
736.17	232.05
736.50	231.88
736.83	231.91
737.16	231.81
737.49	231.71
737.82	231.62
738.15	231.54
738.48	231.44
738.81	231.34
739.14	231.23
739.47	231.13
739.80	231.03
740.13	230.94
740.46	230.83
740.79	230.72
741.12	230.63
741.45	230.52
741.78	230.38
742.11	230.32
742.44	230.21
742.77	230.13
743.10	230.03
743.43	229.94
743.75	229.74
744.08	229.82
744.41	229.73
744.74	229.64
745.07	229.54
745.40	229.47
745.73	229.44
746.06	229.36
746.39	229.31
746.71	229.22
747.04	229.14
747.37	229.06
747.70	229.01
748.03	228.94
748.36	228.89
748.68	228.82
749.01	228.71
749.34	228.65
749.67	228.58
750.00	228.53
750.33	228.54
750.65	228.49
750.98	228.27
751.31	228.21
751.64	228.15
751.97	228.14
752.29	228.07
752.62	227.96
752.95	227.89
753.28	227.81
753.60	227.75
753.93	227.71
754.26	227.66
754.59	227.56
754.91	227.49
755.24	227.41
755.57	227.39
755.90	227.33
756.22	227.27
756.55	227.19
756.88	227.11
757.20	226.98
757.53	226.90
757.86	226.84
758.19	226.79
758.51	226.73
758.84	226.63
759.17	226.57
759.49	226.53
759.82	226.54
760.15	226.50
760.47	226.45
760.80	226.38
761.13	226.34
761.45	226.30
761.78	226.26
762.11	226.22
762.43	226.12
762.76	226.08
763.08	226.05
763.41	226.01
763.74	225.98
764.06	225.93
764.39	225.89
764.71	225.85
765.04	225.79
765.37	225.75
765.69	225.71
766.02	225.67
766.34	225.62
766.67	225.54
767.00	225.52
767.32	225.54
767.65	225.56
767.97	225.52
768.30	225.48
768.62	225.44
768.95	225.39
769.27	225.35
769.60	225.33
769.92	225.28
770.25	225.22
770.57	225.17
770.90	225.14
771.22	225.10
771.55	225.07
771.87	225.05
772.20	225.01
772.52	225.07
772.85	225.16
773.17	225.14
773.50	225.10
773.82	225.05
774.15	224.96
774.47	224.87
774.80	224.83
775.12	224.80
775.45	224.77
775.77	224.75
776.09	224.73
776.42	224.70
776.74	224.71
777.07	224.68
777.39	224.66
777.72	224.63
778.04	224.61
778.36	224.58
778.69	224.56
779.01	224.54
779.33	224.42
779.66	224.28
779.98	224.25
780.31	224.24
780.63	224.26
780.95	224.25
781.28	224.23
781.60	224.21
781.92	224.18
782.25	224.16
782.57	224.14
782.89	224.11
783.22	224.08
783.54	224.04
783.86	224.03
784.19	224.01
784.51	224.02
784.83	223.99
785.16	223.96
785.48	223.95
785.80	223.93
786.12	223.92
786.45	223.90
786.77	223.89
787.09	223.87
787.42	223.81
787.74	223.80
788.06	223.79
788.38	223.77
788.71	223.75
789.03	223.74
789.35	223.74
789.67	223.71
789.99	223.71
790.32	223.68
790.64	223.67
790.96	223.75
791.28	223.71
791.61	223.69
791.93	223.68
792.25	223.67
792.57	223.72
792.89	223.69
793.21	223.69
793.54	223.66
793.86	223.64
794.18	223.63
794.50	223.60
794.82	223.58
795.14	223.58
795.47	223.58
795.79	223.57
796.11	223.53
796.43	223.51
796.75	223.50
797.07	223.49
797.39	223.48
797.71	223.38
798.04	223.37
798.36	223.37
798.68	223.35
799.00	223.35
799.32	223.28
799.64	223.29
799.96	223.28
800.28	223.29
800.60	223.28
800.92	223.28
801.24	223.26
801.56	223.26
801.89	223.25
802.21	223.24
802.53	223.21
802.85	223.23
803.17	223.27
803.49	223.24
803.81	223.21
804.13	223.20
804.45	223.18
804.77	223.18
805.09	223.17
805.41	223.15
805.73	223.12
806.05	223.08
806.37	223.06
806.69	223.04
807.01	223.02
807.33	223.02
807.65	222.97
807.97	223.01
808.28	222.99
808.60	222.98
808.92	222.95
809.24	223.01
809.56	222.98
809.88	222.93
810.20	222.93
810.52	222.95
810.84	222.93
811.16	222.91
811.48	222.90
811.80	222.93
812.12	222.92
812.43	222.93
812.75	222.94
813.07	222.92
813.39	222.92
813.71	222.90
814.03	222.88
814.35	222.88
814.67	222.83
814.98	222.82
815.30	222.81
815.62	222.79
815.94	222.71
816.26	222.72
816.58	222.70
816.89	222.70
817.21	222.67
817.53	222.67
817.85	222.67
818.17	222.66
818.48	222.62
818.80	222.63
819.12	222.61
819.44	222.59
819.76	222.57
820.07	222.57
820.39	222.56
820.71	222.57
821.03	222.56
821.34	222.56
821.66	222.57
821.98	222.58
822.30	222.57
822.61	222.63
822.93	222.61
823.25	222.61
823.57	222.59
823.88	222.60
824.20	222.60
824.52	222.61
824.83	222.60
825.15	222.59
825.47	222.57
825.79	222.58
826.10	222.58
826.42	222.57
826.74	222.58
827.05	222.57
827.37	222.56
827.69	222.55
828.00	222.55
828.32	222.55
828.64	222.53
828.95	222.58
829.27	222.55
829.58	222.54
829.90	222.56
830.22	222.56
830.53	222.54
830.85	222.53
831.17	222.50
831.48	222.50
831.80	222.50
832.11	222.49
832.43	222.48
832.75	222.47
833.06	222.54
833.38	222.51
833.69	222.50
834.01	222.51
834.32	222.50
834.64	222.49
834.96	222.49
835.27	222.49
835.59	222.44
835.90	222.43
836.22	222.43
836.53	222.41
836.85	222.39
837.16	222.49
837.48	222.49
837.79	222.53
838.11	222.53
838.42	222.52
838.74	222.53
839.05	222.52
839.37	222.52
839.68	222.45
840.00	222.44
840.31	222.46
840.63	222.44
840.94	222.43
841.26	222.42
841.57	222.41
841.88	222.42
842.20	222.41
842.51	222.39
842.83	222.38
843.14	222.47
843.46	222.47
843.77	222.41
844.08	222.40
844.40	222.37
844.71	222.35
845.03	222.34
845.34	222.33
845.65	222.32
845.97	222.33
846.28	222.33
846.60	222.34
846.91	222.32
847.22	222.31
847.54	222.33
847.85	222.34
848.16	222.33
848.48	222.30
848.79	222.34
849.10	222.36
849.42	222.36
849.73	222.26
850.04	222.26
850.36	222.22
850.67	222.23
850.98	222.23
851.30	222.24
851.61	222.24
851.92	222.23
852.23	222.27
852.55	222.27
852.86	222.27
853.17	222.27
853.49	222.29
853.80	222.31
854.11	222.32
854.42	222.33
854.74	222.32
855.05	222.32
855.36	222.27
855.67	222.26
855.99	222.26
856.30	222.39
856.61	222.38
856.92	222.39
857.23	222.39
857.55	222.37
857.86	222.37
858.17	222.38
858.48	222.37
858.79	222.34
859.11	222.35
859.42	222.34
859.73	222.33
860.04	222.32
860.35	222.29
860.66	222.26
860.98	222.25
861.29	222.26
861.60	222.25
861.91	222.28
862.22	222.26
862.53	222.25
862.84	222.12
863.16	222.14
863.47	222.12
863.78	222.11
864.09	222.12
864.40	222.13
864.71	222.12
865.02	222.14
865.33	222.13
865.64	222.10
865.95	222.11
866.27	222.17
866.58	222.16
866.89	222.17
867.20	222.17
867.51	222.15
867.82	222.15
868.13	222.18
868.44	222.15
868.75	222.18
869.06	222.18
869.37	222.19
869.68	222.17
869.99	222.19
870.30	222.20
870.61	222.21
870.92	222.19
871.23	222.18
871.54	222.19
871.85	222.21
872.16	222.23
872.47	222.22
872.78	222.16
873.09	222.17
873.40	222.16
873.71	222.17
874.02	222.18
874.33	222.16
874.64	222.14
874.95	222.16
875.26	222.13
875.56	222.12
875.87	222.12
876.18	222.11
876.49	222.20
876.80	222.19
877.11	222.17
877.42	222.17
877.73	222.18
878.04	222.16
878.35	222.16
878.66	222.15
878.96	222.15
879.27	222.15
879.58	222.14
879.89	222.13
880.20	222.16
880.51	222.15
880.82	222.15
881.12	222.16
881.43	222.14
881.74	222.13
882.05	222.13
882.36	222.13
882.67	222.14
882.97	222.03
883.28	222.03
883.59	222.02
883.90	222.03
884.21	222.04
884.51	222.03
884.82	222.02
885.13	222.01
885.44	222.01
885.74	222.01
886.05	222.01
886.36	222.01
886.67	221.97
886.98	222.02
887.28	222.03
887.59	222.03
887.90	222.03
888.20	222.03
888.51	222.05
888.82	222.03
889.13	222.04
889.43	222.13
889.74	222.12
890.05	222.13
890.35	222.11
890.66	222.10
890.97	222.09
891.28	222.08
891.58	222.08
891.89	222.08
892.20	222.06
892.50	222.05
892.81	222.05
893.12	222.05
893.42	221.99
893.73	221.99
894.04	221.99
894.34	221.99
894.65	221.99
894.95	221.97
895.26	221.98
895.57	222.02
895.87	221.92
896.18	221.94
896.48	221.94
896.79	221.94
897.10	221.96
897.40	221.96
897.71	221.97
898.01	221.96
898.32	221.97
898.63	221.97
898.93	221.98
899.24	221.98
899.54	221.97
899.85	221.97
900.15	221.96
900.46	221.96
900.76	221.97
901.07	221.97
901.38	221.96
901.68	221.97
901.99	221.92
902.29	221.93
902.60	221.91
902.90	221.91
903.21	221.90
903.51	221.90
903.82	221.91
904.12	221.92
904.43	221.92
904.73	221.92
905.03	221.93
905.34	222.02
905.64	222.01
905.95	222.02
906.25	222.02
906.56	222.01
906.86	222.01
907.17	222.00
907.47	222.01
907.77	222.00
908.08	221.98
908.38	221.98
908.69	221.99
908.99	222.01
909.30	222.02
909.60	222.02
909.90	222.02
910.21	221.99
910.51	221.97
910.81	221.97
911.12	221.98
911.42	221.98
911.73	221.87
912.03	221.88
912.33	221.90
912.64	221.89
912.94	221.88
913.24	221.87
913.55	221.86
913.85	221.85
914.15	221.87
914.46	221.88
914.76	221.87
915.06	221.86
915.37	221.84
915.67	221.83
915.97	221.84
916.27	221.82
916.58	221.82
916.88	221.82
917.18	221.81
917.49	221.88
917.79	221.87
918.09	221.89
918.39	221.91
918.70	221.90
919.00	221.91
919.30	221.96
919.60	221.95
919.91	221.95
920.21	221.95
920.51	221.93
920.81	221.92
921.12	221.94
921.42	221.93
921.72	221.94
922.02	221.94
922.32	221.95
922.63	221.96
922.93	222.01
923.23	222.02
923.53	222.01
923.83	221.94
924.13	221.95
924.44	221.94
924.74	221.95
925.04	221.98
925.34	221.98
925.64	221.93
925.94	221.94
926.24	221.99
926.55	221.98
926.85	221.99
927.15	222.00
927.45	221.99
927.75	221.99
928.05	221.99
928.35	221.99
928.65	222.00
928.95	222.01
929.26	221.96
929.56	221.98
929.86	221.99
930.16	221.99
930.46	221.98
930.76	221.98
931.06	221.93
931.36	221.90
931.66	221.91
931.96	221.93
932.26	221.93
932.56	221.88
932.86	221.89
933.16	221.89
933.46	221.88
933.76	221.87
934.06	221.89
934.36	221.92
934.66	221.91
934.96	221.90
935.26	221.90
935.56	221.91
935.86	221.88
936.16	221.87
936.46	221.86
936.76	221.86
937.06	221.85
937.36	221.85
937.66	221.85
937.96	221.84
938.26	221.82
938.56	221.81
938.86	221.82
939.16	221.84
939.46	221.85
939.76	221.86
940.06	221.85
940.35	221.83
940.65	221.79
940.95	221.80
941.25	221.77
941.55	221.75
941.85	221.74
942.15	221.77
942.45	221.80
942.75	221.80
943.04	221.80
943.34	221.82
943.64	221.81
943.94	221.79
944.24	221.79
944.54	221.80
944.84	221.80
945.13	221.79
945.43	221.76
945.73	221.76
946.03	221.75
946.33	221.74
946.62	221.73
946.92	221.73
947.22	221.73
947.52	221.75
947.82	221.76
948.11	221.75
948.41	221.72
948.71	221.69
949.01	221.70
949.31	221.69
949.60	221.68
949.90	221.70
950.20	221.70
950.50	221.70
950.79	221.69
951.09	221.70
951.39	221.70
951.69	221.70
951.98	221.71
952.28	221.72
952.58	221.72
952.87	221.72
953.17	221.73
953.47	221.72
953.76	221.72
954.06	221.69
954.36	221.69
954.66	221.69
954.95	221.72
955.25	221.73
955.55	221.73
955.84	221.72
956.14	221.73
956.44	221.73
956.73	221.72
957.03	221.73
957.32	221.72
957.62	221.72
957.92	221.74
958.21	221.73
958.51	221.85
958.81	221.86
959.10	221.88
959.40	221.90
959.69	221.90
959.99	221.92
960.29	221.92
960.58	221.92
960.88	221.95
961.17	221.93
961.47	221.94
961.76	221.94
962.06	221.96
962.36	221.94
962.65	221.94
962.95	221.95
963.24	221.94
963.54	221.94
963.83	221.95
964.13	221.94
964.42	221.92
964.72	221.83
965.01	221.84
965.31	221.83
965.60	221.80
965.90	221.87
966.19	221.84
966.49	221.85
966.78	221.85
967.08	221.84
967.37	221.84
967.67	221.82
967.96	221.84
968.26	221.83
968.55	221.85
968.85	221.84
969.14	221.84
969.43	221.84
969.73	221.83
970.02	221.82
970.32	221.82
970.61	221.80
970.91	221.77
971.20	221.76
971.49	221.75
971.79	221.76
972.08	221.68
972.38	221.69
972.67	221.68
972.96	221.69
973.26	221.67
973.55	221.70
973.85	221.70
974.14	221.69
974.43	221.70
974.73	221.67
975.02	221.67
975.31	221.66
975.61	221.66
975.90	221.66
976.19	221.65
976.49	221.65
976.78	221.67
977.07	221.66
977.37	221.67
977.66	221.68
977.95	221.66
978.24	221.67
978.54	221.69
978.83	221.69
979.12	221.67
979.42	221.68
979.71	221.66
980.00	221.66
980.29	221.66
980.59	221.63
980.88	221.66
981.17	221.66
981.46	221.66
981.76	221.66
982.05	221.69
982.34	221.70
982.63	221.70
982.93	221.70
983.22	221.72
983.51	221.73
983.80	221.74
984.09	221.76
984.39	221.75
984.68	221.73
984.97	221.74
985.26	221.73
985.55	221.74
985.85	221.72
986.14	221.73
986.43	221.74
986.72	221.74
987.01	221.71
987.30	221.72
987.59	221.71
987.89	221.71
988.18	221.68
988.47	221.67
988.76	221.65
989.05	221.64
989.34	221.63
989.63	221.66
989.92	221.64
990.22	221.63
990.51	221.63
990.80	221.62
991.09	221.63
991.38	221.64
991.67	221.63
991.96	221.62
992.25	221.62
992.54	221.60
992.83	221.61
993.12	221.60
993.41	221.62
993.70	221.66
993.99	221.68
994.28	221.70
994.58	221.72
994.87	221.71
995.16	221.71
995.45	221.70
995.74	221.67
996.03	221.68
996.32	221.70
996.61	221.72
996.90	221.72
997.19	221.71
997.48	221.71
997.77	221.70
998.06	221.71
998.34	221.70
998.63	221.70
998.92	221.70
999.21	221.72
999.50	221.72
999.79	221.68
1000.08	221.67
1000.37	221.67
1000.66	221.66
1000.95	221.68
1001.24	221.69
1001.53	221.70
1001.82	221.70
1002.11	221.68
1002.40	221.69
1002.68	221.71
1002.97	221.78
1003.26	221.77
1003.55	221.76
1003.84	221.76
1004.13	221.80
1004.42	221.79
1004.71	221.79
1004.99	221.79
1005.28	221.80
1005.57	221.80
1005.86	221.79
1006.15	221.78
1006.44	221.77
1006.72	221.78
1007.01	221.76
1007.30	221.76
1007.59	221.75
1007.88	221.75
1008.17	221.75
1008.45	221.73
1008.74	221.69
1009.03	221.64
1009.32	221.64
1009.60	221.64
1009.89	221.63
1010.18	221.59
1010.47	221.58
1010.76	221.58
1011.04	221.58
1011.33	221.58
1011.62	221.58
1011.91	221.59
1012.19	221.60
1012.48	221.60
1012.77	221.59
1013.05	221.63
1013.34	221.63
1013.63	221.63
1013.92	221.63
1014.20	221.63
1014.49	221.63
1014.78	221.64
1015.06	221.61
1015.35	221.61
1015.64	221.62
1015.92	221.64
1016.21	221.64
1016.50	221.65
1016.78	221.66
1017.07	221.66
1017.36	221.65
1017.64	221.63
1017.93	221.64
1018.22	221.63
1018.50	221.63
1018.79	221.63
1019.08	221.60
1019.36	221.60
1019.65	221.60
1019.93	221.62
1020.22	221.64
1020.51	221.69
1020.79	221.68
1021.08	221.52
1021.36	221.50
1021.65	221.67
1021.94	221.59
1022.22	221.71
1022.51	221.51
1022.79	222.11
1023.08	221.74
1023.36	222.83
1023.65	221.41
>>>>>End Processed Spectral Data<<<<<
