SpectraSuite Data File
++++++++++++++++++++++++++++++++++++
Date: Wed Sep 30 18:37:43 EDT 2015
User: lab3
Dark Spectrum Present: No
Reference Spectrum Present: No
Number of Sampled Component Spectra: 1
Spectrometers: USB2E7196
Integration Time (usec): 36000 (USB2E7196)
Spectra Averaged: 3000 (USB2E7196)
Boxcar Smoothing: 10 (USB2E7196)
Correct for Electrical Dark: No (USB2E7196)
Strobe/Lamp Enabled: No (USB2E7196)
Correct for Detector Non-linearity: No (USB2E7196)
Correct for Stray Light: No (USB2E7196)
Number of Pixels in Processed Spectrum: 2048
>>>>>Begin Processed Spectral Data<<<<<
339.09	0.00
339.48	210.24
339.86	211.84
340.24	213.16
340.63	214.60
341.01	217.53
341.39	217.24
341.78	218.58
342.16	219.70
342.54	220.25
342.93	208.86
343.31	219.42
343.69	219.96
344.07	220.41
344.46	220.84
344.84	221.23
345.22	221.46
345.60	221.72
345.99	221.91
346.37	222.05
346.75	222.15
347.13	222.23
347.52	222.30
347.90	222.38
348.28	222.41
348.66	222.47
349.05	222.47
349.43	222.53
349.81	222.59
350.19	222.64
350.57	222.71
350.96	222.79
351.34	222.88
351.72	222.97
352.10	223.08
352.48	223.15
352.87	223.20
353.25	223.27
353.63	223.33
354.01	223.40
354.39	223.48
354.77	223.56
355.15	223.66
355.54	223.72
355.92	223.75
356.30	223.83
356.68	223.97
357.06	224.04
357.44	224.09
357.82	224.15
358.20	224.26
358.58	224.32
358.97	224.38
359.35	224.46
359.73	224.54
360.11	224.60
360.49	224.66
360.87	224.72
361.25	224.78
361.63	224.86
362.01	224.91
362.39	224.95
362.77	225.00
363.15	225.02
363.53	225.05
363.91	225.08
364.29	225.11
364.67	225.04
365.05	225.06
365.43	225.08
365.81	225.12
366.19	225.13
366.57	225.19
366.95	225.19
367.33	225.16
367.71	225.17
368.09	225.18
368.47	225.18
368.85	225.16
369.23	225.16
369.61	225.12
369.99	225.13
370.37	225.12
370.75	225.18
371.13	225.16
371.51	225.12
371.89	225.09
372.27	225.06
372.65	225.04
373.03	225.00
373.41	224.96
373.78	224.91
374.16	224.82
374.54	224.74
374.92	224.69
375.30	224.65
375.68	224.58
376.06	224.53
376.44	224.48
376.82	224.44
377.19	224.39
377.57	224.34
377.95	224.25
378.33	224.19
378.71	224.04
379.09	223.99
379.47	223.96
379.84	223.90
380.22	223.83
380.60	223.76
380.98	223.71
381.36	223.65
381.73	223.59
382.11	223.56
382.49	223.52
382.87	223.47
383.25	223.41
383.62	223.49
384.00	223.42
384.38	223.38
384.76	223.35
385.13	223.34
385.51	223.29
385.89	223.24
386.27	223.21
386.64	223.19
387.02	223.15
387.40	223.09
387.78	223.06
388.15	223.03
388.53	223.00
388.91	222.97
389.29	222.93
389.66	222.93
390.04	222.89
390.42	222.88
390.79	222.87
391.17	222.85
391.55	222.71
391.92	222.70
392.30	222.69
392.68	222.66
393.05	222.63
393.43	222.63
393.81	222.63
394.18	222.61
394.56	222.61
394.94	222.63
395.31	222.63
395.69	222.67
396.06	222.69
396.44	222.71
396.82	222.72
397.19	222.80
397.57	222.80
397.95	222.84
398.32	222.84
398.70	222.87
399.07	222.93
399.45	222.96
399.82	223.01
400.20	223.05
400.58	223.10
400.95	223.11
401.33	223.18
401.70	223.31
402.08	223.40
402.45	223.48
402.83	223.57
403.20	223.67
403.58	223.74
403.95	223.86
404.33	223.99
404.71	224.12
405.08	224.30
405.46	224.43
405.83	224.59
406.21	224.76
406.58	224.94
406.96	225.12
407.33	225.32
407.70	225.55
408.08	225.87
408.45	226.15
408.83	226.45
409.20	226.72
409.58	226.97
409.95	227.31
410.33	227.67
410.70	228.01
411.08	228.42
411.45	228.85
411.82	229.28
412.20	229.77
412.57	230.36
412.95	230.81
413.32	231.42
413.69	232.04
414.07	232.69
414.44	233.41
414.82	234.14
415.19	235.00
415.56	235.87
415.94	236.76
416.31	237.77
416.68	238.78
417.06	239.96
417.43	241.06
417.81	242.33
418.18	243.63
418.55	245.04
418.93	246.51
419.30	248.05
419.67	249.69
420.04	251.37
420.42	253.13
420.79	255.17
421.16	257.22
421.54	259.31
421.91	261.49
422.28	263.75
422.66	266.20
423.03	268.54
423.40	271.01
423.77	273.64
424.15	276.33
424.52	279.13
424.89	282.17
425.26	285.19
425.64	287.99
426.01	291.15
426.38	294.37
426.75	297.71
427.13	301.13
427.50	304.69
427.87	308.40
428.24	312.15
428.61	315.73
428.99	319.59
429.36	323.83
429.73	327.89
430.10	331.95
430.47	336.07
430.85	340.32
431.22	344.84
431.59	349.50
431.96	354.04
432.33	359.06
432.70	363.82
433.08	369.45
433.45	374.78
433.82	380.01
434.19	385.86
434.56	391.59
434.93	397.12
435.30	402.59
435.68	408.74
436.05	414.76
436.42	420.78
436.79	426.28
437.16	432.20
437.53	438.55
437.90	444.87
438.27	451.04
438.64	457.74
439.01	463.80
439.38	469.33
439.75	474.66
440.13	480.74
440.50	486.53
440.87	491.08
441.24	496.06
441.61	501.57
441.98	505.61
442.35	510.41
442.72	515.32
443.09	520.02
443.46	523.05
443.83	525.27
444.20	527.16
444.57	529.89
444.94	531.49
445.31	533.14
445.68	534.61
446.05	535.72
446.42	535.51
446.79	535.22
447.16	534.95
447.53	534.76
447.90	532.92
448.27	531.21
448.64	528.53
449.01	526.75
449.37	522.90
449.74	519.40
450.11	514.91
450.48	509.97
450.85	505.00
451.22	500.78
451.59	496.66
451.96	492.89
452.33	487.41
452.70	482.54
453.07	476.60
453.43	470.64
453.80	464.88
454.17	459.36
454.54	454.22
454.91	448.43
455.28	442.97
455.65	437.83
456.02	432.37
456.38	427.96
456.75	422.28
457.12	417.70
457.49	413.09
457.86	408.67
458.23	404.81
458.59	400.55
458.96	396.16
459.33	392.29
459.70	388.36
460.07	385.35
460.43	381.81
460.80	378.50
461.17	375.59
461.54	372.45
461.91	369.51
462.27	366.52
462.64	364.06
463.01	361.26
463.38	358.43
463.74	355.86
464.11	353.57
464.48	351.50
464.85	349.28
465.21	347.58
465.58	345.71
465.95	343.54
466.32	341.80
466.68	340.12
467.05	338.42
467.42	336.77
467.78	335.00
468.15	333.36
468.52	332.14
468.88	330.54
469.25	329.06
469.62	327.91
469.98	326.65
470.35	325.54
470.72	324.53
471.08	323.50
471.45	322.64
471.82	321.70
472.18	320.71
472.55	320.08
472.92	319.30
473.28	318.69
473.65	318.07
474.02	317.48
474.38	316.98
474.75	316.71
475.11	316.31
475.48	316.15
475.85	315.99
476.21	315.93
476.58	315.94
476.94	316.12
477.31	316.22
477.67	316.36
478.04	316.60
478.41	316.93
478.77	317.38
479.14	317.70
479.50	318.24
479.87	318.92
480.23	319.60
480.60	320.24
480.96	320.91
481.33	321.84
481.69	322.77
482.06	323.70
482.42	324.57
482.79	325.63
483.15	326.84
483.52	328.20
483.88	329.52
484.25	330.92
484.61	332.38
484.98	333.95
485.34	335.71
485.71	337.54
486.07	339.48
486.44	341.41
486.80	343.57
487.17	345.77
487.53	348.20
487.90	350.71
488.26	353.44
488.62	356.31
488.99	359.20
489.35	362.22
489.72	365.47
490.08	368.89
490.44	372.39
490.81	376.06
491.17	379.82
491.54	383.84
491.90	387.96
492.26	392.39
492.63	397.06
492.99	401.93
493.36	406.93
493.72	412.18
494.08	417.55
494.45	423.25
494.81	429.15
495.17	435.16
495.54	441.53
495.90	448.20
496.26	455.02
496.63	462.05
496.99	469.38
497.35	477.08
497.72	485.06
498.08	493.22
498.44	501.63
498.80	510.57
499.17	519.74
499.53	529.23
499.89	538.96
500.26	548.88
500.62	559.04
500.98	569.89
501.34	580.86
501.71	592.38
502.07	604.11
502.43	616.24
502.79	628.71
503.16	641.60
503.52	654.66
503.88	668.06
504.24	681.91
504.60	696.04
504.97	710.54
505.33	725.42
505.69	741.20
506.05	757.19
506.41	773.23
506.78	789.56
507.14	806.37
507.50	823.79
507.86	841.55
508.22	859.59
508.59	877.62
508.95	896.43
509.31	915.65
509.67	935.54
510.03	955.71
510.39	976.08
510.75	996.65
511.12	1017.51
511.48	1038.73
511.84	1060.06
512.20	1081.68
512.56	1104.42
512.92	1127.43
513.28	1150.16
513.64	1173.15
514.00	1196.58
514.37	1220.34
514.73	1244.10
515.09	1267.73
515.45	1291.76
515.81	1316.36
516.17	1341.06
516.53	1365.44
516.89	1389.89
517.25	1414.51
517.61	1439.34
517.97	1464.41
518.33	1489.26
518.69	1514.33
519.05	1539.67
519.41	1565.16
519.77	1590.92
520.13	1615.90
520.49	1641.04
520.85	1666.37
521.21	1691.64
521.57	1717.51
521.93	1742.70
522.29	1768.75
522.65	1794.48
523.01	1820.06
523.37	1844.94
523.73	1870.43
524.09	1896.11
524.45	1921.73
524.81	1946.95
525.17	1972.03
525.53	1996.66
525.89	2021.29
526.25	2046.08
526.61	2070.30
526.97	2094.82
527.33	2119.27
527.68	2143.66
528.04	2167.21
528.40	2190.61
528.76	2214.25
529.12	2236.82
529.48	2259.86
529.84	2281.03
530.20	2302.82
530.56	2324.26
530.91	2345.75
531.27	2366.78
531.63	2387.18
531.99	2407.01
532.35	2426.56
532.71	2446.31
533.07	2466.70
533.42	2485.46
533.78	2504.68
534.14	2523.80
534.50	2542.19
534.86	2561.15
535.21	2578.32
535.57	2595.45
535.93	2611.71
536.29	2626.82
536.65	2642.58
537.00	2657.25
537.36	2672.58
537.72	2686.75
538.08	2700.79
538.44	2713.69
538.79	2726.77
539.15	2738.14
539.51	2749.43
539.87	2760.21
540.22	2768.85
540.58	2777.54
540.94	2786.96
541.29	2794.72
541.65	2801.64
542.01	2807.97
542.37	2812.43
542.72	2818.66
543.08	2824.31
543.44	2830.05
543.79	2834.90
544.15	2839.15
544.51	2843.23
544.87	2846.35
545.22	2849.07
545.58	2850.67
545.94	2852.73
546.29	2853.42
546.65	2854.31
547.01	2855.14
547.36	2856.21
547.72	2857.57
548.07	2857.39
548.43	2856.50
548.79	2854.97
549.14	2853.47
549.50	2852.41
549.86	2850.70
550.21	2846.52
550.57	2842.91
550.92	2837.69
551.28	2833.14
551.64	2828.30
551.99	2823.94
552.35	2819.19
552.70	2813.98
553.06	2809.45
553.41	2804.36
553.77	2798.66
554.13	2793.59
554.48	2787.80
554.84	2780.25
555.19	2772.69
555.55	2764.54
555.90	2756.87
556.26	2750.42
556.61	2743.35
556.97	2734.14
557.32	2725.79
557.68	2717.81
558.03	2709.04
558.39	2701.09
558.74	2693.35
559.10	2684.44
559.45	2675.19
559.81	2666.04
560.16	2656.38
560.52	2646.20
560.87	2637.05
561.23	2627.64
561.58	2617.72
561.94	2607.57
562.29	2596.91
562.64	2586.76
563.00	2576.99
563.35	2567.24
563.71	2556.36
564.06	2544.96
564.42	2534.65
564.77	2523.87
565.12	2513.22
565.48	2502.21
565.83	2491.84
566.19	2481.53
566.54	2470.84
566.89	2459.09
567.25	2447.54
567.60	2436.85
567.96	2425.70
568.31	2413.28
568.66	2400.59
569.02	2388.96
569.37	2377.14
569.72	2365.93
570.08	2353.86
570.43	2341.18
570.78	2328.22
571.14	2315.20
571.49	2302.91
571.84	2290.86
572.20	2277.37
572.55	2264.42
572.90	2251.43
573.26	2237.71
573.61	2223.31
573.96	2209.05
574.31	2195.20
574.67	2181.54
575.02	2167.28
575.37	2152.74
575.72	2138.43
576.08	2124.74
576.43	2109.93
576.78	2095.04
577.13	2080.93
577.49	2067.14
577.84	2053.77
578.19	2039.52
578.54	2024.75
578.90	2009.46
579.25	1993.91
579.60	1979.93
579.95	1965.55
580.30	1951.17
580.66	1936.93
581.01	1922.22
581.36	1907.99
581.71	1894.37
582.06	1880.27
582.42	1866.28
582.77	1853.03
583.12	1839.35
583.47	1825.65
583.82	1812.12
584.17	1798.45
584.53	1784.66
584.88	1770.82
585.23	1756.73
585.58	1743.12
585.93	1729.88
586.28	1717.46
586.63	1704.88
586.98	1691.47
587.34	1678.38
587.69	1664.74
588.04	1651.32
588.39	1638.62
588.74	1625.37
589.09	1611.88
589.44	1598.32
589.79	1585.35
590.14	1572.19
590.49	1559.30
590.84	1546.34
591.19	1533.97
591.54	1521.18
591.89	1508.20
592.25	1495.54
592.60	1482.38
592.95	1469.79
593.30	1457.55
593.65	1445.19
594.00	1432.97
594.35	1421.62
594.70	1409.27
595.05	1398.00
595.40	1386.65
595.75	1374.68
596.10	1363.50
596.45	1352.56
596.80	1342.09
597.15	1331.32
597.50	1320.60
597.85	1310.01
598.19	1299.64
598.54	1288.74
598.89	1278.52
599.24	1268.64
599.59	1258.49
599.94	1249.37
600.29	1240.16
600.64	1230.78
600.99	1220.77
601.34	1211.24
601.69	1201.09
602.04	1192.11
602.39	1183.02
602.74	1174.15
603.08	1165.57
603.43	1156.46
603.78	1147.14
604.13	1137.98
604.48	1128.79
604.83	1119.86
605.18	1110.85
605.53	1101.78
605.87	1092.78
606.22	1084.07
606.57	1075.07
606.92	1066.08
607.27	1057.08
607.62	1048.12
607.96	1039.32
608.31	1031.54
608.66	1023.37
609.01	1015.62
609.36	1007.76
609.70	999.64
610.05	991.40
610.40	983.50
610.75	975.76
611.10	968.30
611.44	960.39
611.79	952.84
612.14	944.91
612.49	937.08
612.83	929.75
613.18	922.54
613.53	915.18
613.88	907.85
614.22	901.19
614.57	894.28
614.92	887.36
615.27	880.47
615.61	873.42
615.96	866.62
616.31	859.72
616.65	852.77
617.00	846.04
617.35	839.39
617.70	832.79
618.04	826.28
618.39	819.81
618.74	813.69
619.08	807.34
619.43	801.26
619.78	795.25
620.12	789.02
620.47	782.97
620.82	776.91
621.16	771.25
621.51	765.22
621.85	759.21
622.20	753.21
622.55	747.39
622.89	741.51
623.24	735.65
623.59	729.94
623.93	724.25
624.28	718.71
624.62	713.17
624.97	707.60
625.32	702.14
625.66	696.58
626.01	691.00
626.35	685.58
626.70	680.18
627.04	674.97
627.39	669.83
627.73	664.77
628.08	659.95
628.43	655.00
628.77	650.08
629.12	645.28
629.46	640.74
629.81	636.02
630.15	631.20
630.50	626.52
630.84	621.98
631.19	617.65
631.53	613.37
631.88	608.98
632.22	604.69
632.57	600.63
632.91	596.50
633.26	592.49
633.60	588.54
633.95	584.74
634.29	580.77
634.64	576.74
634.98	572.62
635.32	568.67
635.67	564.88
636.01	561.07
636.36	557.26
636.70	553.59
637.05	549.90
637.39	546.40
637.73	542.79
638.08	539.26
638.42	535.70
638.77	532.00
639.11	528.31
639.45	524.64
639.80	520.96
640.14	517.46
640.49	513.91
640.83	510.30
641.17	506.68
641.52	503.25
641.86	499.83
642.20	496.56
642.55	493.16
642.89	489.81
643.23	486.68
643.58	483.81
643.92	480.79
644.26	477.82
644.61	474.83
644.95	471.84
645.29	468.80
645.64	465.71
645.98	462.78
646.32	460.01
646.66	457.25
647.01	454.47
647.35	451.74
647.69	448.93
648.04	446.20
648.38	443.53
648.72	440.80
649.06	438.16
649.41	435.58
649.75	432.98
650.09	430.39
650.43	427.81
650.78	425.21
651.12	422.62
651.46	420.09
651.80	417.70
652.14	415.39
652.49	413.08
652.83	410.84
653.17	408.58
653.51	406.39
653.85	404.27
654.20	402.09
654.54	399.83
654.88	397.72
655.22	395.71
655.56	393.67
655.90	391.71
656.25	389.78
656.59	387.83
656.93	385.98
657.27	384.17
657.61	382.28
657.95	380.43
658.29	378.60
658.64	376.80
658.98	374.95
659.32	373.15
659.66	371.44
660.00	369.75
660.34	368.09
660.68	366.37
661.02	364.60
661.36	362.95
661.70	361.36
662.05	359.77
662.39	358.15
662.73	356.60
663.07	355.10
663.41	353.60
663.75	352.14
664.09	350.70
664.43	349.19
664.77	347.76
665.11	346.27
665.45	344.84
665.79	343.42
666.13	342.01
666.47	340.58
666.81	339.12
667.15	337.64
667.49	336.25
667.83	334.91
668.17	333.62
668.51	332.33
668.85	331.08
669.19	329.88
669.53	328.63
669.87	327.36
670.21	326.11
670.55	324.88
670.89	323.73
671.23	322.52
671.57	321.32
671.91	320.19
672.25	319.12
672.58	318.07
672.92	316.98
673.26	315.95
673.60	314.94
673.94	313.91
674.28	312.93
674.62	311.96
674.96	310.95
675.30	309.99
675.64	309.02
675.97	308.06
676.31	307.08
676.65	306.11
676.99	305.21
677.33	304.25
677.67	303.34
678.01	302.35
678.34	301.44
678.68	300.60
679.02	299.70
679.36	298.82
679.70	297.94
680.04	297.09
680.37	296.22
680.71	295.38
681.05	294.61
681.39	293.79
681.73	292.94
682.06	292.14
682.40	291.34
682.74	290.57
683.08	289.82
683.42	289.05
683.75	288.35
684.09	287.57
684.43	286.86
684.77	286.11
685.10	285.43
685.44	284.73
685.78	284.01
686.12	283.34
686.45	282.65
686.79	281.95
687.13	281.28
687.46	280.59
687.80	279.92
688.14	279.21
688.48	278.56
688.81	277.90
689.15	277.29
689.49	276.65
689.82	276.02
690.16	275.34
690.50	274.72
690.83	274.10
691.17	273.50
691.51	272.90
691.84	272.34
692.18	271.73
692.52	271.11
692.85	270.52
693.19	269.97
693.52	269.41
693.86	268.85
694.20	268.30
694.53	267.78
694.87	267.22
695.21	266.70
695.54	266.19
695.88	265.67
696.21	265.10
696.55	264.58
696.88	264.06
697.22	263.56
697.56	263.06
697.89	262.52
698.23	262.01
698.56	261.48
698.90	260.99
699.23	260.49
699.57	260.04
699.90	259.57
700.24	259.08
700.58	258.62
700.91	258.20
701.25	257.85
701.58	257.46
701.92	257.07
702.25	256.65
702.59	256.21
702.92	255.80
703.26	255.39
703.59	254.99
703.93	254.66
704.26	254.28
704.60	253.89
704.93	253.52
705.26	253.14
705.60	252.82
705.93	252.43
706.27	252.11
706.60	251.77
706.94	251.45
707.27	251.07
707.61	250.70
707.94	250.33
708.27	249.88
708.61	249.49
708.94	249.13
709.28	248.79
709.61	248.45
709.94	248.14
710.28	247.84
710.61	247.54
710.95	247.16
711.28	246.92
711.61	246.62
711.95	246.36
712.28	246.06
712.61	245.75
712.95	245.53
713.28	245.29
713.61	245.01
713.95	244.71
714.28	244.46
714.61	244.18
714.95	243.92
715.28	243.65
715.61	243.40
715.95	243.17
716.28	242.92
716.61	242.70
716.95	242.46
717.28	242.22
717.61	241.98
717.94	241.75
718.28	241.46
718.61	241.23
718.94	240.99
719.27	240.77
719.61	240.56
719.94	240.32
720.27	240.06
720.60	239.84
720.94	239.64
721.27	239.44
721.60	239.27
721.93	239.08
722.27	238.93
722.60	238.75
722.93	238.53
723.26	238.36
723.59	238.15
723.93	237.98
724.26	237.81
724.59	237.63
724.92	237.47
725.25	237.33
725.59	237.16
725.92	237.02
726.25	236.86
726.58	236.71
726.91	236.54
727.24	236.38
727.57	236.23
727.91	236.06
728.24	235.92
728.57	235.74
728.90	235.61
729.23	235.43
729.56	235.33
729.89	235.18
730.22	235.02
730.55	234.88
730.89	234.73
731.22	234.59
731.55	234.44
731.88	234.30
732.21	234.14
732.54	234.01
732.87	233.88
733.20	233.77
733.53	233.65
733.86	233.54
734.19	233.42
734.52	233.32
734.85	233.28
735.18	233.14
735.51	233.06
735.84	232.94
736.17	232.85
736.50	232.70
736.83	232.72
737.16	232.61
737.49	232.52
737.82	232.41
738.15	232.33
738.48	232.23
738.81	232.13
739.14	232.01
739.47	231.90
739.80	231.79
740.13	231.70
740.46	231.58
740.79	231.47
741.12	231.37
741.45	231.25
741.78	231.10
742.11	231.04
742.44	230.91
742.77	230.83
743.10	230.73
743.43	230.63
743.75	230.42
744.08	230.49
744.41	230.40
744.74	230.30
745.07	230.19
745.40	230.12
745.73	230.08
746.06	230.01
746.39	229.95
746.71	229.86
747.04	229.76
747.37	229.69
747.70	229.63
748.03	229.56
748.36	229.50
748.68	229.42
749.01	229.31
749.34	229.24
749.67	229.17
750.00	229.10
750.33	229.12
750.65	229.06
750.98	228.84
751.31	228.78
751.64	228.72
751.97	228.70
752.29	228.63
752.62	228.51
752.95	228.44
753.28	228.35
753.60	228.28
753.93	228.24
754.26	228.18
754.59	228.08
754.91	228.00
755.24	227.92
755.57	227.91
755.90	227.85
756.22	227.78
756.55	227.70
756.88	227.61
757.20	227.47
757.53	227.38
757.86	227.32
758.19	227.27
758.51	227.21
758.84	227.10
759.17	227.04
759.49	226.99
759.82	226.99
760.15	226.95
760.47	226.90
760.80	226.82
761.13	226.79
761.45	226.75
761.78	226.69
762.11	226.64
762.43	226.54
762.76	226.49
763.08	226.46
763.41	226.41
763.74	226.38
764.06	226.34
764.39	226.30
764.71	226.26
765.04	226.21
765.37	226.16
765.69	226.11
766.02	226.07
766.34	226.02
766.67	225.93
767.00	225.91
767.32	225.92
767.65	225.95
767.97	225.90
768.30	225.86
768.62	225.83
768.95	225.78
769.27	225.74
769.60	225.71
769.92	225.66
770.25	225.61
770.57	225.56
770.90	225.53
771.22	225.48
771.55	225.45
771.87	225.43
772.20	225.39
772.52	225.45
772.85	225.54
773.17	225.51
773.50	225.48
773.82	225.43
774.15	225.34
774.47	225.25
774.80	225.20
775.12	225.18
775.45	225.14
775.77	225.12
776.09	225.10
776.42	225.08
776.74	225.09
777.07	225.06
777.39	225.03
777.72	225.00
778.04	224.98
778.36	224.94
778.69	224.91
779.01	224.90
779.33	224.78
779.66	224.64
779.98	224.61
780.31	224.58
780.63	224.60
780.95	224.60
781.28	224.58
781.60	224.55
781.92	224.52
782.25	224.51
782.57	224.48
782.89	224.45
783.22	224.42
783.54	224.38
783.86	224.37
784.19	224.35
784.51	224.35
784.83	224.33
785.16	224.31
785.48	224.29
785.80	224.27
786.12	224.27
786.45	224.25
786.77	224.24
787.09	224.22
787.42	224.17
787.74	224.16
788.06	224.15
788.38	224.14
788.71	224.12
789.03	224.11
789.35	224.11
789.67	224.08
789.99	224.07
790.32	224.04
790.64	224.03
790.96	224.12
791.28	224.07
791.61	224.05
791.93	224.05
792.25	224.03
792.57	224.09
792.89	224.05
793.21	224.05
793.54	224.02
793.86	224.00
794.18	223.99
794.50	223.95
794.82	223.94
795.14	223.94
795.47	223.93
795.79	223.91
796.11	223.87
796.43	223.86
796.75	223.85
797.07	223.85
797.39	223.82
797.71	223.72
798.04	223.71
798.36	223.71
798.68	223.68
799.00	223.68
799.32	223.62
799.64	223.63
799.96	223.61
800.28	223.62
800.60	223.61
800.92	223.60
801.24	223.59
801.56	223.58
801.89	223.56
802.21	223.55
802.53	223.53
802.85	223.55
803.17	223.59
803.49	223.55
803.81	223.53
804.13	223.51
804.45	223.49
804.77	223.49
805.09	223.48
805.41	223.46
805.73	223.43
806.05	223.38
806.37	223.37
806.69	223.35
807.01	223.33
807.33	223.33
807.65	223.29
807.97	223.33
808.28	223.31
808.60	223.30
808.92	223.28
809.24	223.33
809.56	223.31
809.88	223.26
810.20	223.27
810.52	223.28
810.84	223.25
811.16	223.24
811.48	223.22
811.80	223.25
812.12	223.24
812.43	223.26
812.75	223.26
813.07	223.23
813.39	223.23
813.71	223.21
814.03	223.19
814.35	223.19
814.67	223.14
814.98	223.13
815.30	223.11
815.62	223.09
815.94	223.02
816.26	223.02
816.58	222.99
816.89	222.99
817.21	222.96
817.53	222.96
817.85	222.97
818.17	222.96
818.48	222.92
818.80	222.94
819.12	222.91
819.44	222.89
819.76	222.88
820.07	222.88
820.39	222.87
820.71	222.87
821.03	222.87
821.34	222.86
821.66	222.86
821.98	222.87
822.30	222.87
822.61	222.93
822.93	222.92
823.25	222.91
823.57	222.89
823.88	222.91
824.20	222.90
824.52	222.91
824.83	222.90
825.15	222.89
825.47	222.88
825.79	222.88
826.10	222.88
826.42	222.87
826.74	222.87
827.05	222.86
827.37	222.86
827.69	222.85
828.00	222.85
828.32	222.85
828.64	222.84
828.95	222.89
829.27	222.84
829.58	222.84
829.90	222.86
830.22	222.86
830.53	222.84
830.85	222.83
831.17	222.80
831.48	222.79
831.80	222.79
832.11	222.78
832.43	222.77
832.75	222.77
833.06	222.83
833.38	222.81
833.69	222.80
834.01	222.80
834.32	222.80
834.64	222.78
834.96	222.77
835.27	222.76
835.59	222.73
835.90	222.71
836.22	222.70
836.53	222.67
836.85	222.66
837.16	222.76
837.48	222.76
837.79	222.80
838.11	222.80
838.42	222.80
838.74	222.81
839.05	222.81
839.37	222.80
839.68	222.73
840.00	222.73
840.31	222.75
840.63	222.73
840.94	222.72
841.26	222.71
841.57	222.70
841.88	222.71
842.20	222.70
842.51	222.68
842.83	222.68
843.14	222.78
843.46	222.76
843.77	222.70
844.08	222.69
844.40	222.65
844.71	222.63
845.03	222.62
845.34	222.61
845.65	222.60
845.97	222.60
846.28	222.61
846.60	222.61
846.91	222.59
847.22	222.58
847.54	222.61
847.85	222.62
848.16	222.61
848.48	222.58
848.79	222.62
849.10	222.63
849.42	222.65
849.73	222.54
850.04	222.54
850.36	222.50
850.67	222.51
850.98	222.53
851.30	222.54
851.61	222.53
851.92	222.52
852.23	222.55
852.55	222.55
852.86	222.55
853.17	222.55
853.49	222.57
853.80	222.59
854.11	222.59
854.42	222.60
854.74	222.59
855.05	222.59
855.36	222.54
855.67	222.54
855.99	222.53
856.30	222.66
856.61	222.65
856.92	222.66
857.23	222.66
857.55	222.64
857.86	222.63
858.17	222.65
858.48	222.63
858.79	222.61
859.11	222.61
859.42	222.62
859.73	222.60
860.04	222.59
860.35	222.56
860.66	222.53
860.98	222.51
861.29	222.53
861.60	222.52
861.91	222.54
862.22	222.53
862.53	222.51
862.84	222.39
863.16	222.40
863.47	222.38
863.78	222.37
864.09	222.38
864.40	222.39
864.71	222.40
865.02	222.41
865.33	222.40
865.64	222.38
865.95	222.38
866.27	222.44
866.58	222.43
866.89	222.45
867.20	222.46
867.51	222.45
867.82	222.44
868.13	222.47
868.44	222.45
868.75	222.47
869.06	222.48
869.37	222.49
869.68	222.47
869.99	222.49
870.30	222.50
870.61	222.51
870.92	222.50
871.23	222.48
871.54	222.50
871.85	222.52
872.16	222.54
872.47	222.53
872.78	222.48
873.09	222.49
873.40	222.48
873.71	222.48
874.02	222.49
874.33	222.47
874.64	222.46
874.95	222.48
875.26	222.45
875.56	222.44
875.87	222.44
876.18	222.43
876.49	222.53
876.80	222.52
877.11	222.50
877.42	222.51
877.73	222.51
878.04	222.49
878.35	222.49
878.66	222.49
878.96	222.49
879.27	222.49
879.58	222.48
879.89	222.48
880.20	222.50
880.51	222.50
880.82	222.50
881.12	222.51
881.43	222.48
881.74	222.48
882.05	222.48
882.36	222.48
882.67	222.49
882.97	222.38
883.28	222.37
883.59	222.37
883.90	222.38
884.21	222.39
884.51	222.38
884.82	222.37
885.13	222.37
885.44	222.37
885.74	222.37
886.05	222.36
886.36	222.36
886.67	222.33
886.98	222.38
887.28	222.39
887.59	222.38
887.90	222.39
888.20	222.39
888.51	222.40
888.82	222.38
889.13	222.38
889.43	222.47
889.74	222.47
890.05	222.47
890.35	222.46
890.66	222.43
890.97	222.42
891.28	222.41
891.58	222.40
891.89	222.40
892.20	222.38
892.50	222.37
892.81	222.36
893.12	222.36
893.42	222.31
893.73	222.31
894.04	222.32
894.34	222.32
894.65	222.31
894.95	222.30
895.26	222.31
895.57	222.36
895.87	222.25
896.18	222.27
896.48	222.27
896.79	222.27
897.10	222.29
897.40	222.30
897.71	222.31
898.01	222.30
898.32	222.32
898.63	222.32
898.93	222.33
899.24	222.33
899.54	222.32
899.85	222.32
900.15	222.31
900.46	222.31
900.76	222.32
901.07	222.32
901.38	222.32
901.68	222.33
901.99	222.27
902.29	222.28
902.60	222.27
902.90	222.26
903.21	222.25
903.51	222.24
903.82	222.25
904.12	222.25
904.43	222.26
904.73	222.25
905.03	222.24
905.34	222.34
905.64	222.33
905.95	222.33
906.25	222.33
906.56	222.32
906.86	222.31
907.17	222.30
907.47	222.31
907.77	222.29
908.08	222.26
908.38	222.26
908.69	222.27
908.99	222.29
909.30	222.30
909.60	222.30
909.90	222.30
910.21	222.28
910.51	222.25
910.81	222.25
911.12	222.26
911.42	222.27
911.73	222.16
912.03	222.17
912.33	222.19
912.64	222.18
912.94	222.18
913.24	222.16
913.55	222.15
913.85	222.14
914.15	222.16
914.46	222.18
914.76	222.17
915.06	222.16
915.37	222.13
915.67	222.12
915.97	222.12
916.27	222.10
916.58	222.10
916.88	222.10
917.18	222.09
917.49	222.16
917.79	222.15
918.09	222.17
918.39	222.19
918.70	222.18
919.00	222.19
919.30	222.23
919.60	222.23
919.91	222.22
920.21	222.22
920.51	222.20
920.81	222.19
921.12	222.21
921.42	222.21
921.72	222.22
922.02	222.23
922.32	222.24
922.63	222.24
922.93	222.30
923.23	222.31
923.53	222.30
923.83	222.22
924.13	222.23
924.44	222.22
924.74	222.23
925.04	222.26
925.34	222.26
925.64	222.22
925.94	222.22
926.24	222.28
926.55	222.27
926.85	222.28
927.15	222.28
927.45	222.28
927.75	222.28
928.05	222.27
928.35	222.26
928.65	222.27
928.95	222.28
929.26	222.22
929.56	222.24
929.86	222.25
930.16	222.25
930.46	222.24
930.76	222.24
931.06	222.19
931.36	222.16
931.66	222.18
931.96	222.19
932.26	222.20
932.56	222.16
932.86	222.17
933.16	222.17
933.46	222.16
933.76	222.14
934.06	222.16
934.36	222.20
934.66	222.20
934.96	222.18
935.26	222.18
935.56	222.20
935.86	222.17
936.16	222.16
936.46	222.15
936.76	222.14
937.06	222.13
937.36	222.13
937.66	222.14
937.96	222.12
938.26	222.10
938.56	222.09
938.86	222.09
939.16	222.11
939.46	222.11
939.76	222.12
940.06	222.12
940.35	222.11
940.65	222.06
940.95	222.07
941.25	222.03
941.55	222.03
941.85	222.02
942.15	222.04
942.45	222.07
942.75	222.07
943.04	222.07
943.34	222.10
943.64	222.08
943.94	222.06
944.24	222.06
944.54	222.07
944.84	222.08
945.13	222.06
945.43	222.04
945.73	222.03
946.03	222.02
946.33	222.01
946.62	222.00
946.92	222.00
947.22	222.01
947.52	222.02
947.82	222.02
948.11	222.01
948.41	221.99
948.71	221.96
949.01	221.97
949.31	221.96
949.60	221.95
949.90	221.97
950.20	221.96
950.50	221.96
950.79	221.95
951.09	221.96
951.39	221.96
951.69	221.95
951.98	221.97
952.28	221.97
952.58	221.97
952.87	221.97
953.17	221.99
953.47	221.97
953.76	221.97
954.06	221.96
954.36	221.95
954.66	221.94
954.95	221.98
955.25	221.98
955.55	222.00
955.84	221.99
956.14	222.00
956.44	222.01
956.73	222.00
957.03	222.01
957.32	222.01
957.62	222.01
957.92	222.03
958.21	222.02
958.51	222.14
958.81	222.15
959.10	222.17
959.40	222.18
959.69	222.19
959.99	222.20
960.29	222.20
960.58	222.20
960.88	222.24
961.17	222.22
961.47	222.23
961.76	222.22
962.06	222.23
962.36	222.21
962.65	222.22
962.95	222.24
963.24	222.23
963.54	222.23
963.83	222.24
964.13	222.23
964.42	222.23
964.72	222.13
965.01	222.14
965.31	222.13
965.60	222.10
965.90	222.17
966.19	222.15
966.49	222.16
966.78	222.15
967.08	222.13
967.37	222.13
967.67	222.12
967.96	222.14
968.26	222.13
968.55	222.15
968.85	222.15
969.14	222.14
969.43	222.13
969.73	222.11
970.02	222.11
970.32	222.10
970.61	222.09
970.91	222.06
971.20	222.05
971.49	222.04
971.79	222.06
972.08	221.98
972.38	221.99
972.67	221.99
972.96	222.01
973.26	221.99
973.55	222.02
973.85	222.01
974.14	222.00
974.43	222.01
974.73	221.99
975.02	221.98
975.31	221.99
975.61	221.98
975.90	221.98
976.19	221.97
976.49	221.98
976.78	221.98
977.07	221.98
977.37	221.99
977.66	222.00
977.95	221.99
978.24	222.00
978.54	222.01
978.83	222.00
979.12	221.99
979.42	221.99
979.71	221.97
980.00	221.97
980.29	221.97
980.59	221.95
980.88	221.98
981.17	221.97
981.46	221.97
981.76	221.98
982.05	222.01
982.34	222.01
982.63	222.02
982.93	222.03
983.22	222.05
983.51	222.05
983.80	222.07
984.09	222.08
984.39	222.06
984.68	222.06
984.97	222.07
985.26	222.07
985.55	222.08
985.85	222.06
986.14	222.07
986.43	222.08
986.72	222.08
987.01	222.05
987.30	222.05
987.59	222.05
987.89	222.05
988.18	222.02
988.47	222.01
988.76	222.00
989.05	221.99
989.34	221.96
989.63	221.99
989.92	221.97
990.22	221.96
990.51	221.96
990.80	221.95
991.09	221.96
991.38	221.97
991.67	221.96
991.96	221.95
992.25	221.95
992.54	221.93
992.83	221.94
993.12	221.93
993.41	221.95
993.70	221.98
993.99	222.00
994.28	222.02
994.58	222.03
994.87	222.02
995.16	222.02
995.45	222.02
995.74	221.98
996.03	222.00
996.32	222.01
996.61	222.03
996.90	222.03
997.19	222.02
997.48	222.02
997.77	222.01
998.06	222.02
998.34	222.01
998.63	222.00
998.92	222.01
999.21	222.03
999.50	222.02
999.79	221.99
1000.08	221.99
1000.37	221.99
1000.66	221.98
1000.95	222.01
1001.24	222.02
1001.53	222.03
1001.82	222.03
1002.11	222.01
1002.40	222.01
1002.68	222.04
1002.97	222.11
1003.26	222.10
1003.55	222.08
1003.84	222.09
1004.13	222.12
1004.42	222.11
1004.71	222.11
1004.99	222.10
1005.28	222.12
1005.57	222.12
1005.86	222.11
1006.15	222.09
1006.44	222.07
1006.72	222.07
1007.01	222.05
1007.30	222.04
1007.59	222.03
1007.88	222.02
1008.17	222.03
1008.45	222.01
1008.74	221.96
1009.03	221.91
1009.32	221.91
1009.60	221.92
1009.89	221.91
1010.18	221.87
1010.47	221.86
1010.76	221.87
1011.04	221.86
1011.33	221.85
1011.62	221.86
1011.91	221.87
1012.19	221.87
1012.48	221.88
1012.77	221.88
1013.05	221.92
1013.34	221.91
1013.63	221.91
1013.92	221.92
1014.20	221.91
1014.49	221.91
1014.78	221.92
1015.06	221.89
1015.35	221.89
1015.64	221.91
1015.92	221.92
1016.21	221.92
1016.50	221.93
1016.78	221.93
1017.07	221.94
1017.36	221.92
1017.64	221.90
1017.93	221.90
1018.22	221.90
1018.50	221.90
1018.79	221.91
1019.08	221.87
1019.36	221.88
1019.65	221.87
1019.93	221.90
1020.22	221.91
1020.51	221.96
1020.79	221.95
1021.08	221.91
1021.36	221.76
1021.65	221.89
1021.94	221.84
1022.22	222.03
1022.51	221.66
1022.79	222.41
1023.08	222.04
1023.36	223.12
1023.65	221.74
>>>>>End Processed Spectral Data<<<<<
