SpectraSuite Data File
++++++++++++++++++++++++++++++++++++
Date: Wed Sep 30 22:56:23 EDT 2015
User: lab3
Dark Spectrum Present: No
Reference Spectrum Present: No
Number of Sampled Component Spectra: 1
Spectrometers: USB2E7196
Integration Time (usec): 36000 (USB2E7196)
Spectra Averaged: 10000 (USB2E7196)
Boxcar Smoothing: 10 (USB2E7196)
Correct for Electrical Dark: No (USB2E7196)
Strobe/Lamp Enabled: No (USB2E7196)
Correct for Detector Non-linearity: No (USB2E7196)
Correct for Stray Light: No (USB2E7196)
Number of Pixels in Processed Spectrum: 2048
>>>>>Begin Processed Spectral Data<<<<<
339.09	0.00
339.48	210.26
339.86	211.77
340.24	213.18
340.63	214.54
341.01	217.44
341.39	217.20
341.78	218.62
342.16	219.80
342.54	220.25
342.93	208.87
343.31	219.43
343.69	219.97
344.07	220.43
344.46	220.86
344.84	221.24
345.22	221.48
345.60	221.74
345.99	221.94
346.37	222.08
346.75	222.19
347.13	222.27
347.52	222.34
347.90	222.42
348.28	222.46
348.66	222.51
349.05	222.51
349.43	222.56
349.81	222.62
350.19	222.67
350.57	222.75
350.96	222.82
351.34	222.91
351.72	223.01
352.10	223.12
352.48	223.19
352.87	223.25
353.25	223.31
353.63	223.37
354.01	223.43
354.39	223.51
354.77	223.59
355.15	223.69
355.54	223.74
355.92	223.78
356.30	223.86
356.68	223.99
357.06	224.07
357.44	224.12
357.82	224.17
358.20	224.28
358.58	224.34
358.97	224.41
359.35	224.49
359.73	224.56
360.11	224.62
360.49	224.68
360.87	224.73
361.25	224.79
361.63	224.87
362.01	224.92
362.39	224.95
362.77	225.00
363.15	225.02
363.53	225.05
363.91	225.09
364.29	225.11
364.67	225.03
365.05	225.06
365.43	225.09
365.81	225.11
366.19	225.13
366.57	225.18
366.95	225.18
367.33	225.15
367.71	225.15
368.09	225.17
368.47	225.16
368.85	225.15
369.23	225.16
369.61	225.11
369.99	225.12
370.37	225.12
370.75	225.17
371.13	225.14
371.51	225.10
371.89	225.08
372.27	225.06
372.65	225.04
373.03	224.99
373.41	224.95
373.78	224.90
374.16	224.81
374.54	224.73
374.92	224.68
375.30	224.64
375.68	224.58
376.06	224.53
376.44	224.48
376.82	224.43
377.19	224.38
377.57	224.33
377.95	224.24
378.33	224.18
378.71	224.03
379.09	223.98
379.47	223.95
379.84	223.88
380.22	223.82
380.60	223.75
380.98	223.70
381.36	223.65
381.73	223.59
382.11	223.55
382.49	223.51
382.87	223.45
383.25	223.40
383.62	223.47
384.00	223.40
384.38	223.36
384.76	223.34
385.13	223.33
385.51	223.29
385.89	223.23
386.27	223.20
386.64	223.18
387.02	223.13
387.40	223.08
387.78	223.05
388.15	223.03
388.53	223.00
388.91	222.97
389.29	222.93
389.66	222.92
390.04	222.88
390.42	222.87
390.79	222.86
391.17	222.84
391.55	222.70
391.92	222.69
392.30	222.69
392.68	222.65
393.05	222.63
393.43	222.62
393.81	222.63
394.18	222.61
394.56	222.61
394.94	222.64
395.31	222.64
395.69	222.69
396.06	222.71
396.44	222.73
396.82	222.74
397.19	222.81
397.57	222.82
397.95	222.86
398.32	222.86
398.70	222.90
399.07	222.96
399.45	223.00
399.82	223.04
400.20	223.07
400.58	223.13
400.95	223.14
401.33	223.22
401.70	223.35
402.08	223.44
402.45	223.51
402.83	223.61
403.20	223.71
403.58	223.78
403.95	223.91
404.33	224.04
404.71	224.17
405.08	224.34
405.46	224.48
405.83	224.64
406.21	224.81
406.58	225.00
406.96	225.18
407.33	225.39
407.70	225.63
408.08	225.95
408.45	226.23
408.83	226.54
409.20	226.82
409.58	227.07
409.95	227.42
410.33	227.78
410.70	228.14
411.08	228.54
411.45	228.98
411.82	229.42
412.20	229.92
412.57	230.52
412.95	230.98
413.32	231.60
413.69	232.22
414.07	232.89
414.44	233.62
414.82	234.35
415.19	235.22
415.56	236.10
415.94	237.01
416.31	238.04
416.68	239.06
417.06	240.26
417.43	241.37
417.81	242.67
418.18	243.98
418.55	245.42
418.93	246.91
419.30	248.47
419.67	250.13
420.04	251.83
420.42	253.62
420.79	255.69
421.16	257.77
421.54	259.88
421.91	262.10
422.28	264.39
422.66	266.88
423.03	269.24
423.40	271.72
423.77	274.39
424.15	277.12
424.52	279.95
424.89	283.02
425.26	286.07
425.64	288.90
426.01	292.09
426.38	295.35
426.75	298.71
427.13	302.16
427.50	305.75
427.87	309.49
428.24	313.27
428.61	316.88
428.99	320.78
429.36	325.05
429.73	329.14
430.10	333.21
430.47	337.37
430.85	341.65
431.22	346.21
431.59	350.89
431.96	355.45
432.33	360.49
432.70	365.28
433.08	370.94
433.45	376.29
433.82	381.54
434.19	387.40
434.56	393.16
434.93	398.72
435.30	404.21
435.68	410.39
436.05	416.44
436.42	422.49
436.79	428.00
437.16	433.95
437.53	440.32
437.90	446.68
438.27	452.89
438.64	459.64
439.01	465.74
439.38	471.31
439.75	476.68
440.13	482.83
440.50	488.68
440.87	493.28
441.24	498.34
441.61	503.94
441.98	508.04
442.35	512.92
442.72	517.93
443.09	522.72
443.46	525.81
443.83	528.11
444.20	530.05
444.57	532.90
444.94	534.60
445.31	536.36
445.68	537.93
446.05	539.11
446.42	538.99
446.79	538.77
447.16	538.60
447.53	538.47
447.90	536.70
448.27	535.04
448.64	532.39
449.01	530.64
449.37	526.82
449.74	523.35
450.11	518.88
450.48	513.94
450.85	508.97
451.22	504.75
451.59	500.62
451.96	496.87
452.33	491.36
452.70	486.45
453.07	480.46
453.43	474.45
453.80	468.65
454.17	463.06
454.54	457.87
454.91	452.01
455.28	446.50
455.65	441.30
456.02	435.76
456.38	431.30
456.75	425.54
457.12	420.89
457.49	416.20
457.86	411.72
458.23	407.80
458.59	403.46
458.96	399.00
459.33	395.07
459.70	391.06
460.07	388.00
460.43	384.40
460.80	381.03
461.17	378.06
461.54	374.85
461.91	371.86
462.27	368.82
462.64	366.33
463.01	363.48
463.38	360.61
463.74	358.00
464.11	355.68
464.48	353.59
464.85	351.34
465.21	349.62
465.58	347.72
465.95	345.52
466.32	343.76
466.68	342.05
467.05	340.33
467.42	338.66
467.78	336.87
468.15	335.21
468.52	333.97
468.88	332.35
469.25	330.88
469.62	329.70
469.98	328.42
470.35	327.28
470.72	326.25
471.08	325.21
471.45	324.34
471.82	323.39
472.18	322.40
472.55	321.75
472.92	320.96
473.28	320.34
473.65	319.70
474.02	319.10
474.38	318.60
474.75	318.33
475.11	317.91
475.48	317.76
475.85	317.60
476.21	317.54
476.58	317.55
476.94	317.74
477.31	317.86
477.67	318.00
478.04	318.26
478.41	318.59
478.77	319.05
479.14	319.38
479.50	319.93
479.87	320.61
480.23	321.30
480.60	321.96
480.96	322.65
481.33	323.60
481.69	324.54
482.06	325.48
482.42	326.37
482.79	327.44
483.15	328.66
483.52	330.03
483.88	331.35
484.25	332.76
484.61	334.23
484.98	335.81
485.34	337.59
485.71	339.43
486.07	341.39
486.44	343.33
486.80	345.50
487.17	347.71
487.53	350.16
487.90	352.69
488.26	355.45
488.62	358.34
488.99	361.25
489.35	364.28
489.72	367.56
490.08	371.00
490.44	374.54
490.81	378.25
491.17	382.04
491.54	386.10
491.90	390.25
492.26	394.73
492.63	399.43
492.99	404.32
493.36	409.34
493.72	414.63
494.08	420.06
494.45	425.78
494.81	431.72
495.17	437.78
495.54	444.18
495.90	450.90
496.26	457.75
496.63	464.83
496.99	472.20
497.35	479.94
497.72	487.97
498.08	496.15
498.44	504.60
498.80	513.59
499.17	522.81
499.53	532.36
499.89	542.14
500.26	552.10
500.62	562.34
500.98	573.24
501.34	584.28
501.71	595.87
502.07	607.67
502.43	619.87
502.79	632.40
503.16	645.34
503.52	658.46
503.88	671.95
504.24	685.88
504.60	700.10
504.97	714.69
505.33	729.66
505.69	745.52
506.05	761.58
506.41	777.64
506.78	794.03
507.14	810.88
507.50	828.33
507.86	846.18
508.22	864.28
508.59	882.41
508.95	901.26
509.31	920.53
509.67	940.50
510.03	960.70
510.39	981.11
510.75	1001.76
511.12	1022.70
511.48	1043.96
511.84	1065.32
512.20	1087.00
512.56	1109.75
512.92	1132.73
513.28	1155.43
513.64	1178.46
514.00	1201.89
514.37	1225.65
514.73	1249.47
515.09	1273.08
515.45	1297.14
515.81	1321.76
516.17	1346.43
516.53	1370.79
516.89	1395.23
517.25	1419.87
517.61	1444.67
517.97	1469.69
518.33	1494.47
518.69	1519.35
519.05	1544.53
519.41	1569.84
519.77	1595.40
520.13	1620.25
520.49	1645.25
520.85	1670.45
521.21	1695.59
521.57	1721.35
521.93	1746.41
522.29	1772.28
522.65	1797.92
523.01	1823.32
523.37	1847.98
523.73	1873.33
524.09	1898.88
524.45	1924.25
524.81	1949.17
525.17	1974.00
525.53	1998.43
525.89	2022.89
526.25	2047.58
526.61	2071.72
526.97	2096.15
527.33	2120.50
527.68	2144.61
528.04	2167.95
528.40	2191.18
528.76	2214.57
529.12	2236.90
529.48	2259.62
529.84	2280.54
530.20	2301.98
530.56	2323.09
530.91	2344.29
531.27	2364.94
531.63	2384.95
531.99	2404.50
532.35	2423.74
532.71	2443.08
533.07	2463.01
533.42	2481.41
533.78	2500.17
534.14	2518.88
534.50	2536.75
534.86	2555.30
535.21	2572.06
535.57	2588.71
535.93	2604.63
536.29	2619.34
536.65	2634.90
537.00	2649.27
537.36	2664.15
537.72	2678.02
538.08	2691.61
538.44	2704.00
538.79	2716.63
539.15	2727.62
539.51	2738.52
539.87	2749.03
540.22	2757.36
540.58	2765.84
540.94	2774.85
541.29	2782.42
541.65	2789.01
542.01	2795.09
542.37	2799.28
542.72	2805.43
543.08	2810.99
543.44	2816.38
543.79	2820.95
544.15	2824.62
544.51	2828.34
544.87	2831.13
545.22	2833.52
545.58	2834.87
545.94	2836.73
546.29	2837.14
546.65	2837.61
547.01	2838.17
547.36	2838.82
547.72	2839.69
548.07	2839.07
548.43	2837.83
548.79	2835.93
549.14	2834.02
549.50	2832.76
549.86	2830.54
550.21	2825.88
550.57	2821.70
550.92	2816.22
551.28	2811.30
551.64	2806.30
551.99	2801.66
552.35	2796.63
552.70	2791.15
553.06	2786.43
553.41	2781.24
553.77	2775.36
554.13	2770.24
554.48	2764.21
554.84	2756.56
555.19	2749.09
555.55	2741.02
555.90	2733.53
556.26	2727.03
556.61	2719.90
556.97	2710.57
557.32	2702.16
557.68	2694.13
558.03	2685.43
558.39	2677.33
558.74	2669.46
559.10	2660.39
559.45	2650.95
559.81	2641.83
560.16	2632.03
560.52	2621.84
560.87	2612.69
561.23	2603.15
561.58	2593.11
561.94	2582.75
562.29	2571.96
562.64	2561.71
563.00	2551.79
563.35	2541.67
563.71	2530.62
564.06	2519.16
564.42	2508.68
564.77	2497.84
565.12	2487.15
565.48	2476.22
565.83	2465.98
566.19	2455.72
566.54	2445.04
566.89	2433.47
567.25	2421.81
567.60	2411.00
567.96	2399.72
568.31	2387.04
568.66	2374.35
569.02	2362.69
569.37	2350.84
569.72	2339.47
570.08	2327.37
570.43	2314.74
570.78	2301.80
571.14	2288.70
571.49	2276.30
571.84	2264.24
572.20	2250.93
572.55	2237.94
572.90	2224.82
573.26	2210.74
573.61	2196.09
573.96	2181.78
574.31	2167.80
574.67	2154.09
575.02	2139.97
575.37	2125.40
575.72	2111.05
576.08	2097.34
576.43	2082.56
576.78	2067.82
577.13	2053.87
577.49	2039.98
577.84	2026.49
578.19	2012.15
578.54	1997.42
578.90	1982.21
579.25	1966.68
579.60	1952.61
579.95	1938.19
580.30	1923.78
580.66	1909.69
581.01	1895.22
581.36	1881.10
581.71	1867.55
582.06	1853.46
582.42	1839.48
582.77	1826.20
583.12	1812.58
583.47	1799.01
583.82	1785.58
584.17	1772.03
584.53	1758.33
584.88	1744.63
585.23	1730.56
585.58	1717.02
585.93	1703.90
586.28	1691.61
586.63	1679.11
586.98	1665.88
587.34	1652.87
587.69	1639.39
588.04	1626.17
588.39	1613.63
588.74	1600.54
589.09	1587.23
589.44	1573.88
589.79	1561.05
590.14	1548.15
590.49	1535.42
590.84	1522.55
591.19	1510.34
591.54	1497.63
591.89	1484.77
592.25	1472.23
592.60	1459.31
592.95	1446.96
593.30	1434.93
593.65	1422.65
594.00	1410.61
594.35	1399.33
594.70	1387.24
595.05	1376.22
595.40	1364.99
595.75	1353.14
596.10	1342.12
596.45	1331.31
596.80	1320.99
597.15	1310.47
597.50	1299.93
597.85	1289.61
598.19	1279.48
598.54	1268.70
598.89	1258.67
599.24	1248.93
599.59	1239.00
599.94	1230.07
600.29	1221.03
600.64	1211.75
600.99	1201.89
601.34	1192.51
601.69	1182.53
602.04	1173.63
602.39	1164.58
602.74	1155.79
603.08	1147.25
603.43	1138.21
603.78	1129.05
604.13	1120.02
604.48	1110.91
604.83	1102.09
605.18	1093.18
605.53	1084.19
605.87	1075.35
606.22	1066.77
606.57	1057.93
606.92	1049.17
607.27	1040.26
607.62	1031.43
607.96	1022.78
608.31	1015.17
608.66	1007.11
609.01	999.50
609.36	991.83
609.70	983.92
610.05	975.86
610.40	968.13
610.75	960.52
611.10	953.19
611.44	945.48
611.79	938.07
612.14	930.26
612.49	922.62
612.83	915.47
613.18	908.38
613.53	901.07
613.88	893.87
614.22	887.27
614.57	880.50
614.92	873.73
615.27	866.96
615.61	860.03
615.96	853.32
616.31	846.54
616.65	839.65
617.00	833.03
617.35	826.55
617.70	820.09
618.04	813.69
618.39	807.31
618.74	801.27
619.08	795.05
619.43	789.07
619.78	783.12
620.12	776.96
620.47	770.99
620.82	765.11
621.16	759.56
621.51	753.64
621.85	747.71
622.20	741.84
622.55	736.16
622.89	730.43
623.24	724.75
623.59	719.14
623.93	713.58
624.28	708.15
624.62	702.71
624.97	697.25
625.32	691.90
625.66	686.40
626.01	680.90
626.35	675.56
626.70	670.25
627.04	665.15
627.39	660.08
627.73	655.13
628.08	650.40
628.43	645.54
628.77	640.75
629.12	636.10
629.46	631.64
629.81	626.97
630.15	622.20
630.50	617.57
630.84	613.15
631.19	608.91
631.53	604.71
631.88	600.41
632.22	596.21
632.57	592.24
632.91	588.23
633.26	584.31
633.60	580.46
633.95	576.73
634.29	572.83
634.64	568.91
634.98	564.88
635.32	561.01
635.67	557.27
636.01	553.49
636.36	549.73
636.70	546.12
637.05	542.50
637.39	539.10
637.73	535.56
638.08	532.08
638.42	528.57
638.77	524.94
639.11	521.28
639.45	517.67
639.80	514.06
640.14	510.64
640.49	507.17
640.83	503.58
641.17	500.05
641.52	496.67
641.86	493.29
642.20	490.09
642.55	486.74
642.89	483.48
643.23	480.40
643.58	477.58
643.92	474.62
644.26	471.70
644.61	468.76
644.95	465.83
645.29	462.84
645.64	459.83
645.98	456.95
646.32	454.26
646.66	451.56
647.01	448.84
647.35	446.17
647.69	443.38
648.04	440.77
648.38	438.16
648.72	435.52
649.06	432.97
649.41	430.43
649.75	427.89
650.09	425.37
650.43	422.86
650.78	420.32
651.12	417.77
651.46	415.33
651.80	412.99
652.14	410.72
652.49	408.47
652.83	406.27
653.17	404.06
653.51	401.91
653.85	399.83
654.20	397.69
654.54	395.46
654.88	393.44
655.22	391.47
655.56	389.46
655.90	387.54
656.25	385.62
656.59	383.72
656.93	381.92
657.27	380.16
657.61	378.29
657.95	376.49
658.29	374.69
658.64	372.93
658.98	371.13
659.32	369.37
659.66	367.71
660.00	366.07
660.34	364.45
660.68	362.79
661.02	361.06
661.36	359.45
661.70	357.90
662.05	356.33
662.39	354.75
662.73	353.26
663.07	351.80
663.41	350.36
663.75	348.94
664.09	347.52
664.43	346.01
664.77	344.62
665.11	343.16
665.45	341.78
665.79	340.40
666.13	339.02
666.47	337.62
666.81	336.20
667.15	334.74
667.49	333.38
667.83	332.07
668.17	330.80
668.51	329.56
668.85	328.33
669.19	327.18
669.53	325.96
669.87	324.71
670.21	323.50
670.55	322.29
670.89	321.16
671.23	320.01
671.57	318.86
671.91	317.78
672.25	316.75
672.58	315.72
672.92	314.65
673.26	313.65
673.60	312.65
673.94	311.64
674.28	310.70
674.62	309.74
674.96	308.76
675.30	307.83
675.64	306.88
675.97	305.95
676.31	304.97
676.65	304.02
676.99	303.14
677.33	302.20
677.67	301.31
678.01	300.34
678.34	299.44
678.68	298.61
679.02	297.73
679.36	296.87
679.70	296.01
680.04	295.19
680.37	294.34
680.71	293.54
681.05	292.78
681.39	291.99
681.73	291.16
682.06	290.36
682.40	289.58
682.74	288.82
683.08	288.09
683.42	287.34
683.75	286.66
684.09	285.91
684.43	285.20
684.77	284.48
685.10	283.80
685.44	283.10
685.78	282.40
686.12	281.74
686.45	281.06
686.79	280.38
687.13	279.73
687.46	279.05
687.80	278.40
688.14	277.70
688.48	277.06
688.81	276.43
689.15	275.84
689.49	275.21
689.82	274.60
690.16	273.93
690.50	273.32
690.83	272.71
691.17	272.12
691.51	271.54
691.84	270.98
692.18	270.39
692.52	269.79
692.85	269.22
693.19	268.68
693.52	268.13
693.86	267.58
694.20	267.04
694.53	266.53
694.87	266.00
695.21	265.50
695.54	264.99
695.88	264.46
696.21	263.91
696.55	263.40
696.88	262.90
697.22	262.41
697.56	261.93
697.89	261.39
698.23	260.89
698.56	260.38
698.90	259.90
699.23	259.42
699.57	258.98
699.90	258.53
700.24	258.04
700.58	257.60
700.91	257.18
701.25	256.84
701.58	256.46
701.92	256.07
702.25	255.66
702.59	255.24
702.92	254.84
703.26	254.45
703.59	254.06
703.93	253.75
704.26	253.38
704.60	253.00
704.93	252.64
705.26	252.27
705.60	251.95
705.93	251.57
706.27	251.26
706.60	250.93
706.94	250.61
707.27	250.24
707.61	249.89
707.94	249.52
708.27	249.09
708.61	248.71
708.94	248.36
709.28	248.03
709.61	247.70
709.94	247.41
710.28	247.11
710.61	246.82
710.95	246.45
711.28	246.23
711.61	245.94
711.95	245.68
712.28	245.40
712.61	245.10
712.95	244.89
713.28	244.66
713.61	244.38
713.95	244.09
714.28	243.85
714.61	243.59
714.95	243.34
715.28	243.09
715.61	242.85
715.95	242.61
716.28	242.37
716.61	242.16
716.95	241.92
717.28	241.69
717.61	241.45
717.94	241.23
718.28	240.93
718.61	240.71
718.94	240.47
719.27	240.26
719.61	240.07
719.94	239.83
720.27	239.57
720.60	239.37
720.94	239.17
721.27	238.99
721.60	238.82
721.93	238.63
722.27	238.47
722.60	238.30
722.93	238.11
723.26	237.93
723.59	237.73
723.93	237.57
724.26	237.40
724.59	237.23
724.92	237.07
725.25	236.94
725.59	236.77
725.92	236.63
726.25	236.48
726.58	236.32
726.91	236.16
727.24	236.02
727.57	235.87
727.91	235.70
728.24	235.56
728.57	235.40
728.90	235.27
729.23	235.09
729.56	235.00
729.89	234.86
730.22	234.71
730.55	234.57
730.89	234.43
731.22	234.29
731.55	234.15
731.88	234.02
732.21	233.87
732.54	233.74
732.87	233.62
733.20	233.50
733.53	233.39
733.86	233.28
734.19	233.15
734.52	233.05
734.85	233.02
735.18	232.88
735.51	232.79
735.84	232.68
736.17	232.61
736.50	232.44
736.83	232.46
737.16	232.36
737.49	232.27
737.82	232.17
738.15	232.09
738.48	231.99
738.81	231.88
739.14	231.77
739.47	231.67
739.80	231.56
740.13	231.47
740.46	231.36
740.79	231.25
741.12	231.16
741.45	231.04
741.78	230.89
742.11	230.83
742.44	230.71
742.77	230.64
743.10	230.53
743.43	230.44
743.75	230.25
744.08	230.32
744.41	230.23
744.74	230.13
745.07	230.02
745.40	229.96
745.73	229.93
746.06	229.86
746.39	229.80
746.71	229.71
747.04	229.63
747.37	229.55
747.70	229.49
748.03	229.42
748.36	229.37
748.68	229.29
749.01	229.19
749.34	229.12
749.67	229.05
750.00	229.00
750.33	229.01
750.65	228.95
750.98	228.73
751.31	228.67
751.64	228.61
751.97	228.60
752.29	228.53
752.62	228.41
752.95	228.34
753.28	228.26
753.60	228.19
753.93	228.15
754.26	228.10
754.59	228.00
754.91	227.92
755.24	227.85
755.57	227.83
755.90	227.77
756.22	227.70
756.55	227.62
756.88	227.54
757.20	227.40
757.53	227.32
757.86	227.26
758.19	227.21
758.51	227.15
758.84	227.04
759.17	226.98
759.49	226.94
759.82	226.94
760.15	226.90
760.47	226.84
760.80	226.77
761.13	226.73
761.45	226.69
761.78	226.65
762.11	226.61
762.43	226.51
762.76	226.46
763.08	226.43
763.41	226.40
763.74	226.36
764.06	226.31
764.39	226.28
764.71	226.23
765.04	226.17
765.37	226.12
765.69	226.08
766.02	226.04
766.34	225.99
766.67	225.91
767.00	225.88
767.32	225.90
767.65	225.93
767.97	225.87
768.30	225.84
768.62	225.80
768.95	225.75
769.27	225.71
769.60	225.69
769.92	225.63
770.25	225.58
770.57	225.53
770.90	225.49
771.22	225.45
771.55	225.42
771.87	225.39
772.20	225.36
772.52	225.42
772.85	225.51
773.17	225.49
773.50	225.44
773.82	225.39
774.15	225.31
774.47	225.22
774.80	225.17
775.12	225.14
775.45	225.11
775.77	225.09
776.09	225.07
776.42	225.04
776.74	225.05
777.07	225.01
777.39	224.99
777.72	224.96
778.04	224.95
778.36	224.91
778.69	224.89
779.01	224.87
779.33	224.75
779.66	224.61
779.98	224.58
780.31	224.57
780.63	224.59
780.95	224.58
781.28	224.56
781.60	224.53
781.92	224.51
782.25	224.49
782.57	224.47
782.89	224.44
783.22	224.42
783.54	224.37
783.86	224.36
784.19	224.34
784.51	224.36
784.83	224.32
785.16	224.30
785.48	224.29
785.80	224.27
786.12	224.26
786.45	224.24
786.77	224.23
787.09	224.21
787.42	224.15
787.74	224.14
788.06	224.13
788.38	224.10
788.71	224.08
789.03	224.06
789.35	224.06
789.67	224.04
789.99	224.03
790.32	224.01
790.64	224.00
790.96	224.09
791.28	224.03
791.61	224.01
791.93	224.01
792.25	223.99
792.57	224.04
792.89	224.01
793.21	224.01
793.54	223.98
793.86	223.96
794.18	223.95
794.50	223.92
794.82	223.90
795.14	223.91
795.47	223.91
795.79	223.90
796.11	223.87
796.43	223.85
796.75	223.84
797.07	223.83
797.39	223.82
797.71	223.72
798.04	223.71
798.36	223.71
798.68	223.69
799.00	223.68
799.32	223.62
799.64	223.63
799.96	223.62
800.28	223.63
800.60	223.62
800.92	223.61
801.24	223.60
801.56	223.60
801.89	223.58
802.21	223.57
802.53	223.55
802.85	223.56
803.17	223.60
803.49	223.57
803.81	223.55
804.13	223.53
804.45	223.51
804.77	223.51
805.09	223.50
805.41	223.48
805.73	223.45
806.05	223.42
806.37	223.40
806.69	223.38
807.01	223.36
807.33	223.37
807.65	223.33
807.97	223.37
808.28	223.34
808.60	223.33
808.92	223.31
809.24	223.36
809.56	223.33
809.88	223.29
810.20	223.29
810.52	223.30
810.84	223.28
811.16	223.26
811.48	223.25
811.80	223.28
812.12	223.27
812.43	223.28
812.75	223.28
813.07	223.26
813.39	223.27
813.71	223.24
814.03	223.22
814.35	223.22
814.67	223.17
814.98	223.16
815.30	223.16
815.62	223.14
815.94	223.06
816.26	223.07
816.58	223.04
816.89	223.04
817.21	223.01
817.53	223.01
817.85	223.02
818.17	223.01
818.48	222.96
818.80	222.98
819.12	222.95
819.44	222.93
819.76	222.91
820.07	222.90
820.39	222.90
820.71	222.90
821.03	222.89
821.34	222.88
821.66	222.89
821.98	222.90
822.30	222.89
822.61	222.95
822.93	222.93
823.25	222.92
823.57	222.91
823.88	222.92
824.20	222.91
824.52	222.92
824.83	222.91
825.15	222.90
825.47	222.88
825.79	222.89
826.10	222.88
826.42	222.88
826.74	222.88
827.05	222.87
827.37	222.87
827.69	222.86
828.00	222.86
828.32	222.85
828.64	222.83
828.95	222.88
829.27	222.85
829.58	222.84
829.90	222.86
830.22	222.86
830.53	222.84
830.85	222.83
831.17	222.80
831.48	222.80
831.80	222.81
832.11	222.80
832.43	222.78
832.75	222.78
833.06	222.84
833.38	222.81
833.69	222.80
834.01	222.80
834.32	222.80
834.64	222.79
834.96	222.78
835.27	222.78
835.59	222.74
835.90	222.73
836.22	222.72
836.53	222.70
836.85	222.68
837.16	222.79
837.48	222.79
837.79	222.82
838.11	222.83
838.42	222.82
838.74	222.83
839.05	222.83
839.37	222.82
839.68	222.75
840.00	222.75
840.31	222.76
840.63	222.75
840.94	222.74
841.26	222.73
841.57	222.73
841.88	222.74
842.20	222.72
842.51	222.70
842.83	222.70
843.14	222.79
843.46	222.79
843.77	222.73
844.08	222.71
844.40	222.68
844.71	222.66
845.03	222.65
845.34	222.64
845.65	222.63
845.97	222.63
846.28	222.63
846.60	222.63
846.91	222.61
847.22	222.61
847.54	222.63
847.85	222.63
848.16	222.63
848.48	222.60
848.79	222.64
849.10	222.65
849.42	222.66
849.73	222.56
850.04	222.55
850.36	222.51
850.67	222.53
850.98	222.53
851.30	222.54
851.61	222.54
851.92	222.53
852.23	222.57
852.55	222.57
852.86	222.57
853.17	222.58
853.49	222.60
853.80	222.62
854.11	222.62
854.42	222.63
854.74	222.62
855.05	222.62
855.36	222.57
855.67	222.57
855.99	222.57
856.30	222.69
856.61	222.69
856.92	222.69
857.23	222.69
857.55	222.68
857.86	222.67
858.17	222.68
858.48	222.67
858.79	222.64
859.11	222.65
859.42	222.64
859.73	222.62
860.04	222.61
860.35	222.58
860.66	222.55
860.98	222.54
861.29	222.55
861.60	222.55
861.91	222.57
862.22	222.56
862.53	222.54
862.84	222.41
863.16	222.43
863.47	222.41
863.78	222.40
864.09	222.41
864.40	222.41
864.71	222.41
865.02	222.43
865.33	222.42
865.64	222.40
865.95	222.40
866.27	222.46
866.58	222.45
866.89	222.46
867.20	222.46
867.51	222.45
867.82	222.44
868.13	222.47
868.44	222.45
868.75	222.46
869.06	222.47
869.37	222.48
869.68	222.45
869.99	222.47
870.30	222.48
870.61	222.49
870.92	222.47
871.23	222.46
871.54	222.47
871.85	222.49
872.16	222.50
872.47	222.49
872.78	222.44
873.09	222.45
873.40	222.44
873.71	222.45
874.02	222.45
874.33	222.44
874.64	222.42
874.95	222.44
875.26	222.41
875.56	222.41
875.87	222.41
876.18	222.40
876.49	222.50
876.80	222.49
877.11	222.47
877.42	222.48
877.73	222.48
878.04	222.46
878.35	222.46
878.66	222.46
878.96	222.46
879.27	222.46
879.58	222.45
879.89	222.44
880.20	222.47
880.51	222.46
880.82	222.47
881.12	222.47
881.43	222.45
881.74	222.44
882.05	222.44
882.36	222.44
882.67	222.45
882.97	222.34
883.28	222.33
883.59	222.33
883.90	222.33
884.21	222.35
884.51	222.34
884.82	222.33
885.13	222.32
885.44	222.32
885.74	222.32
886.05	222.32
886.36	222.32
886.67	222.29
886.98	222.34
887.28	222.34
887.59	222.34
887.90	222.34
888.20	222.34
888.51	222.36
888.82	222.34
889.13	222.34
889.43	222.43
889.74	222.42
890.05	222.43
890.35	222.41
890.66	222.39
890.97	222.38
891.28	222.37
891.58	222.37
891.89	222.37
892.20	222.35
892.50	222.34
892.81	222.34
893.12	222.34
893.42	222.28
893.73	222.29
894.04	222.29
894.34	222.29
894.65	222.29
894.95	222.28
895.26	222.28
895.57	222.33
895.87	222.23
896.18	222.24
896.48	222.25
896.79	222.25
897.10	222.26
897.40	222.26
897.71	222.28
898.01	222.27
898.32	222.28
898.63	222.28
898.93	222.28
899.24	222.28
899.54	222.27
899.85	222.27
900.15	222.26
900.46	222.26
900.76	222.27
901.07	222.27
901.38	222.27
901.68	222.28
901.99	222.22
902.29	222.23
902.60	222.22
902.90	222.21
903.21	222.21
903.51	222.20
903.82	222.22
904.12	222.21
904.43	222.22
904.73	222.21
905.03	222.22
905.34	222.32
905.64	222.31
905.95	222.32
906.25	222.31
906.56	222.31
906.86	222.31
907.17	222.30
907.47	222.30
907.77	222.29
908.08	222.27
908.38	222.27
908.69	222.28
908.99	222.30
909.30	222.30
909.60	222.31
909.90	222.31
910.21	222.28
910.51	222.27
910.81	222.26
911.12	222.27
911.42	222.27
911.73	222.17
912.03	222.18
912.33	222.20
912.64	222.20
912.94	222.19
913.24	222.17
913.55	222.16
913.85	222.15
914.15	222.18
914.46	222.19
914.76	222.18
915.06	222.18
915.37	222.15
915.67	222.15
915.97	222.15
916.27	222.12
916.58	222.13
916.88	222.13
917.18	222.12
917.49	222.19
917.79	222.18
918.09	222.20
918.39	222.22
918.70	222.20
919.00	222.21
919.30	222.26
919.60	222.26
919.91	222.25
920.21	222.25
920.51	222.23
920.81	222.22
921.12	222.24
921.42	222.23
921.72	222.24
922.02	222.25
922.32	222.26
922.63	222.27
922.93	222.33
923.23	222.33
923.53	222.32
923.83	222.25
924.13	222.26
924.44	222.26
924.74	222.28
925.04	222.30
925.34	222.30
925.64	222.25
925.94	222.26
926.24	222.31
926.55	222.31
926.85	222.32
927.15	222.32
927.45	222.32
927.75	222.32
928.05	222.32
928.35	222.31
928.65	222.32
928.95	222.32
929.26	222.27
929.56	222.29
929.86	222.30
930.16	222.29
930.46	222.28
930.76	222.28
931.06	222.23
931.36	222.20
931.66	222.22
931.96	222.23
932.26	222.23
932.56	222.19
932.86	222.20
933.16	222.20
933.46	222.19
933.76	222.18
934.06	222.19
934.36	222.23
934.66	222.22
934.96	222.21
935.26	222.21
935.56	222.22
935.86	222.19
936.16	222.18
936.46	222.17
936.76	222.17
937.06	222.15
937.36	222.16
937.66	222.16
937.96	222.15
938.26	222.13
938.56	222.12
938.86	222.12
939.16	222.14
939.46	222.15
939.76	222.15
940.06	222.15
940.35	222.13
940.65	222.08
940.95	222.09
941.25	222.07
941.55	222.05
941.85	222.04
942.15	222.07
942.45	222.09
942.75	222.09
943.04	222.10
943.34	222.12
943.64	222.11
943.94	222.09
944.24	222.10
944.54	222.11
944.84	222.10
945.13	222.09
945.43	222.08
945.73	222.07
946.03	222.06
946.33	222.06
946.62	222.04
946.92	222.04
947.22	222.04
947.52	222.05
947.82	222.06
948.11	222.05
948.41	222.03
948.71	222.00
949.01	222.01
949.31	222.00
949.60	221.99
949.90	222.01
950.20	222.00
950.50	222.00
950.79	221.99
951.09	222.00
951.39	222.00
951.69	221.99
951.98	222.01
952.28	222.01
952.58	222.01
952.87	222.01
953.17	222.03
953.47	222.01
953.76	222.01
954.06	222.00
954.36	221.98
954.66	221.98
954.95	222.01
955.25	222.02
955.55	222.03
955.84	222.02
956.14	222.02
956.44	222.03
956.73	222.02
957.03	222.03
957.32	222.02
957.62	222.02
957.92	222.05
958.21	222.03
958.51	222.15
958.81	222.17
959.10	222.17
959.40	222.20
959.69	222.21
959.99	222.22
960.29	222.22
960.58	222.22
960.88	222.26
961.17	222.25
961.47	222.25
961.76	222.24
962.06	222.26
962.36	222.25
962.65	222.25
962.95	222.26
963.24	222.26
963.54	222.26
963.83	222.27
964.13	222.26
964.42	222.25
964.72	222.16
965.01	222.16
965.31	222.16
965.60	222.13
965.90	222.19
966.19	222.17
966.49	222.17
966.78	222.17
967.08	222.15
967.37	222.16
967.67	222.14
967.96	222.16
968.26	222.15
968.55	222.17
968.85	222.16
969.14	222.16
969.43	222.16
969.73	222.15
970.02	222.14
970.32	222.13
970.61	222.12
970.91	222.09
971.20	222.07
971.49	222.06
971.79	222.07
972.08	222.00
972.38	222.01
972.67	222.00
972.96	222.02
973.26	222.00
973.55	222.03
973.85	222.03
974.14	222.02
974.43	222.02
974.73	222.00
975.02	221.99
975.31	221.99
975.61	221.99
975.90	221.98
976.19	221.97
976.49	221.98
976.78	221.99
977.07	221.99
977.37	222.00
977.66	222.00
977.95	221.99
978.24	222.00
978.54	222.02
978.83	222.01
979.12	222.00
979.42	222.00
979.71	221.98
980.00	221.98
980.29	221.98
980.59	221.96
980.88	221.98
981.17	221.98
981.46	221.98
981.76	221.98
982.05	222.01
982.34	222.02
982.63	222.02
982.93	222.02
983.22	222.04
983.51	222.05
983.80	222.06
984.09	222.07
984.39	222.06
984.68	222.05
984.97	222.05
985.26	222.05
985.55	222.05
985.85	222.04
986.14	222.06
986.43	222.07
986.72	222.07
987.01	222.04
987.30	222.04
987.59	222.03
987.89	222.04
988.18	222.00
988.47	221.99
988.76	221.98
989.05	221.97
989.34	221.95
989.63	221.97
989.92	221.96
990.22	221.95
990.51	221.94
990.80	221.93
991.09	221.94
991.38	221.96
991.67	221.95
991.96	221.94
992.25	221.94
992.54	221.91
992.83	221.92
993.12	221.91
993.41	221.93
993.70	221.97
993.99	221.99
994.28	222.00
994.58	222.02
994.87	222.01
995.16	222.01
995.45	222.00
995.74	221.96
996.03	221.97
996.32	221.99
996.61	222.01
996.90	222.01
997.19	222.00
997.48	222.00
997.77	221.99
998.06	222.00
998.34	221.99
998.63	221.99
998.92	221.99
999.21	222.01
999.50	222.01
999.79	221.97
1000.08	221.97
1000.37	221.97
1000.66	221.96
1000.95	221.99
1001.24	221.99
1001.53	222.01
1001.82	222.01
1002.11	221.98
1002.40	221.99
1002.68	222.01
1002.97	222.08
1003.26	222.07
1003.55	222.05
1003.84	222.06
1004.13	222.10
1004.42	222.09
1004.71	222.09
1004.99	222.09
1005.28	222.11
1005.57	222.11
1005.86	222.10
1006.15	222.09
1006.44	222.07
1006.72	222.09
1007.01	222.07
1007.30	222.07
1007.59	222.06
1007.88	222.06
1008.17	222.07
1008.45	222.05
1008.74	222.01
1009.03	221.96
1009.32	221.96
1009.60	221.96
1009.89	221.95
1010.18	221.91
1010.47	221.90
1010.76	221.90
1011.04	221.90
1011.33	221.89
1011.62	221.90
1011.91	221.91
1012.19	221.91
1012.48	221.91
1012.77	221.91
1013.05	221.94
1013.34	221.94
1013.63	221.94
1013.92	221.94
1014.20	221.94
1014.49	221.95
1014.78	221.96
1015.06	221.93
1015.35	221.93
1015.64	221.95
1015.92	221.96
1016.21	221.98
1016.50	221.98
1016.78	221.99
1017.07	222.00
1017.36	221.98
1017.64	221.97
1017.93	221.98
1018.22	221.97
1018.50	221.97
1018.79	221.96
1019.08	221.92
1019.36	221.93
1019.65	221.92
1019.93	221.95
1020.22	221.96
1020.51	222.01
1020.79	222.00
1021.08	221.76
1021.36	221.76
1021.65	221.96
1021.94	221.86
1022.22	221.99
1022.51	221.79
1022.79	222.51
1023.08	222.10
1023.36	223.22
1023.65	221.69
>>>>>End Processed Spectral Data<<<<<
