SpectraSuite Data File
++++++++++++++++++++++++++++++++++++
Date: Wed Sep 30 17:20:14 EDT 2015
User: lab3
Dark Spectrum Present: No
Reference Spectrum Present: No
Number of Sampled Component Spectra: 1
Spectrometers: USB2E7196
Integration Time (usec): 36000 (USB2E7196)
Spectra Averaged: 3000 (USB2E7196)
Boxcar Smoothing: 10 (USB2E7196)
Correct for Electrical Dark: No (USB2E7196)
Strobe/Lamp Enabled: No (USB2E7196)
Correct for Detector Non-linearity: No (USB2E7196)
Correct for Stray Light: No (USB2E7196)
Number of Pixels in Processed Spectrum: 2048
>>>>>Begin Processed Spectral Data<<<<<
339.09	0.00
339.48	210.16
339.86	211.68
340.24	213.00
340.63	214.51
341.01	217.44
341.39	217.16
341.78	218.49
342.16	219.76
342.54	220.18
342.93	208.80
343.31	219.35
343.69	219.89
344.07	220.35
344.46	220.78
344.84	221.17
345.22	221.40
345.60	221.66
345.99	221.85
346.37	221.99
346.75	222.09
347.13	222.17
347.52	222.24
347.90	222.32
348.28	222.36
348.66	222.41
349.05	222.41
349.43	222.45
349.81	222.51
350.19	222.57
350.57	222.62
350.96	222.71
351.34	222.81
351.72	222.91
352.10	223.01
352.48	223.08
352.87	223.13
353.25	223.20
353.63	223.26
354.01	223.32
354.39	223.39
354.77	223.47
355.15	223.57
355.54	223.63
355.92	223.66
356.30	223.73
356.68	223.87
357.06	223.94
357.44	223.99
357.82	224.06
358.20	224.17
358.58	224.24
358.97	224.29
359.35	224.37
359.73	224.44
360.11	224.50
360.49	224.56
360.87	224.61
361.25	224.68
361.63	224.76
362.01	224.81
362.39	224.85
362.77	224.89
363.15	224.92
363.53	224.95
363.91	224.98
364.29	225.01
364.67	224.93
365.05	224.95
365.43	224.98
365.81	225.01
366.19	225.02
366.57	225.07
366.95	225.08
367.33	225.06
367.71	225.05
368.09	225.07
368.47	225.06
368.85	225.05
369.23	225.06
369.61	225.00
369.99	225.02
370.37	225.02
370.75	225.07
371.13	225.04
371.51	225.00
371.89	224.99
372.27	224.96
372.65	224.93
373.03	224.89
373.41	224.84
373.78	224.80
374.16	224.71
374.54	224.63
374.92	224.58
375.30	224.53
375.68	224.47
376.06	224.42
376.44	224.36
376.82	224.32
377.19	224.27
377.57	224.22
377.95	224.13
378.33	224.06
378.71	223.92
379.09	223.87
379.47	223.84
379.84	223.78
380.22	223.72
380.60	223.65
380.98	223.60
381.36	223.55
381.73	223.49
382.11	223.46
382.49	223.42
382.87	223.36
383.25	223.32
383.62	223.39
384.00	223.32
384.38	223.28
384.76	223.26
385.13	223.24
385.51	223.20
385.89	223.15
386.27	223.12
386.64	223.09
387.02	223.03
387.40	222.99
387.78	222.95
388.15	222.93
388.53	222.89
388.91	222.86
389.29	222.82
389.66	222.81
390.04	222.76
390.42	222.75
390.79	222.73
391.17	222.71
391.55	222.58
391.92	222.57
392.30	222.57
392.68	222.53
393.05	222.51
393.43	222.51
393.81	222.51
394.18	222.49
394.56	222.49
394.94	222.52
395.31	222.52
395.69	222.56
396.06	222.58
396.44	222.60
396.82	222.61
397.19	222.69
397.57	222.70
397.95	222.74
398.32	222.74
398.70	222.78
399.07	222.84
399.45	222.87
399.82	222.91
400.20	222.93
400.58	222.99
400.95	223.01
401.33	223.09
401.70	223.22
402.08	223.30
402.45	223.37
402.83	223.48
403.20	223.57
403.58	223.65
403.95	223.78
404.33	223.91
404.71	224.03
405.08	224.21
405.46	224.35
405.83	224.51
406.21	224.67
406.58	224.85
406.96	225.04
407.33	225.24
407.70	225.48
408.08	225.81
408.45	226.09
408.83	226.39
409.20	226.66
409.58	226.91
409.95	227.25
410.33	227.62
410.70	227.95
411.08	228.36
411.45	228.79
411.82	229.22
412.20	229.71
412.57	230.30
412.95	230.76
413.32	231.38
413.69	232.00
414.07	232.66
414.44	233.37
414.82	234.10
415.19	234.95
415.56	235.82
415.94	236.71
416.31	237.72
416.68	238.73
417.06	239.90
417.43	241.00
417.81	242.27
418.18	243.56
418.55	244.97
418.93	246.44
419.30	247.97
419.67	249.60
420.04	251.27
420.42	253.02
420.79	255.04
421.16	257.08
421.54	259.16
421.91	261.33
422.28	263.59
422.66	266.02
423.03	268.34
423.40	270.77
423.77	273.38
424.15	276.05
424.52	278.83
424.89	281.83
425.26	284.83
425.64	287.61
426.01	290.73
426.38	293.93
426.75	297.22
427.13	300.60
427.50	304.13
427.87	307.81
428.24	311.52
428.61	315.07
428.99	318.90
429.36	323.08
429.73	327.09
430.10	331.09
430.47	335.18
430.85	339.37
431.22	343.85
431.59	348.46
431.96	352.93
432.33	357.90
432.70	362.60
433.08	368.16
433.45	373.40
433.82	378.56
434.19	384.33
434.56	390.00
434.93	395.45
435.30	400.85
435.68	406.90
436.05	412.83
436.42	418.76
436.79	424.17
437.16	430.02
437.53	436.28
437.90	442.52
438.27	448.62
438.64	455.24
439.01	461.22
439.38	466.68
439.75	471.95
440.13	477.96
440.50	483.68
440.87	488.18
441.24	493.14
441.61	498.60
441.98	502.61
442.35	507.37
442.72	512.27
443.09	516.96
443.46	519.99
443.83	522.23
444.20	524.13
444.57	526.90
444.94	528.53
445.31	530.24
445.68	531.76
446.05	532.91
446.42	532.78
446.79	532.56
447.16	532.37
447.53	532.24
447.90	530.50
448.27	528.87
448.64	526.30
449.01	524.63
449.37	520.90
449.74	517.49
450.11	513.13
450.48	508.30
450.85	503.44
451.22	499.33
451.59	495.30
451.96	491.64
452.33	486.25
452.70	481.46
453.07	475.60
453.43	469.74
453.80	464.05
454.17	458.60
454.54	453.54
454.91	447.82
455.28	442.43
455.65	437.37
456.02	431.97
456.38	427.61
456.75	421.97
457.12	417.42
457.49	412.85
457.86	408.46
458.23	404.64
458.59	400.40
458.96	396.05
459.33	392.22
459.70	388.31
460.07	385.33
460.43	381.81
460.80	378.52
461.17	375.63
461.54	372.51
461.91	369.58
462.27	366.61
462.64	364.18
463.01	361.39
463.38	358.57
463.74	356.01
464.11	353.74
464.48	351.67
464.85	349.46
465.21	347.76
465.58	345.90
465.95	343.74
466.32	342.02
466.68	340.32
467.05	338.62
467.42	336.98
467.78	335.21
468.15	333.58
468.52	332.36
468.88	330.76
469.25	329.29
469.62	328.13
469.98	326.86
470.35	325.74
470.72	324.72
471.08	323.70
471.45	322.84
471.82	321.89
472.18	320.92
472.55	320.29
472.92	319.50
473.28	318.89
473.65	318.25
474.02	317.65
474.38	317.15
474.75	316.87
475.11	316.45
475.48	316.30
475.85	316.14
476.21	316.08
476.58	316.07
476.94	316.24
477.31	316.35
477.67	316.49
478.04	316.73
478.41	317.05
478.77	317.50
479.14	317.81
479.50	318.36
479.87	319.03
480.23	319.71
480.60	320.36
480.96	321.03
481.33	321.96
481.69	322.89
482.06	323.82
482.42	324.70
482.79	325.75
483.15	326.95
483.52	328.30
483.88	329.61
484.25	331.01
484.61	332.47
484.98	334.03
485.34	335.79
485.71	337.60
486.07	339.55
486.44	341.46
486.80	343.60
487.17	345.79
487.53	348.21
487.90	350.72
488.26	353.43
488.62	356.31
488.99	359.19
489.35	362.19
489.72	365.42
490.08	368.83
490.44	372.33
490.81	375.98
491.17	379.73
491.54	383.75
491.90	387.86
492.26	392.27
492.63	396.93
492.99	401.76
493.36	406.74
493.72	411.95
494.08	417.33
494.45	423.01
494.81	428.89
495.17	434.87
495.54	441.20
495.90	447.85
496.26	454.61
496.63	461.62
496.99	468.93
497.35	476.60
497.72	484.54
498.08	492.65
498.44	501.02
498.80	509.91
499.17	519.03
499.53	528.46
499.89	538.15
500.26	548.00
500.62	558.13
500.98	568.91
501.34	579.84
501.71	591.29
502.07	602.96
502.43	615.04
502.79	627.47
503.16	640.29
503.52	653.27
503.88	666.60
504.24	680.38
504.60	694.42
504.97	708.83
505.33	723.64
505.69	739.34
506.05	755.25
506.41	771.21
506.78	787.43
507.14	804.16
507.50	821.46
507.86	839.15
508.22	857.09
508.59	875.05
508.95	893.73
509.31	912.85
509.67	932.66
510.03	952.70
510.39	972.97
510.75	993.45
511.12	1014.20
511.48	1035.30
511.84	1056.54
512.20	1078.09
512.56	1100.75
512.92	1123.58
513.28	1146.14
513.64	1169.03
514.00	1192.33
514.37	1215.98
514.73	1239.64
515.09	1263.12
515.45	1287.02
515.81	1311.52
516.17	1336.08
516.53	1360.34
516.89	1384.69
517.25	1409.21
517.61	1433.93
517.97	1458.83
518.33	1483.58
518.69	1508.57
519.05	1533.78
519.41	1559.09
519.77	1584.71
520.13	1609.57
520.49	1634.65
520.85	1659.92
521.21	1685.07
521.57	1710.83
521.93	1735.90
522.29	1761.79
522.65	1787.45
523.01	1812.91
523.37	1837.60
523.73	1862.99
524.09	1888.60
524.45	1914.09
524.81	1939.14
525.17	1964.00
525.53	1988.56
525.89	2013.02
526.25	2037.63
526.61	2061.72
526.97	2086.18
527.33	2110.50
527.68	2134.69
528.04	2158.12
528.40	2181.39
528.76	2204.89
529.12	2227.33
529.48	2250.25
529.84	2271.35
530.20	2292.91
530.56	2314.21
530.91	2335.64
531.27	2356.49
531.63	2376.74
531.99	2396.46
532.35	2416.01
532.71	2435.79
533.07	2456.07
533.42	2474.81
533.78	2493.99
534.14	2513.10
534.50	2531.33
534.86	2550.20
535.21	2567.31
535.57	2584.26
535.93	2600.43
536.29	2615.39
536.65	2631.13
537.00	2645.77
537.36	2661.06
537.72	2675.32
538.08	2689.33
538.44	2702.19
538.79	2715.33
539.15	2726.66
539.51	2737.83
539.87	2748.44
540.22	2756.85
540.58	2765.47
540.94	2774.70
541.29	2782.42
541.65	2789.25
542.01	2795.58
542.37	2799.99
542.72	2806.25
543.08	2812.01
543.44	2817.66
543.79	2822.63
544.15	2826.77
544.51	2830.76
544.87	2833.79
545.22	2836.50
545.58	2838.10
545.94	2840.16
546.29	2840.74
546.65	2841.46
547.01	2842.31
547.36	2843.36
547.72	2844.71
548.07	2844.52
548.43	2843.67
548.79	2842.14
549.14	2840.51
549.50	2839.51
549.86	2837.63
550.21	2833.46
550.57	2829.78
550.92	2824.61
551.28	2820.02
551.64	2815.23
551.99	2810.86
552.35	2806.11
552.70	2800.82
553.06	2796.23
553.41	2791.12
553.77	2785.39
554.13	2780.44
554.48	2774.51
554.84	2767.02
555.19	2759.58
555.55	2751.41
555.90	2743.84
556.26	2737.39
556.61	2730.36
556.97	2721.09
557.32	2712.96
557.68	2704.96
558.03	2696.27
558.39	2688.41
558.74	2680.60
559.10	2671.69
559.45	2662.42
559.81	2653.24
560.16	2643.58
560.52	2633.48
560.87	2624.44
561.23	2615.04
561.58	2605.18
561.94	2595.15
562.29	2584.52
562.64	2574.39
563.00	2564.69
563.35	2554.85
563.71	2543.93
564.06	2532.64
564.42	2522.32
564.77	2511.53
565.12	2500.87
565.48	2489.88
565.83	2479.53
566.19	2469.32
566.54	2458.60
566.89	2447.02
567.25	2435.63
567.60	2424.97
567.96	2413.84
568.31	2401.38
568.66	2388.89
569.02	2377.36
569.37	2365.63
569.72	2354.45
570.08	2342.51
570.43	2329.98
570.78	2317.09
571.14	2304.20
571.49	2291.96
571.84	2279.97
572.20	2266.63
572.55	2253.87
572.90	2240.92
573.26	2227.14
573.61	2212.77
573.96	2198.63
574.31	2184.77
574.67	2171.12
575.02	2156.95
575.37	2142.47
575.72	2128.22
576.08	2114.42
576.43	2099.56
576.78	2084.72
577.13	2070.69
577.49	2056.83
577.84	2043.43
578.19	2029.21
578.54	2014.52
578.90	1999.27
579.25	1983.82
579.60	1969.87
579.95	1955.45
580.30	1941.13
580.66	1927.04
581.01	1912.44
581.36	1898.31
581.71	1884.81
582.06	1870.76
582.42	1856.90
582.77	1843.71
583.12	1830.03
583.47	1816.54
583.82	1803.15
584.17	1789.61
584.53	1775.96
584.88	1762.31
585.23	1748.26
585.58	1734.76
585.93	1721.60
586.28	1709.33
586.63	1696.82
586.98	1683.45
587.34	1670.36
587.69	1656.83
588.04	1643.55
588.39	1630.94
588.74	1617.74
589.09	1604.31
589.44	1590.86
589.79	1577.93
590.14	1564.90
590.49	1552.13
590.84	1539.19
591.19	1526.86
591.54	1514.06
591.89	1501.11
592.25	1488.46
592.60	1475.44
592.95	1462.93
593.30	1450.79
593.65	1438.45
594.00	1426.38
594.35	1415.07
594.70	1402.82
595.05	1391.56
595.40	1380.17
595.75	1368.23
596.10	1357.14
596.45	1346.31
596.80	1335.90
597.15	1325.26
597.50	1314.57
597.85	1304.08
598.19	1293.79
598.54	1282.98
598.89	1272.87
599.24	1263.04
599.59	1252.99
599.94	1243.98
600.29	1234.84
600.64	1225.46
600.99	1215.46
601.34	1205.89
601.69	1195.80
602.04	1186.92
602.39	1177.92
602.74	1169.14
603.08	1160.62
603.43	1151.56
603.78	1142.31
604.13	1133.21
604.48	1124.02
604.83	1115.17
605.18	1106.21
605.53	1097.18
605.87	1088.21
606.22	1079.52
606.57	1070.58
606.92	1061.63
607.27	1052.57
607.62	1043.65
607.96	1034.95
608.31	1027.29
608.66	1019.22
609.01	1011.52
609.36	1003.70
609.70	995.65
610.05	987.43
610.40	979.57
610.75	971.83
611.10	964.34
611.44	956.51
611.79	948.99
612.14	941.06
612.49	933.31
612.83	926.03
613.18	918.85
613.53	911.51
613.88	904.27
614.22	897.67
614.57	890.82
614.92	883.94
615.27	877.08
615.61	870.05
615.96	863.28
616.31	856.42
616.65	849.50
617.00	842.79
617.35	836.19
617.70	829.63
618.04	823.17
618.39	816.73
618.74	810.63
619.08	804.32
619.43	798.30
619.78	792.28
620.12	786.07
620.47	780.06
620.82	774.08
621.16	768.42
621.51	762.43
621.85	756.44
622.20	750.49
622.55	744.73
622.89	738.89
623.24	733.05
623.59	727.34
623.93	721.68
624.28	716.21
624.62	710.71
624.97	705.17
625.32	699.76
625.66	694.23
626.01	688.70
626.35	683.29
626.70	677.94
627.04	672.76
627.39	667.66
627.73	662.64
628.08	657.86
628.43	652.91
628.77	648.00
629.12	643.27
629.46	638.74
629.81	634.02
630.15	629.22
630.50	624.58
630.84	620.12
631.19	615.84
631.53	611.58
631.88	607.24
632.22	603.00
632.57	598.98
632.91	594.89
633.26	590.86
633.60	586.95
633.95	583.17
634.29	579.23
634.64	575.21
634.98	571.12
635.32	567.19
635.67	563.44
636.01	559.64
636.36	555.85
636.70	552.21
637.05	548.55
637.39	545.11
637.73	541.50
638.08	537.97
638.42	534.44
638.77	530.75
639.11	527.05
639.45	523.37
639.80	519.70
640.14	516.22
640.49	512.72
640.83	509.09
641.17	505.50
641.52	502.08
641.86	498.66
642.20	495.42
642.55	492.03
642.89	488.70
643.23	485.58
643.58	482.73
643.92	479.72
644.26	476.75
644.61	473.75
644.95	470.78
645.29	467.74
645.64	464.66
645.98	461.74
646.32	459.00
646.66	456.27
647.01	453.51
647.35	450.81
647.69	447.99
648.04	445.32
648.38	442.67
648.72	439.96
649.06	437.37
649.41	434.80
649.75	432.22
650.09	429.67
650.43	427.12
650.78	424.52
651.12	421.93
651.46	419.43
651.80	417.06
652.14	414.76
652.49	412.46
652.83	410.24
653.17	407.99
653.51	405.82
653.85	403.70
654.20	401.53
654.54	399.26
654.88	397.18
655.22	395.17
655.56	393.12
655.90	391.18
656.25	389.23
656.59	387.27
656.93	385.43
657.27	383.63
657.61	381.73
657.95	379.90
658.29	378.06
658.64	376.25
658.98	374.42
659.32	372.61
659.66	370.91
660.00	369.22
660.34	367.57
660.68	365.85
661.02	364.08
661.36	362.43
661.70	360.85
662.05	359.25
662.39	357.63
662.73	356.10
663.07	354.61
663.41	353.14
663.75	351.70
664.09	350.26
664.43	348.74
664.77	347.33
665.11	345.86
665.45	344.47
665.79	343.07
666.13	341.67
666.47	340.25
666.81	338.81
667.15	337.35
667.49	335.97
667.83	334.64
668.17	333.36
668.51	332.07
668.85	330.83
669.19	329.65
669.53	328.40
669.87	327.13
670.21	325.88
670.55	324.65
670.89	323.49
671.23	322.29
671.57	321.10
671.91	319.98
672.25	318.91
672.58	317.84
672.92	316.75
673.26	315.73
673.60	314.72
673.94	313.69
674.28	312.72
674.62	311.74
674.96	310.74
675.30	309.78
675.64	308.83
675.97	307.87
676.31	306.89
676.65	305.93
676.99	305.03
677.33	304.08
677.67	303.17
678.01	302.18
678.34	301.27
678.68	300.42
679.02	299.53
679.36	298.66
679.70	297.78
680.04	296.92
680.37	296.06
680.71	295.23
681.05	294.47
681.39	293.65
681.73	292.81
682.06	292.00
682.40	291.21
682.74	290.43
683.08	289.69
683.42	288.92
683.75	288.23
684.09	287.46
684.43	286.74
684.77	286.01
685.10	285.34
685.44	284.63
685.78	283.92
686.12	283.24
686.45	282.55
686.79	281.86
687.13	281.19
687.46	280.51
687.80	279.85
688.14	279.14
688.48	278.49
688.81	277.85
689.15	277.25
689.49	276.61
689.82	275.97
690.16	275.29
690.50	274.67
690.83	274.04
691.17	273.43
691.51	272.84
691.84	272.27
692.18	271.66
692.52	271.05
692.85	270.45
693.19	269.90
693.52	269.34
693.86	268.78
694.20	268.23
694.53	267.70
694.87	267.14
695.21	266.62
695.54	266.10
695.88	265.56
696.21	264.99
696.55	264.47
696.88	263.95
697.22	263.47
697.56	262.96
697.89	262.42
698.23	261.91
698.56	261.39
698.90	260.91
699.23	260.42
699.57	259.97
699.90	259.50
700.24	259.00
700.58	258.55
700.91	258.12
701.25	257.78
701.58	257.38
701.92	256.99
702.25	256.56
702.59	256.13
702.92	255.72
703.26	255.33
703.59	254.92
703.93	254.60
704.26	254.22
704.60	253.83
704.93	253.46
705.26	253.09
705.60	252.75
705.93	252.36
706.27	252.04
706.60	251.71
706.94	251.39
707.27	251.00
707.61	250.64
707.94	250.27
708.27	249.83
708.61	249.43
708.94	249.07
709.28	248.74
709.61	248.42
709.94	248.10
710.28	247.79
710.61	247.50
710.95	247.11
711.28	246.88
711.61	246.57
711.95	246.30
712.28	246.00
712.61	245.69
712.95	245.47
713.28	245.24
713.61	244.94
713.95	244.65
714.28	244.40
714.61	244.13
714.95	243.87
715.28	243.60
715.61	243.35
715.95	243.10
716.28	242.85
716.61	242.63
716.95	242.39
717.28	242.15
717.61	241.91
717.94	241.68
718.28	241.37
718.61	241.15
718.94	240.90
719.27	240.69
719.61	240.48
719.94	240.24
720.27	239.97
720.60	239.76
720.94	239.56
721.27	239.36
721.60	239.19
721.93	238.99
722.27	238.83
722.60	238.66
722.93	238.46
723.26	238.28
723.59	238.06
723.93	237.89
724.26	237.72
724.59	237.54
724.92	237.37
725.25	237.24
725.59	237.06
725.92	236.92
726.25	236.76
726.58	236.60
726.91	236.42
727.24	236.28
727.57	236.12
727.91	235.95
728.24	235.81
728.57	235.64
728.90	235.50
729.23	235.32
729.56	235.22
729.89	235.08
730.22	234.92
730.55	234.79
730.89	234.64
731.22	234.49
731.55	234.36
731.88	234.23
732.21	234.07
732.54	233.94
732.87	233.81
733.20	233.69
733.53	233.57
733.86	233.45
734.19	233.32
734.52	233.23
734.85	233.18
735.18	233.04
735.51	232.96
735.84	232.84
736.17	232.76
736.50	232.60
736.83	232.61
737.16	232.51
737.49	232.41
737.82	232.30
738.15	232.22
738.48	232.12
738.81	232.01
739.14	231.90
739.47	231.79
739.80	231.68
740.13	231.59
740.46	231.48
740.79	231.37
741.12	231.28
741.45	231.16
741.78	231.01
742.11	230.95
742.44	230.83
742.77	230.75
743.10	230.64
743.43	230.54
743.75	230.34
744.08	230.42
744.41	230.32
744.74	230.23
745.07	230.12
745.40	230.05
745.73	230.02
746.06	229.94
746.39	229.88
746.71	229.79
747.04	229.71
747.37	229.63
747.70	229.57
748.03	229.50
748.36	229.44
748.68	229.36
749.01	229.25
749.34	229.18
749.67	229.11
750.00	229.06
750.33	229.07
750.65	229.01
750.98	228.78
751.31	228.71
751.64	228.65
751.97	228.64
752.29	228.56
752.62	228.44
752.95	228.36
753.28	228.27
753.60	228.21
753.93	228.16
754.26	228.10
754.59	228.00
754.91	227.93
755.24	227.85
755.57	227.83
755.90	227.77
756.22	227.70
756.55	227.62
756.88	227.54
757.20	227.41
757.53	227.33
757.86	227.27
758.19	227.22
758.51	227.16
758.84	227.05
759.17	226.98
759.49	226.95
759.82	226.95
760.15	226.91
760.47	226.85
760.80	226.77
761.13	226.74
761.45	226.69
761.78	226.64
762.11	226.60
762.43	226.49
762.76	226.45
763.08	226.42
763.41	226.38
763.74	226.34
764.06	226.29
764.39	226.26
764.71	226.21
765.04	226.16
765.37	226.11
765.69	226.07
766.02	226.03
766.34	225.97
766.67	225.89
767.00	225.88
767.32	225.90
767.65	225.93
767.97	225.88
768.30	225.85
768.62	225.81
768.95	225.76
769.27	225.72
769.60	225.69
769.92	225.64
770.25	225.58
770.57	225.52
770.90	225.49
771.22	225.44
771.55	225.40
771.87	225.38
772.20	225.34
772.52	225.39
772.85	225.49
773.17	225.45
773.50	225.41
773.82	225.36
774.15	225.27
774.47	225.18
774.80	225.13
775.12	225.10
775.45	225.07
775.77	225.05
776.09	225.04
776.42	225.01
776.74	225.02
777.07	225.00
777.39	224.98
777.72	224.94
778.04	224.93
778.36	224.90
778.69	224.87
779.01	224.86
779.33	224.75
779.66	224.60
779.98	224.58
780.31	224.57
780.63	224.59
780.95	224.58
781.28	224.56
781.60	224.53
781.92	224.51
782.25	224.49
782.57	224.46
782.89	224.43
783.22	224.40
783.54	224.35
783.86	224.34
784.19	224.31
784.51	224.33
784.83	224.29
785.16	224.27
785.48	224.25
785.80	224.23
786.12	224.22
786.45	224.19
786.77	224.18
787.09	224.14
787.42	224.08
787.74	224.07
788.06	224.05
788.38	224.04
788.71	224.01
789.03	224.00
789.35	223.99
789.67	223.95
789.99	223.94
790.32	223.92
790.64	223.91
790.96	223.99
791.28	223.94
791.61	223.91
791.93	223.90
792.25	223.88
792.57	223.94
792.89	223.89
793.21	223.89
793.54	223.87
793.86	223.85
794.18	223.84
794.50	223.81
794.82	223.79
795.14	223.79
795.47	223.80
795.79	223.79
796.11	223.75
796.43	223.75
796.75	223.73
797.07	223.72
797.39	223.70
797.71	223.60
798.04	223.60
798.36	223.61
798.68	223.59
799.00	223.59
799.32	223.53
799.64	223.54
799.96	223.53
800.28	223.53
800.60	223.52
800.92	223.51
801.24	223.50
801.56	223.49
801.89	223.47
802.21	223.46
802.53	223.43
802.85	223.45
803.17	223.49
803.49	223.46
803.81	223.44
804.13	223.42
804.45	223.40
804.77	223.39
805.09	223.37
805.41	223.36
805.73	223.33
806.05	223.30
806.37	223.27
806.69	223.26
807.01	223.24
807.33	223.24
807.65	223.20
807.97	223.24
808.28	223.22
808.60	223.21
808.92	223.19
809.24	223.24
809.56	223.22
809.88	223.17
810.20	223.17
810.52	223.18
810.84	223.16
811.16	223.14
811.48	223.12
811.80	223.15
812.12	223.14
812.43	223.15
812.75	223.15
813.07	223.14
813.39	223.14
813.71	223.12
814.03	223.10
814.35	223.10
814.67	223.05
814.98	223.04
815.30	223.03
815.62	223.01
815.94	222.93
816.26	222.94
816.58	222.92
816.89	222.92
817.21	222.89
817.53	222.89
817.85	222.90
818.17	222.90
818.48	222.85
818.80	222.86
819.12	222.85
819.44	222.83
819.76	222.81
820.07	222.80
820.39	222.80
820.71	222.81
821.03	222.80
821.34	222.79
821.66	222.80
821.98	222.81
822.30	222.80
822.61	222.86
822.93	222.84
823.25	222.84
823.57	222.83
823.88	222.84
824.20	222.84
824.52	222.84
824.83	222.83
825.15	222.82
825.47	222.81
825.79	222.82
826.10	222.81
826.42	222.81
826.74	222.81
827.05	222.80
827.37	222.80
827.69	222.79
828.00	222.80
828.32	222.79
828.64	222.78
828.95	222.83
829.27	222.79
829.58	222.79
829.90	222.81
830.22	222.81
830.53	222.79
830.85	222.77
831.17	222.74
831.48	222.74
831.80	222.75
832.11	222.75
832.43	222.72
832.75	222.72
833.06	222.78
833.38	222.75
833.69	222.75
834.01	222.75
834.32	222.74
834.64	222.72
834.96	222.72
835.27	222.71
835.59	222.67
835.90	222.65
836.22	222.64
836.53	222.61
836.85	222.60
837.16	222.70
837.48	222.70
837.79	222.74
838.11	222.74
838.42	222.73
838.74	222.73
839.05	222.72
839.37	222.71
839.68	222.64
840.00	222.64
840.31	222.65
840.63	222.64
840.94	222.63
841.26	222.62
841.57	222.62
841.88	222.63
842.20	222.61
842.51	222.59
842.83	222.58
843.14	222.67
843.46	222.67
843.77	222.61
844.08	222.61
844.40	222.57
844.71	222.56
845.03	222.56
845.34	222.55
845.65	222.53
845.97	222.54
846.28	222.55
846.60	222.55
846.91	222.53
847.22	222.53
847.54	222.55
847.85	222.55
848.16	222.53
848.48	222.51
848.79	222.56
849.10	222.57
849.42	222.58
849.73	222.49
850.04	222.48
850.36	222.43
850.67	222.45
850.98	222.45
851.30	222.46
851.61	222.45
851.92	222.44
852.23	222.48
852.55	222.48
852.86	222.48
853.17	222.48
853.49	222.50
853.80	222.52
854.11	222.53
854.42	222.55
854.74	222.54
855.05	222.54
855.36	222.48
855.67	222.48
855.99	222.47
856.30	222.59
856.61	222.60
856.92	222.60
857.23	222.59
857.55	222.58
857.86	222.57
858.17	222.58
858.48	222.56
858.79	222.53
859.11	222.54
859.42	222.54
859.73	222.52
860.04	222.52
860.35	222.49
860.66	222.45
860.98	222.44
861.29	222.46
861.60	222.46
861.91	222.48
862.22	222.46
862.53	222.45
862.84	222.33
863.16	222.34
863.47	222.32
863.78	222.31
864.09	222.33
864.40	222.33
864.71	222.34
865.02	222.36
865.33	222.35
865.64	222.33
865.95	222.33
866.27	222.39
866.58	222.38
866.89	222.39
867.20	222.39
867.51	222.38
867.82	222.36
868.13	222.39
868.44	222.37
868.75	222.39
869.06	222.39
869.37	222.40
869.68	222.38
869.99	222.40
870.30	222.40
870.61	222.40
870.92	222.39
871.23	222.37
871.54	222.38
871.85	222.41
872.16	222.43
872.47	222.42
872.78	222.36
873.09	222.37
873.40	222.36
873.71	222.37
874.02	222.38
874.33	222.37
874.64	222.34
874.95	222.36
875.26	222.33
875.56	222.33
875.87	222.32
876.18	222.32
876.49	222.42
876.80	222.41
877.11	222.40
877.42	222.40
877.73	222.41
878.04	222.39
878.35	222.38
878.66	222.38
878.96	222.37
879.27	222.37
879.58	222.37
879.89	222.37
880.20	222.39
880.51	222.39
880.82	222.39
881.12	222.40
881.43	222.38
881.74	222.37
882.05	222.36
882.36	222.37
882.67	222.38
882.97	222.27
883.28	222.26
883.59	222.25
883.90	222.27
884.21	222.28
884.51	222.28
884.82	222.26
885.13	222.26
885.44	222.26
885.74	222.26
886.05	222.25
886.36	222.25
886.67	222.21
886.98	222.26
887.28	222.28
887.59	222.27
887.90	222.28
888.20	222.28
888.51	222.30
888.82	222.28
889.13	222.28
889.43	222.37
889.74	222.36
890.05	222.36
890.35	222.34
890.66	222.32
890.97	222.31
891.28	222.30
891.58	222.30
891.89	222.30
892.20	222.28
892.50	222.27
892.81	222.27
893.12	222.27
893.42	222.21
893.73	222.22
894.04	222.21
894.34	222.22
894.65	222.22
894.95	222.20
895.26	222.21
895.57	222.24
895.87	222.14
896.18	222.16
896.48	222.17
896.79	222.17
897.10	222.18
897.40	222.19
897.71	222.21
898.01	222.20
898.32	222.21
898.63	222.21
898.93	222.22
899.24	222.22
899.54	222.21
899.85	222.21
900.15	222.19
900.46	222.19
900.76	222.20
901.07	222.19
901.38	222.19
901.68	222.20
901.99	222.15
902.29	222.16
902.60	222.15
902.90	222.14
903.21	222.13
903.51	222.13
903.82	222.15
904.12	222.14
904.43	222.15
904.73	222.14
905.03	222.14
905.34	222.23
905.64	222.23
905.95	222.22
906.25	222.23
906.56	222.23
906.86	222.22
907.17	222.21
907.47	222.23
907.77	222.21
908.08	222.19
908.38	222.20
908.69	222.20
908.99	222.22
909.30	222.22
909.60	222.22
909.90	222.22
910.21	222.20
910.51	222.19
910.81	222.19
911.12	222.19
911.42	222.20
911.73	222.09
912.03	222.10
912.33	222.12
912.64	222.11
912.94	222.10
913.24	222.09
913.55	222.08
913.85	222.08
914.15	222.10
914.46	222.11
914.76	222.10
915.06	222.09
915.37	222.07
915.67	222.06
915.97	222.07
916.27	222.04
916.58	222.05
916.88	222.04
917.18	222.03
917.49	222.10
917.79	222.10
918.09	222.11
918.39	222.14
918.70	222.12
919.00	222.13
919.30	222.18
919.60	222.17
919.91	222.16
920.21	222.16
920.51	222.13
920.81	222.12
921.12	222.14
921.42	222.13
921.72	222.14
922.02	222.15
922.32	222.16
922.63	222.16
922.93	222.22
923.23	222.22
923.53	222.20
923.83	222.13
924.13	222.13
924.44	222.13
924.74	222.14
925.04	222.16
925.34	222.17
925.64	222.13
925.94	222.13
926.24	222.20
926.55	222.18
926.85	222.20
927.15	222.19
927.45	222.19
927.75	222.20
928.05	222.20
928.35	222.19
928.65	222.19
928.95	222.20
929.26	222.15
929.56	222.18
929.86	222.20
930.16	222.19
930.46	222.18
930.76	222.18
931.06	222.13
931.36	222.11
931.66	222.13
931.96	222.13
932.26	222.13
932.56	222.09
932.86	222.10
933.16	222.10
933.46	222.09
933.76	222.07
934.06	222.08
934.36	222.12
934.66	222.12
934.96	222.11
935.26	222.11
935.56	222.12
935.86	222.09
936.16	222.07
936.46	222.07
936.76	222.06
937.06	222.05
937.36	222.06
937.66	222.06
937.96	222.05
938.26	222.03
938.56	222.02
938.86	222.03
939.16	222.05
939.46	222.06
939.76	222.07
940.06	222.07
940.35	222.05
940.65	222.00
940.95	222.01
941.25	221.99
941.55	221.98
941.85	221.97
942.15	221.99
942.45	222.02
942.75	222.02
943.04	222.03
943.34	222.05
943.64	222.04
943.94	222.02
944.24	222.02
944.54	222.03
944.84	222.03
945.13	222.01
945.43	221.99
945.73	221.98
946.03	221.97
946.33	221.96
946.62	221.95
946.92	221.95
947.22	221.96
947.52	221.98
947.82	221.99
948.11	221.98
948.41	221.96
948.71	221.93
949.01	221.93
949.31	221.93
949.60	221.91
949.90	221.92
950.20	221.92
950.50	221.92
950.79	221.91
951.09	221.93
951.39	221.94
951.69	221.93
951.98	221.94
952.28	221.95
952.58	221.95
952.87	221.95
953.17	221.97
953.47	221.95
953.76	221.95
954.06	221.92
954.36	221.91
954.66	221.91
954.95	221.94
955.25	221.95
955.55	221.95
955.84	221.95
956.14	221.95
956.44	221.95
956.73	221.94
957.03	221.95
957.32	221.95
957.62	221.94
957.92	221.96
958.21	221.95
958.51	222.07
958.81	222.08
959.10	222.09
959.40	222.11
959.69	222.11
959.99	222.12
960.29	222.13
960.58	222.13
960.88	222.17
961.17	222.15
961.47	222.15
961.76	222.14
962.06	222.16
962.36	222.14
962.65	222.14
962.95	222.15
963.24	222.13
963.54	222.14
963.83	222.15
964.13	222.15
964.42	222.13
964.72	222.04
965.01	222.04
965.31	222.03
965.60	222.00
965.90	222.07
966.19	222.05
966.49	222.06
966.78	222.05
967.08	222.03
967.37	222.03
967.67	222.01
967.96	222.03
968.26	222.03
968.55	222.04
968.85	222.04
969.14	222.04
969.43	222.05
969.73	222.04
970.02	222.03
970.32	222.01
970.61	221.99
970.91	221.97
971.20	221.96
971.49	221.95
971.79	221.96
972.08	221.88
972.38	221.89
972.67	221.88
972.96	221.89
973.26	221.87
973.55	221.90
973.85	221.90
974.14	221.88
974.43	221.88
974.73	221.86
975.02	221.85
975.31	221.85
975.61	221.84
975.90	221.83
976.19	221.82
976.49	221.84
976.78	221.85
977.07	221.85
977.37	221.85
977.66	221.86
977.95	221.84
978.24	221.86
978.54	221.88
978.83	221.88
979.12	221.87
979.42	221.87
979.71	221.86
980.00	221.86
980.29	221.87
980.59	221.85
980.88	221.88
981.17	221.87
981.46	221.87
981.76	221.87
982.05	221.90
982.34	221.92
982.63	221.92
982.93	221.92
983.22	221.94
983.51	221.95
983.80	221.96
984.09	221.98
984.39	221.96
984.68	221.95
984.97	221.95
985.26	221.95
985.55	221.96
985.85	221.94
986.14	221.96
986.43	221.97
986.72	221.97
987.01	221.93
987.30	221.93
987.59	221.93
987.89	221.93
988.18	221.90
988.47	221.89
988.76	221.88
989.05	221.87
989.34	221.85
989.63	221.88
989.92	221.86
990.22	221.84
990.51	221.85
990.80	221.84
991.09	221.85
991.38	221.86
991.67	221.85
991.96	221.84
992.25	221.85
992.54	221.82
992.83	221.83
993.12	221.83
993.41	221.85
993.70	221.89
993.99	221.91
994.28	221.92
994.58	221.93
994.87	221.92
995.16	221.92
995.45	221.91
995.74	221.87
996.03	221.89
996.32	221.92
996.61	221.93
996.90	221.93
997.19	221.92
997.48	221.92
997.77	221.92
998.06	221.92
998.34	221.90
998.63	221.91
998.92	221.91
999.21	221.93
999.50	221.93
999.79	221.89
1000.08	221.89
1000.37	221.90
1000.66	221.88
1000.95	221.91
1001.24	221.92
1001.53	221.93
1001.82	221.93
1002.11	221.91
1002.40	221.91
1002.68	221.93
1002.97	222.01
1003.26	221.99
1003.55	221.98
1003.84	221.99
1004.13	222.03
1004.42	222.02
1004.71	222.02
1004.99	222.01
1005.28	222.04
1005.57	222.03
1005.86	222.02
1006.15	222.02
1006.44	222.00
1006.72	222.01
1007.01	221.99
1007.30	221.99
1007.59	221.99
1007.88	221.99
1008.17	221.99
1008.45	221.97
1008.74	221.93
1009.03	221.87
1009.32	221.88
1009.60	221.87
1009.89	221.86
1010.18	221.82
1010.47	221.82
1010.76	221.81
1011.04	221.81
1011.33	221.81
1011.62	221.81
1011.91	221.82
1012.19	221.82
1012.48	221.83
1012.77	221.82
1013.05	221.86
1013.34	221.85
1013.63	221.85
1013.92	221.85
1014.20	221.85
1014.49	221.85
1014.78	221.86
1015.06	221.83
1015.35	221.84
1015.64	221.85
1015.92	221.86
1016.21	221.87
1016.50	221.87
1016.78	221.88
1017.07	221.89
1017.36	221.87
1017.64	221.85
1017.93	221.86
1018.22	221.85
1018.50	221.85
1018.79	221.84
1019.08	221.80
1019.36	221.81
1019.65	221.80
1019.93	221.83
1020.22	221.84
1020.51	221.90
1020.79	221.88
1021.08	221.76
1021.36	221.61
1021.65	221.76
1021.94	221.85
1022.22	221.88
1022.51	221.56
1022.79	222.38
1023.08	221.95
1023.36	223.12
1023.65	221.64
>>>>>End Processed Spectral Data<<<<<
