SpectraSuite Data File
++++++++++++++++++++++++++++++++++++
Date: Wed Sep 30 19:05:59 EDT 2015
User: lab3
Dark Spectrum Present: No
Reference Spectrum Present: No
Number of Sampled Component Spectra: 1
Spectrometers: USB2E7196
Integration Time (usec): 36000 (USB2E7196)
Spectra Averaged: 5000 (USB2E7196)
Boxcar Smoothing: 10 (USB2E7196)
Correct for Electrical Dark: No (USB2E7196)
Strobe/Lamp Enabled: No (USB2E7196)
Correct for Detector Non-linearity: No (USB2E7196)
Correct for Stray Light: No (USB2E7196)
Number of Pixels in Processed Spectrum: 2048
>>>>>Begin Processed Spectral Data<<<<<
339.09	0.00
339.48	210.38
339.86	211.79
340.24	213.18
340.63	214.56
341.01	217.49
341.39	217.30
341.78	218.64
342.16	219.82
342.54	220.27
342.93	208.89
343.31	219.45
343.69	219.98
344.07	220.44
344.46	220.87
344.84	221.26
345.22	221.50
345.60	221.75
345.99	221.94
346.37	222.08
346.75	222.18
347.13	222.25
347.52	222.32
347.90	222.40
348.28	222.43
348.66	222.48
349.05	222.48
349.43	222.54
349.81	222.59
350.19	222.65
350.57	222.72
350.96	222.80
351.34	222.89
351.72	222.98
352.10	223.09
352.48	223.17
352.87	223.22
353.25	223.28
353.63	223.35
354.01	223.42
354.39	223.49
354.77	223.57
355.15	223.67
355.54	223.73
355.92	223.77
356.30	223.84
356.68	223.98
357.06	224.05
357.44	224.10
357.82	224.16
358.20	224.27
358.58	224.33
358.97	224.39
359.35	224.48
359.73	224.56
360.11	224.61
360.49	224.67
360.87	224.72
361.25	224.78
361.63	224.86
362.01	224.91
362.39	224.95
362.77	225.00
363.15	225.02
363.53	225.06
363.91	225.09
364.29	225.12
364.67	225.05
365.05	225.07
365.43	225.11
365.81	225.14
366.19	225.15
366.57	225.21
366.95	225.21
367.33	225.19
367.71	225.18
368.09	225.20
368.47	225.19
368.85	225.18
369.23	225.19
369.61	225.14
369.99	225.15
370.37	225.15
370.75	225.20
371.13	225.17
371.51	225.14
371.89	225.12
372.27	225.10
372.65	225.08
373.03	225.04
373.41	225.00
373.78	224.95
374.16	224.86
374.54	224.78
374.92	224.73
375.30	224.69
375.68	224.62
376.06	224.58
376.44	224.52
376.82	224.49
377.19	224.44
377.57	224.38
377.95	224.31
378.33	224.24
378.71	224.10
379.09	224.05
379.47	224.01
379.84	223.94
380.22	223.87
380.60	223.80
380.98	223.75
381.36	223.69
381.73	223.63
382.11	223.60
382.49	223.56
382.87	223.50
383.25	223.45
383.62	223.53
384.00	223.46
384.38	223.42
384.76	223.40
385.13	223.38
385.51	223.34
385.89	223.29
386.27	223.26
386.64	223.23
387.02	223.19
387.40	223.14
387.78	223.11
388.15	223.09
388.53	223.06
388.91	223.03
389.29	222.99
389.66	222.99
390.04	222.95
390.42	222.94
390.79	222.92
391.17	222.90
391.55	222.76
391.92	222.75
392.30	222.75
392.68	222.71
393.05	222.69
393.43	222.68
393.81	222.69
394.18	222.67
394.56	222.67
394.94	222.70
395.31	222.69
395.69	222.73
396.06	222.75
396.44	222.77
396.82	222.78
397.19	222.85
397.57	222.85
397.95	222.89
398.32	222.88
398.70	222.92
399.07	222.98
399.45	223.02
399.82	223.06
400.20	223.09
400.58	223.15
400.95	223.16
401.33	223.23
401.70	223.36
402.08	223.45
402.45	223.52
402.83	223.62
403.20	223.72
403.58	223.80
403.95	223.92
404.33	224.04
404.71	224.16
405.08	224.34
405.46	224.48
405.83	224.64
406.21	224.80
406.58	224.99
406.96	225.16
407.33	225.38
407.70	225.61
408.08	225.93
408.45	226.20
408.83	226.50
409.20	226.78
409.58	227.03
409.95	227.37
410.33	227.74
410.70	228.08
411.08	228.48
411.45	228.92
411.82	229.36
412.20	229.86
412.57	230.45
412.95	230.92
413.32	231.53
413.69	232.15
414.07	232.81
414.44	233.53
414.82	234.27
415.19	235.13
415.56	236.00
415.94	236.91
416.31	237.92
416.68	238.94
417.06	240.12
417.43	241.23
417.81	242.50
418.18	243.80
418.55	245.22
418.93	246.70
419.30	248.25
419.67	249.89
420.04	251.57
420.42	253.34
420.79	255.38
421.16	257.44
421.54	259.54
421.91	261.74
422.28	264.01
422.66	266.47
423.03	268.81
423.40	271.27
423.77	273.91
424.15	276.62
424.52	279.43
424.89	282.48
425.26	285.52
425.64	288.34
426.01	291.50
426.38	294.74
426.75	298.09
427.13	301.51
427.50	305.08
427.87	308.81
428.24	312.56
428.61	316.16
428.99	320.04
429.36	324.29
429.73	328.37
430.10	332.43
430.47	336.58
430.85	340.85
431.22	345.40
431.59	350.07
431.96	354.62
432.33	359.67
432.70	364.45
433.08	370.10
433.45	375.44
433.82	380.69
434.19	386.55
434.56	392.31
434.93	397.86
435.30	403.36
435.68	409.54
436.05	415.60
436.42	421.64
436.79	427.16
437.16	433.10
437.53	439.46
437.90	445.82
438.27	452.02
438.64	458.74
439.01	464.84
439.38	470.40
439.75	475.76
440.13	481.87
440.50	487.69
440.87	492.26
441.24	497.28
441.61	502.83
441.98	506.88
442.35	511.70
442.72	516.63
443.09	521.35
443.46	524.39
443.83	526.62
444.20	528.50
444.57	531.26
444.94	532.89
445.31	534.56
445.68	536.04
446.05	537.13
446.42	536.92
446.79	536.61
447.16	536.34
447.53	536.12
447.90	534.25
448.27	532.50
448.64	529.79
449.01	527.97
449.37	524.09
449.74	520.55
450.11	516.03
450.48	511.05
450.85	506.03
451.22	501.76
451.59	497.58
451.96	493.80
452.33	488.26
452.70	483.35
453.07	477.36
453.43	471.36
453.80	465.57
454.17	460.00
454.54	454.83
454.91	449.00
455.28	443.52
455.65	438.36
456.02	432.87
456.38	428.44
456.75	422.74
457.12	418.13
457.49	413.49
457.86	409.05
458.23	405.19
458.59	400.91
458.96	396.51
459.33	392.64
459.70	388.69
460.07	385.68
460.43	382.12
460.80	378.80
461.17	375.86
461.54	372.70
461.91	369.76
462.27	366.76
462.64	364.30
463.01	361.48
463.38	358.65
463.74	356.08
464.11	353.79
464.48	351.71
464.85	349.50
465.21	347.80
465.58	345.93
465.95	343.76
466.32	342.02
466.68	340.32
467.05	338.61
467.42	336.96
467.78	335.19
468.15	333.55
468.52	332.33
468.88	330.74
469.25	329.28
469.62	328.12
469.98	326.86
470.35	325.73
470.72	324.72
471.08	323.69
471.45	322.83
471.82	321.88
472.18	320.91
472.55	320.28
472.92	319.50
473.28	318.89
473.65	318.26
474.02	317.66
474.38	317.18
474.75	316.91
475.11	316.50
475.48	316.34
475.85	316.19
476.21	316.13
476.58	316.13
476.94	316.32
477.31	316.43
477.67	316.58
478.04	316.84
478.41	317.16
478.77	317.62
479.14	317.95
479.50	318.50
479.87	319.17
480.23	319.85
480.60	320.49
480.96	321.17
481.33	322.10
481.69	323.05
482.06	323.98
482.42	324.86
482.79	325.93
483.15	327.14
483.52	328.49
483.88	329.82
484.25	331.22
484.61	332.68
484.98	334.25
485.34	336.01
485.71	337.84
486.07	339.79
486.44	341.73
486.80	343.89
487.17	346.09
487.53	348.52
487.90	351.05
488.26	353.79
488.62	356.68
488.99	359.56
489.35	362.59
489.72	365.85
490.08	369.28
490.44	372.80
490.81	376.50
491.17	380.28
491.54	384.32
491.90	388.45
492.26	392.90
492.63	397.58
492.99	402.46
493.36	407.47
493.72	412.74
494.08	418.15
494.45	423.85
494.81	429.77
495.17	435.80
495.54	442.18
495.90	448.87
496.26	455.70
496.63	462.78
496.99	470.12
497.35	477.83
497.72	485.83
498.08	494.01
498.44	502.42
498.80	511.39
499.17	520.60
499.53	530.15
499.89	539.92
500.26	549.86
500.62	560.08
500.98	570.95
501.34	581.96
501.71	593.51
502.07	605.29
502.43	617.46
502.79	629.99
503.16	642.92
503.52	656.03
503.88	669.51
504.24	683.43
504.60	697.63
504.97	712.23
505.33	727.20
505.69	743.04
506.05	759.09
506.41	775.15
506.78	791.51
507.14	808.35
507.50	825.79
507.86	843.65
508.22	861.76
508.59	879.89
508.95	898.75
509.31	918.05
509.67	938.03
510.03	958.23
510.39	978.66
510.75	999.32
511.12	1020.27
511.48	1041.55
511.84	1062.94
512.20	1084.65
512.56	1107.41
512.92	1130.40
513.28	1153.16
513.64	1176.24
514.00	1199.70
514.37	1223.53
514.73	1247.38
515.09	1271.06
515.45	1295.11
515.81	1319.77
516.17	1344.49
516.53	1368.91
516.89	1393.43
517.25	1418.15
517.61	1443.04
517.97	1468.13
518.33	1492.98
518.69	1517.98
519.05	1543.24
519.41	1568.64
519.77	1594.30
520.13	1619.26
520.49	1644.36
520.85	1669.69
521.21	1694.95
521.57	1720.88
521.93	1746.09
522.29	1772.16
522.65	1797.93
523.01	1823.58
523.37	1848.50
523.73	1874.09
524.09	1899.76
524.45	1925.31
524.81	1950.43
525.17	1975.44
525.53	2000.09
525.89	2024.86
526.25	2049.80
526.61	2074.17
526.97	2098.85
527.33	2123.44
527.68	2147.82
528.04	2171.44
528.40	2194.94
528.76	2218.61
529.12	2241.23
529.48	2264.22
529.84	2285.40
530.20	2307.16
530.56	2328.51
530.91	2349.96
531.27	2370.90
531.63	2391.32
531.99	2411.22
532.35	2430.76
532.71	2450.45
533.07	2470.72
533.42	2489.38
533.78	2508.45
534.14	2527.49
534.50	2545.70
534.86	2564.59
535.21	2581.67
535.57	2598.70
535.93	2614.89
536.29	2629.94
536.65	2645.78
537.00	2660.44
537.36	2675.62
537.72	2689.75
538.08	2703.69
538.44	2716.36
538.79	2729.34
539.15	2740.61
539.51	2751.88
539.87	2762.77
540.22	2771.44
540.58	2780.22
540.94	2789.55
541.29	2797.41
541.65	2804.31
542.01	2810.67
542.37	2815.16
542.72	2821.57
543.08	2827.38
543.44	2833.11
543.79	2837.98
544.15	2841.98
544.51	2846.05
544.87	2849.20
545.22	2851.93
545.58	2853.59
545.94	2855.76
546.29	2856.45
546.65	2857.22
547.01	2857.95
547.36	2858.84
547.72	2859.95
548.07	2859.58
548.43	2858.57
548.79	2856.87
549.14	2855.21
549.50	2854.11
549.86	2852.13
550.21	2847.66
550.57	2843.73
550.92	2838.41
551.28	2833.59
551.64	2828.72
551.99	2824.23
552.35	2819.31
552.70	2813.97
553.06	2809.41
553.41	2804.36
553.77	2798.58
554.13	2793.52
554.48	2787.66
554.84	2780.13
555.19	2772.74
555.55	2764.76
555.90	2757.37
556.26	2751.07
556.61	2744.07
556.97	2734.95
557.32	2726.65
557.68	2718.78
558.03	2710.14
558.39	2702.10
558.74	2694.38
559.10	2685.40
559.45	2676.08
559.81	2667.09
560.16	2657.40
560.52	2647.26
560.87	2638.19
561.23	2628.76
561.58	2618.83
561.94	2608.58
562.29	2597.87
562.64	2587.72
563.00	2577.88
563.35	2567.81
563.71	2556.82
564.06	2545.39
564.42	2534.93
564.77	2524.09
565.12	2513.46
565.48	2502.59
565.83	2492.41
566.19	2482.27
566.54	2471.74
566.89	2460.21
567.25	2448.55
567.60	2437.78
567.96	2426.49
568.31	2413.78
568.66	2401.04
569.02	2389.39
569.37	2377.56
569.72	2366.20
570.08	2354.08
570.43	2341.41
570.78	2328.46
571.14	2315.29
571.49	2302.90
571.84	2290.85
572.20	2277.54
572.55	2264.52
572.90	2251.39
573.26	2237.38
573.61	2222.65
573.96	2208.21
574.31	2194.15
574.67	2180.42
575.02	2166.27
575.37	2151.71
575.72	2137.38
576.08	2123.70
576.43	2108.86
576.78	2094.03
577.13	2080.02
577.49	2066.14
577.84	2052.60
578.19	2038.21
578.54	2023.41
578.90	2008.09
579.25	1992.46
579.60	1978.35
579.95	1963.88
580.30	1949.41
580.66	1935.18
581.01	1920.64
581.36	1906.43
581.71	1892.84
582.06	1878.71
582.42	1864.62
582.77	1851.25
583.12	1837.58
583.47	1823.88
583.82	1810.34
584.17	1796.68
584.53	1782.87
584.88	1769.05
585.23	1754.94
585.58	1741.36
585.93	1728.17
586.28	1715.77
586.63	1703.20
586.98	1689.84
587.34	1676.73
587.69	1663.13
588.04	1649.79
588.39	1637.16
588.74	1623.97
589.09	1610.53
589.44	1597.02
589.79	1584.06
590.14	1571.01
590.49	1558.12
590.84	1545.13
591.19	1532.80
591.54	1519.99
591.89	1506.98
592.25	1494.29
592.60	1481.20
592.95	1468.67
593.30	1456.48
593.65	1444.10
594.00	1431.88
594.35	1420.43
594.70	1408.17
595.05	1397.00
595.40	1385.66
595.75	1373.67
596.10	1362.49
596.45	1351.54
596.80	1341.06
597.15	1330.38
597.50	1319.69
597.85	1309.24
598.19	1298.96
598.54	1288.03
598.89	1277.80
599.24	1267.93
599.59	1257.82
599.94	1248.72
600.29	1239.54
600.64	1230.13
600.99	1220.13
601.34	1210.63
601.69	1200.50
602.04	1191.46
602.39	1182.26
602.74	1173.32
603.08	1164.64
603.43	1155.48
603.78	1146.14
604.13	1136.98
604.48	1127.73
604.83	1118.75
605.18	1109.69
605.53	1100.56
605.87	1091.58
606.22	1082.90
606.57	1073.93
606.92	1065.04
607.27	1056.00
607.62	1047.01
607.96	1038.22
608.31	1030.45
608.66	1022.26
609.01	1014.53
609.36	1006.73
609.70	998.71
610.05	990.49
610.40	982.62
610.75	974.86
611.10	967.43
611.44	959.58
611.79	952.06
612.14	944.13
612.49	936.35
612.83	929.09
613.18	921.87
613.53	914.45
613.88	907.10
614.22	900.40
614.57	893.54
614.92	886.65
615.27	879.76
615.61	872.71
615.96	865.89
616.31	858.99
616.65	851.98
617.00	845.23
617.35	838.61
617.70	832.03
618.04	825.53
618.39	819.02
618.74	812.88
619.08	806.52
619.43	800.45
619.78	794.40
620.12	788.13
620.47	782.06
620.82	776.07
621.16	770.43
621.51	764.40
621.85	758.35
622.20	752.37
622.55	746.60
622.89	740.79
623.24	735.03
623.59	729.36
623.93	723.69
624.28	718.17
624.62	712.66
624.97	707.09
625.32	701.67
625.66	696.07
626.01	690.47
626.35	685.04
626.70	679.63
627.04	674.42
627.39	669.24
627.73	664.18
628.08	659.38
628.43	654.43
628.77	649.57
629.12	644.84
629.46	640.30
629.81	635.54
630.15	630.66
630.50	625.93
630.84	621.41
631.19	617.10
631.53	612.82
631.88	608.43
632.22	604.14
632.57	600.10
632.91	596.03
633.26	592.04
633.60	588.13
633.95	584.34
634.29	580.41
634.64	576.43
634.98	572.33
635.32	568.37
635.67	564.56
636.01	560.70
636.36	556.87
636.70	553.19
637.05	549.50
637.39	546.03
637.73	542.43
638.08	538.88
638.42	535.30
638.77	531.59
639.11	527.89
639.45	524.21
639.80	520.51
640.14	517.02
640.49	513.49
640.83	509.84
641.17	506.22
641.52	502.77
641.86	499.32
642.20	496.06
642.55	492.66
642.89	489.32
643.23	486.18
643.58	483.29
643.92	480.28
644.26	477.32
644.61	474.33
644.95	471.34
645.29	468.28
645.64	465.22
645.98	462.28
646.32	459.51
646.66	456.77
647.01	453.99
647.35	451.26
647.69	448.42
648.04	445.72
648.38	443.06
648.72	440.34
649.06	437.72
649.41	435.12
649.75	432.52
650.09	429.94
650.43	427.38
650.78	424.79
651.12	422.17
651.46	419.67
651.80	417.27
652.14	414.95
652.49	412.65
652.83	410.39
653.17	408.12
653.51	405.93
653.85	403.80
654.20	401.63
654.54	399.34
654.88	397.25
655.22	395.24
655.56	393.19
655.90	391.24
656.25	389.29
656.59	387.34
656.93	385.50
657.27	383.69
657.61	381.77
657.95	379.93
658.29	378.11
658.64	376.31
658.98	374.49
659.32	372.70
659.66	371.00
660.00	369.31
660.34	367.67
660.68	365.97
661.02	364.20
661.36	362.55
661.70	360.97
662.05	359.38
662.39	357.76
662.73	356.24
663.07	354.74
663.41	353.26
663.75	351.81
664.09	350.36
664.43	348.84
664.77	347.42
665.11	345.93
665.45	344.52
665.79	343.11
666.13	341.69
666.47	340.25
666.81	338.80
667.15	337.32
667.49	335.94
667.83	334.60
668.17	333.30
668.51	332.04
668.85	330.79
669.19	329.62
669.53	328.38
669.87	327.11
670.21	325.87
670.55	324.66
670.89	323.51
671.23	322.33
671.57	321.16
671.91	320.05
672.25	319.01
672.58	317.96
672.92	316.86
673.26	315.83
673.60	314.82
673.94	313.79
674.28	312.83
674.62	311.85
674.96	310.84
675.30	309.90
675.64	308.93
675.97	307.97
676.31	306.97
676.65	306.00
676.99	305.09
677.33	304.12
677.67	303.20
678.01	302.21
678.34	301.29
678.68	300.43
679.02	299.55
679.36	298.66
679.70	297.78
680.04	296.94
680.37	296.08
680.71	295.26
681.05	294.49
681.39	293.67
681.73	292.83
682.06	292.02
682.40	291.21
682.74	290.44
683.08	289.69
683.42	288.93
683.75	288.24
684.09	287.47
684.43	286.75
684.77	286.02
685.10	285.33
685.44	284.63
685.78	283.91
686.12	283.23
686.45	282.54
686.79	281.85
687.13	281.19
687.46	280.50
687.80	279.83
688.14	279.11
688.48	278.46
688.81	277.81
689.15	277.20
689.49	276.56
689.82	275.93
690.16	275.26
690.50	274.63
690.83	274.01
691.17	273.40
691.51	272.81
691.84	272.24
692.18	271.64
692.52	271.03
692.85	270.45
693.19	269.89
693.52	269.33
693.86	268.77
694.20	268.22
694.53	267.69
694.87	267.15
695.21	266.64
695.54	266.12
695.88	265.60
696.21	265.04
696.55	264.53
696.88	264.01
697.22	263.51
697.56	263.02
697.89	262.47
698.23	261.95
698.56	261.43
698.90	260.95
699.23	260.45
699.57	260.00
699.90	259.52
700.24	259.03
700.58	258.57
700.91	258.14
701.25	257.79
701.58	257.40
701.92	257.00
702.25	256.57
702.59	256.14
702.92	255.74
703.26	255.33
703.59	254.92
703.93	254.60
704.26	254.23
704.60	253.84
704.93	253.47
705.26	253.11
705.60	252.77
705.93	252.38
706.27	252.06
706.60	251.73
706.94	251.41
707.27	251.02
707.61	250.67
707.94	250.30
708.27	249.86
708.61	249.46
708.94	249.09
709.28	248.75
709.61	248.42
709.94	248.12
710.28	247.81
710.61	247.52
710.95	247.13
711.28	246.89
711.61	246.60
711.95	246.34
712.28	246.04
712.61	245.73
712.95	245.50
713.28	245.27
713.61	244.98
713.95	244.68
714.28	244.44
714.61	244.16
714.95	243.91
715.28	243.65
715.61	243.40
715.95	243.16
716.28	242.92
716.61	242.70
716.95	242.44
717.28	242.20
717.61	241.96
717.94	241.73
718.28	241.43
718.61	241.20
718.94	240.95
719.27	240.73
719.61	240.54
719.94	240.30
720.27	240.03
720.60	239.82
720.94	239.62
721.27	239.43
721.60	239.25
721.93	239.05
722.27	238.90
722.60	238.72
722.93	238.51
723.26	238.33
723.59	238.12
723.93	237.96
724.26	237.79
724.59	237.61
724.92	237.45
725.25	237.31
725.59	237.14
725.92	237.00
726.25	236.84
726.58	236.68
726.91	236.51
727.24	236.37
727.57	236.21
727.91	236.04
728.24	235.90
728.57	235.73
728.90	235.60
729.23	235.41
729.56	235.31
729.89	235.18
730.22	235.02
730.55	234.88
730.89	234.73
731.22	234.58
731.55	234.45
731.88	234.31
732.21	234.15
732.54	234.02
732.87	233.89
733.20	233.76
733.53	233.64
733.86	233.54
734.19	233.40
734.52	233.30
734.85	233.26
735.18	233.12
735.51	233.04
735.84	232.93
736.17	232.85
736.50	232.68
736.83	232.69
737.16	232.60
737.49	232.51
737.82	232.40
738.15	232.32
738.48	232.22
738.81	232.11
739.14	232.00
739.47	231.89
739.80	231.79
740.13	231.70
740.46	231.59
740.79	231.47
741.12	231.38
741.45	231.26
741.78	231.11
742.11	231.05
742.44	230.93
742.77	230.85
743.10	230.74
743.43	230.65
743.75	230.45
744.08	230.51
744.41	230.42
744.74	230.33
745.07	230.21
745.40	230.15
745.73	230.11
746.06	230.03
746.39	229.97
746.71	229.88
747.04	229.80
747.37	229.72
747.70	229.66
748.03	229.59
748.36	229.53
748.68	229.45
749.01	229.34
749.34	229.27
749.67	229.19
750.00	229.13
750.33	229.14
750.65	229.08
750.98	228.86
751.31	228.80
751.64	228.74
751.97	228.73
752.29	228.65
752.62	228.54
752.95	228.46
753.28	228.38
753.60	228.31
753.93	228.27
754.26	228.21
754.59	228.11
754.91	228.03
755.24	227.95
755.57	227.93
755.90	227.87
756.22	227.81
756.55	227.73
756.88	227.65
757.20	227.52
757.53	227.42
757.86	227.36
758.19	227.31
758.51	227.25
758.84	227.14
759.17	227.07
759.49	227.02
759.82	227.03
760.15	226.99
760.47	226.93
760.80	226.86
761.13	226.82
761.45	226.78
761.78	226.74
762.11	226.70
762.43	226.60
762.76	226.55
763.08	226.51
763.41	226.48
763.74	226.44
764.06	226.39
764.39	226.36
764.71	226.32
765.04	226.26
765.37	226.21
765.69	226.17
766.02	226.13
766.34	226.08
766.67	226.00
767.00	225.98
767.32	225.99
767.65	226.01
767.97	225.96
768.30	225.93
768.62	225.89
768.95	225.84
769.27	225.80
769.60	225.78
769.92	225.73
770.25	225.67
770.57	225.62
770.90	225.58
771.22	225.53
771.55	225.50
771.87	225.48
772.20	225.44
772.52	225.49
772.85	225.58
773.17	225.55
773.50	225.51
773.82	225.46
774.15	225.38
774.47	225.28
774.80	225.24
775.12	225.20
775.45	225.17
775.77	225.15
776.09	225.13
776.42	225.09
776.74	225.10
777.07	225.07
777.39	225.05
777.72	225.01
778.04	225.00
778.36	224.96
778.69	224.94
779.01	224.92
779.33	224.82
779.66	224.67
779.98	224.64
780.31	224.63
780.63	224.64
780.95	224.64
781.28	224.62
781.60	224.59
781.92	224.57
782.25	224.55
782.57	224.53
782.89	224.50
783.22	224.47
783.54	224.42
783.86	224.41
784.19	224.39
784.51	224.40
784.83	224.37
785.16	224.35
785.48	224.32
785.80	224.31
786.12	224.29
786.45	224.27
786.77	224.27
787.09	224.25
787.42	224.19
787.74	224.18
788.06	224.17
788.38	224.15
788.71	224.12
789.03	224.11
789.35	224.11
789.67	224.08
789.99	224.08
790.32	224.05
790.64	224.04
790.96	224.12
791.28	224.07
791.61	224.06
791.93	224.05
792.25	224.04
792.57	224.09
792.89	224.06
793.21	224.06
793.54	224.03
793.86	224.01
794.18	224.00
794.50	223.97
794.82	223.95
795.14	223.96
795.47	223.97
795.79	223.95
796.11	223.92
796.43	223.91
796.75	223.89
797.07	223.89
797.39	223.87
797.71	223.77
798.04	223.76
798.36	223.75
798.68	223.74
799.00	223.73
799.32	223.67
799.64	223.68
799.96	223.66
800.28	223.67
800.60	223.66
800.92	223.65
801.24	223.63
801.56	223.64
801.89	223.61
802.21	223.60
802.53	223.58
802.85	223.59
803.17	223.64
803.49	223.61
803.81	223.59
804.13	223.58
804.45	223.55
804.77	223.55
805.09	223.54
805.41	223.52
805.73	223.50
806.05	223.46
806.37	223.44
806.69	223.42
807.01	223.40
807.33	223.41
807.65	223.36
807.97	223.39
808.28	223.37
808.60	223.36
808.92	223.34
809.24	223.39
809.56	223.36
809.88	223.31
810.20	223.30
810.52	223.32
810.84	223.30
811.16	223.28
811.48	223.26
811.80	223.29
812.12	223.28
812.43	223.29
812.75	223.29
813.07	223.28
813.39	223.28
813.71	223.25
814.03	223.23
814.35	223.23
814.67	223.19
814.98	223.17
815.30	223.16
815.62	223.14
815.94	223.06
816.26	223.07
816.58	223.04
816.89	223.05
817.21	223.01
817.53	223.02
817.85	223.02
818.17	223.02
818.48	222.97
818.80	222.98
819.12	222.96
819.44	222.94
819.76	222.91
820.07	222.91
820.39	222.91
820.71	222.92
821.03	222.91
821.34	222.90
821.66	222.92
821.98	222.92
822.30	222.92
822.61	222.98
822.93	222.96
823.25	222.96
823.57	222.95
823.88	222.96
824.20	222.96
824.52	222.98
824.83	222.96
825.15	222.95
825.47	222.94
825.79	222.95
826.10	222.94
826.42	222.94
826.74	222.94
827.05	222.93
827.37	222.93
827.69	222.92
828.00	222.92
828.32	222.91
828.64	222.90
828.95	222.95
829.27	222.91
829.58	222.90
829.90	222.92
830.22	222.92
830.53	222.89
830.85	222.88
831.17	222.84
831.48	222.84
831.80	222.84
832.11	222.83
832.43	222.81
832.75	222.81
833.06	222.87
833.38	222.83
833.69	222.83
834.01	222.83
834.32	222.83
834.64	222.82
834.96	222.81
835.27	222.81
835.59	222.77
835.90	222.76
836.22	222.75
836.53	222.73
836.85	222.71
837.16	222.81
837.48	222.82
837.79	222.85
838.11	222.86
838.42	222.85
838.74	222.86
839.05	222.85
839.37	222.85
839.68	222.79
840.00	222.78
840.31	222.80
840.63	222.78
840.94	222.77
841.26	222.76
841.57	222.75
841.88	222.76
842.20	222.75
842.51	222.73
842.83	222.73
843.14	222.82
843.46	222.81
843.77	222.74
844.08	222.73
844.40	222.69
844.71	222.68
845.03	222.68
845.34	222.66
845.65	222.66
845.97	222.66
846.28	222.67
846.60	222.67
846.91	222.65
847.22	222.64
847.54	222.66
847.85	222.67
848.16	222.66
848.48	222.64
848.79	222.68
849.10	222.69
849.42	222.69
849.73	222.59
850.04	222.59
850.36	222.55
850.67	222.57
850.98	222.58
851.30	222.59
851.61	222.58
851.92	222.57
852.23	222.60
852.55	222.60
852.86	222.60
853.17	222.60
853.49	222.63
853.80	222.65
854.11	222.65
854.42	222.66
854.74	222.65
855.05	222.66
855.36	222.60
855.67	222.60
855.99	222.60
856.30	222.72
856.61	222.72
856.92	222.72
857.23	222.72
857.55	222.71
857.86	222.70
858.17	222.72
858.48	222.70
858.79	222.68
859.11	222.69
859.42	222.68
859.73	222.66
860.04	222.65
860.35	222.63
860.66	222.59
860.98	222.59
861.29	222.60
861.60	222.59
861.91	222.62
862.22	222.60
862.53	222.58
862.84	222.46
863.16	222.48
863.47	222.46
863.78	222.44
864.09	222.45
864.40	222.46
864.71	222.46
865.02	222.47
865.33	222.46
865.64	222.44
865.95	222.44
866.27	222.51
866.58	222.50
866.89	222.51
867.20	222.51
867.51	222.49
867.82	222.49
868.13	222.52
868.44	222.49
868.75	222.51
869.06	222.52
869.37	222.53
869.68	222.50
869.99	222.52
870.30	222.53
870.61	222.53
870.92	222.52
871.23	222.51
871.54	222.53
871.85	222.55
872.16	222.56
872.47	222.55
872.78	222.49
873.09	222.50
873.40	222.49
873.71	222.50
874.02	222.52
874.33	222.51
874.64	222.48
874.95	222.50
875.26	222.47
875.56	222.47
875.87	222.46
876.18	222.45
876.49	222.55
876.80	222.54
877.11	222.52
877.42	222.52
877.73	222.52
878.04	222.50
878.35	222.51
878.66	222.50
878.96	222.50
879.27	222.50
879.58	222.49
879.89	222.48
880.20	222.51
880.51	222.50
880.82	222.50
881.12	222.51
881.43	222.49
881.74	222.48
882.05	222.48
882.36	222.48
882.67	222.49
882.97	222.38
883.28	222.37
883.59	222.37
883.90	222.38
884.21	222.39
884.51	222.38
884.82	222.37
885.13	222.37
885.44	222.36
885.74	222.36
886.05	222.36
886.36	222.36
886.67	222.32
886.98	222.38
887.28	222.38
887.59	222.38
887.90	222.38
888.20	222.38
888.51	222.40
888.82	222.38
889.13	222.39
889.43	222.48
889.74	222.47
890.05	222.47
890.35	222.46
890.66	222.44
890.97	222.43
891.28	222.42
891.58	222.41
891.89	222.41
892.20	222.40
892.50	222.38
892.81	222.37
893.12	222.37
893.42	222.32
893.73	222.32
894.04	222.31
894.34	222.31
894.65	222.30
894.95	222.29
895.26	222.30
895.57	222.34
895.87	222.23
896.18	222.25
896.48	222.25
896.79	222.25
897.10	222.27
897.40	222.27
897.71	222.28
898.01	222.27
898.32	222.28
898.63	222.28
898.93	222.29
899.24	222.29
899.54	222.29
899.85	222.28
900.15	222.27
900.46	222.26
900.76	222.27
901.07	222.27
901.38	222.26
901.68	222.28
901.99	222.22
902.29	222.22
902.60	222.22
902.90	222.21
903.21	222.20
903.51	222.19
903.82	222.22
904.12	222.21
904.43	222.22
904.73	222.21
905.03	222.22
905.34	222.31
905.64	222.31
905.95	222.32
906.25	222.32
906.56	222.31
906.86	222.31
907.17	222.30
907.47	222.31
907.77	222.30
908.08	222.28
908.38	222.29
908.69	222.30
908.99	222.31
909.30	222.32
909.60	222.31
909.90	222.32
910.21	222.29
910.51	222.28
910.81	222.27
911.12	222.27
911.42	222.28
911.73	222.17
912.03	222.17
912.33	222.19
912.64	222.19
912.94	222.18
913.24	222.17
913.55	222.16
913.85	222.16
914.15	222.18
914.46	222.19
914.76	222.18
915.06	222.17
915.37	222.15
915.67	222.14
915.97	222.15
916.27	222.12
916.58	222.14
916.88	222.13
917.18	222.13
917.49	222.19
917.79	222.19
918.09	222.21
918.39	222.23
918.70	222.23
919.00	222.23
919.30	222.28
919.60	222.27
919.91	222.26
920.21	222.27
920.51	222.25
920.81	222.23
921.12	222.25
921.42	222.25
921.72	222.25
922.02	222.26
922.32	222.28
922.63	222.28
922.93	222.33
923.23	222.33
923.53	222.32
923.83	222.26
924.13	222.27
924.44	222.27
924.74	222.28
925.04	222.30
925.34	222.30
925.64	222.25
925.94	222.25
926.24	222.31
926.55	222.30
926.85	222.32
927.15	222.32
927.45	222.32
927.75	222.32
928.05	222.32
928.35	222.31
928.65	222.33
928.95	222.34
929.26	222.29
929.56	222.31
929.86	222.33
930.16	222.32
930.46	222.31
930.76	222.31
931.06	222.26
931.36	222.23
931.66	222.25
931.96	222.26
932.26	222.27
932.56	222.23
932.86	222.23
933.16	222.23
933.46	222.23
933.76	222.21
934.06	222.23
934.36	222.27
934.66	222.27
934.96	222.24
935.26	222.25
935.56	222.26
935.86	222.23
936.16	222.22
936.46	222.21
936.76	222.21
937.06	222.19
937.36	222.20
937.66	222.21
937.96	222.20
938.26	222.18
938.56	222.17
938.86	222.17
939.16	222.19
939.46	222.19
939.76	222.20
940.06	222.20
940.35	222.18
940.65	222.13
940.95	222.13
941.25	222.11
941.55	222.10
941.85	222.09
942.15	222.11
942.45	222.14
942.75	222.14
943.04	222.14
943.34	222.16
943.64	222.15
943.94	222.14
944.24	222.14
944.54	222.14
944.84	222.14
945.13	222.13
945.43	222.11
945.73	222.11
946.03	222.10
946.33	222.09
946.62	222.07
946.92	222.07
947.22	222.08
947.52	222.09
947.82	222.10
948.11	222.09
948.41	222.07
948.71	222.04
949.01	222.04
949.31	222.03
949.60	222.02
949.90	222.04
950.20	222.04
950.50	222.03
950.79	222.02
951.09	222.04
951.39	222.03
951.69	222.02
951.98	222.04
952.28	222.04
952.58	222.04
952.87	222.05
953.17	222.06
953.47	222.05
953.76	222.05
954.06	222.03
954.36	222.01
954.66	222.01
954.95	222.04
955.25	222.05
955.55	222.06
955.84	222.04
956.14	222.04
956.44	222.05
956.73	222.03
957.03	222.04
957.32	222.04
957.62	222.04
957.92	222.06
958.21	222.04
958.51	222.16
958.81	222.18
959.10	222.19
959.40	222.21
959.69	222.22
959.99	222.24
960.29	222.24
960.58	222.24
960.88	222.28
961.17	222.26
961.47	222.27
961.76	222.26
962.06	222.28
962.36	222.27
962.65	222.28
962.95	222.29
963.24	222.27
963.54	222.28
963.83	222.28
964.13	222.28
964.42	222.27
964.72	222.18
965.01	222.18
965.31	222.17
965.60	222.14
965.90	222.20
966.19	222.18
966.49	222.18
966.78	222.18
967.08	222.16
967.37	222.16
967.67	222.14
967.96	222.15
968.26	222.15
968.55	222.16
968.85	222.15
969.14	222.15
969.43	222.15
969.73	222.14
970.02	222.14
970.32	222.13
970.61	222.11
970.91	222.09
971.20	222.07
971.49	222.06
971.79	222.08
972.08	222.00
972.38	222.01
972.67	222.01
972.96	222.03
973.26	222.00
973.55	222.03
973.85	222.04
974.14	222.03
974.43	222.03
974.73	222.01
975.02	222.00
975.31	222.01
975.61	222.01
975.90	222.00
976.19	221.99
976.49	222.00
976.78	222.01
977.07	222.01
977.37	222.01
977.66	222.03
977.95	222.01
978.24	222.02
978.54	222.04
978.83	222.03
979.12	222.03
979.42	222.03
979.71	222.01
980.00	222.01
980.29	222.01
980.59	221.99
980.88	222.02
981.17	222.02
981.46	222.02
981.76	222.02
982.05	222.05
982.34	222.05
982.63	222.05
982.93	222.04
983.22	222.07
983.51	222.07
983.80	222.09
984.09	222.10
984.39	222.09
984.68	222.08
984.97	222.08
985.26	222.08
985.55	222.08
985.85	222.06
986.14	222.07
986.43	222.09
986.72	222.08
987.01	222.05
987.30	222.05
987.59	222.04
987.89	222.05
988.18	222.02
988.47	222.01
988.76	222.00
989.05	221.99
989.34	221.98
989.63	222.01
989.92	221.99
990.22	221.98
990.51	221.98
990.80	221.97
991.09	221.98
991.38	221.99
991.67	221.98
991.96	221.97
992.25	221.97
992.54	221.95
992.83	221.96
993.12	221.96
993.41	221.98
993.70	222.02
993.99	222.03
994.28	222.05
994.58	222.07
994.87	222.06
995.16	222.06
995.45	222.06
995.74	222.02
996.03	222.04
996.32	222.05
996.61	222.08
996.90	222.08
997.19	222.07
997.48	222.07
997.77	222.06
998.06	222.07
998.34	222.06
998.63	222.05
998.92	222.05
999.21	222.07
999.50	222.06
999.79	222.03
1000.08	222.02
1000.37	222.02
1000.66	222.00
1000.95	222.03
1001.24	222.03
1001.53	222.05
1001.82	222.04
1002.11	222.02
1002.40	222.03
1002.68	222.05
1002.97	222.12
1003.26	222.11
1003.55	222.09
1003.84	222.10
1004.13	222.14
1004.42	222.13
1004.71	222.13
1004.99	222.13
1005.28	222.15
1005.57	222.14
1005.86	222.13
1006.15	222.13
1006.44	222.11
1006.72	222.12
1007.01	222.11
1007.30	222.11
1007.59	222.09
1007.88	222.09
1008.17	222.10
1008.45	222.07
1008.74	222.03
1009.03	221.98
1009.32	221.99
1009.60	221.99
1009.89	221.99
1010.18	221.95
1010.47	221.94
1010.76	221.94
1011.04	221.94
1011.33	221.94
1011.62	221.95
1011.91	221.96
1012.19	221.96
1012.48	221.97
1012.77	221.97
1013.05	222.01
1013.34	222.00
1013.63	222.00
1013.92	222.01
1014.20	222.00
1014.49	222.01
1014.78	222.02
1015.06	221.99
1015.35	221.99
1015.64	222.00
1015.92	222.02
1016.21	222.02
1016.50	222.03
1016.78	222.04
1017.07	222.05
1017.36	222.02
1017.64	222.01
1017.93	222.01
1018.22	222.01
1018.50	222.00
1018.79	222.00
1019.08	221.96
1019.36	221.95
1019.65	221.94
1019.93	221.97
1020.22	221.99
1020.51	222.04
1020.79	222.03
1021.08	221.85
1021.36	221.81
1021.65	221.97
1021.94	221.89
1022.22	221.90
1022.51	221.74
1022.79	222.49
1023.08	222.18
1023.36	223.26
1023.65	221.74
>>>>>End Processed Spectral Data<<<<<
