SpectraSuite Data File
++++++++++++++++++++++++++++++++++++
Date: Wed Sep 30 16:45:06 EDT 2015
User: lab3
Dark Spectrum Present: No
Reference Spectrum Present: No
Number of Sampled Component Spectra: 1
Spectrometers: USB2E7196
Integration Time (usec): 36000 (USB2E7196)
Spectra Averaged: 3000 (USB2E7196)
Boxcar Smoothing: 10 (USB2E7196)
Correct for Electrical Dark: No (USB2E7196)
Strobe/Lamp Enabled: No (USB2E7196)
Correct for Detector Non-linearity: No (USB2E7196)
Correct for Stray Light: No (USB2E7196)
Number of Pixels in Processed Spectrum: 2048
>>>>>Begin Processed Spectral Data<<<<<
339.09	0.00
339.48	210.96
339.86	212.40
340.24	213.70
340.63	215.25
341.01	218.18
341.39	217.98
341.78	219.24
342.16	220.46
342.54	220.94
342.93	209.49
343.31	220.07
343.69	220.61
344.07	221.07
344.46	221.49
344.84	221.88
345.22	222.10
345.60	222.35
345.99	222.54
346.37	222.67
346.75	222.77
347.13	222.84
347.52	222.90
347.90	222.97
348.28	223.01
348.66	223.06
349.05	223.05
349.43	223.11
349.81	223.16
350.19	223.21
350.57	223.26
350.96	223.34
351.34	223.43
351.72	223.52
352.10	223.63
352.48	223.70
352.87	223.75
353.25	223.82
353.63	223.88
354.01	223.94
354.39	224.02
354.77	224.09
355.15	224.20
355.54	224.25
355.92	224.29
356.30	224.36
356.68	224.50
357.06	224.57
357.44	224.62
357.82	224.67
358.20	224.79
358.58	224.85
358.97	224.91
359.35	224.99
359.73	225.07
360.11	225.11
360.49	225.16
360.87	225.22
361.25	225.28
361.63	225.36
362.01	225.41
362.39	225.44
362.77	225.49
363.15	225.52
363.53	225.55
363.91	225.58
364.29	225.61
364.67	225.53
365.05	225.55
365.43	225.58
365.81	225.61
366.19	225.62
366.57	225.67
366.95	225.67
367.33	225.65
367.71	225.65
368.09	225.67
368.47	225.67
368.85	225.66
369.23	225.67
369.61	225.61
369.99	225.62
370.37	225.62
370.75	225.67
371.13	225.64
371.51	225.60
371.89	225.59
372.27	225.56
372.65	225.54
373.03	225.50
373.41	225.47
373.78	225.42
374.16	225.32
374.54	225.25
374.92	225.20
375.30	225.16
375.68	225.09
376.06	225.05
376.44	225.00
376.82	224.95
377.19	224.90
377.57	224.86
377.95	224.78
378.33	224.72
378.71	224.58
379.09	224.53
379.47	224.49
379.84	224.43
380.22	224.36
380.60	224.29
380.98	224.24
381.36	224.18
381.73	224.12
382.11	224.10
382.49	224.05
382.87	223.99
383.25	223.94
383.62	224.01
384.00	223.95
384.38	223.91
384.76	223.89
385.13	223.88
385.51	223.83
385.89	223.78
386.27	223.74
386.64	223.72
387.02	223.67
387.40	223.63
387.78	223.60
388.15	223.57
388.53	223.54
388.91	223.51
389.29	223.48
389.66	223.47
390.04	223.43
390.42	223.42
390.79	223.40
391.17	223.37
391.55	223.25
391.92	223.23
392.30	223.23
392.68	223.20
393.05	223.17
393.43	223.18
393.81	223.18
394.18	223.16
394.56	223.16
394.94	223.19
395.31	223.18
395.69	223.22
396.06	223.25
396.44	223.27
396.82	223.28
397.19	223.35
397.57	223.37
397.95	223.41
398.32	223.41
398.70	223.46
399.07	223.51
399.45	223.55
399.82	223.59
400.20	223.62
400.58	223.68
400.95	223.70
401.33	223.77
401.70	223.91
402.08	224.00
402.45	224.07
402.83	224.17
403.20	224.27
403.58	224.35
403.95	224.48
404.33	224.60
404.71	224.73
405.08	224.91
405.46	225.05
405.83	225.21
406.21	225.37
406.58	225.56
406.96	225.74
407.33	225.94
407.70	226.18
408.08	226.50
408.45	226.78
408.83	227.07
409.20	227.34
409.58	227.59
409.95	227.93
410.33	228.30
410.70	228.65
411.08	229.06
411.45	229.49
411.82	229.92
412.20	230.42
412.57	231.00
412.95	231.47
413.32	232.08
413.69	232.69
414.07	233.36
414.44	234.08
414.82	234.81
415.19	235.68
415.56	236.54
415.94	237.45
416.31	238.46
416.68	239.48
417.06	240.66
417.43	241.77
417.81	243.05
418.18	244.34
418.55	245.75
418.93	247.21
419.30	248.74
419.67	250.38
420.04	252.07
420.42	253.82
420.79	255.86
421.16	257.90
421.54	259.99
421.91	262.16
422.28	264.42
422.66	266.86
423.03	269.17
423.40	271.62
423.77	274.23
424.15	276.90
424.52	279.69
424.89	282.70
425.26	285.70
425.64	288.47
426.01	291.61
426.38	294.82
426.75	298.12
427.13	301.50
427.50	305.02
427.87	308.70
428.24	312.42
428.61	315.97
428.99	319.80
429.36	324.01
429.73	328.03
430.10	332.03
430.47	336.13
430.85	340.34
431.22	344.83
431.59	349.43
431.96	353.92
432.33	358.88
432.70	363.60
433.08	369.16
433.45	374.43
433.82	379.59
434.19	385.36
434.56	391.04
434.93	396.50
435.30	401.90
435.68	407.96
436.05	413.90
436.42	419.84
436.79	425.25
437.16	431.08
437.53	437.34
437.90	443.58
438.27	449.67
438.64	456.28
439.01	462.25
439.38	467.70
439.75	472.98
440.13	478.98
440.50	484.70
440.87	489.20
441.24	494.15
441.61	499.63
441.98	503.64
442.35	508.40
442.72	513.31
443.09	517.99
443.46	521.03
443.83	523.29
444.20	525.18
444.57	527.95
444.94	529.60
445.31	531.31
445.68	532.86
446.05	534.03
446.42	533.91
446.79	533.70
447.16	533.53
447.53	533.43
447.90	531.71
448.27	530.13
448.64	527.57
449.01	525.91
449.37	522.19
449.74	518.81
450.11	514.46
450.48	509.66
450.85	504.82
451.22	500.73
451.59	496.71
451.96	493.08
452.33	487.71
452.70	482.95
453.07	477.12
453.43	471.26
453.80	465.59
454.17	460.16
454.54	455.12
454.91	449.41
455.28	444.03
455.65	438.97
456.02	433.55
456.38	429.19
456.75	423.54
457.12	419.00
457.49	414.41
457.86	410.03
458.23	406.19
458.59	401.95
458.96	397.59
459.33	393.74
459.70	389.83
460.07	386.84
460.43	383.32
460.80	380.02
461.17	377.12
461.54	373.99
461.91	371.05
462.27	368.07
462.64	365.63
463.01	362.84
463.38	360.01
463.74	357.43
464.11	355.15
464.48	353.09
464.85	350.89
465.21	349.19
465.58	347.33
465.95	345.17
466.32	343.44
466.68	341.75
467.05	340.06
467.42	338.41
467.78	336.64
468.15	335.00
468.52	333.79
468.88	332.18
469.25	330.71
469.62	329.55
469.98	328.28
470.35	327.16
470.72	326.14
471.08	325.11
471.45	324.26
471.82	323.32
472.18	322.33
472.55	321.69
472.92	320.91
473.28	320.30
473.65	319.67
474.02	319.07
474.38	318.56
474.75	318.28
475.11	317.87
475.48	317.72
475.85	317.55
476.21	317.49
476.58	317.49
476.94	317.67
477.31	317.78
477.67	317.91
478.04	318.16
478.41	318.49
478.77	318.93
479.14	319.25
479.50	319.79
479.87	320.47
480.23	321.15
480.60	321.79
480.96	322.47
481.33	323.40
481.69	324.33
482.06	325.26
482.42	326.14
482.79	327.19
483.15	328.40
483.52	329.76
483.88	331.08
484.25	332.48
484.61	333.93
484.98	335.50
485.34	337.26
485.71	339.08
486.07	341.01
486.44	342.94
486.80	345.10
487.17	347.30
487.53	349.72
487.90	352.24
488.26	354.98
488.62	357.86
488.99	360.74
489.35	363.76
489.72	367.01
490.08	370.43
490.44	373.94
490.81	377.60
491.17	381.38
491.54	385.41
491.90	389.53
492.26	393.96
492.63	398.63
492.99	403.50
493.36	408.49
493.72	413.74
494.08	419.14
494.45	424.83
494.81	430.72
495.17	436.72
495.54	443.07
495.90	449.73
496.26	456.52
496.63	463.57
496.99	470.88
497.35	478.56
497.72	486.53
498.08	494.66
498.44	503.05
498.80	511.96
499.17	521.08
499.53	530.53
499.89	540.22
500.26	550.11
500.62	560.24
500.98	571.04
501.34	581.97
501.71	593.43
502.07	605.10
502.43	617.20
502.79	629.62
503.16	642.43
503.52	655.41
503.88	668.74
504.24	682.50
504.60	696.52
504.97	710.92
505.33	725.73
505.69	741.43
506.05	757.31
506.41	773.24
506.78	789.48
507.14	806.21
507.50	823.47
507.86	841.10
508.22	858.98
508.59	876.92
508.95	895.57
509.31	914.65
509.67	934.43
510.03	954.42
510.39	974.63
510.75	995.04
511.12	1015.73
511.48	1036.77
511.84	1057.96
512.20	1079.46
512.56	1102.08
512.92	1124.83
513.28	1147.28
513.64	1170.09
514.00	1193.30
514.37	1216.81
514.73	1240.33
515.09	1263.72
515.45	1287.50
515.81	1311.87
516.17	1336.27
516.53	1360.36
516.89	1384.57
517.25	1408.93
517.61	1433.49
517.97	1458.28
518.33	1482.91
518.69	1507.74
519.05	1532.80
519.41	1557.93
519.77	1583.37
520.13	1608.06
520.49	1632.95
520.85	1658.02
521.21	1682.95
521.57	1708.52
521.93	1733.37
522.29	1759.00
522.65	1784.45
523.01	1809.72
523.37	1834.16
523.73	1859.32
524.09	1884.73
524.45	1909.94
524.81	1934.72
525.17	1959.33
525.53	1983.60
525.89	2007.81
526.25	2032.17
526.61	2055.97
526.97	2080.11
527.33	2104.16
527.68	2128.02
528.04	2151.13
528.40	2174.10
528.76	2197.27
529.12	2219.37
529.48	2241.98
529.84	2262.81
530.20	2284.07
530.56	2305.02
530.91	2326.15
531.27	2346.74
531.63	2366.66
531.99	2386.06
532.35	2405.30
532.71	2424.73
533.07	2444.62
533.42	2463.01
533.78	2481.80
534.14	2500.55
534.50	2518.46
534.86	2536.97
535.21	2553.70
535.57	2570.28
535.93	2586.15
536.29	2600.76
536.65	2616.16
537.00	2630.48
537.36	2645.46
537.72	2659.42
538.08	2673.09
538.44	2685.67
538.79	2698.43
539.15	2709.40
539.51	2720.23
539.87	2730.50
540.22	2738.63
540.58	2747.00
540.94	2755.93
541.29	2763.34
541.65	2769.84
542.01	2775.82
542.37	2779.96
542.72	2786.00
543.08	2791.47
543.44	2796.80
543.79	2801.59
544.15	2805.44
544.51	2809.11
544.87	2811.82
545.22	2814.18
545.58	2815.52
545.94	2817.34
546.29	2817.68
546.65	2818.16
547.01	2818.78
547.36	2819.61
547.72	2820.73
548.07	2820.24
548.43	2819.15
548.79	2817.41
549.14	2815.66
549.50	2814.52
549.86	2812.40
550.21	2808.01
550.57	2804.13
550.92	2798.81
551.28	2794.01
551.64	2789.08
551.99	2784.55
552.35	2779.64
552.70	2774.24
553.06	2769.48
553.41	2764.15
553.77	2758.27
554.13	2753.17
554.48	2747.09
554.84	2739.46
555.19	2731.87
555.55	2723.65
555.90	2715.97
556.26	2709.39
556.61	2702.17
556.97	2692.76
557.32	2684.51
557.68	2676.38
558.03	2667.66
558.39	2659.76
558.74	2651.89
559.10	2642.97
559.45	2633.63
559.81	2624.43
560.16	2614.70
560.52	2604.56
560.87	2595.46
561.23	2585.97
561.58	2576.07
561.94	2566.04
562.29	2555.34
562.64	2545.18
563.00	2535.45
563.35	2525.60
563.71	2514.65
564.06	2503.35
564.42	2493.05
564.77	2482.29
565.12	2471.61
565.48	2460.57
565.83	2450.19
566.19	2439.94
566.54	2429.13
566.89	2417.60
567.25	2406.18
567.60	2395.52
567.96	2384.43
568.31	2372.02
568.66	2359.60
569.02	2348.14
569.37	2336.43
569.72	2325.35
570.08	2313.50
570.43	2301.09
570.78	2288.27
571.14	2275.52
571.49	2263.38
571.84	2251.48
572.20	2238.20
572.55	2225.53
572.90	2212.72
573.26	2199.04
573.61	2184.77
573.96	2170.78
574.31	2157.04
574.67	2143.50
575.02	2129.44
575.37	2115.06
575.72	2100.98
576.08	2087.29
576.43	2072.57
576.78	2057.86
577.13	2043.96
577.49	2030.22
577.84	2016.87
578.19	2002.77
578.54	1988.22
578.90	1973.11
579.25	1957.83
579.60	1944.04
579.95	1929.78
580.30	1915.61
580.66	1901.66
581.01	1887.21
581.36	1873.24
581.71	1859.89
582.06	1846.02
582.42	1832.32
582.77	1819.28
583.12	1805.75
583.47	1792.39
583.82	1779.14
584.17	1765.77
584.53	1752.25
584.88	1738.74
585.23	1724.86
585.58	1711.52
585.93	1698.48
586.28	1686.35
586.63	1673.94
586.98	1660.75
587.34	1647.81
587.69	1634.44
588.04	1621.31
588.39	1608.86
588.74	1595.81
589.09	1582.52
589.44	1569.28
589.79	1556.54
590.14	1543.67
590.49	1531.05
590.84	1518.29
591.19	1506.10
591.54	1493.50
591.89	1480.71
592.25	1468.23
592.60	1455.40
592.95	1443.06
593.30	1431.12
593.65	1418.95
594.00	1407.07
594.35	1395.93
594.70	1383.88
595.05	1372.80
595.40	1361.57
595.75	1349.81
596.10	1338.89
596.45	1328.21
596.80	1317.90
597.15	1307.39
597.50	1296.87
597.85	1286.53
598.19	1276.39
598.54	1265.76
598.89	1255.81
599.24	1246.14
599.59	1236.24
599.94	1227.35
600.29	1218.35
600.64	1209.14
600.99	1199.30
601.34	1189.88
601.69	1179.95
602.04	1171.17
602.39	1162.30
602.74	1153.66
603.08	1145.26
603.43	1136.34
603.78	1127.26
604.13	1118.33
604.48	1109.32
604.83	1100.62
605.18	1091.82
605.53	1082.95
605.87	1074.12
606.22	1065.57
606.57	1056.77
606.92	1047.97
607.27	1039.08
607.62	1030.32
607.96	1021.72
608.31	1014.19
608.66	1006.26
609.01	998.70
609.36	991.03
609.70	983.12
610.05	975.07
610.40	967.35
610.75	959.75
611.10	952.39
611.44	944.69
611.79	937.29
612.14	929.48
612.49	921.84
612.83	914.69
613.18	907.62
613.53	900.39
613.88	893.27
614.22	886.79
614.57	880.05
614.92	873.28
615.27	866.57
615.61	859.66
615.96	853.00
616.31	846.25
616.65	839.44
617.00	832.86
617.35	826.37
617.70	819.94
618.04	813.61
618.39	807.29
618.74	801.29
619.08	795.12
619.43	789.22
619.78	783.32
620.12	777.24
620.47	771.35
620.82	765.49
621.16	759.95
621.51	754.05
621.85	748.17
622.20	742.34
622.55	736.66
622.89	730.90
623.24	725.19
623.59	719.59
623.93	714.04
624.28	708.67
624.62	703.27
624.97	697.82
625.32	692.50
625.66	687.07
626.01	681.61
626.35	676.31
626.70	671.05
627.04	665.98
627.39	660.96
627.73	656.05
628.08	651.36
628.43	646.50
628.77	641.69
629.12	637.04
629.46	632.59
629.81	627.95
630.15	623.25
630.50	618.68
630.84	614.30
631.19	610.07
631.53	605.87
631.88	601.60
632.22	597.42
632.57	593.46
632.91	589.44
633.26	585.51
633.60	581.66
633.95	577.93
634.29	574.03
634.64	570.10
634.98	566.07
635.32	562.20
635.67	558.50
636.01	554.77
636.36	551.04
636.70	547.47
637.05	543.90
637.39	540.50
637.73	536.96
638.08	533.51
638.42	530.03
638.77	526.43
639.11	522.79
639.45	519.19
639.80	515.59
640.14	512.17
640.49	508.72
640.83	505.16
641.17	501.64
641.52	498.28
641.86	494.93
642.20	491.74
642.55	488.41
642.89	485.15
643.23	482.10
643.58	479.29
643.92	476.34
644.26	473.42
644.61	470.48
644.95	467.56
645.29	464.58
645.64	461.56
645.98	458.68
646.32	456.00
646.66	453.32
647.01	450.59
647.35	447.94
647.69	445.18
648.04	442.54
648.38	439.95
648.72	437.30
649.06	434.72
649.41	432.19
649.75	429.67
650.09	427.15
650.43	424.63
650.78	422.10
651.12	419.55
651.46	417.10
651.80	414.76
652.14	412.49
652.49	410.23
652.83	408.04
653.17	405.83
653.51	403.68
653.85	401.60
654.20	399.46
654.54	397.22
654.88	395.18
655.22	393.20
655.56	391.18
655.90	389.27
656.25	387.37
656.59	385.45
656.93	383.64
657.27	381.87
657.61	380.01
657.95	378.20
658.29	376.40
658.64	374.61
658.98	372.81
659.32	371.05
659.66	369.40
660.00	367.74
660.34	366.13
660.68	364.46
661.02	362.72
661.36	361.12
661.70	359.58
662.05	358.01
662.39	356.42
662.73	354.93
663.07	353.45
663.41	352.01
663.75	350.61
664.09	349.19
664.43	347.69
664.77	346.30
665.11	344.85
665.45	343.48
665.79	342.12
666.13	340.75
666.47	339.35
666.81	337.93
667.15	336.47
667.49	335.10
667.83	333.79
668.17	332.52
668.51	331.26
668.85	330.02
669.19	328.86
669.53	327.63
669.87	326.37
670.21	325.15
670.55	323.93
670.89	322.78
671.23	321.61
671.57	320.45
671.91	319.33
672.25	318.28
672.58	317.23
672.92	316.15
673.26	315.14
673.60	314.15
673.94	313.13
674.28	312.18
674.62	311.23
674.96	310.24
675.30	309.30
675.64	308.35
675.97	307.41
676.31	306.43
676.65	305.48
676.99	304.61
677.33	303.67
677.67	302.79
678.01	301.82
678.34	300.93
678.68	300.09
679.02	299.22
679.36	298.36
679.70	297.49
680.04	296.65
680.37	295.81
680.71	294.99
681.05	294.23
681.39	293.42
681.73	292.60
682.06	291.80
682.40	291.03
682.74	290.27
683.08	289.53
683.42	288.78
683.75	288.10
684.09	287.33
684.43	286.62
684.77	285.90
685.10	285.22
685.44	284.53
685.78	283.83
686.12	283.17
686.45	282.49
686.79	281.82
687.13	281.17
687.46	280.48
687.80	279.83
688.14	279.13
688.48	278.51
688.81	277.86
689.15	277.26
689.49	276.63
689.82	276.01
690.16	275.34
690.50	274.73
690.83	274.11
691.17	273.51
691.51	272.93
691.84	272.37
692.18	271.77
692.52	271.16
692.85	270.58
693.19	270.05
693.52	269.49
693.86	268.94
694.20	268.40
694.53	267.88
694.87	267.34
695.21	266.83
695.54	266.31
695.88	265.78
696.21	265.22
696.55	264.70
696.88	264.19
697.22	263.71
697.56	263.21
697.89	262.67
698.23	262.17
698.56	261.65
698.90	261.18
699.23	260.69
699.57	260.24
699.90	259.78
700.24	259.27
700.58	258.83
700.91	258.41
701.25	258.04
701.58	257.65
701.92	257.25
702.25	256.83
702.59	256.40
702.92	256.00
703.26	255.61
703.59	255.22
703.93	254.91
704.26	254.53
704.60	254.15
704.93	253.78
705.26	253.41
705.60	253.07
705.93	252.69
706.27	252.37
706.60	252.04
706.94	251.72
707.27	251.35
707.61	250.98
707.94	250.61
708.27	250.18
708.61	249.80
708.94	249.44
709.28	249.11
709.61	248.78
709.94	248.48
710.28	248.17
710.61	247.88
710.95	247.49
711.28	247.25
711.61	246.95
711.95	246.69
712.28	246.40
712.61	246.09
712.95	245.88
713.28	245.64
713.61	245.35
713.95	245.05
714.28	244.81
714.61	244.55
714.95	244.29
715.28	244.03
715.61	243.78
715.95	243.54
716.28	243.29
716.61	243.07
716.95	242.82
717.28	242.59
717.61	242.35
717.94	242.12
718.28	241.83
718.61	241.61
718.94	241.37
719.27	241.15
719.61	240.95
719.94	240.71
720.27	240.45
720.60	240.24
720.94	240.04
721.27	239.85
721.60	239.68
721.93	239.49
722.27	239.33
722.60	239.15
722.93	238.95
723.26	238.78
723.59	238.57
723.93	238.41
724.26	238.24
724.59	238.07
724.92	237.90
725.25	237.76
725.59	237.59
725.92	237.45
726.25	237.30
726.58	237.13
726.91	236.96
727.24	236.82
727.57	236.66
727.91	236.49
728.24	236.35
728.57	236.19
728.90	236.05
729.23	235.87
729.56	235.77
729.89	235.62
730.22	235.47
730.55	235.33
730.89	235.18
731.22	235.03
731.55	234.89
731.88	234.76
732.21	234.60
732.54	234.48
732.87	234.35
733.20	234.23
733.53	234.11
733.86	234.00
734.19	233.87
734.52	233.77
734.85	233.73
735.18	233.59
735.51	233.50
735.84	233.39
736.17	233.30
736.50	233.14
736.83	233.16
737.16	233.07
737.49	232.97
737.82	232.88
738.15	232.79
738.48	232.69
738.81	232.59
739.14	232.48
739.47	232.37
739.80	232.27
740.13	232.17
740.46	232.07
740.79	231.95
741.12	231.85
741.45	231.74
741.78	231.59
742.11	231.52
742.44	231.41
742.77	231.32
743.10	231.22
743.43	231.13
743.75	230.92
744.08	230.99
744.41	230.89
744.74	230.79
745.07	230.69
745.40	230.62
745.73	230.58
746.06	230.50
746.39	230.43
746.71	230.34
747.04	230.25
747.37	230.17
747.70	230.11
748.03	230.04
748.36	229.98
748.68	229.91
749.01	229.81
749.34	229.74
749.67	229.68
750.00	229.62
750.33	229.63
750.65	229.58
750.98	229.36
751.31	229.29
751.64	229.23
751.97	229.22
752.29	229.14
752.62	229.02
752.95	228.95
753.28	228.86
753.60	228.80
753.93	228.76
754.26	228.71
754.59	228.61
754.91	228.53
755.24	228.45
755.57	228.43
755.90	228.37
756.22	228.29
756.55	228.21
756.88	228.12
757.20	227.99
757.53	227.90
757.86	227.84
758.19	227.79
758.51	227.73
758.84	227.62
759.17	227.57
759.49	227.52
759.82	227.52
760.15	227.49
760.47	227.44
760.80	227.36
761.13	227.33
761.45	227.29
761.78	227.25
762.11	227.21
762.43	227.11
762.76	227.07
763.08	227.03
763.41	227.00
763.74	226.96
764.06	226.91
764.39	226.87
764.71	226.83
765.04	226.78
765.37	226.72
765.69	226.68
766.02	226.63
766.34	226.58
766.67	226.50
767.00	226.47
767.32	226.49
767.65	226.52
767.97	226.46
768.30	226.42
768.62	226.38
768.95	226.32
769.27	226.28
769.60	226.25
769.92	226.19
770.25	226.14
770.57	226.09
770.90	226.06
771.22	226.01
771.55	225.99
771.87	225.96
772.20	225.93
772.52	225.99
772.85	226.08
773.17	226.06
773.50	226.02
773.82	225.97
774.15	225.89
774.47	225.78
774.80	225.74
775.12	225.71
775.45	225.68
775.77	225.67
776.09	225.65
776.42	225.63
776.74	225.65
777.07	225.62
777.39	225.60
777.72	225.57
778.04	225.56
778.36	225.52
778.69	225.50
779.01	225.48
779.33	225.37
779.66	225.22
779.98	225.19
780.31	225.17
780.63	225.19
780.95	225.19
781.28	225.17
781.60	225.14
781.92	225.12
782.25	225.10
782.57	225.07
782.89	225.04
783.22	225.01
783.54	224.97
783.86	224.95
784.19	224.93
784.51	224.94
784.83	224.91
785.16	224.89
785.48	224.87
785.80	224.86
786.12	224.85
786.45	224.83
786.77	224.83
787.09	224.80
787.42	224.75
787.74	224.73
788.06	224.71
788.38	224.70
788.71	224.67
789.03	224.66
789.35	224.66
789.67	224.63
789.99	224.62
790.32	224.60
790.64	224.59
790.96	224.67
791.28	224.62
791.61	224.59
791.93	224.58
792.25	224.56
792.57	224.61
792.89	224.58
793.21	224.57
793.54	224.54
793.86	224.52
794.18	224.50
794.50	224.47
794.82	224.46
795.14	224.45
795.47	224.46
795.79	224.45
796.11	224.42
796.43	224.41
796.75	224.39
797.07	224.38
797.39	224.36
797.71	224.27
798.04	224.27
798.36	224.27
798.68	224.26
799.00	224.26
799.32	224.20
799.64	224.21
799.96	224.20
800.28	224.21
800.60	224.20
800.92	224.20
801.24	224.18
801.56	224.18
801.89	224.16
802.21	224.15
802.53	224.12
802.85	224.14
803.17	224.17
803.49	224.14
803.81	224.12
804.13	224.10
804.45	224.08
804.77	224.07
805.09	224.05
805.41	224.03
805.73	224.01
806.05	223.96
806.37	223.95
806.69	223.92
807.01	223.90
807.33	223.90
807.65	223.85
807.97	223.88
808.28	223.87
808.60	223.85
808.92	223.83
809.24	223.88
809.56	223.85
809.88	223.81
810.20	223.81
810.52	223.83
810.84	223.81
811.16	223.79
811.48	223.77
811.80	223.80
812.12	223.79
812.43	223.80
812.75	223.80
813.07	223.78
813.39	223.78
813.71	223.77
814.03	223.75
814.35	223.75
814.67	223.71
814.98	223.70
815.30	223.70
815.62	223.67
815.94	223.60
816.26	223.61
816.58	223.59
816.89	223.59
817.21	223.56
817.53	223.56
817.85	223.57
818.17	223.56
818.48	223.51
818.80	223.53
819.12	223.51
819.44	223.48
819.76	223.47
820.07	223.46
820.39	223.45
820.71	223.45
821.03	223.44
821.34	223.44
821.66	223.44
821.98	223.44
822.30	223.43
822.61	223.49
822.93	223.46
823.25	223.46
823.57	223.44
823.88	223.45
824.20	223.44
824.52	223.46
824.83	223.45
825.15	223.44
825.47	223.43
825.79	223.43
826.10	223.43
826.42	223.42
826.74	223.42
827.05	223.42
827.37	223.42
827.69	223.41
828.00	223.40
828.32	223.40
828.64	223.38
828.95	223.44
829.27	223.40
829.58	223.40
829.90	223.41
830.22	223.42
830.53	223.41
830.85	223.40
831.17	223.36
831.48	223.36
831.80	223.36
832.11	223.35
832.43	223.32
832.75	223.32
833.06	223.38
833.38	223.36
833.69	223.35
834.01	223.36
834.32	223.35
834.64	223.35
834.96	223.34
835.27	223.34
835.59	223.31
835.90	223.29
836.22	223.28
836.53	223.26
836.85	223.24
837.16	223.35
837.48	223.34
837.79	223.38
838.11	223.38
838.42	223.37
838.74	223.39
839.05	223.38
839.37	223.38
839.68	223.32
840.00	223.31
840.31	223.32
840.63	223.31
840.94	223.29
841.26	223.28
841.57	223.27
841.88	223.28
842.20	223.26
842.51	223.24
842.83	223.24
843.14	223.33
843.46	223.32
843.77	223.26
844.08	223.25
844.40	223.22
844.71	223.21
845.03	223.20
845.34	223.19
845.65	223.18
845.97	223.18
846.28	223.18
846.60	223.19
846.91	223.17
847.22	223.16
847.54	223.18
847.85	223.19
848.16	223.18
848.48	223.17
848.79	223.20
849.10	223.22
849.42	223.22
849.73	223.12
850.04	223.12
850.36	223.08
850.67	223.10
850.98	223.10
851.30	223.11
851.61	223.10
851.92	223.09
852.23	223.13
852.55	223.13
852.86	223.13
853.17	223.13
853.49	223.15
853.80	223.17
854.11	223.18
854.42	223.19
854.74	223.18
855.05	223.18
855.36	223.12
855.67	223.12
855.99	223.12
856.30	223.24
856.61	223.23
856.92	223.24
857.23	223.23
857.55	223.23
857.86	223.21
858.17	223.23
858.48	223.22
858.79	223.20
859.11	223.21
859.42	223.20
859.73	223.18
860.04	223.18
860.35	223.15
860.66	223.11
860.98	223.10
861.29	223.11
861.60	223.10
861.91	223.13
862.22	223.11
862.53	223.09
862.84	222.97
863.16	223.00
863.47	222.98
863.78	222.96
864.09	222.96
864.40	222.97
864.71	222.97
865.02	222.98
865.33	222.96
865.64	222.94
865.95	222.94
866.27	223.00
866.58	222.99
866.89	223.00
867.20	223.00
867.51	222.98
867.82	222.98
868.13	223.01
868.44	222.98
868.75	223.00
869.06	223.01
869.37	223.02
869.68	222.99
869.99	223.01
870.30	223.02
870.61	223.03
870.92	223.01
871.23	223.00
871.54	223.01
871.85	223.04
872.16	223.05
872.47	223.03
872.78	222.98
873.09	222.99
873.40	222.98
873.71	222.98
874.02	222.99
874.33	222.99
874.64	222.97
874.95	222.99
875.26	222.97
875.56	222.96
875.87	222.96
876.18	222.96
876.49	223.06
876.80	223.05
877.11	223.03
877.42	223.02
877.73	223.03
878.04	223.01
878.35	223.01
878.66	223.01
878.96	223.01
879.27	223.00
879.58	222.99
879.89	222.99
880.20	223.02
880.51	223.01
880.82	223.01
881.12	223.01
881.43	222.98
881.74	222.98
882.05	222.97
882.36	222.97
882.67	222.98
882.97	222.87
883.28	222.86
883.59	222.86
883.90	222.87
884.21	222.88
884.51	222.88
884.82	222.86
885.13	222.86
885.44	222.86
885.74	222.86
886.05	222.86
886.36	222.86
886.67	222.82
886.98	222.88
887.28	222.89
887.59	222.89
887.90	222.90
888.20	222.89
888.51	222.92
888.82	222.90
889.13	222.91
889.43	223.00
889.74	223.00
890.05	223.00
890.35	222.99
890.66	222.97
890.97	222.96
891.28	222.95
891.58	222.95
891.89	222.95
892.20	222.94
892.50	222.94
892.81	222.93
893.12	222.93
893.42	222.87
893.73	222.88
894.04	222.87
894.34	222.88
894.65	222.88
894.95	222.86
895.26	222.87
895.57	222.91
895.87	222.80
896.18	222.82
896.48	222.82
896.79	222.82
897.10	222.83
897.40	222.84
897.71	222.86
898.01	222.85
898.32	222.86
898.63	222.85
898.93	222.86
899.24	222.87
899.54	222.87
899.85	222.86
900.15	222.85
900.46	222.85
900.76	222.86
901.07	222.86
901.38	222.86
901.68	222.87
901.99	222.81
902.29	222.82
902.60	222.81
902.90	222.81
903.21	222.81
903.51	222.80
903.82	222.81
904.12	222.82
904.43	222.82
904.73	222.81
905.03	222.82
905.34	222.91
905.64	222.91
905.95	222.91
906.25	222.91
906.56	222.91
906.86	222.90
907.17	222.89
907.47	222.89
907.77	222.88
908.08	222.86
908.38	222.86
908.69	222.86
908.99	222.88
909.30	222.89
909.60	222.89
909.90	222.89
910.21	222.86
910.51	222.85
910.81	222.84
911.12	222.85
911.42	222.85
911.73	222.74
912.03	222.74
912.33	222.76
912.64	222.75
912.94	222.75
913.24	222.73
913.55	222.72
913.85	222.71
914.15	222.74
914.46	222.75
914.76	222.74
915.06	222.73
915.37	222.72
915.67	222.71
915.97	222.71
916.27	222.69
916.58	222.70
916.88	222.70
917.18	222.69
917.49	222.75
917.79	222.75
918.09	222.77
918.39	222.79
918.70	222.77
919.00	222.78
919.30	222.83
919.60	222.82
919.91	222.82
920.21	222.82
920.51	222.80
920.81	222.79
921.12	222.80
921.42	222.80
921.72	222.80
922.02	222.80
922.32	222.82
922.63	222.82
922.93	222.87
923.23	222.88
923.53	222.87
923.83	222.80
924.13	222.81
924.44	222.81
924.74	222.83
925.04	222.85
925.34	222.85
925.64	222.81
925.94	222.82
926.24	222.88
926.55	222.87
926.85	222.88
927.15	222.88
927.45	222.88
927.75	222.89
928.05	222.89
928.35	222.89
928.65	222.91
928.95	222.92
929.26	222.88
929.56	222.90
929.86	222.91
930.16	222.91
930.46	222.90
930.76	222.90
931.06	222.84
931.36	222.81
931.66	222.82
931.96	222.83
932.26	222.84
932.56	222.79
932.86	222.80
933.16	222.80
933.46	222.80
933.76	222.78
934.06	222.80
934.36	222.83
934.66	222.82
934.96	222.80
935.26	222.80
935.56	222.81
935.86	222.78
936.16	222.76
936.46	222.75
936.76	222.75
937.06	222.73
937.36	222.74
937.66	222.75
937.96	222.74
938.26	222.73
938.56	222.71
938.86	222.71
939.16	222.74
939.46	222.74
939.76	222.75
940.06	222.76
940.35	222.73
940.65	222.68
940.95	222.69
941.25	222.67
941.55	222.65
941.85	222.64
942.15	222.66
942.45	222.70
942.75	222.70
943.04	222.70
943.34	222.72
943.64	222.70
943.94	222.69
944.24	222.69
944.54	222.69
944.84	222.69
945.13	222.67
945.43	222.65
945.73	222.64
946.03	222.63
946.33	222.62
946.62	222.61
946.92	222.61
947.22	222.62
947.52	222.63
947.82	222.65
948.11	222.64
948.41	222.62
948.71	222.58
949.01	222.59
949.31	222.58
949.60	222.58
949.90	222.60
950.20	222.59
950.50	222.58
950.79	222.58
951.09	222.59
951.39	222.59
951.69	222.58
951.98	222.60
952.28	222.61
952.58	222.61
952.87	222.61
953.17	222.62
953.47	222.60
953.76	222.59
954.06	222.57
954.36	222.56
954.66	222.57
954.95	222.60
955.25	222.60
955.55	222.61
955.84	222.59
956.14	222.59
956.44	222.61
956.73	222.59
957.03	222.59
957.32	222.60
957.62	222.59
957.92	222.61
958.21	222.59
958.51	222.71
958.81	222.73
959.10	222.74
959.40	222.75
959.69	222.77
959.99	222.78
960.29	222.78
960.58	222.78
960.88	222.81
961.17	222.80
961.47	222.82
961.76	222.80
962.06	222.82
962.36	222.81
962.65	222.81
962.95	222.83
963.24	222.82
963.54	222.82
963.83	222.83
964.13	222.83
964.42	222.82
964.72	222.72
965.01	222.72
965.31	222.72
965.60	222.69
965.90	222.75
966.19	222.73
966.49	222.73
966.78	222.73
967.08	222.73
967.37	222.72
967.67	222.70
967.96	222.72
968.26	222.71
968.55	222.73
968.85	222.72
969.14	222.71
969.43	222.71
969.73	222.71
970.02	222.70
970.32	222.69
970.61	222.67
970.91	222.64
971.20	222.63
971.49	222.61
971.79	222.62
972.08	222.54
972.38	222.56
972.67	222.55
972.96	222.57
973.26	222.55
973.55	222.57
973.85	222.57
974.14	222.54
974.43	222.55
974.73	222.52
975.02	222.52
975.31	222.51
975.61	222.51
975.90	222.50
976.19	222.49
976.49	222.50
976.78	222.51
977.07	222.51
977.37	222.52
977.66	222.53
977.95	222.52
978.24	222.52
978.54	222.54
978.83	222.53
979.12	222.52
979.42	222.52
979.71	222.50
980.00	222.50
980.29	222.51
980.59	222.49
980.88	222.52
981.17	222.52
981.46	222.52
981.76	222.52
982.05	222.56
982.34	222.56
982.63	222.57
982.93	222.56
983.22	222.59
983.51	222.59
983.80	222.60
984.09	222.62
984.39	222.61
984.68	222.60
984.97	222.61
985.26	222.60
985.55	222.61
985.85	222.59
986.14	222.60
986.43	222.62
986.72	222.61
987.01	222.58
987.30	222.59
987.59	222.59
987.89	222.59
988.18	222.56
988.47	222.55
988.76	222.54
989.05	222.53
989.34	222.51
989.63	222.54
989.92	222.52
990.22	222.51
990.51	222.51
990.80	222.50
991.09	222.51
991.38	222.52
991.67	222.51
991.96	222.49
992.25	222.49
992.54	222.48
992.83	222.48
993.12	222.47
993.41	222.48
993.70	222.52
993.99	222.54
994.28	222.55
994.58	222.57
994.87	222.55
995.16	222.55
995.45	222.55
995.74	222.51
996.03	222.53
996.32	222.54
996.61	222.56
996.90	222.56
997.19	222.56
997.48	222.56
997.77	222.55
998.06	222.57
998.34	222.55
998.63	222.56
998.92	222.56
999.21	222.59
999.50	222.59
999.79	222.55
1000.08	222.54
1000.37	222.55
1000.66	222.53
1000.95	222.56
1001.24	222.58
1001.53	222.59
1001.82	222.59
1002.11	222.57
1002.40	222.57
1002.68	222.59
1002.97	222.67
1003.26	222.65
1003.55	222.64
1003.84	222.65
1004.13	222.68
1004.42	222.67
1004.71	222.67
1004.99	222.67
1005.28	222.68
1005.57	222.67
1005.86	222.67
1006.15	222.66
1006.44	222.64
1006.72	222.65
1007.01	222.63
1007.30	222.62
1007.59	222.61
1007.88	222.61
1008.17	222.61
1008.45	222.60
1008.74	222.55
1009.03	222.50
1009.32	222.51
1009.60	222.51
1009.89	222.50
1010.18	222.46
1010.47	222.46
1010.76	222.46
1011.04	222.46
1011.33	222.47
1011.62	222.47
1011.91	222.48
1012.19	222.48
1012.48	222.49
1012.77	222.49
1013.05	222.53
1013.34	222.53
1013.63	222.52
1013.92	222.53
1014.20	222.53
1014.49	222.54
1014.78	222.55
1015.06	222.52
1015.35	222.52
1015.64	222.54
1015.92	222.55
1016.21	222.56
1016.50	222.57
1016.78	222.57
1017.07	222.59
1017.36	222.57
1017.64	222.55
1017.93	222.56
1018.22	222.55
1018.50	222.55
1018.79	222.55
1019.08	222.51
1019.36	222.52
1019.65	222.51
1019.93	222.54
1020.22	222.55
1020.51	222.60
1020.79	222.59
1021.08	222.45
1021.36	222.39
1021.65	222.44
1021.94	222.47
1022.22	222.57
1022.51	222.28
1022.79	223.04
1023.08	222.63
1023.36	223.80
1023.65	222.36
>>>>>End Processed Spectral Data<<<<<
