SpectraSuite Data File
++++++++++++++++++++++++++++++++++++
Date: Wed Sep 30 18:21:07 EDT 2015
User: lab3
Dark Spectrum Present: No
Reference Spectrum Present: No
Number of Sampled Component Spectra: 1
Spectrometers: USB2E7196
Integration Time (usec): 36000 (USB2E7196)
Spectra Averaged: 3000 (USB2E7196)
Boxcar Smoothing: 10 (USB2E7196)
Correct for Electrical Dark: No (USB2E7196)
Strobe/Lamp Enabled: No (USB2E7196)
Correct for Detector Non-linearity: No (USB2E7196)
Correct for Stray Light: No (USB2E7196)
Number of Pixels in Processed Spectrum: 2048
>>>>>Begin Processed Spectral Data<<<<<
339.09	0.00
339.48	210.79
339.86	212.17
340.24	213.58
340.63	215.03
341.01	217.85
341.39	217.71
341.78	219.06
342.16	220.21
342.54	220.72
342.93	209.29
343.31	219.88
343.69	220.41
344.07	220.87
344.46	221.30
344.84	221.69
345.22	221.92
345.60	222.17
345.99	222.37
346.37	222.50
346.75	222.61
347.13	222.68
347.52	222.75
347.90	222.82
348.28	222.86
348.66	222.92
349.05	222.91
349.43	222.96
349.81	223.02
350.19	223.08
350.57	223.15
350.96	223.22
351.34	223.31
351.72	223.40
352.10	223.52
352.48	223.59
352.87	223.64
353.25	223.71
353.63	223.78
354.01	223.84
354.39	223.92
354.77	224.00
355.15	224.10
355.54	224.16
355.92	224.20
356.30	224.28
356.68	224.41
357.06	224.49
357.44	224.54
357.82	224.59
358.20	224.70
358.58	224.76
358.97	224.82
359.35	224.89
359.73	224.98
360.11	225.03
360.49	225.09
360.87	225.14
361.25	225.20
361.63	225.28
362.01	225.33
362.39	225.37
362.77	225.42
363.15	225.44
363.53	225.48
363.91	225.51
364.29	225.53
364.67	225.46
365.05	225.49
365.43	225.52
365.81	225.54
366.19	225.56
366.57	225.62
366.95	225.62
367.33	225.59
367.71	225.58
368.09	225.60
368.47	225.59
368.85	225.58
369.23	225.59
369.61	225.54
369.99	225.55
370.37	225.55
370.75	225.60
371.13	225.57
371.51	225.53
371.89	225.51
372.27	225.48
372.65	225.47
373.03	225.43
373.41	225.39
373.78	225.34
374.16	225.25
374.54	225.18
374.92	225.13
375.30	225.09
375.68	225.02
376.06	224.98
376.44	224.92
376.82	224.87
377.19	224.82
377.57	224.77
377.95	224.68
378.33	224.62
378.71	224.48
379.09	224.44
379.47	224.40
379.84	224.33
380.22	224.27
380.60	224.20
380.98	224.15
381.36	224.09
381.73	224.03
382.11	224.00
382.49	223.95
382.87	223.89
383.25	223.84
383.62	223.92
384.00	223.85
384.38	223.81
384.76	223.79
385.13	223.77
385.51	223.73
385.89	223.68
386.27	223.65
386.64	223.63
387.02	223.58
387.40	223.53
387.78	223.51
388.15	223.47
388.53	223.44
388.91	223.41
389.29	223.38
389.66	223.37
390.04	223.33
390.42	223.33
390.79	223.32
391.17	223.29
391.55	223.16
391.92	223.15
392.30	223.15
392.68	223.12
393.05	223.09
393.43	223.08
393.81	223.09
394.18	223.06
394.56	223.06
394.94	223.09
395.31	223.08
395.69	223.11
396.06	223.14
396.44	223.16
396.82	223.17
397.19	223.24
397.57	223.24
397.95	223.28
398.32	223.27
398.70	223.31
399.07	223.37
399.45	223.40
399.82	223.44
400.20	223.47
400.58	223.53
400.95	223.55
401.33	223.63
401.70	223.75
402.08	223.85
402.45	223.92
402.83	224.02
403.20	224.12
403.58	224.20
403.95	224.32
404.33	224.45
404.71	224.57
405.08	224.75
405.46	224.89
405.83	225.05
406.21	225.22
406.58	225.40
406.96	225.59
407.33	225.80
407.70	226.04
408.08	226.36
408.45	226.64
408.83	226.94
409.20	227.22
409.58	227.46
409.95	227.80
410.33	228.17
410.70	228.51
411.08	228.92
411.45	229.35
411.82	229.78
412.20	230.28
412.57	230.87
412.95	231.33
413.32	231.94
413.69	232.54
414.07	233.21
414.44	233.92
414.82	234.64
415.19	235.49
415.56	236.35
415.94	237.24
416.31	238.24
416.68	239.26
417.06	240.43
417.43	241.53
417.81	242.79
418.18	244.08
418.55	245.49
418.93	246.96
419.30	248.49
419.67	250.13
420.04	251.80
420.42	253.54
420.79	255.57
421.16	257.61
421.54	259.70
421.91	261.87
422.28	264.13
422.66	266.55
423.03	268.86
423.40	271.30
423.77	273.91
424.15	276.59
424.52	279.37
424.89	282.38
425.26	285.37
425.64	288.15
426.01	291.28
426.38	294.48
426.75	297.78
427.13	301.15
427.50	304.68
427.87	308.35
428.24	312.06
428.61	315.60
428.99	319.43
429.36	323.62
429.73	327.64
430.10	331.63
430.47	335.72
430.85	339.92
431.22	344.40
431.59	349.00
431.96	353.47
432.33	358.43
432.70	363.13
433.08	368.69
433.45	373.93
433.82	379.09
434.19	384.86
434.56	390.51
434.93	395.96
435.30	401.35
435.68	407.41
436.05	413.35
436.42	419.27
436.79	424.67
437.16	430.50
437.53	436.74
437.90	442.98
438.27	449.07
438.64	455.67
439.01	461.65
439.38	467.10
439.75	472.37
440.13	478.37
440.50	484.06
440.87	488.54
441.24	493.49
441.61	498.95
441.98	502.94
442.35	507.70
442.72	512.59
443.09	517.26
443.46	520.28
443.83	522.51
444.20	524.41
444.57	527.18
444.94	528.81
445.31	530.52
445.68	532.05
446.05	533.20
446.42	533.09
446.79	532.85
447.16	532.68
447.53	532.55
447.90	530.82
448.27	529.22
448.64	526.66
449.01	524.98
449.37	521.25
449.74	517.87
450.11	513.50
450.48	508.67
450.85	503.82
451.22	499.71
451.59	495.68
451.96	492.02
452.33	486.64
452.70	481.86
453.07	476.01
453.43	470.14
453.80	464.47
454.17	459.02
454.54	453.97
454.91	448.25
455.28	442.86
455.65	437.79
456.02	432.38
456.38	428.02
456.75	422.38
457.12	417.84
457.49	413.25
457.86	408.87
458.23	405.04
458.59	400.81
458.96	396.44
459.33	392.61
459.70	388.69
460.07	385.71
460.43	382.20
460.80	378.90
461.17	375.99
461.54	372.87
461.91	369.94
462.27	366.96
462.64	364.51
463.01	361.72
463.38	358.89
463.74	356.32
464.11	354.05
464.48	351.98
464.85	349.78
465.21	348.09
465.58	346.23
465.95	344.07
466.32	342.34
466.68	340.66
467.05	338.97
467.42	337.32
467.78	335.54
468.15	333.92
468.52	332.71
468.88	331.11
469.25	329.64
469.62	328.48
469.98	327.22
470.35	326.10
470.72	325.09
471.08	324.06
471.45	323.21
471.82	322.27
472.18	321.30
472.55	320.66
472.92	319.89
473.28	319.28
473.65	318.65
474.02	318.06
474.38	317.56
474.75	317.29
475.11	316.89
475.48	316.73
475.85	316.56
476.21	316.51
476.58	316.51
476.94	316.69
477.31	316.79
477.67	316.94
478.04	317.19
478.41	317.50
478.77	317.95
479.14	318.27
479.50	318.80
479.87	319.47
480.23	320.13
480.60	320.77
480.96	321.44
481.33	322.36
481.69	323.29
482.06	324.20
482.42	325.07
482.79	326.13
483.15	327.34
483.52	328.68
483.88	329.99
484.25	331.38
484.61	332.82
484.98	334.38
485.34	336.13
485.71	337.94
486.07	339.88
486.44	341.80
486.80	343.95
487.17	346.14
487.53	348.55
487.90	351.07
488.26	353.79
488.62	356.64
488.99	359.52
489.35	362.52
489.72	365.76
490.08	369.16
490.44	372.64
490.81	376.29
491.17	380.04
491.54	384.04
491.90	388.14
492.26	392.56
492.63	397.22
492.99	402.05
493.36	407.01
493.72	412.23
494.08	417.60
494.45	423.25
494.81	429.11
495.17	435.09
495.54	441.40
495.90	448.03
496.26	454.80
496.63	461.81
496.99	469.10
497.35	476.75
497.72	484.68
498.08	492.78
498.44	501.14
498.80	510.03
499.17	519.14
499.53	528.57
499.89	538.24
500.26	548.09
500.62	558.21
500.98	569.00
501.34	579.91
501.71	591.36
502.07	603.04
502.43	615.10
502.79	627.51
503.16	640.33
503.52	653.31
503.88	666.64
504.24	680.41
504.60	694.45
504.97	708.86
505.33	723.68
505.69	739.37
506.05	755.29
506.41	771.23
506.78	787.48
507.14	804.21
507.50	821.52
507.86	839.20
508.22	857.15
508.59	875.12
508.95	893.84
509.31	912.96
509.67	932.80
510.03	952.86
510.39	973.16
510.75	993.65
511.12	1014.43
511.48	1035.55
511.84	1056.82
512.20	1078.42
512.56	1101.13
512.92	1124.00
513.28	1146.59
513.64	1169.51
514.00	1192.88
514.37	1216.54
514.73	1240.26
515.09	1263.80
515.45	1287.77
515.81	1312.29
516.17	1336.90
516.53	1361.22
516.89	1385.64
517.25	1410.22
517.61	1435.02
517.97	1460.01
518.33	1484.85
518.69	1509.91
519.05	1535.23
519.41	1560.66
519.77	1586.38
520.13	1611.33
520.49	1636.50
520.85	1661.89
521.21	1687.15
521.57	1713.02
521.93	1738.22
522.29	1764.21
522.65	1789.97
523.01	1815.56
523.37	1840.38
523.73	1865.93
524.09	1891.68
524.45	1917.30
524.81	1942.48
525.17	1967.52
525.53	1992.20
525.89	2016.79
526.25	2041.60
526.61	2065.82
526.97	2090.38
527.33	2114.87
527.68	2139.19
528.04	2162.77
528.40	2186.22
528.76	2209.87
529.12	2232.46
529.48	2255.53
529.84	2276.83
530.20	2298.59
530.56	2320.03
530.91	2341.63
531.27	2362.63
531.63	2383.04
531.99	2402.93
532.35	2422.62
532.71	2442.53
533.07	2462.93
533.42	2481.85
533.78	2501.09
534.14	2520.33
534.50	2538.76
534.86	2557.77
535.21	2575.06
535.57	2592.17
535.93	2608.55
536.29	2623.66
536.65	2639.58
537.00	2654.35
537.36	2669.78
537.72	2684.24
538.08	2698.42
538.44	2711.43
538.79	2724.68
539.15	2736.14
539.51	2747.45
539.87	2758.18
540.22	2766.72
540.58	2775.58
540.94	2784.96
541.29	2792.88
541.65	2799.89
542.01	2806.37
542.37	2810.95
542.72	2817.38
543.08	2823.26
543.44	2829.03
543.79	2834.17
544.15	2838.42
544.51	2842.54
544.87	2845.69
545.22	2848.47
545.58	2850.18
545.94	2852.43
546.29	2853.20
546.65	2854.05
547.01	2855.10
547.36	2856.31
547.72	2857.84
548.07	2857.67
548.43	2856.92
548.79	2855.49
549.14	2854.01
549.50	2853.12
549.86	2851.31
550.21	2847.18
550.57	2843.57
550.92	2838.46
551.28	2833.95
551.64	2829.26
551.99	2824.99
552.35	2820.34
552.70	2815.18
553.06	2810.72
553.41	2805.64
553.77	2799.95
554.13	2795.10
554.48	2789.21
554.84	2781.80
555.19	2774.39
555.55	2766.37
555.90	2758.94
556.26	2752.58
556.61	2745.59
556.97	2736.39
557.32	2728.30
557.68	2720.37
558.03	2711.81
558.39	2704.05
558.74	2696.33
559.10	2687.56
559.45	2678.37
559.81	2669.28
560.16	2659.62
560.52	2649.56
560.87	2640.59
561.23	2631.21
561.58	2621.37
561.94	2611.34
562.29	2600.68
562.64	2590.60
563.00	2580.92
563.35	2571.05
563.71	2560.12
564.06	2548.79
564.42	2538.46
564.77	2527.72
565.12	2517.03
565.48	2506.05
565.83	2495.72
566.19	2485.49
566.54	2474.69
566.89	2463.06
567.25	2451.59
567.60	2440.87
567.96	2429.72
568.31	2417.23
568.66	2404.72
569.02	2393.18
569.37	2381.43
569.72	2370.26
570.08	2358.29
570.43	2345.74
570.78	2332.82
571.14	2319.93
571.49	2307.68
571.84	2295.67
572.20	2282.25
572.55	2269.42
572.90	2256.40
573.26	2242.50
573.61	2228.03
573.96	2213.86
574.31	2199.98
574.67	2186.31
575.02	2172.13
575.37	2157.55
575.72	2143.25
576.08	2129.44
576.43	2114.54
576.78	2099.66
577.13	2085.58
577.49	2071.67
577.84	2058.18
578.19	2043.88
578.54	2029.09
578.90	2013.76
579.25	1998.20
579.60	1984.18
579.95	1969.72
580.30	1955.33
580.66	1941.16
581.01	1926.48
581.36	1912.28
581.71	1898.68
582.06	1884.51
582.42	1870.53
582.77	1857.27
583.12	1843.46
583.47	1829.81
583.82	1816.30
584.17	1802.65
584.53	1788.88
584.88	1775.11
585.23	1760.99
585.58	1747.38
585.93	1734.10
586.28	1721.73
586.63	1709.11
586.98	1695.70
587.34	1682.54
587.69	1668.92
588.04	1655.53
588.39	1642.81
588.74	1629.52
589.09	1616.01
589.44	1602.53
589.79	1589.52
590.14	1576.40
590.49	1563.55
590.84	1550.54
591.19	1538.10
591.54	1525.24
591.89	1512.21
592.25	1499.45
592.60	1486.32
592.95	1473.73
593.30	1461.56
593.65	1449.14
594.00	1436.99
594.35	1425.57
594.70	1413.26
595.05	1401.94
595.40	1390.49
595.75	1378.46
596.10	1367.29
596.45	1356.37
596.80	1345.84
597.15	1335.12
597.50	1324.35
597.85	1313.81
598.19	1303.48
598.54	1292.62
598.89	1282.45
599.24	1272.53
599.59	1262.39
599.94	1253.28
600.29	1244.06
600.64	1234.60
600.99	1224.51
601.34	1214.92
601.69	1204.76
602.04	1195.78
602.39	1186.70
602.74	1177.85
603.08	1169.25
603.43	1160.12
603.78	1150.80
604.13	1141.63
604.48	1132.41
604.83	1123.46
605.18	1114.42
605.53	1105.29
605.87	1096.21
606.22	1087.44
606.57	1078.43
606.92	1069.46
607.27	1060.37
607.62	1051.38
607.96	1042.57
608.31	1034.86
608.66	1026.69
609.01	1018.94
609.36	1011.05
609.70	1002.93
610.05	994.67
610.40	986.77
610.75	978.96
611.10	971.41
611.44	963.51
611.79	955.91
612.14	947.91
612.49	940.08
612.83	932.74
613.18	925.49
613.53	918.09
613.88	910.77
614.22	904.08
614.57	897.16
614.92	890.22
615.27	883.32
615.61	876.21
615.96	869.36
616.31	862.41
616.65	855.42
617.00	848.65
617.35	841.99
617.70	835.37
618.04	828.85
618.39	822.36
618.74	816.21
619.08	809.86
619.43	803.80
619.78	797.73
620.12	791.47
620.47	785.43
620.82	779.39
621.16	773.70
621.51	767.64
621.85	761.60
622.20	755.61
622.55	749.78
622.89	743.88
623.24	738.02
623.59	732.27
623.93	726.56
624.28	721.02
624.62	715.44
624.97	709.83
625.32	704.38
625.66	698.79
626.01	693.16
626.35	687.70
626.70	682.27
627.04	677.07
627.39	671.90
627.73	666.83
628.08	662.00
628.43	657.00
628.77	652.07
629.12	647.28
629.46	642.71
629.81	637.95
630.15	633.10
630.50	628.41
630.84	623.92
631.19	619.59
631.53	615.29
631.88	610.90
632.22	606.62
632.57	602.54
632.91	598.41
633.26	594.37
633.60	590.43
633.95	586.62
634.29	582.62
634.64	578.58
634.98	574.45
635.32	570.50
635.67	566.70
636.01	562.85
636.36	559.03
636.70	555.35
637.05	551.66
637.39	548.17
637.73	544.52
638.08	540.95
638.42	537.38
638.77	533.67
639.11	529.93
639.45	526.23
639.80	522.54
640.14	519.03
640.49	515.49
640.83	511.83
641.17	508.20
641.52	504.75
641.86	501.31
642.20	498.03
642.55	494.59
642.89	491.24
643.23	488.13
643.58	485.24
643.92	482.20
644.26	479.22
644.61	476.21
644.95	473.21
645.29	470.14
645.64	467.04
645.98	464.09
646.32	461.33
646.66	458.58
647.01	455.79
647.35	453.05
647.69	450.21
648.04	447.51
648.38	444.84
648.72	442.12
649.06	439.48
649.41	436.89
649.75	434.29
650.09	431.71
650.43	429.11
650.78	426.50
651.12	423.88
651.46	421.37
651.80	418.96
652.14	416.64
652.49	414.33
652.83	412.09
653.17	409.82
653.51	407.61
653.85	405.47
654.20	403.28
654.54	401.00
654.88	398.91
655.22	396.88
655.56	394.81
655.90	392.85
656.25	390.89
656.59	388.93
656.93	387.08
657.27	385.25
657.61	383.35
657.95	381.50
658.29	379.66
658.64	377.83
658.98	375.99
659.32	374.17
659.66	372.46
660.00	370.76
660.34	369.09
660.68	367.38
661.02	365.59
661.36	363.94
661.70	362.35
662.05	360.73
662.39	359.10
662.73	357.55
663.07	356.03
663.41	354.55
663.75	353.10
664.09	351.64
664.43	350.10
664.77	348.66
665.11	347.16
665.45	345.76
665.79	344.35
666.13	342.93
666.47	341.50
666.81	340.04
667.15	338.56
667.49	337.17
667.83	335.83
668.17	334.55
668.51	333.27
668.85	332.00
669.19	330.83
669.53	329.58
669.87	328.30
670.21	327.05
670.55	325.80
670.89	324.63
671.23	323.43
671.57	322.25
671.91	321.12
672.25	320.05
672.58	318.96
672.92	317.86
673.26	316.83
673.60	315.80
673.94	314.77
674.28	313.79
674.62	312.81
674.96	311.79
675.30	310.82
675.64	309.84
675.97	308.87
676.31	307.87
676.65	306.91
676.99	306.01
677.33	305.05
677.67	304.14
678.01	303.15
678.34	302.24
678.68	301.39
679.02	300.50
679.36	299.62
679.70	298.75
680.04	297.90
680.37	297.03
680.71	296.19
681.05	295.42
681.39	294.60
681.73	293.74
682.06	292.94
682.40	292.13
682.74	291.35
683.08	290.60
683.42	289.82
683.75	289.13
684.09	288.34
684.43	287.62
684.77	286.88
685.10	286.19
685.44	285.48
685.78	284.75
686.12	284.07
686.45	283.37
686.79	282.68
687.13	282.01
687.46	281.31
687.80	280.65
688.14	279.93
688.48	279.28
688.81	278.63
689.15	278.02
689.49	277.38
689.82	276.74
690.16	276.05
690.50	275.42
690.83	274.79
691.17	274.18
691.51	273.57
691.84	273.00
692.18	272.39
692.52	271.78
692.85	271.17
693.19	270.63
693.52	270.06
693.86	269.50
694.20	268.94
694.53	268.41
694.87	267.86
695.21	267.33
695.54	266.80
695.88	266.26
696.21	265.69
696.55	265.18
696.88	264.66
697.22	264.16
697.56	263.66
697.89	263.11
698.23	262.60
698.56	262.07
698.90	261.59
699.23	261.08
699.57	260.63
699.90	260.17
700.24	259.66
700.58	259.20
700.91	258.77
701.25	258.41
701.58	258.02
701.92	257.62
702.25	257.20
702.59	256.77
702.92	256.36
703.26	255.95
703.59	255.54
703.93	255.23
704.26	254.85
704.60	254.45
704.93	254.07
705.26	253.70
705.60	253.36
705.93	252.97
706.27	252.65
706.60	252.31
706.94	251.99
707.27	251.60
707.61	251.24
707.94	250.86
708.27	250.42
708.61	250.03
708.94	249.67
709.28	249.32
709.61	248.98
709.94	248.68
710.28	248.37
710.61	248.07
710.95	247.67
711.28	247.43
711.61	247.14
711.95	246.87
712.28	246.57
712.61	246.27
712.95	246.05
713.28	245.80
713.61	245.52
713.95	245.22
714.28	244.98
714.61	244.70
714.95	244.45
715.28	244.18
715.61	243.93
715.95	243.68
716.28	243.44
716.61	243.22
716.95	242.96
717.28	242.74
717.61	242.49
717.94	242.27
718.28	241.97
718.61	241.74
718.94	241.50
719.27	241.28
719.61	241.08
719.94	240.84
720.27	240.58
720.60	240.37
720.94	240.17
721.27	239.98
721.60	239.80
721.93	239.60
722.27	239.44
722.60	239.27
722.93	239.07
723.26	238.89
723.59	238.68
723.93	238.51
724.26	238.34
724.59	238.16
724.92	238.00
725.25	237.86
725.59	237.70
725.92	237.55
726.25	237.40
726.58	237.22
726.91	237.06
727.24	236.92
727.57	236.76
727.91	236.59
728.24	236.44
728.57	236.28
728.90	236.14
729.23	235.96
729.56	235.85
729.89	235.70
730.22	235.55
730.55	235.42
730.89	235.26
731.22	235.11
731.55	234.97
731.88	234.83
732.21	234.67
732.54	234.53
732.87	234.40
733.20	234.28
733.53	234.17
733.86	234.05
734.19	233.91
734.52	233.80
734.85	233.76
735.18	233.61
735.51	233.52
735.84	233.40
736.17	233.32
736.50	233.16
736.83	233.18
737.16	233.07
737.49	232.97
737.82	232.87
738.15	232.79
738.48	232.69
738.81	232.57
739.14	232.47
739.47	232.35
739.80	232.25
740.13	232.15
740.46	232.04
740.79	231.92
741.12	231.82
741.45	231.71
741.78	231.56
742.11	231.50
742.44	231.38
742.77	231.30
743.10	231.19
743.43	231.09
743.75	230.89
744.08	230.96
744.41	230.86
744.74	230.77
745.07	230.65
745.40	230.59
745.73	230.55
746.06	230.48
746.39	230.42
746.71	230.33
747.04	230.24
747.37	230.15
747.70	230.10
748.03	230.02
748.36	229.96
748.68	229.88
749.01	229.78
749.34	229.71
749.67	229.63
750.00	229.58
750.33	229.59
750.65	229.52
750.98	229.31
751.31	229.24
751.64	229.17
751.97	229.16
752.29	229.09
752.62	228.97
752.95	228.89
753.28	228.81
753.60	228.74
753.93	228.70
754.26	228.65
754.59	228.55
754.91	228.47
755.24	228.39
755.57	228.37
755.90	228.31
756.22	228.24
756.55	228.16
756.88	228.07
757.20	227.94
757.53	227.85
757.86	227.79
758.19	227.75
758.51	227.69
758.84	227.57
759.17	227.51
759.49	227.46
759.82	227.47
760.15	227.43
760.47	227.37
760.80	227.30
761.13	227.26
761.45	227.21
761.78	227.17
762.11	227.13
762.43	227.04
762.76	226.99
763.08	226.96
763.41	226.93
763.74	226.89
764.06	226.84
764.39	226.81
764.71	226.76
765.04	226.71
765.37	226.65
765.69	226.62
766.02	226.57
766.34	226.52
766.67	226.43
767.00	226.40
767.32	226.42
767.65	226.45
767.97	226.41
768.30	226.37
768.62	226.34
768.95	226.28
769.27	226.24
769.60	226.22
769.92	226.16
770.25	226.11
770.57	226.06
770.90	226.02
771.22	225.98
771.55	225.95
771.87	225.92
772.20	225.88
772.52	225.94
772.85	226.04
773.17	226.01
773.50	225.96
773.82	225.92
774.15	225.83
774.47	225.73
774.80	225.69
775.12	225.65
775.45	225.62
775.77	225.60
776.09	225.57
776.42	225.55
776.74	225.55
777.07	225.51
777.39	225.49
777.72	225.46
778.04	225.45
778.36	225.41
778.69	225.39
779.01	225.38
779.33	225.26
779.66	225.12
779.98	225.08
780.31	225.07
780.63	225.09
780.95	225.08
781.28	225.06
781.60	225.04
781.92	225.02
782.25	224.99
782.57	224.97
782.89	224.94
783.22	224.92
783.54	224.87
783.86	224.86
784.19	224.83
784.51	224.84
784.83	224.81
785.16	224.78
785.48	224.76
785.80	224.74
786.12	224.73
786.45	224.72
786.77	224.71
787.09	224.69
787.42	224.63
787.74	224.61
788.06	224.59
788.38	224.57
788.71	224.55
789.03	224.53
789.35	224.52
789.67	224.49
789.99	224.49
790.32	224.46
790.64	224.45
790.96	224.54
791.28	224.49
791.61	224.48
791.93	224.47
792.25	224.45
792.57	224.50
792.89	224.48
793.21	224.47
793.54	224.45
793.86	224.43
794.18	224.42
794.50	224.39
794.82	224.37
795.14	224.38
795.47	224.38
795.79	224.37
796.11	224.34
796.43	224.32
796.75	224.30
797.07	224.30
797.39	224.28
797.71	224.18
798.04	224.18
798.36	224.16
798.68	224.15
799.00	224.15
799.32	224.09
799.64	224.08
799.96	224.07
800.28	224.07
800.60	224.06
800.92	224.05
801.24	224.04
801.56	224.04
801.89	224.02
802.21	224.01
802.53	223.98
802.85	223.99
803.17	224.04
803.49	224.01
803.81	223.99
804.13	223.98
804.45	223.96
804.77	223.95
805.09	223.95
805.41	223.92
805.73	223.90
806.05	223.86
806.37	223.84
806.69	223.82
807.01	223.80
807.33	223.79
807.65	223.76
807.97	223.79
808.28	223.77
808.60	223.76
808.92	223.73
809.24	223.79
809.56	223.77
809.88	223.72
810.20	223.73
810.52	223.74
810.84	223.71
811.16	223.70
811.48	223.68
811.80	223.71
812.12	223.70
812.43	223.71
812.75	223.71
813.07	223.70
813.39	223.70
813.71	223.69
814.03	223.67
814.35	223.67
814.67	223.62
814.98	223.61
815.30	223.60
815.62	223.58
815.94	223.50
816.26	223.50
816.58	223.47
816.89	223.46
817.21	223.43
817.53	223.43
817.85	223.43
818.17	223.42
818.48	223.38
818.80	223.39
819.12	223.37
819.44	223.34
819.76	223.33
820.07	223.32
820.39	223.31
820.71	223.31
821.03	223.30
821.34	223.29
821.66	223.30
821.98	223.31
822.30	223.31
822.61	223.37
822.93	223.34
823.25	223.34
823.57	223.33
823.88	223.34
824.20	223.33
824.52	223.34
824.83	223.34
825.15	223.32
825.47	223.31
825.79	223.31
826.10	223.31
826.42	223.31
826.74	223.32
827.05	223.31
827.37	223.30
827.69	223.30
828.00	223.30
828.32	223.30
828.64	223.28
828.95	223.32
829.27	223.29
829.58	223.29
829.90	223.31
830.22	223.32
830.53	223.29
830.85	223.28
831.17	223.26
831.48	223.25
831.80	223.26
832.11	223.25
832.43	223.23
832.75	223.23
833.06	223.28
833.38	223.25
833.69	223.26
834.01	223.26
834.32	223.26
834.64	223.24
834.96	223.23
835.27	223.24
835.59	223.20
835.90	223.18
836.22	223.16
836.53	223.14
836.85	223.13
837.16	223.24
837.48	223.24
837.79	223.27
838.11	223.27
838.42	223.26
838.74	223.27
839.05	223.26
839.37	223.26
839.68	223.19
840.00	223.19
840.31	223.19
840.63	223.18
840.94	223.17
841.26	223.16
841.57	223.16
841.88	223.17
842.20	223.16
842.51	223.14
842.83	223.14
843.14	223.24
843.46	223.23
843.77	223.16
844.08	223.16
844.40	223.12
844.71	223.11
845.03	223.10
845.34	223.09
845.65	223.09
845.97	223.09
846.28	223.09
846.60	223.09
846.91	223.07
847.22	223.07
847.54	223.09
847.85	223.09
848.16	223.09
848.48	223.06
848.79	223.10
849.10	223.11
849.42	223.12
849.73	223.01
850.04	223.02
850.36	222.98
850.67	223.01
850.98	223.01
851.30	223.02
851.61	223.02
851.92	223.02
852.23	223.05
852.55	223.05
852.86	223.06
853.17	223.06
853.49	223.09
853.80	223.11
854.11	223.12
854.42	223.12
854.74	223.11
855.05	223.11
855.36	223.06
855.67	223.06
855.99	223.06
856.30	223.18
856.61	223.18
856.92	223.18
857.23	223.18
857.55	223.16
857.86	223.14
858.17	223.16
858.48	223.14
858.79	223.12
859.11	223.13
859.42	223.12
859.73	223.10
860.04	223.10
860.35	223.06
860.66	223.02
860.98	223.01
861.29	223.03
861.60	223.02
861.91	223.05
862.22	223.02
862.53	223.01
862.84	222.88
863.16	222.90
863.47	222.88
863.78	222.86
864.09	222.88
864.40	222.89
864.71	222.89
865.02	222.90
865.33	222.89
865.64	222.87
865.95	222.87
866.27	222.94
866.58	222.92
866.89	222.93
867.20	222.93
867.51	222.92
867.82	222.91
868.13	222.94
868.44	222.92
868.75	222.94
869.06	222.95
869.37	222.96
869.68	222.92
869.99	222.94
870.30	222.94
870.61	222.95
870.92	222.93
871.23	222.92
871.54	222.93
871.85	222.96
872.16	222.97
872.47	222.96
872.78	222.90
873.09	222.91
873.40	222.90
873.71	222.91
874.02	222.92
874.33	222.90
874.64	222.88
874.95	222.90
875.26	222.88
875.56	222.87
875.87	222.87
876.18	222.87
876.49	222.97
876.80	222.96
877.11	222.93
877.42	222.94
877.73	222.94
878.04	222.91
878.35	222.90
878.66	222.90
878.96	222.89
879.27	222.88
879.58	222.88
879.89	222.87
880.20	222.89
880.51	222.89
880.82	222.89
881.12	222.89
881.43	222.86
881.74	222.85
882.05	222.84
882.36	222.84
882.67	222.84
882.97	222.73
883.28	222.73
883.59	222.73
883.90	222.74
884.21	222.75
884.51	222.75
884.82	222.73
885.13	222.73
885.44	222.72
885.74	222.73
886.05	222.72
886.36	222.72
886.67	222.68
886.98	222.73
887.28	222.75
887.59	222.74
887.90	222.75
888.20	222.75
888.51	222.77
888.82	222.75
889.13	222.76
889.43	222.85
889.74	222.84
890.05	222.84
890.35	222.83
890.66	222.81
890.97	222.80
891.28	222.79
891.58	222.80
891.89	222.80
892.20	222.79
892.50	222.78
892.81	222.78
893.12	222.78
893.42	222.73
893.73	222.72
894.04	222.72
894.34	222.73
894.65	222.72
894.95	222.71
895.26	222.72
895.57	222.76
895.87	222.65
896.18	222.68
896.48	222.68
896.79	222.69
897.10	222.71
897.40	222.72
897.71	222.73
898.01	222.72
898.32	222.73
898.63	222.73
898.93	222.75
899.24	222.75
899.54	222.74
899.85	222.73
900.15	222.73
900.46	222.74
900.76	222.73
901.07	222.74
901.38	222.74
901.68	222.76
901.99	222.70
902.29	222.71
902.60	222.70
902.90	222.69
903.21	222.68
903.51	222.67
903.82	222.69
904.12	222.69
904.43	222.69
904.73	222.68
905.03	222.69
905.34	222.78
905.64	222.77
905.95	222.78
906.25	222.78
906.56	222.77
906.86	222.77
907.17	222.76
907.47	222.77
907.77	222.76
908.08	222.73
908.38	222.74
908.69	222.74
908.99	222.76
909.30	222.77
909.60	222.77
909.90	222.78
910.21	222.75
910.51	222.73
910.81	222.73
911.12	222.73
911.42	222.73
911.73	222.62
912.03	222.63
912.33	222.65
912.64	222.65
912.94	222.63
913.24	222.62
913.55	222.61
913.85	222.60
914.15	222.62
914.46	222.63
914.76	222.62
915.06	222.61
915.37	222.58
915.67	222.56
915.97	222.56
916.27	222.54
916.58	222.55
916.88	222.55
917.18	222.53
917.49	222.61
917.79	222.60
918.09	222.61
918.39	222.63
918.70	222.63
919.00	222.64
919.30	222.69
919.60	222.68
919.91	222.67
920.21	222.68
920.51	222.66
920.81	222.65
921.12	222.66
921.42	222.66
921.72	222.68
922.02	222.69
922.32	222.71
922.63	222.72
922.93	222.77
923.23	222.77
923.53	222.77
923.83	222.70
924.13	222.70
924.44	222.70
924.74	222.71
925.04	222.73
925.34	222.72
925.64	222.68
925.94	222.69
926.24	222.75
926.55	222.74
926.85	222.75
927.15	222.75
927.45	222.74
927.75	222.74
928.05	222.73
928.35	222.73
928.65	222.73
928.95	222.75
929.26	222.70
929.56	222.72
929.86	222.73
930.16	222.72
930.46	222.71
930.76	222.71
931.06	222.66
931.36	222.63
931.66	222.65
931.96	222.66
932.26	222.66
932.56	222.62
932.86	222.62
933.16	222.62
933.46	222.61
933.76	222.61
934.06	222.63
934.36	222.66
934.66	222.66
934.96	222.64
935.26	222.64
935.56	222.66
935.86	222.63
936.16	222.61
936.46	222.61
936.76	222.61
937.06	222.60
937.36	222.60
937.66	222.61
937.96	222.60
938.26	222.58
938.56	222.57
938.86	222.58
939.16	222.60
939.46	222.60
939.76	222.61
940.06	222.60
940.35	222.58
940.65	222.53
940.95	222.53
941.25	222.51
941.55	222.49
941.85	222.49
942.15	222.51
942.45	222.54
942.75	222.54
943.04	222.54
943.34	222.56
943.64	222.55
943.94	222.53
944.24	222.53
944.54	222.55
944.84	222.54
945.13	222.53
945.43	222.50
945.73	222.50
946.03	222.49
946.33	222.48
946.62	222.48
946.92	222.48
947.22	222.48
947.52	222.50
947.82	222.51
948.11	222.49
948.41	222.47
948.71	222.44
949.01	222.45
949.31	222.44
949.60	222.43
949.90	222.45
950.20	222.45
950.50	222.44
950.79	222.43
951.09	222.45
951.39	222.45
951.69	222.45
951.98	222.47
952.28	222.47
952.58	222.47
952.87	222.48
953.17	222.50
953.47	222.48
953.76	222.48
954.06	222.45
954.36	222.44
954.66	222.44
954.95	222.47
955.25	222.48
955.55	222.49
955.84	222.47
956.14	222.48
956.44	222.48
956.73	222.47
957.03	222.48
957.32	222.47
957.62	222.47
957.92	222.49
958.21	222.47
958.51	222.59
958.81	222.60
959.10	222.61
959.40	222.63
959.69	222.64
959.99	222.66
960.29	222.67
960.58	222.67
960.88	222.71
961.17	222.69
961.47	222.71
961.76	222.70
962.06	222.71
962.36	222.70
962.65	222.70
962.95	222.72
963.24	222.71
963.54	222.71
963.83	222.72
964.13	222.71
964.42	222.69
964.72	222.61
965.01	222.60
965.31	222.59
965.60	222.56
965.90	222.62
966.19	222.60
966.49	222.61
966.78	222.60
967.08	222.59
967.37	222.59
967.67	222.56
967.96	222.57
968.26	222.56
968.55	222.57
968.85	222.57
969.14	222.56
969.43	222.56
969.73	222.55
970.02	222.54
970.32	222.54
970.61	222.53
970.91	222.49
971.20	222.48
971.49	222.47
971.79	222.48
972.08	222.41
972.38	222.42
972.67	222.41
972.96	222.43
973.26	222.41
973.55	222.44
973.85	222.44
974.14	222.43
974.43	222.45
974.73	222.43
975.02	222.42
975.31	222.42
975.61	222.42
975.90	222.41
976.19	222.40
976.49	222.42
976.78	222.42
977.07	222.42
977.37	222.43
977.66	222.45
977.95	222.42
978.24	222.43
978.54	222.45
978.83	222.44
979.12	222.43
979.42	222.43
979.71	222.41
980.00	222.41
980.29	222.42
980.59	222.39
980.88	222.42
981.17	222.42
981.46	222.42
981.76	222.42
982.05	222.46
982.34	222.47
982.63	222.47
982.93	222.47
983.22	222.50
983.51	222.50
983.80	222.52
984.09	222.53
984.39	222.53
984.68	222.51
984.97	222.52
985.26	222.51
985.55	222.52
985.85	222.50
986.14	222.51
986.43	222.52
986.72	222.51
987.01	222.48
987.30	222.48
987.59	222.47
987.89	222.48
988.18	222.45
988.47	222.43
988.76	222.42
989.05	222.41
989.34	222.40
989.63	222.43
989.92	222.41
990.22	222.40
990.51	222.39
990.80	222.38
991.09	222.39
991.38	222.40
991.67	222.39
991.96	222.38
992.25	222.39
992.54	222.37
992.83	222.37
993.12	222.37
993.41	222.39
993.70	222.43
993.99	222.44
994.28	222.46
994.58	222.48
994.87	222.48
995.16	222.47
995.45	222.46
995.74	222.42
996.03	222.43
996.32	222.45
996.61	222.47
996.90	222.48
997.19	222.47
997.48	222.47
997.77	222.45
998.06	222.46
998.34	222.45
998.63	222.45
998.92	222.45
999.21	222.47
999.50	222.46
999.79	222.43
1000.08	222.42
1000.37	222.42
1000.66	222.40
1000.95	222.43
1001.24	222.44
1001.53	222.45
1001.82	222.44
1002.11	222.42
1002.40	222.43
1002.68	222.45
1002.97	222.52
1003.26	222.51
1003.55	222.50
1003.84	222.51
1004.13	222.55
1004.42	222.55
1004.71	222.55
1004.99	222.54
1005.28	222.56
1005.57	222.55
1005.86	222.54
1006.15	222.52
1006.44	222.51
1006.72	222.52
1007.01	222.49
1007.30	222.49
1007.59	222.48
1007.88	222.48
1008.17	222.49
1008.45	222.47
1008.74	222.41
1009.03	222.36
1009.32	222.36
1009.60	222.36
1009.89	222.35
1010.18	222.31
1010.47	222.31
1010.76	222.31
1011.04	222.31
1011.33	222.30
1011.62	222.31
1011.91	222.32
1012.19	222.32
1012.48	222.32
1012.77	222.33
1013.05	222.36
1013.34	222.36
1013.63	222.35
1013.92	222.36
1014.20	222.36
1014.49	222.36
1014.78	222.38
1015.06	222.35
1015.35	222.36
1015.64	222.37
1015.92	222.39
1016.21	222.40
1016.50	222.40
1016.78	222.41
1017.07	222.43
1017.36	222.41
1017.64	222.40
1017.93	222.41
1018.22	222.41
1018.50	222.41
1018.79	222.41
1019.08	222.37
1019.36	222.38
1019.65	222.37
1019.93	222.39
1020.22	222.40
1020.51	222.46
1020.79	222.45
1021.08	222.22
1021.36	222.27
1021.65	222.38
1021.94	222.39
1022.22	222.36
1022.51	222.13
1022.79	222.87
1023.08	222.41
1023.36	223.67
1023.65	222.17
>>>>>End Processed Spectral Data<<<<<
