SpectraSuite Data File
++++++++++++++++++++++++++++++++++++
Date: Wed Sep 30 14:41:33 EDT 2015
User: lab3
Dark Spectrum Present: No
Reference Spectrum Present: No
Number of Sampled Component Spectra: 1
Spectrometers: USB2E7196
Integration Time (usec): 36000 (USB2E7196)
Spectra Averaged: 1500 (USB2E7196)
Boxcar Smoothing: 10 (USB2E7196)
Correct for Electrical Dark: No (USB2E7196)
Strobe/Lamp Enabled: No (USB2E7196)
Correct for Detector Non-linearity: No (USB2E7196)
Correct for Stray Light: No (USB2E7196)
Number of Pixels in Processed Spectrum: 2048
>>>>>Begin Processed Spectral Data<<<<<
339.09	0.00
339.48	211.36
339.86	212.91
340.24	214.40
340.63	215.88
341.01	218.67
341.39	218.51
341.78	219.67
342.16	221.00
342.54	221.53
342.93	209.98
343.31	220.59
343.69	221.13
344.07	221.59
344.46	222.01
344.84	222.39
345.22	222.62
345.60	222.87
345.99	223.06
346.37	223.19
346.75	223.28
347.13	223.36
347.52	223.42
347.90	223.49
348.28	223.53
348.66	223.59
349.05	223.59
349.43	223.64
349.81	223.68
350.19	223.74
350.57	223.79
350.96	223.87
351.34	223.95
351.72	224.05
352.10	224.16
352.48	224.24
352.87	224.29
353.25	224.36
353.63	224.42
354.01	224.50
354.39	224.57
354.77	224.65
355.15	224.75
355.54	224.81
355.92	224.86
356.30	224.93
356.68	225.06
357.06	225.13
357.44	225.18
357.82	225.24
358.20	225.34
358.58	225.41
358.97	225.49
359.35	225.57
359.73	225.65
360.11	225.69
360.49	225.74
360.87	225.79
361.25	225.84
361.63	225.93
362.01	225.97
362.39	226.01
362.77	226.05
363.15	226.09
363.53	226.11
363.91	226.15
364.29	226.16
364.67	226.10
365.05	226.12
365.43	226.15
365.81	226.19
366.19	226.20
366.57	226.24
366.95	226.24
367.33	226.21
367.71	226.20
368.09	226.22
368.47	226.22
368.85	226.21
369.23	226.22
369.61	226.16
369.99	226.18
370.37	226.17
370.75	226.23
371.13	226.19
371.51	226.15
371.89	226.12
372.27	226.10
372.65	226.08
373.03	226.03
373.41	225.99
373.78	225.94
374.16	225.85
374.54	225.78
374.92	225.73
375.30	225.69
375.68	225.62
376.06	225.58
376.44	225.51
376.82	225.46
377.19	225.42
377.57	225.36
377.95	225.28
378.33	225.22
378.71	225.08
379.09	225.03
379.47	225.00
379.84	224.93
380.22	224.87
380.60	224.80
380.98	224.75
381.36	224.70
381.73	224.64
382.11	224.62
382.49	224.57
382.87	224.51
383.25	224.47
383.62	224.54
384.00	224.48
384.38	224.44
384.76	224.42
385.13	224.40
385.51	224.36
385.89	224.31
386.27	224.26
386.64	224.24
387.02	224.18
387.40	224.14
387.78	224.11
388.15	224.09
388.53	224.05
388.91	224.03
389.29	223.99
389.66	223.98
390.04	223.95
390.42	223.94
390.79	223.92
391.17	223.90
391.55	223.77
391.92	223.75
392.30	223.75
392.68	223.72
393.05	223.70
393.43	223.70
393.81	223.70
394.18	223.68
394.56	223.68
394.94	223.72
395.31	223.71
395.69	223.76
396.06	223.78
396.44	223.79
396.82	223.80
397.19	223.88
397.57	223.88
397.95	223.92
398.32	223.92
398.70	223.95
399.07	224.01
399.45	224.04
399.82	224.08
400.20	224.11
400.58	224.16
400.95	224.17
401.33	224.25
401.70	224.39
402.08	224.49
402.45	224.56
402.83	224.66
403.20	224.76
403.58	224.84
403.95	224.96
404.33	225.10
404.71	225.22
405.08	225.41
405.46	225.55
405.83	225.71
406.21	225.88
406.58	226.07
406.96	226.26
407.33	226.48
407.70	226.73
408.08	227.06
408.45	227.35
408.83	227.66
409.20	227.94
409.58	228.20
409.95	228.54
410.33	228.92
410.70	229.27
411.08	229.69
411.45	230.13
411.82	230.58
412.20	231.08
412.57	231.68
412.95	232.15
413.32	232.77
413.69	233.40
414.07	234.07
414.44	234.81
414.82	235.57
415.19	236.45
415.56	237.34
415.94	238.27
416.31	239.31
416.68	240.35
417.06	241.57
417.43	242.70
417.81	244.00
418.18	245.32
418.55	246.78
418.93	248.29
419.30	249.86
419.67	251.53
420.04	253.27
420.42	255.08
420.79	257.18
421.16	259.30
421.54	261.45
421.91	263.70
422.28	266.02
422.66	268.53
423.03	270.92
423.40	273.45
423.77	276.15
424.15	278.93
424.52	281.81
424.89	284.93
425.26	288.02
425.64	290.91
426.01	294.15
426.38	297.46
426.75	300.90
427.13	304.43
427.50	308.09
427.87	311.92
428.24	315.78
428.61	319.48
428.99	323.47
429.36	327.85
429.73	332.04
430.10	336.21
430.47	340.49
430.85	344.89
431.22	349.57
431.59	354.36
431.96	359.04
432.33	364.25
432.70	369.19
433.08	375.02
433.45	380.54
433.82	385.95
434.19	392.01
434.56	397.97
434.93	403.72
435.30	409.43
435.68	415.82
436.05	422.04
436.42	428.27
436.79	433.94
437.16	440.09
437.53	446.66
437.90	453.22
438.27	459.63
438.64	466.53
439.01	472.80
439.38	478.53
439.75	484.04
440.13	490.27
440.50	496.20
440.87	500.90
441.24	506.03
441.61	511.67
441.98	515.81
442.35	520.74
442.72	525.79
443.09	530.56
443.46	533.59
443.83	535.86
444.20	537.73
444.57	540.48
444.94	542.08
445.31	543.73
445.68	545.18
446.05	546.22
446.42	546.00
446.79	545.68
447.16	545.39
447.53	545.15
447.90	543.27
448.27	541.48
448.64	538.68
449.01	536.85
449.37	532.92
449.74	529.32
450.11	524.67
450.48	519.59
450.85	514.50
451.22	510.18
451.59	505.88
451.96	502.02
452.33	496.40
452.70	491.36
453.07	485.25
453.43	479.13
453.80	473.20
454.17	467.47
454.54	462.16
454.91	456.20
455.28	450.56
455.65	445.25
456.02	439.62
456.38	435.10
456.75	429.22
457.12	424.52
457.49	419.77
457.86	415.25
458.23	411.26
458.59	406.86
458.96	402.36
459.33	398.45
459.70	394.45
460.07	391.42
460.43	387.85
460.80	384.48
461.17	381.54
461.54	378.37
461.91	375.40
462.27	372.35
462.64	369.87
463.01	367.04
463.38	364.17
463.74	361.58
464.11	359.27
464.48	357.20
464.85	354.95
465.21	353.19
465.58	351.28
465.95	349.08
466.32	347.32
466.68	345.60
467.05	343.86
467.42	342.16
467.78	340.33
468.15	338.65
468.52	337.41
468.88	335.77
469.25	334.27
469.62	333.08
469.98	331.82
470.35	330.68
470.72	329.66
471.08	328.64
471.45	327.78
471.82	326.82
472.18	325.81
472.55	325.17
472.92	324.39
473.28	323.76
473.65	323.11
474.02	322.52
474.38	322.02
474.75	321.73
475.11	321.33
475.48	321.18
475.85	321.02
476.21	320.96
476.58	320.97
476.94	321.18
477.31	321.30
477.67	321.45
478.04	321.70
478.41	322.01
478.77	322.46
479.14	322.77
479.50	323.31
479.87	324.00
480.23	324.68
480.60	325.37
480.96	326.08
481.33	327.06
481.69	328.02
482.06	328.98
482.42	329.90
482.79	331.02
483.15	332.31
483.52	333.75
483.88	335.12
484.25	336.60
484.61	338.13
484.98	339.77
485.34	341.62
485.71	343.53
486.07	345.58
486.44	347.62
486.80	349.89
487.17	352.20
487.53	354.72
487.90	357.34
488.26	360.14
488.62	363.13
488.99	366.14
489.35	369.30
489.72	372.73
490.08	376.31
490.44	379.96
490.81	383.77
491.17	387.68
491.54	391.87
491.90	396.11
492.26	400.67
492.63	405.48
492.99	410.49
493.36	415.68
493.72	421.14
494.08	426.76
494.45	432.68
494.81	438.80
495.17	445.03
495.54	451.68
495.90	458.67
496.26	465.76
496.63	473.04
496.99	480.61
497.35	488.47
497.72	496.64
498.08	505.02
498.44	513.65
498.80	522.79
499.17	532.22
499.53	541.98
499.89	552.00
500.26	562.20
500.62	572.60
500.98	583.63
501.34	594.82
501.71	606.51
502.07	618.40
502.43	630.73
502.79	643.53
503.16	656.62
503.52	669.82
503.88	683.50
504.24	697.59
504.60	711.89
504.97	726.61
505.33	741.70
505.69	757.50
506.05	773.59
506.41	789.86
506.78	806.39
507.14	823.44
507.50	840.87
507.86	858.63
508.22	876.68
508.59	894.80
508.95	913.50
509.31	932.71
509.67	952.70
510.03	972.81
510.39	993.01
510.75	1013.43
511.12	1034.20
511.48	1055.14
511.84	1076.43
512.20	1097.92
512.56	1120.25
512.92	1142.71
513.28	1165.18
513.64	1187.84
514.00	1210.91
514.37	1234.53
514.73	1258.16
515.09	1281.56
515.45	1305.22
515.81	1329.10
516.17	1353.12
516.53	1377.01
516.89	1400.67
517.25	1424.28
517.61	1448.12
517.97	1472.23
518.33	1496.37
518.69	1520.71
519.05	1545.35
519.41	1569.90
519.77	1594.87
520.13	1619.11
520.49	1643.38
520.85	1667.57
521.21	1691.85
521.57	1716.60
521.93	1740.55
522.29	1764.92
522.65	1789.17
523.01	1813.42
523.37	1837.11
523.73	1861.45
524.09	1885.53
524.45	1909.76
524.81	1933.79
525.17	1957.33
525.53	1980.62
525.89	2003.76
526.25	2026.89
526.61	2048.67
526.97	2070.75
527.33	2092.60
527.68	2114.44
528.04	2135.90
528.40	2157.30
528.76	2178.35
529.12	2198.70
529.48	2219.74
529.84	2238.70
530.20	2258.18
530.56	2277.08
530.91	2296.60
531.27	2315.48
531.63	2333.72
531.99	2351.42
532.35	2368.66
532.71	2386.76
533.07	2405.19
533.42	2421.88
533.78	2439.02
534.14	2456.65
534.50	2473.46
534.86	2490.70
535.21	2505.96
535.57	2521.10
535.93	2535.74
536.29	2549.80
536.65	2563.39
537.00	2575.67
537.36	2588.96
537.72	2601.07
538.08	2613.24
538.44	2624.12
538.79	2634.45
539.15	2643.78
539.51	2653.10
539.87	2661.39
540.22	2667.19
540.58	2673.07
540.94	2679.70
541.29	2685.20
541.65	2690.41
542.01	2695.40
542.37	2698.31
542.72	2702.65
543.08	2706.15
543.44	2709.29
543.79	2711.81
544.15	2713.89
544.51	2715.49
544.87	2717.04
545.22	2718.05
545.58	2717.84
545.94	2717.67
546.29	2716.35
546.65	2715.33
547.01	2714.12
547.36	2713.39
547.72	2713.13
548.07	2711.56
548.43	2708.43
548.79	2705.06
549.14	2701.68
549.50	2698.42
549.86	2695.02
550.21	2690.47
550.57	2686.24
550.92	2680.82
551.28	2675.28
551.64	2669.70
551.99	2664.34
552.35	2657.79
552.70	2651.41
553.06	2645.93
553.41	2640.03
553.77	2633.95
554.13	2627.89
554.48	2620.41
554.84	2612.05
555.19	2603.47
555.55	2594.33
555.90	2586.40
556.26	2578.60
556.61	2569.98
556.97	2559.90
557.32	2550.10
557.68	2540.35
558.03	2530.19
558.39	2521.01
558.74	2512.55
559.10	2502.64
559.45	2492.62
559.81	2483.08
560.16	2473.04
560.52	2462.58
560.87	2452.34
561.23	2441.57
561.58	2431.20
561.94	2420.86
562.29	2410.09
562.64	2399.85
563.00	2389.82
563.35	2379.63
563.71	2368.60
564.06	2357.83
564.42	2347.43
564.77	2336.80
565.12	2326.11
565.48	2315.07
565.83	2303.59
566.19	2291.71
566.54	2280.57
566.89	2268.58
567.25	2256.59
567.60	2245.53
567.96	2233.94
568.31	2221.37
568.66	2209.21
569.02	2197.30
569.37	2185.84
569.72	2175.17
570.08	2163.38
570.43	2151.23
570.78	2138.92
571.14	2126.65
571.49	2113.98
571.84	2101.59
572.20	2088.39
572.55	2075.19
572.90	2062.52
573.26	2050.25
573.61	2037.15
573.96	2024.31
574.31	2011.91
574.67	1999.47
575.02	1986.00
575.37	1972.58
575.72	1959.57
576.08	1946.67
576.43	1933.14
576.78	1919.60
577.13	1905.77
577.49	1892.39
577.84	1879.13
578.19	1865.93
578.54	1852.42
578.90	1838.64
579.25	1824.61
579.60	1811.80
579.95	1799.16
580.30	1786.27
580.66	1772.85
581.01	1759.53
581.36	1745.84
581.71	1732.60
582.06	1719.58
582.42	1706.85
582.77	1694.13
583.12	1681.71
583.47	1669.58
583.82	1657.03
584.17	1643.74
584.53	1630.79
584.88	1618.03
585.23	1605.17
585.58	1592.32
585.93	1579.87
586.28	1568.04
586.63	1556.19
586.98	1543.77
587.34	1531.48
587.69	1518.67
588.04	1506.25
588.39	1494.31
588.74	1482.15
589.09	1470.33
589.44	1457.79
589.79	1445.48
590.14	1433.29
590.49	1421.02
590.84	1408.86
591.19	1397.39
591.54	1385.91
591.89	1374.15
592.25	1362.89
592.60	1351.32
592.95	1340.14
593.30	1328.83
593.65	1317.64
594.00	1306.57
594.35	1295.99
594.70	1284.70
595.05	1274.22
595.40	1263.49
595.75	1252.58
596.10	1242.32
596.45	1231.69
596.80	1221.72
597.15	1211.88
597.50	1202.03
597.85	1192.53
598.19	1183.01
598.54	1173.12
598.89	1163.89
599.24	1154.95
599.59	1145.92
599.94	1137.49
600.29	1128.74
600.64	1120.06
600.99	1110.73
601.34	1101.93
601.69	1092.95
602.04	1084.83
602.39	1076.37
602.74	1068.35
603.08	1060.60
603.43	1052.62
603.78	1044.56
604.13	1036.59
604.48	1028.44
604.83	1020.53
605.18	1012.49
605.53	1004.33
605.87	996.22
606.22	988.37
606.57	980.32
606.92	972.11
607.27	964.11
607.62	956.34
607.96	948.66
608.31	941.99
608.66	935.07
609.01	928.14
609.36	921.16
609.70	914.22
610.05	907.13
610.40	900.11
610.75	892.98
611.10	886.31
611.44	879.39
611.79	872.79
612.14	866.08
612.49	859.19
612.83	852.78
613.18	846.54
613.53	840.37
613.88	834.31
614.22	828.50
614.57	822.43
614.92	816.50
615.27	810.63
615.61	804.33
615.96	798.10
616.31	792.09
616.65	785.88
617.00	779.78
617.35	773.71
617.70	767.80
618.04	762.05
618.39	756.13
618.74	750.55
619.08	744.82
619.43	739.18
619.78	733.71
620.12	728.07
620.47	722.60
620.82	717.13
621.16	711.78
621.51	706.31
621.85	700.92
622.20	695.40
622.55	689.96
622.89	684.65
623.24	679.49
623.59	674.41
623.93	669.58
624.28	664.92
624.62	660.25
624.97	655.51
625.32	650.81
625.66	645.95
626.01	641.06
626.35	636.32
626.70	631.61
627.04	627.17
627.39	622.73
627.73	618.27
628.08	613.89
628.43	609.51
628.77	605.21
629.12	600.97
629.46	596.89
629.81	592.73
630.15	588.60
630.50	584.54
630.84	580.53
631.19	576.61
631.53	572.77
631.88	568.93
632.22	565.00
632.57	561.32
632.91	557.70
633.26	554.09
633.60	550.46
633.95	546.96
634.29	543.32
634.64	539.75
634.98	536.12
635.32	532.59
635.67	529.28
636.01	525.98
636.36	522.68
636.70	519.52
637.05	516.37
637.39	513.28
637.73	509.99
638.08	506.77
638.42	503.63
638.77	500.38
639.11	497.02
639.45	493.81
639.80	490.59
640.14	487.51
640.49	484.46
640.83	481.38
641.17	478.35
641.52	475.34
641.86	472.27
642.20	469.36
642.55	466.33
642.89	463.34
643.23	460.45
643.58	457.76
643.92	454.95
644.26	452.22
644.61	449.53
644.95	446.90
645.29	444.16
645.64	441.39
645.98	438.69
646.32	436.13
646.66	433.58
647.01	431.09
647.35	428.73
647.69	426.25
648.04	423.86
648.38	421.43
648.72	419.06
649.06	416.74
649.41	414.46
649.75	412.25
650.09	409.93
650.43	407.68
650.78	405.41
651.12	403.14
651.46	400.93
651.80	398.78
652.14	396.70
652.49	394.68
652.83	392.68
653.17	390.73
653.51	388.85
653.85	386.98
654.20	385.06
654.54	383.00
654.88	381.07
655.22	379.20
655.56	377.35
655.90	375.56
656.25	373.82
656.59	372.06
656.93	370.37
657.27	368.80
657.61	367.12
657.95	365.46
658.29	363.89
658.64	362.33
658.98	360.67
659.32	358.99
659.66	357.42
660.00	355.87
660.34	354.33
660.68	352.78
661.02	351.20
661.36	349.68
661.70	348.21
662.05	346.80
662.39	345.39
662.73	344.04
663.07	342.73
663.41	341.43
663.75	340.14
664.09	338.86
664.43	337.50
664.77	336.20
665.11	334.83
665.45	333.52
665.79	332.24
666.13	331.02
666.47	329.86
666.81	328.62
667.15	327.35
667.49	326.16
667.83	325.00
668.17	323.86
668.51	322.76
668.85	321.67
669.19	320.63
669.53	319.47
669.87	318.28
670.21	317.15
670.55	316.04
670.89	315.02
671.23	313.95
671.57	312.91
671.91	311.94
672.25	311.05
672.58	310.14
672.92	309.19
673.26	308.29
673.60	307.39
673.94	306.49
674.28	305.64
674.62	304.76
674.96	303.84
675.30	303.02
675.64	302.17
675.97	301.32
676.31	300.43
676.65	299.62
676.99	298.89
677.33	298.07
677.67	297.27
678.01	296.40
678.34	295.60
678.68	294.83
679.02	294.04
679.36	293.24
679.70	292.43
680.04	291.65
680.37	290.85
680.71	290.10
681.05	289.40
681.39	288.69
681.73	287.97
682.06	287.26
682.40	286.55
682.74	285.87
683.08	285.21
683.42	284.55
683.75	283.90
684.09	283.19
684.43	282.56
684.77	281.90
685.10	281.28
685.44	280.64
685.78	280.01
686.12	279.42
686.45	278.81
686.79	278.18
687.13	277.59
687.46	276.97
687.80	276.37
688.14	275.74
688.48	275.17
688.81	274.58
689.15	274.04
689.49	273.45
689.82	272.86
690.16	272.21
690.50	271.62
690.83	271.05
691.17	270.48
691.51	269.91
691.84	269.38
692.18	268.83
692.52	268.28
692.85	267.75
693.19	267.25
693.52	266.71
693.86	266.19
694.20	265.67
694.53	265.18
694.87	264.67
695.21	264.16
695.54	263.64
695.88	263.14
696.21	262.60
696.55	262.12
696.88	261.65
697.22	261.20
697.56	260.77
697.89	260.31
698.23	259.88
698.56	259.44
698.90	259.03
699.23	258.60
699.57	258.19
699.90	257.76
700.24	257.31
700.58	256.91
700.91	256.55
701.25	256.24
701.58	255.90
701.92	255.55
702.25	255.17
702.59	254.78
702.92	254.42
703.26	254.05
703.59	253.68
703.93	253.40
704.26	253.06
704.60	252.69
704.93	252.31
705.26	251.94
705.60	251.62
705.93	251.25
706.27	250.96
706.60	250.65
706.94	250.36
707.27	250.02
707.61	249.69
707.94	249.36
708.27	248.94
708.61	248.57
708.94	248.24
709.28	247.95
709.61	247.66
709.94	247.38
710.28	247.10
710.61	246.84
710.95	246.48
711.28	246.27
711.61	246.01
711.95	245.78
712.28	245.52
712.61	245.23
712.95	245.02
713.28	244.80
713.61	244.51
713.95	244.22
714.28	243.97
714.61	243.72
714.95	243.47
715.28	243.23
715.61	243.00
715.95	242.78
716.28	242.55
716.61	242.35
716.95	242.12
717.28	241.90
717.61	241.66
717.94	241.46
718.28	241.19
718.61	240.98
718.94	240.77
719.27	240.57
719.61	240.38
719.94	240.16
720.27	239.92
720.60	239.74
720.94	239.55
721.27	239.37
721.60	239.20
721.93	239.03
722.27	238.89
722.60	238.72
722.93	238.53
723.26	238.36
723.59	238.15
723.93	238.00
724.26	237.84
724.59	237.69
724.92	237.53
725.25	237.40
725.59	237.24
725.92	237.10
726.25	236.95
726.58	236.81
726.91	236.66
727.24	236.52
727.57	236.37
727.91	236.21
728.24	236.09
728.57	235.94
728.90	235.81
729.23	235.65
729.56	235.57
729.89	235.44
730.22	235.30
730.55	235.19
730.89	235.06
731.22	234.93
731.55	234.80
731.88	234.67
732.21	234.52
732.54	234.39
732.87	234.27
733.20	234.14
733.53	234.03
733.86	233.93
734.19	233.81
734.52	233.72
734.85	233.70
735.18	233.57
735.51	233.50
735.84	233.40
736.17	233.33
736.50	233.15
736.83	233.17
737.16	233.08
737.49	232.98
737.82	232.88
738.15	232.80
738.48	232.70
738.81	232.60
739.14	232.51
739.47	232.41
739.80	232.31
740.13	232.23
740.46	232.11
740.79	232.00
741.12	231.89
741.45	231.77
741.78	231.62
742.11	231.56
742.44	231.43
742.77	231.36
743.10	231.25
743.43	231.17
743.75	230.97
744.08	231.03
744.41	230.93
744.74	230.85
745.07	230.74
745.40	230.68
745.73	230.64
746.06	230.56
746.39	230.51
746.71	230.44
747.04	230.35
747.37	230.28
747.70	230.23
748.03	230.18
748.36	230.14
748.68	230.07
749.01	229.97
749.34	229.91
749.67	229.84
750.00	229.79
750.33	229.80
750.65	229.75
750.98	229.54
751.31	229.48
751.64	229.43
751.97	229.43
752.29	229.37
752.62	229.26
752.95	229.19
753.28	229.11
753.60	229.04
753.93	229.00
754.26	228.96
754.59	228.87
754.91	228.79
755.24	228.71
755.57	228.70
755.90	228.64
756.22	228.58
756.55	228.51
756.88	228.44
757.20	228.31
757.53	228.23
757.86	228.17
758.19	228.13
758.51	228.08
758.84	227.96
759.17	227.90
759.49	227.86
759.82	227.86
760.15	227.82
760.47	227.77
760.80	227.70
761.13	227.66
761.45	227.62
761.78	227.58
762.11	227.54
762.43	227.44
762.76	227.39
763.08	227.36
763.41	227.31
763.74	227.27
764.06	227.23
764.39	227.19
764.71	227.15
765.04	227.10
765.37	227.04
765.69	227.01
766.02	226.96
766.34	226.92
766.67	226.85
767.00	226.83
767.32	226.84
767.65	226.86
767.97	226.82
768.30	226.80
768.62	226.76
768.95	226.70
769.27	226.67
769.60	226.65
769.92	226.61
770.25	226.56
770.57	226.52
770.90	226.48
771.22	226.45
771.55	226.41
771.87	226.38
772.20	226.34
772.52	226.40
772.85	226.49
773.17	226.47
773.50	226.42
773.82	226.38
774.15	226.29
774.47	226.21
774.80	226.17
775.12	226.14
775.45	226.11
775.77	226.09
776.09	226.07
776.42	226.04
776.74	226.05
777.07	226.02
777.39	226.01
777.72	225.98
778.04	225.97
778.36	225.94
778.69	225.92
779.01	225.92
779.33	225.80
779.66	225.67
779.98	225.63
780.31	225.63
780.63	225.63
780.95	225.64
781.28	225.61
781.60	225.59
781.92	225.56
782.25	225.54
782.57	225.53
782.89	225.50
783.22	225.48
783.54	225.43
783.86	225.42
784.19	225.40
784.51	225.40
784.83	225.37
785.16	225.35
785.48	225.34
785.80	225.31
786.12	225.30
786.45	225.28
786.77	225.27
787.09	225.25
787.42	225.21
787.74	225.19
788.06	225.18
788.38	225.15
788.71	225.13
789.03	225.12
789.35	225.11
789.67	225.09
789.99	225.08
790.32	225.07
790.64	225.06
790.96	225.14
791.28	225.09
791.61	225.08
791.93	225.06
792.25	225.04
792.57	225.10
792.89	225.08
793.21	225.07
793.54	225.05
793.86	225.03
794.18	225.02
794.50	224.99
794.82	224.98
795.14	224.99
795.47	224.99
795.79	224.98
796.11	224.93
796.43	224.92
796.75	224.91
797.07	224.90
797.39	224.87
797.71	224.77
798.04	224.77
798.36	224.76
798.68	224.74
799.00	224.74
799.32	224.67
799.64	224.68
799.96	224.66
800.28	224.66
800.60	224.65
800.92	224.65
801.24	224.63
801.56	224.63
801.89	224.61
802.21	224.60
802.53	224.57
802.85	224.59
803.17	224.63
803.49	224.60
803.81	224.58
804.13	224.57
804.45	224.56
804.77	224.55
805.09	224.55
805.41	224.54
805.73	224.51
806.05	224.48
806.37	224.46
806.69	224.44
807.01	224.42
807.33	224.42
807.65	224.37
807.97	224.41
808.28	224.38
808.60	224.37
808.92	224.34
809.24	224.40
809.56	224.37
809.88	224.33
810.20	224.33
810.52	224.34
810.84	224.32
811.16	224.30
811.48	224.28
811.80	224.32
812.12	224.30
812.43	224.32
812.75	224.32
813.07	224.31
813.39	224.31
813.71	224.29
814.03	224.27
814.35	224.28
814.67	224.23
814.98	224.23
815.30	224.22
815.62	224.20
815.94	224.13
816.26	224.14
816.58	224.11
816.89	224.12
817.21	224.08
817.53	224.09
817.85	224.09
818.17	224.08
818.48	224.03
818.80	224.05
819.12	224.02
819.44	224.00
819.76	223.99
820.07	223.98
820.39	223.98
820.71	223.97
821.03	223.97
821.34	223.96
821.66	223.96
821.98	223.97
822.30	223.96
822.61	224.02
822.93	224.00
823.25	223.99
823.57	223.96
823.88	223.98
824.20	223.97
824.52	223.99
824.83	223.99
825.15	223.98
825.47	223.96
825.79	223.97
826.10	223.96
826.42	223.96
826.74	223.95
827.05	223.95
827.37	223.96
827.69	223.95
828.00	223.95
828.32	223.94
828.64	223.93
828.95	223.98
829.27	223.95
829.58	223.95
829.90	223.96
830.22	223.96
830.53	223.95
830.85	223.93
831.17	223.90
831.48	223.89
831.80	223.90
832.11	223.88
832.43	223.86
832.75	223.86
833.06	223.91
833.38	223.89
833.69	223.88
834.01	223.88
834.32	223.87
834.64	223.86
834.96	223.85
835.27	223.86
835.59	223.82
835.90	223.80
836.22	223.79
836.53	223.77
836.85	223.76
837.16	223.86
837.48	223.86
837.79	223.90
838.11	223.89
838.42	223.88
838.74	223.90
839.05	223.89
839.37	223.88
839.68	223.82
840.00	223.82
840.31	223.82
840.63	223.81
840.94	223.80
841.26	223.78
841.57	223.78
841.88	223.78
842.20	223.76
842.51	223.73
842.83	223.74
843.14	223.83
843.46	223.82
843.77	223.75
844.08	223.75
844.40	223.71
844.71	223.70
845.03	223.70
845.34	223.68
845.65	223.68
845.97	223.68
846.28	223.68
846.60	223.68
846.91	223.66
847.22	223.66
847.54	223.68
847.85	223.70
848.16	223.68
848.48	223.66
848.79	223.70
849.10	223.72
849.42	223.73
849.73	223.63
850.04	223.63
850.36	223.60
850.67	223.61
850.98	223.60
851.30	223.61
851.61	223.60
851.92	223.60
852.23	223.62
852.55	223.63
852.86	223.63
853.17	223.63
853.49	223.65
853.80	223.66
854.11	223.65
854.42	223.66
854.74	223.65
855.05	223.65
855.36	223.60
855.67	223.60
855.99	223.59
856.30	223.70
856.61	223.70
856.92	223.70
857.23	223.70
857.55	223.70
857.86	223.68
858.17	223.71
858.48	223.69
858.79	223.67
859.11	223.68
859.42	223.66
859.73	223.65
860.04	223.64
860.35	223.62
860.66	223.59
860.98	223.58
861.29	223.59
861.60	223.59
861.91	223.62
862.22	223.60
862.53	223.57
862.84	223.45
863.16	223.46
863.47	223.45
863.78	223.44
864.09	223.44
864.40	223.44
864.71	223.44
865.02	223.45
865.33	223.44
865.64	223.41
865.95	223.42
866.27	223.50
866.58	223.49
866.89	223.51
867.20	223.51
867.51	223.50
867.82	223.50
868.13	223.53
868.44	223.50
868.75	223.52
869.06	223.54
869.37	223.56
869.68	223.53
869.99	223.55
870.30	223.55
870.61	223.56
870.92	223.54
871.23	223.53
871.54	223.54
871.85	223.57
872.16	223.58
872.47	223.58
872.78	223.52
873.09	223.52
873.40	223.51
873.71	223.51
874.02	223.53
874.33	223.53
874.64	223.50
874.95	223.52
875.26	223.50
875.56	223.49
875.87	223.48
876.18	223.47
876.49	223.58
876.80	223.57
877.11	223.55
877.42	223.56
877.73	223.57
878.04	223.56
878.35	223.54
878.66	223.55
878.96	223.55
879.27	223.54
879.58	223.53
879.89	223.53
880.20	223.55
880.51	223.53
880.82	223.54
881.12	223.54
881.43	223.53
881.74	223.52
882.05	223.52
882.36	223.53
882.67	223.54
882.97	223.43
883.28	223.42
883.59	223.42
883.90	223.43
884.21	223.43
884.51	223.43
884.82	223.42
885.13	223.41
885.44	223.40
885.74	223.41
886.05	223.41
886.36	223.41
886.67	223.38
886.98	223.43
887.28	223.43
887.59	223.43
887.90	223.42
888.20	223.43
888.51	223.45
888.82	223.44
889.13	223.44
889.43	223.52
889.74	223.52
890.05	223.52
890.35	223.52
890.66	223.51
890.97	223.51
891.28	223.50
891.58	223.51
891.89	223.51
892.20	223.50
892.50	223.49
892.81	223.47
893.12	223.47
893.42	223.43
893.73	223.43
894.04	223.42
894.34	223.44
894.65	223.42
894.95	223.40
895.26	223.41
895.57	223.45
895.87	223.35
896.18	223.38
896.48	223.38
896.79	223.38
897.10	223.39
897.40	223.39
897.71	223.40
898.01	223.38
898.32	223.40
898.63	223.40
898.93	223.42
899.24	223.42
899.54	223.42
899.85	223.42
900.15	223.42
900.46	223.42
900.76	223.42
901.07	223.44
901.38	223.42
901.68	223.43
901.99	223.39
902.29	223.40
902.60	223.39
902.90	223.38
903.21	223.37
903.51	223.36
903.82	223.38
904.12	223.39
904.43	223.40
904.73	223.39
905.03	223.40
905.34	223.49
905.64	223.48
905.95	223.48
906.25	223.48
906.56	223.49
906.86	223.49
907.17	223.47
907.47	223.48
907.77	223.49
908.08	223.46
908.38	223.45
908.69	223.45
908.99	223.47
909.30	223.47
909.60	223.48
909.90	223.48
910.21	223.45
910.51	223.43
910.81	223.43
911.12	223.42
911.42	223.42
911.73	223.31
912.03	223.33
912.33	223.34
912.64	223.33
912.94	223.31
913.24	223.29
913.55	223.28
913.85	223.27
914.15	223.29
914.46	223.31
914.76	223.31
915.06	223.30
915.37	223.28
915.67	223.28
915.97	223.28
916.27	223.25
916.58	223.26
916.88	223.25
917.18	223.25
917.49	223.31
917.79	223.31
918.09	223.33
918.39	223.35
918.70	223.34
919.00	223.34
919.30	223.40
919.60	223.41
919.91	223.40
920.21	223.41
920.51	223.38
920.81	223.36
921.12	223.38
921.42	223.38
921.72	223.39
922.02	223.39
922.32	223.41
922.63	223.41
922.93	223.47
923.23	223.47
923.53	223.45
923.83	223.39
924.13	223.39
924.44	223.38
924.74	223.39
925.04	223.41
925.34	223.40
925.64	223.36
925.94	223.36
926.24	223.41
926.55	223.39
926.85	223.41
927.15	223.41
927.45	223.40
927.75	223.39
928.05	223.39
928.35	223.39
928.65	223.39
928.95	223.40
929.26	223.35
929.56	223.36
929.86	223.37
930.16	223.36
930.46	223.35
930.76	223.35
931.06	223.31
931.36	223.28
931.66	223.30
931.96	223.30
932.26	223.30
932.56	223.26
932.86	223.28
933.16	223.27
933.46	223.26
933.76	223.24
934.06	223.26
934.36	223.30
934.66	223.29
934.96	223.28
935.26	223.29
935.56	223.31
935.86	223.28
936.16	223.28
936.46	223.27
936.76	223.27
937.06	223.25
937.36	223.27
937.66	223.27
937.96	223.25
938.26	223.24
938.56	223.23
938.86	223.23
939.16	223.24
939.46	223.25
939.76	223.26
940.06	223.26
940.35	223.26
940.65	223.21
940.95	223.21
941.25	223.19
941.55	223.17
941.85	223.15
942.15	223.19
942.45	223.22
942.75	223.22
943.04	223.22
943.34	223.24
943.64	223.23
943.94	223.22
944.24	223.23
944.54	223.23
944.84	223.22
945.13	223.22
945.43	223.21
945.73	223.20
946.03	223.19
946.33	223.19
946.62	223.17
946.92	223.16
947.22	223.17
947.52	223.18
947.82	223.19
948.11	223.17
948.41	223.14
948.71	223.11
949.01	223.12
949.31	223.12
949.60	223.11
949.90	223.12
950.20	223.12
950.50	223.11
950.79	223.11
951.09	223.12
951.39	223.13
951.69	223.11
951.98	223.13
952.28	223.13
952.58	223.12
952.87	223.13
953.17	223.15
953.47	223.13
953.76	223.12
954.06	223.11
954.36	223.09
954.66	223.10
954.95	223.13
955.25	223.13
955.55	223.15
955.84	223.12
956.14	223.13
956.44	223.13
956.73	223.12
957.03	223.12
957.32	223.12
957.62	223.11
957.92	223.13
958.21	223.12
958.51	223.24
958.81	223.25
959.10	223.26
959.40	223.28
959.69	223.29
959.99	223.32
960.29	223.31
960.58	223.32
960.88	223.35
961.17	223.34
961.47	223.35
961.76	223.34
962.06	223.36
962.36	223.35
962.65	223.36
962.95	223.37
963.24	223.37
963.54	223.38
963.83	223.39
964.13	223.39
964.42	223.38
964.72	223.28
965.01	223.28
965.31	223.27
965.60	223.25
965.90	223.31
966.19	223.28
966.49	223.29
966.78	223.29
967.08	223.27
967.37	223.27
967.67	223.25
967.96	223.26
968.26	223.25
968.55	223.27
968.85	223.26
969.14	223.26
969.43	223.26
969.73	223.25
970.02	223.24
970.32	223.23
970.61	223.21
970.91	223.19
971.20	223.17
971.49	223.17
971.79	223.18
972.08	223.11
972.38	223.12
972.67	223.12
972.96	223.14
973.26	223.12
973.55	223.15
973.85	223.15
974.14	223.14
974.43	223.13
974.73	223.11
975.02	223.10
975.31	223.09
975.61	223.08
975.90	223.07
976.19	223.06
976.49	223.07
976.78	223.08
977.07	223.07
977.37	223.08
977.66	223.10
977.95	223.08
978.24	223.09
978.54	223.11
978.83	223.10
979.12	223.09
979.42	223.09
979.71	223.07
980.00	223.07
980.29	223.08
980.59	223.07
980.88	223.09
981.17	223.09
981.46	223.09
981.76	223.11
982.05	223.13
982.34	223.15
982.63	223.15
982.93	223.14
983.22	223.17
983.51	223.17
983.80	223.17
984.09	223.19
984.39	223.17
984.68	223.15
984.97	223.15
985.26	223.14
985.55	223.15
985.85	223.13
986.14	223.14
986.43	223.14
986.72	223.14
987.01	223.11
987.30	223.11
987.59	223.10
987.89	223.10
988.18	223.07
988.47	223.06
988.76	223.05
989.05	223.05
989.34	223.04
989.63	223.06
989.92	223.05
990.22	223.03
990.51	223.03
990.80	223.03
991.09	223.03
991.38	223.05
991.67	223.04
991.96	223.02
992.25	223.02
992.54	223.01
992.83	223.01
993.12	223.02
993.41	223.03
993.70	223.08
993.99	223.10
994.28	223.12
994.58	223.13
994.87	223.12
995.16	223.12
995.45	223.11
995.74	223.07
996.03	223.09
996.32	223.10
996.61	223.13
996.90	223.13
997.19	223.12
997.48	223.12
997.77	223.10
998.06	223.12
998.34	223.11
998.63	223.10
998.92	223.10
999.21	223.12
999.50	223.11
999.79	223.06
1000.08	223.05
1000.37	223.05
1000.66	223.04
1000.95	223.06
1001.24	223.07
1001.53	223.08
1001.82	223.09
1002.11	223.05
1002.40	223.06
1002.68	223.07
1002.97	223.14
1003.26	223.13
1003.55	223.12
1003.84	223.13
1004.13	223.17
1004.42	223.17
1004.71	223.18
1004.99	223.17
1005.28	223.20
1005.57	223.19
1005.86	223.19
1006.15	223.18
1006.44	223.17
1006.72	223.18
1007.01	223.16
1007.30	223.17
1007.59	223.16
1007.88	223.16
1008.17	223.17
1008.45	223.16
1008.74	223.12
1009.03	223.07
1009.32	223.07
1009.60	223.08
1009.89	223.06
1010.18	223.01
1010.47	223.00
1010.76	223.00
1011.04	223.00
1011.33	223.00
1011.62	223.00
1011.91	223.02
1012.19	223.02
1012.48	223.03
1012.77	223.02
1013.05	223.06
1013.34	223.06
1013.63	223.05
1013.92	223.06
1014.20	223.05
1014.49	223.06
1014.78	223.07
1015.06	223.04
1015.35	223.04
1015.64	223.05
1015.92	223.08
1016.21	223.09
1016.50	223.09
1016.78	223.10
1017.07	223.11
1017.36	223.09
1017.64	223.08
1017.93	223.08
1018.22	223.06
1018.50	223.06
1018.79	223.06
1019.08	223.03
1019.36	223.04
1019.65	223.04
1019.93	223.06
1020.22	223.08
1020.51	223.13
1020.79	223.11
1021.08	222.80
1021.36	222.86
1021.65	223.15
1021.94	223.09
1022.22	223.23
1022.51	222.92
1022.79	223.54
1023.08	223.24
1023.36	224.18
1023.65	222.95
>>>>>End Processed Spectral Data<<<<<
