SpectraSuite Data File
++++++++++++++++++++++++++++++++++++
Date: Wed Sep 30 19:52:04 EDT 2015
User: lab3
Dark Spectrum Present: No
Reference Spectrum Present: No
Number of Sampled Component Spectra: 1
Spectrometers: USB2E7196
Integration Time (usec): 36000 (USB2E7196)
Spectra Averaged: 10000 (USB2E7196)
Boxcar Smoothing: 10 (USB2E7196)
Correct for Electrical Dark: No (USB2E7196)
Strobe/Lamp Enabled: No (USB2E7196)
Correct for Detector Non-linearity: No (USB2E7196)
Correct for Stray Light: No (USB2E7196)
Number of Pixels in Processed Spectrum: 2048
>>>>>Begin Processed Spectral Data<<<<<
339.09	0.00
339.48	211.00
339.86	212.52
340.24	213.88
340.63	215.24
341.01	218.28
341.39	217.98
341.78	219.35
342.16	220.52
342.54	220.99
342.93	209.57
343.31	220.16
343.69	220.70
344.07	221.16
344.46	221.59
344.84	221.98
345.22	222.21
345.60	222.47
345.99	222.66
346.37	222.80
346.75	222.91
347.13	222.98
347.52	223.05
347.90	223.13
348.28	223.16
348.66	223.21
349.05	223.21
349.43	223.26
349.81	223.31
350.19	223.36
350.57	223.42
350.96	223.50
351.34	223.59
351.72	223.69
352.10	223.79
352.48	223.86
352.87	223.91
353.25	223.98
353.63	224.04
354.01	224.10
354.39	224.17
354.77	224.25
355.15	224.35
355.54	224.40
355.92	224.44
356.30	224.52
356.68	224.65
357.06	224.73
357.44	224.78
357.82	224.84
358.20	224.95
358.58	225.01
358.97	225.07
359.35	225.15
359.73	225.23
360.11	225.27
360.49	225.33
360.87	225.38
361.25	225.44
361.63	225.52
362.01	225.57
362.39	225.60
362.77	225.64
363.15	225.66
363.53	225.70
363.91	225.74
364.29	225.76
364.67	225.68
365.05	225.71
365.43	225.73
365.81	225.76
366.19	225.78
366.57	225.83
366.95	225.83
367.33	225.81
367.71	225.81
368.09	225.83
368.47	225.82
368.85	225.81
369.23	225.82
369.61	225.77
369.99	225.78
370.37	225.78
370.75	225.84
371.13	225.80
371.51	225.76
371.89	225.74
372.27	225.71
372.65	225.68
373.03	225.64
373.41	225.60
373.78	225.55
374.16	225.46
374.54	225.38
374.92	225.34
375.30	225.29
375.68	225.23
376.06	225.18
376.44	225.12
376.82	225.08
377.19	225.03
377.57	224.98
377.95	224.90
378.33	224.84
378.71	224.69
379.09	224.65
379.47	224.61
379.84	224.55
380.22	224.49
380.60	224.42
380.98	224.38
381.36	224.32
381.73	224.26
382.11	224.23
382.49	224.18
382.87	224.12
383.25	224.08
383.62	224.15
384.00	224.09
384.38	224.05
384.76	224.03
385.13	224.01
385.51	223.97
385.89	223.92
386.27	223.89
386.64	223.87
387.02	223.82
387.40	223.78
387.78	223.75
388.15	223.72
388.53	223.69
388.91	223.66
389.29	223.63
389.66	223.62
390.04	223.58
390.42	223.57
390.79	223.56
391.17	223.54
391.55	223.41
391.92	223.40
392.30	223.40
392.68	223.36
393.05	223.34
393.43	223.34
393.81	223.34
394.18	223.32
394.56	223.32
394.94	223.35
395.31	223.35
395.69	223.39
396.06	223.41
396.44	223.43
396.82	223.44
397.19	223.52
397.57	223.53
397.95	223.57
398.32	223.56
398.70	223.60
399.07	223.67
399.45	223.70
399.82	223.73
400.20	223.76
400.58	223.81
400.95	223.83
401.33	223.90
401.70	224.04
402.08	224.12
402.45	224.20
402.83	224.30
403.20	224.40
403.58	224.48
403.95	224.60
404.33	224.73
404.71	224.85
405.08	225.03
405.46	225.17
405.83	225.33
406.21	225.50
406.58	225.69
406.96	225.87
407.33	226.08
407.70	226.32
408.08	226.65
408.45	226.93
408.83	227.23
409.20	227.50
409.58	227.75
409.95	228.09
410.33	228.46
410.70	228.80
411.08	229.21
411.45	229.64
411.82	230.08
412.20	230.58
412.57	231.17
412.95	231.63
413.32	232.24
413.69	232.86
414.07	233.53
414.44	234.25
414.82	234.98
415.19	235.84
415.56	236.72
415.94	237.62
416.31	238.64
416.68	239.66
417.06	240.84
417.43	241.95
417.81	243.23
418.18	244.53
418.55	245.96
418.93	247.44
419.30	248.99
419.67	250.64
420.04	252.33
420.42	254.09
420.79	256.14
421.16	258.21
421.54	260.31
421.91	262.50
422.28	264.79
422.66	267.25
423.03	269.60
423.40	272.07
423.77	274.71
424.15	277.43
424.52	280.24
424.89	283.29
425.26	286.33
425.64	289.15
426.01	292.32
426.38	295.56
426.75	298.91
427.13	302.34
427.50	305.92
427.87	309.64
428.24	313.40
428.61	317.00
428.99	320.88
429.36	325.14
429.73	329.22
430.10	333.28
430.47	337.43
430.85	341.70
431.22	346.25
431.59	350.92
431.96	355.48
432.33	360.52
432.70	365.30
433.08	370.95
433.45	376.29
433.82	381.53
434.19	387.39
434.56	393.15
434.93	398.70
435.30	404.19
435.68	410.37
436.05	416.42
436.42	422.45
436.79	427.95
437.16	433.88
437.53	440.25
437.90	446.60
438.27	452.80
438.64	459.53
439.01	465.60
439.38	471.14
439.75	476.50
440.13	482.61
440.50	488.41
440.87	492.98
441.24	498.02
441.61	503.56
441.98	507.60
442.35	512.43
442.72	517.37
443.09	522.10
443.46	525.13
443.83	527.37
444.20	529.26
444.57	532.04
444.94	533.67
445.31	535.36
445.68	536.85
446.05	537.96
446.42	537.76
446.79	537.47
447.16	537.22
447.53	537.01
447.90	535.17
448.27	533.45
448.64	530.75
449.01	528.94
449.37	525.08
449.74	521.57
450.11	517.06
450.48	512.09
450.85	507.10
451.22	502.84
451.59	498.68
451.96	494.90
452.33	489.39
452.70	484.48
453.07	478.50
453.43	472.50
453.80	466.71
454.17	461.14
454.54	455.98
454.91	450.16
455.28	444.68
455.65	439.52
456.02	434.02
456.38	429.59
456.75	423.87
457.12	419.26
457.49	414.62
457.86	410.18
458.23	406.31
458.59	402.02
458.96	397.62
459.33	393.74
459.70	389.78
460.07	386.76
460.43	383.20
460.80	379.86
461.17	376.93
461.54	373.76
461.91	370.81
462.27	367.80
462.64	365.34
463.01	362.52
463.38	359.68
463.74	357.11
464.11	354.82
464.48	352.74
464.85	350.52
465.21	348.82
465.58	346.95
465.95	344.78
466.32	343.04
466.68	341.34
467.05	339.63
467.42	337.98
467.78	336.21
468.15	334.56
468.52	333.34
468.88	331.74
469.25	330.28
469.62	329.11
469.98	327.85
470.35	326.73
470.72	325.72
471.08	324.69
471.45	323.83
471.82	322.89
472.18	321.91
472.55	321.27
472.92	320.49
473.28	319.87
473.65	319.24
474.02	318.64
474.38	318.16
474.75	317.88
475.11	317.47
475.48	317.31
475.85	317.16
476.21	317.11
476.58	317.11
476.94	317.29
477.31	317.42
477.67	317.56
478.04	317.82
478.41	318.14
478.77	318.60
479.14	318.93
479.50	319.48
479.87	320.15
480.23	320.83
480.60	321.49
480.96	322.17
481.33	323.12
481.69	324.05
482.06	324.99
482.42	325.88
482.79	326.95
483.15	328.16
483.52	329.53
483.88	330.84
484.25	332.25
484.61	333.71
484.98	335.29
485.34	337.05
485.71	338.88
486.07	340.83
486.44	342.76
486.80	344.92
487.17	347.13
487.53	349.57
487.90	352.10
488.26	354.84
488.62	357.73
488.99	360.62
489.35	363.65
489.72	366.91
490.08	370.35
490.44	373.88
490.81	377.58
491.17	381.37
491.54	385.41
491.90	389.56
492.26	394.02
492.63	398.71
492.99	403.59
493.36	408.60
493.72	413.88
494.08	419.30
494.45	425.01
494.81	430.93
495.17	436.97
495.54	443.36
495.90	450.05
496.26	456.89
496.63	463.97
496.99	471.32
497.35	479.04
497.72	487.05
498.08	495.22
498.44	503.65
498.80	512.63
499.17	521.83
499.53	531.36
499.89	541.11
500.26	551.05
500.62	561.27
500.98	572.15
501.34	583.18
501.71	594.74
502.07	606.52
502.43	618.71
502.79	631.22
503.16	644.14
503.52	657.23
503.88	670.70
504.24	684.61
504.60	698.79
504.97	713.37
505.33	728.32
505.69	744.17
506.05	760.21
506.41	776.24
506.78	792.59
507.14	809.43
507.50	826.86
507.86	844.71
508.22	862.81
508.59	880.94
508.95	899.78
509.31	919.06
509.67	939.02
510.03	959.21
510.39	979.63
510.75	1000.27
511.12	1021.22
511.48	1042.45
511.84	1063.83
512.20	1085.56
512.56	1108.33
512.92	1131.28
513.28	1153.98
513.64	1177.04
514.00	1200.50
514.37	1224.28
514.73	1248.14
515.09	1271.78
515.45	1295.84
515.81	1320.48
516.17	1345.15
516.53	1369.55
516.89	1394.04
517.25	1418.73
517.61	1443.59
517.97	1468.67
518.33	1493.51
518.69	1518.44
519.05	1543.70
519.41	1569.07
519.77	1594.70
520.13	1619.60
520.49	1644.69
520.85	1670.01
521.21	1695.25
521.57	1721.12
521.93	1746.29
522.29	1772.26
522.65	1797.98
523.01	1823.56
523.37	1848.36
523.73	1873.91
524.09	1899.60
524.45	1925.11
524.81	1950.14
525.17	1975.09
525.53	1999.66
525.89	2024.32
526.25	2049.22
526.61	2073.53
526.97	2098.12
527.33	2122.65
527.68	2146.92
528.04	2170.50
528.40	2193.89
528.76	2217.47
529.12	2239.99
529.48	2262.90
529.84	2284.03
530.20	2305.69
530.56	2326.92
530.91	2348.32
531.27	2369.15
531.63	2389.38
531.99	2409.16
532.35	2428.65
532.71	2448.26
533.07	2468.36
533.42	2486.98
533.78	2505.92
534.14	2524.90
534.50	2543.00
534.86	2561.79
535.21	2578.79
535.57	2595.58
535.93	2611.78
536.29	2626.68
536.65	2642.48
537.00	2657.08
537.36	2672.19
537.72	2686.35
538.08	2700.17
538.44	2712.78
538.79	2725.67
539.15	2736.88
539.51	2748.01
539.87	2758.75
540.22	2767.23
540.58	2775.97
540.94	2785.13
541.29	2792.97
541.65	2799.75
542.01	2806.04
542.37	2810.44
542.72	2816.88
543.08	2822.66
543.44	2828.23
543.79	2833.09
544.15	2836.94
544.51	2840.90
544.87	2843.90
545.22	2846.51
545.58	2848.15
545.94	2850.27
546.29	2850.90
546.65	2851.49
547.01	2852.26
547.36	2853.05
547.72	2854.12
548.07	2853.66
548.43	2852.63
548.79	2850.88
549.14	2849.09
549.50	2848.03
549.86	2845.85
550.21	2841.32
550.57	2837.27
550.92	2831.93
551.28	2827.12
551.64	2822.30
551.99	2817.76
552.35	2812.80
552.70	2807.45
553.06	2802.83
553.41	2797.72
553.77	2791.84
554.13	2786.93
554.48	2780.88
554.84	2773.39
555.19	2766.02
555.55	2758.09
555.90	2750.74
556.26	2744.39
556.61	2737.38
556.97	2728.14
557.32	2719.93
557.68	2711.96
558.03	2703.40
558.39	2695.41
558.74	2687.61
559.10	2678.62
559.45	2669.23
559.81	2660.25
560.16	2650.50
560.52	2640.43
560.87	2631.40
561.23	2621.95
561.58	2611.97
561.94	2601.74
562.29	2591.02
562.64	2580.91
563.00	2571.04
563.35	2560.95
563.71	2549.86
564.06	2538.48
564.42	2528.01
564.77	2517.19
565.12	2506.49
565.48	2495.63
565.83	2485.46
566.19	2475.32
566.54	2464.64
566.89	2453.13
567.25	2441.48
567.60	2430.68
567.96	2419.35
568.31	2406.62
568.66	2394.00
569.02	2382.39
569.37	2370.56
569.72	2359.21
570.08	2347.12
570.43	2334.52
570.78	2321.57
571.14	2308.52
571.49	2296.15
571.84	2284.13
572.20	2270.86
572.55	2257.93
572.90	2244.80
573.26	2230.64
573.61	2215.89
573.96	2201.56
574.31	2187.54
574.67	2173.83
575.02	2159.72
575.37	2145.14
575.72	2130.79
576.08	2117.03
576.43	2102.11
576.78	2087.34
577.13	2073.34
577.49	2059.37
577.84	2045.77
578.19	2031.36
578.54	2016.54
578.90	2001.25
579.25	1985.63
579.60	1971.50
579.95	1957.00
580.30	1942.52
580.66	1928.39
581.01	1913.89
581.36	1899.71
581.71	1886.16
582.06	1872.01
582.42	1857.98
582.77	1844.60
583.12	1830.89
583.47	1817.26
583.82	1803.83
584.17	1790.25
584.53	1776.50
584.88	1762.76
585.23	1748.64
585.58	1735.07
585.93	1721.89
586.28	1709.55
586.63	1696.96
586.98	1683.65
587.34	1670.54
587.69	1656.96
588.04	1643.72
588.39	1631.10
588.74	1617.93
589.09	1604.53
589.44	1591.11
589.79	1578.17
590.14	1565.23
590.49	1552.43
590.84	1539.48
591.19	1527.17
591.54	1514.34
591.89	1501.35
592.25	1488.69
592.60	1475.68
592.95	1463.24
593.30	1451.14
593.65	1438.76
594.00	1426.65
594.35	1415.24
594.70	1403.10
595.05	1392.01
595.40	1380.61
595.75	1368.67
596.10	1357.56
596.45	1346.67
596.80	1336.24
597.15	1325.64
597.50	1314.98
597.85	1304.56
598.19	1294.33
598.54	1283.46
598.89	1273.35
599.24	1263.50
599.59	1253.47
599.94	1244.46
600.29	1235.32
600.64	1225.93
600.99	1215.94
601.34	1206.45
601.69	1196.38
602.04	1187.38
602.39	1178.25
602.74	1169.39
603.08	1160.73
603.43	1151.61
603.78	1142.35
604.13	1133.24
604.48	1124.03
604.83	1115.09
605.18	1106.08
605.53	1096.98
605.87	1088.03
606.22	1079.32
606.57	1070.41
606.92	1061.57
607.27	1052.51
607.62	1043.57
607.96	1034.82
608.31	1027.16
608.66	1019.02
609.01	1011.32
609.36	1003.56
609.70	995.53
610.05	987.35
610.40	979.54
610.75	971.78
611.10	964.34
611.44	956.52
611.79	948.99
612.14	941.07
612.49	933.35
612.83	926.11
613.18	918.91
613.53	911.52
613.88	904.23
614.22	897.55
614.57	890.72
614.92	883.86
615.27	877.00
615.61	869.99
615.96	863.18
616.31	856.29
616.65	849.31
617.00	842.59
617.35	836.02
617.70	829.49
618.04	823.02
618.39	816.54
618.74	810.42
619.08	804.11
619.43	798.06
619.78	791.99
620.12	785.76
620.47	779.72
620.82	773.79
621.16	768.17
621.51	762.16
621.85	756.16
622.20	750.22
622.55	744.48
622.89	738.67
623.24	732.93
623.59	727.27
623.93	721.65
624.28	716.17
624.62	710.66
624.97	705.12
625.32	699.72
625.66	694.15
626.01	688.57
626.35	683.16
626.70	677.79
627.04	672.65
627.39	667.52
627.73	662.50
628.08	657.71
628.43	652.78
628.77	647.92
629.12	643.23
629.46	638.69
629.81	633.94
630.15	629.09
630.50	624.41
630.84	619.93
631.19	615.65
631.53	611.38
631.88	607.02
632.22	602.77
632.57	598.75
632.91	594.69
633.26	590.72
633.60	586.83
633.95	583.06
634.29	579.11
634.64	575.14
634.98	571.06
635.32	567.11
635.67	563.31
636.01	559.47
636.36	555.67
636.70	552.00
637.05	548.36
637.39	544.91
637.73	541.30
638.08	537.76
638.42	534.18
638.77	530.50
639.11	526.78
639.45	523.13
639.80	519.47
640.14	516.00
640.49	512.49
640.83	508.83
641.17	505.25
641.52	501.81
641.86	498.37
642.20	495.14
642.55	491.76
642.89	488.45
643.23	485.33
643.58	482.47
643.92	479.47
644.26	476.49
644.61	473.50
644.95	470.53
645.29	467.49
645.64	464.44
645.98	461.52
646.32	458.80
646.66	456.07
647.01	453.30
647.35	450.58
647.69	447.74
648.04	445.09
648.38	442.45
648.72	439.76
649.06	437.17
649.41	434.59
649.75	432.00
650.09	429.45
650.43	426.90
650.78	424.31
651.12	421.71
651.46	419.25
651.80	416.87
652.14	414.57
652.49	412.28
652.83	410.05
653.17	407.80
653.51	405.61
653.85	403.49
654.20	401.31
654.54	399.05
654.88	397.01
655.22	394.99
655.56	392.94
655.90	390.99
656.25	389.05
656.59	387.12
656.93	385.28
657.27	383.49
657.61	381.59
657.95	379.76
658.29	377.95
658.64	376.14
658.98	374.33
659.32	372.54
659.66	370.86
660.00	369.18
660.34	367.54
660.68	365.85
661.02	364.09
661.36	362.47
661.70	360.90
662.05	359.30
662.39	357.69
662.73	356.18
663.07	354.69
663.41	353.23
663.75	351.79
664.09	350.34
664.43	348.81
664.77	347.40
665.11	345.92
665.45	344.52
665.79	343.13
666.13	341.72
666.47	340.31
666.81	338.87
667.15	337.40
667.49	336.02
667.83	334.70
668.17	333.41
668.51	332.14
668.85	330.90
669.19	329.73
669.53	328.49
669.87	327.22
670.21	325.98
670.55	324.77
670.89	323.63
671.23	322.46
671.57	321.30
671.91	320.19
672.25	319.15
672.58	318.09
672.92	317.00
673.26	315.98
673.60	314.97
673.94	313.94
674.28	312.97
674.62	312.00
674.96	310.99
675.30	310.04
675.64	309.07
675.97	308.12
676.31	307.13
676.65	306.17
676.99	305.27
677.33	304.32
677.67	303.41
678.01	302.42
678.34	301.51
678.68	300.66
679.02	299.78
679.36	298.89
679.70	298.02
680.04	297.17
680.37	296.32
680.71	295.50
681.05	294.73
681.39	293.93
681.73	293.09
682.06	292.28
682.40	291.49
682.74	290.72
683.08	289.98
683.42	289.22
683.75	288.54
684.09	287.77
684.43	287.05
684.77	286.31
685.10	285.63
685.44	284.93
685.78	284.21
686.12	283.54
686.45	282.85
686.79	282.17
687.13	281.51
687.46	280.82
687.80	280.16
688.14	279.45
688.48	278.81
688.81	278.16
689.15	277.56
689.49	276.92
689.82	276.29
690.16	275.61
690.50	274.99
690.83	274.37
691.17	273.77
691.51	273.18
691.84	272.61
692.18	272.01
692.52	271.40
692.85	270.81
693.19	270.27
693.52	269.71
693.86	269.15
694.20	268.60
694.53	268.08
694.87	267.54
695.21	267.02
695.54	266.50
695.88	265.97
696.21	265.40
696.55	264.90
696.88	264.39
697.22	263.90
697.56	263.40
697.89	262.85
698.23	262.34
698.56	261.82
698.90	261.35
699.23	260.86
699.57	260.41
699.90	259.94
700.24	259.45
700.58	258.99
700.91	258.57
701.25	258.22
701.58	257.83
701.92	257.43
702.25	257.01
702.59	256.58
702.92	256.18
703.26	255.78
703.59	255.38
703.93	255.06
704.26	254.68
704.60	254.30
704.93	253.94
705.26	253.57
705.60	253.23
705.93	252.85
706.27	252.53
706.60	252.19
706.94	251.87
707.27	251.49
707.61	251.13
707.94	250.76
708.27	250.33
708.61	249.94
708.94	249.57
709.28	249.23
709.61	248.90
709.94	248.60
710.28	248.30
710.61	248.01
710.95	247.62
711.28	247.39
711.61	247.10
711.95	246.83
712.28	246.54
712.61	246.23
712.95	246.01
713.28	245.78
713.61	245.50
713.95	245.20
714.28	244.96
714.61	244.69
714.95	244.44
715.28	244.18
715.61	243.93
715.95	243.70
716.28	243.46
716.61	243.24
716.95	242.99
717.28	242.75
717.61	242.51
717.94	242.28
718.28	241.99
718.61	241.76
718.94	241.51
719.27	241.30
719.61	241.10
719.94	240.86
720.27	240.59
720.60	240.38
720.94	240.18
721.27	239.98
721.60	239.81
721.93	239.62
722.27	239.47
722.60	239.29
722.93	239.09
723.26	238.91
723.59	238.71
723.93	238.55
724.26	238.38
724.59	238.20
724.92	238.04
725.25	237.90
725.59	237.74
725.92	237.60
726.25	237.44
726.58	237.28
726.91	237.11
727.24	236.98
727.57	236.82
727.91	236.66
728.24	236.52
728.57	236.36
728.90	236.23
729.23	236.04
729.56	235.95
729.89	235.80
730.22	235.65
730.55	235.51
730.89	235.36
731.22	235.21
731.55	235.08
731.88	234.94
732.21	234.79
732.54	234.66
732.87	234.53
733.20	234.41
733.53	234.29
733.86	234.18
734.19	234.04
734.52	233.94
734.85	233.90
735.18	233.76
735.51	233.67
735.84	233.56
736.17	233.48
736.50	233.31
736.83	233.32
737.16	233.22
737.49	233.13
737.82	233.03
738.15	232.95
738.48	232.84
738.81	232.74
739.14	232.63
739.47	232.52
739.80	232.41
740.13	232.33
740.46	232.21
740.79	232.10
741.12	232.00
741.45	231.89
741.78	231.74
742.11	231.68
742.44	231.56
742.77	231.48
743.10	231.38
743.43	231.28
743.75	231.08
744.08	231.15
744.41	231.06
744.74	230.96
745.07	230.85
745.40	230.78
745.73	230.74
746.06	230.67
746.39	230.60
746.71	230.52
747.04	230.43
747.37	230.35
747.70	230.29
748.03	230.22
748.36	230.16
748.68	230.08
749.01	229.98
749.34	229.91
749.67	229.84
750.00	229.78
750.33	229.79
750.65	229.73
750.98	229.51
751.31	229.45
751.64	229.39
751.97	229.38
752.29	229.30
752.62	229.19
752.95	229.11
753.28	229.03
753.60	228.96
753.93	228.92
754.26	228.87
754.59	228.77
754.91	228.70
755.24	228.62
755.57	228.60
755.90	228.54
756.22	228.47
756.55	228.39
756.88	228.31
757.20	228.18
757.53	228.09
757.86	228.04
758.19	227.98
758.51	227.93
758.84	227.82
759.17	227.76
759.49	227.71
759.82	227.71
760.15	227.68
760.47	227.63
760.80	227.55
761.13	227.51
761.45	227.47
761.78	227.42
762.11	227.38
762.43	227.28
762.76	227.23
763.08	227.19
763.41	227.16
763.74	227.12
764.06	227.07
764.39	227.03
764.71	226.99
765.04	226.93
765.37	226.88
765.69	226.84
766.02	226.80
766.34	226.75
766.67	226.67
767.00	226.64
767.32	226.66
767.65	226.68
767.97	226.63
768.30	226.60
768.62	226.56
768.95	226.51
769.27	226.47
769.60	226.45
769.92	226.39
770.25	226.34
770.57	226.28
770.90	226.25
771.22	226.20
771.55	226.17
771.87	226.15
772.20	226.11
772.52	226.16
772.85	226.25
773.17	226.22
773.50	226.18
773.82	226.13
774.15	226.05
774.47	225.95
774.80	225.92
775.12	225.88
775.45	225.85
775.77	225.84
776.09	225.81
776.42	225.79
776.74	225.79
777.07	225.76
777.39	225.75
777.72	225.71
778.04	225.70
778.36	225.67
778.69	225.64
779.01	225.62
779.33	225.51
779.66	225.37
779.98	225.33
780.31	225.32
780.63	225.34
780.95	225.33
781.28	225.31
781.60	225.28
781.92	225.26
782.25	225.24
782.57	225.22
782.89	225.19
783.22	225.16
783.54	225.12
783.86	225.11
784.19	225.08
784.51	225.10
784.83	225.07
785.16	225.04
785.48	225.03
785.80	225.01
786.12	225.00
786.45	224.98
786.77	224.97
787.09	224.95
787.42	224.89
787.74	224.87
788.06	224.86
788.38	224.84
788.71	224.82
789.03	224.80
789.35	224.80
789.67	224.77
789.99	224.76
790.32	224.74
790.64	224.73
790.96	224.81
791.28	224.76
791.61	224.74
791.93	224.73
792.25	224.71
792.57	224.77
792.89	224.74
793.21	224.73
793.54	224.71
793.86	224.68
794.18	224.67
794.50	224.64
794.82	224.63
795.14	224.63
795.47	224.63
795.79	224.62
796.11	224.59
796.43	224.57
796.75	224.56
797.07	224.55
797.39	224.53
797.71	224.43
798.04	224.43
798.36	224.42
798.68	224.41
799.00	224.40
799.32	224.34
799.64	224.34
799.96	224.33
800.28	224.34
800.60	224.33
800.92	224.32
801.24	224.30
801.56	224.30
801.89	224.28
802.21	224.28
802.53	224.25
802.85	224.26
803.17	224.30
803.49	224.27
803.81	224.25
804.13	224.23
804.45	224.21
804.77	224.21
805.09	224.19
805.41	224.18
805.73	224.15
806.05	224.12
806.37	224.10
806.69	224.08
807.01	224.06
807.33	224.06
807.65	224.02
807.97	224.06
808.28	224.03
808.60	224.02
808.92	224.00
809.24	224.05
809.56	224.02
809.88	223.98
810.20	223.98
810.52	223.99
810.84	223.97
811.16	223.96
811.48	223.94
811.80	223.97
812.12	223.96
812.43	223.97
812.75	223.98
813.07	223.96
813.39	223.96
813.71	223.94
814.03	223.92
814.35	223.92
814.67	223.87
814.98	223.86
815.30	223.85
815.62	223.83
815.94	223.76
816.26	223.77
816.58	223.75
816.89	223.75
817.21	223.72
817.53	223.72
817.85	223.72
818.17	223.71
818.48	223.66
818.80	223.67
819.12	223.65
819.44	223.63
819.76	223.61
820.07	223.61
820.39	223.60
820.71	223.61
821.03	223.60
821.34	223.59
821.66	223.61
821.98	223.61
822.30	223.60
822.61	223.66
822.93	223.64
823.25	223.63
823.57	223.62
823.88	223.63
824.20	223.62
824.52	223.63
824.83	223.62
825.15	223.61
825.47	223.60
825.79	223.60
826.10	223.59
826.42	223.59
826.74	223.59
827.05	223.59
827.37	223.58
827.69	223.57
828.00	223.57
828.32	223.56
828.64	223.54
828.95	223.59
829.27	223.56
829.58	223.55
829.90	223.56
830.22	223.57
830.53	223.54
830.85	223.53
831.17	223.49
831.48	223.49
831.80	223.49
832.11	223.48
832.43	223.46
832.75	223.45
833.06	223.51
833.38	223.48
833.69	223.47
834.01	223.47
834.32	223.46
834.64	223.45
834.96	223.45
835.27	223.44
835.59	223.40
835.90	223.39
836.22	223.38
836.53	223.35
836.85	223.34
837.16	223.44
837.48	223.44
837.79	223.48
838.11	223.48
838.42	223.48
838.74	223.49
839.05	223.48
839.37	223.48
839.68	223.42
840.00	223.41
840.31	223.43
840.63	223.41
840.94	223.40
841.26	223.39
841.57	223.38
841.88	223.39
842.20	223.37
842.51	223.35
842.83	223.35
843.14	223.45
843.46	223.44
843.77	223.38
844.08	223.37
844.40	223.34
844.71	223.33
845.03	223.32
845.34	223.31
845.65	223.30
845.97	223.30
846.28	223.31
846.60	223.31
846.91	223.30
847.22	223.29
847.54	223.31
847.85	223.32
848.16	223.32
848.48	223.29
848.79	223.33
849.10	223.35
849.42	223.36
849.73	223.26
850.04	223.25
850.36	223.22
850.67	223.24
850.98	223.24
851.30	223.25
851.61	223.25
851.92	223.24
852.23	223.27
852.55	223.27
852.86	223.27
853.17	223.28
853.49	223.30
853.80	223.32
854.11	223.32
854.42	223.33
854.74	223.33
855.05	223.33
855.36	223.28
855.67	223.28
855.99	223.28
856.30	223.40
856.61	223.40
856.92	223.40
857.23	223.40
857.55	223.39
857.86	223.38
858.17	223.40
858.48	223.38
858.79	223.36
859.11	223.37
859.42	223.36
859.73	223.35
860.04	223.34
860.35	223.31
860.66	223.27
860.98	223.26
861.29	223.28
861.60	223.27
861.91	223.29
862.22	223.28
862.53	223.26
862.84	223.14
863.16	223.16
863.47	223.14
863.78	223.13
864.09	223.14
864.40	223.15
864.71	223.14
865.02	223.16
865.33	223.14
865.64	223.12
865.95	223.12
866.27	223.18
866.58	223.17
866.89	223.18
867.20	223.18
867.51	223.16
867.82	223.15
868.13	223.18
868.44	223.16
868.75	223.18
869.06	223.18
869.37	223.19
869.68	223.16
869.99	223.17
870.30	223.18
870.61	223.19
870.92	223.17
871.23	223.16
871.54	223.17
871.85	223.20
872.16	223.21
872.47	223.21
872.78	223.15
873.09	223.16
873.40	223.15
873.71	223.16
874.02	223.17
874.33	223.16
874.64	223.14
874.95	223.15
875.26	223.13
875.56	223.13
875.87	223.12
876.18	223.12
876.49	223.22
876.80	223.21
877.11	223.19
877.42	223.19
877.73	223.19
878.04	223.17
878.35	223.17
878.66	223.16
878.96	223.16
879.27	223.15
879.58	223.15
879.89	223.14
880.20	223.17
880.51	223.16
880.82	223.16
881.12	223.16
881.43	223.14
881.74	223.13
882.05	223.13
882.36	223.13
882.67	223.14
882.97	223.03
883.28	223.02
883.59	223.02
883.90	223.02
884.21	223.03
884.51	223.03
884.82	223.01
885.13	223.01
885.44	223.01
885.74	223.02
886.05	223.01
886.36	223.01
886.67	222.97
886.98	223.02
887.28	223.03
887.59	223.03
887.90	223.04
888.20	223.03
888.51	223.05
888.82	223.04
889.13	223.04
889.43	223.13
889.74	223.13
890.05	223.13
890.35	223.12
890.66	223.10
890.97	223.09
891.28	223.08
891.58	223.08
891.89	223.08
892.20	223.06
892.50	223.05
892.81	223.05
893.12	223.04
893.42	222.99
893.73	223.00
894.04	222.99
894.34	223.00
894.65	223.00
894.95	222.99
895.26	222.99
895.57	223.03
895.87	222.93
896.18	222.95
896.48	222.95
896.79	222.95
897.10	222.96
897.40	222.97
897.71	222.98
898.01	222.97
898.32	222.98
898.63	222.99
898.93	222.99
899.24	222.99
899.54	222.99
899.85	222.98
900.15	222.97
900.46	222.97
900.76	222.98
901.07	222.98
901.38	222.98
901.68	222.99
901.99	222.93
902.29	222.94
902.60	222.92
902.90	222.91
903.21	222.91
903.51	222.90
903.82	222.92
904.12	222.92
904.43	222.92
904.73	222.92
905.03	222.92
905.34	223.02
905.64	223.02
905.95	223.02
906.25	223.02
906.56	223.01
906.86	223.01
907.17	223.00
907.47	223.00
907.77	222.99
908.08	222.97
908.38	222.97
908.69	222.98
908.99	223.00
909.30	223.01
909.60	223.01
909.90	223.01
910.21	222.99
910.51	222.97
910.81	222.97
911.12	222.97
911.42	222.97
911.73	222.86
912.03	222.87
912.33	222.90
912.64	222.89
912.94	222.87
913.24	222.86
913.55	222.85
913.85	222.85
914.15	222.87
914.46	222.88
914.76	222.87
915.06	222.87
915.37	222.85
915.67	222.83
915.97	222.83
916.27	222.81
916.58	222.82
916.88	222.82
917.18	222.81
917.49	222.88
917.79	222.88
918.09	222.89
918.39	222.91
918.70	222.90
919.00	222.91
919.30	222.96
919.60	222.95
919.91	222.94
920.21	222.95
920.51	222.92
920.81	222.92
921.12	222.93
921.42	222.93
921.72	222.93
922.02	222.94
922.32	222.96
922.63	222.96
922.93	223.02
923.23	223.02
923.53	223.01
923.83	222.94
924.13	222.95
924.44	222.95
924.74	222.96
925.04	222.98
925.34	222.98
925.64	222.93
925.94	222.93
926.24	222.99
926.55	222.97
926.85	222.99
927.15	222.99
927.45	222.98
927.75	222.98
928.05	222.98
928.35	222.97
928.65	222.99
928.95	222.99
929.26	222.94
929.56	222.96
929.86	222.97
930.16	222.96
930.46	222.95
930.76	222.95
931.06	222.90
931.36	222.87
931.66	222.89
931.96	222.91
932.26	222.91
932.56	222.87
932.86	222.88
933.16	222.87
933.46	222.86
933.76	222.85
934.06	222.87
934.36	222.91
934.66	222.91
934.96	222.88
935.26	222.89
935.56	222.91
935.86	222.88
936.16	222.86
936.46	222.86
936.76	222.85
937.06	222.83
937.36	222.84
937.66	222.85
937.96	222.84
938.26	222.82
938.56	222.81
938.86	222.81
939.16	222.83
939.46	222.84
939.76	222.85
940.06	222.85
940.35	222.82
940.65	222.78
940.95	222.78
941.25	222.76
941.55	222.75
941.85	222.74
942.15	222.76
942.45	222.79
942.75	222.79
943.04	222.79
943.34	222.81
943.64	222.80
943.94	222.79
944.24	222.79
944.54	222.80
944.84	222.79
945.13	222.78
945.43	222.76
945.73	222.76
946.03	222.75
946.33	222.75
946.62	222.74
946.92	222.74
947.22	222.74
947.52	222.75
947.82	222.76
948.11	222.75
948.41	222.73
948.71	222.70
949.01	222.71
949.31	222.70
949.60	222.69
949.90	222.71
950.20	222.70
950.50	222.70
950.79	222.70
951.09	222.71
951.39	222.70
951.69	222.70
951.98	222.71
952.28	222.71
952.58	222.71
952.87	222.71
953.17	222.73
953.47	222.72
953.76	222.72
954.06	222.70
954.36	222.68
954.66	222.69
954.95	222.71
955.25	222.72
955.55	222.73
955.84	222.72
956.14	222.72
956.44	222.73
956.73	222.71
957.03	222.72
957.32	222.71
957.62	222.71
957.92	222.74
958.21	222.72
958.51	222.84
958.81	222.86
959.10	222.87
959.40	222.89
959.69	222.90
959.99	222.91
960.29	222.91
960.58	222.91
960.88	222.94
961.17	222.93
961.47	222.93
961.76	222.92
962.06	222.94
962.36	222.93
962.65	222.93
962.95	222.93
963.24	222.92
963.54	222.92
963.83	222.93
964.13	222.92
964.42	222.91
964.72	222.82
965.01	222.82
965.31	222.82
965.60	222.79
965.90	222.85
966.19	222.82
966.49	222.83
966.78	222.83
967.08	222.82
967.37	222.82
967.67	222.80
967.96	222.82
968.26	222.82
968.55	222.83
968.85	222.83
969.14	222.83
969.43	222.83
969.73	222.81
970.02	222.81
970.32	222.80
970.61	222.78
970.91	222.75
971.20	222.74
971.49	222.73
971.79	222.74
972.08	222.66
972.38	222.67
972.67	222.67
972.96	222.68
973.26	222.66
973.55	222.69
973.85	222.69
974.14	222.68
974.43	222.68
974.73	222.66
975.02	222.65
975.31	222.65
975.61	222.66
975.90	222.65
976.19	222.65
976.49	222.66
976.78	222.67
977.07	222.67
977.37	222.68
977.66	222.69
977.95	222.68
978.24	222.69
978.54	222.71
978.83	222.70
979.12	222.69
979.42	222.69
979.71	222.67
980.00	222.67
980.29	222.68
980.59	222.66
980.88	222.69
981.17	222.69
981.46	222.69
981.76	222.69
982.05	222.72
982.34	222.73
982.63	222.73
982.93	222.73
983.22	222.76
983.51	222.76
983.80	222.77
984.09	222.79
984.39	222.78
984.68	222.76
984.97	222.77
985.26	222.76
985.55	222.77
985.85	222.75
986.14	222.76
986.43	222.77
986.72	222.77
987.01	222.73
987.30	222.74
987.59	222.73
987.89	222.73
988.18	222.70
988.47	222.68
988.76	222.67
989.05	222.66
989.34	222.65
989.63	222.67
989.92	222.65
990.22	222.64
990.51	222.64
990.80	222.63
991.09	222.64
991.38	222.64
991.67	222.64
991.96	222.63
992.25	222.63
992.54	222.61
992.83	222.62
993.12	222.62
993.41	222.63
993.70	222.67
993.99	222.69
994.28	222.71
994.58	222.72
994.87	222.71
995.16	222.71
995.45	222.71
995.74	222.67
996.03	222.69
996.32	222.70
996.61	222.72
996.90	222.72
997.19	222.71
997.48	222.71
997.77	222.70
998.06	222.71
998.34	222.70
998.63	222.70
998.92	222.70
999.21	222.72
999.50	222.71
999.79	222.68
1000.08	222.67
1000.37	222.67
1000.66	222.65
1000.95	222.68
1001.24	222.68
1001.53	222.70
1001.82	222.70
1002.11	222.67
1002.40	222.68
1002.68	222.70
1002.97	222.77
1003.26	222.75
1003.55	222.74
1003.84	222.75
1004.13	222.79
1004.42	222.78
1004.71	222.78
1004.99	222.78
1005.28	222.80
1005.57	222.79
1005.86	222.78
1006.15	222.77
1006.44	222.76
1006.72	222.77
1007.01	222.75
1007.30	222.75
1007.59	222.74
1007.88	222.74
1008.17	222.75
1008.45	222.73
1008.74	222.69
1009.03	222.64
1009.32	222.64
1009.60	222.64
1009.89	222.63
1010.18	222.59
1010.47	222.59
1010.76	222.59
1011.04	222.58
1011.33	222.58
1011.62	222.59
1011.91	222.60
1012.19	222.61
1012.48	222.61
1012.77	222.61
1013.05	222.65
1013.34	222.65
1013.63	222.65
1013.92	222.66
1014.20	222.65
1014.49	222.66
1014.78	222.67
1015.06	222.64
1015.35	222.64
1015.64	222.65
1015.92	222.67
1016.21	222.68
1016.50	222.68
1016.78	222.69
1017.07	222.70
1017.36	222.68
1017.64	222.67
1017.93	222.67
1018.22	222.66
1018.50	222.66
1018.79	222.66
1019.08	222.62
1019.36	222.62
1019.65	222.61
1019.93	222.64
1020.22	222.65
1020.51	222.70
1020.79	222.69
1021.08	222.53
1021.36	222.50
1021.65	222.66
1021.94	222.56
1022.22	222.69
1022.51	222.46
1022.79	223.11
1023.08	222.72
1023.36	223.84
1023.65	222.40
>>>>>End Processed Spectral Data<<<<<
