SpectraSuite Data File
++++++++++++++++++++++++++++++++++++
Date: Thu Oct 01 13:04:13 EDT 2015
User: lab3
Dark Spectrum Present: No
Reference Spectrum Present: No
Number of Sampled Component Spectra: 1
Spectrometers: USB2E7196
Integration Time (usec): 36000 (USB2E7196)
Spectra Averaged: 10000 (USB2E7196)
Boxcar Smoothing: 10 (USB2E7196)
Correct for Electrical Dark: No (USB2E7196)
Strobe/Lamp Enabled: No (USB2E7196)
Correct for Detector Non-linearity: No (USB2E7196)
Correct for Stray Light: No (USB2E7196)
Number of Pixels in Processed Spectrum: 2048
>>>>>Begin Processed Spectral Data<<<<<
339.09	0.00
339.48	212.27
339.86	213.70
340.24	215.05
340.63	216.50
341.01	219.43
341.39	219.19
341.78	220.53
342.16	221.68
342.54	222.25
342.93	210.69
343.31	221.34
343.69	221.87
344.07	222.33
344.46	222.76
344.84	223.14
345.22	223.38
345.60	223.64
345.99	223.83
346.37	223.97
346.75	224.08
347.13	224.16
347.52	224.22
347.90	224.31
348.28	224.35
348.66	224.40
349.05	224.40
349.43	224.45
349.81	224.51
350.19	224.56
350.57	224.64
350.96	224.72
351.34	224.81
351.72	224.91
352.10	225.01
352.48	225.09
352.87	225.14
353.25	225.20
353.63	225.26
354.01	225.32
354.39	225.40
354.77	225.47
355.15	225.57
355.54	225.63
355.92	225.66
356.30	225.74
356.68	225.87
357.06	225.94
357.44	226.00
357.82	226.05
358.20	226.16
358.58	226.22
358.97	226.28
359.35	226.36
359.73	226.44
360.11	226.49
360.49	226.55
360.87	226.61
361.25	226.67
361.63	226.75
362.01	226.80
362.39	226.83
362.77	226.88
363.15	226.91
363.53	226.94
363.91	226.97
364.29	226.99
364.67	226.92
365.05	226.95
365.43	226.98
365.81	227.01
366.19	227.03
366.57	227.07
366.95	227.07
367.33	227.05
367.71	227.04
368.09	227.06
368.47	227.06
368.85	227.05
369.23	227.05
369.61	227.00
369.99	227.02
370.37	227.01
370.75	227.07
371.13	227.04
371.51	227.00
371.89	226.98
372.27	226.95
372.65	226.93
373.03	226.88
373.41	226.84
373.78	226.79
374.16	226.69
374.54	226.62
374.92	226.57
375.30	226.53
375.68	226.47
376.06	226.41
376.44	226.36
376.82	226.31
377.19	226.26
377.57	226.21
377.95	226.13
378.33	226.07
378.71	225.92
379.09	225.87
379.47	225.83
379.84	225.77
380.22	225.70
380.60	225.63
380.98	225.59
381.36	225.53
381.73	225.48
382.11	225.45
382.49	225.40
382.87	225.34
383.25	225.29
383.62	225.37
384.00	225.31
384.38	225.26
384.76	225.24
385.13	225.23
385.51	225.19
385.89	225.14
386.27	225.10
386.64	225.08
387.02	225.03
387.40	224.99
387.78	224.97
388.15	224.94
388.53	224.91
388.91	224.88
389.29	224.84
389.66	224.83
390.04	224.80
390.42	224.79
390.79	224.77
391.17	224.76
391.55	224.62
391.92	224.61
392.30	224.61
392.68	224.58
393.05	224.56
393.43	224.56
393.81	224.56
394.18	224.54
394.56	224.55
394.94	224.58
395.31	224.58
395.69	224.62
396.06	224.64
396.44	224.67
396.82	224.68
397.19	224.75
397.57	224.77
397.95	224.81
398.32	224.81
398.70	224.85
399.07	224.91
399.45	224.95
399.82	225.00
400.20	225.03
400.58	225.09
400.95	225.10
401.33	225.18
401.70	225.32
402.08	225.41
402.45	225.49
402.83	225.60
403.20	225.70
403.58	225.78
403.95	225.91
404.33	226.04
404.71	226.17
405.08	226.36
405.46	226.51
405.83	226.67
406.21	226.85
406.58	227.05
406.96	227.24
407.33	227.47
407.70	227.72
408.08	228.05
408.45	228.34
408.83	228.66
409.20	228.96
409.58	229.22
409.95	229.58
410.33	229.97
410.70	230.34
411.08	230.77
411.45	231.23
411.82	231.70
412.20	232.23
412.57	232.85
412.95	233.35
413.32	234.00
413.69	234.66
414.07	235.37
414.44	236.14
414.82	236.93
415.19	237.84
415.56	238.78
415.94	239.75
416.31	240.84
416.68	241.93
417.06	243.20
417.43	244.38
417.81	245.76
418.18	247.15
418.55	248.68
418.93	250.26
419.30	251.92
419.67	253.68
420.04	255.49
420.42	257.39
420.79	259.57
421.16	261.78
421.54	264.02
421.91	266.36
422.28	268.80
422.66	271.43
423.03	273.93
423.40	276.55
423.77	279.37
424.15	282.26
424.52	285.26
424.89	288.51
425.26	291.74
425.64	294.74
426.01	298.11
426.38	301.54
426.75	305.07
427.13	308.69
427.50	312.47
427.87	316.40
428.24	320.37
428.61	324.17
428.99	328.26
429.36	332.75
429.73	337.04
430.10	341.30
430.47	345.65
430.85	350.14
431.22	354.92
431.59	359.81
431.96	364.58
432.33	369.88
432.70	374.88
433.08	380.81
433.45	386.40
433.82	391.91
434.19	398.06
434.56	404.11
434.93	409.95
435.30	415.71
435.68	422.20
436.05	428.55
436.42	434.91
436.79	440.70
437.16	446.94
437.53	453.64
437.90	460.34
438.27	466.90
438.64	474.01
439.01	480.44
439.38	486.33
439.75	492.01
440.13	498.51
440.50	504.69
440.87	509.58
441.24	514.95
441.61	520.87
441.98	525.23
442.35	530.43
442.72	535.74
443.09	540.84
443.46	544.15
443.83	546.63
444.20	548.72
444.57	551.76
444.94	553.60
445.31	555.51
445.68	557.20
446.05	558.49
446.42	558.41
446.79	558.20
447.16	558.04
447.53	557.92
447.90	556.06
448.27	554.34
448.64	551.56
449.01	549.73
449.37	545.69
449.74	542.03
450.11	537.29
450.48	532.07
450.85	526.82
451.22	522.35
451.59	517.97
451.96	513.99
452.33	508.14
452.70	502.94
453.07	496.57
453.43	490.21
453.80	484.04
454.17	478.11
454.54	472.62
454.91	466.39
455.28	460.54
455.65	455.02
456.02	449.11
456.38	444.36
456.75	438.24
457.12	433.30
457.49	428.30
457.86	423.53
458.23	419.35
458.59	414.72
458.96	409.97
459.33	405.78
459.70	401.52
460.07	398.27
460.43	394.45
460.80	390.86
461.17	387.70
461.54	384.28
461.91	381.10
462.27	377.87
462.64	375.23
463.01	372.20
463.38	369.14
463.74	366.39
464.11	363.94
464.48	361.72
464.85	359.35
465.21	357.53
465.58	355.53
465.95	353.22
466.32	351.38
466.68	349.57
467.05	347.77
467.42	346.02
467.78	344.14
468.15	342.40
468.52	341.12
468.88	339.44
469.25	337.91
469.62	336.69
469.98	335.37
470.35	334.20
470.72	333.14
471.08	332.08
471.45	331.19
471.82	330.21
472.18	329.19
472.55	328.53
472.92	327.73
473.28	327.10
473.65	326.45
474.02	325.84
474.38	325.34
474.75	325.07
475.11	324.67
475.48	324.52
475.85	324.38
476.21	324.34
476.58	324.36
476.94	324.57
477.31	324.72
477.67	324.89
478.04	325.18
478.41	325.54
478.77	326.02
479.14	326.38
479.50	326.96
479.87	327.68
480.23	328.41
480.60	329.10
480.96	329.84
481.33	330.83
481.69	331.82
482.06	332.80
482.42	333.72
482.79	334.84
483.15	336.11
483.52	337.53
483.88	338.91
484.25	340.36
484.61	341.87
484.98	343.51
485.34	345.35
485.71	347.25
486.07	349.28
486.44	351.29
486.80	353.53
487.17	355.83
487.53	358.35
487.90	360.98
488.26	363.82
488.62	366.82
488.99	369.83
489.35	372.97
489.72	376.37
490.08	379.95
490.44	383.62
490.81	387.45
491.17	391.38
491.54	395.57
491.90	399.88
492.26	404.53
492.63	409.41
492.99	414.47
493.36	419.66
493.72	425.13
494.08	430.74
494.45	436.67
494.81	442.81
495.17	449.09
495.54	455.72
495.90	462.66
496.26	469.75
496.63	477.08
496.99	484.73
497.35	492.74
497.72	501.04
498.08	509.50
498.44	518.24
498.80	527.54
499.17	537.07
499.53	546.93
499.89	557.03
500.26	567.32
500.62	577.90
500.98	589.20
501.34	600.63
501.71	612.62
502.07	624.83
502.43	637.47
502.79	650.39
503.16	663.75
503.52	677.29
503.88	691.25
504.24	705.63
504.60	720.26
504.97	735.29
505.33	750.77
505.69	767.17
506.05	783.75
506.41	800.31
506.78	817.20
507.14	834.58
507.50	852.54
507.86	870.92
508.22	889.59
508.59	908.29
508.95	927.69
509.31	947.55
509.67	968.14
510.03	988.92
510.39	1009.94
510.75	1031.17
511.12	1052.74
511.48	1074.52
511.84	1096.46
512.20	1118.78
512.56	1142.20
512.92	1165.68
513.28	1188.87
513.64	1212.45
514.00	1236.47
514.37	1260.76
514.73	1285.15
515.09	1309.28
515.45	1333.90
515.81	1359.03
516.17	1384.16
516.53	1408.98
516.89	1433.84
517.25	1458.90
517.61	1484.13
517.97	1509.60
518.33	1534.78
518.69	1560.06
519.05	1585.62
519.41	1611.35
519.77	1637.26
520.13	1662.33
520.49	1687.64
520.85	1713.21
521.21	1738.64
521.57	1764.59
521.93	1789.86
522.29	1815.88
522.65	1841.66
523.01	1867.20
523.37	1891.94
523.73	1917.40
524.09	1943.07
524.45	1968.58
524.81	1993.54
525.17	2018.44
525.53	2042.79
525.89	2067.21
526.25	2091.87
526.61	2116.04
526.97	2140.37
527.33	2164.70
527.68	2188.73
528.04	2212.03
528.40	2235.06
528.76	2258.29
529.12	2280.47
529.48	2303.00
529.84	2323.67
530.20	2344.92
530.56	2365.71
530.91	2386.65
531.27	2407.07
531.63	2426.68
531.99	2445.85
532.35	2464.71
532.71	2483.65
533.07	2503.08
533.42	2521.10
533.78	2539.33
534.14	2557.61
534.50	2575.04
534.86	2593.07
535.21	2609.27
535.57	2625.21
535.93	2640.70
536.29	2654.84
536.65	2669.96
537.00	2683.85
537.36	2698.29
537.72	2711.67
538.08	2724.55
538.44	2736.38
538.79	2748.32
539.15	2758.68
539.51	2768.95
539.87	2778.84
540.22	2786.49
540.58	2794.51
540.94	2802.82
541.29	2809.83
541.65	2815.70
542.01	2821.07
542.37	2824.63
542.72	2830.31
543.08	2835.32
543.44	2840.01
543.79	2844.06
544.15	2846.88
544.51	2849.89
544.87	2851.95
545.22	2853.67
545.58	2854.63
545.94	2855.95
546.29	2855.77
546.65	2855.53
547.01	2855.57
547.36	2855.57
547.72	2855.76
548.07	2854.47
548.43	2852.60
548.79	2850.03
549.14	2847.46
549.50	2845.74
549.86	2842.73
550.21	2837.44
550.57	2832.58
550.92	2826.45
551.28	2820.92
551.64	2815.52
551.99	2810.24
552.35	2804.63
552.70	2798.53
553.06	2793.17
553.41	2787.31
553.77	2780.88
554.13	2775.44
554.48	2768.62
554.84	2760.42
555.19	2752.45
555.55	2743.98
555.90	2736.08
556.26	2729.13
556.61	2721.49
556.97	2711.54
557.32	2702.71
557.68	2694.06
558.03	2684.98
558.39	2676.59
558.74	2668.10
559.10	2658.52
559.45	2648.51
559.81	2638.98
560.16	2628.68
560.52	2618.12
560.87	2608.57
561.23	2598.46
561.58	2587.81
561.94	2577.03
562.29	2565.73
562.64	2555.10
563.00	2544.66
563.35	2534.13
563.71	2522.57
564.06	2510.70
564.42	2499.79
564.77	2488.58
565.12	2477.45
565.48	2466.16
565.83	2455.41
566.19	2444.78
566.54	2433.52
566.89	2421.64
567.25	2409.58
567.60	2398.37
567.96	2386.64
568.31	2373.43
568.66	2360.44
569.02	2348.51
569.37	2336.23
569.72	2324.51
570.08	2312.09
570.43	2299.17
570.78	2285.82
571.14	2272.40
571.49	2259.67
571.84	2247.26
572.20	2233.64
572.55	2220.35
572.90	2206.89
573.26	2192.34
573.61	2177.31
573.96	2162.85
574.31	2148.60
574.67	2134.55
575.02	2120.15
575.37	2105.25
575.72	2090.68
576.08	2076.62
576.43	2061.51
576.78	2046.67
577.13	2032.55
577.49	2018.29
577.84	2004.46
578.19	1989.83
578.54	1974.91
578.90	1959.54
579.25	1943.86
579.60	1929.53
579.95	1914.83
580.30	1900.21
580.66	1885.97
581.01	1871.43
581.36	1857.08
581.71	1843.42
582.06	1829.13
582.42	1815.06
582.77	1801.62
583.12	1787.80
583.47	1774.17
583.82	1760.66
584.17	1747.03
584.53	1733.22
584.88	1719.51
585.23	1705.31
585.58	1691.70
585.93	1678.53
586.28	1666.18
586.63	1653.54
586.98	1640.28
587.34	1627.22
587.69	1613.70
588.04	1600.61
588.39	1587.99
588.74	1574.92
589.09	1561.58
589.44	1548.30
589.79	1535.45
590.14	1522.62
590.49	1509.99
590.84	1497.20
591.19	1484.99
591.54	1472.26
591.89	1459.44
592.25	1446.90
592.60	1434.13
592.95	1421.88
593.30	1409.93
593.65	1397.70
594.00	1385.79
594.35	1374.52
594.70	1362.63
595.05	1351.76
595.40	1340.46
595.75	1328.76
596.10	1317.89
596.45	1307.21
596.80	1297.02
597.15	1286.64
597.50	1276.17
597.85	1265.97
598.19	1255.91
598.54	1245.28
598.89	1235.45
599.24	1225.83
599.59	1216.09
599.94	1207.34
600.29	1198.42
600.64	1189.22
600.99	1179.44
601.34	1170.16
601.69	1160.39
602.04	1151.58
602.39	1142.65
602.74	1133.98
603.08	1125.51
603.43	1116.58
603.78	1107.62
604.13	1098.72
604.48	1089.77
604.83	1081.07
605.18	1072.29
605.53	1063.43
605.87	1054.74
606.22	1046.26
606.57	1037.58
606.92	1028.99
607.27	1020.16
607.62	1011.51
607.96	1003.05
608.31	995.61
608.66	987.72
609.01	980.20
609.36	972.67
609.70	964.87
610.05	956.95
610.40	949.39
610.75	941.84
611.10	934.57
611.44	927.01
611.79	919.66
612.14	911.99
612.49	904.51
612.83	897.46
613.18	890.44
613.53	883.25
613.88	876.19
614.22	869.67
614.57	862.97
614.92	856.28
615.27	849.62
615.61	842.82
615.96	836.19
616.31	829.55
616.65	822.79
617.00	816.27
617.35	809.94
617.70	803.59
618.04	797.33
618.39	791.05
618.74	785.11
619.08	779.07
619.43	773.21
619.78	767.33
620.12	761.32
620.47	755.49
620.82	749.80
621.16	744.33
621.51	738.51
621.85	732.73
622.20	727.00
622.55	721.44
622.89	715.81
623.24	710.26
623.59	704.75
623.93	699.33
624.28	694.03
624.62	688.70
624.97	683.38
625.32	678.15
625.66	672.79
626.01	667.41
626.35	662.17
626.70	657.00
627.04	652.04
627.39	647.12
627.73	642.31
628.08	637.67
628.43	632.92
628.77	628.23
629.12	623.70
629.46	619.29
629.81	614.69
630.15	610.02
630.50	605.54
630.84	601.27
631.19	597.14
631.53	593.03
631.88	588.84
632.22	584.73
632.57	580.85
632.91	576.92
633.26	573.08
633.60	569.30
633.95	565.62
634.29	561.78
634.64	557.93
634.98	554.02
635.32	550.23
635.67	546.57
636.01	542.90
636.36	539.25
636.70	535.75
637.05	532.29
637.39	528.99
637.73	525.53
638.08	522.13
638.42	518.69
638.77	515.18
639.11	511.61
639.45	508.14
639.80	504.65
640.14	501.36
640.49	498.00
640.83	494.51
641.17	491.12
641.52	487.86
641.86	484.58
642.20	481.49
642.55	478.24
642.89	475.11
643.23	472.12
643.58	469.38
643.92	466.52
644.26	463.65
644.61	460.78
644.95	457.94
645.29	455.04
645.64	452.14
645.98	449.36
646.32	446.78
646.66	444.17
647.01	441.53
647.35	438.94
647.69	436.25
648.04	433.78
648.38	431.28
648.72	428.75
649.06	426.31
649.41	423.83
649.75	421.38
650.09	418.96
650.43	416.55
650.78	414.11
651.12	411.66
651.46	409.33
651.80	407.09
652.14	404.91
652.49	402.75
652.83	400.63
653.17	398.50
653.51	396.40
653.85	394.39
654.20	392.32
654.54	390.19
654.88	388.25
655.22	386.32
655.56	384.36
655.90	382.51
656.25	380.65
656.59	378.83
656.93	377.10
657.27	375.38
657.61	373.58
657.95	371.84
658.29	370.11
658.64	368.41
658.98	366.69
659.32	364.99
659.66	363.40
660.00	361.81
660.34	360.27
660.68	358.67
661.02	357.01
661.36	355.48
661.70	353.99
662.05	352.46
662.39	350.94
662.73	349.52
663.07	348.12
663.41	346.74
663.75	345.37
664.09	343.99
664.43	342.54
664.77	341.20
665.11	339.81
665.45	338.49
665.79	337.17
666.13	335.82
666.47	334.48
666.81	333.11
667.15	331.72
667.49	330.41
667.83	329.16
668.17	327.94
668.51	326.74
668.85	325.55
669.19	324.45
669.53	323.27
669.87	322.06
670.21	320.89
670.55	319.73
670.89	318.66
671.23	317.55
671.57	316.47
671.91	315.42
672.25	314.43
672.58	313.43
672.92	312.40
673.26	311.44
673.60	310.47
673.94	309.51
674.28	308.60
674.62	307.68
674.96	306.73
675.30	305.83
675.64	304.91
675.97	304.00
676.31	303.06
676.65	302.15
676.99	301.30
677.33	300.41
677.67	299.55
678.01	298.61
678.34	297.75
678.68	296.94
679.02	296.10
679.36	295.27
679.70	294.44
680.04	293.64
680.37	292.84
680.71	292.07
681.05	291.35
681.39	290.57
681.73	289.77
682.06	289.00
682.40	288.24
682.74	287.52
683.08	286.82
683.42	286.11
683.75	285.46
684.09	284.72
684.43	284.03
684.77	283.34
685.10	282.69
685.44	282.02
685.78	281.34
686.12	280.71
686.45	280.05
686.79	279.40
687.13	278.77
687.46	278.11
687.80	277.48
688.14	276.80
688.48	276.20
688.81	275.59
689.15	275.03
689.49	274.42
689.82	273.83
690.16	273.19
690.50	272.61
690.83	272.02
691.17	271.45
691.51	270.90
691.84	270.36
692.18	269.79
692.52	269.22
692.85	268.66
693.19	268.15
693.52	267.62
693.86	267.10
694.20	266.58
694.53	266.09
694.87	265.59
695.21	265.10
695.54	264.61
695.88	264.12
696.21	263.59
696.55	263.11
696.88	262.62
697.22	262.16
697.56	261.69
697.89	261.19
698.23	260.71
698.56	260.23
698.90	259.78
699.23	259.32
699.57	258.90
699.90	258.47
700.24	258.00
700.58	257.58
700.91	257.18
701.25	256.85
701.58	256.49
701.92	256.11
702.25	255.72
702.59	255.32
702.92	254.95
703.26	254.57
703.59	254.19
703.93	253.91
704.26	253.56
704.60	253.20
704.93	252.86
705.26	252.51
705.60	252.20
705.93	251.85
706.27	251.55
706.60	251.24
706.94	250.94
707.27	250.59
707.61	250.26
707.94	249.92
708.27	249.51
708.61	249.15
708.94	248.82
709.28	248.51
709.61	248.20
709.94	247.92
710.28	247.64
710.61	247.37
710.95	247.01
711.28	246.80
711.61	246.53
711.95	246.28
712.28	246.01
712.61	245.73
712.95	245.53
713.28	245.32
713.61	245.06
713.95	244.78
714.28	244.56
714.61	244.32
714.95	244.09
715.28	243.85
715.61	243.62
715.95	243.41
716.28	243.18
716.61	242.98
716.95	242.75
717.28	242.54
717.61	242.32
717.94	242.11
718.28	241.83
718.61	241.62
718.94	241.40
719.27	241.20
719.61	241.02
719.94	240.80
720.27	240.55
720.60	240.35
720.94	240.17
721.27	240.00
721.60	239.84
721.93	239.66
722.27	239.52
722.60	239.36
722.93	239.17
723.26	239.01
723.59	238.82
723.93	238.66
724.26	238.51
724.59	238.35
724.92	238.20
725.25	238.08
725.59	237.92
725.92	237.80
726.25	237.65
726.58	237.50
726.91	237.34
727.24	237.22
727.57	237.08
727.91	236.92
728.24	236.79
728.57	236.64
728.90	236.52
729.23	236.35
729.56	236.26
729.89	236.13
730.22	235.99
730.55	235.86
730.89	235.73
731.22	235.60
731.55	235.47
731.88	235.34
732.21	235.20
732.54	235.08
732.87	234.96
733.20	234.86
733.53	234.74
733.86	234.64
734.19	234.52
734.52	234.43
734.85	234.39
735.18	234.26
735.51	234.19
735.84	234.08
736.17	234.01
736.50	233.85
736.83	233.87
737.16	233.78
737.49	233.69
737.82	233.60
738.15	233.53
738.48	233.44
738.81	233.34
739.14	233.23
739.47	233.13
739.80	233.04
740.13	232.95
740.46	232.84
740.79	232.74
741.12	232.65
741.45	232.54
741.78	232.40
742.11	232.34
742.44	232.23
742.77	232.16
743.10	232.06
743.43	231.98
743.75	231.79
744.08	231.86
744.41	231.77
744.74	231.68
745.07	231.57
745.40	231.51
745.73	231.48
746.06	231.41
746.39	231.35
746.71	231.27
747.04	231.19
747.37	231.12
747.70	231.06
748.03	231.00
748.36	230.95
748.68	230.88
749.01	230.77
749.34	230.71
749.67	230.64
750.00	230.59
750.33	230.60
750.65	230.54
750.98	230.33
751.31	230.27
751.64	230.22
751.97	230.21
752.29	230.14
752.62	230.03
752.95	229.96
753.28	229.88
753.60	229.82
753.93	229.78
754.26	229.73
754.59	229.63
754.91	229.56
755.24	229.48
755.57	229.47
755.90	229.41
756.22	229.35
756.55	229.27
756.88	229.19
757.20	229.07
757.53	228.99
757.86	228.93
758.19	228.88
758.51	228.83
758.84	228.73
759.17	228.66
759.49	228.62
759.82	228.62
760.15	228.59
760.47	228.54
760.80	228.47
761.13	228.44
761.45	228.40
761.78	228.36
762.11	228.32
762.43	228.22
762.76	228.18
763.08	228.15
763.41	228.12
763.74	228.08
764.06	228.04
764.39	228.00
764.71	227.96
765.04	227.90
765.37	227.86
765.69	227.82
766.02	227.78
766.34	227.73
766.67	227.66
767.00	227.64
767.32	227.65
767.65	227.68
767.97	227.63
768.30	227.60
768.62	227.56
768.95	227.52
769.27	227.48
769.60	227.46
769.92	227.41
770.25	227.36
770.57	227.31
770.90	227.28
771.22	227.24
771.55	227.21
771.87	227.18
772.20	227.15
772.52	227.21
772.85	227.30
773.17	227.28
773.50	227.24
773.82	227.19
774.15	227.11
774.47	227.02
774.80	226.98
775.12	226.95
775.45	226.92
775.77	226.90
776.09	226.88
776.42	226.85
776.74	226.86
777.07	226.83
777.39	226.81
777.72	226.78
778.04	226.77
778.36	226.73
778.69	226.71
779.01	226.69
779.33	226.58
779.66	226.44
779.98	226.41
780.31	226.39
780.63	226.41
780.95	226.41
781.28	226.39
781.60	226.36
781.92	226.35
782.25	226.33
782.57	226.31
782.89	226.28
783.22	226.26
783.54	226.22
783.86	226.21
784.19	226.19
784.51	226.20
784.83	226.17
785.16	226.15
785.48	226.13
785.80	226.11
786.12	226.10
786.45	226.09
786.77	226.08
787.09	226.05
787.42	226.00
787.74	225.99
788.06	225.97
788.38	225.96
788.71	225.94
789.03	225.92
789.35	225.92
789.67	225.89
789.99	225.88
790.32	225.85
790.64	225.85
790.96	225.93
791.28	225.88
791.61	225.86
791.93	225.85
792.25	225.83
792.57	225.89
792.89	225.86
793.21	225.86
793.54	225.83
793.86	225.81
794.18	225.80
794.50	225.76
794.82	225.75
795.14	225.75
795.47	225.76
795.79	225.74
796.11	225.71
796.43	225.70
796.75	225.68
797.07	225.68
797.39	225.67
797.71	225.57
798.04	225.56
798.36	225.56
798.68	225.55
799.00	225.55
799.32	225.48
799.64	225.49
799.96	225.48
800.28	225.49
800.60	225.48
800.92	225.47
801.24	225.46
801.56	225.46
801.89	225.44
802.21	225.43
802.53	225.40
802.85	225.41
803.17	225.45
803.49	225.42
803.81	225.40
804.13	225.39
804.45	225.36
804.77	225.36
805.09	225.35
805.41	225.33
805.73	225.30
806.05	225.27
806.37	225.25
806.69	225.23
807.01	225.21
807.33	225.20
807.65	225.16
807.97	225.19
808.28	225.17
808.60	225.16
808.92	225.14
809.24	225.19
809.56	225.17
809.88	225.12
810.20	225.12
810.52	225.13
810.84	225.11
811.16	225.10
811.48	225.08
811.80	225.11
812.12	225.10
812.43	225.12
812.75	225.11
813.07	225.10
813.39	225.10
813.71	225.08
814.03	225.07
814.35	225.07
814.67	225.02
814.98	225.01
815.30	225.01
815.62	224.99
815.94	224.91
816.26	224.92
816.58	224.90
816.89	224.90
817.21	224.86
817.53	224.87
817.85	224.87
818.17	224.86
818.48	224.81
818.80	224.83
819.12	224.81
819.44	224.79
819.76	224.77
820.07	224.77
820.39	224.77
820.71	224.77
821.03	224.77
821.34	224.76
821.66	224.77
821.98	224.77
822.30	224.77
822.61	224.82
822.93	224.81
823.25	224.80
823.57	224.79
823.88	224.80
824.20	224.80
824.52	224.81
824.83	224.80
825.15	224.79
825.47	224.78
825.79	224.79
826.10	224.78
826.42	224.78
826.74	224.78
827.05	224.77
827.37	224.77
827.69	224.76
828.00	224.76
828.32	224.76
828.64	224.74
828.95	224.79
829.27	224.76
829.58	224.76
829.90	224.77
830.22	224.77
830.53	224.75
830.85	224.74
831.17	224.70
831.48	224.70
831.80	224.70
832.11	224.69
832.43	224.67
832.75	224.67
833.06	224.73
833.38	224.70
833.69	224.70
834.01	224.69
834.32	224.69
834.64	224.68
834.96	224.67
835.27	224.67
835.59	224.63
835.90	224.61
836.22	224.61
836.53	224.58
836.85	224.57
837.16	224.67
837.48	224.67
837.79	224.70
838.11	224.71
838.42	224.70
838.74	224.71
839.05	224.70
839.37	224.70
839.68	224.63
840.00	224.63
840.31	224.64
840.63	224.62
840.94	224.61
841.26	224.60
841.57	224.59
841.88	224.60
842.20	224.58
842.51	224.57
842.83	224.57
843.14	224.66
843.46	224.65
843.77	224.59
844.08	224.59
844.40	224.55
844.71	224.54
845.03	224.53
845.34	224.52
845.65	224.51
845.97	224.51
846.28	224.52
846.60	224.52
846.91	224.50
847.22	224.50
847.54	224.53
847.85	224.54
848.16	224.53
848.48	224.50
848.79	224.54
849.10	224.55
849.42	224.55
849.73	224.45
850.04	224.45
850.36	224.42
850.67	224.43
850.98	224.43
851.30	224.43
851.61	224.43
851.92	224.43
852.23	224.46
852.55	224.46
852.86	224.46
853.17	224.47
853.49	224.49
853.80	224.51
854.11	224.51
854.42	224.51
854.74	224.51
855.05	224.51
855.36	224.45
855.67	224.45
855.99	224.45
856.30	224.57
856.61	224.57
856.92	224.57
857.23	224.57
857.55	224.56
857.86	224.55
858.17	224.56
858.48	224.54
858.79	224.52
859.11	224.52
859.42	224.52
859.73	224.50
860.04	224.49
860.35	224.46
860.66	224.43
860.98	224.42
861.29	224.43
861.60	224.43
861.91	224.45
862.22	224.43
862.53	224.42
862.84	224.30
863.16	224.32
863.47	224.30
863.78	224.28
864.09	224.29
864.40	224.29
864.71	224.29
865.02	224.30
865.33	224.29
865.64	224.27
865.95	224.27
866.27	224.34
866.58	224.33
866.89	224.34
867.20	224.34
867.51	224.32
867.82	224.32
868.13	224.34
868.44	224.32
868.75	224.34
869.06	224.34
869.37	224.35
869.68	224.32
869.99	224.34
870.30	224.34
870.61	224.35
870.92	224.34
871.23	224.33
871.54	224.34
871.85	224.36
872.16	224.38
872.47	224.37
872.78	224.31
873.09	224.31
873.40	224.30
873.71	224.32
874.02	224.33
874.33	224.31
874.64	224.29
874.95	224.31
875.26	224.29
875.56	224.29
875.87	224.28
876.18	224.28
876.49	224.38
876.80	224.37
877.11	224.35
877.42	224.35
877.73	224.36
878.04	224.34
878.35	224.33
878.66	224.33
878.96	224.33
879.27	224.32
879.58	224.32
879.89	224.31
880.20	224.34
880.51	224.33
880.82	224.33
881.12	224.34
881.43	224.32
881.74	224.30
882.05	224.30
882.36	224.30
882.67	224.31
882.97	224.20
883.28	224.19
883.59	224.19
883.90	224.20
884.21	224.21
884.51	224.21
884.82	224.19
885.13	224.19
885.44	224.19
885.74	224.19
886.05	224.19
886.36	224.19
886.67	224.15
886.98	224.21
887.28	224.21
887.59	224.21
887.90	224.21
888.20	224.22
888.51	224.24
888.82	224.22
889.13	224.22
889.43	224.31
889.74	224.30
890.05	224.30
890.35	224.29
890.66	224.27
890.97	224.26
891.28	224.25
891.58	224.25
891.89	224.24
892.20	224.24
892.50	224.22
892.81	224.22
893.12	224.22
893.42	224.17
893.73	224.17
894.04	224.17
894.34	224.18
894.65	224.17
894.95	224.16
895.26	224.17
895.57	224.21
895.87	224.11
896.18	224.13
896.48	224.13
896.79	224.13
897.10	224.14
897.40	224.15
897.71	224.16
898.01	224.15
898.32	224.17
898.63	224.16
898.93	224.17
899.24	224.17
899.54	224.16
899.85	224.16
900.15	224.16
900.46	224.15
900.76	224.16
901.07	224.16
901.38	224.15
901.68	224.16
901.99	224.11
902.29	224.12
902.60	224.10
902.90	224.10
903.21	224.09
903.51	224.09
903.82	224.11
904.12	224.11
904.43	224.11
904.73	224.10
905.03	224.11
905.34	224.21
905.64	224.21
905.95	224.20
906.25	224.20
906.56	224.20
906.86	224.20
907.17	224.19
907.47	224.20
907.77	224.19
908.08	224.16
908.38	224.17
908.69	224.18
908.99	224.20
909.30	224.20
909.60	224.20
909.90	224.20
910.21	224.18
910.51	224.16
910.81	224.17
911.12	224.17
911.42	224.17
911.73	224.06
912.03	224.07
912.33	224.09
912.64	224.08
912.94	224.07
913.24	224.06
913.55	224.05
913.85	224.04
914.15	224.06
914.46	224.08
914.76	224.07
915.06	224.06
915.37	224.04
915.67	224.03
915.97	224.03
916.27	224.01
916.58	224.01
916.88	224.01
917.18	224.00
917.49	224.07
917.79	224.06
918.09	224.08
918.39	224.10
918.70	224.09
919.00	224.10
919.30	224.15
919.60	224.14
919.91	224.13
920.21	224.14
920.51	224.12
920.81	224.11
921.12	224.13
921.42	224.12
921.72	224.13
922.02	224.14
922.32	224.15
922.63	224.16
922.93	224.22
923.23	224.22
923.53	224.21
923.83	224.14
924.13	224.15
924.44	224.15
924.74	224.16
925.04	224.18
925.34	224.18
925.64	224.13
925.94	224.13
926.24	224.19
926.55	224.18
926.85	224.19
927.15	224.19
927.45	224.19
927.75	224.19
928.05	224.19
928.35	224.18
928.65	224.19
928.95	224.19
929.26	224.14
929.56	224.16
929.86	224.17
930.16	224.16
930.46	224.15
930.76	224.15
931.06	224.10
931.36	224.07
931.66	224.08
931.96	224.09
932.26	224.10
932.56	224.05
932.86	224.06
933.16	224.06
933.46	224.05
933.76	224.03
934.06	224.05
934.36	224.08
934.66	224.08
934.96	224.06
935.26	224.06
935.56	224.08
935.86	224.05
936.16	224.03
936.46	224.03
936.76	224.02
937.06	224.01
937.36	224.02
937.66	224.02
937.96	224.02
938.26	223.99
938.56	223.98
938.86	223.99
939.16	224.01
939.46	224.02
939.76	224.02
940.06	224.03
940.35	224.01
940.65	223.96
940.95	223.97
941.25	223.95
941.55	223.94
941.85	223.93
942.15	223.95
942.45	223.98
942.75	223.98
943.04	223.98
943.34	224.01
943.64	224.00
943.94	223.98
944.24	223.98
944.54	223.99
944.84	223.99
945.13	223.98
945.43	223.96
945.73	223.95
946.03	223.94
946.33	223.93
946.62	223.92
946.92	223.92
947.22	223.92
947.52	223.93
947.82	223.94
948.11	223.93
948.41	223.90
948.71	223.87
949.01	223.88
949.31	223.88
949.60	223.87
949.90	223.88
950.20	223.88
950.50	223.88
950.79	223.87
951.09	223.88
951.39	223.88
951.69	223.87
951.98	223.89
952.28	223.90
952.58	223.90
952.87	223.90
953.17	223.92
953.47	223.91
953.76	223.90
954.06	223.89
954.36	223.88
954.66	223.88
954.95	223.91
955.25	223.91
955.55	223.92
955.84	223.91
956.14	223.91
956.44	223.92
956.73	223.91
957.03	223.91
957.32	223.92
957.62	223.91
957.92	223.94
958.21	223.93
958.51	224.04
958.81	224.05
959.10	224.06
959.40	224.08
959.69	224.09
959.99	224.10
960.29	224.11
960.58	224.10
960.88	224.14
961.17	224.13
961.47	224.13
961.76	224.12
962.06	224.14
962.36	224.13
962.65	224.13
962.95	224.14
963.24	224.13
963.54	224.13
963.83	224.14
964.13	224.13
964.42	224.12
964.72	224.03
965.01	224.03
965.31	224.02
965.60	224.00
965.90	224.06
966.19	224.03
966.49	224.04
966.78	224.04
967.08	224.03
967.37	224.03
967.67	224.01
967.96	224.02
968.26	224.02
968.55	224.03
968.85	224.03
969.14	224.03
969.43	224.03
969.73	224.02
970.02	224.01
970.32	224.00
970.61	223.99
970.91	223.96
971.20	223.95
971.49	223.94
971.79	223.95
972.08	223.88
972.38	223.89
972.67	223.88
972.96	223.89
973.26	223.87
973.55	223.91
973.85	223.90
974.14	223.89
974.43	223.90
974.73	223.88
975.02	223.87
975.31	223.87
975.61	223.87
975.90	223.86
976.19	223.85
976.49	223.86
976.78	223.87
977.07	223.87
977.37	223.88
977.66	223.89
977.95	223.87
978.24	223.89
978.54	223.90
978.83	223.90
979.12	223.89
979.42	223.89
979.71	223.86
980.00	223.86
980.29	223.87
980.59	223.84
980.88	223.87
981.17	223.87
981.46	223.87
981.76	223.87
982.05	223.90
982.34	223.91
982.63	223.91
982.93	223.91
983.22	223.93
983.51	223.93
983.80	223.95
984.09	223.96
984.39	223.95
984.68	223.94
984.97	223.94
985.26	223.93
985.55	223.94
985.85	223.92
986.14	223.94
986.43	223.95
986.72	223.95
987.01	223.92
987.30	223.92
987.59	223.91
987.89	223.91
988.18	223.88
988.47	223.87
988.76	223.87
989.05	223.86
989.34	223.84
989.63	223.87
989.92	223.85
990.22	223.83
990.51	223.83
990.80	223.83
991.09	223.84
991.38	223.85
991.67	223.84
991.96	223.83
992.25	223.83
992.54	223.81
992.83	223.82
993.12	223.81
993.41	223.83
993.70	223.87
993.99	223.89
994.28	223.90
994.58	223.92
994.87	223.90
995.16	223.90
995.45	223.89
995.74	223.85
996.03	223.87
996.32	223.88
996.61	223.90
996.90	223.90
997.19	223.89
997.48	223.89
997.77	223.88
998.06	223.89
998.34	223.88
998.63	223.88
998.92	223.88
999.21	223.89
999.50	223.89
999.79	223.86
1000.08	223.85
1000.37	223.85
1000.66	223.83
1000.95	223.86
1001.24	223.87
1001.53	223.89
1001.82	223.88
1002.11	223.86
1002.40	223.86
1002.68	223.88
1002.97	223.95
1003.26	223.95
1003.55	223.93
1003.84	223.95
1004.13	223.97
1004.42	223.97
1004.71	223.97
1004.99	223.96
1005.28	223.98
1005.57	223.98
1005.86	223.97
1006.15	223.96
1006.44	223.94
1006.72	223.96
1007.01	223.94
1007.30	223.94
1007.59	223.93
1007.88	223.93
1008.17	223.94
1008.45	223.91
1008.74	223.88
1009.03	223.83
1009.32	223.83
1009.60	223.83
1009.89	223.82
1010.18	223.78
1010.47	223.78
1010.76	223.78
1011.04	223.78
1011.33	223.77
1011.62	223.78
1011.91	223.79
1012.19	223.80
1012.48	223.80
1012.77	223.80
1013.05	223.83
1013.34	223.83
1013.63	223.83
1013.92	223.84
1014.20	223.84
1014.49	223.84
1014.78	223.85
1015.06	223.82
1015.35	223.83
1015.64	223.84
1015.92	223.86
1016.21	223.86
1016.50	223.86
1016.78	223.87
1017.07	223.88
1017.36	223.86
1017.64	223.85
1017.93	223.86
1018.22	223.85
1018.50	223.85
1018.79	223.84
1019.08	223.81
1019.36	223.81
1019.65	223.80
1019.93	223.83
1020.22	223.84
1020.51	223.89
1020.79	223.88
1021.08	223.63
1021.36	223.66
1021.65	223.83
1021.94	223.78
1022.22	223.92
1022.51	223.63
1022.79	224.28
1023.08	223.98
1023.36	225.04
1023.65	223.58
>>>>>End Processed Spectral Data<<<<<
