SpectraSuite Data File
++++++++++++++++++++++++++++++++++++
Date: Wed Sep 30 14:08:11 EDT 2015
User: lab3
Dark Spectrum Present: No
Reference Spectrum Present: No
Number of Sampled Component Spectra: 1
Spectrometers: USB2E7196
Integration Time (usec): 36000 (USB2E7196)
Spectra Averaged: 270 (USB2E7196)
Boxcar Smoothing: 10 (USB2E7196)
Correct for Electrical Dark: No (USB2E7196)
Strobe/Lamp Enabled: No (USB2E7196)
Correct for Detector Non-linearity: No (USB2E7196)
Correct for Stray Light: No (USB2E7196)
Number of Pixels in Processed Spectrum: 2048
>>>>>Begin Processed Spectral Data<<<<<
339.09	0.00
339.48	210.93
339.86	212.27
340.24	213.82
340.63	215.18
341.01	218.19
341.39	217.79
341.78	219.24
342.16	220.20
342.54	220.94
342.93	209.45
343.31	220.03
343.69	220.55
344.07	221.04
344.46	221.46
344.84	221.84
345.22	222.07
345.60	222.34
345.99	222.53
346.37	222.68
346.75	222.79
347.13	222.87
347.52	222.95
347.90	223.02
348.28	223.05
348.66	223.11
349.05	223.12
349.43	223.15
349.81	223.19
350.19	223.24
350.57	223.30
350.96	223.39
351.34	223.48
351.72	223.59
352.10	223.67
352.48	223.75
352.87	223.81
353.25	223.86
353.63	223.91
354.01	223.97
354.39	224.04
354.77	224.09
355.15	224.18
355.54	224.21
355.92	224.26
356.30	224.33
356.68	224.47
357.06	224.54
357.44	224.61
357.82	224.69
358.20	224.78
358.58	224.84
358.97	224.88
359.35	224.97
359.73	225.05
360.11	225.11
360.49	225.15
360.87	225.21
361.25	225.30
361.63	225.40
362.01	225.46
362.39	225.51
362.77	225.58
363.15	225.62
363.53	225.65
363.91	225.69
364.29	225.70
364.67	225.64
365.05	225.66
365.43	225.68
365.81	225.70
366.19	225.74
366.57	225.79
366.95	225.80
367.33	225.78
367.71	225.80
368.09	225.80
368.47	225.82
368.85	225.80
369.23	225.81
369.61	225.75
369.99	225.75
370.37	225.74
370.75	225.80
371.13	225.77
371.51	225.74
371.89	225.73
372.27	225.72
372.65	225.68
373.03	225.65
373.41	225.62
373.78	225.57
374.16	225.49
374.54	225.43
374.92	225.38
375.30	225.34
375.68	225.26
376.06	225.23
376.44	225.14
376.82	225.10
377.19	225.03
377.57	224.98
377.95	224.91
378.33	224.85
378.71	224.69
379.09	224.65
379.47	224.61
379.84	224.55
380.22	224.50
380.60	224.42
380.98	224.37
381.36	224.30
381.73	224.24
382.11	224.19
382.49	224.13
382.87	224.08
383.25	224.01
383.62	224.06
384.00	223.99
384.38	223.96
384.76	223.94
385.13	223.92
385.51	223.87
385.89	223.81
386.27	223.78
386.64	223.75
387.02	223.69
387.40	223.64
387.78	223.59
388.15	223.57
388.53	223.56
388.91	223.52
389.29	223.49
389.66	223.47
390.04	223.42
390.42	223.41
390.79	223.40
391.17	223.40
391.55	223.29
391.92	223.28
392.30	223.29
392.68	223.25
393.05	223.23
393.43	223.23
393.81	223.23
394.18	223.21
394.56	223.19
394.94	223.22
395.31	223.20
395.69	223.24
396.06	223.25
396.44	223.26
396.82	223.26
397.19	223.33
397.57	223.37
397.95	223.42
398.32	223.41
398.70	223.43
399.07	223.47
399.45	223.50
399.82	223.54
400.20	223.56
400.58	223.61
400.95	223.63
401.33	223.69
401.70	223.82
402.08	223.89
402.45	223.98
402.83	224.08
403.20	224.22
403.58	224.31
403.95	224.44
404.33	224.58
404.71	224.72
405.08	224.89
405.46	225.01
405.83	225.17
406.21	225.35
406.58	225.54
406.96	225.71
407.33	225.91
407.70	226.14
408.08	226.47
408.45	226.76
408.83	227.05
409.20	227.37
409.58	227.62
409.95	227.98
410.33	228.34
410.70	228.69
411.08	229.08
411.45	229.52
411.82	229.95
412.20	230.44
412.57	231.03
412.95	231.50
413.32	232.13
413.69	232.76
414.07	233.43
414.44	234.17
414.82	234.93
415.19	235.82
415.56	236.72
415.94	237.64
416.31	238.68
416.68	239.74
417.06	240.94
417.43	242.06
417.81	243.36
418.18	244.68
418.55	246.14
418.93	247.66
419.30	249.21
419.67	250.87
420.04	252.60
420.42	254.41
420.79	256.50
421.16	258.60
421.54	260.72
421.91	262.95
422.28	265.26
422.66	267.75
423.03	270.14
423.40	272.60
423.77	275.30
424.15	278.04
424.52	280.88
424.89	283.96
425.26	287.05
425.64	289.94
426.01	293.16
426.38	296.44
426.75	299.84
427.13	303.35
427.50	307.01
427.87	310.79
428.24	314.61
428.61	318.27
428.99	322.23
429.36	326.55
429.73	330.69
430.10	334.84
430.47	339.08
430.85	343.40
431.22	348.05
431.59	352.79
431.96	357.43
432.33	362.59
432.70	367.47
433.08	373.26
433.45	378.70
433.82	384.07
434.19	390.07
434.56	395.96
434.93	401.64
435.30	407.30
435.68	413.61
436.05	419.78
436.42	425.99
436.79	431.62
437.16	437.75
437.53	444.26
437.90	450.76
438.27	457.15
438.64	464.02
439.01	470.24
439.38	475.89
439.75	481.37
440.13	487.56
440.50	493.45
440.87	498.10
441.24	503.22
441.61	508.81
441.98	512.92
442.35	517.79
442.72	522.80
443.09	527.50
443.46	530.54
443.83	532.79
444.20	534.60
444.57	537.31
444.94	538.87
445.31	540.51
445.68	541.95
446.05	542.94
446.42	542.73
446.79	542.44
447.16	542.17
447.53	541.92
447.90	540.07
448.27	538.31
448.64	535.57
449.01	533.75
449.37	529.85
449.74	526.31
450.11	521.77
450.48	516.67
450.85	511.65
451.22	507.38
451.59	503.12
451.96	499.33
452.33	493.79
452.70	488.81
453.07	482.77
453.43	476.70
453.80	470.84
454.17	465.19
454.54	459.90
454.91	453.98
455.28	448.40
455.65	443.14
456.02	437.57
456.38	433.05
456.75	427.23
457.12	422.59
457.49	417.88
457.86	413.36
458.23	409.44
458.59	405.08
458.96	400.61
459.33	396.73
459.70	392.76
460.07	389.73
460.43	386.19
460.80	382.83
461.17	379.91
461.54	376.74
461.91	373.78
462.27	370.79
462.64	368.35
463.01	365.51
463.38	362.67
463.74	360.10
464.11	357.80
464.48	355.74
464.85	353.48
465.21	351.73
465.58	349.84
465.95	347.66
466.32	345.91
466.68	344.22
467.05	342.49
467.42	340.81
467.78	338.99
468.15	337.30
468.52	336.07
468.88	334.43
469.25	332.97
469.62	331.78
469.98	330.51
470.35	329.38
470.72	328.39
471.08	327.38
471.45	326.51
471.82	325.57
472.18	324.56
472.55	323.93
472.92	323.14
473.28	322.51
473.65	321.87
474.02	321.30
474.38	320.78
474.75	320.50
475.11	320.10
475.48	319.97
475.85	319.79
476.21	319.72
476.58	319.73
476.94	319.92
477.31	320.06
477.67	320.21
478.04	320.46
478.41	320.77
478.77	321.20
479.14	321.49
479.50	322.05
479.87	322.73
480.23	323.44
480.60	324.14
480.96	324.85
481.33	325.83
481.69	326.78
482.06	327.73
482.42	328.66
482.79	329.75
483.15	331.02
483.52	332.46
483.88	333.86
484.25	335.33
484.61	336.83
484.98	338.46
485.34	340.29
485.71	342.21
486.07	344.23
486.44	346.22
486.80	348.50
487.17	350.77
487.53	353.28
487.90	355.88
488.26	358.66
488.62	361.62
488.99	364.62
489.35	367.75
489.72	371.18
490.08	374.71
490.44	378.34
490.81	382.14
491.17	386.06
491.54	390.18
491.90	394.43
492.26	398.94
492.63	403.70
492.99	408.71
493.36	413.83
493.72	419.27
494.08	424.88
494.45	430.77
494.81	436.86
495.17	443.06
495.54	449.63
495.90	456.57
496.26	463.60
496.63	470.85
496.99	478.35
497.35	486.14
497.72	494.22
498.08	502.56
498.44	511.10
498.80	520.14
499.17	529.53
499.53	539.27
499.89	549.24
500.26	559.36
500.62	569.67
500.98	580.65
501.34	591.76
501.71	603.33
502.07	615.11
502.43	627.38
502.79	640.03
503.16	653.07
503.52	666.21
503.88	679.81
504.24	693.75
504.60	707.95
504.97	722.58
505.33	737.57
505.69	753.28
506.05	769.24
506.41	785.42
506.78	801.80
507.14	818.70
507.50	836.03
507.86	853.69
508.22	871.61
508.59	889.61
508.95	908.17
509.31	927.22
509.67	947.08
510.03	967.01
510.39	987.07
510.75	1007.27
511.12	1027.85
511.48	1048.56
511.84	1069.68
512.20	1090.95
512.56	1113.06
512.92	1135.38
513.28	1157.56
513.64	1180.06
514.00	1202.89
514.37	1226.35
514.73	1249.77
515.09	1272.93
515.45	1296.31
515.81	1319.96
516.17	1343.75
516.53	1367.41
516.89	1390.88
517.25	1414.21
517.61	1437.85
517.97	1461.67
518.33	1485.64
518.69	1509.69
519.05	1534.15
519.41	1558.37
519.77	1583.14
520.13	1607.11
520.49	1631.18
520.85	1655.15
521.21	1679.14
521.57	1703.63
521.93	1727.19
522.29	1751.24
522.65	1775.15
523.01	1799.25
523.37	1822.65
523.73	1846.58
524.09	1870.34
524.45	1894.20
524.81	1917.94
525.17	1941.02
525.53	1963.98
525.89	1986.73
526.25	2009.55
526.61	2031.00
526.97	2052.79
527.33	2074.27
527.68	2095.79
528.04	2116.89
528.40	2137.92
528.76	2158.61
529.12	2178.62
529.48	2199.43
529.84	2218.02
530.20	2237.20
530.56	2255.72
530.91	2274.96
531.27	2293.59
531.63	2311.45
531.99	2328.91
532.35	2345.80
532.71	2363.62
533.07	2381.77
533.42	2398.17
533.78	2414.96
534.14	2432.29
534.50	2448.83
534.86	2465.71
535.21	2480.59
535.57	2495.39
535.93	2509.70
536.29	2523.54
536.65	2536.85
537.00	2548.87
537.36	2561.91
537.72	2573.66
538.08	2585.48
538.44	2595.98
538.79	2605.99
539.15	2615.13
539.51	2624.14
539.87	2632.19
540.22	2637.87
540.58	2643.47
540.94	2649.79
541.29	2654.98
541.65	2659.84
542.01	2664.55
542.37	2667.22
542.72	2671.37
543.08	2674.55
543.44	2677.52
543.79	2679.75
544.15	2681.71
544.51	2683.00
544.87	2684.35
545.22	2685.17
545.58	2684.72
545.94	2684.33
546.29	2682.85
546.65	2681.60
547.01	2680.22
547.36	2679.22
547.72	2678.58
548.07	2676.93
548.43	2673.65
548.79	2670.26
549.14	2666.82
549.50	2663.47
549.86	2660.02
550.21	2655.37
550.57	2651.09
550.92	2645.60
551.28	2639.90
551.64	2634.14
551.99	2628.73
552.35	2622.07
552.70	2615.70
553.06	2610.12
553.41	2604.30
553.77	2598.21
554.13	2592.08
554.48	2584.69
554.84	2576.28
555.19	2567.80
555.55	2558.68
555.90	2550.86
556.26	2542.97
556.61	2534.29
556.97	2524.22
557.32	2514.41
557.68	2504.71
558.03	2494.54
558.39	2485.34
558.74	2477.00
559.10	2467.07
559.45	2457.06
559.81	2447.62
560.16	2437.70
560.52	2427.35
560.87	2417.12
561.23	2406.41
561.58	2396.24
561.94	2385.92
562.29	2375.38
562.64	2365.32
563.00	2355.31
563.35	2345.12
563.71	2334.32
564.06	2323.74
564.42	2313.46
564.77	2302.98
565.12	2292.34
565.48	2281.52
565.83	2270.22
566.19	2258.37
566.54	2247.41
566.89	2235.58
567.25	2223.74
567.60	2212.76
567.96	2201.30
568.31	2188.85
568.66	2176.85
569.02	2165.11
569.37	2153.74
569.72	2143.24
570.08	2131.59
570.43	2119.66
570.78	2107.56
571.14	2095.37
571.49	2082.88
571.84	2070.62
572.20	2057.66
572.55	2044.70
572.90	2032.14
573.26	2020.09
573.61	2007.26
573.96	1994.66
574.31	1982.48
574.67	1970.23
575.02	1957.00
575.37	1943.78
575.72	1930.99
576.08	1918.23
576.43	1904.78
576.78	1891.47
577.13	1877.87
577.49	1864.70
577.84	1851.62
578.19	1838.66
578.54	1825.37
578.90	1811.76
579.25	1798.04
579.60	1785.41
579.95	1773.05
580.30	1760.37
580.66	1747.13
581.01	1734.02
581.36	1720.56
581.71	1707.49
582.06	1694.64
582.42	1682.13
582.77	1669.61
583.12	1657.36
583.47	1645.51
583.82	1633.28
584.17	1620.20
584.53	1607.34
584.88	1594.78
585.23	1582.18
585.58	1569.47
585.93	1557.26
586.28	1545.75
586.63	1534.02
586.98	1521.83
587.34	1509.65
587.69	1497.10
588.04	1484.90
588.39	1473.17
588.74	1461.14
589.09	1449.59
589.44	1437.34
589.79	1425.22
590.14	1413.22
590.49	1401.21
590.84	1389.24
591.19	1377.95
591.54	1366.70
591.89	1355.20
592.25	1344.12
592.60	1332.69
592.95	1321.73
593.30	1310.60
593.65	1299.55
594.00	1288.75
594.35	1278.42
594.70	1267.32
595.05	1257.02
595.40	1246.48
595.75	1235.75
596.10	1225.71
596.45	1215.22
596.80	1205.44
597.15	1195.78
597.50	1186.12
597.85	1176.86
598.19	1167.51
598.54	1157.75
598.89	1148.63
599.24	1139.86
599.59	1130.99
599.94	1122.66
600.29	1114.09
600.64	1105.57
600.99	1096.42
601.34	1087.82
601.69	1078.95
602.04	1071.06
602.39	1062.69
602.74	1054.78
603.08	1047.18
603.43	1039.36
603.78	1031.47
604.13	1023.62
604.48	1015.58
604.83	1007.90
605.18	999.93
605.53	991.87
605.87	983.93
606.22	976.29
606.57	968.42
606.92	960.38
607.27	952.56
607.62	944.92
607.96	937.42
608.31	930.88
608.66	924.00
609.01	917.17
609.36	910.23
609.70	903.47
610.05	896.51
610.40	889.67
610.75	882.68
611.10	876.11
611.44	869.33
611.79	862.86
612.14	856.24
612.49	849.53
612.83	843.31
613.18	837.19
613.53	831.11
613.88	825.13
614.22	819.40
614.57	813.48
614.92	807.62
615.27	801.84
615.61	795.64
615.96	789.54
616.31	783.62
616.65	777.58
617.00	771.59
617.35	765.69
617.70	759.87
618.04	754.23
618.39	748.48
618.74	742.98
619.08	737.35
619.43	731.81
619.78	726.42
620.12	720.87
620.47	715.53
620.82	710.18
621.16	704.94
621.51	699.57
621.85	694.27
622.20	688.90
622.55	683.53
622.89	678.26
623.24	673.18
623.59	668.21
623.93	663.46
624.28	658.86
624.62	654.25
624.97	649.58
625.32	644.97
625.66	640.17
626.01	635.38
626.35	630.74
626.70	626.12
627.04	621.71
627.39	617.28
627.73	612.88
628.08	608.56
628.43	604.24
628.77	599.98
629.12	595.80
629.46	591.78
629.81	587.71
630.15	583.68
630.50	579.70
630.84	575.76
631.19	571.89
631.53	568.18
631.88	564.37
632.22	560.50
632.57	556.86
632.91	553.31
633.26	549.73
633.60	546.17
633.95	542.69
634.29	539.15
634.64	535.67
634.98	532.12
635.32	528.66
635.67	525.41
636.01	522.19
636.36	518.95
636.70	515.83
637.05	512.74
637.39	509.69
637.73	506.43
638.08	503.26
638.42	500.18
638.77	496.90
639.11	493.58
639.45	490.40
639.80	487.21
640.14	484.15
640.49	481.14
640.83	478.09
641.17	475.10
641.52	472.11
641.86	469.06
642.20	466.17
642.55	463.16
642.89	460.21
643.23	457.40
643.58	454.77
643.92	452.01
644.26	449.29
644.61	446.62
644.95	443.98
645.29	441.30
645.64	438.51
645.98	435.86
646.32	433.35
646.66	430.85
647.01	428.38
647.35	426.05
647.69	423.62
648.04	421.26
648.38	418.87
648.72	416.55
649.06	414.29
649.41	412.01
649.75	409.80
650.09	407.49
650.43	405.24
650.78	402.99
651.12	400.74
651.46	398.55
651.80	396.42
652.14	394.39
652.49	392.38
652.83	390.43
653.17	388.51
653.51	386.69
653.85	384.85
654.20	382.98
654.54	380.97
654.88	379.05
655.22	377.18
655.56	375.39
655.90	373.64
656.25	371.90
656.59	370.16
656.93	368.48
657.27	366.94
657.61	365.26
657.95	363.62
658.29	362.01
658.64	360.47
658.98	358.82
659.32	357.17
659.66	355.62
660.00	354.10
660.34	352.57
660.68	351.03
661.02	349.48
661.36	347.97
661.70	346.53
662.05	345.14
662.39	343.75
662.73	342.41
663.07	341.11
663.41	339.84
663.75	338.58
664.09	337.32
664.43	336.00
664.77	334.73
665.11	333.36
665.45	332.11
665.79	330.86
666.13	329.67
666.47	328.53
666.81	327.32
667.15	326.05
667.49	324.90
667.83	323.74
668.17	322.62
668.51	321.52
668.85	320.44
669.19	319.39
669.53	318.28
669.87	317.09
670.21	315.95
670.55	314.88
670.89	313.85
671.23	312.81
671.57	311.76
671.91	310.80
672.25	309.92
672.58	309.03
672.92	308.09
673.26	307.20
673.60	306.32
673.94	305.43
674.28	304.59
674.62	303.70
674.96	302.78
675.30	301.95
675.64	301.12
675.97	300.28
676.31	299.41
676.65	298.56
676.99	297.85
677.33	297.05
677.67	296.20
678.01	295.36
678.34	294.57
678.68	293.82
679.02	293.04
679.36	292.25
679.70	291.42
680.04	290.64
680.37	289.87
680.71	289.12
681.05	288.41
681.39	287.73
681.73	287.00
682.06	286.32
682.40	285.60
682.74	284.94
683.08	284.29
683.42	283.62
683.75	283.02
684.09	282.33
684.43	281.65
684.77	281.02
685.10	280.41
685.44	279.80
685.78	279.18
686.12	278.58
686.45	278.00
686.79	277.40
687.13	276.81
687.46	276.20
687.80	275.61
688.14	274.99
688.48	274.40
688.81	273.81
689.15	273.27
689.49	272.70
689.82	272.09
690.16	271.46
690.50	270.88
690.83	270.29
691.17	269.71
691.51	269.19
691.84	268.66
692.18	268.09
692.52	267.51
692.85	266.96
693.19	266.47
693.52	265.93
693.86	265.41
694.20	264.89
694.53	264.38
694.87	263.86
695.21	263.36
695.54	262.85
695.88	262.36
696.21	261.83
696.55	261.36
696.88	260.91
697.22	260.44
697.56	260.02
697.89	259.55
698.23	259.13
698.56	258.68
698.90	258.28
699.23	257.88
699.57	257.49
699.90	257.08
700.24	256.65
700.58	256.26
700.91	255.90
701.25	255.63
701.58	255.30
701.92	254.96
702.25	254.60
702.59	254.22
702.92	253.87
703.26	253.51
703.59	253.13
703.93	252.86
704.26	252.51
704.60	252.15
704.93	251.80
705.26	251.41
705.60	251.10
705.93	250.72
706.27	250.41
706.60	250.10
706.94	249.83
707.27	249.47
707.61	249.13
707.94	248.78
708.27	248.37
708.61	248.02
708.94	247.66
709.28	247.33
709.61	247.04
709.94	246.75
710.28	246.49
710.61	246.23
710.95	245.87
711.28	245.68
711.61	245.40
711.95	245.16
712.28	244.90
712.61	244.64
712.95	244.46
713.28	244.23
713.61	243.96
713.95	243.68
714.28	243.45
714.61	243.20
714.95	242.95
715.28	242.70
715.61	242.46
715.95	242.25
716.28	242.05
716.61	241.86
716.95	241.63
717.28	241.41
717.61	241.17
717.94	240.97
718.28	240.70
718.61	240.52
718.94	240.30
719.27	240.11
719.61	239.91
719.94	239.68
720.27	239.44
720.60	239.26
720.94	239.06
721.27	238.88
721.60	238.73
721.93	238.56
722.27	238.42
722.60	238.24
722.93	238.05
723.26	237.87
723.59	237.69
723.93	237.55
724.26	237.37
724.59	237.21
724.92	237.05
725.25	236.90
725.59	236.73
725.92	236.60
726.25	236.46
726.58	236.30
726.91	236.14
727.24	236.01
727.57	235.87
727.91	235.71
728.24	235.59
728.57	235.45
728.90	235.32
729.23	235.17
729.56	235.09
729.89	234.97
730.22	234.83
730.55	234.70
730.89	234.56
731.22	234.44
731.55	234.32
731.88	234.19
732.21	234.04
732.54	233.90
732.87	233.79
733.20	233.69
733.53	233.57
733.86	233.49
734.19	233.35
734.52	233.26
734.85	233.23
735.18	233.09
735.51	233.01
735.84	232.91
736.17	232.83
736.50	232.69
736.83	232.71
737.16	232.60
737.49	232.52
737.82	232.41
738.15	232.33
738.48	232.25
738.81	232.17
739.14	232.07
739.47	231.96
739.80	231.86
740.13	231.77
740.46	231.67
740.79	231.54
741.12	231.43
741.45	231.31
741.78	231.16
742.11	231.09
742.44	230.96
742.77	230.87
743.10	230.74
743.43	230.66
743.75	230.46
744.08	230.54
744.41	230.43
744.74	230.35
745.07	230.24
745.40	230.18
745.73	230.14
746.06	230.08
746.39	230.03
746.71	229.95
747.04	229.87
747.37	229.81
747.70	229.75
748.03	229.71
748.36	229.66
748.68	229.59
749.01	229.50
749.34	229.45
749.67	229.40
750.00	229.36
750.33	229.36
750.65	229.32
750.98	229.11
751.31	229.05
751.64	228.98
751.97	228.98
752.29	228.90
752.62	228.79
752.95	228.71
753.28	228.64
753.60	228.56
753.93	228.51
754.26	228.44
754.59	228.36
754.91	228.28
755.24	228.22
755.57	228.20
755.90	228.15
756.22	228.07
756.55	227.97
756.88	227.90
757.20	227.78
757.53	227.69
757.86	227.62
758.19	227.57
758.51	227.52
758.84	227.40
759.17	227.32
759.49	227.27
759.82	227.28
760.15	227.23
760.47	227.20
760.80	227.13
761.13	227.10
761.45	227.08
761.78	227.05
762.11	227.00
762.43	226.89
762.76	226.84
763.08	226.80
763.41	226.77
763.74	226.75
764.06	226.69
764.39	226.64
764.71	226.61
765.04	226.57
765.37	226.54
765.69	226.52
766.02	226.48
766.34	226.42
766.67	226.36
767.00	226.34
767.32	226.36
767.65	226.40
767.97	226.34
768.30	226.30
768.62	226.25
768.95	226.19
769.27	226.16
769.60	226.14
769.92	226.11
770.25	226.08
770.57	226.01
770.90	225.99
771.22	225.95
771.55	225.91
771.87	225.87
772.20	225.84
772.52	225.90
772.85	226.00
773.17	225.98
773.50	225.94
773.82	225.90
774.15	225.80
774.47	225.71
774.80	225.68
775.12	225.64
775.45	225.62
775.77	225.62
776.09	225.63
776.42	225.60
776.74	225.60
777.07	225.55
777.39	225.53
777.72	225.50
778.04	225.49
778.36	225.46
778.69	225.44
779.01	225.42
779.33	225.30
779.66	225.15
779.98	225.11
780.31	225.08
780.63	225.09
780.95	225.10
781.28	225.05
781.60	225.02
781.92	225.00
782.25	224.96
782.57	224.91
782.89	224.87
783.22	224.84
783.54	224.80
783.86	224.78
784.19	224.75
784.51	224.78
784.83	224.74
785.16	224.71
785.48	224.69
785.80	224.67
786.12	224.68
786.45	224.66
786.77	224.67
787.09	224.66
787.42	224.61
787.74	224.60
788.06	224.61
788.38	224.59
788.71	224.57
789.03	224.57
789.35	224.61
789.67	224.57
789.99	224.57
790.32	224.56
790.64	224.57
790.96	224.65
791.28	224.59
791.61	224.57
791.93	224.58
792.25	224.57
792.57	224.63
792.89	224.60
793.21	224.60
793.54	224.56
793.86	224.54
794.18	224.53
794.50	224.50
794.82	224.46
795.14	224.48
795.47	224.50
795.79	224.50
796.11	224.43
796.43	224.41
796.75	224.40
797.07	224.40
797.39	224.38
797.71	224.28
798.04	224.26
798.36	224.27
798.68	224.25
799.00	224.23
799.32	224.18
799.64	224.20
799.96	224.17
800.28	224.18
800.60	224.17
800.92	224.17
801.24	224.14
801.56	224.13
801.89	224.10
802.21	224.10
802.53	224.08
802.85	224.10
803.17	224.13
803.49	224.09
803.81	224.07
804.13	224.06
804.45	224.05
804.77	224.05
805.09	224.05
805.41	224.02
805.73	223.99
806.05	223.95
806.37	223.92
806.69	223.90
807.01	223.88
807.33	223.87
807.65	223.82
807.97	223.87
808.28	223.84
808.60	223.83
808.92	223.81
809.24	223.87
809.56	223.84
809.88	223.78
810.20	223.78
810.52	223.79
810.84	223.78
811.16	223.77
811.48	223.74
811.80	223.76
812.12	223.76
812.43	223.77
812.75	223.74
813.07	223.73
813.39	223.74
813.71	223.72
814.03	223.72
814.35	223.72
814.67	223.65
814.98	223.66
815.30	223.65
815.62	223.61
815.94	223.52
816.26	223.53
816.58	223.52
816.89	223.52
817.21	223.49
817.53	223.48
817.85	223.45
818.17	223.45
818.48	223.41
818.80	223.43
819.12	223.41
819.44	223.39
819.76	223.39
820.07	223.37
820.39	223.36
820.71	223.34
821.03	223.35
821.34	223.35
821.66	223.36
821.98	223.37
822.30	223.37
822.61	223.44
822.93	223.42
823.25	223.42
823.57	223.41
823.88	223.43
824.20	223.41
824.52	223.43
824.83	223.44
825.15	223.42
825.47	223.39
825.79	223.39
826.10	223.39
826.42	223.37
826.74	223.37
827.05	223.35
827.37	223.35
827.69	223.36
828.00	223.38
828.32	223.37
828.64	223.35
828.95	223.41
829.27	223.36
829.58	223.36
829.90	223.36
830.22	223.38
830.53	223.36
830.85	223.35
831.17	223.33
831.48	223.33
831.80	223.35
832.11	223.36
832.43	223.36
832.75	223.38
833.06	223.44
833.38	223.40
833.69	223.41
834.01	223.44
834.32	223.43
834.64	223.43
834.96	223.41
835.27	223.41
835.59	223.36
835.90	223.36
836.22	223.35
836.53	223.35
836.85	223.32
837.16	223.42
837.48	223.43
837.79	223.47
838.11	223.48
838.42	223.47
838.74	223.47
839.05	223.45
839.37	223.44
839.68	223.38
840.00	223.37
840.31	223.39
840.63	223.36
840.94	223.36
841.26	223.32
841.57	223.32
841.88	223.34
842.20	223.33
842.51	223.31
842.83	223.32
843.14	223.42
843.46	223.42
843.77	223.34
844.08	223.33
844.40	223.28
844.71	223.27
845.03	223.26
845.34	223.27
845.65	223.27
845.97	223.25
846.28	223.26
846.60	223.27
846.91	223.24
847.22	223.24
847.54	223.24
847.85	223.25
848.16	223.25
848.48	223.22
848.79	223.27
849.10	223.30
849.42	223.29
849.73	223.16
850.04	223.17
850.36	223.14
850.67	223.18
850.98	223.18
851.30	223.18
851.61	223.17
851.92	223.15
852.23	223.18
852.55	223.20
852.86	223.19
853.17	223.20
853.49	223.23
853.80	223.26
854.11	223.26
854.42	223.28
854.74	223.25
855.05	223.24
855.36	223.17
855.67	223.15
855.99	223.15
856.30	223.29
856.61	223.27
856.92	223.29
857.23	223.27
857.55	223.26
857.86	223.26
858.17	223.27
858.48	223.26
858.79	223.24
859.11	223.23
859.42	223.24
859.73	223.20
860.04	223.20
860.35	223.16
860.66	223.13
860.98	223.13
861.29	223.17
861.60	223.17
861.91	223.19
862.22	223.18
862.53	223.15
862.84	223.02
863.16	223.03
863.47	223.01
863.78	222.99
864.09	222.99
864.40	223.00
864.71	223.02
865.02	223.03
865.33	223.00
865.64	222.98
865.95	222.98
866.27	223.05
866.58	223.04
866.89	223.06
867.20	223.07
867.51	223.05
867.82	223.03
868.13	223.07
868.44	223.05
868.75	223.06
869.06	223.07
869.37	223.09
869.68	223.08
869.99	223.09
870.30	223.10
870.61	223.10
870.92	223.07
871.23	223.04
871.54	223.04
871.85	223.06
872.16	223.09
872.47	223.06
872.78	223.01
873.09	223.02
873.40	222.99
873.71	222.99
874.02	223.00
874.33	222.99
874.64	222.96
874.95	222.97
875.26	222.95
875.56	222.94
875.87	222.92
876.18	222.91
876.49	223.00
876.80	222.99
877.11	222.98
877.42	223.00
877.73	223.00
878.04	222.98
878.35	222.99
878.66	222.97
878.96	222.98
879.27	222.99
879.58	222.97
879.89	222.96
880.20	223.00
880.51	222.99
880.82	222.98
881.12	223.02
881.43	222.99
881.74	222.97
882.05	222.99
882.36	223.01
882.67	223.01
882.97	222.92
883.28	222.93
883.59	222.94
883.90	222.94
884.21	222.95
884.51	222.96
884.82	222.93
885.13	222.95
885.44	222.94
885.74	222.93
886.05	222.92
886.36	222.95
886.67	222.90
886.98	222.97
887.28	222.99
887.59	222.95
887.90	222.97
888.20	222.97
888.51	222.99
888.82	222.96
889.13	222.96
889.43	223.05
889.74	223.02
890.05	223.02
890.35	223.02
890.66	223.00
890.97	222.98
891.28	222.97
891.58	222.98
891.89	222.98
892.20	222.98
892.50	222.97
892.81	222.96
893.12	222.97
893.42	222.90
893.73	222.89
894.04	222.90
894.34	222.93
894.65	222.92
894.95	222.90
895.26	222.90
895.57	222.95
895.87	222.84
896.18	222.85
896.48	222.84
896.79	222.82
897.10	222.83
897.40	222.86
897.71	222.86
898.01	222.83
898.32	222.87
898.63	222.87
898.93	222.87
899.24	222.87
899.54	222.86
899.85	222.86
900.15	222.86
900.46	222.86
900.76	222.87
901.07	222.89
901.38	222.89
901.68	222.93
901.99	222.87
902.29	222.90
902.60	222.91
902.90	222.90
903.21	222.91
903.51	222.91
903.82	222.93
904.12	222.95
904.43	222.96
904.73	222.94
905.03	222.96
905.34	223.07
905.64	223.07
905.95	223.07
906.25	223.08
906.56	223.07
906.86	223.07
907.17	223.04
907.47	223.06
907.77	223.04
908.08	223.02
908.38	223.05
908.69	223.03
908.99	223.05
909.30	223.07
909.60	223.06
909.90	223.06
910.21	223.02
910.51	222.99
910.81	223.02
911.12	223.01
911.42	222.99
911.73	222.88
912.03	222.87
912.33	222.90
912.64	222.89
912.94	222.89
913.24	222.87
913.55	222.88
913.85	222.85
914.15	222.89
914.46	222.88
914.76	222.86
915.06	222.87
915.37	222.87
915.67	222.87
915.97	222.87
916.27	222.87
916.58	222.89
916.88	222.88
917.18	222.87
917.49	222.95
917.79	222.98
918.09	223.01
918.39	223.03
918.70	223.02
919.00	223.05
919.30	223.10
919.60	223.08
919.91	223.06
920.21	223.07
920.51	223.04
920.81	223.03
921.12	223.03
921.42	223.04
921.72	223.04
922.02	223.05
922.32	223.08
922.63	223.07
922.93	223.13
923.23	223.15
923.53	223.13
923.83	223.06
924.13	223.07
924.44	223.06
924.74	223.09
925.04	223.12
925.34	223.09
925.64	223.04
925.94	223.06
926.24	223.12
926.55	223.11
926.85	223.11
927.15	223.13
927.45	223.15
927.75	223.13
928.05	223.11
928.35	223.07
928.65	223.08
928.95	223.09
929.26	223.05
929.56	223.07
929.86	223.08
930.16	223.07
930.46	223.02
930.76	223.01
931.06	222.94
931.36	222.90
931.66	222.92
931.96	222.94
932.26	222.94
932.56	222.90
932.86	222.92
933.16	222.93
933.46	222.92
933.76	222.89
934.06	222.90
934.36	222.95
934.66	222.95
934.96	222.94
935.26	222.93
935.56	222.94
935.86	222.91
936.16	222.89
936.46	222.89
936.76	222.89
937.06	222.89
937.36	222.90
937.66	222.91
937.96	222.90
938.26	222.89
938.56	222.86
938.86	222.85
939.16	222.88
939.46	222.90
939.76	222.91
940.06	222.91
940.35	222.88
940.65	222.82
940.95	222.84
941.25	222.81
941.55	222.80
941.85	222.79
942.15	222.81
942.45	222.83
942.75	222.82
943.04	222.82
943.34	222.85
943.64	222.84
943.94	222.83
944.24	222.82
944.54	222.83
944.84	222.86
945.13	222.83
945.43	222.79
945.73	222.77
946.03	222.75
946.33	222.73
946.62	222.74
946.92	222.75
947.22	222.75
947.52	222.77
947.82	222.75
948.11	222.74
948.41	222.73
948.71	222.72
949.01	222.73
949.31	222.73
949.60	222.71
949.90	222.71
950.20	222.69
950.50	222.70
950.79	222.67
951.09	222.69
951.39	222.71
951.69	222.71
951.98	222.73
952.28	222.74
952.58	222.76
952.87	222.77
953.17	222.78
953.47	222.77
953.76	222.75
954.06	222.76
954.36	222.75
954.66	222.76
954.95	222.78
955.25	222.76
955.55	222.76
955.84	222.75
956.14	222.77
956.44	222.79
956.73	222.79
957.03	222.81
957.32	222.80
957.62	222.78
957.92	222.80
958.21	222.79
958.51	222.92
958.81	222.92
959.10	222.92
959.40	222.95
959.69	222.95
959.99	222.98
960.29	222.97
960.58	222.96
960.88	222.99
961.17	222.98
961.47	223.01
961.76	223.01
962.06	223.03
962.36	222.99
962.65	222.98
962.95	222.97
963.24	222.96
963.54	222.95
963.83	222.94
964.13	222.92
964.42	222.91
964.72	222.81
965.01	222.81
965.31	222.80
965.60	222.76
965.90	222.82
966.19	222.80
966.49	222.80
966.78	222.78
967.08	222.77
967.37	222.75
967.67	222.73
967.96	222.74
968.26	222.72
968.55	222.76
968.85	222.77
969.14	222.75
969.43	222.75
969.73	222.74
970.02	222.76
970.32	222.75
970.61	222.74
970.91	222.70
971.20	222.68
971.49	222.68
971.79	222.69
972.08	222.61
972.38	222.61
972.67	222.59
972.96	222.60
973.26	222.58
973.55	222.59
973.85	222.58
974.14	222.57
974.43	222.58
974.73	222.55
975.02	222.53
975.31	222.53
975.61	222.51
975.90	222.51
976.19	222.48
976.49	222.50
976.78	222.50
977.07	222.50
977.37	222.51
977.66	222.50
977.95	222.47
978.24	222.48
978.54	222.48
978.83	222.50
979.12	222.51
979.42	222.51
979.71	222.51
980.00	222.51
980.29	222.51
980.59	222.49
980.88	222.52
981.17	222.53
981.46	222.54
981.76	222.56
982.05	222.59
982.34	222.61
982.63	222.60
982.93	222.61
983.22	222.64
983.51	222.65
983.80	222.66
984.09	222.70
984.39	222.68
984.68	222.70
984.97	222.71
985.26	222.69
985.55	222.69
985.85	222.67
986.14	222.70
986.43	222.72
986.72	222.72
987.01	222.69
987.30	222.68
987.59	222.69
987.89	222.68
988.18	222.65
988.47	222.63
988.76	222.61
989.05	222.59
989.34	222.58
989.63	222.60
989.92	222.59
990.22	222.56
990.51	222.58
990.80	222.55
991.09	222.56
991.38	222.59
991.67	222.57
991.96	222.55
992.25	222.55
992.54	222.51
992.83	222.51
993.12	222.51
993.41	222.54
993.70	222.57
993.99	222.59
994.28	222.61
994.58	222.62
994.87	222.62
995.16	222.62
995.45	222.61
995.74	222.55
996.03	222.57
996.32	222.56
996.61	222.58
996.90	222.58
997.19	222.55
997.48	222.54
997.77	222.54
998.06	222.54
998.34	222.53
998.63	222.53
998.92	222.52
999.21	222.52
999.50	222.53
999.79	222.48
1000.08	222.46
1000.37	222.44
1000.66	222.42
1000.95	222.45
1001.24	222.44
1001.53	222.47
1001.82	222.49
1002.11	222.46
1002.40	222.48
1002.68	222.52
1002.97	222.59
1003.26	222.57
1003.55	222.56
1003.84	222.57
1004.13	222.62
1004.42	222.62
1004.71	222.60
1004.99	222.62
1005.28	222.64
1005.57	222.62
1005.86	222.60
1006.15	222.60
1006.44	222.58
1006.72	222.60
1007.01	222.58
1007.30	222.58
1007.59	222.56
1007.88	222.55
1008.17	222.57
1008.45	222.56
1008.74	222.50
1009.03	222.44
1009.32	222.44
1009.60	222.43
1009.89	222.41
1010.18	222.37
1010.47	222.34
1010.76	222.37
1011.04	222.35
1011.33	222.35
1011.62	222.37
1011.91	222.40
1012.19	222.42
1012.48	222.44
1012.77	222.44
1013.05	222.49
1013.34	222.51
1013.63	222.53
1013.92	222.55
1014.20	222.54
1014.49	222.55
1014.78	222.55
1015.06	222.54
1015.35	222.54
1015.64	222.57
1015.92	222.59
1016.21	222.60
1016.50	222.62
1016.78	222.63
1017.07	222.65
1017.36	222.63
1017.64	222.63
1017.93	222.61
1018.22	222.60
1018.50	222.59
1018.79	222.59
1019.08	222.54
1019.36	222.55
1019.65	222.53
1019.93	222.55
1020.22	222.55
1020.51	222.59
1020.79	222.60
1021.08	222.44
1021.36	222.48
1021.65	222.46
1021.94	222.43
1022.22	222.83
1022.51	222.37
1022.79	223.27
1023.08	222.52
1023.36	223.59
1023.65	222.54
>>>>>End Processed Spectral Data<<<<<
