SpectraSuite Data File
++++++++++++++++++++++++++++++++++++
Date: Thu Oct 01 13:47:14 EDT 2015
User: lab3
Dark Spectrum Present: No
Reference Spectrum Present: No
Number of Sampled Component Spectra: 1
Spectrometers: USB2E7196
Integration Time (usec): 36000 (USB2E7196)
Spectra Averaged: 10000 (USB2E7196)
Boxcar Smoothing: 10 (USB2E7196)
Correct for Electrical Dark: No (USB2E7196)
Strobe/Lamp Enabled: No (USB2E7196)
Correct for Detector Non-linearity: No (USB2E7196)
Correct for Stray Light: No (USB2E7196)
Number of Pixels in Processed Spectrum: 2048
>>>>>Begin Processed Spectral Data<<<<<
339.09	0.00
339.48	211.29
339.86	212.78
340.24	214.18
340.63	215.56
341.01	218.49
341.39	218.24
341.78	219.62
342.16	220.72
342.54	221.23
342.93	209.83
343.31	220.43
343.69	220.96
344.07	221.43
344.46	221.85
344.84	222.24
345.22	222.48
345.60	222.74
345.99	222.93
346.37	223.07
346.75	223.18
347.13	223.25
347.52	223.32
347.90	223.40
348.28	223.43
348.66	223.49
349.05	223.49
349.43	223.54
349.81	223.59
350.19	223.65
350.57	223.72
350.96	223.80
351.34	223.89
351.72	223.99
352.10	224.09
352.48	224.17
352.87	224.22
353.25	224.28
353.63	224.35
354.01	224.41
354.39	224.49
354.77	224.56
355.15	224.67
355.54	224.72
355.92	224.76
356.30	224.83
356.68	224.97
357.06	225.04
357.44	225.09
357.82	225.15
358.20	225.26
358.58	225.32
358.97	225.38
359.35	225.46
359.73	225.54
360.11	225.59
360.49	225.65
360.87	225.70
361.25	225.76
361.63	225.84
362.01	225.89
362.39	225.92
362.77	225.97
363.15	225.99
363.53	226.03
363.91	226.06
364.29	226.08
364.67	226.00
365.05	226.03
365.43	226.06
365.81	226.09
366.19	226.11
366.57	226.15
366.95	226.15
367.33	226.13
367.71	226.12
368.09	226.14
368.47	226.14
368.85	226.12
369.23	226.13
369.61	226.08
369.99	226.09
370.37	226.09
370.75	226.14
371.13	226.11
371.51	226.07
371.89	226.05
372.27	226.03
372.65	226.01
373.03	225.97
373.41	225.92
373.78	225.87
374.16	225.78
374.54	225.70
374.92	225.65
375.30	225.61
375.68	225.54
376.06	225.49
376.44	225.44
376.82	225.40
377.19	225.35
377.57	225.29
377.95	225.21
378.33	225.15
378.71	225.00
379.09	224.96
379.47	224.92
379.84	224.86
380.22	224.79
380.60	224.72
380.98	224.67
381.36	224.62
381.73	224.56
382.11	224.53
382.49	224.49
382.87	224.43
383.25	224.38
383.62	224.46
384.00	224.39
384.38	224.35
384.76	224.33
385.13	224.31
385.51	224.27
385.89	224.22
386.27	224.19
386.64	224.16
387.02	224.12
387.40	224.07
387.78	224.05
388.15	224.02
388.53	223.99
388.91	223.96
389.29	223.92
389.66	223.92
390.04	223.88
390.42	223.88
390.79	223.86
391.17	223.84
391.55	223.71
391.92	223.70
392.30	223.69
392.68	223.66
393.05	223.64
393.43	223.64
393.81	223.64
394.18	223.63
394.56	223.63
394.94	223.66
395.31	223.66
395.69	223.70
396.06	223.72
396.44	223.74
396.82	223.75
397.19	223.83
397.57	223.84
397.95	223.88
398.32	223.88
398.70	223.92
399.07	223.98
399.45	224.02
399.82	224.07
400.20	224.10
400.58	224.16
400.95	224.18
401.33	224.26
401.70	224.39
402.08	224.49
402.45	224.57
402.83	224.67
403.20	224.78
403.58	224.86
403.95	224.99
404.33	225.12
404.71	225.25
405.08	225.43
405.46	225.58
405.83	225.75
406.21	225.93
406.58	226.12
406.96	226.32
407.33	226.54
407.70	226.79
408.08	227.12
408.45	227.42
408.83	227.73
409.20	228.02
409.58	228.29
409.95	228.65
410.33	229.04
410.70	229.41
411.08	229.84
411.45	230.30
411.82	230.76
412.20	231.29
412.57	231.92
412.95	232.42
413.32	233.07
413.69	233.73
414.07	234.44
414.44	235.20
414.82	235.99
415.19	236.90
415.56	237.83
415.94	238.80
416.31	239.89
416.68	240.98
417.06	242.24
417.43	243.42
417.81	244.79
418.18	246.18
418.55	247.70
418.93	249.28
419.30	250.94
419.67	252.70
420.04	254.51
420.42	256.40
420.79	258.58
421.16	260.79
421.54	263.02
421.91	265.36
422.28	267.80
422.66	270.42
423.03	272.92
423.40	275.55
423.77	278.36
424.15	281.24
424.52	284.23
424.89	287.48
425.26	290.70
425.64	293.69
426.01	297.04
426.38	300.47
426.75	303.99
427.13	307.61
427.50	311.38
427.87	315.30
428.24	319.26
428.61	323.05
428.99	327.12
429.36	331.60
429.73	335.87
430.10	340.13
430.47	344.47
430.85	348.93
431.22	353.70
431.59	358.58
431.96	363.33
432.33	368.60
432.70	373.58
433.08	379.49
433.45	385.07
433.82	390.56
434.19	396.70
434.56	402.72
434.93	408.53
435.30	414.28
435.68	420.76
436.05	427.09
436.42	433.42
436.79	439.21
437.16	445.44
437.53	452.12
437.90	458.81
438.27	465.34
438.64	472.45
439.01	478.87
439.38	484.75
439.75	490.44
440.13	496.94
440.50	503.13
440.87	508.03
441.24	513.40
441.61	519.33
441.98	523.70
442.35	528.91
442.72	534.25
443.09	539.36
443.46	542.69
443.83	545.18
444.20	547.30
444.57	550.36
444.94	552.22
445.31	554.16
445.68	555.89
446.05	557.23
446.42	557.18
446.79	557.01
447.16	556.89
447.53	556.81
447.90	555.00
448.27	553.31
448.64	550.56
449.01	548.77
449.37	544.77
449.74	541.16
450.11	536.46
450.48	531.26
450.85	526.03
451.22	521.60
451.59	517.26
451.96	513.31
452.33	507.49
452.70	502.31
453.07	495.96
453.43	489.61
453.80	483.45
454.17	477.53
454.54	472.04
454.91	465.82
455.28	459.97
455.65	454.44
456.02	448.54
456.38	443.79
456.75	437.67
457.12	432.73
457.49	427.72
457.86	422.95
458.23	418.77
458.59	414.14
458.96	409.39
459.33	405.18
459.70	400.91
460.07	397.65
460.43	393.82
460.80	390.24
461.17	387.07
461.54	383.65
461.91	380.46
462.27	377.22
462.64	374.57
463.01	371.55
463.38	368.49
463.74	365.74
464.11	363.28
464.48	361.06
464.85	358.69
465.21	356.86
465.58	354.86
465.95	352.55
466.32	350.71
466.68	348.90
467.05	347.10
467.42	345.36
467.78	343.48
468.15	341.74
468.52	340.45
468.88	338.77
469.25	337.23
469.62	336.01
469.98	334.68
470.35	333.51
470.72	332.45
471.08	331.38
471.45	330.48
471.82	329.50
472.18	328.48
472.55	327.82
472.92	327.01
473.28	326.38
473.65	325.73
474.02	325.11
474.38	324.61
474.75	324.33
475.11	323.91
475.48	323.76
475.85	323.62
476.21	323.58
476.58	323.59
476.94	323.80
477.31	323.93
477.67	324.10
478.04	324.39
478.41	324.75
478.77	325.23
479.14	325.58
479.50	326.17
479.87	326.88
480.23	327.60
480.60	328.29
480.96	329.02
481.33	330.00
481.69	330.99
482.06	331.97
482.42	332.90
482.79	334.01
483.15	335.28
483.52	336.70
483.88	338.08
484.25	339.53
484.61	341.06
484.98	342.70
485.34	344.53
485.71	346.43
486.07	348.46
486.44	350.47
486.80	352.71
487.17	355.00
487.53	357.53
487.90	360.16
488.26	362.99
488.62	365.99
488.99	368.99
489.35	372.13
489.72	375.52
490.08	379.08
490.44	382.75
490.81	386.57
491.17	390.48
491.54	394.67
491.90	398.96
492.26	403.59
492.63	408.47
492.99	413.53
493.36	418.70
493.72	424.16
494.08	429.76
494.45	435.67
494.81	441.81
495.17	448.07
495.54	454.69
495.90	461.63
496.26	468.69
496.63	476.02
496.99	483.64
497.35	491.62
497.72	499.91
498.08	508.34
498.44	517.06
498.80	526.35
499.17	535.86
499.53	545.72
499.89	555.80
500.26	566.07
500.62	576.63
500.98	587.89
501.34	599.30
501.71	611.27
502.07	623.45
502.43	636.04
502.79	648.95
503.16	662.29
503.52	675.82
503.88	689.76
504.24	704.09
504.60	718.72
504.97	733.75
505.33	749.19
505.69	765.58
506.05	782.15
506.41	798.71
506.78	815.58
507.14	832.94
507.50	850.90
507.86	869.25
508.22	887.89
508.59	906.56
508.95	925.93
509.31	945.74
509.67	966.30
510.03	987.05
510.39	1008.01
510.75	1029.22
511.12	1050.74
511.48	1072.54
511.84	1094.45
512.20	1116.68
512.56	1140.03
512.92	1163.52
513.28	1186.72
513.64	1210.26
514.00	1234.22
514.37	1258.49
514.73	1282.80
515.09	1306.90
515.45	1331.45
515.81	1356.54
516.17	1381.66
516.53	1406.44
516.89	1431.26
517.25	1456.28
517.61	1481.48
517.97	1506.88
518.33	1531.99
518.69	1557.21
519.05	1582.72
519.41	1608.36
519.77	1634.23
520.13	1659.26
520.49	1684.49
520.85	1709.96
521.21	1735.30
521.57	1761.20
521.93	1786.40
522.29	1812.40
522.65	1838.11
523.01	1863.59
523.37	1888.30
523.73	1913.63
524.09	1939.17
524.45	1964.63
524.81	1989.57
525.17	2014.42
525.53	2038.76
525.89	2063.12
526.25	2087.70
526.61	2111.75
526.97	2136.02
527.33	2160.27
527.68	2184.33
528.04	2207.55
528.40	2230.53
528.76	2253.72
529.12	2275.83
529.48	2298.29
529.84	2318.88
530.20	2340.09
530.56	2360.90
530.91	2381.77
531.27	2402.18
531.63	2421.86
531.99	2440.99
532.35	2459.75
532.71	2478.62
533.07	2498.02
533.42	2515.96
533.78	2534.25
534.14	2552.53
534.50	2569.94
534.86	2587.95
535.21	2604.05
535.57	2620.03
535.93	2635.39
536.29	2649.50
536.65	2664.51
537.00	2678.38
537.36	2692.78
537.72	2706.07
538.08	2718.96
538.44	2730.76
538.79	2742.68
539.15	2752.98
539.51	2763.23
539.87	2773.15
540.22	2780.93
540.58	2788.87
540.94	2797.26
541.29	2804.13
541.65	2809.97
542.01	2815.36
542.37	2818.88
542.72	2824.39
543.08	2829.37
543.44	2834.14
543.79	2838.12
544.15	2841.09
544.51	2844.06
544.87	2846.16
545.22	2847.87
545.58	2848.69
545.94	2849.94
546.29	2849.70
546.65	2849.57
547.01	2849.53
547.36	2849.56
547.72	2849.72
548.07	2848.42
548.43	2846.48
548.79	2843.90
549.14	2841.37
549.50	2839.56
549.86	2836.73
550.21	2831.54
550.57	2826.72
550.92	2820.54
551.28	2814.98
551.64	2809.43
551.99	2804.21
552.35	2798.57
552.70	2792.46
553.06	2787.12
553.41	2781.28
553.77	2774.96
554.13	2769.35
554.48	2762.74
554.84	2754.50
555.19	2746.44
555.55	2737.85
555.90	2729.88
556.26	2722.87
556.61	2715.22
556.97	2705.25
557.32	2696.28
557.68	2687.69
558.03	2678.55
558.39	2670.15
558.74	2661.75
559.10	2652.14
559.45	2642.19
559.81	2632.62
560.16	2622.39
560.52	2611.69
560.87	2602.04
561.23	2591.93
561.58	2581.28
561.94	2570.40
562.29	2559.04
562.64	2548.37
563.00	2538.02
563.35	2527.55
563.71	2516.17
564.06	2504.22
564.42	2493.37
564.77	2482.16
565.12	2471.05
565.48	2459.66
565.83	2448.89
566.19	2438.19
566.54	2427.02
566.89	2415.05
567.25	2403.01
567.60	2391.81
567.96	2380.22
568.31	2367.15
568.66	2354.08
569.02	2342.12
569.37	2329.85
569.72	2318.12
570.08	2305.69
570.43	2292.70
570.78	2279.37
571.14	2265.84
571.49	2253.20
571.84	2240.79
572.20	2227.07
572.55	2213.77
572.90	2200.38
573.26	2186.01
573.61	2171.15
573.96	2156.63
574.31	2142.46
574.67	2128.45
575.02	2114.05
575.37	2099.18
575.72	2084.64
576.08	2070.66
576.43	2055.68
576.78	2040.84
577.13	2026.82
577.49	2012.68
577.84	1998.98
578.19	1984.47
578.54	1969.63
578.90	1954.25
579.25	1938.64
579.60	1924.42
579.95	1909.78
580.30	1895.20
580.66	1880.95
581.01	1866.34
581.36	1852.01
581.71	1838.27
582.06	1824.08
582.42	1809.93
582.77	1796.55
583.12	1782.81
583.47	1769.18
583.82	1755.63
584.17	1742.01
584.53	1728.16
584.88	1714.41
585.23	1700.25
585.58	1686.61
585.93	1673.44
586.28	1661.12
586.63	1648.55
586.98	1635.34
587.34	1622.38
587.69	1608.91
588.04	1595.71
588.39	1583.14
588.74	1570.16
589.09	1556.87
589.44	1543.57
589.79	1530.82
590.14	1517.96
590.49	1505.34
590.84	1492.55
591.19	1480.41
591.54	1467.73
591.89	1454.98
592.25	1442.55
592.60	1429.78
592.95	1417.57
593.30	1405.60
593.65	1393.39
594.00	1381.44
594.35	1370.23
594.70	1358.29
595.05	1347.41
595.40	1336.29
595.75	1324.63
596.10	1313.75
596.45	1303.10
596.80	1292.88
597.15	1282.49
597.50	1272.08
597.85	1261.85
598.19	1251.84
598.54	1241.22
598.89	1231.38
599.24	1221.82
599.59	1212.05
599.94	1203.29
600.29	1194.38
600.64	1185.25
600.99	1175.56
601.34	1166.32
601.69	1156.52
602.04	1147.75
602.39	1138.80
602.74	1130.11
603.08	1121.66
603.43	1112.71
603.78	1103.72
604.13	1094.86
604.48	1085.92
604.83	1077.24
605.18	1068.48
605.53	1059.64
605.87	1050.96
606.22	1042.51
606.57	1033.81
606.92	1025.21
607.27	1016.48
607.62	1007.88
607.96	999.42
608.31	991.95
608.66	984.05
609.01	976.57
609.36	969.04
609.70	961.30
610.05	953.40
610.40	945.85
610.75	938.41
611.10	931.21
611.44	923.66
611.79	916.40
612.14	908.78
612.49	901.32
612.83	894.30
613.18	887.32
613.53	880.17
613.88	873.12
614.22	866.61
614.57	859.91
614.92	853.23
615.27	846.60
615.61	839.83
615.96	833.27
616.31	826.65
616.65	819.91
617.00	813.43
617.35	807.10
617.70	800.79
618.04	794.54
618.39	788.30
618.74	782.40
619.08	776.33
619.43	770.50
619.78	764.69
620.12	758.70
620.47	752.88
620.82	747.16
621.16	741.71
621.51	735.95
621.85	730.18
622.20	724.46
622.55	718.90
622.89	713.28
623.24	707.73
623.59	702.23
623.93	696.80
624.28	691.51
624.62	686.20
624.97	680.89
625.32	675.67
625.66	670.33
626.01	664.98
626.35	659.77
626.70	654.61
627.04	649.63
627.39	644.71
627.73	639.90
628.08	635.29
628.43	630.57
628.77	625.90
629.12	621.37
629.46	617.00
629.81	612.46
630.15	607.82
630.50	603.34
630.84	599.05
631.19	594.93
631.53	590.85
631.88	586.66
632.22	582.56
632.57	578.70
632.91	574.78
633.26	570.97
633.60	567.20
633.95	563.51
634.29	559.71
634.64	555.87
634.98	551.96
635.32	548.21
635.67	544.58
636.01	540.90
636.36	537.27
636.70	533.76
637.05	530.27
637.39	526.97
637.73	523.55
638.08	520.17
638.42	516.77
638.77	513.24
639.11	509.72
639.45	506.26
639.80	502.77
640.14	499.48
640.49	496.12
640.83	492.67
641.17	489.27
641.52	486.03
641.86	482.78
642.20	479.67
642.55	476.43
642.89	473.28
643.23	470.32
643.58	467.58
643.92	464.73
644.26	461.90
644.61	459.05
644.95	456.22
645.29	453.36
645.64	450.45
645.98	447.68
646.32	445.08
646.66	442.48
647.01	439.86
647.35	437.28
647.69	434.59
648.04	432.08
648.38	429.59
648.72	427.07
649.06	424.61
649.41	422.16
649.75	419.71
650.09	417.30
650.43	414.89
650.78	412.47
651.12	410.02
651.46	407.68
651.80	405.43
652.14	403.25
652.49	401.07
652.83	398.96
653.17	396.83
653.51	394.76
653.85	392.75
654.20	390.69
654.54	388.55
654.88	386.60
655.22	384.71
655.56	382.76
655.90	380.90
656.25	379.07
656.59	377.26
656.93	375.52
657.27	373.82
657.61	372.02
657.95	370.29
658.29	368.57
658.64	366.88
658.98	365.17
659.32	363.48
659.66	361.90
660.00	360.33
660.34	358.79
660.68	357.19
661.02	355.54
661.36	353.99
661.70	352.51
662.05	351.01
662.39	349.49
662.73	348.07
663.07	346.68
663.41	345.30
663.75	343.94
664.09	342.59
664.43	341.15
664.77	339.82
665.11	338.42
665.45	337.11
665.79	335.78
666.13	334.45
666.47	333.11
666.81	331.73
667.15	330.34
667.49	329.04
667.83	327.79
668.17	326.58
668.51	325.39
668.85	324.22
669.19	323.11
669.53	321.94
669.87	320.75
670.21	319.58
670.55	318.42
670.89	317.34
671.23	316.23
671.57	315.14
671.91	314.10
672.25	313.12
672.58	312.12
672.92	311.10
673.26	310.14
673.60	309.19
673.94	308.23
674.28	307.32
674.62	306.41
674.96	305.47
675.30	304.58
675.64	303.66
675.97	302.76
676.31	301.82
676.65	300.92
676.99	300.07
677.33	299.18
677.67	298.32
678.01	297.39
678.34	296.53
678.68	295.73
679.02	294.89
679.36	294.06
679.70	293.24
680.04	292.44
680.37	291.65
680.71	290.88
681.05	290.15
681.39	289.38
681.73	288.58
682.06	287.81
682.40	287.05
682.74	286.33
683.08	285.63
683.42	284.91
683.75	284.25
684.09	283.52
684.43	282.84
684.77	282.15
685.10	281.50
685.44	280.84
685.78	280.17
686.12	279.53
686.45	278.88
686.79	278.24
687.13	277.61
687.46	276.95
687.80	276.32
688.14	275.65
688.48	275.04
688.81	274.44
689.15	273.89
689.49	273.28
689.82	272.70
690.16	272.05
690.50	271.48
690.83	270.90
691.17	270.34
691.51	269.79
691.84	269.25
692.18	268.68
692.52	268.11
692.85	267.56
693.19	267.04
693.52	266.52
693.86	265.99
694.20	265.48
694.53	264.99
694.87	264.48
695.21	264.00
695.54	263.52
695.88	263.02
696.21	262.50
696.55	262.02
696.88	261.54
697.22	261.08
697.56	260.62
697.89	260.11
698.23	259.63
698.56	259.14
698.90	258.70
699.23	258.25
699.57	257.83
699.90	257.40
700.24	256.94
700.58	256.52
700.91	256.13
701.25	255.81
701.58	255.44
701.92	255.08
702.25	254.68
702.59	254.28
702.92	253.91
703.26	253.54
703.59	253.16
703.93	252.88
704.26	252.53
704.60	252.17
704.93	251.83
705.26	251.49
705.60	251.18
705.93	250.82
706.27	250.53
706.60	250.22
706.94	249.93
707.27	249.58
707.61	249.25
707.94	248.90
708.27	248.50
708.61	248.14
708.94	247.80
709.28	247.49
709.61	247.19
709.94	246.91
710.28	246.63
710.61	246.36
710.95	246.00
711.28	245.78
711.61	245.51
711.95	245.27
712.28	245.00
712.61	244.72
712.95	244.52
713.28	244.31
713.61	244.04
713.95	243.77
714.28	243.55
714.61	243.30
714.95	243.07
715.28	242.83
715.61	242.60
715.95	242.40
716.28	242.17
716.61	241.97
716.95	241.75
717.28	241.53
717.61	241.31
717.94	241.10
718.28	240.83
718.61	240.62
718.94	240.40
719.27	240.20
719.61	240.02
719.94	239.80
720.27	239.55
720.60	239.36
720.94	239.18
721.27	239.00
721.60	238.84
721.93	238.66
722.27	238.52
722.60	238.36
722.93	238.17
723.26	238.01
723.59	237.82
723.93	237.67
724.26	237.52
724.59	237.36
724.92	237.21
725.25	237.09
725.59	236.94
725.92	236.81
726.25	236.67
726.58	236.52
726.91	236.37
727.24	236.24
727.57	236.10
727.91	235.95
728.24	235.82
728.57	235.68
728.90	235.56
729.23	235.39
729.56	235.30
729.89	235.17
730.22	235.03
730.55	234.91
730.89	234.77
731.22	234.64
731.55	234.51
731.88	234.39
732.21	234.25
732.54	234.12
732.87	234.01
733.20	233.90
733.53	233.79
733.86	233.69
734.19	233.56
734.52	233.47
734.85	233.44
735.18	233.31
735.51	233.23
735.84	233.13
736.17	233.06
736.50	232.91
736.83	232.93
737.16	232.84
737.49	232.75
737.82	232.66
738.15	232.58
738.48	232.49
738.81	232.39
739.14	232.29
739.47	232.20
739.80	232.10
740.13	232.01
740.46	231.91
740.79	231.81
741.12	231.72
741.45	231.61
741.78	231.47
742.11	231.41
742.44	231.30
742.77	231.23
743.10	231.13
743.43	231.04
743.75	230.84
744.08	230.92
744.41	230.83
744.74	230.74
745.07	230.64
745.40	230.58
745.73	230.54
746.06	230.47
746.39	230.41
746.71	230.33
747.04	230.25
747.37	230.18
747.70	230.13
748.03	230.06
748.36	230.01
748.68	229.94
749.01	229.84
749.34	229.77
749.67	229.70
750.00	229.65
750.33	229.67
750.65	229.61
750.98	229.40
751.31	229.34
751.64	229.29
751.97	229.28
752.29	229.21
752.62	229.10
752.95	229.03
753.28	228.95
753.60	228.89
753.93	228.85
754.26	228.80
754.59	228.70
754.91	228.63
755.24	228.56
755.57	228.54
755.90	228.48
756.22	228.42
756.55	228.34
756.88	228.26
757.20	228.14
757.53	228.05
757.86	228.00
758.19	227.95
758.51	227.89
758.84	227.79
759.17	227.73
759.49	227.69
759.82	227.69
760.15	227.65
760.47	227.60
760.80	227.53
761.13	227.50
761.45	227.46
761.78	227.41
762.11	227.37
762.43	227.28
762.76	227.24
763.08	227.21
763.41	227.17
763.74	227.14
764.06	227.09
764.39	227.06
764.71	227.02
765.04	226.96
765.37	226.91
765.69	226.87
766.02	226.83
766.34	226.79
766.67	226.71
767.00	226.69
767.32	226.71
767.65	226.74
767.97	226.69
768.30	226.66
768.62	226.62
768.95	226.57
769.27	226.53
769.60	226.51
769.92	226.46
770.25	226.41
770.57	226.36
770.90	226.32
771.22	226.28
771.55	226.25
771.87	226.23
772.20	226.20
772.52	226.25
772.85	226.35
773.17	226.32
773.50	226.28
773.82	226.23
774.15	226.15
774.47	226.06
774.80	226.02
775.12	225.99
775.45	225.96
775.77	225.95
776.09	225.93
776.42	225.90
776.74	225.91
777.07	225.88
777.39	225.86
777.72	225.84
778.04	225.82
778.36	225.79
778.69	225.77
779.01	225.76
779.33	225.65
779.66	225.51
779.98	225.48
780.31	225.46
780.63	225.49
780.95	225.49
781.28	225.47
781.60	225.44
781.92	225.42
782.25	225.40
782.57	225.38
782.89	225.35
783.22	225.33
783.54	225.28
783.86	225.28
784.19	225.25
784.51	225.27
784.83	225.23
785.16	225.22
785.48	225.20
785.80	225.18
786.12	225.17
786.45	225.16
786.77	225.15
787.09	225.13
787.42	225.07
787.74	225.06
788.06	225.04
788.38	225.03
788.71	225.01
789.03	225.00
789.35	224.99
789.67	224.96
789.99	224.96
790.32	224.93
790.64	224.93
790.96	225.01
791.28	224.95
791.61	224.94
791.93	224.93
792.25	224.91
792.57	224.96
792.89	224.93
793.21	224.92
793.54	224.90
793.86	224.87
794.18	224.86
794.50	224.83
794.82	224.82
795.14	224.82
795.47	224.82
795.79	224.81
796.11	224.78
796.43	224.77
796.75	224.75
797.07	224.74
797.39	224.72
797.71	224.63
798.04	224.62
798.36	224.62
798.68	224.60
799.00	224.60
799.32	224.54
799.64	224.55
799.96	224.54
800.28	224.55
800.60	224.54
800.92	224.53
801.24	224.52
801.56	224.52
801.89	224.49
802.21	224.49
802.53	224.46
802.85	224.48
803.17	224.52
803.49	224.49
803.81	224.47
804.13	224.45
804.45	224.43
804.77	224.43
805.09	224.42
805.41	224.40
805.73	224.37
806.05	224.33
806.37	224.32
806.69	224.30
807.01	224.28
807.33	224.28
807.65	224.23
807.97	224.27
808.28	224.25
808.60	224.24
808.92	224.21
809.24	224.27
809.56	224.24
809.88	224.19
810.20	224.19
810.52	224.20
810.84	224.18
811.16	224.17
811.48	224.15
811.80	224.18
812.12	224.17
812.43	224.19
812.75	224.19
813.07	224.17
813.39	224.17
813.71	224.16
814.03	224.14
814.35	224.14
814.67	224.09
814.98	224.07
815.30	224.07
815.62	224.05
815.94	223.97
816.26	223.98
816.58	223.95
816.89	223.96
817.21	223.92
817.53	223.93
817.85	223.93
818.17	223.92
818.48	223.87
818.80	223.89
819.12	223.86
819.44	223.84
819.76	223.83
820.07	223.82
820.39	223.81
820.71	223.82
821.03	223.81
821.34	223.80
821.66	223.81
821.98	223.82
822.30	223.81
822.61	223.87
822.93	223.85
823.25	223.85
823.57	223.83
823.88	223.85
824.20	223.84
824.52	223.86
824.83	223.85
825.15	223.84
825.47	223.83
825.79	223.84
826.10	223.83
826.42	223.82
826.74	223.83
827.05	223.83
827.37	223.82
827.69	223.81
828.00	223.82
828.32	223.82
828.64	223.80
828.95	223.85
829.27	223.82
829.58	223.82
829.90	223.83
830.22	223.83
830.53	223.81
830.85	223.80
831.17	223.77
831.48	223.77
831.80	223.77
832.11	223.77
832.43	223.75
832.75	223.75
833.06	223.81
833.38	223.78
833.69	223.77
834.01	223.77
834.32	223.76
834.64	223.75
834.96	223.75
835.27	223.74
835.59	223.71
835.90	223.69
836.22	223.68
836.53	223.65
836.85	223.64
837.16	223.74
837.48	223.74
837.79	223.78
838.11	223.78
838.42	223.77
838.74	223.78
839.05	223.77
839.37	223.77
839.68	223.70
840.00	223.69
840.31	223.71
840.63	223.69
840.94	223.69
841.26	223.68
841.57	223.67
841.88	223.68
842.20	223.66
842.51	223.64
842.83	223.65
843.14	223.74
843.46	223.73
843.77	223.67
844.08	223.66
844.40	223.62
844.71	223.61
845.03	223.60
845.34	223.59
845.65	223.58
845.97	223.58
846.28	223.59
846.60	223.59
846.91	223.57
847.22	223.57
847.54	223.58
847.85	223.59
848.16	223.57
848.48	223.55
848.79	223.59
849.10	223.60
849.42	223.60
849.73	223.51
850.04	223.50
850.36	223.47
850.67	223.48
850.98	223.48
851.30	223.49
851.61	223.49
851.92	223.49
852.23	223.52
852.55	223.52
852.86	223.52
853.17	223.53
853.49	223.55
853.80	223.57
854.11	223.57
854.42	223.58
854.74	223.58
855.05	223.58
855.36	223.53
855.67	223.52
855.99	223.52
856.30	223.64
856.61	223.64
856.92	223.64
857.23	223.64
857.55	223.62
857.86	223.61
858.17	223.63
858.48	223.61
858.79	223.59
859.11	223.59
859.42	223.59
859.73	223.57
860.04	223.57
860.35	223.54
860.66	223.50
860.98	223.50
861.29	223.51
861.60	223.51
861.91	223.53
862.22	223.52
862.53	223.50
862.84	223.38
863.16	223.40
863.47	223.38
863.78	223.37
864.09	223.38
864.40	223.38
864.71	223.38
865.02	223.40
865.33	223.38
865.64	223.36
865.95	223.36
866.27	223.42
866.58	223.41
866.89	223.43
867.20	223.43
867.51	223.41
867.82	223.41
868.13	223.43
868.44	223.41
868.75	223.42
869.06	223.43
869.37	223.44
869.68	223.42
869.99	223.44
870.30	223.45
870.61	223.45
870.92	223.44
871.23	223.42
871.54	223.43
871.85	223.46
872.16	223.47
872.47	223.47
872.78	223.40
873.09	223.41
873.40	223.40
873.71	223.41
874.02	223.42
874.33	223.40
874.64	223.38
874.95	223.40
875.26	223.38
875.56	223.38
875.87	223.37
876.18	223.37
876.49	223.46
876.80	223.45
877.11	223.43
877.42	223.43
877.73	223.44
878.04	223.42
878.35	223.41
878.66	223.41
878.96	223.41
879.27	223.40
879.58	223.40
879.89	223.39
880.20	223.42
880.51	223.41
880.82	223.41
881.12	223.42
881.43	223.39
881.74	223.38
882.05	223.37
882.36	223.38
882.67	223.39
882.97	223.27
883.28	223.27
883.59	223.27
883.90	223.28
884.21	223.29
884.51	223.29
884.82	223.27
885.13	223.27
885.44	223.27
885.74	223.27
886.05	223.27
886.36	223.27
886.67	223.23
886.98	223.29
887.28	223.29
887.59	223.29
887.90	223.30
888.20	223.30
888.51	223.31
888.82	223.30
889.13	223.30
889.43	223.39
889.74	223.38
890.05	223.38
890.35	223.37
890.66	223.35
890.97	223.34
891.28	223.34
891.58	223.33
891.89	223.34
892.20	223.32
892.50	223.31
892.81	223.30
893.12	223.31
893.42	223.25
893.73	223.25
894.04	223.25
894.34	223.25
894.65	223.25
894.95	223.24
895.26	223.25
895.57	223.29
895.87	223.19
896.18	223.21
896.48	223.21
896.79	223.21
897.10	223.22
897.40	223.23
897.71	223.24
898.01	223.23
898.32	223.24
898.63	223.24
898.93	223.25
899.24	223.26
899.54	223.25
899.85	223.25
900.15	223.24
900.46	223.24
900.76	223.25
901.07	223.25
901.38	223.24
901.68	223.25
901.99	223.20
902.29	223.21
902.60	223.20
902.90	223.19
903.21	223.19
903.51	223.18
903.82	223.20
904.12	223.20
904.43	223.21
904.73	223.20
905.03	223.20
905.34	223.30
905.64	223.29
905.95	223.29
906.25	223.29
906.56	223.29
906.86	223.28
907.17	223.27
907.47	223.28
907.77	223.27
908.08	223.25
908.38	223.25
908.69	223.26
908.99	223.28
909.30	223.28
909.60	223.28
909.90	223.28
910.21	223.25
910.51	223.24
910.81	223.24
911.12	223.24
911.42	223.25
911.73	223.14
912.03	223.15
912.33	223.17
912.64	223.16
912.94	223.15
913.24	223.13
913.55	223.12
913.85	223.12
914.15	223.14
914.46	223.15
914.76	223.14
915.06	223.13
915.37	223.11
915.67	223.11
915.97	223.11
916.27	223.09
916.58	223.09
916.88	223.09
917.18	223.08
917.49	223.14
917.79	223.14
918.09	223.16
918.39	223.18
918.70	223.17
919.00	223.18
919.30	223.23
919.60	223.22
919.91	223.21
920.21	223.22
920.51	223.20
920.81	223.19
921.12	223.21
921.42	223.20
921.72	223.21
922.02	223.21
922.32	223.23
922.63	223.23
922.93	223.28
923.23	223.29
923.53	223.28
923.83	223.21
924.13	223.22
924.44	223.22
924.74	223.23
925.04	223.25
925.34	223.24
925.64	223.20
925.94	223.20
926.24	223.26
926.55	223.25
926.85	223.26
927.15	223.26
927.45	223.26
927.75	223.26
928.05	223.26
928.35	223.24
928.65	223.25
928.95	223.26
929.26	223.22
929.56	223.23
929.86	223.24
930.16	223.23
930.46	223.22
930.76	223.23
931.06	223.18
931.36	223.15
931.66	223.17
931.96	223.18
932.26	223.19
932.56	223.14
932.86	223.15
933.16	223.15
933.46	223.14
933.76	223.12
934.06	223.14
934.36	223.17
934.66	223.17
934.96	223.16
935.26	223.16
935.56	223.18
935.86	223.15
936.16	223.13
936.46	223.13
936.76	223.13
937.06	223.11
937.36	223.12
937.66	223.13
937.96	223.12
938.26	223.10
938.56	223.09
938.86	223.09
939.16	223.12
939.46	223.13
939.76	223.13
940.06	223.13
940.35	223.12
940.65	223.06
940.95	223.07
941.25	223.05
941.55	223.03
941.85	223.02
942.15	223.05
942.45	223.07
942.75	223.07
943.04	223.08
943.34	223.10
943.64	223.09
943.94	223.07
944.24	223.08
944.54	223.08
944.84	223.08
945.13	223.07
945.43	223.04
945.73	223.04
946.03	223.03
946.33	223.02
946.62	223.01
946.92	223.01
947.22	223.02
947.52	223.03
947.82	223.04
948.11	223.03
948.41	223.01
948.71	222.98
949.01	222.99
949.31	222.98
949.60	222.97
949.90	222.98
950.20	222.98
950.50	222.98
950.79	222.97
951.09	222.98
951.39	222.98
951.69	222.97
951.98	222.99
952.28	223.00
952.58	222.99
952.87	223.00
953.17	223.01
953.47	222.99
953.76	222.99
954.06	222.97
954.36	222.96
954.66	222.96
954.95	222.99
955.25	222.99
955.55	223.00
955.84	222.98
956.14	222.99
956.44	222.99
956.73	222.97
957.03	222.98
957.32	222.98
957.62	222.97
957.92	223.00
958.21	222.98
958.51	223.10
958.81	223.11
959.10	223.12
959.40	223.15
959.69	223.16
959.99	223.17
960.29	223.18
960.58	223.17
960.88	223.21
961.17	223.20
961.47	223.21
961.76	223.20
962.06	223.21
962.36	223.20
962.65	223.20
962.95	223.22
963.24	223.20
963.54	223.21
963.83	223.21
964.13	223.21
964.42	223.20
964.72	223.11
965.01	223.10
965.31	223.09
965.60	223.06
965.90	223.12
966.19	223.09
966.49	223.10
966.78	223.10
967.08	223.08
967.37	223.08
967.67	223.06
967.96	223.08
968.26	223.07
968.55	223.08
968.85	223.08
969.14	223.07
969.43	223.07
969.73	223.06
970.02	223.05
970.32	223.05
970.61	223.03
970.91	223.00
971.20	222.99
971.49	222.98
971.79	223.00
972.08	222.92
972.38	222.93
972.67	222.92
972.96	222.94
973.26	222.92
973.55	222.96
973.85	222.95
974.14	222.94
974.43	222.95
974.73	222.93
975.02	222.92
975.31	222.92
975.61	222.92
975.90	222.92
976.19	222.91
976.49	222.92
976.78	222.92
977.07	222.92
977.37	222.93
977.66	222.94
977.95	222.93
978.24	222.94
978.54	222.96
978.83	222.96
979.12	222.95
979.42	222.95
979.71	222.93
980.00	222.94
980.29	222.94
980.59	222.93
980.88	222.95
981.17	222.95
981.46	222.95
981.76	222.95
982.05	222.99
982.34	222.99
982.63	222.99
982.93	222.99
983.22	223.02
983.51	223.03
983.80	223.04
984.09	223.06
984.39	223.05
984.68	223.04
984.97	223.04
985.26	223.04
985.55	223.04
985.85	223.02
986.14	223.03
986.43	223.04
986.72	223.04
987.01	223.01
987.30	223.01
987.59	223.00
987.89	223.01
988.18	222.97
988.47	222.97
988.76	222.96
989.05	222.95
989.34	222.93
989.63	222.96
989.92	222.95
990.22	222.93
990.51	222.93
990.80	222.92
991.09	222.93
991.38	222.94
991.67	222.93
991.96	222.93
992.25	222.92
992.54	222.90
992.83	222.91
993.12	222.91
993.41	222.92
993.70	222.97
993.99	222.99
994.28	223.01
994.58	223.03
994.87	223.01
995.16	223.02
995.45	223.01
995.74	222.97
996.03	222.98
996.32	223.00
996.61	223.02
996.90	223.02
997.19	223.01
997.48	223.01
997.77	223.00
998.06	223.01
998.34	223.00
998.63	223.00
998.92	223.00
999.21	223.02
999.50	223.01
999.79	222.97
1000.08	222.97
1000.37	222.96
1000.66	222.94
1000.95	222.97
1001.24	222.98
1001.53	222.99
1001.82	222.98
1002.11	222.96
1002.40	222.96
1002.68	222.99
1002.97	223.06
1003.26	223.04
1003.55	223.03
1003.84	223.04
1004.13	223.07
1004.42	223.07
1004.71	223.07
1004.99	223.06
1005.28	223.07
1005.57	223.07
1005.86	223.06
1006.15	223.05
1006.44	223.03
1006.72	223.05
1007.01	223.03
1007.30	223.03
1007.59	223.01
1007.88	223.01
1008.17	223.02
1008.45	223.00
1008.74	222.95
1009.03	222.90
1009.32	222.91
1009.60	222.91
1009.89	222.90
1010.18	222.85
1010.47	222.85
1010.76	222.84
1011.04	222.84
1011.33	222.84
1011.62	222.84
1011.91	222.85
1012.19	222.86
1012.48	222.86
1012.77	222.86
1013.05	222.89
1013.34	222.89
1013.63	222.88
1013.92	222.89
1014.20	222.89
1014.49	222.89
1014.78	222.90
1015.06	222.87
1015.35	222.87
1015.64	222.88
1015.92	222.90
1016.21	222.91
1016.50	222.91
1016.78	222.92
1017.07	222.93
1017.36	222.91
1017.64	222.90
1017.93	222.91
1018.22	222.90
1018.50	222.90
1018.79	222.90
1019.08	222.86
1019.36	222.87
1019.65	222.86
1019.93	222.89
1020.22	222.90
1020.51	222.96
1020.79	222.94
1021.08	222.79
1021.36	222.77
1021.65	222.90
1021.94	222.87
1022.22	222.95
1022.51	222.71
1022.79	223.39
1023.08	223.02
1023.36	224.08
1023.65	222.68
>>>>>End Processed Spectral Data<<<<<
