SpectraSuite Data File
++++++++++++++++++++++++++++++++++++
Date: Wed Sep 30 20:47:22 EDT 2015
User: lab3
Dark Spectrum Present: No
Reference Spectrum Present: No
Number of Sampled Component Spectra: 1
Spectrometers: USB2E7196
Integration Time (usec): 36000 (USB2E7196)
Spectra Averaged: 10000 (USB2E7196)
Boxcar Smoothing: 10 (USB2E7196)
Correct for Electrical Dark: No (USB2E7196)
Strobe/Lamp Enabled: No (USB2E7196)
Correct for Detector Non-linearity: No (USB2E7196)
Correct for Stray Light: No (USB2E7196)
Number of Pixels in Processed Spectrum: 2048
>>>>>Begin Processed Spectral Data<<<<<
339.09	0.00
339.48	210.50
339.86	211.93
340.24	213.22
340.63	214.72
341.01	217.69
341.39	217.40
341.78	218.77
342.16	219.86
342.54	220.47
342.93	209.01
343.31	219.58
343.69	220.12
344.07	220.58
344.46	221.01
344.84	221.40
345.22	221.63
345.60	221.89
345.99	222.08
346.37	222.22
346.75	222.33
347.13	222.41
347.52	222.48
347.90	222.56
348.28	222.60
348.66	222.65
349.05	222.66
349.43	222.71
349.81	222.76
350.19	222.81
350.57	222.88
350.96	222.96
351.34	223.05
351.72	223.14
352.10	223.25
352.48	223.33
352.87	223.38
353.25	223.45
353.63	223.51
354.01	223.58
354.39	223.66
354.77	223.73
355.15	223.83
355.54	223.88
355.92	223.92
356.30	223.99
356.68	224.13
357.06	224.21
357.44	224.26
357.82	224.32
358.20	224.43
358.58	224.50
358.97	224.56
359.35	224.64
359.73	224.72
360.11	224.77
360.49	224.83
360.87	224.88
361.25	224.94
361.63	225.02
362.01	225.07
362.39	225.10
362.77	225.14
363.15	225.17
363.53	225.21
363.91	225.24
364.29	225.26
364.67	225.19
365.05	225.21
365.43	225.24
365.81	225.27
366.19	225.29
366.57	225.33
366.95	225.34
367.33	225.31
367.71	225.30
368.09	225.32
368.47	225.31
368.85	225.30
369.23	225.31
369.61	225.26
369.99	225.27
370.37	225.27
370.75	225.33
371.13	225.29
371.51	225.25
371.89	225.23
372.27	225.20
372.65	225.18
373.03	225.14
373.41	225.10
373.78	225.05
374.16	224.95
374.54	224.87
374.92	224.82
375.30	224.78
375.68	224.71
376.06	224.66
376.44	224.61
376.82	224.56
377.19	224.51
377.57	224.45
377.95	224.37
378.33	224.31
378.71	224.16
379.09	224.11
379.47	224.08
379.84	224.02
380.22	223.95
380.60	223.88
380.98	223.83
381.36	223.78
381.73	223.72
382.11	223.69
382.49	223.64
382.87	223.58
383.25	223.53
383.62	223.61
384.00	223.55
384.38	223.51
384.76	223.49
385.13	223.48
385.51	223.44
385.89	223.38
386.27	223.35
386.64	223.32
387.02	223.28
387.40	223.23
387.78	223.21
388.15	223.18
388.53	223.15
388.91	223.12
389.29	223.08
389.66	223.08
390.04	223.04
390.42	223.03
390.79	223.02
391.17	223.00
391.55	222.86
391.92	222.85
392.30	222.85
392.68	222.81
393.05	222.79
393.43	222.78
393.81	222.79
394.18	222.77
394.56	222.77
394.94	222.79
395.31	222.79
395.69	222.83
396.06	222.85
396.44	222.87
396.82	222.89
397.19	222.96
397.57	222.97
397.95	223.01
398.32	223.01
398.70	223.05
399.07	223.11
399.45	223.14
399.82	223.18
400.20	223.22
400.58	223.28
400.95	223.29
401.33	223.36
401.70	223.50
402.08	223.59
402.45	223.66
402.83	223.76
403.20	223.86
403.58	223.94
403.95	224.06
404.33	224.19
404.71	224.31
405.08	224.49
405.46	224.63
405.83	224.79
406.21	224.95
406.58	225.14
406.96	225.32
407.33	225.53
407.70	225.77
408.08	226.10
408.45	226.37
408.83	226.68
409.20	226.96
409.58	227.21
409.95	227.55
410.33	227.92
410.70	228.26
411.08	228.67
411.45	229.10
411.82	229.54
412.20	230.04
412.57	230.64
412.95	231.10
413.32	231.71
413.69	232.33
414.07	232.99
414.44	233.71
414.82	234.45
415.19	235.31
415.56	236.18
415.94	237.08
416.31	238.10
416.68	239.12
417.06	240.30
417.43	241.41
417.81	242.69
418.18	243.99
418.55	245.42
418.93	246.90
419.30	248.45
419.67	250.09
420.04	251.78
420.42	253.55
420.79	255.60
421.16	257.66
421.54	259.76
421.91	261.96
422.28	264.24
422.66	266.69
423.03	269.04
423.40	271.51
423.77	274.14
424.15	276.84
424.52	279.66
424.89	282.70
425.26	285.72
425.64	288.53
426.01	291.69
426.38	294.92
426.75	298.26
427.13	301.67
427.50	305.24
427.87	308.95
428.24	312.69
428.61	316.27
428.99	320.12
429.36	324.36
429.73	328.42
430.10	332.46
430.47	336.59
430.85	340.82
431.22	345.34
431.59	349.98
431.96	354.51
432.33	359.52
432.70	364.27
433.08	369.88
433.45	375.18
433.82	380.39
434.19	386.21
434.56	391.92
434.93	397.43
435.30	402.88
435.68	409.01
436.05	415.02
436.42	421.01
436.79	426.48
437.16	432.37
437.53	438.69
437.90	445.00
438.27	451.17
438.64	457.86
439.01	463.90
439.38	469.42
439.75	474.75
440.13	480.83
440.50	486.63
440.87	491.19
441.24	496.21
441.61	501.75
441.98	505.81
442.35	510.65
442.72	515.60
443.09	520.33
443.46	523.40
443.83	525.66
444.20	527.59
444.57	530.40
444.94	532.08
445.31	533.81
445.68	535.37
446.05	536.53
446.42	536.40
446.79	536.18
447.16	536.00
447.53	535.87
447.90	534.10
448.27	532.44
448.64	529.82
449.01	528.10
449.37	524.30
449.74	520.86
450.11	516.42
450.48	511.53
450.85	506.61
451.22	502.43
451.59	498.35
451.96	494.63
452.33	489.17
452.70	484.31
453.07	478.37
453.43	472.41
453.80	466.66
454.17	461.14
454.54	456.01
454.91	450.22
455.28	444.76
455.65	439.62
456.02	434.14
456.38	429.72
456.75	424.02
457.12	419.42
457.49	414.78
457.86	410.34
458.23	406.46
458.59	402.18
458.96	397.77
459.33	393.88
459.70	389.91
460.07	386.89
460.43	383.33
460.80	380.00
461.17	377.06
461.54	373.88
461.91	370.92
462.27	367.90
462.64	365.43
463.01	362.60
463.38	359.75
463.74	357.17
464.11	354.86
464.48	352.78
464.85	350.55
465.21	348.85
465.58	346.97
465.95	344.80
466.32	343.05
466.68	341.34
467.05	339.62
467.42	337.98
467.78	336.20
468.15	334.55
468.52	333.32
468.88	331.71
469.25	330.24
469.62	329.08
469.98	327.81
470.35	326.69
470.72	325.67
471.08	324.63
471.45	323.77
471.82	322.83
472.18	321.84
472.55	321.21
472.92	320.42
473.28	319.81
473.65	319.17
474.02	318.57
474.38	318.08
474.75	317.81
475.11	317.39
475.48	317.23
475.85	317.07
476.21	317.02
476.58	317.02
476.94	317.20
477.31	317.31
477.67	317.45
478.04	317.70
478.41	318.03
478.77	318.48
479.14	318.81
479.50	319.35
479.87	320.02
480.23	320.70
480.60	321.36
480.96	322.04
481.33	322.98
481.69	323.92
482.06	324.85
482.42	325.74
482.79	326.79
483.15	328.01
483.52	329.36
483.88	330.68
484.25	332.08
484.61	333.55
484.98	335.13
485.34	336.89
485.71	338.72
486.07	340.67
486.44	342.60
486.80	344.76
487.17	346.96
487.53	349.40
487.90	351.92
488.26	354.64
488.62	357.53
488.99	360.42
489.35	363.43
489.72	366.70
490.08	370.12
490.44	373.64
490.81	377.33
491.17	381.11
491.54	385.14
491.90	389.27
492.26	393.72
492.63	398.40
492.99	403.26
493.36	408.26
493.72	413.52
494.08	418.92
494.45	424.62
494.81	430.52
495.17	436.55
495.54	442.91
495.90	449.60
496.26	456.41
496.63	463.46
496.99	470.78
497.35	478.47
497.72	486.47
498.08	494.61
498.44	503.02
498.80	511.96
499.17	521.13
499.53	530.64
499.89	540.37
500.26	550.28
500.62	560.45
500.98	571.30
501.34	582.28
501.71	593.79
502.07	605.53
502.43	617.67
502.79	630.14
503.16	643.01
503.52	656.07
503.88	669.49
504.24	683.35
504.60	697.50
504.97	712.02
505.33	726.91
505.69	742.70
506.05	758.68
506.41	774.67
506.78	790.97
507.14	807.74
507.50	825.13
507.86	842.90
508.22	860.94
508.59	878.99
508.95	897.76
509.31	916.97
509.67	936.85
510.03	956.97
510.39	977.32
510.75	997.88
511.12	1018.75
511.48	1039.93
511.84	1061.22
512.20	1082.84
512.56	1105.52
512.92	1128.42
513.28	1151.05
513.64	1174.02
514.00	1197.37
514.37	1221.08
514.73	1244.82
515.09	1268.36
515.45	1292.33
515.81	1316.88
516.17	1341.47
516.53	1365.76
516.89	1390.13
517.25	1414.71
517.61	1439.46
517.97	1464.42
518.33	1489.15
518.69	1514.00
519.05	1539.11
519.41	1564.37
519.77	1589.88
520.13	1614.70
520.49	1639.65
520.85	1664.83
521.21	1689.94
521.57	1715.68
521.93	1740.71
522.29	1766.57
522.65	1792.18
523.01	1817.62
523.37	1842.32
523.73	1867.71
524.09	1893.24
524.45	1918.65
524.81	1943.57
525.17	1968.42
525.53	1992.88
525.89	2017.41
526.25	2042.13
526.61	2066.32
526.97	2090.81
527.33	2115.21
527.68	2139.38
528.04	2162.79
528.40	2186.07
528.76	2209.53
529.12	2231.92
529.48	2254.72
529.84	2275.73
530.20	2297.27
530.56	2318.44
530.91	2339.70
531.27	2360.44
531.63	2380.56
531.99	2400.21
532.35	2419.56
532.71	2439.01
533.07	2459.03
533.42	2477.53
533.78	2496.39
534.14	2515.21
534.50	2533.20
534.86	2551.87
535.21	2568.73
535.57	2585.50
535.93	2601.54
536.29	2616.38
536.65	2632.05
537.00	2646.54
537.36	2661.53
537.72	2675.53
538.08	2689.27
538.44	2701.79
538.79	2714.56
539.15	2725.69
539.51	2736.70
539.87	2747.37
540.22	2755.84
540.58	2764.47
540.94	2773.63
541.29	2781.34
541.65	2788.07
542.01	2794.27
542.37	2798.58
542.72	2804.87
543.08	2810.56
543.44	2816.07
543.79	2820.78
544.15	2824.60
544.51	2828.46
544.87	2831.42
545.22	2833.94
545.58	2835.43
545.94	2837.43
546.29	2837.99
546.65	2838.60
547.01	2839.31
547.36	2840.11
547.72	2841.11
548.07	2840.61
548.43	2839.49
548.79	2837.71
549.14	2835.95
549.50	2834.81
549.86	2832.73
550.21	2828.19
550.57	2824.15
550.92	2818.77
551.28	2813.96
551.64	2809.06
551.99	2804.52
552.35	2799.59
552.70	2794.22
553.06	2789.60
553.41	2784.51
553.77	2778.71
554.13	2773.69
554.48	2767.75
554.84	2760.18
555.19	2752.81
555.55	2744.79
555.90	2737.36
556.26	2730.94
556.61	2723.87
556.97	2714.64
557.32	2706.32
557.68	2698.38
558.03	2689.75
558.39	2681.76
558.74	2674.01
559.10	2665.04
559.45	2655.71
559.81	2646.68
560.16	2636.98
560.52	2626.85
560.87	2617.77
561.23	2608.32
561.58	2598.37
561.94	2588.11
562.29	2577.41
562.64	2567.24
563.00	2557.40
563.35	2547.36
563.71	2536.41
564.06	2525.00
564.42	2514.58
564.77	2503.79
565.12	2493.18
565.48	2482.33
565.83	2472.15
566.19	2461.95
566.54	2451.35
566.89	2439.83
567.25	2428.22
567.60	2417.46
567.96	2406.22
568.31	2393.57
568.66	2380.93
569.02	2369.31
569.37	2357.50
569.72	2346.15
570.08	2334.09
570.43	2321.51
570.78	2308.63
571.14	2295.56
571.49	2283.23
571.84	2271.23
572.20	2257.95
572.55	2244.99
572.90	2231.88
573.26	2217.84
573.61	2203.21
573.96	2188.89
574.31	2174.93
574.67	2161.28
575.02	2147.18
575.37	2132.66
575.72	2118.35
576.08	2104.68
576.43	2089.89
576.78	2075.16
577.13	2061.24
577.49	2047.37
577.84	2033.89
578.19	2019.57
578.54	2004.85
578.90	1989.64
579.25	1974.11
579.60	1960.06
579.95	1945.66
580.30	1931.28
580.66	1917.19
581.01	1902.72
581.36	1888.63
581.71	1875.09
582.06	1861.00
582.42	1847.00
582.77	1833.73
583.12	1820.12
583.47	1806.53
583.82	1793.11
584.17	1779.56
584.53	1765.86
584.88	1752.14
585.23	1738.10
585.58	1724.57
585.93	1711.44
586.28	1699.14
586.63	1686.64
586.98	1673.40
587.34	1660.37
587.69	1646.87
588.04	1633.63
588.39	1621.06
588.74	1607.95
589.09	1594.62
589.44	1581.25
589.79	1568.41
590.14	1555.47
590.49	1542.73
590.84	1529.84
591.19	1517.60
591.54	1504.85
591.89	1491.95
592.25	1479.40
592.60	1466.42
592.95	1454.04
593.30	1441.97
593.65	1429.68
594.00	1417.60
594.35	1406.28
594.70	1394.16
595.05	1383.11
595.40	1371.87
595.75	1360.02
596.10	1348.96
596.45	1338.12
596.80	1327.75
597.15	1317.18
597.50	1306.59
597.85	1296.22
598.19	1286.05
598.54	1275.24
598.89	1265.18
599.24	1255.41
599.59	1245.40
599.94	1236.45
600.29	1227.37
600.64	1218.06
600.99	1208.15
601.34	1198.74
601.69	1188.71
602.04	1179.76
602.39	1170.67
602.74	1161.84
603.08	1153.24
603.43	1144.16
603.78	1134.95
604.13	1125.89
604.48	1116.74
604.83	1107.88
605.18	1098.92
605.53	1089.88
605.87	1080.99
606.22	1072.38
606.57	1063.51
606.92	1054.74
607.27	1045.77
607.62	1036.89
607.96	1028.20
608.31	1020.55
608.66	1012.43
609.01	1004.79
609.36	997.08
609.70	989.13
610.05	981.01
610.40	973.24
610.75	965.59
611.10	958.23
611.44	950.46
611.79	943.03
612.14	935.19
612.49	927.51
612.83	920.33
613.18	913.21
613.53	905.86
613.88	898.60
614.22	891.96
614.57	885.16
614.92	878.34
615.27	871.53
615.61	864.57
615.96	857.83
616.31	850.99
616.65	844.07
617.00	837.40
617.35	830.88
617.70	824.39
618.04	817.95
618.39	811.54
618.74	805.46
619.08	799.19
619.43	793.19
619.78	787.19
620.12	781.01
620.47	775.00
620.82	769.09
621.16	763.52
621.51	757.56
621.85	751.61
622.20	745.70
622.55	740.01
622.89	734.25
623.24	728.55
623.59	722.93
623.93	717.33
624.28	711.88
624.62	706.42
624.97	700.93
625.32	695.56
625.66	690.03
626.01	684.50
626.35	679.13
626.70	673.79
627.04	668.66
627.39	663.56
627.73	658.57
628.08	653.81
628.43	648.93
628.77	644.12
629.12	639.45
629.46	634.95
629.81	630.25
630.15	625.44
630.50	620.79
630.84	616.33
631.19	612.07
631.53	607.85
631.88	603.51
632.22	599.28
632.57	595.29
632.91	591.26
633.26	587.31
633.60	583.45
633.95	579.70
634.29	575.79
634.64	571.86
634.98	567.81
635.32	563.91
635.67	560.15
636.01	556.33
636.36	552.55
636.70	548.92
637.05	545.29
637.39	541.86
637.73	538.30
638.08	534.79
638.42	531.26
638.77	527.60
639.11	523.93
639.45	520.30
639.80	516.66
640.14	513.22
640.49	509.73
640.83	506.12
641.17	502.56
641.52	499.15
641.86	495.74
642.20	492.53
642.55	489.17
642.89	485.87
643.23	482.78
643.58	479.93
643.92	476.96
644.26	474.02
644.61	471.05
644.95	468.11
645.29	465.10
645.64	462.07
645.98	459.17
646.32	456.46
646.66	453.75
647.01	451.00
647.35	448.30
647.69	445.49
648.04	442.85
648.38	440.22
648.72	437.56
649.06	434.98
649.41	432.41
649.75	429.85
650.09	427.32
650.43	424.79
650.78	422.22
651.12	419.65
651.46	417.18
651.80	414.83
652.14	412.54
652.49	410.27
652.83	408.05
653.17	405.82
653.51	403.65
653.85	401.56
654.20	399.40
654.54	397.16
654.88	395.12
655.22	393.12
655.56	391.09
655.90	389.16
656.25	387.23
656.59	385.31
656.93	383.49
657.27	381.71
657.61	379.83
657.95	378.02
658.29	376.21
658.64	374.43
658.98	372.62
659.32	370.84
659.66	369.17
660.00	367.52
660.34	365.90
660.68	364.22
661.02	362.47
661.36	360.85
661.70	359.29
662.05	357.71
662.39	356.12
662.73	354.62
663.07	353.14
663.41	351.69
663.75	350.26
664.09	348.83
664.43	347.31
664.77	345.91
665.11	344.44
665.45	343.06
665.79	341.67
666.13	340.27
666.47	338.86
666.81	337.43
667.15	335.96
667.49	334.59
667.83	333.27
668.17	331.98
668.51	330.73
668.85	329.49
669.19	328.33
669.53	327.10
669.87	325.85
670.21	324.63
670.55	323.41
670.89	322.28
671.23	321.11
671.57	319.95
671.91	318.85
672.25	317.82
672.58	316.76
672.92	315.68
673.26	314.67
673.60	313.67
673.94	312.65
674.28	311.70
674.62	310.74
674.96	309.74
675.30	308.82
675.64	307.86
675.97	306.91
676.31	305.93
676.65	304.97
676.99	304.08
677.33	303.13
677.67	302.24
678.01	301.26
678.34	300.36
678.68	299.51
679.02	298.64
679.36	297.76
679.70	296.90
680.04	296.07
680.37	295.22
680.71	294.40
681.05	293.64
681.39	292.84
681.73	292.00
682.06	291.20
682.40	290.41
682.74	289.64
683.08	288.91
683.42	288.15
683.75	287.47
684.09	286.70
684.43	285.99
684.77	285.26
685.10	284.59
685.44	283.89
685.78	283.18
686.12	282.51
686.45	281.83
686.79	281.15
687.13	280.49
687.46	279.81
687.80	279.15
688.14	278.45
688.48	277.81
688.81	277.16
689.15	276.57
689.49	275.93
689.82	275.31
690.16	274.64
690.50	274.03
690.83	273.41
691.17	272.82
691.51	272.23
691.84	271.67
692.18	271.08
692.52	270.48
692.85	269.90
693.19	269.35
693.52	268.80
693.86	268.25
694.20	267.70
694.53	267.18
694.87	266.65
695.21	266.14
695.54	265.63
695.88	265.11
696.21	264.56
696.55	264.05
696.88	263.54
697.22	263.05
697.56	262.56
697.89	262.01
698.23	261.51
698.56	260.99
698.90	260.52
699.23	260.03
699.57	259.58
699.90	259.11
700.24	258.62
700.58	258.18
700.91	257.75
701.25	257.40
701.58	257.02
701.92	256.63
702.25	256.21
702.59	255.78
702.92	255.37
703.26	254.98
703.59	254.57
703.93	254.26
704.26	253.89
704.60	253.51
704.93	253.14
705.26	252.78
705.60	252.45
705.93	252.06
706.27	251.75
706.60	251.42
706.94	251.10
707.27	250.73
707.61	250.37
707.94	250.00
708.27	249.57
708.61	249.18
708.94	248.81
709.28	248.48
709.61	248.15
709.94	247.85
710.28	247.55
710.61	247.26
710.95	246.87
711.28	246.65
711.61	246.35
711.95	246.09
712.28	245.81
712.61	245.50
712.95	245.29
713.28	245.05
713.61	244.77
713.95	244.48
714.28	244.24
714.61	243.97
714.95	243.72
715.28	243.46
715.61	243.21
715.95	242.98
716.28	242.74
716.61	242.52
716.95	242.27
717.28	242.04
717.61	241.80
717.94	241.58
718.28	241.28
718.61	241.06
718.94	240.81
719.27	240.60
719.61	240.40
719.94	240.16
720.27	239.90
720.60	239.70
720.94	239.50
721.27	239.31
721.60	239.14
721.93	238.94
722.27	238.79
722.60	238.62
722.93	238.42
723.26	238.25
723.59	238.05
723.93	237.88
724.26	237.71
724.59	237.54
724.92	237.38
725.25	237.24
725.59	237.08
725.92	236.94
726.25	236.78
726.58	236.62
726.91	236.46
727.24	236.32
727.57	236.16
727.91	235.99
728.24	235.86
728.57	235.70
728.90	235.57
729.23	235.38
729.56	235.29
729.89	235.15
730.22	235.00
730.55	234.86
730.89	234.72
731.22	234.57
731.55	234.43
731.88	234.30
732.21	234.15
732.54	234.02
732.87	233.89
733.20	233.77
733.53	233.65
733.86	233.54
734.19	233.41
734.52	233.31
734.85	233.27
735.18	233.13
735.51	233.04
735.84	232.93
736.17	232.85
736.50	232.68
736.83	232.69
737.16	232.59
737.49	232.50
737.82	232.40
738.15	232.31
738.48	232.21
738.81	232.11
739.14	232.00
739.47	231.90
739.80	231.79
740.13	231.71
740.46	231.59
740.79	231.48
741.12	231.39
741.45	231.27
741.78	231.12
742.11	231.06
742.44	230.95
742.77	230.87
743.10	230.76
743.43	230.67
743.75	230.48
744.08	230.55
744.41	230.45
744.74	230.36
745.07	230.25
745.40	230.18
745.73	230.15
746.06	230.08
746.39	230.01
746.71	229.92
747.04	229.83
747.37	229.76
747.70	229.71
748.03	229.63
748.36	229.58
748.68	229.50
749.01	229.39
749.34	229.32
749.67	229.24
750.00	229.19
750.33	229.20
750.65	229.14
750.98	228.92
751.31	228.86
751.64	228.80
751.97	228.79
752.29	228.71
752.62	228.60
752.95	228.52
753.28	228.44
753.60	228.37
753.93	228.33
754.26	228.27
754.59	228.17
754.91	228.10
755.24	228.02
755.57	228.00
755.90	227.94
756.22	227.87
756.55	227.80
756.88	227.72
757.20	227.58
757.53	227.49
757.86	227.43
758.19	227.38
758.51	227.32
758.84	227.21
759.17	227.15
759.49	227.11
759.82	227.11
760.15	227.07
760.47	227.02
760.80	226.94
761.13	226.90
761.45	226.86
761.78	226.82
762.11	226.77
762.43	226.67
762.76	226.63
763.08	226.59
763.41	226.56
763.74	226.51
764.06	226.47
764.39	226.43
764.71	226.39
765.04	226.34
765.37	226.28
765.69	226.24
766.02	226.20
766.34	226.15
766.67	226.06
767.00	226.04
767.32	226.05
767.65	226.08
767.97	226.03
768.30	226.00
768.62	225.96
768.95	225.90
769.27	225.86
769.60	225.84
769.92	225.79
770.25	225.74
770.57	225.69
770.90	225.65
771.22	225.61
771.55	225.57
771.87	225.55
772.20	225.51
772.52	225.57
772.85	225.66
773.17	225.64
773.50	225.60
773.82	225.55
774.15	225.47
774.47	225.38
774.80	225.34
775.12	225.30
775.45	225.27
775.77	225.26
776.09	225.24
776.42	225.21
776.74	225.21
777.07	225.18
777.39	225.16
777.72	225.13
778.04	225.12
778.36	225.08
778.69	225.06
779.01	225.04
779.33	224.92
779.66	224.78
779.98	224.75
780.31	224.73
780.63	224.75
780.95	224.75
781.28	224.73
781.60	224.70
781.92	224.68
782.25	224.66
782.57	224.64
782.89	224.61
783.22	224.58
783.54	224.53
783.86	224.52
784.19	224.50
784.51	224.51
784.83	224.48
785.16	224.45
785.48	224.44
785.80	224.42
786.12	224.41
786.45	224.39
786.77	224.38
787.09	224.36
787.42	224.30
787.74	224.28
788.06	224.27
788.38	224.26
788.71	224.23
789.03	224.22
789.35	224.22
789.67	224.19
789.99	224.19
790.32	224.16
790.64	224.16
790.96	224.24
791.28	224.19
791.61	224.17
791.93	224.17
792.25	224.15
792.57	224.21
792.89	224.18
793.21	224.17
793.54	224.15
793.86	224.12
794.18	224.11
794.50	224.08
794.82	224.06
795.14	224.07
795.47	224.07
795.79	224.06
796.11	224.02
796.43	224.01
796.75	223.99
797.07	223.99
797.39	223.97
797.71	223.87
798.04	223.87
798.36	223.86
798.68	223.84
799.00	223.83
799.32	223.77
799.64	223.77
799.96	223.76
800.28	223.77
800.60	223.76
800.92	223.75
801.24	223.74
801.56	223.74
801.89	223.71
802.21	223.71
802.53	223.68
802.85	223.69
803.17	223.73
803.49	223.70
803.81	223.68
804.13	223.66
804.45	223.64
804.77	223.64
805.09	223.63
805.41	223.62
805.73	223.59
806.05	223.55
806.37	223.54
806.69	223.52
807.01	223.50
807.33	223.50
807.65	223.46
807.97	223.49
808.28	223.47
808.60	223.46
808.92	223.44
809.24	223.49
809.56	223.47
809.88	223.42
810.20	223.42
810.52	223.44
810.84	223.41
811.16	223.40
811.48	223.39
811.80	223.42
812.12	223.40
812.43	223.42
812.75	223.42
813.07	223.41
813.39	223.41
813.71	223.38
814.03	223.37
814.35	223.37
814.67	223.32
814.98	223.30
815.30	223.30
815.62	223.27
815.94	223.20
816.26	223.21
816.58	223.18
816.89	223.18
817.21	223.15
817.53	223.15
817.85	223.15
818.17	223.14
818.48	223.09
818.80	223.10
819.12	223.08
819.44	223.06
819.76	223.04
820.07	223.03
820.39	223.02
820.71	223.02
821.03	223.02
821.34	223.01
821.66	223.02
821.98	223.02
822.30	223.02
822.61	223.07
822.93	223.05
823.25	223.04
823.57	223.03
823.88	223.04
824.20	223.03
824.52	223.05
824.83	223.04
825.15	223.03
825.47	223.01
825.79	223.02
826.10	223.02
826.42	223.01
826.74	223.01
827.05	223.01
827.37	223.01
827.69	222.99
828.00	222.99
828.32	222.99
828.64	222.97
828.95	223.02
829.27	222.99
829.58	222.99
829.90	223.00
830.22	223.01
830.53	222.98
830.85	222.97
831.17	222.94
831.48	222.94
831.80	222.95
832.11	222.94
832.43	222.92
832.75	222.92
833.06	222.98
833.38	222.95
833.69	222.94
834.01	222.94
834.32	222.94
834.64	222.92
834.96	222.92
835.27	222.92
835.59	222.88
835.90	222.87
836.22	222.86
836.53	222.84
836.85	222.82
837.16	222.93
837.48	222.93
837.79	222.96
838.11	222.96
838.42	222.96
838.74	222.97
839.05	222.96
839.37	222.95
839.68	222.88
840.00	222.88
840.31	222.89
840.63	222.88
840.94	222.87
841.26	222.86
841.57	222.85
841.88	222.86
842.20	222.85
842.51	222.83
842.83	222.83
843.14	222.92
843.46	222.92
843.77	222.85
844.08	222.85
844.40	222.81
844.71	222.80
845.03	222.79
845.34	222.78
845.65	222.77
845.97	222.77
846.28	222.77
846.60	222.78
846.91	222.76
847.22	222.76
847.54	222.78
847.85	222.79
848.16	222.78
848.48	222.75
848.79	222.79
849.10	222.80
849.42	222.80
849.73	222.70
850.04	222.70
850.36	222.66
850.67	222.68
850.98	222.68
851.30	222.69
851.61	222.68
851.92	222.68
852.23	222.71
852.55	222.72
852.86	222.72
853.17	222.73
853.49	222.75
853.80	222.77
854.11	222.77
854.42	222.78
854.74	222.77
855.05	222.77
855.36	222.72
855.67	222.72
855.99	222.72
856.30	222.84
856.61	222.83
856.92	222.84
857.23	222.84
857.55	222.83
857.86	222.82
858.17	222.84
858.48	222.82
858.79	222.80
859.11	222.80
859.42	222.79
859.73	222.78
860.04	222.77
860.35	222.74
860.66	222.71
860.98	222.70
861.29	222.71
861.60	222.71
861.91	222.73
862.22	222.72
862.53	222.70
862.84	222.58
863.16	222.60
863.47	222.58
863.78	222.56
864.09	222.57
864.40	222.58
864.71	222.57
865.02	222.59
865.33	222.58
865.64	222.56
865.95	222.56
866.27	222.62
866.58	222.61
866.89	222.63
867.20	222.63
867.51	222.61
867.82	222.61
868.13	222.64
868.44	222.62
868.75	222.64
869.06	222.64
869.37	222.66
869.68	222.63
869.99	222.65
870.30	222.65
870.61	222.66
870.92	222.65
871.23	222.64
871.54	222.65
871.85	222.68
872.16	222.69
872.47	222.68
872.78	222.62
873.09	222.63
873.40	222.62
873.71	222.63
874.02	222.64
874.33	222.63
874.64	222.61
874.95	222.62
875.26	222.60
875.56	222.59
875.87	222.59
876.18	222.58
876.49	222.68
876.80	222.67
877.11	222.66
877.42	222.66
877.73	222.66
878.04	222.64
878.35	222.63
878.66	222.63
878.96	222.63
879.27	222.63
879.58	222.62
879.89	222.61
880.20	222.64
880.51	222.63
880.82	222.63
881.12	222.64
881.43	222.61
881.74	222.60
882.05	222.60
882.36	222.60
882.67	222.61
882.97	222.49
883.28	222.48
883.59	222.48
883.90	222.49
884.21	222.50
884.51	222.49
884.82	222.48
885.13	222.48
885.44	222.48
885.74	222.48
886.05	222.47
886.36	222.47
886.67	222.43
886.98	222.48
887.28	222.49
887.59	222.49
887.90	222.49
888.20	222.49
888.51	222.51
888.82	222.49
889.13	222.50
889.43	222.59
889.74	222.58
890.05	222.59
890.35	222.57
890.66	222.55
890.97	222.54
891.28	222.53
891.58	222.53
891.89	222.53
892.20	222.52
892.50	222.51
892.81	222.50
893.12	222.50
893.42	222.45
893.73	222.45
894.04	222.44
894.34	222.45
894.65	222.45
894.95	222.43
895.26	222.44
895.57	222.48
895.87	222.37
896.18	222.39
896.48	222.39
896.79	222.39
897.10	222.40
897.40	222.41
897.71	222.42
898.01	222.41
898.32	222.42
898.63	222.41
898.93	222.42
899.24	222.42
899.54	222.41
899.85	222.41
900.15	222.41
900.46	222.41
900.76	222.41
901.07	222.41
901.38	222.41
901.68	222.42
901.99	222.36
902.29	222.37
902.60	222.36
902.90	222.35
903.21	222.35
903.51	222.34
903.82	222.35
904.12	222.35
904.43	222.36
904.73	222.35
905.03	222.36
905.34	222.45
905.64	222.45
905.95	222.45
906.25	222.45
906.56	222.45
906.86	222.45
907.17	222.43
907.47	222.44
907.77	222.43
908.08	222.41
908.38	222.42
908.69	222.42
908.99	222.44
909.30	222.45
909.60	222.45
909.90	222.45
910.21	222.42
910.51	222.40
910.81	222.41
911.12	222.42
911.42	222.42
911.73	222.31
912.03	222.32
912.33	222.34
912.64	222.34
912.94	222.33
913.24	222.31
913.55	222.31
913.85	222.30
914.15	222.32
914.46	222.33
914.76	222.32
915.06	222.32
915.37	222.30
915.67	222.29
915.97	222.29
916.27	222.27
916.58	222.28
916.88	222.28
917.18	222.27
917.49	222.33
917.79	222.33
918.09	222.35
918.39	222.37
918.70	222.36
919.00	222.36
919.30	222.42
919.60	222.41
919.91	222.41
920.21	222.41
920.51	222.39
920.81	222.38
921.12	222.40
921.42	222.40
921.72	222.41
922.02	222.41
922.32	222.43
922.63	222.43
922.93	222.49
923.23	222.49
923.53	222.49
923.83	222.42
924.13	222.42
924.44	222.42
924.74	222.44
925.04	222.46
925.34	222.45
925.64	222.41
925.94	222.41
926.24	222.47
926.55	222.46
926.85	222.48
927.15	222.48
927.45	222.47
927.75	222.47
928.05	222.47
928.35	222.46
928.65	222.48
928.95	222.48
929.26	222.43
929.56	222.46
929.86	222.47
930.16	222.46
930.46	222.45
930.76	222.45
931.06	222.40
931.36	222.37
931.66	222.39
931.96	222.40
932.26	222.40
932.56	222.36
932.86	222.37
933.16	222.37
933.46	222.36
933.76	222.34
934.06	222.36
934.36	222.40
934.66	222.39
934.96	222.37
935.26	222.37
935.56	222.39
935.86	222.35
936.16	222.34
936.46	222.33
936.76	222.33
937.06	222.31
937.36	222.32
937.66	222.33
937.96	222.32
938.26	222.29
938.56	222.29
938.86	222.29
939.16	222.31
939.46	222.32
939.76	222.32
940.06	222.32
940.35	222.30
940.65	222.25
940.95	222.26
941.25	222.23
941.55	222.23
941.85	222.21
942.15	222.24
942.45	222.27
942.75	222.27
943.04	222.27
943.34	222.29
943.64	222.28
943.94	222.27
944.24	222.27
944.54	222.28
944.84	222.27
945.13	222.26
945.43	222.24
945.73	222.23
946.03	222.22
946.33	222.21
946.62	222.20
946.92	222.19
947.22	222.20
947.52	222.21
947.82	222.22
948.11	222.21
948.41	222.18
948.71	222.15
949.01	222.16
949.31	222.15
949.60	222.14
949.90	222.16
950.20	222.16
950.50	222.15
950.79	222.14
951.09	222.16
951.39	222.16
951.69	222.16
951.98	222.17
952.28	222.18
952.58	222.18
952.87	222.18
953.17	222.20
953.47	222.18
953.76	222.18
954.06	222.16
954.36	222.15
954.66	222.15
954.95	222.18
955.25	222.19
955.55	222.20
955.84	222.19
956.14	222.19
956.44	222.19
956.73	222.18
957.03	222.19
957.32	222.19
957.62	222.18
957.92	222.20
958.21	222.18
958.51	222.30
958.81	222.32
959.10	222.33
959.40	222.35
959.69	222.36
959.99	222.38
960.29	222.38
960.58	222.38
960.88	222.41
961.17	222.39
961.47	222.40
961.76	222.39
962.06	222.40
962.36	222.39
962.65	222.39
962.95	222.40
963.24	222.39
963.54	222.39
963.83	222.40
964.13	222.40
964.42	222.39
964.72	222.30
965.01	222.30
965.31	222.29
965.60	222.26
965.90	222.32
966.19	222.30
966.49	222.31
966.78	222.31
967.08	222.30
967.37	222.30
967.67	222.28
967.96	222.30
968.26	222.29
968.55	222.31
968.85	222.30
969.14	222.30
969.43	222.30
969.73	222.28
970.02	222.28
970.32	222.27
970.61	222.25
970.91	222.22
971.20	222.20
971.49	222.19
971.79	222.21
972.08	222.13
972.38	222.14
972.67	222.13
972.96	222.15
973.26	222.13
973.55	222.16
973.85	222.15
974.14	222.14
974.43	222.14
974.73	222.12
975.02	222.11
975.31	222.12
975.61	222.11
975.90	222.11
976.19	222.10
976.49	222.11
976.78	222.11
977.07	222.12
977.37	222.13
977.66	222.14
977.95	222.12
978.24	222.13
978.54	222.15
978.83	222.15
979.12	222.14
979.42	222.14
979.71	222.12
980.00	222.12
980.29	222.12
980.59	222.11
980.88	222.14
981.17	222.14
981.46	222.14
981.76	222.14
982.05	222.17
982.34	222.18
982.63	222.18
982.93	222.18
983.22	222.21
983.51	222.21
983.80	222.22
984.09	222.24
984.39	222.23
984.68	222.21
984.97	222.22
985.26	222.21
985.55	222.22
985.85	222.20
986.14	222.21
986.43	222.22
986.72	222.22
987.01	222.18
987.30	222.19
987.59	222.18
987.89	222.18
988.18	222.15
988.47	222.14
988.76	222.13
989.05	222.12
989.34	222.11
989.63	222.13
989.92	222.11
990.22	222.09
990.51	222.09
990.80	222.08
991.09	222.09
991.38	222.10
991.67	222.09
991.96	222.08
992.25	222.08
992.54	222.06
992.83	222.06
993.12	222.06
993.41	222.07
993.70	222.12
993.99	222.13
994.28	222.15
994.58	222.16
994.87	222.15
995.16	222.15
995.45	222.14
995.74	222.10
996.03	222.12
996.32	222.14
996.61	222.16
996.90	222.16
997.19	222.15
997.48	222.15
997.77	222.14
998.06	222.15
998.34	222.14
998.63	222.14
998.92	222.15
999.21	222.17
999.50	222.17
999.79	222.13
1000.08	222.13
1000.37	222.13
1000.66	222.11
1000.95	222.14
1001.24	222.15
1001.53	222.16
1001.82	222.16
1002.11	222.14
1002.40	222.15
1002.68	222.17
1002.97	222.24
1003.26	222.23
1003.55	222.22
1003.84	222.23
1004.13	222.26
1004.42	222.26
1004.71	222.26
1004.99	222.25
1005.28	222.27
1005.57	222.26
1005.86	222.25
1006.15	222.24
1006.44	222.22
1006.72	222.24
1007.01	222.22
1007.30	222.22
1007.59	222.21
1007.88	222.21
1008.17	222.21
1008.45	222.19
1008.74	222.15
1009.03	222.10
1009.32	222.10
1009.60	222.10
1009.89	222.09
1010.18	222.05
1010.47	222.05
1010.76	222.05
1011.04	222.04
1011.33	222.04
1011.62	222.05
1011.91	222.05
1012.19	222.06
1012.48	222.06
1012.77	222.06
1013.05	222.09
1013.34	222.10
1013.63	222.09
1013.92	222.10
1014.20	222.09
1014.49	222.10
1014.78	222.11
1015.06	222.08
1015.35	222.08
1015.64	222.09
1015.92	222.11
1016.21	222.12
1016.50	222.12
1016.78	222.14
1017.07	222.15
1017.36	222.13
1017.64	222.11
1017.93	222.12
1018.22	222.11
1018.50	222.11
1018.79	222.11
1019.08	222.07
1019.36	222.07
1019.65	222.07
1019.93	222.09
1020.22	222.11
1020.51	222.16
1020.79	222.14
1021.08	221.94
1021.36	221.89
1021.65	222.06
1021.94	222.07
1022.22	222.13
1022.51	221.89
1022.79	222.60
1023.08	222.22
1023.36	223.36
1023.65	221.81
>>>>>End Processed Spectral Data<<<<<
