SpectraSuite Data File
++++++++++++++++++++++++++++++++++++
Date: Wed Sep 30 18:19:17 EDT 2015
User: lab3
Dark Spectrum Present: No
Reference Spectrum Present: No
Number of Sampled Component Spectra: 1
Spectrometers: USB2E7196
Integration Time (usec): 36000 (USB2E7196)
Spectra Averaged: 3000 (USB2E7196)
Boxcar Smoothing: 10 (USB2E7196)
Correct for Electrical Dark: No (USB2E7196)
Strobe/Lamp Enabled: No (USB2E7196)
Correct for Detector Non-linearity: No (USB2E7196)
Correct for Stray Light: No (USB2E7196)
Number of Pixels in Processed Spectrum: 2048
>>>>>Begin Processed Spectral Data<<<<<
339.09	0.00
339.48	210.90
339.86	212.30
340.24	213.63
340.63	215.05
341.01	217.98
341.39	217.66
341.78	219.00
342.16	220.21
342.54	220.70
342.93	209.33
343.31	219.90
343.69	220.43
344.07	220.89
344.46	221.32
344.84	221.71
345.22	221.94
345.60	222.20
345.99	222.41
346.37	222.54
346.75	222.65
347.13	222.73
347.52	222.80
347.90	222.89
348.28	222.92
348.66	222.97
349.05	222.96
349.43	223.02
349.81	223.07
350.19	223.14
350.57	223.21
350.96	223.28
351.34	223.36
351.72	223.46
352.10	223.56
352.48	223.64
352.87	223.69
353.25	223.75
353.63	223.81
354.01	223.87
354.39	223.95
354.77	224.03
355.15	224.13
355.54	224.18
355.92	224.22
356.30	224.29
356.68	224.43
357.06	224.50
357.44	224.55
357.82	224.60
358.20	224.71
358.58	224.76
358.97	224.83
359.35	224.91
359.73	224.99
360.11	225.04
360.49	225.10
360.87	225.15
361.25	225.21
361.63	225.29
362.01	225.34
362.39	225.37
362.77	225.42
363.15	225.45
363.53	225.49
363.91	225.52
364.29	225.55
364.67	225.47
365.05	225.50
365.43	225.53
365.81	225.56
366.19	225.58
366.57	225.63
366.95	225.63
367.33	225.60
367.71	225.60
368.09	225.62
368.47	225.61
368.85	225.59
369.23	225.60
369.61	225.55
369.99	225.56
370.37	225.55
370.75	225.60
371.13	225.58
371.51	225.53
371.89	225.51
372.27	225.48
372.65	225.46
373.03	225.41
373.41	225.37
373.78	225.31
374.16	225.23
374.54	225.15
374.92	225.10
375.30	225.07
375.68	225.00
376.06	224.96
376.44	224.90
376.82	224.86
377.19	224.81
377.57	224.76
377.95	224.67
378.33	224.61
378.71	224.47
379.09	224.41
379.47	224.38
379.84	224.31
380.22	224.24
380.60	224.17
380.98	224.12
381.36	224.07
381.73	224.01
382.11	223.98
382.49	223.94
382.87	223.88
383.25	223.83
383.62	223.90
384.00	223.83
384.38	223.79
384.76	223.77
385.13	223.76
385.51	223.72
385.89	223.68
386.27	223.64
386.64	223.62
387.02	223.58
387.40	223.53
387.78	223.51
388.15	223.49
388.53	223.45
388.91	223.42
389.29	223.38
389.66	223.37
390.04	223.33
390.42	223.32
390.79	223.31
391.17	223.29
391.55	223.16
391.92	223.14
392.30	223.14
392.68	223.10
393.05	223.08
393.43	223.07
393.81	223.07
394.18	223.05
394.56	223.05
394.94	223.08
395.31	223.08
395.69	223.11
396.06	223.14
396.44	223.16
396.82	223.18
397.19	223.25
397.57	223.26
397.95	223.30
398.32	223.29
398.70	223.33
399.07	223.39
399.45	223.42
399.82	223.46
400.20	223.50
400.58	223.55
400.95	223.57
401.33	223.64
401.70	223.77
402.08	223.86
402.45	223.93
402.83	224.03
403.20	224.13
403.58	224.21
403.95	224.33
404.33	224.47
404.71	224.59
405.08	224.77
405.46	224.91
405.83	225.06
406.21	225.24
406.58	225.42
406.96	225.60
407.33	225.82
407.70	226.05
408.08	226.38
408.45	226.66
408.83	226.96
409.20	227.24
409.58	227.48
409.95	227.81
410.33	228.18
410.70	228.52
411.08	228.93
411.45	229.35
411.82	229.78
412.20	230.27
412.57	230.86
412.95	231.31
413.32	231.92
413.69	232.54
414.07	233.19
414.44	233.91
414.82	234.63
415.19	235.49
415.56	236.35
415.94	237.24
416.31	238.24
416.68	239.26
417.06	240.42
417.43	241.52
417.81	242.78
418.18	244.08
418.55	245.48
418.93	246.95
419.30	248.48
419.67	250.10
420.04	251.78
420.42	253.53
420.79	255.56
421.16	257.60
421.54	259.67
421.91	261.84
422.28	264.10
422.66	266.54
423.03	268.85
423.40	271.29
423.77	273.90
424.15	276.58
424.52	279.37
424.89	282.39
425.26	285.38
425.64	288.16
426.01	291.29
426.38	294.49
426.75	297.79
427.13	301.17
427.50	304.71
427.87	308.38
428.24	312.09
428.61	315.64
428.99	319.46
429.36	323.66
429.73	327.67
430.10	331.67
430.47	335.76
430.85	339.95
431.22	344.44
431.59	349.03
431.96	353.51
432.33	358.47
432.70	363.16
433.08	368.72
433.45	373.97
433.82	379.13
434.19	384.89
434.56	390.55
434.93	396.00
435.30	401.38
435.68	407.44
436.05	413.37
436.42	419.31
436.79	424.73
437.16	430.56
437.53	436.81
437.90	443.05
438.27	449.13
438.64	455.75
439.01	461.71
439.38	467.17
439.75	472.43
440.13	478.43
440.50	484.14
440.87	488.63
441.24	493.58
441.61	499.05
441.98	503.04
442.35	507.80
442.72	512.69
443.09	517.37
443.46	520.38
443.83	522.62
444.20	524.51
444.57	527.25
444.94	528.89
445.31	530.59
445.68	532.12
446.05	533.27
446.42	533.14
446.79	532.93
447.16	532.75
447.53	532.62
447.90	530.89
448.27	529.28
448.64	526.70
449.01	525.02
449.37	521.29
449.74	517.90
450.11	513.53
450.48	508.71
450.85	503.87
451.22	499.77
451.59	495.74
451.96	492.08
452.33	486.70
452.70	481.91
453.07	476.07
453.43	470.19
453.80	464.52
454.17	459.06
454.54	454.00
454.91	448.29
455.28	442.91
455.65	437.85
456.02	432.44
456.38	428.08
456.75	422.45
457.12	417.90
457.49	413.33
457.86	408.94
458.23	405.12
458.59	400.88
458.96	396.51
459.33	392.67
459.70	388.76
460.07	385.79
460.43	382.27
460.80	378.98
461.17	376.08
461.54	372.95
461.91	370.02
462.27	367.05
462.64	364.60
463.01	361.81
463.38	358.98
463.74	356.41
464.11	354.14
464.48	352.07
464.85	349.86
465.21	348.17
465.58	346.30
465.95	344.15
466.32	342.43
466.68	340.75
467.05	339.05
467.42	337.42
467.78	335.64
468.15	334.01
468.52	332.80
468.88	331.21
469.25	329.75
469.62	328.59
469.98	327.33
470.35	326.22
470.72	325.20
471.08	324.18
471.45	323.33
471.82	322.39
472.18	321.42
472.55	320.79
472.92	320.00
473.28	319.39
473.65	318.75
474.02	318.14
474.38	317.65
474.75	317.37
475.11	316.95
475.48	316.80
475.85	316.64
476.21	316.58
476.58	316.57
476.94	316.74
477.31	316.85
477.67	316.98
478.04	317.23
478.41	317.55
478.77	317.99
479.14	318.31
479.50	318.85
479.87	319.52
480.23	320.19
480.60	320.84
480.96	321.51
481.33	322.44
481.69	323.37
482.06	324.30
482.42	325.18
482.79	326.24
483.15	327.44
483.52	328.79
483.88	330.10
484.25	331.50
484.61	332.96
484.98	334.51
485.34	336.26
485.71	338.08
486.07	340.01
486.44	341.93
486.80	344.07
487.17	346.26
487.53	348.66
487.90	351.16
488.26	353.89
488.62	356.75
488.99	359.61
489.35	362.61
489.72	365.84
490.08	369.24
490.44	372.71
490.81	376.36
491.17	380.11
491.54	384.12
491.90	388.21
492.26	392.62
492.63	397.27
492.99	402.10
493.36	407.05
493.72	412.28
494.08	417.64
494.45	423.30
494.81	429.16
495.17	435.16
495.54	441.48
495.90	448.12
496.26	454.90
496.63	461.90
496.99	469.20
497.35	476.86
497.72	484.80
498.08	492.91
498.44	501.27
498.80	510.16
499.17	519.26
499.53	528.71
499.89	538.36
500.26	548.20
500.62	558.33
500.98	569.11
501.34	580.03
501.71	591.47
502.07	603.13
502.43	615.22
502.79	627.62
503.16	640.44
503.52	653.43
503.88	666.75
504.24	680.53
504.60	694.58
504.97	708.99
505.33	723.78
505.69	739.49
506.05	755.40
506.41	771.34
506.78	787.60
507.14	804.33
507.50	821.66
507.86	839.35
508.22	857.29
508.59	875.29
508.95	894.00
509.31	913.16
509.67	933.00
510.03	953.04
510.39	973.32
510.75	993.81
511.12	1014.59
511.48	1035.70
511.84	1056.97
512.20	1078.57
512.56	1101.29
512.92	1124.19
513.28	1146.80
513.64	1169.73
514.00	1193.12
514.37	1216.79
514.73	1240.50
515.09	1264.06
515.45	1288.03
515.81	1312.57
516.17	1337.18
516.53	1361.50
516.89	1385.93
517.25	1410.55
517.61	1435.35
517.97	1460.40
518.33	1485.26
518.69	1510.31
519.05	1535.63
519.41	1561.06
519.77	1586.79
520.13	1611.76
520.49	1636.93
520.85	1662.32
521.21	1687.60
521.57	1713.46
521.93	1738.65
522.29	1764.66
522.65	1790.44
523.01	1816.06
523.37	1840.88
523.73	1866.42
524.09	1892.20
524.45	1917.82
524.81	1942.94
525.17	1967.98
525.53	1992.64
525.89	2017.22
526.25	2042.03
526.61	2066.28
526.97	2090.82
527.33	2115.31
527.68	2139.60
528.04	2163.19
528.40	2186.62
528.76	2210.26
529.12	2232.88
529.48	2255.98
529.84	2277.24
530.20	2298.97
530.56	2320.38
530.91	2341.97
531.27	2362.98
531.63	2383.35
531.99	2403.21
532.35	2422.95
532.71	2442.84
533.07	2463.24
533.42	2482.18
533.78	2501.45
534.14	2520.73
534.50	2539.14
534.86	2558.16
535.21	2575.43
535.57	2592.53
535.93	2608.92
536.29	2624.04
536.65	2639.93
537.00	2654.69
537.36	2670.16
537.72	2684.62
538.08	2698.81
538.44	2711.86
538.79	2725.13
539.15	2736.58
539.51	2747.95
539.87	2758.71
540.22	2767.28
540.58	2776.12
540.94	2785.46
541.29	2793.37
541.65	2800.34
542.01	2806.83
542.37	2811.38
542.72	2817.87
543.08	2823.76
543.44	2829.50
543.79	2834.64
544.15	2838.86
544.51	2843.01
544.87	2846.15
545.22	2848.94
545.58	2850.62
545.94	2852.87
546.29	2853.61
546.65	2854.46
547.01	2855.49
547.36	2856.68
547.72	2858.20
548.07	2858.02
548.43	2857.30
548.79	2855.89
549.14	2854.42
549.50	2853.57
549.86	2851.75
550.21	2847.63
550.57	2844.00
550.92	2838.93
551.28	2834.40
551.64	2829.73
551.99	2825.44
552.35	2820.79
552.70	2815.64
553.06	2811.18
553.41	2806.11
553.77	2800.41
554.13	2795.60
554.48	2789.68
554.84	2782.27
555.19	2774.88
555.55	2766.90
555.90	2759.46
556.26	2753.09
556.61	2746.09
556.97	2736.86
557.32	2728.79
557.68	2720.85
558.03	2712.25
558.39	2704.46
558.74	2696.77
559.10	2688.00
559.45	2678.81
559.81	2669.71
560.16	2660.03
560.52	2649.99
560.87	2640.99
561.23	2631.62
561.58	2621.74
561.94	2611.75
562.29	2601.08
562.64	2591.00
563.00	2581.30
563.35	2571.46
563.71	2560.49
564.06	2549.17
564.42	2538.84
564.77	2528.06
565.12	2517.35
565.48	2506.38
565.83	2496.03
566.19	2485.79
566.54	2474.97
566.89	2463.34
567.25	2451.87
567.60	2441.16
567.96	2429.99
568.31	2417.48
568.66	2404.99
569.02	2393.42
569.37	2381.66
569.72	2370.47
570.08	2358.47
570.43	2345.89
570.78	2332.93
571.14	2320.06
571.49	2307.82
571.84	2295.79
572.20	2282.41
572.55	2269.59
572.90	2256.57
573.26	2242.68
573.61	2228.19
573.96	2214.01
574.31	2200.11
574.67	2186.39
575.02	2172.20
575.37	2157.61
575.72	2143.35
576.08	2129.49
576.43	2114.60
576.78	2099.72
577.13	2085.65
577.49	2071.75
577.84	2058.25
578.19	2043.96
578.54	2029.17
578.90	2013.82
579.25	1998.28
579.60	1984.24
579.95	1969.78
580.30	1955.40
580.66	1941.24
581.01	1926.57
581.36	1912.37
581.71	1898.80
582.06	1884.68
582.42	1870.75
582.77	1857.48
583.12	1843.67
583.47	1830.05
583.82	1816.53
584.17	1802.87
584.53	1789.10
584.88	1775.33
585.23	1761.19
585.58	1747.59
585.93	1734.31
586.28	1721.95
586.63	1709.33
586.98	1695.90
587.34	1682.71
587.69	1669.07
588.04	1655.69
588.39	1642.99
588.74	1629.68
589.09	1616.17
589.44	1602.69
589.79	1589.65
590.14	1576.54
590.49	1563.68
590.84	1550.67
591.19	1538.25
591.54	1525.41
591.89	1512.37
592.25	1499.61
592.60	1486.51
592.95	1473.94
593.30	1461.75
593.65	1449.33
594.00	1437.20
594.35	1425.77
594.70	1413.49
595.05	1402.18
595.40	1390.71
595.75	1378.68
596.10	1367.52
596.45	1356.59
596.80	1346.05
597.15	1335.32
597.50	1324.55
597.85	1314.01
598.19	1303.66
598.54	1292.79
598.89	1282.59
599.24	1272.69
599.59	1262.55
599.94	1253.45
600.29	1244.19
600.64	1234.73
600.99	1224.64
601.34	1215.02
601.69	1204.87
602.04	1195.88
602.39	1186.79
602.74	1177.95
603.08	1169.36
603.43	1160.23
603.78	1150.93
604.13	1141.78
604.48	1132.55
604.83	1123.62
605.18	1114.57
605.53	1105.46
605.87	1096.42
606.22	1087.65
606.57	1078.62
606.92	1069.65
607.27	1060.53
607.62	1051.54
607.96	1042.75
608.31	1035.04
608.66	1026.88
609.01	1019.13
609.36	1011.25
609.70	1003.12
610.05	994.87
610.40	986.96
610.75	979.14
611.10	971.59
611.44	963.67
611.79	956.07
612.14	948.04
612.49	940.20
612.83	932.86
613.18	925.61
613.53	918.19
613.88	910.87
614.22	904.19
614.57	897.26
614.92	890.34
615.27	883.43
615.61	876.32
615.96	869.47
616.31	862.53
616.65	855.54
617.00	848.77
617.35	842.10
617.70	835.47
618.04	828.96
618.39	822.46
618.74	816.29
619.08	809.94
619.43	803.87
619.78	797.80
620.12	791.52
620.47	785.43
620.82	779.41
621.16	773.70
621.51	767.66
621.85	761.62
622.20	755.62
622.55	749.78
622.89	743.87
623.24	738.01
623.59	732.25
623.93	726.53
624.28	721.01
624.62	715.43
624.97	709.83
625.32	704.35
625.66	698.75
626.01	693.15
626.35	687.71
626.70	682.30
627.04	677.08
627.39	671.94
627.73	666.89
628.08	662.06
628.43	657.07
628.77	652.11
629.12	647.34
629.46	642.76
629.81	638.00
630.15	633.17
630.50	628.48
630.84	623.98
631.19	619.65
631.53	615.33
631.88	610.95
632.22	606.66
632.57	602.59
632.91	598.46
633.26	594.40
633.60	590.44
633.95	586.62
634.29	582.61
634.64	578.58
634.98	574.44
635.32	570.47
635.67	566.68
636.01	562.84
636.36	559.02
636.70	555.35
637.05	551.67
637.39	548.16
637.73	544.51
638.08	540.95
638.42	537.38
638.77	533.67
639.11	529.93
639.45	526.22
639.80	522.52
640.14	519.02
640.49	515.49
640.83	511.83
641.17	508.23
641.52	504.78
641.86	501.33
642.20	498.06
642.55	494.63
642.89	491.28
643.23	488.15
643.58	485.26
643.92	482.23
644.26	479.23
644.61	476.22
644.95	473.22
645.29	470.16
645.64	467.06
645.98	464.11
646.32	461.36
646.66	458.61
647.01	455.82
647.35	453.08
647.69	450.23
648.04	447.52
648.38	444.84
648.72	442.13
649.06	439.50
649.41	436.91
649.75	434.31
650.09	431.73
650.43	429.14
650.78	426.53
651.12	423.90
651.46	421.38
651.80	418.98
652.14	416.66
652.49	414.33
652.83	412.09
653.17	409.82
653.51	407.61
653.85	405.49
654.20	403.30
654.54	401.02
654.88	398.95
655.22	396.92
655.56	394.86
655.90	392.89
656.25	390.93
656.59	388.96
656.93	387.11
657.27	385.29
657.61	383.37
657.95	381.53
658.29	379.69
658.64	377.87
658.98	376.02
659.32	374.21
659.66	372.51
660.00	370.80
660.34	369.14
660.68	367.42
661.02	365.63
661.36	363.98
661.70	362.39
662.05	360.77
662.39	359.15
662.73	357.61
663.07	356.10
663.41	354.62
663.75	353.17
664.09	351.72
664.43	350.19
664.77	348.76
665.11	347.27
665.45	345.87
665.79	344.47
666.13	343.06
666.47	341.62
666.81	340.17
667.15	338.68
667.49	337.29
667.83	335.96
668.17	334.66
668.51	333.37
668.85	332.10
669.19	330.92
669.53	329.66
669.87	328.37
670.21	327.11
670.55	325.87
670.89	324.69
671.23	323.50
671.57	322.30
671.91	321.17
672.25	320.10
672.58	319.02
672.92	317.92
673.26	316.89
673.60	315.87
673.94	314.83
674.28	313.86
674.62	312.87
674.96	311.84
675.30	310.88
675.64	309.90
675.97	308.94
676.31	307.94
676.65	306.97
676.99	306.06
677.33	305.11
677.67	304.19
678.01	303.21
678.34	302.29
678.68	301.43
679.02	300.54
679.36	299.65
679.70	298.77
680.04	297.91
680.37	297.04
680.71	296.20
681.05	295.42
681.39	294.60
681.73	293.75
682.06	292.94
682.40	292.14
682.74	291.36
683.08	290.60
683.42	289.83
683.75	289.13
684.09	288.35
684.43	287.62
684.77	286.87
685.10	286.18
685.44	285.47
685.78	284.75
686.12	284.07
686.45	283.37
686.79	282.67
687.13	281.99
687.46	281.30
687.80	280.63
688.14	279.92
688.48	279.27
688.81	278.62
689.15	278.01
689.49	277.36
689.82	276.73
690.16	276.05
690.50	275.43
690.83	274.79
691.17	274.18
691.51	273.58
691.84	273.01
692.18	272.40
692.52	271.78
692.85	271.19
693.19	270.63
693.52	270.07
693.86	269.51
694.20	268.95
694.53	268.42
694.87	267.87
695.21	267.35
695.54	266.81
695.88	266.27
696.21	265.70
696.55	265.18
696.88	264.66
697.22	264.16
697.56	263.65
697.89	263.10
698.23	262.58
698.56	262.05
698.90	261.57
699.23	261.06
699.57	260.61
699.90	260.13
700.24	259.64
700.58	259.18
700.91	258.76
701.25	258.40
701.58	258.01
701.92	257.61
702.25	257.18
702.59	256.75
702.92	256.35
703.26	255.95
703.59	255.55
703.93	255.23
704.26	254.85
704.60	254.46
704.93	254.09
705.26	253.72
705.60	253.39
705.93	253.00
706.27	252.68
706.60	252.34
706.94	252.01
707.27	251.61
707.61	251.24
707.94	250.87
708.27	250.42
708.61	250.03
708.94	249.66
709.28	249.32
709.61	248.99
709.94	248.68
710.28	248.36
710.61	248.07
710.95	247.68
711.28	247.44
711.61	247.15
711.95	246.88
712.28	246.58
712.61	246.27
712.95	246.05
713.28	245.81
713.61	245.52
713.95	245.23
714.28	245.00
714.61	244.73
714.95	244.47
715.28	244.22
715.61	243.96
715.95	243.72
716.28	243.47
716.61	243.25
716.95	243.01
717.28	242.78
717.61	242.53
717.94	242.30
718.28	242.00
718.61	241.77
718.94	241.53
719.27	241.31
719.61	241.11
719.94	240.87
720.27	240.60
720.60	240.39
720.94	240.18
721.27	239.99
721.60	239.81
721.93	239.62
722.27	239.45
722.60	239.28
722.93	239.08
723.26	238.90
723.59	238.69
723.93	238.51
724.26	238.34
724.59	238.16
724.92	237.99
725.25	237.85
725.59	237.68
725.92	237.53
726.25	237.36
726.58	237.20
726.91	237.03
727.24	236.88
727.57	236.73
727.91	236.56
728.24	236.42
728.57	236.26
728.90	236.12
729.23	235.94
729.56	235.83
729.89	235.69
730.22	235.54
730.55	235.39
730.89	235.25
731.22	235.09
731.55	234.96
731.88	234.83
732.21	234.67
732.54	234.54
732.87	234.41
733.20	234.29
733.53	234.18
733.86	234.07
734.19	233.93
734.52	233.83
734.85	233.78
735.18	233.64
735.51	233.55
735.84	233.43
736.17	233.34
736.50	233.18
736.83	233.19
737.16	233.09
737.49	233.00
737.82	232.89
738.15	232.81
738.48	232.71
738.81	232.59
739.14	232.48
739.47	232.37
739.80	232.26
740.13	232.17
740.46	232.06
740.79	231.94
741.12	231.85
741.45	231.73
741.78	231.58
742.11	231.51
742.44	231.39
742.77	231.31
743.10	231.20
743.43	231.09
743.75	230.90
744.08	230.96
744.41	230.86
744.74	230.76
745.07	230.65
745.40	230.58
745.73	230.54
746.06	230.46
746.39	230.40
746.71	230.33
747.04	230.23
747.37	230.15
747.70	230.10
748.03	230.02
748.36	229.96
748.68	229.89
749.01	229.78
749.34	229.71
749.67	229.64
750.00	229.60
750.33	229.61
750.65	229.54
750.98	229.33
751.31	229.26
751.64	229.20
751.97	229.20
752.29	229.11
752.62	229.00
752.95	228.92
753.28	228.84
753.60	228.77
753.93	228.73
754.26	228.67
754.59	228.56
754.91	228.50
755.24	228.42
755.57	228.40
755.90	228.33
756.22	228.26
756.55	228.17
756.88	228.08
757.20	227.95
757.53	227.86
757.86	227.80
758.19	227.75
758.51	227.69
758.84	227.58
759.17	227.52
759.49	227.48
759.82	227.48
760.15	227.43
760.47	227.38
760.80	227.30
761.13	227.27
761.45	227.22
761.78	227.17
762.11	227.14
762.43	227.04
762.76	226.99
763.08	226.97
763.41	226.93
763.74	226.89
764.06	226.84
764.39	226.81
764.71	226.76
765.04	226.71
765.37	226.67
765.69	226.62
766.02	226.58
766.34	226.53
766.67	226.44
767.00	226.42
767.32	226.43
767.65	226.45
767.97	226.40
768.30	226.37
768.62	226.34
768.95	226.28
769.27	226.24
769.60	226.21
769.92	226.15
770.25	226.11
770.57	226.05
770.90	226.02
771.22	225.96
771.55	225.93
771.87	225.90
772.20	225.87
772.52	225.92
772.85	226.01
773.17	225.98
773.50	225.94
773.82	225.89
774.15	225.81
774.47	225.71
774.80	225.67
775.12	225.63
775.45	225.59
775.77	225.57
776.09	225.56
776.42	225.53
776.74	225.53
777.07	225.49
777.39	225.48
777.72	225.44
778.04	225.43
778.36	225.40
778.69	225.37
779.01	225.36
779.33	225.25
779.66	225.10
779.98	225.07
780.31	225.06
780.63	225.08
780.95	225.08
781.28	225.06
781.60	225.03
781.92	225.02
782.25	225.00
782.57	224.98
782.89	224.95
783.22	224.92
783.54	224.88
783.86	224.87
784.19	224.84
784.51	224.85
784.83	224.82
785.16	224.80
785.48	224.79
785.80	224.77
786.12	224.75
786.45	224.74
786.77	224.73
787.09	224.70
787.42	224.65
787.74	224.63
788.06	224.61
788.38	224.59
788.71	224.56
789.03	224.55
789.35	224.55
789.67	224.52
789.99	224.51
790.32	224.49
790.64	224.49
790.96	224.57
791.28	224.52
791.61	224.50
791.93	224.49
792.25	224.47
792.57	224.53
792.89	224.51
793.21	224.51
793.54	224.48
793.86	224.47
794.18	224.46
794.50	224.42
794.82	224.41
795.14	224.42
795.47	224.43
795.79	224.41
796.11	224.38
796.43	224.35
796.75	224.34
797.07	224.33
797.39	224.31
797.71	224.22
798.04	224.21
798.36	224.20
798.68	224.19
799.00	224.18
799.32	224.11
799.64	224.12
799.96	224.10
800.28	224.11
800.60	224.10
800.92	224.09
801.24	224.08
801.56	224.07
801.89	224.05
802.21	224.05
802.53	224.02
802.85	224.04
803.17	224.08
803.49	224.06
803.81	224.04
804.13	224.02
804.45	224.00
804.77	224.00
805.09	224.00
805.41	223.98
805.73	223.95
806.05	223.92
806.37	223.90
806.69	223.88
807.01	223.86
807.33	223.86
807.65	223.81
807.97	223.85
808.28	223.82
808.60	223.81
808.92	223.79
809.24	223.84
809.56	223.81
809.88	223.76
810.20	223.75
810.52	223.77
810.84	223.75
811.16	223.74
811.48	223.72
811.80	223.74
812.12	223.73
812.43	223.75
812.75	223.74
813.07	223.73
813.39	223.73
813.71	223.71
814.03	223.69
814.35	223.69
814.67	223.65
814.98	223.64
815.30	223.63
815.62	223.60
815.94	223.52
816.26	223.53
816.58	223.50
816.89	223.51
817.21	223.48
817.53	223.48
817.85	223.48
818.17	223.48
818.48	223.43
818.80	223.45
819.12	223.42
819.44	223.39
819.76	223.37
820.07	223.37
820.39	223.37
820.71	223.37
821.03	223.37
821.34	223.36
821.66	223.36
821.98	223.37
822.30	223.37
822.61	223.43
822.93	223.41
823.25	223.40
823.57	223.39
823.88	223.40
824.20	223.39
824.52	223.40
824.83	223.39
825.15	223.38
825.47	223.37
825.79	223.37
826.10	223.37
826.42	223.36
826.74	223.36
827.05	223.36
827.37	223.35
827.69	223.34
828.00	223.34
828.32	223.33
828.64	223.31
828.95	223.37
829.27	223.34
829.58	223.33
829.90	223.35
830.22	223.35
830.53	223.32
830.85	223.31
831.17	223.28
831.48	223.28
831.80	223.28
832.11	223.27
832.43	223.25
832.75	223.24
833.06	223.30
833.38	223.27
833.69	223.26
834.01	223.27
834.32	223.26
834.64	223.25
834.96	223.25
835.27	223.25
835.59	223.21
835.90	223.19
836.22	223.19
836.53	223.16
836.85	223.15
837.16	223.25
837.48	223.25
837.79	223.28
838.11	223.28
838.42	223.28
838.74	223.29
839.05	223.28
839.37	223.28
839.68	223.21
840.00	223.21
840.31	223.22
840.63	223.20
840.94	223.19
841.26	223.18
841.57	223.17
841.88	223.17
842.20	223.16
842.51	223.15
842.83	223.14
843.14	223.24
843.46	223.23
843.77	223.16
844.08	223.15
844.40	223.12
844.71	223.11
845.03	223.09
845.34	223.08
845.65	223.08
845.97	223.08
846.28	223.09
846.60	223.09
846.91	223.08
847.22	223.07
847.54	223.10
847.85	223.10
848.16	223.08
848.48	223.06
848.79	223.09
849.10	223.10
849.42	223.10
849.73	223.00
850.04	223.00
850.36	222.96
850.67	222.98
850.98	222.98
851.30	222.98
851.61	222.98
851.92	222.97
852.23	223.00
852.55	223.00
852.86	223.00
853.17	223.00
853.49	223.02
853.80	223.04
854.11	223.04
854.42	223.05
854.74	223.04
855.05	223.05
855.36	222.99
855.67	223.00
855.99	222.99
856.30	223.11
856.61	223.11
856.92	223.11
857.23	223.11
857.55	223.10
857.86	223.09
858.17	223.11
858.48	223.09
858.79	223.06
859.11	223.07
859.42	223.06
859.73	223.05
860.04	223.05
860.35	223.02
860.66	222.99
860.98	222.98
861.29	223.00
861.60	223.00
861.91	223.02
862.22	223.01
862.53	222.99
862.84	222.88
863.16	222.89
863.47	222.88
863.78	222.86
864.09	222.87
864.40	222.87
864.71	222.87
865.02	222.89
865.33	222.88
865.64	222.86
865.95	222.87
866.27	222.93
866.58	222.91
866.89	222.93
867.20	222.93
867.51	222.91
867.82	222.91
868.13	222.94
868.44	222.91
868.75	222.94
869.06	222.95
869.37	222.96
869.68	222.93
869.99	222.95
870.30	222.96
870.61	222.96
870.92	222.95
871.23	222.94
871.54	222.95
871.85	222.97
872.16	222.99
872.47	222.98
872.78	222.93
873.09	222.94
873.40	222.92
873.71	222.92
874.02	222.93
874.33	222.93
874.64	222.90
874.95	222.92
875.26	222.89
875.56	222.88
875.87	222.88
876.18	222.87
876.49	222.97
876.80	222.96
877.11	222.94
877.42	222.95
877.73	222.95
878.04	222.93
878.35	222.93
878.66	222.94
878.96	222.93
879.27	222.92
879.58	222.91
879.89	222.91
880.20	222.94
880.51	222.93
880.82	222.93
881.12	222.94
881.43	222.92
881.74	222.91
882.05	222.90
882.36	222.90
882.67	222.91
882.97	222.80
883.28	222.80
883.59	222.80
883.90	222.80
884.21	222.82
884.51	222.81
884.82	222.79
885.13	222.78
885.44	222.79
885.74	222.79
886.05	222.78
886.36	222.78
886.67	222.74
886.98	222.80
887.28	222.81
887.59	222.80
887.90	222.80
888.20	222.80
888.51	222.82
888.82	222.81
889.13	222.81
889.43	222.91
889.74	222.90
890.05	222.90
890.35	222.89
890.66	222.86
890.97	222.85
891.28	222.84
891.58	222.84
891.89	222.84
892.20	222.82
892.50	222.82
892.81	222.81
893.12	222.81
893.42	222.75
893.73	222.74
894.04	222.74
894.34	222.75
894.65	222.74
894.95	222.73
895.26	222.74
895.57	222.78
895.87	222.67
896.18	222.69
896.48	222.69
896.79	222.69
897.10	222.71
897.40	222.71
897.71	222.72
898.01	222.71
898.32	222.72
898.63	222.71
898.93	222.72
899.24	222.73
899.54	222.72
899.85	222.72
900.15	222.71
900.46	222.71
900.76	222.72
901.07	222.72
901.38	222.71
901.68	222.72
901.99	222.66
902.29	222.67
902.60	222.66
902.90	222.66
903.21	222.66
903.51	222.64
903.82	222.67
904.12	222.67
904.43	222.68
904.73	222.68
905.03	222.69
905.34	222.79
905.64	222.77
905.95	222.78
906.25	222.77
906.56	222.77
906.86	222.77
907.17	222.76
907.47	222.77
907.77	222.76
908.08	222.74
908.38	222.75
908.69	222.76
908.99	222.78
909.30	222.78
909.60	222.78
909.90	222.78
910.21	222.75
910.51	222.73
910.81	222.73
911.12	222.74
911.42	222.74
911.73	222.63
912.03	222.64
912.33	222.66
912.64	222.66
912.94	222.65
913.24	222.64
913.55	222.63
913.85	222.63
914.15	222.65
914.46	222.66
914.76	222.65
915.06	222.65
915.37	222.63
915.67	222.62
915.97	222.62
916.27	222.60
916.58	222.61
916.88	222.61
917.18	222.60
917.49	222.67
917.79	222.66
918.09	222.68
918.39	222.71
918.70	222.70
919.00	222.71
919.30	222.76
919.60	222.75
919.91	222.74
920.21	222.75
920.51	222.73
920.81	222.72
921.12	222.73
921.42	222.73
921.72	222.74
922.02	222.75
922.32	222.76
922.63	222.76
922.93	222.82
923.23	222.82
923.53	222.82
923.83	222.75
924.13	222.76
924.44	222.76
924.74	222.77
925.04	222.79
925.34	222.78
925.64	222.73
925.94	222.74
926.24	222.79
926.55	222.78
926.85	222.79
927.15	222.79
927.45	222.78
927.75	222.79
928.05	222.78
928.35	222.77
928.65	222.78
928.95	222.79
929.26	222.74
929.56	222.76
929.86	222.78
930.16	222.76
930.46	222.75
930.76	222.75
931.06	222.70
931.36	222.67
931.66	222.68
931.96	222.70
932.26	222.70
932.56	222.66
932.86	222.66
933.16	222.66
933.46	222.65
933.76	222.64
934.06	222.66
934.36	222.70
934.66	222.70
934.96	222.69
935.26	222.69
935.56	222.70
935.86	222.68
936.16	222.65
936.46	222.65
936.76	222.65
937.06	222.63
937.36	222.64
937.66	222.64
937.96	222.64
938.26	222.61
938.56	222.61
938.86	222.61
939.16	222.63
939.46	222.64
939.76	222.65
940.06	222.64
940.35	222.63
940.65	222.58
940.95	222.58
941.25	222.55
941.55	222.54
941.85	222.53
942.15	222.55
942.45	222.58
942.75	222.58
943.04	222.58
943.34	222.61
943.64	222.60
943.94	222.58
944.24	222.58
944.54	222.58
944.84	222.58
945.13	222.56
945.43	222.54
945.73	222.53
946.03	222.52
946.33	222.51
946.62	222.50
946.92	222.49
947.22	222.50
947.52	222.51
947.82	222.52
948.11	222.51
948.41	222.48
948.71	222.44
949.01	222.44
949.31	222.44
949.60	222.42
949.90	222.44
950.20	222.44
950.50	222.43
950.79	222.43
951.09	222.45
951.39	222.44
951.69	222.44
951.98	222.45
952.28	222.46
952.58	222.46
952.87	222.46
953.17	222.47
953.47	222.46
953.76	222.46
954.06	222.44
954.36	222.43
954.66	222.43
954.95	222.46
955.25	222.46
955.55	222.47
955.84	222.46
956.14	222.46
956.44	222.47
956.73	222.46
957.03	222.46
957.32	222.45
957.62	222.45
957.92	222.47
958.21	222.45
958.51	222.57
958.81	222.58
959.10	222.60
959.40	222.62
959.69	222.62
959.99	222.64
960.29	222.64
960.58	222.65
960.88	222.69
961.17	222.68
961.47	222.68
961.76	222.67
962.06	222.68
962.36	222.67
962.65	222.68
962.95	222.68
963.24	222.67
963.54	222.67
963.83	222.68
964.13	222.67
964.42	222.66
964.72	222.57
965.01	222.57
965.31	222.56
965.60	222.53
965.90	222.60
966.19	222.57
966.49	222.57
966.78	222.57
967.08	222.56
967.37	222.56
967.67	222.54
967.96	222.55
968.26	222.55
968.55	222.57
968.85	222.56
969.14	222.56
969.43	222.56
969.73	222.55
970.02	222.55
970.32	222.55
970.61	222.54
970.91	222.50
971.20	222.49
971.49	222.48
971.79	222.49
972.08	222.42
972.38	222.42
972.67	222.41
972.96	222.43
973.26	222.40
973.55	222.43
973.85	222.42
974.14	222.42
974.43	222.43
974.73	222.41
975.02	222.40
975.31	222.40
975.61	222.41
975.90	222.41
976.19	222.39
976.49	222.40
976.78	222.40
977.07	222.40
977.37	222.41
977.66	222.43
977.95	222.41
978.24	222.42
978.54	222.45
978.83	222.45
979.12	222.44
979.42	222.45
979.71	222.44
980.00	222.44
980.29	222.44
980.59	222.42
980.88	222.44
981.17	222.45
981.46	222.44
981.76	222.44
982.05	222.47
982.34	222.48
982.63	222.49
982.93	222.49
983.22	222.52
983.51	222.52
983.80	222.54
984.09	222.56
984.39	222.55
984.68	222.53
984.97	222.54
985.26	222.53
985.55	222.53
985.85	222.51
986.14	222.53
986.43	222.55
986.72	222.54
987.01	222.51
987.30	222.51
987.59	222.51
987.89	222.51
988.18	222.48
988.47	222.47
988.76	222.46
989.05	222.45
989.34	222.43
989.63	222.46
989.92	222.44
990.22	222.42
990.51	222.42
990.80	222.41
991.09	222.42
991.38	222.44
991.67	222.43
991.96	222.43
992.25	222.43
992.54	222.40
992.83	222.41
993.12	222.41
993.41	222.43
993.70	222.47
993.99	222.48
994.28	222.50
994.58	222.52
994.87	222.51
995.16	222.51
995.45	222.50
995.74	222.46
996.03	222.48
996.32	222.49
996.61	222.51
996.90	222.51
997.19	222.50
997.48	222.51
997.77	222.50
998.06	222.51
998.34	222.49
998.63	222.49
998.92	222.50
999.21	222.51
999.50	222.51
999.79	222.46
1000.08	222.46
1000.37	222.46
1000.66	222.44
1000.95	222.46
1001.24	222.47
1001.53	222.48
1001.82	222.48
1002.11	222.45
1002.40	222.46
1002.68	222.48
1002.97	222.55
1003.26	222.54
1003.55	222.52
1003.84	222.53
1004.13	222.55
1004.42	222.55
1004.71	222.55
1004.99	222.54
1005.28	222.56
1005.57	222.55
1005.86	222.54
1006.15	222.53
1006.44	222.51
1006.72	222.53
1007.01	222.51
1007.30	222.51
1007.59	222.51
1007.88	222.50
1008.17	222.51
1008.45	222.49
1008.74	222.45
1009.03	222.40
1009.32	222.39
1009.60	222.40
1009.89	222.38
1010.18	222.34
1010.47	222.33
1010.76	222.33
1011.04	222.33
1011.33	222.33
1011.62	222.34
1011.91	222.35
1012.19	222.36
1012.48	222.36
1012.77	222.36
1013.05	222.40
1013.34	222.39
1013.63	222.39
1013.92	222.40
1014.20	222.39
1014.49	222.39
1014.78	222.40
1015.06	222.36
1015.35	222.37
1015.64	222.38
1015.92	222.41
1016.21	222.41
1016.50	222.41
1016.78	222.42
1017.07	222.42
1017.36	222.41
1017.64	222.39
1017.93	222.39
1018.22	222.39
1018.50	222.38
1018.79	222.38
1019.08	222.34
1019.36	222.35
1019.65	222.33
1019.93	222.36
1020.22	222.37
1020.51	222.43
1020.79	222.41
1021.08	222.35
1021.36	222.18
1021.65	222.38
1021.94	222.31
1022.22	222.45
1022.51	222.09
1022.79	222.86
1023.08	222.47
1023.36	223.64
1023.65	222.09
>>>>>End Processed Spectral Data<<<<<
