SpectraSuite Data File
++++++++++++++++++++++++++++++++++++
Date: Wed Sep 30 18:24:49 EDT 2015
User: lab3
Dark Spectrum Present: No
Reference Spectrum Present: No
Number of Sampled Component Spectra: 1
Spectrometers: USB2E7196
Integration Time (usec): 36000 (USB2E7196)
Spectra Averaged: 3000 (USB2E7196)
Boxcar Smoothing: 10 (USB2E7196)
Correct for Electrical Dark: No (USB2E7196)
Strobe/Lamp Enabled: No (USB2E7196)
Correct for Detector Non-linearity: No (USB2E7196)
Correct for Stray Light: No (USB2E7196)
Number of Pixels in Processed Spectrum: 2048
>>>>>Begin Processed Spectral Data<<<<<
339.09	0.00
339.48	210.77
339.86	212.07
340.24	213.47
340.63	214.87
341.01	217.82
341.39	217.58
341.78	219.01
342.16	220.13
342.54	220.64
342.93	209.18
343.31	219.75
343.69	220.27
344.07	220.74
344.46	221.16
344.84	221.55
345.22	221.79
345.60	222.05
345.99	222.23
346.37	222.37
346.75	222.47
347.13	222.54
347.52	222.61
347.90	222.69
348.28	222.73
348.66	222.78
349.05	222.78
349.43	222.83
349.81	222.89
350.19	222.95
350.57	223.02
350.96	223.11
351.34	223.20
351.72	223.30
352.10	223.40
352.48	223.48
352.87	223.53
353.25	223.60
353.63	223.66
354.01	223.73
354.39	223.81
354.77	223.89
355.15	223.99
355.54	224.05
355.92	224.08
356.30	224.16
356.68	224.30
357.06	224.38
357.44	224.42
357.82	224.48
358.20	224.58
358.58	224.64
358.97	224.70
359.35	224.79
359.73	224.87
360.11	224.92
360.49	224.97
360.87	225.03
361.25	225.09
361.63	225.16
362.01	225.21
362.39	225.24
362.77	225.29
363.15	225.32
363.53	225.35
363.91	225.38
364.29	225.41
364.67	225.33
365.05	225.36
365.43	225.38
365.81	225.41
366.19	225.44
366.57	225.48
366.95	225.48
367.33	225.45
367.71	225.45
368.09	225.46
368.47	225.46
368.85	225.45
369.23	225.46
369.61	225.41
369.99	225.43
370.37	225.42
370.75	225.48
371.13	225.44
371.51	225.41
371.89	225.38
372.27	225.36
372.65	225.34
373.03	225.30
373.41	225.26
373.78	225.21
374.16	225.12
374.54	225.04
374.92	224.99
375.30	224.96
375.68	224.89
376.06	224.85
376.44	224.78
376.82	224.74
377.19	224.68
377.57	224.63
377.95	224.54
378.33	224.48
378.71	224.34
379.09	224.29
379.47	224.25
379.84	224.19
380.22	224.12
380.60	224.05
380.98	223.99
381.36	223.94
381.73	223.88
382.11	223.85
382.49	223.80
382.87	223.74
383.25	223.70
383.62	223.77
384.00	223.71
384.38	223.67
384.76	223.65
385.13	223.63
385.51	223.60
385.89	223.55
386.27	223.51
386.64	223.49
387.02	223.44
387.40	223.39
387.78	223.37
388.15	223.34
388.53	223.31
388.91	223.28
389.29	223.24
389.66	223.24
390.04	223.19
390.42	223.19
390.79	223.17
391.17	223.15
391.55	223.01
391.92	223.00
392.30	223.00
392.68	222.96
393.05	222.94
393.43	222.94
393.81	222.94
394.18	222.92
394.56	222.93
394.94	222.96
395.31	222.95
395.69	223.00
396.06	223.02
396.44	223.04
396.82	223.04
397.19	223.13
397.57	223.13
397.95	223.18
398.32	223.18
398.70	223.22
399.07	223.27
399.45	223.31
399.82	223.35
400.20	223.38
400.58	223.44
400.95	223.46
401.33	223.53
401.70	223.66
402.08	223.75
402.45	223.82
402.83	223.91
403.20	224.02
403.58	224.10
403.95	224.22
404.33	224.34
404.71	224.47
405.08	224.64
405.46	224.78
405.83	224.94
406.21	225.10
406.58	225.29
406.96	225.47
407.33	225.67
407.70	225.90
408.08	226.23
408.45	226.50
408.83	226.79
409.20	227.07
409.58	227.32
409.95	227.65
410.33	228.02
410.70	228.36
411.08	228.76
411.45	229.19
411.82	229.62
412.20	230.12
412.57	230.70
412.95	231.16
413.32	231.76
413.69	232.37
414.07	233.03
414.44	233.75
414.82	234.48
415.19	235.33
415.56	236.20
415.94	237.08
416.31	238.10
416.68	239.11
417.06	240.28
417.43	241.38
417.81	242.65
418.18	243.94
418.55	245.35
418.93	246.81
419.30	248.34
419.67	249.98
420.04	251.64
420.42	253.40
420.79	255.43
421.16	257.47
421.54	259.55
421.91	261.72
422.28	263.98
422.66	266.41
423.03	268.73
423.40	271.16
423.77	273.77
424.15	276.44
424.52	279.22
424.89	282.24
425.26	285.23
425.64	288.00
426.01	291.13
426.38	294.33
426.75	297.63
427.13	301.01
427.50	304.54
427.87	308.22
428.24	311.93
428.61	315.47
428.99	319.29
429.36	323.48
429.73	327.49
430.10	331.49
430.47	335.59
430.85	339.79
431.22	344.27
431.59	348.88
431.96	353.36
432.33	358.31
432.70	363.02
433.08	368.58
433.45	373.84
433.82	379.00
434.19	384.77
434.56	390.43
434.93	395.88
435.30	401.27
435.68	407.33
436.05	413.27
436.42	419.20
436.79	424.61
437.16	430.45
437.53	436.70
437.90	442.94
438.27	449.02
438.64	455.63
439.01	461.61
439.38	467.06
439.75	472.31
440.13	478.32
440.50	484.04
440.87	488.53
441.24	493.48
441.61	498.94
441.98	502.94
442.35	507.70
442.72	512.59
443.09	517.26
443.46	520.28
443.83	522.51
444.20	524.42
444.57	527.19
444.94	528.82
445.31	530.52
445.68	532.04
446.05	533.19
446.42	533.05
446.79	532.83
447.16	532.67
447.53	532.55
447.90	530.81
448.27	529.21
448.64	526.63
449.01	524.95
449.37	521.22
449.74	517.83
450.11	513.47
450.48	508.64
450.85	503.80
451.22	499.68
451.59	495.66
451.96	492.00
452.33	486.62
452.70	481.84
453.07	475.99
453.43	470.14
453.80	464.46
454.17	459.02
454.54	453.97
454.91	448.24
455.28	442.86
455.65	437.78
456.02	432.36
456.38	428.01
456.75	422.37
457.12	417.83
457.49	413.24
457.86	408.86
458.23	405.04
458.59	400.80
458.96	396.44
459.33	392.59
459.70	388.67
460.07	385.69
460.43	382.18
460.80	378.88
461.17	375.98
461.54	372.85
461.91	369.92
462.27	366.94
462.64	364.50
463.01	361.71
463.38	358.89
463.74	356.33
464.11	354.05
464.48	351.99
464.85	349.77
465.21	348.09
465.58	346.22
465.95	344.07
466.32	342.33
466.68	340.65
467.05	338.96
467.42	337.32
467.78	335.55
468.15	333.91
468.52	332.69
468.88	331.09
469.25	329.63
469.62	328.46
469.98	327.19
470.35	326.08
470.72	325.07
471.08	324.04
471.45	323.18
471.82	322.24
472.18	321.26
472.55	320.63
472.92	319.84
473.28	319.23
473.65	318.60
474.02	318.01
474.38	317.51
474.75	317.22
475.11	316.82
475.48	316.66
475.85	316.50
476.21	316.44
476.58	316.43
476.94	316.61
477.31	316.72
477.67	316.87
478.04	317.11
478.41	317.42
478.77	317.87
479.14	318.18
479.50	318.72
479.87	319.39
480.23	320.06
480.60	320.70
480.96	321.37
481.33	322.29
481.69	323.22
482.06	324.15
482.42	325.04
482.79	326.09
483.15	327.29
483.52	328.64
483.88	329.95
484.25	331.35
484.61	332.79
484.98	334.36
485.34	336.10
485.71	337.92
486.07	339.86
486.44	341.78
486.80	343.93
487.17	346.11
487.53	348.51
487.90	351.01
488.26	353.73
488.62	356.59
488.99	359.46
489.35	362.45
489.72	365.67
490.08	369.07
490.44	372.55
490.81	376.19
491.17	379.94
491.54	383.93
491.90	388.03
492.26	392.44
492.63	397.07
492.99	401.91
493.36	406.88
493.72	412.09
494.08	417.46
494.45	423.12
494.81	428.99
495.17	434.98
495.54	441.29
495.90	447.93
496.26	454.70
496.63	461.72
496.99	469.01
497.35	476.66
497.72	484.60
498.08	492.71
498.44	501.06
498.80	509.93
499.17	519.05
499.53	528.48
499.89	538.14
500.26	548.01
500.62	558.11
500.98	568.90
501.34	579.82
501.71	591.25
502.07	602.91
502.43	614.98
502.79	627.37
503.16	640.20
503.52	653.18
503.88	666.52
504.24	680.29
504.60	694.33
504.97	708.75
505.33	723.56
505.69	739.27
506.05	755.19
506.41	771.15
506.78	787.42
507.14	804.18
507.50	821.50
507.86	839.21
508.22	857.17
508.59	875.17
508.95	893.88
509.31	913.04
509.67	932.87
510.03	952.94
510.39	973.23
510.75	993.75
511.12	1014.54
511.48	1035.66
511.84	1056.92
512.20	1078.51
512.56	1101.22
512.92	1124.14
513.28	1146.76
513.64	1169.68
514.00	1193.06
514.37	1216.73
514.73	1240.43
515.09	1263.99
515.45	1287.92
515.81	1312.46
516.17	1337.07
516.53	1361.39
516.89	1385.81
517.25	1410.42
517.61	1435.21
517.97	1460.27
518.33	1485.10
518.69	1510.15
519.05	1535.47
519.41	1560.90
519.77	1586.63
520.13	1611.60
520.49	1636.73
520.85	1662.08
521.21	1687.35
521.57	1713.22
521.93	1738.41
522.29	1764.41
522.65	1790.17
523.01	1815.77
523.37	1840.61
523.73	1866.15
524.09	1891.89
524.45	1917.50
524.81	1942.66
525.17	1967.69
525.53	1992.35
525.89	2016.95
526.25	2041.75
526.61	2065.97
526.97	2090.55
527.33	2115.05
527.68	2139.39
528.04	2162.98
528.40	2186.45
528.76	2210.08
529.12	2232.68
529.48	2255.78
529.84	2277.07
530.20	2298.82
530.56	2320.27
530.91	2341.86
531.27	2362.91
531.63	2383.36
531.99	2403.28
532.35	2422.99
532.71	2442.93
533.07	2463.38
533.42	2482.30
533.78	2501.59
534.14	2520.88
534.50	2539.30
534.86	2558.32
535.21	2575.59
535.57	2592.74
535.93	2609.11
536.29	2624.29
536.65	2640.20
537.00	2654.96
537.36	2670.41
537.72	2684.87
538.08	2699.07
538.44	2712.08
538.79	2725.30
539.15	2736.77
539.51	2748.10
539.87	2758.89
540.22	2767.47
540.58	2776.30
540.94	2785.70
541.29	2793.59
541.65	2800.56
542.01	2807.05
542.37	2811.63
542.72	2818.05
543.08	2823.91
543.44	2829.69
543.79	2834.79
544.15	2839.09
544.51	2843.23
544.87	2846.38
545.22	2849.16
545.58	2850.84
545.94	2853.10
546.29	2853.86
546.65	2854.72
547.01	2855.76
547.36	2856.96
547.72	2858.45
548.07	2858.31
548.43	2857.58
548.79	2856.21
549.14	2854.76
549.50	2853.87
549.86	2852.11
550.21	2847.99
550.57	2844.40
550.92	2839.32
551.28	2834.80
551.64	2830.10
551.99	2825.82
552.35	2821.21
552.70	2816.07
553.06	2811.62
553.41	2806.54
553.77	2800.87
554.13	2796.01
554.48	2790.14
554.84	2782.72
555.19	2775.32
555.55	2767.27
555.90	2759.77
556.26	2753.38
556.61	2746.42
556.97	2737.24
557.32	2729.09
557.68	2721.16
558.03	2712.56
558.39	2704.73
558.74	2697.03
559.10	2688.25
559.45	2679.08
559.81	2670.00
560.16	2660.34
560.52	2650.26
560.87	2641.27
561.23	2631.89
561.58	2622.01
561.94	2611.98
562.29	2601.32
562.64	2591.24
563.00	2581.57
563.35	2571.75
563.71	2560.80
564.06	2549.45
564.42	2539.14
564.77	2528.41
565.12	2517.74
565.48	2506.75
565.83	2496.42
566.19	2486.17
566.54	2475.39
566.89	2463.72
567.25	2452.19
567.60	2441.49
567.96	2430.36
568.31	2417.89
568.66	2405.36
569.02	2393.80
569.37	2382.00
569.72	2370.84
570.08	2358.83
570.43	2346.23
570.78	2333.28
571.14	2320.37
571.49	2308.12
571.84	2296.09
572.20	2282.65
572.55	2269.79
572.90	2256.78
573.26	2242.93
573.61	2228.44
573.96	2214.24
574.31	2200.38
574.67	2186.72
575.02	2172.51
575.37	2157.94
575.72	2143.64
576.08	2129.85
576.43	2114.98
576.78	2100.14
577.13	2086.02
577.49	2072.16
577.84	2058.70
578.19	2044.42
578.54	2029.64
578.90	2014.29
579.25	1998.73
579.60	1984.74
579.95	1970.31
580.30	1955.93
580.66	1941.75
581.01	1927.03
581.36	1912.84
581.71	1899.21
582.06	1885.06
582.42	1871.10
582.77	1857.83
583.12	1844.08
583.47	1830.41
583.82	1816.89
584.17	1803.18
584.53	1789.41
584.88	1775.61
585.23	1761.47
585.58	1747.86
585.93	1734.57
586.28	1722.18
586.63	1709.57
586.98	1696.13
587.34	1682.97
587.69	1669.33
588.04	1655.92
588.39	1643.24
588.74	1629.94
589.09	1616.43
589.44	1602.92
589.79	1589.92
590.14	1576.78
590.49	1563.84
590.84	1550.81
591.19	1538.38
591.54	1525.54
591.89	1512.49
592.25	1499.73
592.60	1486.59
592.95	1474.00
593.30	1461.80
593.65	1449.39
594.00	1437.20
594.35	1425.78
594.70	1413.45
595.05	1402.15
595.40	1390.71
595.75	1378.70
596.10	1367.49
596.45	1356.56
596.80	1346.03
597.15	1335.25
597.50	1324.50
597.85	1313.95
598.19	1303.62
598.54	1292.74
598.89	1282.55
599.24	1272.66
599.59	1262.52
599.94	1253.39
600.29	1244.16
600.64	1234.71
600.99	1224.64
601.34	1215.07
601.69	1204.92
602.04	1195.93
602.39	1186.80
602.74	1177.98
603.08	1169.37
603.43	1160.25
603.78	1150.91
604.13	1141.75
604.48	1132.55
604.83	1123.60
605.18	1114.55
605.53	1105.44
605.87	1096.39
606.22	1087.65
606.57	1078.64
606.92	1069.67
607.27	1060.60
607.62	1051.59
607.96	1042.77
608.31	1035.03
608.66	1026.85
609.01	1019.09
609.36	1011.22
609.70	1003.11
610.05	994.83
610.40	986.90
610.75	979.13
611.10	971.60
611.44	963.67
611.79	956.07
612.14	948.08
612.49	940.25
612.83	932.89
613.18	925.65
613.53	918.22
613.88	910.89
614.22	904.18
614.57	897.25
614.92	890.33
615.27	883.43
615.61	876.32
615.96	869.47
616.31	862.54
616.65	855.55
617.00	848.77
617.35	842.10
617.70	835.49
618.04	828.97
618.39	822.48
618.74	816.34
619.08	809.98
619.43	803.90
619.78	797.83
620.12	791.58
620.47	785.51
620.82	779.47
621.16	773.77
621.51	767.73
621.85	761.67
622.20	755.67
622.55	749.84
622.89	743.94
623.24	738.07
623.59	732.33
623.93	726.60
624.28	721.07
624.62	715.50
624.97	709.90
625.32	704.42
625.66	698.82
626.01	693.19
626.35	687.74
626.70	682.33
627.04	677.10
627.39	671.94
627.73	666.86
628.08	662.03
628.43	657.04
628.77	652.10
629.12	647.33
629.46	642.75
629.81	638.00
630.15	633.16
630.50	628.47
630.84	623.95
631.19	619.63
631.53	615.31
631.88	610.91
632.22	606.61
632.57	602.53
632.91	598.40
633.26	594.36
633.60	590.42
633.95	586.58
634.29	582.59
634.64	578.55
634.98	574.42
635.32	570.45
635.67	566.65
636.01	562.80
636.36	558.98
636.70	555.31
637.05	551.61
637.39	548.11
637.73	544.46
638.08	540.89
638.42	537.32
638.77	533.61
639.11	529.88
639.45	526.20
639.80	522.50
640.14	519.00
640.49	515.44
640.83	511.78
641.17	508.17
641.52	504.74
641.86	501.29
642.20	498.02
642.55	494.60
642.89	491.24
643.23	488.11
643.58	485.22
643.92	482.17
644.26	479.19
644.61	476.17
644.95	473.17
645.29	470.10
645.64	467.00
645.98	464.05
646.32	461.29
646.66	458.54
647.01	455.74
647.35	453.01
647.69	450.17
648.04	447.46
648.38	444.78
648.72	442.05
649.06	439.41
649.41	436.81
649.75	434.20
650.09	431.63
650.43	429.04
650.78	426.43
651.12	423.81
651.46	421.30
651.80	418.90
652.14	416.57
652.49	414.25
652.83	411.99
653.17	409.72
653.51	407.52
653.85	405.38
654.20	403.18
654.54	400.89
654.88	398.80
655.22	396.77
655.56	394.70
655.90	392.75
656.25	390.80
656.59	388.83
656.93	386.97
657.27	385.16
657.61	383.25
657.95	381.39
658.29	379.56
658.64	377.74
658.98	375.89
659.32	374.09
659.66	372.39
660.00	370.70
660.34	369.03
660.68	367.31
661.02	365.52
661.36	363.87
661.70	362.29
662.05	360.68
662.39	359.06
662.73	357.53
663.07	356.00
663.41	354.51
663.75	353.06
664.09	351.61
664.43	350.07
664.77	348.64
665.11	347.15
665.45	345.74
665.79	344.32
666.13	342.91
666.47	341.47
666.81	340.00
667.15	338.52
667.49	337.14
667.83	335.79
668.17	334.48
668.51	333.20
668.85	331.93
669.19	330.75
669.53	329.49
669.87	328.20
670.21	326.95
670.55	325.71
670.89	324.53
671.23	323.33
671.57	322.14
671.91	321.01
672.25	319.94
672.58	318.86
672.92	317.75
673.26	316.72
673.60	315.70
673.94	314.67
674.28	313.68
674.62	312.70
674.96	311.68
675.30	310.73
675.64	309.75
675.97	308.79
676.31	307.78
676.65	306.82
676.99	305.91
677.33	304.95
677.67	304.03
678.01	303.04
678.34	302.13
678.68	301.27
679.02	300.37
679.36	299.48
679.70	298.61
680.04	297.76
680.37	296.89
680.71	296.05
681.05	295.27
681.39	294.45
681.73	293.60
682.06	292.78
682.40	291.98
682.74	291.20
683.08	290.45
683.42	289.68
683.75	288.98
684.09	288.20
684.43	287.48
684.77	286.75
685.10	286.06
685.44	285.35
685.78	284.63
686.12	283.96
686.45	283.26
686.79	282.57
687.13	281.89
687.46	281.19
687.80	280.53
688.14	279.81
688.48	279.16
688.81	278.51
689.15	277.90
689.49	277.26
689.82	276.63
690.16	275.95
690.50	275.32
690.83	274.69
691.17	274.08
691.51	273.48
691.84	272.90
692.18	272.29
692.52	271.67
692.85	271.07
693.19	270.52
693.52	269.95
693.86	269.40
694.20	268.84
694.53	268.32
694.87	267.76
695.21	267.24
695.54	266.72
695.88	266.18
696.21	265.61
696.55	265.08
696.88	264.56
697.22	264.06
697.56	263.56
697.89	263.01
698.23	262.50
698.56	261.98
698.90	261.49
699.23	261.00
699.57	260.54
699.90	260.08
700.24	259.58
700.58	259.12
700.91	258.69
701.25	258.33
701.58	257.93
701.92	257.53
702.25	257.11
702.59	256.67
702.92	256.27
703.26	255.87
703.59	255.45
703.93	255.13
704.26	254.74
704.60	254.35
704.93	253.98
705.26	253.60
705.60	253.26
705.93	252.87
706.27	252.55
706.60	252.21
706.94	251.88
707.27	251.50
707.61	251.14
707.94	250.76
708.27	250.31
708.61	249.92
708.94	249.56
709.28	249.21
709.61	248.87
709.94	248.56
710.28	248.25
710.61	247.96
710.95	247.57
711.28	247.34
711.61	247.04
711.95	246.78
712.28	246.48
712.61	246.17
712.95	245.93
713.28	245.69
713.61	245.40
713.95	245.11
714.28	244.86
714.61	244.58
714.95	244.33
715.28	244.06
715.61	243.81
715.95	243.56
716.28	243.32
716.61	243.10
716.95	242.86
717.28	242.63
717.61	242.39
717.94	242.16
718.28	241.86
718.61	241.62
718.94	241.38
719.27	241.16
719.61	240.96
719.94	240.72
720.27	240.45
720.60	240.24
720.94	240.03
721.27	239.84
721.60	239.66
721.93	239.47
722.27	239.32
722.60	239.14
722.93	238.93
723.26	238.75
723.59	238.54
723.93	238.37
724.26	238.19
724.59	238.01
724.92	237.84
725.25	237.70
725.59	237.53
725.92	237.38
726.25	237.21
726.58	237.05
726.91	236.87
727.24	236.73
727.57	236.57
727.91	236.40
728.24	236.26
728.57	236.09
728.90	235.95
729.23	235.76
729.56	235.65
729.89	235.52
730.22	235.37
730.55	235.23
730.89	235.09
731.22	234.93
731.55	234.79
731.88	234.66
732.21	234.51
732.54	234.37
732.87	234.25
733.20	234.14
733.53	234.01
733.86	233.91
734.19	233.77
734.52	233.67
734.85	233.62
735.18	233.49
735.51	233.39
735.84	233.29
736.17	233.21
736.50	233.04
736.83	233.05
737.16	232.95
737.49	232.85
737.82	232.74
738.15	232.65
738.48	232.55
738.81	232.44
739.14	232.32
739.47	232.22
739.80	232.10
740.13	232.01
740.46	231.89
740.79	231.77
741.12	231.68
741.45	231.56
741.78	231.40
742.11	231.34
742.44	231.22
742.77	231.13
743.10	231.02
743.43	230.92
743.75	230.72
744.08	230.79
744.41	230.69
744.74	230.59
745.07	230.48
745.40	230.41
745.73	230.37
746.06	230.30
746.39	230.23
746.71	230.15
747.04	230.05
747.37	229.98
747.70	229.93
748.03	229.85
748.36	229.80
748.68	229.72
749.01	229.61
749.34	229.54
749.67	229.47
750.00	229.41
750.33	229.43
750.65	229.37
750.98	229.15
751.31	229.09
751.64	229.03
751.97	229.03
752.29	228.95
752.62	228.84
752.95	228.76
753.28	228.68
753.60	228.61
753.93	228.57
754.26	228.51
754.59	228.41
754.91	228.33
755.24	228.25
755.57	228.24
755.90	228.18
756.22	228.11
756.55	228.03
756.88	227.94
757.20	227.81
757.53	227.71
757.86	227.66
758.19	227.61
758.51	227.55
758.84	227.44
759.17	227.38
759.49	227.34
759.82	227.33
760.15	227.30
760.47	227.25
760.80	227.17
761.13	227.14
761.45	227.09
761.78	227.05
762.11	227.01
762.43	226.91
762.76	226.86
763.08	226.83
763.41	226.79
763.74	226.76
764.06	226.72
764.39	226.69
764.71	226.64
765.04	226.58
765.37	226.52
765.69	226.48
766.02	226.44
766.34	226.39
766.67	226.31
767.00	226.29
767.32	226.30
767.65	226.33
767.97	226.27
768.30	226.23
768.62	226.19
768.95	226.14
769.27	226.10
769.60	226.08
769.92	226.03
770.25	225.97
770.57	225.91
770.90	225.87
771.22	225.82
771.55	225.79
771.87	225.77
772.20	225.73
772.52	225.79
772.85	225.88
773.17	225.85
773.50	225.81
773.82	225.75
774.15	225.67
774.47	225.58
774.80	225.54
775.12	225.52
775.45	225.49
775.77	225.47
776.09	225.45
776.42	225.42
776.74	225.42
777.07	225.39
777.39	225.37
777.72	225.34
778.04	225.33
778.36	225.29
778.69	225.26
779.01	225.26
779.33	225.14
779.66	225.00
779.98	224.97
780.31	224.96
780.63	224.98
780.95	224.98
781.28	224.95
781.60	224.93
781.92	224.89
782.25	224.87
782.57	224.85
782.89	224.81
783.22	224.79
783.54	224.75
783.86	224.74
784.19	224.71
784.51	224.72
784.83	224.69
785.16	224.67
785.48	224.66
785.80	224.63
786.12	224.62
786.45	224.60
786.77	224.58
787.09	224.56
787.42	224.50
787.74	224.49
788.06	224.47
788.38	224.45
788.71	224.44
789.03	224.42
789.35	224.41
789.67	224.39
789.99	224.37
790.32	224.35
790.64	224.34
790.96	224.43
791.28	224.37
791.61	224.36
791.93	224.35
792.25	224.33
792.57	224.39
792.89	224.35
793.21	224.35
793.54	224.32
793.86	224.30
794.18	224.29
794.50	224.25
794.82	224.23
795.14	224.24
795.47	224.23
795.79	224.23
796.11	224.19
796.43	224.18
796.75	224.17
797.07	224.17
797.39	224.15
797.71	224.05
798.04	224.05
798.36	224.04
798.68	224.02
799.00	224.01
799.32	223.95
799.64	223.95
799.96	223.94
800.28	223.96
800.60	223.94
800.92	223.94
801.24	223.93
801.56	223.93
801.89	223.90
802.21	223.89
802.53	223.86
802.85	223.88
803.17	223.92
803.49	223.89
803.81	223.87
804.13	223.85
804.45	223.82
804.77	223.82
805.09	223.81
805.41	223.79
805.73	223.76
806.05	223.72
806.37	223.71
806.69	223.69
807.01	223.66
807.33	223.66
807.65	223.61
807.97	223.65
808.28	223.63
808.60	223.62
808.92	223.60
809.24	223.65
809.56	223.62
809.88	223.57
810.20	223.56
810.52	223.57
810.84	223.56
811.16	223.55
811.48	223.53
811.80	223.56
812.12	223.55
812.43	223.57
812.75	223.57
813.07	223.55
813.39	223.54
813.71	223.52
814.03	223.51
814.35	223.51
814.67	223.46
814.98	223.44
815.30	223.42
815.62	223.39
815.94	223.32
816.26	223.33
816.58	223.30
816.89	223.31
817.21	223.27
817.53	223.27
817.85	223.27
818.17	223.26
818.48	223.21
818.80	223.22
819.12	223.19
819.44	223.17
819.76	223.15
820.07	223.14
820.39	223.14
820.71	223.14
821.03	223.14
821.34	223.13
821.66	223.14
821.98	223.15
822.30	223.14
822.61	223.21
822.93	223.18
823.25	223.18
823.57	223.17
823.88	223.18
824.20	223.18
824.52	223.19
824.83	223.18
825.15	223.17
825.47	223.16
825.79	223.16
826.10	223.15
826.42	223.15
826.74	223.15
827.05	223.13
827.37	223.13
827.69	223.12
828.00	223.12
828.32	223.12
828.64	223.11
828.95	223.16
829.27	223.12
829.58	223.11
829.90	223.12
830.22	223.13
830.53	223.11
830.85	223.10
831.17	223.07
831.48	223.07
831.80	223.07
832.11	223.06
832.43	223.04
832.75	223.04
833.06	223.11
833.38	223.09
833.69	223.09
834.01	223.09
834.32	223.08
834.64	223.08
834.96	223.07
835.27	223.07
835.59	223.03
835.90	223.02
836.22	223.01
836.53	222.99
836.85	222.97
837.16	223.07
837.48	223.06
837.79	223.10
838.11	223.10
838.42	223.09
838.74	223.10
839.05	223.09
839.37	223.08
839.68	223.01
840.00	223.01
840.31	223.02
840.63	223.00
840.94	222.99
841.26	222.98
841.57	222.97
841.88	222.97
842.20	222.96
842.51	222.94
842.83	222.94
843.14	223.03
843.46	223.03
843.77	222.97
844.08	222.96
844.40	222.92
844.71	222.92
845.03	222.91
845.34	222.90
845.65	222.90
845.97	222.90
846.28	222.91
846.60	222.91
846.91	222.88
847.22	222.88
847.54	222.90
847.85	222.91
848.16	222.89
848.48	222.87
848.79	222.91
849.10	222.93
849.42	222.93
849.73	222.82
850.04	222.82
850.36	222.77
850.67	222.79
850.98	222.80
851.30	222.80
851.61	222.80
851.92	222.79
852.23	222.82
852.55	222.82
852.86	222.82
853.17	222.83
853.49	222.85
853.80	222.87
854.11	222.87
854.42	222.88
854.74	222.87
855.05	222.89
855.36	222.84
855.67	222.84
855.99	222.83
856.30	222.96
856.61	222.96
856.92	222.97
857.23	222.97
857.55	222.95
857.86	222.95
858.17	222.96
858.48	222.94
858.79	222.92
859.11	222.93
859.42	222.92
859.73	222.91
860.04	222.90
860.35	222.87
860.66	222.84
860.98	222.83
861.29	222.85
861.60	222.84
861.91	222.86
862.22	222.85
862.53	222.84
862.84	222.72
863.16	222.74
863.47	222.72
863.78	222.70
864.09	222.72
864.40	222.71
864.71	222.72
865.02	222.73
865.33	222.72
865.64	222.70
865.95	222.70
866.27	222.77
866.58	222.76
866.89	222.77
867.20	222.77
867.51	222.76
867.82	222.76
868.13	222.79
868.44	222.77
868.75	222.79
869.06	222.79
869.37	222.81
869.68	222.77
869.99	222.80
870.30	222.81
870.61	222.81
870.92	222.80
871.23	222.80
871.54	222.81
871.85	222.83
872.16	222.85
872.47	222.84
872.78	222.78
873.09	222.79
873.40	222.77
873.71	222.78
874.02	222.79
874.33	222.78
874.64	222.75
874.95	222.76
875.26	222.74
875.56	222.73
875.87	222.72
876.18	222.72
876.49	222.82
876.80	222.81
877.11	222.78
877.42	222.79
877.73	222.79
878.04	222.77
878.35	222.76
878.66	222.76
878.96	222.76
879.27	222.76
879.58	222.75
879.89	222.74
880.20	222.77
880.51	222.76
880.82	222.76
881.12	222.76
881.43	222.74
881.74	222.73
882.05	222.73
882.36	222.74
882.67	222.74
882.97	222.62
883.28	222.61
883.59	222.61
883.90	222.62
884.21	222.63
884.51	222.63
884.82	222.61
885.13	222.61
885.44	222.61
885.74	222.61
886.05	222.60
886.36	222.61
886.67	222.57
886.98	222.63
887.28	222.64
887.59	222.64
887.90	222.65
888.20	222.64
888.51	222.66
888.82	222.63
889.13	222.64
889.43	222.74
889.74	222.73
890.05	222.73
890.35	222.73
890.66	222.71
890.97	222.69
891.28	222.69
891.58	222.69
891.89	222.69
892.20	222.68
892.50	222.67
892.81	222.66
893.12	222.66
893.42	222.61
893.73	222.61
894.04	222.61
894.34	222.62
894.65	222.62
894.95	222.60
895.26	222.61
895.57	222.65
895.87	222.54
896.18	222.56
896.48	222.56
896.79	222.56
897.10	222.57
897.40	222.58
897.71	222.59
898.01	222.58
898.32	222.59
898.63	222.59
898.93	222.60
899.24	222.60
899.54	222.60
899.85	222.59
900.15	222.59
900.46	222.59
900.76	222.60
901.07	222.59
901.38	222.59
901.68	222.60
901.99	222.55
902.29	222.56
902.60	222.55
902.90	222.54
903.21	222.54
903.51	222.53
903.82	222.55
904.12	222.55
904.43	222.55
904.73	222.54
905.03	222.55
905.34	222.65
905.64	222.65
905.95	222.65
906.25	222.65
906.56	222.65
906.86	222.64
907.17	222.64
907.47	222.64
907.77	222.63
908.08	222.61
908.38	222.62
908.69	222.63
908.99	222.64
909.30	222.65
909.60	222.65
909.90	222.65
910.21	222.62
910.51	222.60
910.81	222.60
911.12	222.61
911.42	222.62
911.73	222.51
912.03	222.52
912.33	222.54
912.64	222.53
912.94	222.52
913.24	222.50
913.55	222.49
913.85	222.48
914.15	222.51
914.46	222.52
914.76	222.52
915.06	222.51
915.37	222.49
915.67	222.49
915.97	222.49
916.27	222.46
916.58	222.47
916.88	222.47
917.18	222.47
917.49	222.53
917.79	222.52
918.09	222.54
918.39	222.56
918.70	222.55
919.00	222.55
919.30	222.60
919.60	222.61
919.91	222.60
920.21	222.60
920.51	222.57
920.81	222.56
921.12	222.57
921.42	222.56
921.72	222.57
922.02	222.57
922.32	222.59
922.63	222.60
922.93	222.65
923.23	222.66
923.53	222.65
923.83	222.57
924.13	222.59
924.44	222.58
924.74	222.59
925.04	222.62
925.34	222.61
925.64	222.56
925.94	222.56
926.24	222.62
926.55	222.61
926.85	222.63
927.15	222.63
927.45	222.63
927.75	222.62
928.05	222.62
928.35	222.61
928.65	222.61
928.95	222.62
929.26	222.57
929.56	222.59
929.86	222.60
930.16	222.60
930.46	222.58
930.76	222.58
931.06	222.53
931.36	222.51
931.66	222.53
931.96	222.54
932.26	222.55
932.56	222.50
932.86	222.51
933.16	222.50
933.46	222.49
933.76	222.48
934.06	222.50
934.36	222.53
934.66	222.54
934.96	222.53
935.26	222.53
935.56	222.55
935.86	222.52
936.16	222.50
936.46	222.49
936.76	222.49
937.06	222.48
937.36	222.50
937.66	222.50
937.96	222.49
938.26	222.46
938.56	222.45
938.86	222.46
939.16	222.48
939.46	222.49
939.76	222.50
940.06	222.50
940.35	222.48
940.65	222.43
940.95	222.43
941.25	222.41
941.55	222.39
941.85	222.38
942.15	222.41
942.45	222.44
942.75	222.43
943.04	222.43
943.34	222.46
943.64	222.44
943.94	222.43
944.24	222.43
944.54	222.44
944.84	222.44
945.13	222.43
945.43	222.41
945.73	222.41
946.03	222.39
946.33	222.38
946.62	222.37
946.92	222.37
947.22	222.38
947.52	222.39
947.82	222.39
948.11	222.38
948.41	222.36
948.71	222.33
949.01	222.33
949.31	222.32
949.60	222.31
949.90	222.32
950.20	222.32
950.50	222.31
950.79	222.30
951.09	222.31
951.39	222.31
951.69	222.30
951.98	222.31
952.28	222.32
952.58	222.31
952.87	222.32
953.17	222.33
953.47	222.32
953.76	222.32
954.06	222.30
954.36	222.28
954.66	222.29
954.95	222.31
955.25	222.32
955.55	222.32
955.84	222.30
956.14	222.31
956.44	222.31
956.73	222.29
957.03	222.30
957.32	222.30
957.62	222.29
957.92	222.31
958.21	222.30
958.51	222.41
958.81	222.43
959.10	222.44
959.40	222.46
959.69	222.47
959.99	222.48
960.29	222.49
960.58	222.48
960.88	222.52
961.17	222.50
961.47	222.51
961.76	222.50
962.06	222.52
962.36	222.50
962.65	222.52
962.95	222.52
963.24	222.51
963.54	222.52
963.83	222.52
964.13	222.52
964.42	222.51
964.72	222.43
965.01	222.42
965.31	222.42
965.60	222.39
965.90	222.46
966.19	222.44
966.49	222.45
966.78	222.45
967.08	222.44
967.37	222.44
967.67	222.42
967.96	222.43
968.26	222.43
968.55	222.45
968.85	222.44
969.14	222.44
969.43	222.44
969.73	222.43
970.02	222.43
970.32	222.42
970.61	222.41
970.91	222.38
971.20	222.37
971.49	222.35
971.79	222.36
972.08	222.28
972.38	222.29
972.67	222.28
972.96	222.30
973.26	222.27
973.55	222.31
973.85	222.31
974.14	222.30
974.43	222.31
974.73	222.28
975.02	222.28
975.31	222.28
975.61	222.28
975.90	222.27
976.19	222.27
976.49	222.28
976.78	222.28
977.07	222.28
977.37	222.29
977.66	222.31
977.95	222.30
978.24	222.31
978.54	222.34
978.83	222.33
979.12	222.32
979.42	222.32
979.71	222.30
980.00	222.30
980.29	222.30
980.59	222.29
980.88	222.32
981.17	222.32
981.46	222.32
981.76	222.33
982.05	222.36
982.34	222.36
982.63	222.36
982.93	222.36
983.22	222.39
983.51	222.39
983.80	222.40
984.09	222.41
984.39	222.40
984.68	222.38
984.97	222.38
985.26	222.38
985.55	222.39
985.85	222.37
986.14	222.38
986.43	222.39
986.72	222.38
987.01	222.35
987.30	222.35
987.59	222.35
987.89	222.35
988.18	222.32
988.47	222.31
988.76	222.30
989.05	222.29
989.34	222.27
989.63	222.29
989.92	222.27
990.22	222.26
990.51	222.26
990.80	222.25
991.09	222.26
991.38	222.27
991.67	222.26
991.96	222.25
992.25	222.25
992.54	222.23
992.83	222.23
993.12	222.23
993.41	222.25
993.70	222.29
993.99	222.30
994.28	222.31
994.58	222.32
994.87	222.32
995.16	222.31
995.45	222.31
995.74	222.27
996.03	222.29
996.32	222.30
996.61	222.32
996.90	222.32
997.19	222.32
997.48	222.32
997.77	222.31
998.06	222.31
998.34	222.30
998.63	222.30
998.92	222.29
999.21	222.31
999.50	222.31
999.79	222.28
1000.08	222.27
1000.37	222.27
1000.66	222.26
1000.95	222.28
1001.24	222.30
1001.53	222.31
1001.82	222.30
1002.11	222.27
1002.40	222.28
1002.68	222.29
1002.97	222.36
1003.26	222.36
1003.55	222.34
1003.84	222.35
1004.13	222.39
1004.42	222.38
1004.71	222.38
1004.99	222.38
1005.28	222.40
1005.57	222.39
1005.86	222.37
1006.15	222.36
1006.44	222.35
1006.72	222.37
1007.01	222.35
1007.30	222.34
1007.59	222.34
1007.88	222.33
1008.17	222.35
1008.45	222.33
1008.74	222.29
1009.03	222.23
1009.32	222.23
1009.60	222.23
1009.89	222.22
1010.18	222.17
1010.47	222.17
1010.76	222.17
1011.04	222.17
1011.33	222.16
1011.62	222.17
1011.91	222.19
1012.19	222.19
1012.48	222.19
1012.77	222.18
1013.05	222.22
1013.34	222.22
1013.63	222.21
1013.92	222.21
1014.20	222.20
1014.49	222.20
1014.78	222.22
1015.06	222.19
1015.35	222.19
1015.64	222.21
1015.92	222.23
1016.21	222.24
1016.50	222.24
1016.78	222.25
1017.07	222.26
1017.36	222.24
1017.64	222.22
1017.93	222.23
1018.22	222.22
1018.50	222.22
1018.79	222.22
1019.08	222.18
1019.36	222.18
1019.65	222.18
1019.93	222.21
1020.22	222.22
1020.51	222.28
1020.79	222.26
1021.08	222.02
1021.36	222.12
1021.65	222.13
1021.94	222.14
1022.22	222.37
1022.51	222.03
1022.79	222.71
1023.08	222.34
1023.36	223.41
1023.65	222.02
>>>>>End Processed Spectral Data<<<<<
