SpectraSuite Data File
++++++++++++++++++++++++++++++++++++
Date: Thu Oct 01 00:40:49 EDT 2015
User: lab3
Dark Spectrum Present: No
Reference Spectrum Present: No
Number of Sampled Component Spectra: 1
Spectrometers: USB2E7196
Integration Time (usec): 36000 (USB2E7196)
Spectra Averaged: 10000 (USB2E7196)
Boxcar Smoothing: 10 (USB2E7196)
Correct for Electrical Dark: No (USB2E7196)
Strobe/Lamp Enabled: No (USB2E7196)
Correct for Detector Non-linearity: No (USB2E7196)
Correct for Stray Light: No (USB2E7196)
Number of Pixels in Processed Spectrum: 2048
>>>>>Begin Processed Spectral Data<<<<<
339.09	0.00
339.48	209.70
339.86	211.18
340.24	212.52
340.63	213.94
341.01	216.94
341.39	216.61
341.78	218.04
342.16	219.22
342.54	219.66
342.93	208.29
343.31	218.81
343.69	219.35
344.07	219.81
344.46	220.24
344.84	220.62
345.22	220.86
345.60	221.11
345.99	221.30
346.37	221.44
346.75	221.54
347.13	221.62
347.52	221.68
347.90	221.76
348.28	221.80
348.66	221.86
349.05	221.85
349.43	221.91
349.81	221.96
350.19	222.02
350.57	222.08
350.96	222.17
351.34	222.26
351.72	222.35
352.10	222.46
352.48	222.54
352.87	222.59
353.25	222.66
353.63	222.72
354.01	222.79
354.39	222.87
354.77	222.95
355.15	223.05
355.54	223.11
355.92	223.14
356.30	223.22
356.68	223.35
357.06	223.43
357.44	223.48
357.82	223.55
358.20	223.66
358.58	223.72
358.97	223.78
359.35	223.86
359.73	223.94
360.11	223.99
360.49	224.05
360.87	224.10
361.25	224.17
361.63	224.25
362.01	224.30
362.39	224.33
362.77	224.37
363.15	224.40
363.53	224.43
363.91	224.47
364.29	224.49
364.67	224.41
365.05	224.44
365.43	224.47
365.81	224.50
366.19	224.51
366.57	224.56
366.95	224.57
367.33	224.54
367.71	224.53
368.09	224.55
368.47	224.54
368.85	224.54
369.23	224.54
369.61	224.49
369.99	224.50
370.37	224.50
370.75	224.56
371.13	224.52
371.51	224.48
371.89	224.46
372.27	224.43
372.65	224.41
373.03	224.37
373.41	224.32
373.78	224.28
374.16	224.19
374.54	224.11
374.92	224.06
375.30	224.02
375.68	223.96
376.06	223.91
376.44	223.85
376.82	223.81
377.19	223.76
377.57	223.71
377.95	223.62
378.33	223.57
378.71	223.42
379.09	223.37
379.47	223.34
379.84	223.28
380.22	223.21
380.60	223.14
380.98	223.09
381.36	223.04
381.73	222.97
382.11	222.94
382.49	222.90
382.87	222.84
383.25	222.79
383.62	222.86
384.00	222.80
384.38	222.75
384.76	222.73
385.13	222.71
385.51	222.67
385.89	222.62
386.27	222.59
386.64	222.56
387.02	222.52
387.40	222.47
387.78	222.45
388.15	222.42
388.53	222.39
388.91	222.35
389.29	222.32
389.66	222.31
390.04	222.27
390.42	222.27
390.79	222.25
391.17	222.23
391.55	222.10
391.92	222.09
392.30	222.09
392.68	222.05
393.05	222.03
393.43	222.03
393.81	222.03
394.18	222.01
394.56	222.01
394.94	222.03
395.31	222.03
395.69	222.06
396.06	222.09
396.44	222.11
396.82	222.12
397.19	222.20
397.57	222.21
397.95	222.24
398.32	222.24
398.70	222.28
399.07	222.34
399.45	222.37
399.82	222.41
400.20	222.44
400.58	222.50
400.95	222.51
401.33	222.59
401.70	222.73
402.08	222.82
402.45	222.90
402.83	223.00
403.20	223.10
403.58	223.18
403.95	223.31
404.33	223.44
404.71	223.56
405.08	223.74
405.46	223.88
405.83	224.04
406.21	224.21
406.58	224.40
406.96	224.59
407.33	224.81
407.70	225.05
408.08	225.38
408.45	225.66
408.83	225.96
409.20	226.24
409.58	226.49
409.95	226.83
410.33	227.21
410.70	227.56
411.08	227.97
411.45	228.41
411.82	228.85
412.20	229.36
412.57	229.96
412.95	230.43
413.32	231.05
413.69	231.68
414.07	232.35
414.44	233.08
414.82	233.83
415.19	234.70
415.56	235.58
415.94	236.50
416.31	237.54
416.68	238.57
417.06	239.77
417.43	240.89
417.81	242.19
418.18	243.51
418.55	244.95
418.93	246.45
419.30	248.01
419.67	249.69
420.04	251.40
420.42	253.19
420.79	255.26
421.16	257.36
421.54	259.48
421.91	261.70
422.28	264.00
422.66	266.49
423.03	268.86
423.40	271.35
423.77	274.02
424.15	276.75
424.52	279.59
424.89	282.66
425.26	285.72
425.64	288.55
426.01	291.74
426.38	295.00
426.75	298.36
427.13	301.81
427.50	305.40
427.87	309.13
428.24	312.91
428.61	316.51
428.99	320.40
429.36	324.66
429.73	328.74
430.10	332.81
430.47	336.96
430.85	341.22
431.22	345.76
431.59	350.43
431.96	354.97
432.33	360.00
432.70	364.77
433.08	370.41
433.45	375.74
433.82	380.97
434.19	386.81
434.56	392.55
434.93	398.09
435.30	403.56
435.68	409.72
436.05	415.75
436.42	421.78
436.79	427.27
437.16	433.19
437.53	439.55
437.90	445.90
438.27	452.09
438.64	458.83
439.01	464.92
439.38	470.49
439.75	475.86
440.13	482.01
440.50	487.87
440.87	492.49
441.24	497.57
441.61	503.18
441.98	507.30
442.35	512.20
442.72	517.23
443.09	522.06
443.46	525.20
443.83	527.53
444.20	529.53
444.57	532.42
444.94	534.18
445.31	536.00
445.68	537.63
446.05	538.89
446.42	538.83
446.79	538.68
447.16	538.57
447.53	538.51
447.90	536.81
448.27	535.21
448.64	532.63
449.01	530.95
449.37	527.19
449.74	523.78
450.11	519.37
450.48	514.48
450.85	509.56
451.22	505.39
451.59	501.31
451.96	497.61
452.33	492.12
452.70	487.25
453.07	481.28
453.43	475.29
453.80	469.50
454.17	463.93
454.54	458.76
454.91	452.90
455.28	447.39
455.65	442.19
456.02	436.64
456.38	432.17
456.75	426.39
457.12	421.73
457.49	417.03
457.86	412.52
458.23	408.59
458.59	404.24
458.96	399.75
459.33	395.79
459.70	391.76
460.07	388.68
460.43	385.06
460.80	381.67
461.17	378.67
461.54	375.44
461.91	372.43
462.27	369.36
462.64	366.85
463.01	363.98
463.38	361.08
463.74	358.46
464.11	356.12
464.48	354.00
464.85	351.74
465.21	350.01
465.58	348.10
465.95	345.88
466.32	344.11
466.68	342.37
467.05	340.64
467.42	338.97
467.78	337.16
468.15	335.49
468.52	334.24
468.88	332.63
469.25	331.13
469.62	329.95
469.98	328.66
470.35	327.52
470.72	326.49
471.08	325.45
471.45	324.58
471.82	323.62
472.18	322.63
472.55	321.98
472.92	321.18
473.28	320.56
473.65	319.91
474.02	319.31
474.38	318.82
474.75	318.54
475.11	318.13
475.48	317.97
475.85	317.81
476.21	317.75
476.58	317.75
476.94	317.94
477.31	318.06
477.67	318.21
478.04	318.46
478.41	318.79
478.77	319.24
479.14	319.57
479.50	320.12
479.87	320.80
480.23	321.48
480.60	322.14
480.96	322.83
481.33	323.78
481.69	324.74
482.06	325.67
482.42	326.57
482.79	327.64
483.15	328.87
483.52	330.25
483.88	331.58
484.25	332.99
484.61	334.46
484.98	336.05
485.34	337.83
485.71	339.67
486.07	341.64
486.44	343.59
486.80	345.76
487.17	347.99
487.53	350.43
487.90	352.98
488.26	355.73
488.62	358.63
488.99	361.54
489.35	364.57
489.72	367.85
490.08	371.29
490.44	374.83
490.81	378.53
491.17	382.33
491.54	386.38
491.90	390.53
492.26	394.99
492.63	399.70
492.99	404.59
493.36	409.62
493.72	414.92
494.08	420.35
494.45	426.07
494.81	432.01
495.17	438.07
495.54	444.47
495.90	451.18
496.26	458.03
496.63	465.13
496.99	472.49
497.35	480.21
497.72	488.25
498.08	496.45
498.44	504.90
498.80	513.89
499.17	523.12
499.53	532.68
499.89	542.47
500.26	552.43
500.62	562.67
500.98	573.56
501.34	584.61
501.71	596.18
502.07	607.98
502.43	620.17
502.79	632.72
503.16	645.66
503.52	658.79
503.88	672.28
504.24	686.22
504.60	700.45
504.97	715.06
505.33	730.02
505.69	745.87
506.05	761.94
506.41	778.02
506.78	794.41
507.14	811.27
507.50	828.74
507.86	846.58
508.22	864.68
508.59	882.80
508.95	901.65
509.31	920.92
509.67	940.87
510.03	961.08
510.39	981.48
510.75	1002.11
511.12	1023.04
511.48	1044.34
511.84	1065.66
512.20	1087.30
512.56	1110.03
512.92	1133.04
513.28	1155.78
513.64	1178.79
514.00	1202.21
514.37	1225.98
514.73	1249.74
515.09	1273.35
515.45	1297.37
515.81	1321.96
516.17	1346.63
516.53	1370.97
516.89	1395.37
517.25	1419.97
517.61	1444.73
517.97	1469.70
518.33	1494.43
518.69	1519.31
519.05	1544.44
519.41	1569.70
519.77	1595.23
520.13	1620.00
520.49	1644.93
520.85	1670.04
521.21	1695.11
521.57	1720.78
521.93	1745.73
522.29	1771.57
522.65	1797.11
523.01	1822.43
523.37	1847.07
523.73	1872.28
524.09	1897.66
524.45	1923.00
524.81	1947.88
525.17	1972.63
525.53	1996.98
525.89	2021.36
526.25	2045.93
526.61	2069.93
526.97	2094.29
527.33	2118.53
527.68	2142.66
528.04	2165.88
528.40	2189.02
528.76	2212.35
529.12	2234.61
529.48	2257.24
529.84	2278.01
530.20	2299.40
530.56	2320.47
530.91	2341.57
531.27	2362.17
531.63	2382.17
531.99	2401.61
532.35	2420.69
532.71	2439.90
533.07	2459.76
533.42	2477.97
533.78	2496.68
534.14	2515.30
534.50	2533.08
534.86	2551.52
535.21	2568.08
535.57	2584.70
535.93	2600.43
536.29	2615.01
536.65	2630.38
537.00	2644.65
537.36	2659.42
537.72	2673.09
538.08	2686.56
538.44	2698.85
538.79	2711.32
539.15	2722.16
539.51	2732.94
539.87	2743.39
540.22	2751.76
540.58	2760.11
540.94	2769.15
541.29	2776.54
541.65	2783.03
542.01	2788.97
542.37	2793.05
542.72	2798.99
543.08	2804.40
543.44	2809.76
543.79	2814.17
544.15	2817.85
544.51	2821.45
544.87	2824.20
545.22	2826.49
545.58	2827.73
545.94	2829.40
546.29	2829.70
546.65	2830.20
547.01	2830.63
547.36	2831.25
547.72	2832.00
548.07	2831.28
548.43	2829.91
548.79	2827.91
549.14	2826.02
549.50	2824.57
549.86	2822.44
550.21	2817.79
550.57	2813.58
550.92	2807.99
551.28	2803.03
551.64	2797.88
551.99	2793.20
552.35	2788.09
552.70	2782.58
553.06	2777.80
553.41	2772.60
553.77	2766.80
554.13	2761.52
554.48	2755.52
554.84	2747.76
555.19	2740.13
555.55	2731.93
555.90	2724.26
556.26	2717.68
556.61	2710.41
556.97	2701.10
557.32	2692.52
557.68	2684.48
558.03	2675.69
558.39	2667.55
558.74	2659.70
559.10	2650.55
559.45	2641.14
559.81	2631.99
560.16	2622.20
560.52	2611.89
560.87	2602.57
561.23	2592.95
561.58	2582.84
561.94	2572.43
562.29	2561.58
562.64	2551.30
563.00	2541.38
563.35	2531.34
563.71	2520.39
564.06	2508.85
564.42	2498.39
564.77	2487.54
565.12	2476.83
565.48	2465.83
565.83	2455.54
566.19	2445.15
566.54	2434.54
566.89	2422.85
567.25	2411.14
567.60	2400.32
567.96	2389.08
568.31	2376.47
568.66	2363.68
569.02	2351.98
569.37	2340.07
569.72	2328.70
570.08	2316.56
570.43	2303.90
570.78	2290.97
571.14	2277.79
571.49	2265.42
571.84	2253.34
572.20	2239.95
572.55	2226.90
572.90	2213.78
573.26	2199.83
573.61	2185.28
573.96	2170.91
574.31	2156.98
574.67	2143.30
575.02	2129.14
575.37	2114.59
575.72	2100.30
576.08	2086.68
576.43	2072.01
576.78	2057.29
577.13	2043.39
577.49	2029.65
577.84	2016.22
578.19	2001.96
578.54	1987.29
578.90	1972.13
579.25	1956.68
579.60	1942.68
579.95	1928.32
580.30	1913.97
580.66	1899.87
581.01	1885.39
581.36	1871.30
581.71	1857.75
582.06	1843.73
582.42	1829.72
582.77	1816.48
583.12	1802.95
583.47	1789.37
583.82	1775.93
584.17	1762.39
584.53	1748.69
584.88	1734.93
585.23	1720.92
585.58	1707.38
585.93	1694.29
586.28	1681.99
586.63	1669.56
586.98	1656.37
587.34	1643.48
587.69	1630.04
588.04	1616.77
588.39	1604.25
588.74	1591.23
589.09	1577.94
589.44	1564.60
589.79	1551.88
590.14	1538.97
590.49	1526.24
590.84	1513.43
591.19	1501.29
591.54	1488.65
591.89	1475.86
592.25	1463.44
592.60	1450.54
592.95	1438.22
593.30	1426.19
593.65	1413.98
594.00	1401.90
594.35	1390.71
594.70	1378.61
595.05	1367.63
595.40	1356.57
595.75	1344.84
596.10	1333.87
596.45	1323.13
596.80	1312.85
597.15	1302.34
597.50	1291.87
597.85	1281.59
598.19	1271.49
598.54	1260.76
598.89	1250.77
599.24	1241.12
599.59	1231.18
599.94	1222.30
600.29	1213.31
600.64	1204.11
600.99	1194.33
601.34	1185.03
601.69	1175.07
602.04	1166.23
602.39	1157.22
602.74	1148.43
603.08	1139.92
603.43	1130.91
603.78	1121.77
604.13	1112.80
604.48	1103.76
604.83	1095.00
605.18	1086.12
605.53	1077.20
605.87	1068.41
606.22	1059.89
606.57	1051.09
606.92	1042.37
607.27	1033.54
607.62	1024.79
607.96	1016.22
608.31	1008.60
608.66	1000.58
609.01	993.00
609.36	985.37
609.70	977.53
610.05	969.49
610.40	961.81
610.75	954.30
611.10	947.05
611.44	939.37
611.79	932.03
612.14	924.30
612.49	916.69
612.83	909.58
613.18	902.55
613.53	895.32
613.88	888.15
614.22	881.58
614.57	874.85
614.92	868.09
615.27	861.37
615.61	854.50
615.96	847.87
616.31	841.15
616.65	834.32
617.00	827.74
617.35	821.30
617.70	814.88
618.04	808.50
618.39	802.18
618.74	796.19
619.08	789.99
619.43	784.06
619.78	778.20
620.12	772.10
620.47	766.17
620.82	760.30
621.16	754.78
621.51	748.91
621.85	743.03
622.20	737.19
622.55	731.53
622.89	725.84
623.24	720.18
623.59	714.62
623.93	709.08
624.28	703.67
624.62	698.28
624.97	692.86
625.32	687.56
625.66	682.11
626.01	676.68
626.35	671.39
626.70	666.12
627.04	661.03
627.39	655.99
627.73	651.06
628.08	646.36
628.43	641.55
628.77	636.81
629.12	632.18
629.46	627.75
629.81	623.15
630.15	618.41
630.50	613.83
630.84	609.42
631.19	605.21
631.53	601.06
631.88	596.76
632.22	592.59
632.57	588.65
632.91	584.67
633.26	580.77
633.60	576.95
633.95	573.23
634.29	569.37
634.64	565.47
634.98	561.48
635.32	557.64
635.67	553.94
636.01	550.18
636.36	546.45
636.70	542.87
637.05	539.26
637.39	535.87
637.73	532.36
638.08	528.91
638.42	525.43
638.77	521.80
639.11	518.20
639.45	514.62
639.80	511.03
640.14	507.63
640.49	504.19
640.83	500.65
641.17	497.12
641.52	493.78
641.86	490.44
642.20	487.26
642.55	483.94
642.89	480.68
643.23	477.63
643.58	474.83
643.92	471.89
644.26	468.99
644.61	466.09
644.95	463.19
645.29	460.23
645.64	457.24
645.98	454.39
646.32	451.70
646.66	449.02
647.01	446.32
647.35	443.67
647.69	440.91
648.04	438.26
648.38	435.68
648.72	433.05
649.06	430.50
649.41	427.98
649.75	425.46
650.09	422.95
650.43	420.45
650.78	417.93
651.12	415.41
651.46	412.99
651.80	410.66
652.14	408.40
652.49	406.16
652.83	403.98
653.17	401.78
653.51	399.65
653.85	397.59
654.20	395.47
654.54	393.25
654.88	391.23
655.22	389.29
655.56	387.30
655.90	385.40
656.25	383.51
656.59	381.62
656.93	379.82
657.27	378.09
657.61	376.24
657.95	374.46
658.29	372.68
658.64	370.93
658.98	369.16
659.32	367.41
659.66	365.77
660.00	364.15
660.34	362.55
660.68	360.90
661.02	359.18
661.36	357.57
661.70	356.04
662.05	354.50
662.39	352.93
662.73	351.45
663.07	350.00
663.41	348.56
663.75	347.16
664.09	345.77
664.43	344.29
664.77	342.90
665.11	341.46
665.45	340.09
665.79	338.73
666.13	337.35
666.47	335.96
666.81	334.54
667.15	333.09
667.49	331.75
667.83	330.45
668.17	329.20
668.51	327.97
668.85	326.76
669.19	325.61
669.53	324.40
669.87	323.16
670.21	321.96
670.55	320.77
670.89	319.65
671.23	318.49
671.57	317.35
671.91	316.27
672.25	315.24
672.58	314.22
672.92	313.15
673.26	312.16
673.60	311.18
673.94	310.18
674.28	309.25
674.62	308.31
674.96	307.34
675.30	306.42
675.64	305.48
675.97	304.55
676.31	303.59
676.65	302.64
676.99	301.77
677.33	300.83
677.67	299.95
678.01	298.98
678.34	298.10
678.68	297.27
679.02	296.41
679.36	295.54
679.70	294.69
680.04	293.88
680.37	293.04
680.71	292.24
681.05	291.49
681.39	290.70
681.73	289.87
682.06	289.07
682.40	288.29
682.74	287.55
683.08	286.82
683.42	286.07
683.75	285.39
684.09	284.64
684.43	283.94
684.77	283.21
685.10	282.55
685.44	281.86
685.78	281.16
686.12	280.50
686.45	279.83
686.79	279.16
687.13	278.51
687.46	277.84
687.80	277.19
688.14	276.50
688.48	275.86
688.81	275.23
689.15	274.66
689.49	274.03
689.82	273.42
690.16	272.76
690.50	272.16
690.83	271.56
691.17	270.97
691.51	270.40
691.84	269.86
692.18	269.28
692.52	268.69
692.85	268.11
693.19	267.58
693.52	267.04
693.86	266.50
694.20	265.96
694.53	265.45
694.87	264.92
695.21	264.42
695.54	263.93
695.88	263.42
696.21	262.87
696.55	262.37
696.88	261.88
697.22	261.40
697.56	260.93
697.89	260.40
698.23	259.90
698.56	259.39
698.90	258.91
699.23	258.43
699.57	258.00
699.90	257.55
700.24	257.07
700.58	256.63
700.91	256.22
701.25	255.88
701.58	255.51
701.92	255.13
702.25	254.72
702.59	254.30
702.92	253.90
703.26	253.52
703.59	253.12
703.93	252.82
704.26	252.45
704.60	252.07
704.93	251.72
705.26	251.36
705.60	251.04
705.93	250.67
706.27	250.37
706.60	250.04
706.94	249.74
707.27	249.37
707.61	249.02
707.94	248.67
708.27	248.24
708.61	247.85
708.94	247.50
709.28	247.17
709.61	246.86
709.94	246.56
710.28	246.27
710.61	245.99
710.95	245.61
711.28	245.39
711.61	245.10
711.95	244.85
712.28	244.57
712.61	244.27
712.95	244.06
713.28	243.83
713.61	243.56
713.95	243.27
714.28	243.04
714.61	242.78
714.95	242.52
715.28	242.27
715.61	242.03
715.95	241.80
716.28	241.56
716.61	241.35
716.95	241.11
717.28	240.88
717.61	240.65
717.94	240.43
718.28	240.13
718.61	239.91
718.94	239.67
719.27	239.47
719.61	239.27
719.94	239.04
720.27	238.78
720.60	238.57
720.94	238.37
721.27	238.19
721.60	238.02
721.93	237.84
722.27	237.69
722.60	237.52
722.93	237.33
723.26	237.16
723.59	236.96
723.93	236.80
724.26	236.64
724.59	236.46
724.92	236.31
725.25	236.18
725.59	236.02
725.92	235.88
726.25	235.73
726.58	235.58
726.91	235.42
727.24	235.29
727.57	235.14
727.91	234.97
728.24	234.84
728.57	234.68
728.90	234.55
729.23	234.37
729.56	234.28
729.89	234.14
730.22	234.00
730.55	233.86
730.89	233.72
731.22	233.58
731.55	233.44
731.88	233.31
732.21	233.16
732.54	233.04
732.87	232.92
733.20	232.80
733.53	232.68
733.86	232.57
734.19	232.44
734.52	232.35
734.85	232.31
735.18	232.17
735.51	232.09
735.84	231.98
736.17	231.91
736.50	231.75
736.83	231.77
737.16	231.67
737.49	231.58
737.82	231.48
738.15	231.40
738.48	231.31
738.81	231.20
739.14	231.10
739.47	230.99
739.80	230.89
740.13	230.80
740.46	230.68
740.79	230.58
741.12	230.49
741.45	230.37
741.78	230.22
742.11	230.16
742.44	230.05
742.77	229.97
743.10	229.87
743.43	229.77
743.75	229.57
744.08	229.64
744.41	229.55
744.74	229.46
745.07	229.34
745.40	229.28
745.73	229.25
746.06	229.17
746.39	229.12
746.71	229.03
747.04	228.94
747.37	228.87
747.70	228.82
748.03	228.75
748.36	228.69
748.68	228.62
749.01	228.52
749.34	228.45
749.67	228.38
750.00	228.33
750.33	228.34
750.65	228.28
750.98	228.07
751.31	228.00
751.64	227.95
751.97	227.94
752.29	227.86
752.62	227.75
752.95	227.67
753.28	227.59
753.60	227.52
753.93	227.48
754.26	227.43
754.59	227.33
754.91	227.26
755.24	227.18
755.57	227.17
755.90	227.10
756.22	227.03
756.55	226.95
756.88	226.87
757.20	226.74
757.53	226.65
757.86	226.59
758.19	226.55
758.51	226.49
758.84	226.39
759.17	226.32
759.49	226.28
759.82	226.29
760.15	226.25
760.47	226.20
760.80	226.12
761.13	226.08
761.45	226.04
761.78	225.99
762.11	225.95
762.43	225.85
762.76	225.81
763.08	225.78
763.41	225.74
763.74	225.71
764.06	225.66
764.39	225.63
764.71	225.58
765.04	225.53
765.37	225.47
765.69	225.44
766.02	225.39
766.34	225.34
766.67	225.26
767.00	225.23
767.32	225.25
767.65	225.27
767.97	225.22
768.30	225.19
768.62	225.15
768.95	225.10
769.27	225.07
769.60	225.04
769.92	224.99
770.25	224.93
770.57	224.88
770.90	224.85
771.22	224.81
771.55	224.77
771.87	224.75
772.20	224.72
772.52	224.77
772.85	224.87
773.17	224.84
773.50	224.80
773.82	224.76
774.15	224.68
774.47	224.58
774.80	224.54
775.12	224.51
775.45	224.48
775.77	224.45
776.09	224.43
776.42	224.40
776.74	224.41
777.07	224.38
777.39	224.36
777.72	224.33
778.04	224.31
778.36	224.28
778.69	224.26
779.01	224.24
779.33	224.12
779.66	223.98
779.98	223.94
780.31	223.93
780.63	223.95
780.95	223.95
781.28	223.93
781.60	223.90
781.92	223.88
782.25	223.86
782.57	223.84
782.89	223.82
783.22	223.79
783.54	223.74
783.86	223.73
784.19	223.71
784.51	223.72
784.83	223.69
785.16	223.67
785.48	223.65
785.80	223.63
786.12	223.62
786.45	223.60
786.77	223.60
787.09	223.57
787.42	223.52
787.74	223.50
788.06	223.49
788.38	223.48
788.71	223.46
789.03	223.45
789.35	223.44
789.67	223.42
789.99	223.41
790.32	223.38
790.64	223.38
790.96	223.47
791.28	223.41
791.61	223.39
791.93	223.39
792.25	223.37
792.57	223.43
792.89	223.40
793.21	223.40
793.54	223.37
793.86	223.34
794.18	223.33
794.50	223.30
794.82	223.28
795.14	223.28
795.47	223.28
795.79	223.27
796.11	223.23
796.43	223.21
796.75	223.20
797.07	223.19
797.39	223.17
797.71	223.07
798.04	223.07
798.36	223.07
798.68	223.05
799.00	223.05
799.32	222.98
799.64	222.99
799.96	222.98
800.28	222.99
800.60	222.98
800.92	222.97
801.24	222.96
801.56	222.96
801.89	222.94
802.21	222.93
802.53	222.91
802.85	222.92
803.17	222.97
803.49	222.94
803.81	222.92
804.13	222.90
804.45	222.87
804.77	222.87
805.09	222.86
805.41	222.84
805.73	222.81
806.05	222.77
806.37	222.75
806.69	222.73
807.01	222.71
807.33	222.71
807.65	222.67
807.97	222.71
808.28	222.68
808.60	222.67
808.92	222.65
809.24	222.70
809.56	222.68
809.88	222.63
810.20	222.62
810.52	222.64
810.84	222.62
811.16	222.60
811.48	222.58
811.80	222.61
812.12	222.60
812.43	222.62
812.75	222.62
813.07	222.61
813.39	222.60
813.71	222.58
814.03	222.56
814.35	222.57
814.67	222.51
814.98	222.50
815.30	222.49
815.62	222.47
815.94	222.39
816.26	222.40
816.58	222.37
816.89	222.37
817.21	222.34
817.53	222.35
817.85	222.35
818.17	222.34
818.48	222.29
818.80	222.31
819.12	222.29
819.44	222.26
819.76	222.25
820.07	222.24
820.39	222.24
820.71	222.24
821.03	222.24
821.34	222.23
821.66	222.24
821.98	222.24
822.30	222.24
822.61	222.30
822.93	222.28
823.25	222.28
823.57	222.26
823.88	222.27
824.20	222.26
824.52	222.27
824.83	222.27
825.15	222.25
825.47	222.24
825.79	222.24
826.10	222.23
826.42	222.23
826.74	222.23
827.05	222.23
827.37	222.22
827.69	222.22
828.00	222.22
828.32	222.22
828.64	222.20
828.95	222.25
829.27	222.22
829.58	222.21
829.90	222.23
830.22	222.23
830.53	222.21
830.85	222.20
831.17	222.17
831.48	222.16
831.80	222.16
832.11	222.16
832.43	222.14
832.75	222.14
833.06	222.20
833.38	222.17
833.69	222.16
834.01	222.16
834.32	222.16
834.64	222.14
834.96	222.14
835.27	222.14
835.59	222.10
835.90	222.08
836.22	222.08
836.53	222.05
836.85	222.04
837.16	222.14
837.48	222.14
837.79	222.18
838.11	222.18
838.42	222.18
838.74	222.19
839.05	222.18
839.37	222.18
839.68	222.11
840.00	222.11
840.31	222.12
840.63	222.11
840.94	222.10
841.26	222.09
841.57	222.08
841.88	222.08
842.20	222.07
842.51	222.05
842.83	222.05
843.14	222.14
843.46	222.14
843.77	222.07
844.08	222.07
844.40	222.03
844.71	222.02
845.03	222.00
845.34	221.99
845.65	221.98
845.97	221.98
846.28	221.98
846.60	221.99
846.91	221.97
847.22	221.97
847.54	221.99
847.85	221.99
848.16	221.98
848.48	221.96
848.79	222.00
849.10	222.01
849.42	222.02
849.73	221.92
850.04	221.91
850.36	221.88
850.67	221.89
850.98	221.90
851.30	221.91
851.61	221.90
851.92	221.90
852.23	221.93
852.55	221.93
852.86	221.94
853.17	221.94
853.49	221.96
853.80	221.99
854.11	221.99
854.42	222.00
854.74	221.99
855.05	221.99
855.36	221.94
855.67	221.94
855.99	221.94
856.30	222.06
856.61	222.06
856.92	222.06
857.23	222.06
857.55	222.05
857.86	222.04
858.17	222.06
858.48	222.04
858.79	222.01
859.11	222.03
859.42	222.01
859.73	222.00
860.04	221.99
860.35	221.96
860.66	221.93
860.98	221.92
861.29	221.93
861.60	221.93
861.91	221.95
862.22	221.94
862.53	221.92
862.84	221.80
863.16	221.82
863.47	221.80
863.78	221.79
864.09	221.80
864.40	221.81
864.71	221.80
865.02	221.81
865.33	221.80
865.64	221.78
865.95	221.78
866.27	221.85
866.58	221.83
866.89	221.84
867.20	221.84
867.51	221.83
867.82	221.82
868.13	221.85
868.44	221.82
868.75	221.84
869.06	221.85
869.37	221.86
869.68	221.84
869.99	221.85
870.30	221.86
870.61	221.87
870.92	221.85
871.23	221.84
871.54	221.85
871.85	221.88
872.16	221.89
872.47	221.88
872.78	221.82
873.09	221.84
873.40	221.83
873.71	221.84
874.02	221.84
874.33	221.83
874.64	221.80
874.95	221.82
875.26	221.80
875.56	221.79
875.87	221.78
876.18	221.77
876.49	221.87
876.80	221.86
877.11	221.84
877.42	221.85
877.73	221.85
878.04	221.83
878.35	221.83
878.66	221.83
878.96	221.83
879.27	221.82
879.58	221.81
879.89	221.81
880.20	221.84
880.51	221.83
880.82	221.84
881.12	221.84
881.43	221.82
881.74	221.81
882.05	221.81
882.36	221.81
882.67	221.82
882.97	221.71
883.28	221.71
883.59	221.70
883.90	221.71
884.21	221.72
884.51	221.72
884.82	221.70
885.13	221.69
885.44	221.69
885.74	221.70
886.05	221.69
886.36	221.69
886.67	221.65
886.98	221.70
887.28	221.71
887.59	221.71
887.90	221.72
888.20	221.72
888.51	221.73
888.82	221.71
889.13	221.72
889.43	221.81
889.74	221.80
890.05	221.80
890.35	221.79
890.66	221.77
890.97	221.76
891.28	221.76
891.58	221.76
891.89	221.75
892.20	221.74
892.50	221.73
892.81	221.73
893.12	221.73
893.42	221.67
893.73	221.67
894.04	221.67
894.34	221.68
894.65	221.68
894.95	221.66
895.26	221.67
895.57	221.72
895.87	221.61
896.18	221.63
896.48	221.64
896.79	221.64
897.10	221.65
897.40	221.66
897.71	221.67
898.01	221.66
898.32	221.67
898.63	221.67
898.93	221.68
899.24	221.68
899.54	221.68
899.85	221.68
900.15	221.67
900.46	221.67
900.76	221.67
901.07	221.67
901.38	221.67
901.68	221.68
901.99	221.63
902.29	221.63
902.60	221.62
902.90	221.61
903.21	221.61
903.51	221.60
903.82	221.62
904.12	221.62
904.43	221.63
904.73	221.62
905.03	221.62
905.34	221.72
905.64	221.72
905.95	221.71
906.25	221.71
906.56	221.70
906.86	221.70
907.17	221.69
907.47	221.70
907.77	221.69
908.08	221.66
908.38	221.67
908.69	221.67
908.99	221.69
909.30	221.70
909.60	221.69
909.90	221.70
910.21	221.67
910.51	221.65
910.81	221.65
911.12	221.65
911.42	221.65
911.73	221.54
912.03	221.55
912.33	221.57
912.64	221.56
912.94	221.56
913.24	221.54
913.55	221.54
913.85	221.53
914.15	221.55
914.46	221.56
914.76	221.55
915.06	221.54
915.37	221.52
915.67	221.51
915.97	221.52
916.27	221.49
916.58	221.50
916.88	221.50
917.18	221.48
917.49	221.55
917.79	221.55
918.09	221.56
918.39	221.59
918.70	221.58
919.00	221.59
919.30	221.64
919.60	221.63
919.91	221.62
920.21	221.62
920.51	221.60
920.81	221.59
921.12	221.61
921.42	221.60
921.72	221.61
922.02	221.61
922.32	221.63
922.63	221.63
922.93	221.69
923.23	221.69
923.53	221.68
923.83	221.61
924.13	221.62
924.44	221.61
924.74	221.62
925.04	221.64
925.34	221.64
925.64	221.60
925.94	221.60
926.24	221.66
926.55	221.65
926.85	221.67
927.15	221.67
927.45	221.67
927.75	221.67
928.05	221.67
928.35	221.66
928.65	221.67
928.95	221.68
929.26	221.64
929.56	221.65
929.86	221.67
930.16	221.66
930.46	221.65
930.76	221.66
931.06	221.60
931.36	221.57
931.66	221.59
931.96	221.61
932.26	221.61
932.56	221.56
932.86	221.57
933.16	221.57
933.46	221.56
933.76	221.55
934.06	221.57
934.36	221.60
934.66	221.60
934.96	221.58
935.26	221.58
935.56	221.60
935.86	221.57
936.16	221.56
936.46	221.55
936.76	221.55
937.06	221.53
937.36	221.54
937.66	221.55
937.96	221.54
938.26	221.51
938.56	221.51
938.86	221.51
939.16	221.53
939.46	221.54
939.76	221.54
940.06	221.54
940.35	221.53
940.65	221.47
940.95	221.48
941.25	221.46
941.55	221.45
941.85	221.43
942.15	221.46
942.45	221.49
942.75	221.48
943.04	221.49
943.34	221.51
943.64	221.50
943.94	221.49
944.24	221.49
944.54	221.50
944.84	221.50
945.13	221.48
945.43	221.46
945.73	221.45
946.03	221.44
946.33	221.43
946.62	221.42
946.92	221.42
947.22	221.43
947.52	221.44
947.82	221.46
948.11	221.45
948.41	221.42
948.71	221.39
949.01	221.40
949.31	221.39
949.60	221.38
949.90	221.40
950.20	221.40
950.50	221.39
950.79	221.38
951.09	221.40
951.39	221.40
951.69	221.38
951.98	221.40
952.28	221.42
952.58	221.41
952.87	221.42
953.17	221.43
953.47	221.42
953.76	221.41
954.06	221.39
954.36	221.38
954.66	221.38
954.95	221.41
955.25	221.41
955.55	221.42
955.84	221.40
956.14	221.40
956.44	221.41
956.73	221.40
957.03	221.41
957.32	221.41
957.62	221.40
957.92	221.42
958.21	221.41
958.51	221.53
958.81	221.54
959.10	221.55
959.40	221.58
959.69	221.58
959.99	221.60
960.29	221.60
960.58	221.60
960.88	221.64
961.17	221.63
961.47	221.64
961.76	221.63
962.06	221.65
962.36	221.64
962.65	221.65
962.95	221.65
963.24	221.64
963.54	221.64
963.83	221.65
964.13	221.64
964.42	221.64
964.72	221.55
965.01	221.55
965.31	221.54
965.60	221.51
965.90	221.57
966.19	221.55
966.49	221.55
966.78	221.55
967.08	221.54
967.37	221.54
967.67	221.52
967.96	221.54
968.26	221.53
968.55	221.55
968.85	221.54
969.14	221.54
969.43	221.53
969.73	221.52
970.02	221.52
970.32	221.51
970.61	221.49
970.91	221.46
971.20	221.45
971.49	221.44
971.79	221.46
972.08	221.38
972.38	221.39
972.67	221.38
972.96	221.40
973.26	221.38
973.55	221.41
973.85	221.40
974.14	221.39
974.43	221.40
974.73	221.38
975.02	221.37
975.31	221.38
975.61	221.37
975.90	221.37
976.19	221.36
976.49	221.37
976.78	221.38
977.07	221.38
977.37	221.38
977.66	221.39
977.95	221.37
978.24	221.38
978.54	221.40
978.83	221.38
979.12	221.38
979.42	221.37
979.71	221.35
980.00	221.35
980.29	221.35
980.59	221.34
980.88	221.36
981.17	221.36
981.46	221.36
981.76	221.36
982.05	221.39
982.34	221.40
982.63	221.40
982.93	221.40
983.22	221.43
983.51	221.43
983.80	221.44
984.09	221.46
984.39	221.45
984.68	221.43
984.97	221.44
985.26	221.43
985.55	221.44
985.85	221.42
986.14	221.44
986.43	221.44
986.72	221.44
987.01	221.40
987.30	221.40
987.59	221.39
987.89	221.40
988.18	221.37
988.47	221.35
988.76	221.35
989.05	221.34
989.34	221.32
989.63	221.35
989.92	221.34
990.22	221.32
990.51	221.32
990.80	221.31
991.09	221.32
991.38	221.34
991.67	221.33
991.96	221.32
992.25	221.32
992.54	221.30
992.83	221.30
993.12	221.30
993.41	221.32
993.70	221.37
993.99	221.38
994.28	221.39
994.58	221.41
994.87	221.40
995.16	221.40
995.45	221.39
995.74	221.35
996.03	221.36
996.32	221.38
996.61	221.40
996.90	221.39
997.19	221.38
997.48	221.38
997.77	221.37
998.06	221.38
998.34	221.37
998.63	221.37
998.92	221.37
999.21	221.39
999.50	221.39
999.79	221.35
1000.08	221.35
1000.37	221.35
1000.66	221.33
1000.95	221.35
1001.24	221.36
1001.53	221.38
1001.82	221.38
1002.11	221.36
1002.40	221.36
1002.68	221.39
1002.97	221.46
1003.26	221.45
1003.55	221.44
1003.84	221.45
1004.13	221.48
1004.42	221.48
1004.71	221.48
1004.99	221.47
1005.28	221.49
1005.57	221.48
1005.86	221.48
1006.15	221.47
1006.44	221.45
1006.72	221.47
1007.01	221.45
1007.30	221.45
1007.59	221.44
1007.88	221.44
1008.17	221.44
1008.45	221.42
1008.74	221.38
1009.03	221.33
1009.32	221.33
1009.60	221.33
1009.89	221.32
1010.18	221.28
1010.47	221.27
1010.76	221.28
1011.04	221.28
1011.33	221.27
1011.62	221.29
1011.91	221.29
1012.19	221.30
1012.48	221.30
1012.77	221.30
1013.05	221.33
1013.34	221.33
1013.63	221.33
1013.92	221.33
1014.20	221.33
1014.49	221.33
1014.78	221.35
1015.06	221.31
1015.35	221.31
1015.64	221.32
1015.92	221.34
1016.21	221.35
1016.50	221.35
1016.78	221.36
1017.07	221.37
1017.36	221.35
1017.64	221.33
1017.93	221.34
1018.22	221.33
1018.50	221.32
1018.79	221.32
1019.08	221.28
1019.36	221.29
1019.65	221.28
1019.93	221.31
1020.22	221.32
1020.51	221.37
1020.79	221.36
1021.08	221.15
1021.36	221.11
1021.65	221.31
1021.94	221.27
1022.22	221.42
1022.51	221.14
1022.79	221.79
1023.08	221.45
1023.36	222.51
1023.65	221.04
>>>>>End Processed Spectral Data<<<<<
