SpectraSuite Data File
++++++++++++++++++++++++++++++++++++
Date: Wed Sep 30 16:59:52 EDT 2015
User: lab3
Dark Spectrum Present: No
Reference Spectrum Present: No
Number of Sampled Component Spectra: 1
Spectrometers: USB2E7196
Integration Time (usec): 36000 (USB2E7196)
Spectra Averaged: 3000 (USB2E7196)
Boxcar Smoothing: 10 (USB2E7196)
Correct for Electrical Dark: No (USB2E7196)
Strobe/Lamp Enabled: No (USB2E7196)
Correct for Detector Non-linearity: No (USB2E7196)
Correct for Stray Light: No (USB2E7196)
Number of Pixels in Processed Spectrum: 2048
>>>>>Begin Processed Spectral Data<<<<<
339.09	0.00
339.48	210.39
339.86	211.84
340.24	213.24
340.63	214.71
341.01	217.63
341.39	217.45
341.78	218.73
342.16	219.90
342.54	220.34
342.93	208.98
343.31	219.54
343.69	220.08
344.07	220.54
344.46	220.97
344.84	221.35
345.22	221.59
345.60	221.84
345.99	222.04
346.37	222.18
346.75	222.28
347.13	222.36
347.52	222.44
347.90	222.52
348.28	222.56
348.66	222.62
349.05	222.62
349.43	222.67
349.81	222.73
350.19	222.78
350.57	222.85
350.96	222.92
351.34	223.02
351.72	223.11
352.10	223.21
352.48	223.29
352.87	223.34
353.25	223.41
353.63	223.46
354.01	223.53
354.39	223.60
354.77	223.68
355.15	223.77
355.54	223.83
355.92	223.86
356.30	223.94
356.68	224.07
357.06	224.15
357.44	224.19
357.82	224.25
358.20	224.36
358.58	224.41
358.97	224.48
359.35	224.56
359.73	224.64
360.11	224.69
360.49	224.74
360.87	224.79
361.25	224.85
361.63	224.94
362.01	224.99
362.39	225.03
362.77	225.07
363.15	225.09
363.53	225.12
363.91	225.15
364.29	225.17
364.67	225.09
365.05	225.11
365.43	225.15
365.81	225.18
366.19	225.19
366.57	225.24
366.95	225.24
367.33	225.21
367.71	225.21
368.09	225.22
368.47	225.21
368.85	225.20
369.23	225.20
369.61	225.14
369.99	225.16
370.37	225.16
370.75	225.21
371.13	225.18
371.51	225.14
371.89	225.13
372.27	225.10
372.65	225.09
373.03	225.04
373.41	225.00
373.78	224.95
374.16	224.86
374.54	224.78
374.92	224.73
375.30	224.68
375.68	224.62
376.06	224.57
376.44	224.52
376.82	224.47
377.19	224.43
377.57	224.38
377.95	224.29
378.33	224.23
378.71	224.08
379.09	224.03
379.47	223.99
379.84	223.93
380.22	223.86
380.60	223.79
380.98	223.74
381.36	223.69
381.73	223.63
382.11	223.60
382.49	223.56
382.87	223.50
383.25	223.46
383.62	223.54
384.00	223.47
384.38	223.43
384.76	223.41
385.13	223.40
385.51	223.37
385.89	223.31
386.27	223.27
386.64	223.26
387.02	223.21
387.40	223.16
387.78	223.14
388.15	223.11
388.53	223.08
388.91	223.04
389.29	223.01
389.66	222.99
390.04	222.95
390.42	222.95
390.79	222.93
391.17	222.91
391.55	222.78
391.92	222.76
392.30	222.76
392.68	222.73
393.05	222.71
393.43	222.71
393.81	222.72
394.18	222.70
394.56	222.70
394.94	222.73
395.31	222.73
395.69	222.76
396.06	222.79
396.44	222.82
396.82	222.84
397.19	222.91
397.57	222.93
397.95	222.97
398.32	222.96
398.70	223.01
399.07	223.07
399.45	223.10
399.82	223.14
400.20	223.18
400.58	223.24
400.95	223.25
401.33	223.33
401.70	223.46
402.08	223.55
402.45	223.62
402.83	223.73
403.20	223.83
403.58	223.91
403.95	224.03
404.33	224.15
404.71	224.27
405.08	224.45
405.46	224.58
405.83	224.74
406.21	224.91
406.58	225.10
406.96	225.27
407.33	225.49
407.70	225.72
408.08	226.04
408.45	226.32
408.83	226.62
409.20	226.90
409.58	227.15
409.95	227.48
410.33	227.85
410.70	228.19
411.08	228.60
411.45	229.02
411.82	229.46
412.20	229.96
412.57	230.55
412.95	231.01
413.32	231.61
413.69	232.23
414.07	232.89
414.44	233.60
414.82	234.33
415.19	235.18
415.56	236.05
415.94	236.94
416.31	237.95
416.68	238.95
417.06	240.13
417.43	241.23
417.81	242.50
418.18	243.79
418.55	245.20
418.93	246.67
419.30	248.21
419.67	249.84
420.04	251.53
420.42	253.27
420.79	255.31
421.16	257.36
421.54	259.43
421.91	261.60
422.28	263.86
422.66	266.29
423.03	268.61
423.40	271.05
423.77	273.65
424.15	276.33
424.52	279.11
424.89	282.11
425.26	285.10
425.64	287.87
426.01	290.99
426.38	294.18
426.75	297.47
427.13	300.84
427.50	304.37
427.87	308.02
428.24	311.72
428.61	315.25
428.99	319.07
429.36	323.26
429.73	327.28
430.10	331.28
430.47	335.37
430.85	339.56
431.22	344.02
431.59	348.61
431.96	353.07
432.33	358.02
432.70	362.72
433.08	368.28
433.45	373.51
433.82	378.65
434.19	384.40
434.56	390.05
434.93	395.49
435.30	400.86
435.68	406.90
436.05	412.82
436.42	418.74
436.79	424.14
437.16	429.96
437.53	436.20
437.90	442.42
438.27	448.49
438.64	455.09
439.01	461.06
439.38	466.51
439.75	471.76
440.13	477.75
440.50	483.44
440.87	487.93
441.24	492.87
441.61	498.34
441.98	502.35
442.35	507.11
442.72	512.01
443.09	516.68
443.46	519.72
443.83	521.97
444.20	523.87
444.57	526.64
444.94	528.30
445.31	530.02
445.68	531.56
446.05	532.74
446.42	532.64
446.79	532.44
447.16	532.29
447.53	532.21
447.90	530.53
448.27	528.96
448.64	526.43
449.01	524.81
449.37	521.12
449.74	517.75
450.11	513.43
450.48	508.64
450.85	503.84
451.22	499.77
451.59	495.78
451.96	492.16
452.33	486.80
452.70	482.06
453.07	476.24
453.43	470.39
453.80	464.76
454.17	459.33
454.54	454.30
454.91	448.60
455.28	443.23
455.65	438.17
456.02	432.78
456.38	428.44
456.75	422.80
457.12	418.28
457.49	413.71
457.86	409.34
458.23	405.52
458.59	401.30
458.96	396.94
459.33	393.09
459.70	389.19
460.07	386.21
460.43	382.68
460.80	379.39
461.17	376.48
461.54	373.35
461.91	370.42
462.27	367.44
462.64	365.00
463.01	362.21
463.38	359.38
463.74	356.81
464.11	354.52
464.48	352.45
464.85	350.22
465.21	348.54
465.58	346.68
465.95	344.51
466.32	342.78
466.68	341.09
467.05	339.40
467.42	337.76
467.78	336.00
468.15	334.36
468.52	333.15
468.88	331.56
469.25	330.10
469.62	328.94
469.98	327.68
470.35	326.55
470.72	325.53
471.08	324.50
471.45	323.65
471.82	322.71
472.18	321.73
472.55	321.10
472.92	320.30
473.28	319.69
473.65	319.04
474.02	318.45
474.38	317.95
474.75	317.67
475.11	317.25
475.48	317.10
475.85	316.93
476.21	316.86
476.58	316.84
476.94	317.02
477.31	317.13
477.67	317.27
478.04	317.51
478.41	317.83
478.77	318.28
479.14	318.60
479.50	319.14
479.87	319.81
480.23	320.49
480.60	321.13
480.96	321.80
481.33	322.73
481.69	323.65
482.06	324.57
482.42	325.45
482.79	326.49
483.15	327.71
483.52	329.06
483.88	330.37
484.25	331.77
484.61	333.23
484.98	334.79
485.34	336.54
485.71	338.36
486.07	340.30
486.44	342.22
486.80	344.37
487.17	346.56
487.53	348.97
487.90	351.49
488.26	354.22
488.62	357.09
488.99	359.97
489.35	362.97
489.72	366.23
490.08	369.65
490.44	373.14
490.81	376.79
491.17	380.54
491.54	384.56
491.90	388.68
492.26	393.09
492.63	397.75
492.99	402.60
493.36	407.58
493.72	412.81
494.08	418.18
494.45	423.86
494.81	429.72
495.17	435.72
495.54	442.04
495.90	448.68
496.26	455.47
496.63	462.49
496.99	469.79
497.35	477.44
497.72	485.39
498.08	493.51
498.44	501.88
498.80	510.78
499.17	519.89
499.53	529.33
499.89	539.02
500.26	548.87
500.62	558.99
500.98	569.77
501.34	580.68
501.71	592.13
502.07	603.78
502.43	615.85
502.79	628.25
503.16	641.06
503.52	654.03
503.88	667.35
504.24	681.09
504.60	695.11
504.97	709.50
505.33	724.28
505.69	739.95
506.05	755.83
506.41	771.74
506.78	787.95
507.14	804.67
507.50	821.94
507.86	839.57
508.22	857.48
508.59	875.40
508.95	894.06
509.31	913.14
509.67	932.89
510.03	952.88
510.39	973.08
510.75	993.50
511.12	1014.18
511.48	1035.23
511.84	1056.42
512.20	1077.91
512.56	1100.52
512.92	1123.30
513.28	1145.79
513.64	1168.60
514.00	1191.86
514.37	1215.41
514.73	1238.93
515.09	1262.32
515.45	1286.13
515.81	1310.51
516.17	1334.97
516.53	1359.10
516.89	1383.35
517.25	1407.78
517.61	1432.39
517.97	1457.24
518.33	1481.91
518.69	1506.79
519.05	1531.90
519.41	1557.12
519.77	1582.64
520.13	1607.38
520.49	1632.32
520.85	1657.47
521.21	1682.48
521.57	1708.10
521.93	1733.04
522.29	1758.78
522.65	1784.31
523.01	1809.66
523.37	1834.22
523.73	1859.42
524.09	1884.89
524.45	1910.23
524.81	1935.13
525.17	1959.87
525.53	1984.26
525.89	2008.56
526.25	2033.01
526.61	2056.89
526.97	2081.12
527.33	2105.26
527.68	2129.29
528.04	2152.52
528.40	2175.63
528.76	2198.93
529.12	2221.19
529.48	2243.92
529.84	2264.84
530.20	2286.24
530.56	2307.34
530.91	2328.58
531.27	2349.31
531.63	2369.42
531.99	2388.94
532.35	2408.29
532.71	2427.80
533.07	2447.85
533.42	2466.35
533.78	2485.30
534.14	2504.24
534.50	2522.29
534.86	2540.95
535.21	2557.82
535.57	2574.59
535.93	2590.54
536.29	2605.29
536.65	2620.80
537.00	2635.27
537.36	2650.38
537.72	2664.45
538.08	2678.28
538.44	2691.00
538.79	2703.90
539.15	2714.98
539.51	2725.99
539.87	2736.41
540.22	2744.76
540.58	2753.27
540.94	2762.42
541.29	2769.96
541.65	2776.60
542.01	2782.77
542.37	2787.04
542.72	2793.12
543.08	2798.70
543.44	2804.22
543.79	2809.05
544.15	2813.05
544.51	2816.89
544.87	2819.77
545.22	2822.29
545.58	2823.71
545.94	2825.60
546.29	2826.05
546.65	2826.73
547.01	2827.46
547.36	2828.41
547.72	2829.60
548.07	2829.23
548.43	2828.22
548.79	2826.60
549.14	2824.92
549.50	2823.78
549.86	2821.81
550.21	2817.55
550.57	2813.79
550.92	2808.54
551.28	2803.85
551.64	2798.97
551.99	2794.49
552.35	2789.67
552.70	2784.33
553.06	2779.65
553.41	2774.44
553.77	2768.67
554.13	2763.56
554.48	2757.58
554.84	2749.99
555.19	2742.44
555.55	2734.22
555.90	2726.53
556.26	2719.98
556.61	2712.84
556.97	2703.54
557.32	2695.30
557.68	2687.28
558.03	2678.56
558.39	2670.68
558.74	2662.88
559.10	2653.98
559.45	2644.72
559.81	2635.53
560.16	2625.83
560.52	2615.72
560.87	2606.62
561.23	2597.16
561.58	2587.26
561.94	2577.20
562.29	2566.54
562.64	2556.42
563.00	2546.76
563.35	2536.96
563.71	2526.03
564.06	2514.73
564.42	2504.45
564.77	2493.69
565.12	2483.02
565.48	2472.01
565.83	2461.60
566.19	2451.34
566.54	2440.62
566.89	2428.98
567.25	2417.59
567.60	2406.94
567.96	2395.84
568.31	2383.43
568.66	2370.93
569.02	2359.45
569.37	2347.77
569.72	2336.64
570.08	2324.73
570.43	2312.20
570.78	2299.35
571.14	2286.56
571.49	2274.38
571.84	2262.42
572.20	2249.09
572.55	2236.36
572.90	2223.49
573.26	2209.83
573.61	2195.56
573.96	2181.48
574.31	2167.73
574.67	2154.15
575.02	2140.04
575.37	2125.63
575.72	2111.51
576.08	2097.84
576.43	2083.08
576.78	2068.29
577.13	2054.32
577.49	2040.58
577.84	2027.27
578.19	2013.16
578.54	1998.53
578.90	1983.39
579.25	1968.05
579.60	1954.23
579.95	1939.92
580.30	1925.69
580.66	1911.63
581.01	1897.08
581.36	1883.04
581.71	1869.62
582.06	1855.67
582.42	1841.89
582.77	1828.80
583.12	1815.22
583.47	1801.79
583.82	1788.47
584.17	1775.04
584.53	1761.47
584.88	1747.86
585.23	1733.90
585.58	1720.47
585.93	1707.41
586.28	1695.21
586.63	1682.77
586.98	1669.51
587.34	1656.53
587.69	1643.09
588.04	1629.89
588.39	1617.38
588.74	1604.28
589.09	1590.92
589.44	1577.59
589.79	1564.82
590.14	1551.88
590.49	1539.17
590.84	1526.36
591.19	1514.14
591.54	1501.47
591.89	1488.63
592.25	1476.10
592.60	1463.19
592.95	1450.79
593.30	1438.75
593.65	1426.53
594.00	1414.57
594.35	1403.36
594.70	1391.22
595.05	1380.08
595.40	1368.81
595.75	1356.99
596.10	1346.02
596.45	1335.29
596.80	1324.95
597.15	1314.33
597.50	1303.73
597.85	1293.33
598.19	1283.12
598.54	1272.41
598.89	1262.38
599.24	1252.65
599.59	1242.68
599.94	1233.74
600.29	1224.66
600.64	1215.37
600.99	1205.46
601.34	1196.00
601.69	1185.98
602.04	1177.17
602.39	1168.21
602.74	1159.52
603.08	1151.06
603.43	1142.07
603.78	1132.90
604.13	1123.89
604.48	1114.84
604.83	1106.08
605.18	1097.21
605.53	1088.27
605.87	1079.37
606.22	1070.78
606.57	1061.90
606.92	1053.07
607.27	1044.11
607.62	1035.28
607.96	1026.65
608.31	1019.06
608.66	1011.07
609.01	1003.48
609.36	995.75
609.70	987.80
610.05	979.70
610.40	971.95
610.75	964.32
611.10	956.89
611.44	949.14
611.79	941.68
612.14	933.85
612.49	926.15
612.83	918.95
613.18	911.85
613.53	904.57
613.88	897.40
614.22	890.85
614.57	884.09
614.92	877.30
615.27	870.52
615.61	863.55
615.96	856.83
616.31	850.04
616.65	843.18
617.00	836.55
617.35	830.01
617.70	823.51
618.04	817.12
618.39	810.76
618.74	804.73
619.08	798.52
619.43	792.56
619.78	786.63
620.12	780.50
620.47	774.57
620.82	768.66
621.16	763.07
621.51	757.15
621.85	751.21
622.20	745.33
622.55	739.62
622.89	733.82
623.24	728.07
623.59	722.42
623.93	716.83
624.28	711.42
624.62	705.97
624.97	700.49
625.32	695.13
625.66	689.66
626.01	684.17
626.35	678.83
626.70	673.52
627.04	668.42
627.39	663.36
627.73	658.39
628.08	653.66
628.43	648.77
628.77	643.93
629.12	639.25
629.46	634.76
629.81	630.10
630.15	625.37
630.50	620.79
630.84	616.37
631.19	612.12
631.53	607.90
631.88	603.59
632.22	599.39
632.57	595.41
632.91	591.35
633.26	587.39
633.60	583.52
633.95	579.78
634.29	575.85
634.64	571.89
634.98	567.83
635.32	563.95
635.67	560.23
636.01	556.47
636.36	552.72
636.70	549.13
637.05	545.50
637.39	542.08
637.73	538.51
638.08	535.02
638.42	531.53
638.77	527.90
639.11	524.26
639.45	520.62
639.80	516.99
640.14	513.55
640.49	510.06
640.83	506.47
641.17	502.92
641.52	499.55
641.86	496.18
642.20	492.98
642.55	489.62
642.89	486.34
643.23	483.27
643.58	480.44
643.92	477.46
644.26	474.53
644.61	471.58
644.95	468.65
645.29	465.65
645.64	462.60
645.98	459.70
646.32	457.00
646.66	454.29
647.01	451.55
647.35	448.88
647.69	446.10
648.04	443.44
648.38	440.82
648.72	438.15
649.06	435.56
649.41	433.01
649.75	430.45
650.09	427.93
650.43	425.38
650.78	422.82
651.12	420.27
651.46	417.80
651.80	415.44
652.14	413.15
652.49	410.88
652.83	408.68
653.17	406.46
653.51	404.28
653.85	402.18
654.20	400.04
654.54	397.79
654.88	395.74
655.22	393.76
655.56	391.73
655.90	389.81
656.25	387.89
656.59	385.95
656.93	384.13
657.27	382.35
657.61	380.48
657.95	378.68
658.29	376.86
658.64	375.06
658.98	373.25
659.32	371.47
659.66	369.81
660.00	368.13
660.34	366.50
660.68	364.83
661.02	363.08
661.36	361.46
661.70	359.91
662.05	358.32
662.39	356.71
662.73	355.20
663.07	353.72
663.41	352.26
663.75	350.85
664.09	349.43
664.43	347.92
664.77	346.52
665.11	345.05
665.45	343.66
665.79	342.28
666.13	340.89
666.47	339.48
666.81	338.04
667.15	336.58
667.49	335.21
667.83	333.88
668.17	332.62
668.51	331.35
668.85	330.11
669.19	328.96
669.53	327.72
669.87	326.46
670.21	325.23
670.55	324.01
670.89	322.85
671.23	321.68
671.57	320.51
671.91	319.39
672.25	318.34
672.58	317.28
672.92	316.20
673.26	315.19
673.60	314.19
673.94	313.17
674.28	312.22
674.62	311.26
674.96	310.25
675.30	309.30
675.64	308.35
675.97	307.41
676.31	306.41
676.65	305.47
676.99	304.58
677.33	303.64
677.67	302.74
678.01	301.76
678.34	300.86
678.68	300.02
679.02	299.14
679.36	298.28
679.70	297.41
680.04	296.57
680.37	295.72
680.71	294.91
681.05	294.15
681.39	293.34
681.73	292.51
682.06	291.71
682.40	290.93
682.74	290.16
683.08	289.41
683.42	288.66
683.75	287.98
684.09	287.22
684.43	286.50
684.77	285.77
685.10	285.10
685.44	284.40
685.78	283.69
686.12	283.02
686.45	282.33
686.79	281.65
687.13	280.98
687.46	280.30
687.80	279.64
688.14	278.93
688.48	278.29
688.81	277.64
689.15	277.05
689.49	276.41
689.82	275.79
690.16	275.12
690.50	274.50
690.83	273.87
691.17	273.26
691.51	272.68
691.84	272.11
692.18	271.51
692.52	270.90
692.85	270.31
693.19	269.76
693.52	269.21
693.86	268.67
694.20	268.11
694.53	267.58
694.87	267.04
695.21	266.53
695.54	266.00
695.88	265.47
696.21	264.90
696.55	264.39
696.88	263.87
697.22	263.38
697.56	262.89
697.89	262.35
698.23	261.85
698.56	261.32
698.90	260.83
699.23	260.34
699.57	259.89
699.90	259.42
700.24	258.93
700.58	258.48
700.91	258.05
701.25	257.70
701.58	257.33
701.92	256.92
702.25	256.50
702.59	256.08
702.92	255.67
703.26	255.28
703.59	254.88
703.93	254.56
704.26	254.18
704.60	253.79
704.93	253.43
705.26	253.05
705.60	252.72
705.93	252.35
706.27	252.03
706.60	251.70
706.94	251.37
707.27	251.00
707.61	250.63
707.94	250.26
708.27	249.82
708.61	249.42
708.94	249.07
709.28	248.73
709.61	248.40
709.94	248.10
710.28	247.79
710.61	247.51
710.95	247.11
711.28	246.88
711.61	246.59
711.95	246.33
712.28	246.04
712.61	245.73
712.95	245.51
713.28	245.28
713.61	244.99
713.95	244.70
714.28	244.46
714.61	244.19
714.95	243.94
715.28	243.67
715.61	243.42
715.95	243.19
716.28	242.93
716.61	242.72
716.95	242.47
717.28	242.24
717.61	242.00
717.94	241.77
718.28	241.47
718.61	241.25
718.94	240.99
719.27	240.78
719.61	240.58
719.94	240.33
720.27	240.06
720.60	239.85
720.94	239.64
721.27	239.45
721.60	239.28
721.93	239.08
722.27	238.94
722.60	238.75
722.93	238.54
723.26	238.37
723.59	238.16
723.93	237.99
724.26	237.81
724.59	237.63
724.92	237.47
725.25	237.33
725.59	237.16
725.92	237.02
726.25	236.86
726.58	236.70
726.91	236.53
727.24	236.39
727.57	236.23
727.91	236.06
728.24	235.93
728.57	235.77
728.90	235.63
729.23	235.44
729.56	235.34
729.89	235.20
730.22	235.05
730.55	234.91
730.89	234.76
731.22	234.62
731.55	234.48
731.88	234.34
732.21	234.19
732.54	234.05
732.87	233.92
733.20	233.81
733.53	233.69
733.86	233.57
734.19	233.44
734.52	233.35
734.85	233.30
735.18	233.16
735.51	233.07
735.84	232.96
736.17	232.89
736.50	232.72
736.83	232.73
737.16	232.64
737.49	232.54
737.82	232.44
738.15	232.35
738.48	232.26
738.81	232.16
739.14	232.04
739.47	231.94
739.80	231.83
740.13	231.74
740.46	231.63
740.79	231.52
741.12	231.42
741.45	231.30
741.78	231.15
742.11	231.09
742.44	230.96
742.77	230.89
743.10	230.78
743.43	230.68
743.75	230.48
744.08	230.54
744.41	230.45
744.74	230.35
745.07	230.24
745.40	230.18
745.73	230.14
746.06	230.07
746.39	230.01
746.71	229.92
747.04	229.83
747.37	229.75
747.70	229.69
748.03	229.62
748.36	229.57
748.68	229.50
749.01	229.39
749.34	229.32
749.67	229.25
750.00	229.19
750.33	229.21
750.65	229.15
750.98	228.93
751.31	228.86
751.64	228.81
751.97	228.79
752.29	228.71
752.62	228.59
752.95	228.51
753.28	228.43
753.60	228.36
753.93	228.32
754.26	228.26
754.59	228.17
754.91	228.08
755.24	228.01
755.57	227.98
755.90	227.93
756.22	227.86
756.55	227.78
756.88	227.70
757.20	227.57
757.53	227.48
757.86	227.42
758.19	227.36
758.51	227.30
758.84	227.20
759.17	227.14
759.49	227.09
759.82	227.09
760.15	227.06
760.47	227.01
760.80	226.93
761.13	226.90
761.45	226.86
761.78	226.82
762.11	226.77
762.43	226.67
762.76	226.63
763.08	226.60
763.41	226.56
763.74	226.52
764.06	226.48
764.39	226.45
764.71	226.41
765.04	226.35
765.37	226.30
765.69	226.27
766.02	226.22
766.34	226.18
766.67	226.10
767.00	226.07
767.32	226.09
767.65	226.11
767.97	226.05
768.30	226.02
768.62	225.98
768.95	225.93
769.27	225.89
769.60	225.86
769.92	225.81
770.25	225.75
770.57	225.70
770.90	225.66
771.22	225.61
771.55	225.57
771.87	225.55
772.20	225.51
772.52	225.56
772.85	225.65
773.17	225.62
773.50	225.58
773.82	225.53
774.15	225.45
774.47	225.36
774.80	225.32
775.12	225.30
775.45	225.27
775.77	225.24
776.09	225.22
776.42	225.19
776.74	225.19
777.07	225.16
777.39	225.14
777.72	225.10
778.04	225.09
778.36	225.06
778.69	225.04
779.01	225.03
779.33	224.92
779.66	224.77
779.98	224.74
780.31	224.72
780.63	224.74
780.95	224.73
781.28	224.71
781.60	224.68
781.92	224.66
782.25	224.64
782.57	224.62
782.89	224.59
783.22	224.57
783.54	224.53
783.86	224.52
784.19	224.50
784.51	224.52
784.83	224.48
785.16	224.45
785.48	224.43
785.80	224.41
786.12	224.41
786.45	224.39
786.77	224.38
787.09	224.35
787.42	224.30
787.74	224.29
788.06	224.28
788.38	224.25
788.71	224.22
789.03	224.21
789.35	224.20
789.67	224.18
789.99	224.16
790.32	224.14
790.64	224.14
790.96	224.22
791.28	224.17
791.61	224.15
791.93	224.15
792.25	224.12
792.57	224.18
792.89	224.14
793.21	224.13
793.54	224.11
793.86	224.09
794.18	224.07
794.50	224.04
794.82	224.02
795.14	224.03
795.47	224.03
795.79	224.03
796.11	223.99
796.43	223.97
796.75	223.96
797.07	223.95
797.39	223.93
797.71	223.82
798.04	223.81
798.36	223.81
798.68	223.80
799.00	223.80
799.32	223.74
799.64	223.75
799.96	223.73
800.28	223.74
800.60	223.73
800.92	223.72
801.24	223.70
801.56	223.70
801.89	223.68
802.21	223.67
802.53	223.65
802.85	223.66
803.17	223.70
803.49	223.66
803.81	223.65
804.13	223.63
804.45	223.61
804.77	223.61
805.09	223.60
805.41	223.57
805.73	223.54
806.05	223.50
806.37	223.48
806.69	223.47
807.01	223.45
807.33	223.45
807.65	223.40
807.97	223.44
808.28	223.43
808.60	223.41
808.92	223.39
809.24	223.45
809.56	223.42
809.88	223.38
810.20	223.38
810.52	223.40
810.84	223.37
811.16	223.37
811.48	223.35
811.80	223.38
812.12	223.37
812.43	223.38
812.75	223.38
813.07	223.37
813.39	223.37
813.71	223.35
814.03	223.33
814.35	223.33
814.67	223.28
814.98	223.27
815.30	223.25
815.62	223.23
815.94	223.15
816.26	223.16
816.58	223.12
816.89	223.12
817.21	223.08
817.53	223.09
817.85	223.09
818.17	223.08
818.48	223.03
818.80	223.05
819.12	223.03
819.44	223.02
819.76	223.00
820.07	223.00
820.39	222.99
820.71	222.99
821.03	222.99
821.34	222.97
821.66	222.99
821.98	222.99
822.30	222.98
822.61	223.05
822.93	223.03
823.25	223.03
823.57	223.02
823.88	223.03
824.20	223.02
824.52	223.03
824.83	223.02
825.15	223.02
825.47	223.00
825.79	223.00
826.10	222.99
826.42	222.98
826.74	222.98
827.05	222.98
827.37	222.98
827.69	222.97
828.00	222.98
828.32	222.97
828.64	222.96
828.95	223.01
829.27	222.96
829.58	222.96
829.90	222.97
830.22	222.97
830.53	222.95
830.85	222.93
831.17	222.90
831.48	222.89
831.80	222.88
832.11	222.87
832.43	222.85
832.75	222.85
833.06	222.90
833.38	222.87
833.69	222.86
834.01	222.86
834.32	222.86
834.64	222.84
834.96	222.83
835.27	222.84
835.59	222.80
835.90	222.79
836.22	222.78
836.53	222.76
836.85	222.75
837.16	222.85
837.48	222.86
837.79	222.90
838.11	222.90
838.42	222.91
838.74	222.92
839.05	222.91
839.37	222.91
839.68	222.85
840.00	222.85
840.31	222.87
840.63	222.85
840.94	222.84
841.26	222.83
841.57	222.83
841.88	222.83
842.20	222.81
842.51	222.79
842.83	222.79
843.14	222.88
843.46	222.86
843.77	222.80
844.08	222.79
844.40	222.75
844.71	222.74
845.03	222.73
845.34	222.71
845.65	222.70
845.97	222.70
846.28	222.70
846.60	222.70
846.91	222.68
847.22	222.67
847.54	222.70
847.85	222.70
848.16	222.69
848.48	222.67
848.79	222.71
849.10	222.72
849.42	222.73
849.73	222.63
850.04	222.63
850.36	222.59
850.67	222.60
850.98	222.61
851.30	222.62
851.61	222.62
851.92	222.61
852.23	222.64
852.55	222.64
852.86	222.64
853.17	222.65
853.49	222.67
853.80	222.69
854.11	222.69
854.42	222.70
854.74	222.69
855.05	222.69
855.36	222.63
855.67	222.64
855.99	222.64
856.30	222.76
856.61	222.75
856.92	222.76
857.23	222.76
857.55	222.75
857.86	222.74
858.17	222.75
858.48	222.73
858.79	222.72
859.11	222.72
859.42	222.71
859.73	222.69
860.04	222.67
860.35	222.64
860.66	222.61
860.98	222.61
861.29	222.63
861.60	222.62
861.91	222.65
862.22	222.64
862.53	222.62
862.84	222.50
863.16	222.52
863.47	222.50
863.78	222.48
864.09	222.48
864.40	222.49
864.71	222.49
865.02	222.50
865.33	222.49
865.64	222.47
865.95	222.48
866.27	222.55
866.58	222.54
866.89	222.56
867.20	222.56
867.51	222.54
867.82	222.54
868.13	222.57
868.44	222.55
868.75	222.56
869.06	222.57
869.37	222.58
869.68	222.56
869.99	222.58
870.30	222.59
870.61	222.60
870.92	222.59
871.23	222.58
871.54	222.59
871.85	222.62
872.16	222.63
872.47	222.62
872.78	222.56
873.09	222.57
873.40	222.55
873.71	222.56
874.02	222.57
874.33	222.56
874.64	222.54
874.95	222.55
875.26	222.53
875.56	222.53
875.87	222.53
876.18	222.51
876.49	222.62
876.80	222.61
877.11	222.59
877.42	222.60
877.73	222.60
878.04	222.58
878.35	222.59
878.66	222.59
878.96	222.59
879.27	222.58
879.58	222.58
879.89	222.58
880.20	222.61
880.51	222.60
880.82	222.60
881.12	222.60
881.43	222.58
881.74	222.57
882.05	222.56
882.36	222.57
882.67	222.58
882.97	222.46
883.28	222.46
883.59	222.45
883.90	222.45
884.21	222.47
884.51	222.47
884.82	222.44
885.13	222.44
885.44	222.44
885.74	222.44
886.05	222.44
886.36	222.44
886.67	222.39
886.98	222.45
887.28	222.46
887.59	222.46
887.90	222.46
888.20	222.46
888.51	222.48
888.82	222.45
889.13	222.46
889.43	222.54
889.74	222.53
890.05	222.53
890.35	222.52
890.66	222.50
890.97	222.49
891.28	222.47
891.58	222.47
891.89	222.46
892.20	222.45
892.50	222.44
892.81	222.43
893.12	222.44
893.42	222.38
893.73	222.37
894.04	222.37
894.34	222.37
894.65	222.38
894.95	222.36
895.26	222.38
895.57	222.42
895.87	222.32
896.18	222.33
896.48	222.34
896.79	222.34
897.10	222.35
897.40	222.35
897.71	222.36
898.01	222.35
898.32	222.36
898.63	222.36
898.93	222.37
899.24	222.38
899.54	222.37
899.85	222.36
900.15	222.36
900.46	222.36
900.76	222.37
901.07	222.36
901.38	222.36
901.68	222.36
901.99	222.31
902.29	222.32
902.60	222.31
902.90	222.30
903.21	222.29
903.51	222.29
903.82	222.30
904.12	222.31
904.43	222.31
904.73	222.31
905.03	222.32
905.34	222.42
905.64	222.41
905.95	222.41
906.25	222.41
906.56	222.41
906.86	222.40
907.17	222.39
907.47	222.40
907.77	222.40
908.08	222.38
908.38	222.39
908.69	222.40
908.99	222.42
909.30	222.43
909.60	222.43
909.90	222.44
910.21	222.42
910.51	222.41
910.81	222.41
911.12	222.41
911.42	222.41
911.73	222.30
912.03	222.32
912.33	222.34
912.64	222.32
912.94	222.31
913.24	222.31
913.55	222.30
913.85	222.29
914.15	222.31
914.46	222.33
914.76	222.31
915.06	222.31
915.37	222.29
915.67	222.28
915.97	222.28
916.27	222.25
916.58	222.26
916.88	222.25
917.18	222.24
917.49	222.31
917.79	222.31
918.09	222.32
918.39	222.35
918.70	222.34
919.00	222.35
919.30	222.40
919.60	222.40
919.91	222.39
920.21	222.40
920.51	222.38
920.81	222.37
921.12	222.39
921.42	222.38
921.72	222.40
922.02	222.40
922.32	222.42
922.63	222.43
922.93	222.48
923.23	222.48
923.53	222.47
923.83	222.41
924.13	222.42
924.44	222.41
924.74	222.42
925.04	222.43
925.34	222.44
925.64	222.39
925.94	222.39
926.24	222.44
926.55	222.43
926.85	222.43
927.15	222.43
927.45	222.42
927.75	222.42
928.05	222.41
928.35	222.41
928.65	222.41
928.95	222.42
929.26	222.38
929.56	222.40
929.86	222.41
930.16	222.40
930.46	222.39
930.76	222.39
931.06	222.34
931.36	222.32
931.66	222.32
931.96	222.33
932.26	222.34
932.56	222.30
932.86	222.30
933.16	222.30
933.46	222.29
933.76	222.28
934.06	222.30
934.36	222.33
934.66	222.32
934.96	222.31
935.26	222.31
935.56	222.32
935.86	222.29
936.16	222.27
936.46	222.27
936.76	222.26
937.06	222.24
937.36	222.26
937.66	222.26
937.96	222.26
938.26	222.25
938.56	222.24
938.86	222.24
939.16	222.26
939.46	222.27
939.76	222.28
940.06	222.27
940.35	222.25
940.65	222.20
940.95	222.21
941.25	222.18
941.55	222.18
941.85	222.17
942.15	222.20
942.45	222.23
942.75	222.23
943.04	222.23
943.34	222.26
943.64	222.24
943.94	222.22
944.24	222.21
944.54	222.22
944.84	222.21
945.13	222.20
945.43	222.18
945.73	222.17
946.03	222.16
946.33	222.16
946.62	222.15
946.92	222.14
947.22	222.15
947.52	222.16
947.82	222.17
948.11	222.15
948.41	222.13
948.71	222.10
949.01	222.10
949.31	222.09
949.60	222.08
949.90	222.11
950.20	222.10
950.50	222.10
950.79	222.09
951.09	222.11
951.39	222.11
951.69	222.10
951.98	222.11
952.28	222.13
952.58	222.13
952.87	222.12
953.17	222.14
953.47	222.13
953.76	222.13
954.06	222.10
954.36	222.09
954.66	222.10
954.95	222.13
955.25	222.13
955.55	222.14
955.84	222.13
956.14	222.13
956.44	222.14
956.73	222.13
957.03	222.14
957.32	222.14
957.62	222.14
957.92	222.15
958.21	222.14
958.51	222.26
958.81	222.27
959.10	222.28
959.40	222.30
959.69	222.31
959.99	222.32
960.29	222.33
960.58	222.32
960.88	222.36
961.17	222.34
961.47	222.35
961.76	222.34
962.06	222.36
962.36	222.34
962.65	222.34
962.95	222.35
963.24	222.34
963.54	222.34
963.83	222.35
964.13	222.35
964.42	222.34
964.72	222.25
965.01	222.25
965.31	222.24
965.60	222.21
965.90	222.27
966.19	222.25
966.49	222.26
966.78	222.25
967.08	222.24
967.37	222.25
967.67	222.22
967.96	222.24
968.26	222.24
968.55	222.26
968.85	222.26
969.14	222.25
969.43	222.25
969.73	222.24
970.02	222.23
970.32	222.22
970.61	222.20
970.91	222.17
971.20	222.16
971.49	222.15
971.79	222.16
972.08	222.09
972.38	222.10
972.67	222.10
972.96	222.12
973.26	222.10
973.55	222.12
973.85	222.12
974.14	222.10
974.43	222.11
974.73	222.08
975.02	222.07
975.31	222.06
975.61	222.07
975.90	222.06
976.19	222.06
976.49	222.07
976.78	222.08
977.07	222.07
977.37	222.09
977.66	222.10
977.95	222.09
978.24	222.10
978.54	222.12
978.83	222.11
979.12	222.10
979.42	222.10
979.71	222.08
980.00	222.08
980.29	222.09
980.59	222.07
980.88	222.10
981.17	222.10
981.46	222.10
981.76	222.10
982.05	222.13
982.34	222.13
982.63	222.13
982.93	222.14
983.22	222.16
983.51	222.17
983.80	222.18
984.09	222.19
984.39	222.18
984.68	222.17
984.97	222.17
985.26	222.16
985.55	222.17
985.85	222.16
986.14	222.17
986.43	222.17
986.72	222.17
987.01	222.14
987.30	222.14
987.59	222.14
987.89	222.14
988.18	222.10
988.47	222.10
988.76	222.08
989.05	222.07
989.34	222.06
989.63	222.08
989.92	222.06
990.22	222.05
990.51	222.05
990.80	222.04
991.09	222.05
991.38	222.06
991.67	222.05
991.96	222.04
992.25	222.04
992.54	222.02
992.83	222.03
993.12	222.02
993.41	222.04
993.70	222.08
993.99	222.10
994.28	222.12
994.58	222.14
994.87	222.13
995.16	222.13
995.45	222.12
995.74	222.08
996.03	222.09
996.32	222.11
996.61	222.14
996.90	222.13
997.19	222.12
997.48	222.13
997.77	222.13
998.06	222.13
998.34	222.12
998.63	222.13
998.92	222.13
999.21	222.15
999.50	222.15
999.79	222.11
1000.08	222.11
1000.37	222.10
1000.66	222.09
1000.95	222.11
1001.24	222.11
1001.53	222.12
1001.82	222.12
1002.11	222.10
1002.40	222.10
1002.68	222.12
1002.97	222.19
1003.26	222.18
1003.55	222.16
1003.84	222.16
1004.13	222.20
1004.42	222.19
1004.71	222.18
1004.99	222.18
1005.28	222.19
1005.57	222.18
1005.86	222.17
1006.15	222.16
1006.44	222.14
1006.72	222.15
1007.01	222.13
1007.30	222.13
1007.59	222.12
1007.88	222.13
1008.17	222.13
1008.45	222.11
1008.74	222.06
1009.03	222.01
1009.32	222.01
1009.60	222.01
1009.89	222.00
1010.18	221.96
1010.47	221.95
1010.76	221.96
1011.04	221.96
1011.33	221.96
1011.62	221.97
1011.91	221.98
1012.19	221.98
1012.48	221.99
1012.77	221.99
1013.05	222.03
1013.34	222.03
1013.63	222.03
1013.92	222.04
1014.20	222.03
1014.49	222.04
1014.78	222.05
1015.06	222.03
1015.35	222.03
1015.64	222.04
1015.92	222.06
1016.21	222.07
1016.50	222.07
1016.78	222.08
1017.07	222.08
1017.36	222.07
1017.64	222.05
1017.93	222.06
1018.22	222.06
1018.50	222.05
1018.79	222.05
1019.08	222.01
1019.36	222.01
1019.65	222.00
1019.93	222.02
1020.22	222.04
1020.51	222.09
1020.79	222.09
1021.08	221.96
1021.36	221.84
1021.65	222.09
1021.94	221.86
1022.22	222.12
1022.51	221.77
1022.79	222.55
1023.08	222.24
1023.36	223.33
1023.65	221.83
>>>>>End Processed Spectral Data<<<<<
