SpectraSuite Data File
++++++++++++++++++++++++++++++++++++
Date: Thu Oct 01 04:52:43 EDT 2015
User: lab3
Dark Spectrum Present: No
Reference Spectrum Present: No
Number of Sampled Component Spectra: 1
Spectrometers: USB2E7196
Integration Time (usec): 36000 (USB2E7196)
Spectra Averaged: 10000 (USB2E7196)
Boxcar Smoothing: 10 (USB2E7196)
Correct for Electrical Dark: No (USB2E7196)
Strobe/Lamp Enabled: No (USB2E7196)
Correct for Detector Non-linearity: No (USB2E7196)
Correct for Stray Light: No (USB2E7196)
Number of Pixels in Processed Spectrum: 2048
>>>>>Begin Processed Spectral Data<<<<<
339.09	0.00
339.48	209.96
339.86	211.47
340.24	212.86
340.63	214.26
341.01	217.22
341.39	216.99
341.78	218.32
342.16	219.48
342.54	219.96
342.93	208.58
343.31	219.12
343.69	219.66
344.07	220.12
344.46	220.55
344.84	220.93
345.22	221.17
345.60	221.42
345.99	221.62
346.37	221.75
346.75	221.86
347.13	221.94
347.52	222.01
347.90	222.09
348.28	222.13
348.66	222.19
349.05	222.19
349.43	222.24
349.81	222.29
350.19	222.35
350.57	222.41
350.96	222.49
351.34	222.59
351.72	222.68
352.10	222.78
352.48	222.86
352.87	222.91
353.25	222.98
353.63	223.04
354.01	223.10
354.39	223.18
354.77	223.25
355.15	223.35
355.54	223.41
355.92	223.44
356.30	223.52
356.68	223.66
357.06	223.73
357.44	223.78
357.82	223.85
358.20	223.96
358.58	224.02
358.97	224.08
359.35	224.16
359.73	224.25
360.11	224.30
360.49	224.36
360.87	224.41
361.25	224.47
361.63	224.55
362.01	224.61
362.39	224.64
362.77	224.68
363.15	224.71
363.53	224.74
363.91	224.77
364.29	224.80
364.67	224.72
365.05	224.74
365.43	224.78
365.81	224.80
366.19	224.82
366.57	224.87
366.95	224.87
367.33	224.85
367.71	224.84
368.09	224.86
368.47	224.85
368.85	224.84
369.23	224.85
369.61	224.80
369.99	224.81
370.37	224.81
370.75	224.87
371.13	224.84
371.51	224.80
371.89	224.78
372.27	224.75
372.65	224.73
373.03	224.69
373.41	224.65
373.78	224.60
374.16	224.50
374.54	224.42
374.92	224.37
375.30	224.33
375.68	224.26
376.06	224.21
376.44	224.16
376.82	224.11
377.19	224.06
377.57	224.01
377.95	223.92
378.33	223.86
378.71	223.71
379.09	223.66
379.47	223.63
379.84	223.56
380.22	223.50
380.60	223.43
380.98	223.38
381.36	223.32
381.73	223.26
382.11	223.23
382.49	223.19
382.87	223.13
383.25	223.09
383.62	223.16
384.00	223.10
384.38	223.06
384.76	223.03
385.13	223.02
385.51	222.98
385.89	222.93
386.27	222.89
386.64	222.88
387.02	222.83
387.40	222.79
387.78	222.76
388.15	222.73
388.53	222.70
388.91	222.67
389.29	222.63
389.66	222.62
390.04	222.58
390.42	222.58
390.79	222.56
391.17	222.54
391.55	222.41
391.92	222.39
392.30	222.39
392.68	222.35
393.05	222.34
393.43	222.33
393.81	222.34
394.18	222.32
394.56	222.32
394.94	222.34
395.31	222.34
395.69	222.38
396.06	222.40
396.44	222.43
396.82	222.44
397.19	222.51
397.57	222.53
397.95	222.57
398.32	222.57
398.70	222.61
399.07	222.66
399.45	222.70
399.82	222.74
400.20	222.77
400.58	222.83
400.95	222.84
401.33	222.92
401.70	223.06
402.08	223.15
402.45	223.23
402.83	223.33
403.20	223.43
403.58	223.51
403.95	223.64
404.33	223.77
404.71	223.90
405.08	224.08
405.46	224.22
405.83	224.38
406.21	224.56
406.58	224.75
406.96	224.94
407.33	225.16
407.70	225.40
408.08	225.74
408.45	226.03
408.83	226.34
409.20	226.62
409.58	226.88
409.95	227.23
410.33	227.60
410.70	227.95
411.08	228.37
411.45	228.82
411.82	229.27
412.20	229.78
412.57	230.39
412.95	230.87
413.32	231.49
413.69	232.13
414.07	232.81
414.44	233.55
414.82	234.31
415.19	235.20
415.56	236.10
415.94	237.03
416.31	238.08
416.68	239.13
417.06	240.35
417.43	241.49
417.81	242.81
418.18	244.15
418.55	245.62
418.93	247.15
419.30	248.74
419.67	250.44
420.04	252.17
420.42	254.00
420.79	256.10
421.16	258.23
421.54	260.39
421.91	262.65
422.28	264.99
422.66	267.52
423.03	269.92
423.40	272.46
423.77	275.17
424.15	277.94
424.52	280.83
424.89	283.96
425.26	287.06
425.64	289.94
426.01	293.19
426.38	296.50
426.75	299.91
427.13	303.41
427.50	307.06
427.87	310.86
428.24	314.68
428.61	318.34
428.99	322.28
429.36	326.61
429.73	330.75
430.10	334.87
430.47	339.08
430.85	343.41
431.22	348.02
431.59	352.74
431.96	357.35
432.33	362.45
432.70	367.28
433.08	372.99
433.45	378.40
433.82	383.70
434.19	389.63
434.56	395.46
434.93	401.08
435.30	406.63
435.68	412.89
436.05	419.01
436.42	425.13
436.79	430.71
437.16	436.73
437.53	443.18
437.90	449.63
438.27	455.92
438.64	462.77
439.01	468.97
439.38	474.63
439.75	480.10
440.13	486.35
440.50	492.32
440.87	497.03
441.24	502.20
441.61	507.91
441.98	512.10
442.35	517.09
442.72	522.22
443.09	527.13
443.46	530.34
443.83	532.73
444.20	534.76
444.57	537.70
444.94	539.51
445.31	541.37
445.68	543.04
446.05	544.33
446.42	544.28
446.79	544.13
447.16	544.03
447.53	543.97
447.90	542.24
448.27	540.61
448.64	537.98
449.01	536.28
449.37	532.46
449.74	528.98
450.11	524.50
450.48	519.52
450.85	514.51
451.22	510.26
451.59	506.10
451.96	502.33
452.33	496.74
452.70	491.76
453.07	485.68
453.43	479.58
453.80	473.67
454.17	467.99
454.54	462.72
454.91	456.76
455.28	451.14
455.65	445.84
456.02	440.18
456.38	435.63
456.75	429.74
457.12	424.99
457.49	420.19
457.86	415.61
458.23	411.60
458.59	407.15
458.96	402.58
459.33	398.55
459.70	394.44
460.07	391.31
460.43	387.63
460.80	384.17
461.17	381.12
461.54	377.84
461.91	374.77
462.27	371.65
462.64	369.09
463.01	366.17
463.38	363.22
463.74	360.55
464.11	358.18
464.48	356.03
464.85	353.73
465.21	351.96
465.58	350.02
465.95	347.77
466.32	345.97
466.68	344.22
467.05	342.46
467.42	340.77
467.78	338.93
468.15	337.24
468.52	335.99
468.88	334.34
469.25	332.83
469.62	331.64
469.98	330.33
470.35	329.18
470.72	328.14
471.08	327.09
471.45	326.21
471.82	325.24
472.18	324.24
472.55	323.59
472.92	322.79
473.28	322.16
473.65	321.52
474.02	320.91
474.38	320.41
474.75	320.14
475.11	319.71
475.48	319.56
475.85	319.40
476.21	319.35
476.58	319.36
476.94	319.56
477.31	319.68
477.67	319.84
478.04	320.11
478.41	320.45
478.77	320.92
479.14	321.26
479.50	321.82
479.87	322.52
480.23	323.22
480.60	323.89
480.96	324.60
481.33	325.56
481.69	326.52
482.06	327.48
482.42	328.38
482.79	329.47
483.15	330.71
483.52	332.10
483.88	333.45
484.25	334.88
484.61	336.37
484.98	337.97
485.34	339.77
485.71	341.63
486.07	343.61
486.44	345.59
486.80	347.79
487.17	350.03
487.53	352.50
487.90	355.07
488.26	357.84
488.62	360.77
488.99	363.71
489.35	366.78
489.72	370.10
490.08	373.58
490.44	377.16
490.81	380.90
491.17	384.74
491.54	388.83
491.90	393.03
492.26	397.54
492.63	402.30
492.99	407.24
493.36	412.32
493.72	417.66
494.08	423.14
494.45	428.93
494.81	434.94
495.17	441.06
495.54	447.53
495.90	454.32
496.26	461.24
496.63	468.41
496.99	475.85
497.35	483.66
497.72	491.78
498.08	500.05
498.44	508.58
498.80	517.67
499.17	527.00
499.53	536.66
499.89	546.55
500.26	556.61
500.62	566.94
500.98	577.95
501.34	589.11
501.71	600.81
502.07	612.72
502.43	625.03
502.79	637.71
503.16	650.77
503.52	664.04
503.88	677.66
504.24	691.71
504.60	706.07
504.97	720.81
505.33	735.93
505.69	751.95
506.05	768.19
506.41	784.42
506.78	800.96
507.14	817.96
507.50	835.59
507.86	853.59
508.22	871.86
508.59	890.16
508.95	909.18
509.31	928.64
509.67	948.79
510.03	969.17
510.39	989.76
510.75	1010.59
511.12	1031.70
511.48	1053.16
511.84	1074.69
512.20	1096.53
512.56	1119.46
512.92	1142.63
513.28	1165.52
513.64	1188.69
514.00	1212.29
514.37	1236.23
514.73	1260.19
515.09	1283.94
515.45	1308.13
515.81	1332.88
516.17	1357.71
516.53	1382.19
516.89	1406.74
517.25	1431.46
517.61	1456.37
517.97	1481.47
518.33	1506.30
518.69	1531.29
519.05	1556.53
519.41	1581.91
519.77	1607.55
520.13	1632.41
520.49	1657.41
520.85	1682.62
521.21	1707.78
521.57	1733.52
521.93	1758.52
522.29	1784.39
522.65	1809.98
523.01	1835.35
523.37	1860.00
523.73	1885.24
524.09	1910.66
524.45	1936.00
524.81	1960.87
525.17	1985.65
525.53	2009.99
525.89	2034.36
526.25	2058.92
526.61	2082.92
526.97	2107.23
527.33	2131.44
527.68	2155.53
528.04	2178.74
528.40	2201.81
528.76	2225.07
529.12	2247.25
529.48	2269.81
529.84	2290.52
530.20	2311.83
530.56	2332.80
530.91	2353.79
531.27	2374.31
531.63	2394.18
531.99	2413.51
532.35	2432.47
532.71	2451.53
533.07	2471.23
533.42	2489.31
533.78	2507.86
534.14	2526.36
534.50	2544.00
534.86	2562.30
535.21	2578.67
535.57	2595.07
535.93	2610.65
536.29	2625.06
536.65	2640.28
537.00	2654.39
537.36	2669.02
537.72	2682.56
538.08	2695.78
538.44	2707.85
538.79	2720.11
539.15	2730.74
539.51	2741.33
539.87	2751.60
540.22	2759.76
540.58	2767.90
540.94	2776.71
541.29	2783.89
541.65	2790.12
542.01	2795.86
542.37	2799.71
542.72	2805.47
543.08	2810.69
543.44	2815.84
543.79	2820.10
544.15	2823.55
544.51	2826.92
544.87	2829.42
545.22	2831.48
545.58	2832.61
545.94	2834.19
546.29	2834.30
546.65	2834.58
547.01	2834.83
547.36	2835.22
547.72	2835.74
548.07	2834.86
548.43	2833.28
548.79	2831.05
549.14	2828.90
549.50	2827.30
549.86	2824.94
550.21	2820.11
550.57	2815.71
550.92	2809.90
551.28	2804.70
551.64	2799.38
551.99	2794.52
552.35	2789.22
552.70	2783.51
553.06	2778.48
553.41	2773.00
553.77	2767.02
554.13	2761.61
554.48	2755.39
554.84	2747.48
555.19	2739.69
555.55	2731.33
555.90	2723.53
556.26	2716.80
556.61	2709.44
556.97	2699.91
557.32	2691.20
557.68	2683.00
558.03	2674.08
558.39	2665.86
558.74	2657.83
559.10	2648.51
559.45	2638.89
559.81	2629.60
560.16	2619.66
560.52	2609.24
560.87	2599.83
561.23	2590.06
561.58	2579.77
561.94	2569.21
562.29	2558.17
562.64	2547.78
563.00	2537.75
563.35	2527.58
563.71	2516.53
564.06	2504.87
564.42	2494.28
564.77	2483.29
565.12	2472.43
565.48	2461.29
565.83	2450.80
566.19	2440.30
566.54	2429.51
566.89	2417.74
567.25	2405.95
567.60	2395.01
567.96	2383.67
568.31	2370.88
568.66	2358.02
569.02	2346.22
569.37	2334.22
569.72	2322.69
570.08	2310.44
570.43	2297.64
570.78	2284.58
571.14	2271.27
571.49	2258.83
571.84	2246.62
572.20	2233.12
572.55	2220.01
572.90	2206.83
573.26	2192.77
573.61	2178.13
573.96	2163.74
574.31	2149.76
574.67	2135.97
575.02	2121.73
575.37	2107.06
575.72	2092.69
576.08	2078.93
576.43	2064.15
576.78	2049.38
577.13	2035.49
577.49	2021.63
577.84	2008.14
578.19	1993.79
578.54	1979.09
578.90	1963.85
579.25	1948.36
579.60	1934.31
579.95	1919.85
580.30	1905.43
580.66	1891.30
581.01	1876.76
581.36	1862.59
581.71	1848.97
582.06	1834.90
582.42	1820.85
582.77	1807.60
583.12	1794.01
583.47	1780.41
583.82	1766.95
584.17	1753.40
584.53	1739.64
584.88	1725.88
585.23	1711.81
585.58	1698.25
585.93	1685.14
586.28	1672.83
586.63	1660.38
586.98	1647.20
587.34	1634.28
587.69	1620.83
588.04	1607.59
588.39	1595.09
588.74	1582.11
589.09	1568.84
589.44	1555.52
589.79	1542.81
590.14	1529.93
590.49	1517.28
590.84	1504.51
591.19	1492.41
591.54	1479.77
591.89	1467.00
592.25	1454.60
592.60	1441.77
592.95	1429.49
593.30	1417.48
593.65	1405.28
594.00	1393.24
594.35	1382.05
594.70	1370.01
595.05	1359.10
595.40	1348.02
595.75	1336.32
596.10	1325.40
596.45	1314.68
596.80	1304.44
597.15	1294.00
597.50	1283.56
597.85	1273.29
598.19	1263.22
598.54	1252.53
598.89	1242.61
599.24	1233.02
599.59	1223.17
599.94	1214.33
600.29	1205.40
600.64	1196.24
600.99	1186.52
601.34	1177.26
601.69	1167.39
602.04	1158.60
602.39	1149.60
602.74	1140.88
603.08	1132.40
603.43	1123.41
603.78	1114.34
604.13	1105.42
604.48	1096.41
604.83	1087.68
605.18	1078.85
605.53	1069.97
605.87	1061.24
606.22	1052.76
606.57	1043.99
606.92	1035.32
607.27	1026.55
607.62	1017.84
607.96	1009.33
608.31	1001.77
608.66	993.79
609.01	986.25
609.36	978.65
609.70	970.85
610.05	962.87
610.40	955.24
610.75	947.75
611.10	940.53
611.44	932.90
611.79	925.59
612.14	917.91
612.49	910.37
612.83	903.30
613.18	896.29
613.53	889.08
613.88	881.95
614.22	875.41
614.57	868.71
614.92	861.98
615.27	855.29
615.61	848.47
615.96	841.87
616.31	835.19
616.65	828.41
617.00	821.86
617.35	815.46
617.70	809.08
618.04	802.76
618.39	796.47
618.74	790.52
619.08	784.38
619.43	778.51
619.78	772.67
620.12	766.61
620.47	760.73
620.82	754.91
621.16	749.44
621.51	743.61
621.85	737.78
622.20	731.99
622.55	726.38
622.89	720.72
623.24	715.10
623.59	709.56
623.93	704.07
624.28	698.72
624.62	693.36
624.97	687.98
625.32	682.72
625.66	677.33
626.01	671.93
626.35	666.67
626.70	661.43
627.04	656.37
627.39	651.37
627.73	646.49
628.08	641.83
628.43	637.06
628.77	632.34
629.12	627.75
629.46	623.36
629.81	618.77
630.15	614.07
630.50	609.53
630.84	605.17
631.19	601.00
631.53	596.88
631.88	592.63
632.22	588.49
632.57	584.58
632.91	580.62
633.26	576.75
633.60	572.95
633.95	569.25
634.29	565.42
634.64	561.55
634.98	557.59
635.32	553.79
635.67	550.11
636.01	546.38
636.36	542.69
636.70	539.14
637.05	535.58
637.39	532.23
637.73	528.75
638.08	525.33
638.42	521.89
638.77	518.30
639.11	514.74
639.45	511.20
639.80	507.63
640.14	504.27
640.49	500.87
640.83	497.36
641.17	493.89
641.52	490.59
641.86	487.28
642.20	484.13
642.55	480.84
642.89	477.62
643.23	474.60
643.58	471.81
643.92	468.91
644.26	466.04
644.61	463.15
644.95	460.28
645.29	457.36
645.64	454.40
645.98	451.58
646.32	448.92
646.66	446.28
647.01	443.61
647.35	441.00
647.69	438.27
648.04	435.67
648.38	433.13
648.72	430.53
649.06	428.01
649.41	425.52
649.75	423.02
650.09	420.55
650.43	418.09
650.78	415.60
651.12	413.11
651.46	410.72
651.80	408.42
652.14	406.19
652.49	403.97
652.83	401.81
653.17	399.64
653.51	397.54
653.85	395.49
654.20	393.39
654.54	391.19
654.88	389.20
655.22	387.27
655.56	385.30
655.90	383.42
656.25	381.56
656.59	379.69
656.93	377.93
657.27	376.20
657.61	374.38
657.95	372.61
658.29	370.85
658.64	369.13
658.98	367.37
659.32	365.65
659.66	364.03
660.00	362.43
660.34	360.85
660.68	359.22
661.02	357.53
661.36	355.94
661.70	354.43
662.05	352.90
662.39	351.35
662.73	349.90
663.07	348.47
663.41	347.05
663.75	345.67
664.09	344.29
664.43	342.82
664.77	341.46
665.11	340.03
665.45	338.69
665.79	337.34
666.13	335.99
666.47	334.61
666.81	333.22
667.15	331.79
667.49	330.46
667.83	329.18
668.17	327.95
668.51	326.74
668.85	325.54
669.19	324.41
669.53	323.22
669.87	322.00
670.21	320.80
670.55	319.63
670.89	318.52
671.23	317.38
671.57	316.26
671.91	315.20
672.25	314.20
672.58	313.19
672.92	312.14
673.26	311.16
673.60	310.19
673.94	309.21
674.28	308.29
674.62	307.36
674.96	306.39
675.30	305.48
675.64	304.55
675.97	303.63
676.31	302.68
676.65	301.75
676.99	300.89
677.33	299.96
677.67	299.09
678.01	298.14
678.34	297.26
678.68	296.44
679.02	295.58
679.36	294.73
679.70	293.89
680.04	293.07
680.37	292.25
680.71	291.46
681.05	290.72
681.39	289.93
681.73	289.11
682.06	288.32
682.40	287.56
682.74	286.82
683.08	286.10
683.42	285.36
683.75	284.70
684.09	283.95
684.43	283.26
684.77	282.55
685.10	281.90
685.44	281.21
685.78	280.53
686.12	279.88
686.45	279.21
686.79	278.55
687.13	277.91
687.46	277.25
687.80	276.61
688.14	275.92
688.48	275.30
688.81	274.67
689.15	274.10
689.49	273.48
689.82	272.88
690.16	272.22
690.50	271.63
690.83	271.03
691.17	270.45
691.51	269.89
691.84	269.34
692.18	268.77
692.52	268.19
692.85	267.62
693.19	267.10
693.52	266.56
693.86	266.02
694.20	265.49
694.53	265.00
694.87	264.47
695.21	263.99
695.54	263.49
695.88	262.99
696.21	262.45
696.55	261.96
696.88	261.47
697.22	261.00
697.56	260.53
697.89	260.01
698.23	259.52
698.56	259.01
698.90	258.55
699.23	258.08
699.57	257.64
699.90	257.20
700.24	256.73
700.58	256.30
700.91	255.89
701.25	255.56
701.58	255.19
701.92	254.81
702.25	254.41
702.59	254.00
702.92	253.61
703.26	253.23
703.59	252.85
703.93	252.56
704.26	252.20
704.60	251.83
704.93	251.48
705.26	251.13
705.60	250.81
705.93	250.45
706.27	250.15
706.60	249.83
706.94	249.53
707.27	249.17
707.61	248.83
707.94	248.47
708.27	248.05
708.61	247.68
708.94	247.34
709.28	247.01
709.61	246.70
709.94	246.41
710.28	246.12
710.61	245.84
710.95	245.47
711.28	245.26
711.61	244.98
711.95	244.73
712.28	244.45
712.61	244.17
712.95	243.96
713.28	243.74
713.61	243.46
713.95	243.18
714.28	242.95
714.61	242.70
714.95	242.46
715.28	242.21
715.61	241.97
715.95	241.75
716.28	241.51
716.61	241.31
716.95	241.07
717.28	240.85
717.61	240.62
717.94	240.41
718.28	240.12
718.61	239.90
718.94	239.67
719.27	239.46
719.61	239.27
719.94	239.04
720.27	238.79
720.60	238.59
720.94	238.40
721.27	238.22
721.60	238.06
721.93	237.87
722.27	237.73
722.60	237.56
722.93	237.37
723.26	237.21
723.59	237.01
723.93	236.85
724.26	236.69
724.59	236.52
724.92	236.37
725.25	236.24
725.59	236.08
725.92	235.95
726.25	235.80
726.58	235.65
726.91	235.48
727.24	235.35
727.57	235.20
727.91	235.04
728.24	234.91
728.57	234.76
728.90	234.63
729.23	234.46
729.56	234.37
729.89	234.23
730.22	234.09
730.55	233.96
730.89	233.82
731.22	233.68
731.55	233.56
731.88	233.43
732.21	233.28
732.54	233.16
732.87	233.05
733.20	232.94
733.53	232.82
733.86	232.72
734.19	232.59
734.52	232.50
734.85	232.46
735.18	232.33
735.51	232.26
735.84	232.15
736.17	232.07
736.50	231.91
736.83	231.93
737.16	231.84
737.49	231.75
737.82	231.65
738.15	231.58
738.48	231.48
738.81	231.38
739.14	231.27
739.47	231.17
739.80	231.06
740.13	230.97
740.46	230.86
740.79	230.75
741.12	230.66
741.45	230.56
741.78	230.41
742.11	230.35
742.44	230.24
742.77	230.16
743.10	230.06
743.43	229.96
743.75	229.77
744.08	229.84
744.41	229.75
744.74	229.66
745.07	229.55
745.40	229.49
745.73	229.46
746.06	229.39
746.39	229.33
746.71	229.25
747.04	229.16
747.37	229.08
747.70	229.04
748.03	228.97
748.36	228.91
748.68	228.84
749.01	228.74
749.34	228.67
749.67	228.60
750.00	228.55
750.33	228.57
750.65	228.51
750.98	228.29
751.31	228.23
751.64	228.18
751.97	228.18
752.29	228.10
752.62	227.99
752.95	227.92
753.28	227.84
753.60	227.77
753.93	227.74
754.26	227.68
754.59	227.57
754.91	227.50
755.24	227.42
755.57	227.41
755.90	227.35
756.22	227.28
756.55	227.19
756.88	227.11
757.20	226.98
757.53	226.90
757.86	226.84
758.19	226.79
758.51	226.73
758.84	226.62
759.17	226.55
759.49	226.51
759.82	226.51
760.15	226.47
760.47	226.41
760.80	226.33
761.13	226.30
761.45	226.26
761.78	226.22
762.11	226.18
762.43	226.08
762.76	226.04
763.08	226.01
763.41	225.97
763.74	225.93
764.06	225.88
764.39	225.84
764.71	225.80
765.04	225.75
765.37	225.70
765.69	225.66
766.02	225.62
766.34	225.57
766.67	225.49
767.00	225.47
767.32	225.49
767.65	225.52
767.97	225.47
768.30	225.44
768.62	225.40
768.95	225.35
769.27	225.31
769.60	225.29
769.92	225.23
770.25	225.18
770.57	225.13
770.90	225.09
771.22	225.05
771.55	225.02
771.87	225.00
772.20	224.96
772.52	225.02
772.85	225.12
773.17	225.09
773.50	225.05
773.82	225.00
774.15	224.92
774.47	224.83
774.80	224.79
775.12	224.76
775.45	224.73
775.77	224.72
776.09	224.70
776.42	224.68
776.74	224.68
777.07	224.66
777.39	224.64
777.72	224.61
778.04	224.60
778.36	224.57
778.69	224.55
779.01	224.53
779.33	224.41
779.66	224.27
779.98	224.24
780.31	224.22
780.63	224.24
780.95	224.24
781.28	224.22
781.60	224.19
781.92	224.17
782.25	224.14
782.57	224.12
782.89	224.09
783.22	224.06
783.54	224.02
783.86	224.01
784.19	223.99
784.51	224.00
784.83	223.96
785.16	223.95
785.48	223.93
785.80	223.91
786.12	223.90
786.45	223.88
786.77	223.87
787.09	223.85
787.42	223.80
787.74	223.78
788.06	223.77
788.38	223.75
788.71	223.73
789.03	223.72
789.35	223.71
789.67	223.69
789.99	223.68
790.32	223.66
790.64	223.65
790.96	223.74
791.28	223.69
791.61	223.67
791.93	223.67
792.25	223.65
792.57	223.70
792.89	223.67
793.21	223.67
793.54	223.65
793.86	223.62
794.18	223.61
794.50	223.58
794.82	223.56
795.14	223.57
795.47	223.57
795.79	223.56
796.11	223.53
796.43	223.51
796.75	223.50
797.07	223.49
797.39	223.47
797.71	223.36
798.04	223.36
798.36	223.36
798.68	223.34
799.00	223.34
799.32	223.27
799.64	223.28
799.96	223.27
800.28	223.28
800.60	223.26
800.92	223.25
801.24	223.24
801.56	223.24
801.89	223.22
802.21	223.21
802.53	223.18
802.85	223.19
803.17	223.24
803.49	223.21
803.81	223.19
804.13	223.17
804.45	223.15
804.77	223.15
805.09	223.13
805.41	223.12
805.73	223.09
806.05	223.05
806.37	223.04
806.69	223.02
807.01	223.00
807.33	223.00
807.65	222.96
807.97	223.00
808.28	222.97
808.60	222.96
808.92	222.94
809.24	222.99
809.56	222.96
809.88	222.92
810.20	222.92
810.52	222.93
810.84	222.92
811.16	222.90
811.48	222.88
811.80	222.92
812.12	222.91
812.43	222.93
812.75	222.93
813.07	222.91
813.39	222.91
813.71	222.89
814.03	222.88
814.35	222.88
814.67	222.83
814.98	222.82
815.30	222.81
815.62	222.79
815.94	222.72
816.26	222.73
816.58	222.70
816.89	222.70
817.21	222.67
817.53	222.68
817.85	222.67
818.17	222.66
818.48	222.62
818.80	222.63
819.12	222.61
819.44	222.58
819.76	222.57
820.07	222.56
820.39	222.55
820.71	222.56
821.03	222.55
821.34	222.54
821.66	222.55
821.98	222.55
822.30	222.55
822.61	222.61
822.93	222.58
823.25	222.58
823.57	222.56
823.88	222.57
824.20	222.56
824.52	222.58
824.83	222.57
825.15	222.56
825.47	222.54
825.79	222.55
826.10	222.54
826.42	222.54
826.74	222.54
827.05	222.54
827.37	222.54
827.69	222.52
828.00	222.52
828.32	222.52
828.64	222.51
828.95	222.56
829.27	222.52
829.58	222.52
829.90	222.54
830.22	222.54
830.53	222.52
830.85	222.51
831.17	222.48
831.48	222.47
831.80	222.48
832.11	222.47
832.43	222.45
832.75	222.45
833.06	222.51
833.38	222.48
833.69	222.48
834.01	222.48
834.32	222.48
834.64	222.47
834.96	222.46
835.27	222.45
835.59	222.41
835.90	222.40
836.22	222.39
836.53	222.36
836.85	222.35
837.16	222.45
837.48	222.45
837.79	222.48
838.11	222.48
838.42	222.48
838.74	222.48
839.05	222.48
839.37	222.47
839.68	222.40
840.00	222.40
840.31	222.42
840.63	222.40
840.94	222.39
841.26	222.38
841.57	222.37
841.88	222.38
842.20	222.36
842.51	222.34
842.83	222.34
843.14	222.43
843.46	222.43
843.77	222.37
844.08	222.36
844.40	222.32
844.71	222.31
845.03	222.30
845.34	222.29
845.65	222.28
845.97	222.28
846.28	222.29
846.60	222.29
846.91	222.27
847.22	222.27
847.54	222.29
847.85	222.29
848.16	222.28
848.48	222.26
848.79	222.30
849.10	222.31
849.42	222.32
849.73	222.22
850.04	222.22
850.36	222.18
850.67	222.20
850.98	222.20
851.30	222.21
851.61	222.20
851.92	222.20
852.23	222.23
852.55	222.24
852.86	222.24
853.17	222.24
853.49	222.26
853.80	222.29
854.11	222.29
854.42	222.30
854.74	222.30
855.05	222.30
855.36	222.24
855.67	222.24
855.99	222.24
856.30	222.36
856.61	222.36
856.92	222.36
857.23	222.36
857.55	222.35
857.86	222.34
858.17	222.36
858.48	222.34
858.79	222.31
859.11	222.32
859.42	222.32
859.73	222.30
860.04	222.30
860.35	222.26
860.66	222.23
860.98	222.22
861.29	222.23
861.60	222.23
861.91	222.25
862.22	222.24
862.53	222.22
862.84	222.10
863.16	222.12
863.47	222.10
863.78	222.09
864.09	222.10
864.40	222.11
864.71	222.10
865.02	222.12
865.33	222.10
865.64	222.09
865.95	222.09
866.27	222.15
866.58	222.14
866.89	222.15
867.20	222.15
867.51	222.13
867.82	222.13
868.13	222.16
868.44	222.14
868.75	222.16
869.06	222.16
869.37	222.17
869.68	222.14
869.99	222.16
870.30	222.17
870.61	222.18
870.92	222.16
871.23	222.16
871.54	222.17
871.85	222.19
872.16	222.20
872.47	222.20
872.78	222.14
873.09	222.15
873.40	222.14
873.71	222.15
874.02	222.15
874.33	222.15
874.64	222.12
874.95	222.14
875.26	222.11
875.56	222.11
875.87	222.11
876.18	222.10
876.49	222.20
876.80	222.19
877.11	222.16
877.42	222.17
877.73	222.17
878.04	222.15
878.35	222.15
878.66	222.15
878.96	222.15
879.27	222.14
879.58	222.14
879.89	222.13
880.20	222.16
880.51	222.15
880.82	222.15
881.12	222.16
881.43	222.13
881.74	222.12
882.05	222.12
882.36	222.12
882.67	222.12
882.97	222.01
883.28	222.00
883.59	222.00
883.90	222.01
884.21	222.02
884.51	222.01
884.82	221.99
885.13	221.99
885.44	221.98
885.74	221.99
886.05	221.98
886.36	221.98
886.67	221.95
886.98	222.00
887.28	222.00
887.59	222.00
887.90	222.01
888.20	222.01
888.51	222.03
888.82	222.02
889.13	222.03
889.43	222.12
889.74	222.11
890.05	222.11
890.35	222.10
890.66	222.08
890.97	222.07
891.28	222.07
891.58	222.07
891.89	222.06
892.20	222.05
892.50	222.04
892.81	222.03
893.12	222.03
893.42	221.98
893.73	221.98
894.04	221.98
894.34	221.98
894.65	221.98
894.95	221.96
895.26	221.97
895.57	222.01
895.87	221.91
896.18	221.92
896.48	221.93
896.79	221.93
897.10	221.93
897.40	221.94
897.71	221.95
898.01	221.94
898.32	221.96
898.63	221.96
898.93	221.97
899.24	221.97
899.54	221.96
899.85	221.96
900.15	221.95
900.46	221.95
900.76	221.96
901.07	221.96
901.38	221.96
901.68	221.97
901.99	221.91
902.29	221.92
902.60	221.91
902.90	221.91
903.21	221.90
903.51	221.90
903.82	221.92
904.12	221.92
904.43	221.93
904.73	221.92
905.03	221.92
905.34	222.02
905.64	222.01
905.95	222.02
906.25	222.01
906.56	222.01
906.86	222.01
907.17	222.00
907.47	222.00
907.77	221.99
908.08	221.97
908.38	221.97
908.69	221.98
908.99	222.00
909.30	222.00
909.60	222.00
909.90	222.00
910.21	221.97
910.51	221.95
910.81	221.95
911.12	221.96
911.42	221.96
911.73	221.85
912.03	221.86
912.33	221.88
912.64	221.87
912.94	221.86
913.24	221.85
913.55	221.83
913.85	221.82
914.15	221.85
914.46	221.86
914.76	221.86
915.06	221.85
915.37	221.83
915.67	221.82
915.97	221.82
916.27	221.80
916.58	221.81
916.88	221.81
917.18	221.79
917.49	221.86
917.79	221.85
918.09	221.87
918.39	221.90
918.70	221.89
919.00	221.89
919.30	221.95
919.60	221.94
919.91	221.94
920.21	221.94
920.51	221.92
920.81	221.91
921.12	221.93
921.42	221.92
921.72	221.92
922.02	221.93
922.32	221.95
922.63	221.95
922.93	222.01
923.23	222.02
923.53	222.01
923.83	221.93
924.13	221.94
924.44	221.94
924.74	221.95
925.04	221.97
925.34	221.97
925.64	221.92
925.94	221.92
926.24	221.98
926.55	221.97
926.85	221.98
927.15	221.98
927.45	221.97
927.75	221.97
928.05	221.98
928.35	221.97
928.65	221.98
928.95	221.98
929.26	221.93
929.56	221.95
929.86	221.97
930.16	221.96
930.46	221.95
930.76	221.95
931.06	221.90
931.36	221.88
931.66	221.89
931.96	221.90
932.26	221.91
932.56	221.86
932.86	221.87
933.16	221.87
933.46	221.86
933.76	221.84
934.06	221.86
934.36	221.89
934.66	221.88
934.96	221.87
935.26	221.87
935.56	221.88
935.86	221.86
936.16	221.84
936.46	221.83
936.76	221.83
937.06	221.81
937.36	221.82
937.66	221.82
937.96	221.82
938.26	221.80
938.56	221.79
938.86	221.79
939.16	221.82
939.46	221.82
939.76	221.83
940.06	221.83
940.35	221.81
940.65	221.76
940.95	221.77
941.25	221.75
941.55	221.74
941.85	221.73
942.15	221.75
942.45	221.78
942.75	221.78
943.04	221.78
943.34	221.81
943.64	221.80
943.94	221.78
944.24	221.78
944.54	221.79
944.84	221.79
945.13	221.77
945.43	221.75
945.73	221.75
946.03	221.74
946.33	221.73
946.62	221.73
946.92	221.72
947.22	221.73
947.52	221.74
947.82	221.75
948.11	221.74
948.41	221.72
948.71	221.69
949.01	221.70
949.31	221.69
949.60	221.68
949.90	221.70
950.20	221.70
950.50	221.69
950.79	221.68
951.09	221.70
951.39	221.70
951.69	221.69
951.98	221.71
952.28	221.72
952.58	221.71
952.87	221.72
953.17	221.73
953.47	221.71
953.76	221.71
954.06	221.69
954.36	221.68
954.66	221.68
954.95	221.71
955.25	221.72
955.55	221.73
955.84	221.72
956.14	221.72
956.44	221.73
956.73	221.72
957.03	221.73
957.32	221.72
957.62	221.72
957.92	221.74
958.21	221.73
958.51	221.84
958.81	221.86
959.10	221.87
959.40	221.89
959.69	221.90
959.99	221.91
960.29	221.92
960.58	221.91
960.88	221.95
961.17	221.93
961.47	221.94
961.76	221.93
962.06	221.95
962.36	221.93
962.65	221.94
962.95	221.94
963.24	221.93
963.54	221.93
963.83	221.94
964.13	221.94
964.42	221.93
964.72	221.84
965.01	221.83
965.31	221.83
965.60	221.80
965.90	221.86
966.19	221.83
966.49	221.84
966.78	221.84
967.08	221.83
967.37	221.82
967.67	221.80
967.96	221.82
968.26	221.81
968.55	221.83
968.85	221.82
969.14	221.82
969.43	221.82
969.73	221.81
970.02	221.80
970.32	221.79
970.61	221.78
970.91	221.75
971.20	221.73
971.49	221.72
971.79	221.74
972.08	221.66
972.38	221.68
972.67	221.67
972.96	221.68
973.26	221.66
973.55	221.69
973.85	221.69
974.14	221.68
974.43	221.69
974.73	221.67
975.02	221.66
975.31	221.66
975.61	221.66
975.90	221.65
976.19	221.65
976.49	221.65
976.78	221.66
977.07	221.66
977.37	221.67
977.66	221.68
977.95	221.66
978.24	221.68
978.54	221.70
978.83	221.69
979.12	221.69
979.42	221.69
979.71	221.67
980.00	221.66
980.29	221.67
980.59	221.65
980.88	221.67
981.17	221.67
981.46	221.67
981.76	221.68
982.05	221.71
982.34	221.71
982.63	221.72
982.93	221.72
983.22	221.74
983.51	221.75
983.80	221.76
984.09	221.77
984.39	221.76
984.68	221.74
984.97	221.75
985.26	221.74
985.55	221.75
985.85	221.73
986.14	221.75
986.43	221.75
986.72	221.75
987.01	221.72
987.30	221.72
987.59	221.71
987.89	221.71
988.18	221.68
988.47	221.67
988.76	221.66
989.05	221.65
989.34	221.63
989.63	221.66
989.92	221.64
990.22	221.63
990.51	221.63
990.80	221.62
991.09	221.63
991.38	221.64
991.67	221.63
991.96	221.63
992.25	221.63
992.54	221.61
992.83	221.61
993.12	221.61
993.41	221.63
993.70	221.68
993.99	221.69
994.28	221.70
994.58	221.72
994.87	221.71
995.16	221.71
995.45	221.70
995.74	221.66
996.03	221.67
996.32	221.69
996.61	221.71
996.90	221.71
997.19	221.70
997.48	221.70
997.77	221.68
998.06	221.69
998.34	221.68
998.63	221.68
998.92	221.68
999.21	221.70
999.50	221.69
999.79	221.66
1000.08	221.65
1000.37	221.65
1000.66	221.64
1000.95	221.66
1001.24	221.66
1001.53	221.68
1001.82	221.67
1002.11	221.65
1002.40	221.66
1002.68	221.68
1002.97	221.75
1003.26	221.74
1003.55	221.73
1003.84	221.74
1004.13	221.77
1004.42	221.77
1004.71	221.77
1004.99	221.76
1005.28	221.78
1005.57	221.78
1005.86	221.77
1006.15	221.76
1006.44	221.74
1006.72	221.75
1007.01	221.74
1007.30	221.74
1007.59	221.72
1007.88	221.72
1008.17	221.73
1008.45	221.71
1008.74	221.67
1009.03	221.62
1009.32	221.62
1009.60	221.62
1009.89	221.60
1010.18	221.56
1010.47	221.55
1010.76	221.55
1011.04	221.55
1011.33	221.54
1011.62	221.55
1011.91	221.55
1012.19	221.56
1012.48	221.56
1012.77	221.56
1013.05	221.59
1013.34	221.59
1013.63	221.59
1013.92	221.60
1014.20	221.59
1014.49	221.59
1014.78	221.61
1015.06	221.57
1015.35	221.57
1015.64	221.59
1015.92	221.61
1016.21	221.62
1016.50	221.62
1016.78	221.64
1017.07	221.65
1017.36	221.63
1017.64	221.62
1017.93	221.63
1018.22	221.62
1018.50	221.62
1018.79	221.61
1019.08	221.58
1019.36	221.59
1019.65	221.58
1019.93	221.61
1020.22	221.63
1020.51	221.68
1020.79	221.67
1021.08	221.48
1021.36	221.49
1021.65	221.62
1021.94	221.56
1022.22	221.69
1022.51	221.43
1022.79	222.13
1023.08	221.73
1023.36	222.91
1023.65	221.36
>>>>>End Processed Spectral Data<<<<<
