SpectraSuite Data File
++++++++++++++++++++++++++++++++++++
Date: Thu Oct 01 03:51:17 EDT 2015
User: lab3
Dark Spectrum Present: No
Reference Spectrum Present: No
Number of Sampled Component Spectra: 1
Spectrometers: USB2E7196
Integration Time (usec): 36000 (USB2E7196)
Spectra Averaged: 10000 (USB2E7196)
Boxcar Smoothing: 10 (USB2E7196)
Correct for Electrical Dark: No (USB2E7196)
Strobe/Lamp Enabled: No (USB2E7196)
Correct for Detector Non-linearity: No (USB2E7196)
Correct for Stray Light: No (USB2E7196)
Number of Pixels in Processed Spectrum: 2048
>>>>>Begin Processed Spectral Data<<<<<
339.09	0.00
339.48	211.22
339.86	212.66
340.24	214.01
340.63	215.46
341.01	218.39
341.39	218.11
341.78	219.55
342.16	220.67
342.54	221.13
342.93	209.72
343.31	220.32
343.69	220.86
344.07	221.32
344.46	221.75
344.84	222.13
345.22	222.37
345.60	222.63
345.99	222.82
346.37	222.96
346.75	223.07
347.13	223.14
347.52	223.21
347.90	223.30
348.28	223.33
348.66	223.39
349.05	223.39
349.43	223.43
349.81	223.49
350.19	223.55
350.57	223.61
350.96	223.70
351.34	223.79
351.72	223.88
352.10	223.98
352.48	224.06
352.87	224.11
353.25	224.18
353.63	224.24
354.01	224.31
354.39	224.38
354.77	224.46
355.15	224.56
355.54	224.62
355.92	224.66
356.30	224.74
356.68	224.87
357.06	224.95
357.44	225.01
357.82	225.06
358.20	225.18
358.58	225.25
358.97	225.31
359.35	225.39
359.73	225.47
360.11	225.53
360.49	225.59
360.87	225.64
361.25	225.70
361.63	225.78
362.01	225.83
362.39	225.86
362.77	225.91
363.15	225.93
363.53	225.96
363.91	226.00
364.29	226.02
364.67	225.95
365.05	225.97
365.43	226.01
365.81	226.03
366.19	226.05
366.57	226.09
366.95	226.10
367.33	226.07
367.71	226.07
368.09	226.08
368.47	226.07
368.85	226.06
369.23	226.07
369.61	226.02
369.99	226.03
370.37	226.03
370.75	226.09
371.13	226.06
371.51	226.02
371.89	226.00
372.27	225.98
372.65	225.95
373.03	225.91
373.41	225.86
373.78	225.82
374.16	225.72
374.54	225.65
374.92	225.60
375.30	225.55
375.68	225.49
376.06	225.44
376.44	225.39
376.82	225.34
377.19	225.29
377.57	225.24
377.95	225.15
378.33	225.09
378.71	224.95
379.09	224.90
379.47	224.87
379.84	224.80
380.22	224.74
380.60	224.67
380.98	224.62
381.36	224.56
381.73	224.50
382.11	224.47
382.49	224.43
382.87	224.37
383.25	224.32
383.62	224.40
384.00	224.33
384.38	224.29
384.76	224.27
385.13	224.25
385.51	224.21
385.89	224.16
386.27	224.12
386.64	224.10
387.02	224.04
387.40	224.00
387.78	223.97
388.15	223.94
388.53	223.91
388.91	223.88
389.29	223.85
389.66	223.84
390.04	223.80
390.42	223.79
390.79	223.78
391.17	223.76
391.55	223.63
391.92	223.61
392.30	223.62
392.68	223.58
393.05	223.56
393.43	223.56
393.81	223.57
394.18	223.55
394.56	223.56
394.94	223.58
395.31	223.58
395.69	223.62
396.06	223.65
396.44	223.67
396.82	223.68
397.19	223.75
397.57	223.76
397.95	223.80
398.32	223.80
398.70	223.84
399.07	223.90
399.45	223.93
399.82	223.98
400.20	224.01
400.58	224.06
400.95	224.08
401.33	224.15
401.70	224.28
402.08	224.37
402.45	224.45
402.83	224.55
403.20	224.65
403.58	224.74
403.95	224.86
404.33	224.99
404.71	225.12
405.08	225.30
405.46	225.44
405.83	225.60
406.21	225.77
406.58	225.97
406.96	226.16
407.33	226.37
407.70	226.61
408.08	226.94
408.45	227.22
408.83	227.53
409.20	227.82
409.58	228.07
409.95	228.42
410.33	228.80
410.70	229.15
411.08	229.58
411.45	230.02
411.82	230.47
412.20	230.98
412.57	231.58
412.95	232.06
413.32	232.69
413.69	233.33
414.07	234.01
414.44	234.74
414.82	235.50
415.19	236.39
415.56	237.28
415.94	238.21
416.31	239.26
416.68	240.30
417.06	241.52
417.43	242.66
417.81	243.97
418.18	245.31
418.55	246.77
418.93	248.29
419.30	249.89
419.67	251.58
420.04	253.32
420.42	255.15
420.79	257.25
421.16	259.37
421.54	261.53
421.91	263.79
422.28	266.13
422.66	268.66
423.03	271.06
423.40	273.59
423.77	276.30
424.15	279.09
424.52	281.97
424.89	285.10
425.26	288.21
425.64	291.10
426.01	294.33
426.38	297.65
426.75	301.06
427.13	304.55
427.50	308.20
427.87	312.00
428.24	315.83
428.61	319.49
428.99	323.44
429.36	327.78
429.73	331.92
430.10	336.05
430.47	340.26
430.85	344.60
431.22	349.22
431.59	353.97
431.96	358.58
432.33	363.69
432.70	368.53
433.08	374.26
433.45	379.67
433.82	385.00
434.19	390.94
434.56	396.78
434.93	402.41
435.30	407.98
435.68	414.25
436.05	420.39
436.42	426.52
436.79	432.10
437.16	438.13
437.53	444.59
437.90	451.05
438.27	457.35
438.64	464.20
439.01	470.40
439.38	476.05
439.75	481.53
440.13	487.78
440.50	493.73
440.87	498.42
441.24	503.58
441.61	509.28
441.98	513.46
442.35	518.43
442.72	523.54
443.09	528.42
443.46	531.58
443.83	533.94
444.20	535.94
444.57	538.86
444.94	540.61
445.31	542.43
445.68	544.05
446.05	545.30
446.42	545.20
446.79	544.99
447.16	544.84
447.53	544.73
447.90	542.94
448.27	541.28
448.64	538.61
449.01	536.85
449.37	532.98
449.74	529.47
450.11	524.94
450.48	519.93
450.85	514.90
451.22	510.62
451.59	506.43
451.96	502.62
452.33	497.01
452.70	492.02
453.07	485.93
453.43	479.82
453.80	473.90
454.17	468.21
454.54	462.94
454.91	456.97
455.28	451.36
455.65	446.06
456.02	440.41
456.38	435.86
456.75	429.99
457.12	425.25
457.49	420.46
457.86	415.89
458.23	411.89
458.59	407.46
458.96	402.90
459.33	398.88
459.70	394.79
460.07	391.67
460.43	388.00
460.80	384.56
461.17	381.53
461.54	378.25
461.91	375.20
462.27	372.10
462.64	369.56
463.01	366.65
463.38	363.71
463.74	361.06
464.11	358.69
464.48	356.56
464.85	354.27
465.21	352.51
465.58	350.58
465.95	348.35
466.32	346.57
466.68	344.82
467.05	343.07
467.42	341.38
467.78	339.56
468.15	337.87
468.52	336.62
468.88	334.99
469.25	333.49
469.62	332.30
469.98	331.01
470.35	329.87
470.72	328.83
471.08	327.78
471.45	326.91
471.82	325.95
472.18	324.95
472.55	324.30
472.92	323.51
473.28	322.88
473.65	322.24
474.02	321.63
474.38	321.14
474.75	320.87
475.11	320.46
475.48	320.30
475.85	320.15
476.21	320.10
476.58	320.11
476.94	320.30
477.31	320.43
477.67	320.59
478.04	320.86
478.41	321.21
478.77	321.68
479.14	322.02
479.50	322.59
479.87	323.29
480.23	323.99
480.60	324.66
480.96	325.36
481.33	326.33
481.69	327.30
482.06	328.25
482.42	329.16
482.79	330.24
483.15	331.48
483.52	332.86
483.88	334.21
484.25	335.64
484.61	337.13
484.98	338.73
485.34	340.53
485.71	342.40
486.07	344.38
486.44	346.35
486.80	348.53
487.17	350.78
487.53	353.24
487.90	355.81
488.26	358.59
488.62	361.53
488.99	364.46
489.35	367.53
489.72	370.85
490.08	374.34
490.44	377.93
490.81	381.67
491.17	385.51
491.54	389.61
491.90	393.81
492.26	398.34
492.63	403.11
492.99	408.05
493.36	413.12
493.72	418.47
494.08	423.95
494.45	429.75
494.81	435.75
495.17	441.88
495.54	448.35
495.90	455.13
496.26	462.05
496.63	469.21
496.99	476.66
497.35	484.49
497.72	492.59
498.08	500.85
498.44	509.39
498.80	518.48
499.17	527.79
499.53	537.44
499.89	547.31
500.26	557.36
500.62	567.69
500.98	578.71
501.34	589.87
501.71	601.58
502.07	613.50
502.43	625.83
502.79	638.49
503.16	651.58
503.52	664.84
503.88	678.48
504.24	692.55
504.60	706.88
504.97	721.62
505.33	736.74
505.69	752.78
506.05	769.00
506.41	785.23
506.78	801.77
507.14	818.78
507.50	836.40
507.86	854.41
508.22	872.69
508.59	891.00
508.95	910.02
509.31	929.48
509.67	949.66
510.03	970.04
510.39	990.61
510.75	1011.43
511.12	1032.57
511.48	1053.99
511.84	1075.53
512.20	1097.42
512.56	1120.38
512.92	1143.53
513.28	1166.38
513.64	1189.58
514.00	1213.19
514.37	1237.10
514.73	1261.09
515.09	1284.86
515.45	1309.07
515.81	1333.84
516.17	1358.62
516.53	1383.10
516.89	1407.65
517.25	1432.38
517.61	1457.30
517.97	1482.44
518.33	1507.30
518.69	1532.27
519.05	1557.55
519.41	1582.94
519.77	1608.57
520.13	1633.44
520.49	1658.47
520.85	1683.74
521.21	1708.90
521.57	1734.66
521.93	1759.73
522.29	1785.60
522.65	1811.21
523.01	1836.62
523.37	1861.25
523.73	1886.57
524.09	1912.07
524.45	1937.45
524.81	1962.33
525.17	1987.12
525.53	2011.48
525.89	2035.87
526.25	2060.48
526.61	2084.55
526.97	2108.88
527.33	2133.18
527.68	2157.23
528.04	2180.52
528.40	2203.61
528.76	2226.89
529.12	2249.12
529.48	2271.72
529.84	2292.48
530.20	2313.80
530.56	2334.73
530.91	2355.77
531.27	2376.32
531.63	2396.18
531.99	2415.50
532.35	2434.52
532.71	2453.63
533.07	2473.30
533.42	2491.50
533.78	2510.02
534.14	2528.56
534.50	2546.25
534.86	2564.53
535.21	2580.99
535.57	2597.29
535.93	2612.98
536.29	2627.41
536.65	2642.72
537.00	2656.88
537.36	2671.57
537.72	2685.21
538.08	2698.48
538.44	2710.61
538.79	2722.91
539.15	2733.58
539.51	2744.22
539.87	2754.47
540.22	2762.54
540.58	2770.80
540.94	2779.51
541.29	2786.80
541.65	2793.02
542.01	2798.77
542.37	2802.67
542.72	2808.58
543.08	2813.94
543.44	2819.04
543.79	2823.41
544.15	2826.76
544.51	2830.16
544.87	2832.64
545.22	2834.73
545.58	2835.92
545.94	2837.59
546.29	2837.78
546.65	2837.99
547.01	2838.35
547.36	2838.73
547.72	2839.33
548.07	2838.43
548.43	2836.92
548.79	2834.76
549.14	2832.60
549.50	2831.13
549.86	2828.65
550.21	2823.77
550.57	2819.33
550.92	2813.58
551.28	2808.40
551.64	2803.21
551.99	2798.34
552.35	2793.08
552.70	2787.36
553.06	2782.41
553.41	2776.93
553.77	2770.85
554.13	2765.61
554.48	2759.29
554.84	2751.46
555.19	2743.77
555.55	2735.51
555.90	2727.85
556.26	2721.17
556.61	2713.86
556.97	2704.30
557.32	2695.70
557.68	2687.48
558.03	2678.64
558.39	2670.48
558.74	2662.42
559.10	2653.18
559.45	2643.52
559.81	2634.27
560.16	2624.30
560.52	2613.94
560.87	2604.64
561.23	2594.89
561.58	2584.60
561.94	2574.12
562.29	2563.12
562.64	2552.77
563.00	2542.72
563.35	2532.52
563.71	2521.36
564.06	2509.76
564.42	2499.16
564.77	2488.23
565.12	2477.36
565.48	2466.28
565.83	2455.82
566.19	2445.43
566.54	2434.54
566.89	2422.87
567.25	2411.10
567.60	2400.18
567.96	2388.79
568.31	2375.94
568.66	2363.15
569.02	2351.42
569.37	2339.38
569.72	2327.89
570.08	2315.68
570.43	2302.97
570.78	2289.90
571.14	2276.65
571.49	2264.20
571.84	2252.05
572.20	2238.59
572.55	2225.53
572.90	2212.34
573.26	2198.15
573.61	2183.42
573.96	2169.09
574.31	2155.07
574.67	2141.27
575.02	2127.06
575.37	2112.39
575.72	2098.01
576.08	2084.19
576.43	2069.31
576.78	2054.60
577.13	2040.67
577.49	2026.71
577.84	2013.12
578.19	1998.71
578.54	1983.98
578.90	1968.72
579.25	1953.18
579.60	1939.07
579.95	1924.58
580.30	1910.12
580.66	1896.02
581.01	1881.56
581.36	1867.39
581.71	1853.82
582.06	1839.69
582.42	1825.68
582.77	1812.43
583.12	1798.77
583.47	1785.21
583.82	1771.79
584.17	1758.25
584.53	1744.53
584.88	1730.85
585.23	1716.76
585.58	1703.22
585.93	1690.11
586.28	1677.85
586.63	1665.33
586.98	1652.14
587.34	1639.15
587.69	1625.69
588.04	1612.53
588.39	1599.98
588.74	1586.97
589.09	1573.68
589.44	1560.39
589.79	1547.62
590.14	1534.75
590.49	1522.10
590.84	1509.31
591.19	1497.14
591.54	1484.45
591.89	1471.63
592.25	1459.12
592.60	1446.30
592.95	1434.02
593.30	1422.03
593.65	1409.79
594.00	1397.82
594.35	1386.57
594.70	1374.60
595.05	1363.68
595.40	1352.49
595.75	1340.75
596.10	1329.82
596.45	1319.10
596.80	1308.85
597.15	1298.39
597.50	1287.90
597.85	1277.64
598.19	1267.56
598.54	1256.87
598.89	1246.96
599.24	1237.33
599.59	1227.51
599.94	1218.69
600.29	1209.73
600.64	1200.54
600.99	1190.75
601.34	1181.45
601.69	1171.59
602.04	1162.75
602.39	1153.74
602.74	1145.02
603.08	1136.52
603.43	1127.51
603.78	1118.43
604.13	1109.49
604.48	1100.49
604.83	1091.75
605.18	1082.92
605.53	1074.02
605.87	1065.25
606.22	1056.71
606.57	1047.94
606.92	1039.27
607.27	1030.43
607.62	1021.70
607.96	1013.14
608.31	1005.61
608.66	997.64
609.01	990.09
609.36	982.50
609.70	974.67
610.05	966.68
610.40	959.04
610.75	951.49
611.10	944.22
611.44	936.59
611.79	929.23
612.14	921.51
612.49	913.96
612.83	906.87
613.18	899.84
613.53	892.59
613.88	885.46
614.22	878.90
614.57	872.17
614.92	865.44
615.27	858.74
615.61	851.89
615.96	845.24
616.31	838.53
616.65	831.71
617.00	825.14
617.35	818.74
617.70	812.34
618.04	806.03
618.39	799.71
618.74	793.73
619.08	787.57
619.43	781.67
619.78	775.77
620.12	769.69
620.47	763.81
620.82	758.04
621.16	752.54
621.51	746.68
621.85	740.82
622.20	735.02
622.55	729.40
622.89	723.73
623.24	718.11
623.59	712.55
623.93	707.05
624.28	701.70
624.62	696.31
624.97	690.92
625.32	685.63
625.66	680.21
626.01	674.78
626.35	669.49
626.70	664.25
627.04	659.22
627.39	654.21
627.73	649.31
628.08	644.63
628.43	639.84
628.77	635.11
629.12	630.53
629.46	626.11
629.81	621.48
630.15	616.75
630.50	612.20
630.84	607.84
631.19	603.67
631.53	599.51
631.88	595.27
632.22	591.12
632.57	587.20
632.91	583.24
633.26	579.35
633.60	575.54
633.95	571.82
634.29	567.96
634.64	564.07
634.98	560.10
635.32	556.27
635.67	552.56
636.01	548.81
636.36	545.10
636.70	541.54
637.05	537.99
637.39	534.64
637.73	531.15
638.08	527.72
638.42	524.25
638.77	520.65
639.11	517.05
639.45	513.49
639.80	509.93
640.14	506.56
640.49	503.15
640.83	499.62
641.17	496.15
641.52	492.83
641.86	489.51
642.20	486.37
642.55	483.07
642.89	479.86
643.23	476.83
643.58	474.05
643.92	471.13
644.26	468.24
644.61	465.34
644.95	462.45
645.29	459.50
645.64	456.54
645.98	453.72
646.32	451.07
646.66	448.43
647.01	445.75
647.35	443.11
647.69	440.36
648.04	437.79
648.38	435.23
648.72	432.63
649.06	430.12
649.41	427.60
649.75	425.10
650.09	422.61
650.43	420.15
650.78	417.65
651.12	415.14
651.46	412.75
651.80	410.44
652.14	408.21
652.49	405.99
652.83	403.83
653.17	401.64
653.51	399.52
653.85	397.46
654.20	395.36
654.54	393.17
654.88	391.19
655.22	389.24
655.56	387.25
655.90	385.36
656.25	383.47
656.59	381.60
656.93	379.83
657.27	378.09
657.61	376.25
657.95	374.48
658.29	372.72
658.64	370.98
658.98	369.22
659.32	367.49
659.66	365.86
660.00	364.24
660.34	362.66
660.68	361.03
661.02	359.33
661.36	357.74
661.70	356.22
662.05	354.67
662.39	353.11
662.73	351.66
663.07	350.22
663.41	348.81
663.75	347.42
664.09	346.03
664.43	344.56
664.77	343.19
665.11	341.76
665.45	340.42
665.79	339.07
666.13	337.71
666.47	336.34
666.81	334.93
667.15	333.50
667.49	332.17
667.83	330.89
668.17	329.65
668.51	328.42
668.85	327.22
669.19	326.10
669.53	324.90
669.87	323.67
670.21	322.47
670.55	321.28
670.89	320.17
671.23	319.03
671.57	317.91
671.91	316.84
672.25	315.84
672.58	314.81
672.92	313.76
673.26	312.77
673.60	311.79
673.94	310.80
674.28	309.88
674.62	308.93
674.96	307.96
675.30	307.05
675.64	306.11
675.97	305.18
676.31	304.22
676.65	303.29
676.99	302.42
677.33	301.50
677.67	300.62
678.01	299.67
678.34	298.79
678.68	297.96
679.02	297.10
679.36	296.25
679.70	295.40
680.04	294.58
680.37	293.76
680.71	292.97
681.05	292.22
681.39	291.44
681.73	290.62
682.06	289.84
682.40	289.08
682.74	288.33
683.08	287.61
683.42	286.87
683.75	286.21
684.09	285.46
684.43	284.76
684.77	284.05
685.10	283.39
685.44	282.71
685.78	282.02
686.12	281.37
686.45	280.70
686.79	280.04
687.13	279.40
687.46	278.73
687.80	278.09
688.14	277.40
688.48	276.78
688.81	276.15
689.15	275.58
689.49	274.95
689.82	274.35
690.16	273.70
690.50	273.10
690.83	272.50
691.17	271.92
691.51	271.35
691.84	270.81
692.18	270.22
692.52	269.64
692.85	269.07
693.19	268.54
693.52	268.00
693.86	267.45
694.20	266.93
694.53	266.42
694.87	265.90
695.21	265.41
695.54	264.91
695.88	264.40
696.21	263.86
696.55	263.37
696.88	262.88
697.22	262.40
697.56	261.93
697.89	261.39
698.23	260.91
698.56	260.40
698.90	259.94
699.23	259.47
699.57	259.04
699.90	258.60
700.24	258.12
700.58	257.69
700.91	257.28
701.25	256.94
701.58	256.57
701.92	256.19
702.25	255.79
702.59	255.37
702.92	254.98
703.26	254.60
703.59	254.21
703.93	253.92
704.26	253.56
704.60	253.19
704.93	252.84
705.26	252.48
705.60	252.16
705.93	251.79
706.27	251.49
706.60	251.17
706.94	250.86
707.27	250.50
707.61	250.15
707.94	249.80
708.27	249.38
708.61	249.01
708.94	248.67
709.28	248.35
709.61	248.03
709.94	247.74
710.28	247.45
710.61	247.17
710.95	246.80
711.28	246.59
711.61	246.31
711.95	246.06
712.28	245.78
712.61	245.49
712.95	245.28
713.28	245.06
713.61	244.79
713.95	244.51
714.28	244.28
714.61	244.03
714.95	243.78
715.28	243.53
715.61	243.29
715.95	243.07
716.28	242.83
716.61	242.63
716.95	242.39
717.28	242.17
717.61	241.94
717.94	241.72
718.28	241.42
718.61	241.21
718.94	240.97
719.27	240.77
719.61	240.58
719.94	240.35
720.27	240.09
720.60	239.89
720.94	239.70
721.27	239.51
721.60	239.35
721.93	239.17
722.27	239.02
722.60	238.86
722.93	238.67
723.26	238.50
723.59	238.30
723.93	238.14
724.26	237.98
724.59	237.81
724.92	237.66
725.25	237.53
725.59	237.37
725.92	237.24
726.25	237.08
726.58	236.94
726.91	236.77
727.24	236.64
727.57	236.49
727.91	236.33
728.24	236.20
728.57	236.04
728.90	235.91
729.23	235.74
729.56	235.64
729.89	235.50
730.22	235.36
730.55	235.23
730.89	235.08
731.22	234.94
731.55	234.81
731.88	234.69
732.21	234.54
732.54	234.42
732.87	234.30
733.20	234.19
733.53	234.07
733.86	233.97
734.19	233.84
734.52	233.74
734.85	233.71
735.18	233.57
735.51	233.49
735.84	233.38
736.17	233.31
736.50	233.15
736.83	233.17
737.16	233.07
737.49	232.98
737.82	232.89
738.15	232.81
738.48	232.71
738.81	232.61
739.14	232.50
739.47	232.40
739.80	232.30
740.13	232.21
740.46	232.10
740.79	231.99
741.12	231.90
741.45	231.79
741.78	231.64
742.11	231.58
742.44	231.47
742.77	231.40
743.10	231.29
743.43	231.20
743.75	231.01
744.08	231.08
744.41	230.98
744.74	230.89
745.07	230.78
745.40	230.72
745.73	230.68
746.06	230.61
746.39	230.55
746.71	230.46
747.04	230.38
747.37	230.31
747.70	230.26
748.03	230.19
748.36	230.14
748.68	230.06
749.01	229.96
749.34	229.89
749.67	229.82
750.00	229.77
750.33	229.78
750.65	229.72
750.98	229.51
751.31	229.45
751.64	229.39
751.97	229.39
752.29	229.31
752.62	229.20
752.95	229.13
753.28	229.05
753.60	228.99
753.93	228.95
754.26	228.90
754.59	228.80
754.91	228.72
755.24	228.65
755.57	228.63
755.90	228.57
756.22	228.50
756.55	228.43
756.88	228.35
757.20	228.22
757.53	228.13
757.86	228.07
758.19	228.03
758.51	227.98
758.84	227.87
759.17	227.80
759.49	227.76
759.82	227.76
760.15	227.73
760.47	227.67
760.80	227.60
761.13	227.56
761.45	227.52
761.78	227.48
762.11	227.43
762.43	227.34
762.76	227.29
763.08	227.26
763.41	227.22
763.74	227.19
764.06	227.14
764.39	227.10
764.71	227.06
765.04	227.00
765.37	226.95
765.69	226.92
766.02	226.88
766.34	226.82
766.67	226.74
767.00	226.72
767.32	226.73
767.65	226.76
767.97	226.71
768.30	226.68
768.62	226.64
768.95	226.60
769.27	226.56
769.60	226.53
769.92	226.48
770.25	226.43
770.57	226.38
770.90	226.34
771.22	226.30
771.55	226.27
771.87	226.25
772.20	226.21
772.52	226.27
772.85	226.36
773.17	226.33
773.50	226.29
773.82	226.25
774.15	226.16
774.47	226.07
774.80	226.02
775.12	225.99
775.45	225.96
775.77	225.94
776.09	225.92
776.42	225.89
776.74	225.89
777.07	225.86
777.39	225.84
777.72	225.81
778.04	225.80
778.36	225.76
778.69	225.74
779.01	225.72
779.33	225.61
779.66	225.47
779.98	225.44
780.31	225.42
780.63	225.44
780.95	225.44
781.28	225.41
781.60	225.39
781.92	225.37
782.25	225.35
782.57	225.33
782.89	225.30
783.22	225.27
783.54	225.23
783.86	225.22
784.19	225.20
784.51	225.21
784.83	225.18
785.16	225.16
785.48	225.14
785.80	225.11
786.12	225.11
786.45	225.09
786.77	225.08
787.09	225.06
787.42	225.01
787.74	225.00
788.06	224.99
788.38	224.97
788.71	224.95
789.03	224.94
789.35	224.94
789.67	224.91
789.99	224.90
790.32	224.88
790.64	224.87
790.96	224.96
791.28	224.91
791.61	224.89
791.93	224.89
792.25	224.87
792.57	224.93
792.89	224.90
793.21	224.89
793.54	224.87
793.86	224.85
794.18	224.84
794.50	224.80
794.82	224.79
795.14	224.78
795.47	224.78
795.79	224.77
796.11	224.73
796.43	224.72
796.75	224.71
797.07	224.70
797.39	224.68
797.71	224.59
798.04	224.58
798.36	224.58
798.68	224.56
799.00	224.55
799.32	224.49
799.64	224.50
799.96	224.48
800.28	224.49
800.60	224.48
800.92	224.48
801.24	224.46
801.56	224.46
801.89	224.44
802.21	224.44
802.53	224.41
802.85	224.42
803.17	224.46
803.49	224.43
803.81	224.42
804.13	224.40
804.45	224.38
804.77	224.37
805.09	224.37
805.41	224.35
805.73	224.32
806.05	224.28
806.37	224.27
806.69	224.24
807.01	224.22
807.33	224.22
807.65	224.17
807.97	224.21
808.28	224.19
808.60	224.18
808.92	224.16
809.24	224.21
809.56	224.19
809.88	224.14
810.20	224.14
810.52	224.16
810.84	224.14
811.16	224.12
811.48	224.10
811.80	224.13
812.12	224.12
812.43	224.14
812.75	224.14
813.07	224.12
813.39	224.12
813.71	224.10
814.03	224.09
814.35	224.09
814.67	224.04
814.98	224.03
815.30	224.02
815.62	224.00
815.94	223.93
816.26	223.93
816.58	223.91
816.89	223.91
817.21	223.88
817.53	223.88
817.85	223.88
818.17	223.87
818.48	223.82
818.80	223.84
819.12	223.81
819.44	223.79
819.76	223.78
820.07	223.77
820.39	223.77
820.71	223.78
821.03	223.77
821.34	223.76
821.66	223.77
821.98	223.78
822.30	223.77
822.61	223.83
822.93	223.81
823.25	223.80
823.57	223.79
823.88	223.80
824.20	223.79
824.52	223.81
824.83	223.80
825.15	223.79
825.47	223.78
825.79	223.78
826.10	223.78
826.42	223.77
826.74	223.77
827.05	223.77
827.37	223.77
827.69	223.76
828.00	223.76
828.32	223.75
828.64	223.73
828.95	223.79
829.27	223.75
829.58	223.75
829.90	223.76
830.22	223.77
830.53	223.74
830.85	223.73
831.17	223.71
831.48	223.70
831.80	223.70
832.11	223.70
832.43	223.68
832.75	223.68
833.06	223.74
833.38	223.71
833.69	223.70
834.01	223.70
834.32	223.70
834.64	223.69
834.96	223.68
835.27	223.69
835.59	223.65
835.90	223.63
836.22	223.62
836.53	223.60
836.85	223.59
837.16	223.69
837.48	223.69
837.79	223.71
838.11	223.72
838.42	223.71
838.74	223.72
839.05	223.71
839.37	223.71
839.68	223.65
840.00	223.64
840.31	223.65
840.63	223.64
840.94	223.62
841.26	223.61
841.57	223.61
841.88	223.61
842.20	223.60
842.51	223.58
842.83	223.58
843.14	223.67
843.46	223.66
843.77	223.60
844.08	223.59
844.40	223.56
844.71	223.55
845.03	223.54
845.34	223.53
845.65	223.52
845.97	223.52
846.28	223.52
846.60	223.53
846.91	223.51
847.22	223.50
847.54	223.53
847.85	223.53
848.16	223.52
848.48	223.50
848.79	223.53
849.10	223.55
849.42	223.55
849.73	223.45
850.04	223.45
850.36	223.42
850.67	223.43
850.98	223.44
851.30	223.44
851.61	223.44
851.92	223.44
852.23	223.47
852.55	223.47
852.86	223.47
853.17	223.48
853.49	223.50
853.80	223.52
854.11	223.52
854.42	223.54
854.74	223.53
855.05	223.53
855.36	223.48
855.67	223.47
855.99	223.47
856.30	223.59
856.61	223.59
856.92	223.60
857.23	223.60
857.55	223.58
857.86	223.57
858.17	223.59
858.48	223.58
858.79	223.55
859.11	223.56
859.42	223.55
859.73	223.54
860.04	223.53
860.35	223.50
860.66	223.47
860.98	223.47
861.29	223.48
861.60	223.47
861.91	223.50
862.22	223.48
862.53	223.46
862.84	223.34
863.16	223.36
863.47	223.34
863.78	223.33
864.09	223.34
864.40	223.34
864.71	223.34
865.02	223.35
865.33	223.34
865.64	223.32
865.95	223.32
866.27	223.39
866.58	223.37
866.89	223.38
867.20	223.39
867.51	223.37
867.82	223.36
868.13	223.39
868.44	223.37
868.75	223.39
869.06	223.40
869.37	223.40
869.68	223.38
869.99	223.40
870.30	223.40
870.61	223.41
870.92	223.40
871.23	223.39
871.54	223.40
871.85	223.43
872.16	223.44
872.47	223.43
872.78	223.37
873.09	223.38
873.40	223.37
873.71	223.38
874.02	223.39
874.33	223.38
874.64	223.35
874.95	223.37
875.26	223.35
875.56	223.34
875.87	223.34
876.18	223.33
876.49	223.43
876.80	223.42
877.11	223.40
877.42	223.41
877.73	223.41
878.04	223.39
878.35	223.38
878.66	223.38
878.96	223.38
879.27	223.38
879.58	223.37
879.89	223.36
880.20	223.39
880.51	223.38
880.82	223.38
881.12	223.39
881.43	223.37
881.74	223.35
882.05	223.35
882.36	223.35
882.67	223.36
882.97	223.25
883.28	223.24
883.59	223.24
883.90	223.24
884.21	223.26
884.51	223.25
884.82	223.24
885.13	223.23
885.44	223.23
885.74	223.23
886.05	223.22
886.36	223.22
886.67	223.18
886.98	223.23
887.28	223.24
887.59	223.24
887.90	223.24
888.20	223.24
888.51	223.26
888.82	223.24
889.13	223.25
889.43	223.34
889.74	223.33
890.05	223.33
890.35	223.31
890.66	223.29
890.97	223.28
891.28	223.27
891.58	223.27
891.89	223.27
892.20	223.26
892.50	223.25
892.81	223.24
893.12	223.24
893.42	223.19
893.73	223.19
894.04	223.19
894.34	223.19
894.65	223.19
894.95	223.17
895.26	223.18
895.57	223.22
895.87	223.12
896.18	223.14
896.48	223.14
896.79	223.14
897.10	223.15
897.40	223.16
897.71	223.17
898.01	223.16
898.32	223.17
898.63	223.17
898.93	223.18
899.24	223.18
899.54	223.18
899.85	223.17
900.15	223.17
900.46	223.16
900.76	223.17
901.07	223.17
901.38	223.17
901.68	223.18
901.99	223.12
902.29	223.13
902.60	223.12
902.90	223.12
903.21	223.11
903.51	223.11
903.82	223.13
904.12	223.13
904.43	223.13
904.73	223.13
905.03	223.13
905.34	223.23
905.64	223.22
905.95	223.22
906.25	223.22
906.56	223.22
906.86	223.22
907.17	223.20
907.47	223.21
907.77	223.20
908.08	223.18
908.38	223.19
908.69	223.20
908.99	223.21
909.30	223.22
909.60	223.22
909.90	223.22
910.21	223.19
910.51	223.18
910.81	223.18
911.12	223.19
911.42	223.19
911.73	223.08
912.03	223.09
912.33	223.12
912.64	223.11
912.94	223.10
913.24	223.08
913.55	223.07
913.85	223.07
914.15	223.09
914.46	223.10
914.76	223.08
915.06	223.08
915.37	223.06
915.67	223.05
915.97	223.05
916.27	223.03
916.58	223.03
916.88	223.03
917.18	223.02
917.49	223.09
917.79	223.08
918.09	223.10
918.39	223.12
918.70	223.11
919.00	223.12
919.30	223.17
919.60	223.17
919.91	223.16
920.21	223.17
920.51	223.14
920.81	223.14
921.12	223.15
921.42	223.15
921.72	223.16
922.02	223.17
922.32	223.18
922.63	223.18
922.93	223.24
923.23	223.24
923.53	223.24
923.83	223.17
924.13	223.18
924.44	223.17
924.74	223.19
925.04	223.21
925.34	223.20
925.64	223.16
925.94	223.16
926.24	223.21
926.55	223.21
926.85	223.22
927.15	223.22
927.45	223.21
927.75	223.21
928.05	223.21
928.35	223.20
928.65	223.21
928.95	223.22
929.26	223.17
929.56	223.19
929.86	223.20
930.16	223.19
930.46	223.18
930.76	223.18
931.06	223.13
931.36	223.10
931.66	223.12
931.96	223.13
932.26	223.13
932.56	223.09
932.86	223.10
933.16	223.10
933.46	223.09
933.76	223.07
934.06	223.10
934.36	223.13
934.66	223.12
934.96	223.11
935.26	223.11
935.56	223.12
935.86	223.09
936.16	223.07
936.46	223.07
936.76	223.06
937.06	223.05
937.36	223.06
937.66	223.06
937.96	223.05
938.26	223.03
938.56	223.02
938.86	223.03
939.16	223.05
939.46	223.05
939.76	223.06
940.06	223.06
940.35	223.04
940.65	222.99
940.95	223.00
941.25	222.98
941.55	222.97
941.85	222.96
942.15	222.99
942.45	223.01
942.75	223.01
943.04	223.01
943.34	223.04
943.64	223.02
943.94	223.01
944.24	223.01
944.54	223.01
944.84	223.01
945.13	223.00
945.43	222.98
945.73	222.98
946.03	222.97
946.33	222.96
946.62	222.95
946.92	222.94
947.22	222.95
947.52	222.96
947.82	222.97
948.11	222.96
948.41	222.93
948.71	222.90
949.01	222.91
949.31	222.90
949.60	222.89
949.90	222.90
950.20	222.90
950.50	222.90
950.79	222.89
951.09	222.91
951.39	222.90
951.69	222.89
951.98	222.91
952.28	222.92
952.58	222.91
952.87	222.92
953.17	222.93
953.47	222.92
953.76	222.91
954.06	222.89
954.36	222.89
954.66	222.89
954.95	222.92
955.25	222.93
955.55	222.93
955.84	222.92
956.14	222.92
956.44	222.93
956.73	222.91
957.03	222.92
957.32	222.91
957.62	222.91
957.92	222.94
958.21	222.92
958.51	223.04
958.81	223.05
959.10	223.06
959.40	223.09
959.69	223.09
959.99	223.11
960.29	223.12
960.58	223.11
960.88	223.15
961.17	223.13
961.47	223.14
961.76	223.14
962.06	223.16
962.36	223.14
962.65	223.15
962.95	223.16
963.24	223.15
963.54	223.15
963.83	223.15
964.13	223.14
964.42	223.13
964.72	223.05
965.01	223.04
965.31	223.04
965.60	223.01
965.90	223.07
966.19	223.04
966.49	223.05
966.78	223.05
967.08	223.03
967.37	223.03
967.67	223.01
967.96	223.02
968.26	223.02
968.55	223.03
968.85	223.02
969.14	223.02
969.43	223.02
969.73	223.01
970.02	223.01
970.32	223.00
970.61	222.98
970.91	222.95
971.20	222.94
971.49	222.93
971.79	222.95
972.08	222.87
972.38	222.88
972.67	222.87
972.96	222.89
973.26	222.87
973.55	222.90
973.85	222.90
974.14	222.89
974.43	222.90
974.73	222.88
975.02	222.87
975.31	222.87
975.61	222.87
975.90	222.87
976.19	222.86
976.49	222.86
976.78	222.87
977.07	222.87
977.37	222.88
977.66	222.89
977.95	222.87
978.24	222.89
978.54	222.90
978.83	222.90
979.12	222.89
979.42	222.89
979.71	222.87
980.00	222.87
980.29	222.87
980.59	222.85
980.88	222.87
981.17	222.87
981.46	222.88
981.76	222.88
982.05	222.91
982.34	222.92
982.63	222.92
982.93	222.92
983.22	222.95
983.51	222.95
983.80	222.97
984.09	222.98
984.39	222.97
984.68	222.96
984.97	222.97
985.26	222.96
985.55	222.97
985.85	222.95
986.14	222.97
986.43	222.98
986.72	222.98
987.01	222.95
987.30	222.95
987.59	222.94
987.89	222.95
988.18	222.92
988.47	222.90
988.76	222.90
989.05	222.89
989.34	222.87
989.63	222.89
989.92	222.88
990.22	222.86
990.51	222.86
990.80	222.85
991.09	222.85
991.38	222.87
991.67	222.85
991.96	222.85
992.25	222.85
992.54	222.83
992.83	222.83
993.12	222.83
993.41	222.85
993.70	222.89
993.99	222.91
994.28	222.92
994.58	222.94
994.87	222.93
995.16	222.93
995.45	222.92
995.74	222.88
996.03	222.90
996.32	222.91
996.61	222.93
996.90	222.93
997.19	222.92
997.48	222.93
997.77	222.92
998.06	222.93
998.34	222.92
998.63	222.92
998.92	222.92
999.21	222.93
999.50	222.93
999.79	222.89
1000.08	222.88
1000.37	222.88
1000.66	222.86
1000.95	222.89
1001.24	222.90
1001.53	222.91
1001.82	222.91
1002.11	222.88
1002.40	222.89
1002.68	222.91
1002.97	222.98
1003.26	222.97
1003.55	222.95
1003.84	222.96
1004.13	222.99
1004.42	222.99
1004.71	222.98
1004.99	222.98
1005.28	223.00
1005.57	222.99
1005.86	222.99
1006.15	222.98
1006.44	222.97
1006.72	222.98
1007.01	222.96
1007.30	222.96
1007.59	222.95
1007.88	222.95
1008.17	222.96
1008.45	222.94
1008.74	222.90
1009.03	222.85
1009.32	222.86
1009.60	222.86
1009.89	222.85
1010.18	222.82
1010.47	222.81
1010.76	222.81
1011.04	222.81
1011.33	222.80
1011.62	222.81
1011.91	222.82
1012.19	222.82
1012.48	222.83
1012.77	222.83
1013.05	222.86
1013.34	222.86
1013.63	222.86
1013.92	222.87
1014.20	222.86
1014.49	222.87
1014.78	222.87
1015.06	222.84
1015.35	222.84
1015.64	222.85
1015.92	222.87
1016.21	222.88
1016.50	222.88
1016.78	222.90
1017.07	222.91
1017.36	222.89
1017.64	222.87
1017.93	222.88
1018.22	222.87
1018.50	222.86
1018.79	222.86
1019.08	222.83
1019.36	222.83
1019.65	222.82
1019.93	222.84
1020.22	222.86
1020.51	222.91
1020.79	222.90
1021.08	222.72
1021.36	222.66
1021.65	222.86
1021.94	222.80
1022.22	222.91
1022.51	222.67
1022.79	223.31
1023.08	223.00
1023.36	224.08
1023.65	222.62
>>>>>End Processed Spectral Data<<<<<
