SpectraSuite Data File
++++++++++++++++++++++++++++++++++++
Date: Wed Sep 30 22:37:57 EDT 2015
User: lab3
Dark Spectrum Present: No
Reference Spectrum Present: No
Number of Sampled Component Spectra: 1
Spectrometers: USB2E7196
Integration Time (usec): 36000 (USB2E7196)
Spectra Averaged: 10000 (USB2E7196)
Boxcar Smoothing: 10 (USB2E7196)
Correct for Electrical Dark: No (USB2E7196)
Strobe/Lamp Enabled: No (USB2E7196)
Correct for Detector Non-linearity: No (USB2E7196)
Correct for Stray Light: No (USB2E7196)
Number of Pixels in Processed Spectrum: 2048
>>>>>Begin Processed Spectral Data<<<<<
339.09	0.00
339.48	209.66
339.86	211.12
340.24	212.48
340.63	213.94
341.01	216.93
341.39	216.66
341.78	218.00
342.16	219.13
342.54	219.68
342.93	208.28
343.31	218.81
343.69	219.35
344.07	219.81
344.46	220.24
344.84	220.63
345.22	220.86
345.60	221.12
345.99	221.32
346.37	221.46
346.75	221.56
347.13	221.64
347.52	221.71
347.90	221.80
348.28	221.83
348.66	221.89
349.05	221.89
349.43	221.94
349.81	222.00
350.19	222.05
350.57	222.12
350.96	222.20
351.34	222.29
351.72	222.39
352.10	222.50
352.48	222.58
352.87	222.64
353.25	222.70
353.63	222.76
354.01	222.82
354.39	222.90
354.77	222.98
355.15	223.08
355.54	223.14
355.92	223.17
356.30	223.25
356.68	223.39
357.06	223.46
357.44	223.51
357.82	223.58
358.20	223.69
358.58	223.75
358.97	223.81
359.35	223.90
359.73	223.98
360.11	224.03
360.49	224.09
360.87	224.14
361.25	224.20
361.63	224.29
362.01	224.34
362.39	224.37
362.77	224.41
363.15	224.44
363.53	224.47
363.91	224.51
364.29	224.54
364.67	224.46
365.05	224.48
365.43	224.52
365.81	224.55
366.19	224.57
366.57	224.62
366.95	224.62
367.33	224.60
367.71	224.59
368.09	224.61
368.47	224.60
368.85	224.59
369.23	224.60
369.61	224.55
369.99	224.56
370.37	224.56
370.75	224.62
371.13	224.59
371.51	224.55
371.89	224.53
372.27	224.50
372.65	224.48
373.03	224.44
373.41	224.39
373.78	224.34
374.16	224.24
374.54	224.16
374.92	224.11
375.30	224.07
375.68	224.00
376.06	223.95
376.44	223.89
376.82	223.85
377.19	223.79
377.57	223.74
377.95	223.65
378.33	223.59
378.71	223.44
379.09	223.40
379.47	223.36
379.84	223.30
380.22	223.23
380.60	223.16
380.98	223.11
381.36	223.05
381.73	222.99
382.11	222.96
382.49	222.92
382.87	222.86
383.25	222.81
383.62	222.89
384.00	222.82
384.38	222.78
384.76	222.76
385.13	222.74
385.51	222.70
385.89	222.65
386.27	222.62
386.64	222.59
387.02	222.55
387.40	222.50
387.78	222.47
388.15	222.44
388.53	222.41
388.91	222.38
389.29	222.35
389.66	222.34
390.04	222.30
390.42	222.29
390.79	222.27
391.17	222.25
391.55	222.12
391.92	222.10
392.30	222.10
392.68	222.07
393.05	222.05
393.43	222.05
393.81	222.05
394.18	222.03
394.56	222.03
394.94	222.05
395.31	222.05
395.69	222.08
396.06	222.11
396.44	222.13
396.82	222.14
397.19	222.21
397.57	222.23
397.95	222.27
398.32	222.27
398.70	222.31
399.07	222.36
399.45	222.40
399.82	222.44
400.20	222.47
400.58	222.53
400.95	222.54
401.33	222.61
401.70	222.75
402.08	222.84
402.45	222.91
402.83	223.01
403.20	223.12
403.58	223.20
403.95	223.33
404.33	223.46
404.71	223.58
405.08	223.77
405.46	223.90
405.83	224.06
406.21	224.24
406.58	224.42
406.96	224.61
407.33	224.82
407.70	225.06
408.08	225.39
408.45	225.67
408.83	225.98
409.20	226.25
409.58	226.51
409.95	226.85
410.33	227.22
410.70	227.57
411.08	227.98
411.45	228.41
411.82	228.85
412.20	229.35
412.57	229.95
412.95	230.41
413.32	231.02
413.69	231.65
414.07	232.31
414.44	233.03
414.82	233.78
415.19	234.64
415.56	235.52
415.94	236.43
416.31	237.44
416.68	238.47
417.06	239.66
417.43	240.77
417.81	242.05
418.18	243.36
418.55	244.79
418.93	246.28
419.30	247.83
419.67	249.49
420.04	251.19
420.42	252.96
420.79	255.02
421.16	257.09
421.54	259.20
421.91	261.40
422.28	263.69
422.66	266.16
423.03	268.50
423.40	270.97
423.77	273.62
424.15	276.33
424.52	279.15
424.89	282.20
425.26	285.24
425.64	288.06
426.01	291.22
426.38	294.47
426.75	297.80
427.13	301.22
427.50	304.79
427.87	308.51
428.24	312.26
428.61	315.84
428.99	319.71
429.36	323.95
429.73	328.00
430.10	332.05
430.47	336.18
430.85	340.42
431.22	344.94
431.59	349.59
431.96	354.11
432.33	359.12
432.70	363.87
433.08	369.47
433.45	374.78
433.82	379.99
434.19	385.80
434.56	391.52
434.93	397.02
435.30	402.47
435.68	408.61
436.05	414.60
436.42	420.59
436.79	426.06
437.16	431.96
437.53	438.28
437.90	444.59
438.27	450.75
438.64	457.45
439.01	463.51
439.38	469.04
439.75	474.37
440.13	480.47
440.50	486.29
440.87	490.87
441.24	495.90
441.61	501.47
441.98	505.56
442.35	510.42
442.72	515.41
443.09	520.19
443.46	523.29
443.83	525.60
444.20	527.58
444.57	530.43
444.94	532.16
445.31	533.93
445.68	535.53
446.05	536.75
446.42	536.67
446.79	536.49
447.16	536.36
447.53	536.29
447.90	534.58
448.27	532.98
448.64	530.39
449.01	528.71
449.37	524.96
449.74	521.54
450.11	517.14
450.48	512.26
450.85	507.36
451.22	503.20
451.59	499.13
451.96	495.44
452.33	489.98
452.70	485.13
453.07	479.20
453.43	473.26
453.80	467.50
454.17	461.97
454.54	456.83
454.91	451.01
455.28	445.54
455.65	440.37
456.02	434.87
456.38	430.44
456.75	424.71
457.12	420.08
457.49	415.42
457.86	410.96
458.23	407.06
458.59	402.75
458.96	398.31
459.33	394.39
459.70	390.39
460.07	387.35
460.43	383.76
460.80	380.40
461.17	377.43
461.54	374.23
461.91	371.25
462.27	368.21
462.64	365.73
463.01	362.89
463.38	360.01
463.74	357.42
464.11	355.09
464.48	353.00
464.85	350.75
465.21	349.03
465.58	347.14
465.95	344.95
466.32	343.18
466.68	341.47
467.05	339.74
467.42	338.08
467.78	336.28
468.15	334.63
468.52	333.39
468.88	331.78
469.25	330.30
469.62	329.12
469.98	327.84
470.35	326.70
470.72	325.68
471.08	324.64
471.45	323.77
471.82	322.82
472.18	321.83
472.55	321.19
472.92	320.39
473.28	319.77
473.65	319.14
474.02	318.53
474.38	318.04
474.75	317.76
475.11	317.34
475.48	317.19
475.85	317.02
476.21	316.96
476.58	316.97
476.94	317.15
477.31	317.26
477.67	317.41
478.04	317.66
478.41	317.98
478.77	318.43
479.14	318.76
479.50	319.31
479.87	319.99
480.23	320.67
480.60	321.32
480.96	322.00
481.33	322.95
481.69	323.90
482.06	324.83
482.42	325.72
482.79	326.78
483.15	328.00
483.52	329.36
483.88	330.69
484.25	332.10
484.61	333.56
484.98	335.14
485.34	336.91
485.71	338.74
486.07	340.70
486.44	342.64
486.80	344.80
487.17	347.01
487.53	349.44
487.90	351.97
488.26	354.71
488.62	357.60
488.99	360.49
489.35	363.51
489.72	366.78
490.08	370.21
490.44	373.73
490.81	377.42
491.17	381.20
491.54	385.23
491.90	389.36
492.26	393.81
492.63	398.50
492.99	403.37
493.36	408.37
493.72	413.64
494.08	419.04
494.45	424.75
494.81	430.67
495.17	436.69
495.54	443.07
495.90	449.76
496.26	456.57
496.63	463.63
496.99	470.96
497.35	478.65
497.72	486.65
498.08	494.81
498.44	503.22
498.80	512.18
499.17	521.36
499.53	530.89
499.89	540.64
500.26	550.56
500.62	560.76
500.98	571.60
501.34	582.59
501.71	594.12
502.07	605.87
502.43	618.01
502.79	630.51
503.16	643.38
503.52	656.46
503.88	669.90
504.24	683.78
504.60	697.96
504.97	712.51
505.33	727.41
505.69	743.20
506.05	759.20
506.41	775.22
506.78	791.55
507.14	808.33
507.50	825.74
507.86	843.52
508.22	861.55
508.59	879.60
508.95	898.38
509.31	917.58
509.67	937.47
510.03	957.60
510.39	977.92
510.75	998.50
511.12	1019.35
511.48	1040.58
511.84	1061.84
512.20	1083.41
512.56	1106.05
512.92	1129.00
513.28	1151.68
513.64	1174.63
514.00	1197.99
514.37	1221.69
514.73	1245.40
515.09	1268.93
515.45	1292.87
515.81	1317.41
516.17	1342.02
516.53	1366.32
516.89	1390.67
517.25	1415.21
517.61	1439.94
517.97	1464.87
518.33	1489.56
518.69	1514.40
519.05	1539.48
519.41	1564.71
519.77	1590.20
520.13	1614.96
520.49	1639.85
520.85	1664.95
521.21	1690.01
521.57	1715.66
521.93	1740.63
522.29	1766.46
522.65	1792.01
523.01	1817.36
523.37	1841.99
523.73	1867.24
524.09	1892.63
524.45	1917.98
524.81	1942.88
525.17	1967.66
525.53	1992.04
525.89	2016.47
526.25	2041.10
526.61	2065.15
526.97	2089.54
527.33	2113.84
527.68	2138.00
528.04	2161.27
528.40	2184.45
528.76	2207.80
529.12	2230.12
529.48	2252.80
529.84	2273.65
530.20	2295.11
530.56	2316.24
530.91	2337.41
531.27	2358.08
531.63	2378.16
531.99	2397.70
532.35	2416.87
532.71	2436.16
533.07	2456.13
533.42	2474.43
533.78	2493.23
534.14	2511.94
534.50	2529.82
534.86	2548.33
535.21	2565.02
535.57	2581.75
535.93	2597.61
536.29	2612.34
536.65	2627.81
537.00	2642.19
537.36	2657.06
537.72	2670.85
538.08	2684.44
538.44	2696.83
538.79	2709.44
539.15	2720.39
539.51	2731.29
539.87	2741.85
540.22	2750.32
540.58	2758.75
540.94	2767.89
541.29	2775.40
541.65	2782.03
542.01	2788.11
542.37	2792.31
542.72	2798.39
543.08	2803.92
543.44	2809.40
543.79	2813.92
544.15	2817.71
544.51	2821.40
544.87	2824.28
545.22	2826.67
545.58	2828.03
545.94	2829.83
546.29	2830.24
546.65	2830.86
547.01	2831.38
547.36	2832.11
547.72	2832.99
548.07	2832.41
548.43	2831.16
548.79	2829.28
549.14	2827.48
549.50	2826.13
549.86	2824.12
550.21	2819.53
550.57	2815.43
550.92	2809.93
551.28	2805.07
551.64	2800.03
551.99	2795.47
552.35	2790.46
552.70	2785.05
553.06	2780.37
553.41	2775.25
553.77	2769.52
554.13	2764.31
554.48	2758.41
554.84	2750.74
555.19	2743.19
555.55	2735.06
555.90	2727.48
556.26	2720.97
556.61	2713.80
556.97	2704.55
557.32	2696.05
557.68	2688.09
558.03	2679.37
558.39	2671.30
558.74	2663.53
559.10	2654.45
559.45	2645.11
559.81	2636.04
560.16	2626.33
560.52	2616.08
560.87	2606.85
561.23	2597.34
561.58	2587.32
561.94	2577.00
562.29	2566.23
562.64	2556.02
563.00	2546.17
563.35	2536.19
563.71	2525.29
564.06	2513.82
564.42	2503.43
564.77	2492.63
565.12	2481.98
565.48	2471.05
565.83	2460.80
566.19	2450.51
566.54	2439.95
566.89	2428.33
567.25	2416.68
567.60	2405.91
567.96	2394.72
568.31	2382.13
568.66	2369.38
569.02	2357.72
569.37	2345.88
569.72	2334.55
570.08	2322.46
570.43	2309.86
570.78	2296.98
571.14	2283.84
571.49	2271.52
571.84	2259.48
572.20	2246.14
572.55	2233.13
572.90	2220.04
573.26	2206.13
573.61	2191.60
573.96	2177.26
574.31	2163.35
574.67	2149.70
575.02	2135.57
575.37	2121.04
575.72	2106.78
576.08	2093.18
576.43	2078.51
576.78	2063.79
577.13	2049.88
577.49	2036.13
577.84	2022.72
578.19	2008.46
578.54	1993.79
578.90	1978.62
579.25	1963.16
579.60	1949.18
579.95	1934.84
580.30	1920.50
580.66	1906.39
581.01	1891.91
581.36	1877.82
581.71	1864.28
582.06	1850.25
582.42	1836.24
582.77	1823.03
583.12	1809.49
583.47	1795.90
583.82	1782.46
584.17	1768.94
584.53	1755.24
584.88	1741.50
585.23	1727.47
585.58	1713.95
585.93	1700.86
586.28	1688.56
586.63	1676.13
586.98	1662.93
587.34	1650.00
587.69	1636.55
588.04	1623.30
588.39	1610.78
588.74	1597.75
589.09	1584.45
589.44	1571.10
589.79	1558.35
590.14	1545.43
590.49	1532.68
590.84	1519.87
591.19	1507.70
591.54	1495.02
591.89	1482.20
592.25	1469.76
592.60	1456.83
592.95	1444.47
593.30	1432.42
593.65	1420.19
594.00	1408.09
594.35	1396.86
594.70	1384.73
595.05	1373.72
595.40	1362.60
595.75	1350.83
596.10	1339.82
596.45	1329.03
596.80	1318.72
597.15	1308.18
597.50	1297.65
597.85	1287.33
598.19	1277.19
598.54	1266.44
598.89	1256.41
599.24	1246.73
599.59	1236.73
599.94	1227.81
600.29	1218.79
600.64	1209.54
600.99	1199.71
601.34	1190.38
601.69	1180.38
602.04	1171.52
602.39	1162.47
602.74	1153.65
603.08	1145.11
603.43	1136.09
603.78	1126.92
604.13	1117.92
604.48	1108.85
604.83	1100.06
605.18	1091.15
605.53	1082.19
605.87	1073.35
606.22	1064.80
606.57	1055.97
606.92	1047.22
607.27	1038.36
607.62	1029.56
607.96	1020.95
608.31	1013.31
608.66	1005.25
609.01	997.64
609.36	989.97
609.70	982.10
610.05	974.04
610.40	966.33
610.75	958.75
611.10	951.46
611.44	943.76
611.79	936.38
612.14	928.61
612.49	920.98
612.83	913.84
613.18	906.78
613.53	899.51
613.88	892.31
614.22	885.72
614.57	878.96
614.92	872.18
615.27	865.41
615.61	858.51
615.96	851.84
616.31	845.08
616.65	838.21
617.00	831.60
617.35	825.12
617.70	818.66
618.04	812.27
618.39	805.90
618.74	799.88
619.08	793.65
619.43	787.70
619.78	781.79
620.12	775.66
620.47	769.70
620.82	763.80
621.16	758.25
621.51	752.35
621.85	746.45
622.20	740.57
622.55	734.89
622.89	729.18
623.24	723.49
623.59	717.90
623.93	712.35
624.28	706.93
624.62	701.50
624.97	696.06
625.32	690.73
625.66	685.25
626.01	679.78
626.35	674.46
626.70	669.16
627.04	664.02
627.39	658.97
627.73	654.00
628.08	649.28
628.43	644.45
628.77	639.69
629.12	635.04
629.46	630.59
629.81	625.97
630.15	621.20
630.50	616.59
630.84	612.15
631.19	607.92
631.53	603.74
631.88	599.42
632.22	595.22
632.57	591.26
632.91	587.26
633.26	583.34
633.60	579.50
633.95	575.77
634.29	571.91
634.64	567.98
634.98	563.96
635.32	560.11
635.67	556.38
636.01	552.59
636.36	548.84
636.70	545.24
637.05	541.61
637.39	538.20
637.73	534.68
638.08	531.21
638.42	527.71
638.77	524.07
639.11	520.45
639.45	516.85
639.80	513.23
640.14	509.81
640.49	506.35
640.83	502.78
641.17	499.23
641.52	495.87
641.86	492.51
642.20	489.31
642.55	485.97
642.89	482.69
643.23	479.63
643.58	476.81
643.92	473.86
644.26	470.95
644.61	468.02
644.95	465.10
645.29	462.13
645.64	459.12
645.98	456.25
646.32	453.54
646.66	450.85
647.01	448.13
647.35	445.47
647.69	442.69
648.04	440.04
648.38	437.44
648.72	434.79
649.06	432.21
649.41	429.68
649.75	427.13
650.09	424.62
650.43	422.09
650.78	419.55
651.12	417.01
651.46	414.56
651.80	412.21
652.14	409.94
652.49	407.69
652.83	405.49
653.17	403.28
653.51	401.14
653.85	399.06
654.20	396.92
654.54	394.70
654.88	392.66
655.22	390.70
655.56	388.69
655.90	386.78
656.25	384.88
656.59	382.98
656.93	381.17
657.27	379.41
657.61	377.55
657.95	375.75
658.29	373.96
658.64	372.21
658.98	370.42
659.32	368.66
659.66	367.00
660.00	365.37
660.34	363.75
660.68	362.09
661.02	360.36
661.36	358.74
661.70	357.20
662.05	355.64
662.39	354.06
662.73	352.57
663.07	351.11
663.41	349.66
663.75	348.24
664.09	346.83
664.43	345.34
664.77	343.94
665.11	342.49
665.45	341.11
665.79	339.73
666.13	338.34
666.47	336.94
666.81	335.51
667.15	334.05
667.49	332.69
667.83	331.38
668.17	330.12
668.51	328.88
668.85	327.65
669.19	326.50
669.53	325.28
669.87	324.03
670.21	322.82
670.55	321.62
670.89	320.50
671.23	319.33
671.57	318.18
671.91	317.10
672.25	316.07
672.58	315.04
672.92	313.97
673.26	312.97
673.60	311.98
673.94	310.98
674.28	310.04
674.62	309.09
674.96	308.11
675.30	307.19
675.64	306.24
675.97	305.31
676.31	304.34
676.65	303.38
676.99	302.50
677.33	301.56
677.67	300.67
678.01	299.70
678.34	298.81
678.68	297.98
679.02	297.11
679.36	296.24
679.70	295.39
680.04	294.56
680.37	293.72
680.71	292.92
681.05	292.16
681.39	291.36
681.73	290.54
682.06	289.74
682.40	288.96
682.74	288.20
683.08	287.46
683.42	286.71
683.75	286.03
684.09	285.28
684.43	284.57
684.77	283.85
685.10	283.18
685.44	282.48
685.78	281.78
686.12	281.11
686.45	280.43
686.79	279.76
687.13	279.11
687.46	278.43
687.80	277.77
688.14	277.08
688.48	276.44
688.81	275.80
689.15	275.21
689.49	274.58
689.82	273.97
690.16	273.30
690.50	272.69
690.83	272.09
691.17	271.50
691.51	270.92
691.84	270.37
692.18	269.78
692.52	269.18
692.85	268.61
693.19	268.08
693.52	267.53
693.86	266.98
694.20	266.44
694.53	265.92
694.87	265.39
695.21	264.89
695.54	264.38
695.88	263.86
696.21	263.31
696.55	262.81
696.88	262.31
697.22	261.83
697.56	261.35
697.89	260.81
698.23	260.31
698.56	259.79
698.90	259.32
699.23	258.84
699.57	258.39
699.90	257.94
700.24	257.45
700.58	257.01
700.91	256.59
701.25	256.25
701.58	255.87
701.92	255.49
702.25	255.08
702.59	254.65
702.92	254.25
703.26	253.86
703.59	253.47
703.93	253.15
704.26	252.78
704.60	252.40
704.93	252.04
705.26	251.68
705.60	251.36
705.93	250.98
706.27	250.67
706.60	250.35
706.94	250.03
707.27	249.66
707.61	249.31
707.94	248.95
708.27	248.51
708.61	248.13
708.94	247.77
709.28	247.44
709.61	247.12
709.94	246.82
710.28	246.52
710.61	246.24
710.95	245.86
711.28	245.64
711.61	245.36
711.95	245.10
712.28	244.81
712.61	244.52
712.95	244.30
713.28	244.07
713.61	243.79
713.95	243.50
714.28	243.27
714.61	243.00
714.95	242.75
715.28	242.50
715.61	242.25
715.95	242.02
716.28	241.78
716.61	241.57
716.95	241.33
717.28	241.10
717.61	240.87
717.94	240.65
718.28	240.35
718.61	240.13
718.94	239.89
719.27	239.68
719.61	239.49
719.94	239.25
720.27	238.99
720.60	238.79
720.94	238.59
721.27	238.40
721.60	238.23
721.93	238.04
722.27	237.89
722.60	237.72
722.93	237.52
723.26	237.36
723.59	237.15
723.93	236.99
724.26	236.82
724.59	236.65
724.92	236.49
725.25	236.36
725.59	236.19
725.92	236.06
726.25	235.90
726.58	235.75
726.91	235.58
727.24	235.45
727.57	235.30
727.91	235.14
728.24	235.00
728.57	234.84
728.90	234.72
729.23	234.53
729.56	234.43
729.89	234.30
730.22	234.15
730.55	234.01
730.89	233.87
731.22	233.73
731.55	233.60
731.88	233.46
732.21	233.31
732.54	233.18
732.87	233.06
733.20	232.94
733.53	232.82
733.86	232.72
734.19	232.58
734.52	232.49
734.85	232.45
735.18	232.31
735.51	232.22
735.84	232.11
736.17	232.03
736.50	231.88
736.83	231.90
737.16	231.80
737.49	231.70
737.82	231.60
738.15	231.52
738.48	231.42
738.81	231.32
739.14	231.21
739.47	231.10
739.80	231.00
740.13	230.91
740.46	230.80
740.79	230.68
741.12	230.59
741.45	230.48
741.78	230.33
742.11	230.27
742.44	230.15
742.77	230.07
743.10	229.97
743.43	229.87
743.75	229.67
744.08	229.74
744.41	229.65
744.74	229.55
745.07	229.45
745.40	229.38
745.73	229.34
746.06	229.27
746.39	229.21
746.71	229.12
747.04	229.03
747.37	228.95
747.70	228.90
748.03	228.83
748.36	228.77
748.68	228.70
749.01	228.59
749.34	228.53
749.67	228.46
750.00	228.40
750.33	228.42
750.65	228.37
750.98	228.14
751.31	228.08
751.64	228.02
751.97	228.01
752.29	227.93
752.62	227.82
752.95	227.75
753.28	227.67
753.60	227.60
753.93	227.56
754.26	227.51
754.59	227.41
754.91	227.33
755.24	227.26
755.57	227.24
755.90	227.18
756.22	227.11
756.55	227.03
756.88	226.94
757.20	226.81
757.53	226.72
757.86	226.66
758.19	226.61
758.51	226.56
758.84	226.45
759.17	226.39
759.49	226.35
759.82	226.35
760.15	226.31
760.47	226.26
760.80	226.18
761.13	226.15
761.45	226.11
761.78	226.06
762.11	226.02
762.43	225.92
762.76	225.87
763.08	225.84
763.41	225.80
763.74	225.76
764.06	225.72
764.39	225.68
764.71	225.63
765.04	225.58
765.37	225.53
765.69	225.49
766.02	225.45
766.34	225.39
766.67	225.32
767.00	225.29
767.32	225.30
767.65	225.33
767.97	225.27
768.30	225.24
768.62	225.20
768.95	225.15
769.27	225.11
769.60	225.09
769.92	225.03
770.25	224.98
770.57	224.93
770.90	224.89
771.22	224.84
771.55	224.81
771.87	224.78
772.20	224.75
772.52	224.80
772.85	224.89
773.17	224.87
773.50	224.83
773.82	224.78
774.15	224.70
774.47	224.60
774.80	224.56
775.12	224.53
775.45	224.50
775.77	224.48
776.09	224.46
776.42	224.44
776.74	224.44
777.07	224.41
777.39	224.39
777.72	224.36
778.04	224.34
778.36	224.32
778.69	224.29
779.01	224.27
779.33	224.16
779.66	224.01
779.98	223.98
780.31	223.97
780.63	223.99
780.95	223.98
781.28	223.96
781.60	223.94
781.92	223.92
782.25	223.90
782.57	223.88
782.89	223.85
783.22	223.82
783.54	223.78
783.86	223.77
784.19	223.75
784.51	223.76
784.83	223.73
785.16	223.70
785.48	223.69
785.80	223.67
786.12	223.66
786.45	223.64
786.77	223.63
787.09	223.61
787.42	223.56
787.74	223.54
788.06	223.53
788.38	223.51
788.71	223.48
789.03	223.47
789.35	223.47
789.67	223.44
789.99	223.43
790.32	223.40
790.64	223.40
790.96	223.48
791.28	223.43
791.61	223.42
791.93	223.41
792.25	223.39
792.57	223.45
792.89	223.43
793.21	223.42
793.54	223.39
793.86	223.37
794.18	223.36
794.50	223.32
794.82	223.31
795.14	223.32
795.47	223.32
795.79	223.31
796.11	223.28
796.43	223.27
796.75	223.25
797.07	223.24
797.39	223.22
797.71	223.13
798.04	223.12
798.36	223.11
798.68	223.10
799.00	223.09
799.32	223.03
799.64	223.04
799.96	223.03
800.28	223.04
800.60	223.03
800.92	223.02
801.24	223.01
801.56	223.01
801.89	222.98
802.21	222.98
802.53	222.95
802.85	222.96
803.17	223.00
803.49	222.97
803.81	222.96
804.13	222.94
804.45	222.92
804.77	222.92
805.09	222.91
805.41	222.89
805.73	222.86
806.05	222.82
806.37	222.80
806.69	222.79
807.01	222.76
807.33	222.76
807.65	222.71
807.97	222.75
808.28	222.73
808.60	222.72
808.92	222.70
809.24	222.75
809.56	222.73
809.88	222.68
810.20	222.68
810.52	222.69
810.84	222.67
811.16	222.65
811.48	222.64
811.80	222.67
812.12	222.66
812.43	222.67
812.75	222.68
813.07	222.66
813.39	222.66
813.71	222.64
814.03	222.62
814.35	222.62
814.67	222.57
814.98	222.56
815.30	222.55
815.62	222.53
815.94	222.46
816.26	222.46
816.58	222.44
816.89	222.44
817.21	222.41
817.53	222.41
817.85	222.41
818.17	222.40
818.48	222.35
818.80	222.37
819.12	222.34
819.44	222.32
819.76	222.30
820.07	222.29
820.39	222.29
820.71	222.29
821.03	222.29
821.34	222.28
821.66	222.29
821.98	222.30
822.30	222.29
822.61	222.35
822.93	222.33
823.25	222.32
823.57	222.31
823.88	222.32
824.20	222.31
824.52	222.33
824.83	222.32
825.15	222.31
825.47	222.29
825.79	222.30
826.10	222.30
826.42	222.29
826.74	222.30
827.05	222.29
827.37	222.29
827.69	222.28
828.00	222.28
828.32	222.28
828.64	222.26
828.95	222.31
829.27	222.27
829.58	222.28
829.90	222.29
830.22	222.29
830.53	222.27
830.85	222.26
831.17	222.23
831.48	222.22
831.80	222.23
832.11	222.22
832.43	222.20
832.75	222.19
833.06	222.25
833.38	222.22
833.69	222.21
834.01	222.22
834.32	222.21
834.64	222.20
834.96	222.20
835.27	222.20
835.59	222.15
835.90	222.14
836.22	222.13
836.53	222.11
836.85	222.09
837.16	222.20
837.48	222.19
837.79	222.23
838.11	222.23
838.42	222.23
838.74	222.24
839.05	222.23
839.37	222.22
839.68	222.16
840.00	222.15
840.31	222.17
840.63	222.15
840.94	222.14
841.26	222.13
841.57	222.12
841.88	222.13
842.20	222.11
842.51	222.10
842.83	222.09
843.14	222.19
843.46	222.19
843.77	222.12
844.08	222.12
844.40	222.08
844.71	222.07
845.03	222.05
845.34	222.04
845.65	222.04
845.97	222.04
846.28	222.04
846.60	222.05
846.91	222.03
847.22	222.02
847.54	222.04
847.85	222.05
848.16	222.03
848.48	222.01
848.79	222.05
849.10	222.06
849.42	222.06
849.73	221.96
850.04	221.96
850.36	221.92
850.67	221.94
850.98	221.94
851.30	221.95
851.61	221.95
851.92	221.94
852.23	221.98
852.55	221.98
852.86	221.98
853.17	221.99
853.49	222.01
853.80	222.03
854.11	222.04
854.42	222.04
854.74	222.03
855.05	222.04
855.36	221.98
855.67	221.98
855.99	221.99
856.30	222.11
856.61	222.11
856.92	222.11
857.23	222.11
857.55	222.10
857.86	222.09
858.17	222.10
858.48	222.08
858.79	222.06
859.11	222.06
859.42	222.05
859.73	222.04
860.04	222.03
860.35	221.99
860.66	221.96
860.98	221.95
861.29	221.97
861.60	221.96
861.91	221.99
862.22	221.97
862.53	221.95
862.84	221.82
863.16	221.84
863.47	221.83
863.78	221.81
864.09	221.82
864.40	221.83
864.71	221.83
865.02	221.84
865.33	221.83
865.64	221.81
865.95	221.81
866.27	221.88
866.58	221.87
866.89	221.88
867.20	221.88
867.51	221.86
867.82	221.85
868.13	221.88
868.44	221.86
868.75	221.88
869.06	221.88
869.37	221.89
869.68	221.86
869.99	221.88
870.30	221.89
870.61	221.89
870.92	221.88
871.23	221.87
871.54	221.87
871.85	221.90
872.16	221.91
872.47	221.90
872.78	221.84
873.09	221.85
873.40	221.84
873.71	221.85
874.02	221.86
874.33	221.85
874.64	221.83
874.95	221.84
875.26	221.82
875.56	221.82
875.87	221.81
876.18	221.80
876.49	221.90
876.80	221.89
877.11	221.87
877.42	221.88
877.73	221.88
878.04	221.87
878.35	221.87
878.66	221.87
878.96	221.87
879.27	221.86
879.58	221.85
879.89	221.85
880.20	221.88
880.51	221.87
880.82	221.88
881.12	221.88
881.43	221.86
881.74	221.85
882.05	221.84
882.36	221.85
882.67	221.86
882.97	221.74
883.28	221.73
883.59	221.73
883.90	221.73
884.21	221.75
884.51	221.74
884.82	221.72
885.13	221.72
885.44	221.72
885.74	221.72
886.05	221.71
886.36	221.71
886.67	221.67
886.98	221.73
887.28	221.73
887.59	221.73
887.90	221.73
888.20	221.73
888.51	221.75
888.82	221.74
889.13	221.74
889.43	221.83
889.74	221.83
890.05	221.83
890.35	221.82
890.66	221.80
890.97	221.79
891.28	221.78
891.58	221.78
891.89	221.78
892.20	221.78
892.50	221.76
892.81	221.76
893.12	221.76
893.42	221.70
893.73	221.70
894.04	221.70
894.34	221.71
894.65	221.71
894.95	221.70
895.26	221.70
895.57	221.74
895.87	221.63
896.18	221.65
896.48	221.66
896.79	221.66
897.10	221.67
897.40	221.68
897.71	221.69
898.01	221.68
898.32	221.69
898.63	221.68
898.93	221.69
899.24	221.70
899.54	221.69
899.85	221.68
900.15	221.68
900.46	221.68
900.76	221.68
901.07	221.68
901.38	221.68
901.68	221.69
901.99	221.64
902.29	221.65
902.60	221.64
902.90	221.63
903.21	221.63
903.51	221.62
903.82	221.64
904.12	221.64
904.43	221.64
904.73	221.64
905.03	221.64
905.34	221.74
905.64	221.74
905.95	221.74
906.25	221.74
906.56	221.74
906.86	221.73
907.17	221.72
907.47	221.73
907.77	221.71
908.08	221.69
908.38	221.69
908.69	221.70
908.99	221.72
909.30	221.72
909.60	221.72
909.90	221.72
910.21	221.69
910.51	221.68
910.81	221.68
911.12	221.68
911.42	221.68
911.73	221.57
912.03	221.58
912.33	221.60
912.64	221.59
912.94	221.58
913.24	221.56
913.55	221.55
913.85	221.55
914.15	221.57
914.46	221.59
914.76	221.58
915.06	221.57
915.37	221.55
915.67	221.54
915.97	221.54
916.27	221.52
916.58	221.53
916.88	221.53
917.18	221.52
917.49	221.59
917.79	221.58
918.09	221.59
918.39	221.62
918.70	221.61
919.00	221.62
919.30	221.66
919.60	221.66
919.91	221.65
920.21	221.65
920.51	221.63
920.81	221.62
921.12	221.64
921.42	221.64
921.72	221.64
922.02	221.65
922.32	221.67
922.63	221.67
922.93	221.73
923.23	221.73
923.53	221.73
923.83	221.66
924.13	221.67
924.44	221.67
924.74	221.68
925.04	221.70
925.34	221.70
925.64	221.66
925.94	221.66
926.24	221.72
926.55	221.72
926.85	221.73
927.15	221.73
927.45	221.73
927.75	221.73
928.05	221.73
928.35	221.72
928.65	221.74
928.95	221.74
929.26	221.69
929.56	221.71
929.86	221.73
930.16	221.72
930.46	221.71
930.76	221.71
931.06	221.66
931.36	221.64
931.66	221.65
931.96	221.66
932.26	221.67
932.56	221.62
932.86	221.63
933.16	221.63
933.46	221.62
933.76	221.61
934.06	221.63
934.36	221.66
934.66	221.66
934.96	221.64
935.26	221.65
935.56	221.67
935.86	221.63
936.16	221.62
936.46	221.62
936.76	221.61
937.06	221.60
937.36	221.61
937.66	221.61
937.96	221.60
938.26	221.58
938.56	221.57
938.86	221.58
939.16	221.60
939.46	221.61
939.76	221.62
940.06	221.61
940.35	221.59
940.65	221.54
940.95	221.55
941.25	221.53
941.55	221.51
941.85	221.50
942.15	221.53
942.45	221.55
942.75	221.55
943.04	221.56
943.34	221.58
943.64	221.57
943.94	221.55
944.24	221.55
944.54	221.56
944.84	221.55
945.13	221.54
945.43	221.52
945.73	221.51
946.03	221.50
946.33	221.50
946.62	221.49
946.92	221.49
947.22	221.49
947.52	221.49
947.82	221.50
948.11	221.49
948.41	221.47
948.71	221.44
949.01	221.44
949.31	221.43
949.60	221.42
949.90	221.44
950.20	221.44
950.50	221.43
950.79	221.42
951.09	221.44
951.39	221.44
951.69	221.42
951.98	221.44
952.28	221.45
952.58	221.44
952.87	221.44
953.17	221.46
953.47	221.45
953.76	221.45
954.06	221.43
954.36	221.41
954.66	221.41
954.95	221.44
955.25	221.45
955.55	221.45
955.84	221.44
956.14	221.44
956.44	221.45
956.73	221.43
957.03	221.44
957.32	221.44
957.62	221.44
957.92	221.46
958.21	221.45
958.51	221.57
958.81	221.58
959.10	221.59
959.40	221.62
959.69	221.63
959.99	221.64
960.29	221.64
960.58	221.64
960.88	221.68
961.17	221.67
961.47	221.67
961.76	221.67
962.06	221.68
962.36	221.67
962.65	221.67
962.95	221.68
963.24	221.67
963.54	221.67
963.83	221.68
964.13	221.67
964.42	221.66
964.72	221.57
965.01	221.57
965.31	221.57
965.60	221.54
965.90	221.60
966.19	221.58
966.49	221.58
966.78	221.58
967.08	221.56
967.37	221.56
967.67	221.54
967.96	221.56
968.26	221.55
968.55	221.57
968.85	221.56
969.14	221.55
969.43	221.55
969.73	221.54
970.02	221.53
970.32	221.53
970.61	221.51
970.91	221.48
971.20	221.46
971.49	221.46
971.79	221.47
972.08	221.40
972.38	221.41
972.67	221.40
972.96	221.42
973.26	221.40
973.55	221.43
973.85	221.43
974.14	221.41
974.43	221.42
974.73	221.41
975.02	221.40
975.31	221.40
975.61	221.40
975.90	221.39
976.19	221.39
976.49	221.39
976.78	221.40
977.07	221.40
977.37	221.41
977.66	221.43
977.95	221.41
978.24	221.42
978.54	221.44
978.83	221.43
979.12	221.42
979.42	221.42
979.71	221.39
980.00	221.39
980.29	221.39
980.59	221.37
980.88	221.40
981.17	221.40
981.46	221.40
981.76	221.39
982.05	221.42
982.34	221.43
982.63	221.43
982.93	221.44
983.22	221.46
983.51	221.46
983.80	221.47
984.09	221.49
984.39	221.48
984.68	221.46
984.97	221.47
985.26	221.46
985.55	221.47
985.85	221.45
986.14	221.47
986.43	221.48
986.72	221.47
987.01	221.44
987.30	221.44
987.59	221.44
987.89	221.44
988.18	221.40
988.47	221.39
988.76	221.38
989.05	221.37
989.34	221.36
989.63	221.38
989.92	221.36
990.22	221.35
990.51	221.35
990.80	221.35
991.09	221.35
991.38	221.37
991.67	221.36
991.96	221.35
992.25	221.35
992.54	221.33
992.83	221.33
993.12	221.33
993.41	221.35
993.70	221.39
993.99	221.41
994.28	221.43
994.58	221.45
994.87	221.44
995.16	221.44
995.45	221.43
995.74	221.39
996.03	221.40
996.32	221.42
996.61	221.44
996.90	221.44
997.19	221.43
997.48	221.43
997.77	221.42
998.06	221.43
998.34	221.42
998.63	221.42
998.92	221.43
999.21	221.45
999.50	221.44
999.79	221.40
1000.08	221.40
1000.37	221.40
1000.66	221.38
1000.95	221.40
1001.24	221.41
1001.53	221.42
1001.82	221.43
1002.11	221.41
1002.40	221.41
1002.68	221.43
1002.97	221.50
1003.26	221.49
1003.55	221.48
1003.84	221.49
1004.13	221.52
1004.42	221.51
1004.71	221.51
1004.99	221.50
1005.28	221.52
1005.57	221.52
1005.86	221.51
1006.15	221.50
1006.44	221.49
1006.72	221.50
1007.01	221.48
1007.30	221.48
1007.59	221.47
1007.88	221.47
1008.17	221.47
1008.45	221.45
1008.74	221.41
1009.03	221.36
1009.32	221.36
1009.60	221.37
1009.89	221.36
1010.18	221.32
1010.47	221.32
1010.76	221.32
1011.04	221.31
1011.33	221.31
1011.62	221.32
1011.91	221.33
1012.19	221.33
1012.48	221.33
1012.77	221.33
1013.05	221.37
1013.34	221.37
1013.63	221.36
1013.92	221.37
1014.20	221.36
1014.49	221.37
1014.78	221.38
1015.06	221.34
1015.35	221.34
1015.64	221.36
1015.92	221.37
1016.21	221.38
1016.50	221.38
1016.78	221.39
1017.07	221.40
1017.36	221.38
1017.64	221.37
1017.93	221.38
1018.22	221.37
1018.50	221.37
1018.79	221.36
1019.08	221.33
1019.36	221.33
1019.65	221.33
1019.93	221.35
1020.22	221.37
1020.51	221.42
1020.79	221.41
1021.08	221.22
1021.36	221.16
1021.65	221.37
1021.94	221.31
1022.22	221.44
1022.51	221.21
1022.79	221.85
1023.08	221.54
1023.36	222.62
1023.65	221.11
>>>>>End Processed Spectral Data<<<<<
