SpectraSuite Data File
++++++++++++++++++++++++++++++++++++
Date: Thu Oct 01 01:29:58 EDT 2015
User: lab3
Dark Spectrum Present: No
Reference Spectrum Present: No
Number of Sampled Component Spectra: 1
Spectrometers: USB2E7196
Integration Time (usec): 36000 (USB2E7196)
Spectra Averaged: 10000 (USB2E7196)
Boxcar Smoothing: 10 (USB2E7196)
Correct for Electrical Dark: No (USB2E7196)
Strobe/Lamp Enabled: No (USB2E7196)
Correct for Detector Non-linearity: No (USB2E7196)
Correct for Stray Light: No (USB2E7196)
Number of Pixels in Processed Spectrum: 2048
>>>>>Begin Processed Spectral Data<<<<<
339.09	0.00
339.48	211.47
339.86	212.94
340.24	214.32
340.63	215.77
341.01	218.69
341.39	218.40
341.78	219.79
342.16	221.00
342.54	221.43
342.93	209.99
343.31	220.60
343.69	221.14
344.07	221.60
344.46	222.03
344.84	222.42
345.22	222.65
345.60	222.91
345.99	223.11
346.37	223.25
346.75	223.36
347.13	223.43
347.52	223.51
347.90	223.59
348.28	223.63
348.66	223.69
349.05	223.69
349.43	223.74
349.81	223.80
350.19	223.85
350.57	223.92
350.96	224.00
351.34	224.09
351.72	224.19
352.10	224.30
352.48	224.37
352.87	224.42
353.25	224.49
353.63	224.55
354.01	224.62
354.39	224.69
354.77	224.77
355.15	224.87
355.54	224.92
355.92	224.95
356.30	225.03
356.68	225.16
357.06	225.23
357.44	225.28
357.82	225.34
358.20	225.45
358.58	225.51
358.97	225.58
359.35	225.66
359.73	225.74
360.11	225.79
360.49	225.84
360.87	225.89
361.25	225.96
361.63	226.04
362.01	226.08
362.39	226.11
362.77	226.16
363.15	226.18
363.53	226.22
363.91	226.26
364.29	226.28
364.67	226.20
365.05	226.23
365.43	226.26
365.81	226.29
366.19	226.30
366.57	226.35
366.95	226.35
367.33	226.33
367.71	226.32
368.09	226.34
368.47	226.33
368.85	226.32
369.23	226.33
369.61	226.27
369.99	226.29
370.37	226.28
370.75	226.34
371.13	226.31
371.51	226.27
371.89	226.25
372.27	226.22
372.65	226.20
373.03	226.16
373.41	226.11
373.78	226.07
374.16	225.97
374.54	225.89
374.92	225.84
375.30	225.79
375.68	225.73
376.06	225.68
376.44	225.63
376.82	225.59
377.19	225.53
377.57	225.48
377.95	225.39
378.33	225.34
378.71	225.19
379.09	225.15
379.47	225.11
379.84	225.04
380.22	224.98
380.60	224.91
380.98	224.86
381.36	224.80
381.73	224.74
382.11	224.71
382.49	224.66
382.87	224.60
383.25	224.56
383.62	224.63
384.00	224.56
384.38	224.52
384.76	224.50
385.13	224.49
385.51	224.45
385.89	224.40
386.27	224.36
386.64	224.33
387.02	224.29
387.40	224.25
387.78	224.22
388.15	224.19
388.53	224.16
388.91	224.13
389.29	224.09
389.66	224.09
390.04	224.05
390.42	224.04
390.79	224.03
391.17	224.01
391.55	223.88
391.92	223.87
392.30	223.86
392.68	223.83
393.05	223.81
393.43	223.80
393.81	223.81
394.18	223.79
394.56	223.79
394.94	223.82
395.31	223.82
395.69	223.86
396.06	223.88
396.44	223.91
396.82	223.92
397.19	223.99
397.57	224.00
397.95	224.04
398.32	224.04
398.70	224.08
399.07	224.14
399.45	224.17
399.82	224.21
400.20	224.25
400.58	224.31
400.95	224.32
401.33	224.39
401.70	224.53
402.08	224.61
402.45	224.69
402.83	224.79
403.20	224.89
403.58	224.97
403.95	225.09
404.33	225.22
404.71	225.35
405.08	225.53
405.46	225.67
405.83	225.83
406.21	226.00
406.58	226.19
406.96	226.38
407.33	226.59
407.70	226.83
408.08	227.16
408.45	227.44
408.83	227.76
409.20	228.04
409.58	228.29
409.95	228.63
410.33	229.01
410.70	229.36
411.08	229.78
411.45	230.22
411.82	230.66
412.20	231.17
412.57	231.77
412.95	232.25
413.32	232.87
413.69	233.50
414.07	234.18
414.44	234.91
414.82	235.66
415.19	236.54
415.56	237.44
415.94	238.36
416.31	239.40
416.68	240.44
417.06	241.65
417.43	242.78
417.81	244.09
418.18	245.42
418.55	246.87
418.93	248.38
419.30	249.96
419.67	251.65
420.04	253.38
420.42	255.18
420.79	257.27
421.16	259.38
421.54	261.53
421.91	263.77
422.28	266.10
422.66	268.62
423.03	271.01
423.40	273.52
423.77	276.21
424.15	278.97
424.52	281.84
424.89	284.95
425.26	288.04
425.64	290.91
426.01	294.13
426.38	297.43
426.75	300.82
427.13	304.30
427.50	307.94
427.87	311.71
428.24	315.53
428.61	319.18
428.99	323.11
429.36	327.43
429.73	331.56
430.10	335.67
430.47	339.87
430.85	344.19
431.22	348.80
431.59	353.53
431.96	358.13
432.33	363.23
432.70	368.06
433.08	373.77
433.45	379.16
433.82	384.47
434.19	390.40
434.56	396.22
434.93	401.83
435.30	407.38
435.68	413.62
436.05	419.73
436.42	425.85
436.79	431.41
437.16	437.41
437.53	443.85
437.90	450.27
438.27	456.56
438.64	463.37
439.01	469.53
439.38	475.16
439.75	480.60
440.13	486.81
440.50	492.72
440.87	497.38
441.24	502.50
441.61	508.15
441.98	512.30
442.35	517.24
442.72	522.30
443.09	527.14
443.46	530.28
443.83	532.59
444.20	534.56
444.57	537.43
444.94	539.15
445.31	540.93
445.68	542.52
446.05	543.71
446.42	543.59
446.79	543.36
447.16	543.18
447.53	543.03
447.90	541.23
448.27	539.54
448.64	536.85
449.01	535.08
449.37	531.22
449.74	527.70
450.11	523.16
450.48	518.16
450.85	513.12
451.22	508.85
451.59	504.66
451.96	500.87
452.33	495.29
452.70	490.32
453.07	484.25
453.43	478.17
453.80	472.29
454.17	466.63
454.54	461.39
454.91	455.46
455.28	449.88
455.65	444.62
456.02	439.01
456.38	434.50
456.75	428.67
457.12	423.96
457.49	419.21
457.86	414.67
458.23	410.71
458.59	406.32
458.96	401.80
459.33	397.83
459.70	393.77
460.07	390.68
460.43	387.04
460.80	383.63
461.17	380.62
461.54	377.38
461.91	374.35
462.27	371.26
462.64	368.74
463.01	365.86
463.38	362.95
463.74	360.32
464.11	357.97
464.48	355.85
464.85	353.59
465.21	351.85
465.58	349.93
465.95	347.71
466.32	345.94
466.68	344.21
467.05	342.47
467.42	340.79
467.78	338.98
468.15	337.31
468.52	336.07
468.88	334.44
469.25	332.95
469.62	331.77
469.98	330.50
470.35	329.35
470.72	328.32
471.08	327.28
471.45	326.41
471.82	325.46
472.18	324.46
472.55	323.81
472.92	323.02
473.28	322.40
473.65	321.76
474.02	321.16
474.38	320.67
474.75	320.39
475.11	319.98
475.48	319.83
475.85	319.67
476.21	319.63
476.58	319.64
476.94	319.84
477.31	319.96
477.67	320.12
478.04	320.39
478.41	320.73
478.77	321.20
479.14	321.54
479.50	322.11
479.87	322.80
480.23	323.50
480.60	324.17
480.96	324.87
481.33	325.83
481.69	326.79
482.06	327.74
482.42	328.64
482.79	329.72
483.15	330.95
483.52	332.33
483.88	333.67
484.25	335.08
484.61	336.57
484.98	338.16
485.34	339.95
485.71	341.80
486.07	343.78
486.44	345.74
486.80	347.91
487.17	350.15
487.53	352.60
487.90	355.16
488.26	357.93
488.62	360.85
488.99	363.78
489.35	366.83
489.72	370.14
490.08	373.61
490.44	377.18
490.81	380.91
491.17	384.73
491.54	388.82
491.90	393.01
492.26	397.53
492.63	402.27
492.99	407.20
493.36	412.25
493.72	417.58
494.08	423.06
494.45	428.84
494.81	434.81
495.17	440.92
495.54	447.37
495.90	454.14
496.26	461.04
496.63	468.18
496.99	475.61
497.35	483.42
497.72	491.51
498.08	499.75
498.44	508.26
498.80	517.33
499.17	526.61
499.53	536.23
499.89	546.07
500.26	556.09
500.62	566.40
500.98	577.39
501.34	588.52
501.71	600.19
502.07	612.08
502.43	624.38
502.79	636.99
503.16	650.02
503.52	663.23
503.88	676.83
504.24	690.87
504.60	705.16
504.97	719.84
505.33	734.92
505.69	750.91
506.05	767.08
506.41	783.24
506.78	799.72
507.14	816.69
507.50	834.25
507.86	852.23
508.22	870.45
508.59	888.71
508.95	907.67
509.31	927.08
509.67	947.20
510.03	967.53
510.39	988.07
510.75	1008.85
511.12	1029.94
511.48	1051.28
511.84	1072.78
512.20	1094.61
512.56	1117.54
512.92	1140.60
513.28	1163.40
513.64	1186.55
514.00	1210.12
514.37	1233.99
514.73	1257.93
515.09	1281.66
515.45	1305.83
515.81	1330.57
516.17	1355.33
516.53	1379.78
516.89	1404.29
517.25	1429.01
517.61	1453.88
517.97	1479.00
518.33	1503.88
518.69	1528.84
519.05	1554.10
519.41	1579.48
519.77	1605.10
520.13	1629.96
520.49	1655.03
520.85	1680.32
521.21	1705.51
521.57	1731.30
521.93	1756.41
522.29	1782.31
522.65	1807.96
523.01	1833.39
523.37	1858.05
523.73	1883.44
524.09	1909.00
524.45	1934.40
524.81	1959.29
525.17	1984.13
525.53	2008.52
525.89	2032.94
526.25	2057.60
526.61	2081.75
526.97	2106.17
527.33	2130.53
527.68	2154.60
528.04	2177.94
528.40	2201.09
528.76	2224.45
529.12	2246.72
529.48	2269.39
529.84	2290.24
530.20	2311.63
530.56	2332.62
530.91	2353.74
531.27	2374.31
531.63	2394.20
531.99	2413.64
532.35	2432.80
532.71	2452.06
533.07	2471.83
533.42	2490.16
533.78	2508.78
534.14	2527.38
534.50	2545.15
534.86	2563.57
535.21	2580.22
535.57	2596.63
535.93	2612.49
536.29	2627.03
536.65	2642.52
537.00	2656.76
537.36	2671.55
537.72	2685.31
538.08	2698.73
538.44	2711.00
538.79	2723.46
539.15	2734.31
539.51	2745.06
539.87	2755.41
540.22	2763.52
540.58	2771.91
540.94	2780.70
541.29	2788.18
541.65	2794.57
542.01	2800.44
542.37	2804.48
542.72	2810.56
543.08	2816.00
543.44	2821.19
543.79	2825.68
544.15	2829.08
544.51	2832.62
544.87	2835.22
545.22	2837.48
545.58	2838.75
545.94	2840.50
546.29	2840.79
546.65	2841.06
547.01	2841.52
547.36	2842.01
547.72	2842.76
548.07	2841.98
548.43	2840.63
548.79	2838.55
549.14	2836.45
549.50	2835.14
549.86	2832.64
550.21	2827.80
550.57	2823.46
550.92	2817.85
551.28	2812.78
551.64	2807.75
551.99	2802.97
552.35	2797.81
552.70	2792.17
553.06	2787.33
553.41	2782.00
553.77	2775.95
554.13	2770.83
554.48	2764.53
554.84	2756.78
555.19	2749.20
555.55	2741.06
555.90	2733.51
556.26	2726.93
556.61	2719.73
556.97	2710.21
557.32	2701.77
557.68	2693.58
558.03	2684.82
558.39	2676.68
558.74	2668.66
559.10	2659.49
559.45	2649.91
559.81	2640.72
560.16	2630.79
560.52	2620.54
560.87	2611.32
561.23	2601.67
561.58	2591.50
561.94	2581.08
562.29	2570.19
562.64	2559.89
563.00	2549.84
563.35	2539.63
563.71	2528.44
564.06	2516.90
564.42	2506.34
564.77	2495.44
565.12	2484.64
565.48	2473.67
565.83	2463.33
566.19	2453.02
566.54	2442.18
566.89	2430.57
567.25	2418.83
567.60	2407.93
567.96	2396.52
568.31	2383.69
568.66	2370.97
569.02	2359.28
569.37	2347.32
569.72	2335.89
570.08	2323.73
570.43	2311.07
570.78	2298.03
571.14	2284.91
571.49	2272.46
571.84	2260.37
572.20	2247.00
572.55	2233.99
572.90	2220.79
573.26	2206.56
573.61	2191.81
573.96	2177.47
574.31	2163.43
574.67	2149.68
575.02	2135.52
575.37	2120.88
575.72	2106.49
576.08	2092.67
576.43	2077.76
576.78	2063.03
577.13	2049.05
577.49	2035.07
577.84	2021.46
578.19	2007.03
578.54	1992.23
578.90	1976.98
579.25	1961.40
579.60	1947.27
579.95	1932.79
580.30	1918.33
580.66	1904.21
581.01	1889.78
581.36	1875.62
581.71	1862.08
582.06	1847.93
582.42	1833.96
582.77	1820.65
583.12	1806.97
583.47	1793.40
583.82	1780.00
584.17	1766.46
584.53	1752.76
584.88	1739.08
585.23	1725.00
585.58	1711.47
585.93	1698.36
586.28	1686.09
586.63	1673.54
586.98	1660.32
587.34	1647.31
587.69	1633.82
588.04	1620.69
588.39	1608.12
588.74	1595.02
589.09	1581.71
589.44	1568.40
589.79	1555.55
590.14	1542.69
590.49	1529.99
590.84	1517.17
591.19	1504.94
591.54	1492.21
591.89	1479.34
592.25	1466.78
592.60	1453.91
592.95	1441.58
593.30	1429.60
593.65	1417.32
594.00	1405.35
594.35	1394.04
594.70	1382.03
595.05	1371.06
595.40	1359.79
595.75	1347.98
596.10	1337.03
596.45	1326.26
596.80	1315.99
597.15	1305.51
597.50	1294.99
597.85	1284.73
598.19	1274.62
598.54	1263.90
598.89	1253.93
599.24	1244.24
599.59	1234.37
599.94	1225.51
600.29	1216.50
600.64	1207.23
600.99	1197.37
601.34	1188.01
601.69	1178.11
602.04	1169.22
602.39	1160.21
602.74	1151.44
603.08	1142.91
603.43	1133.89
603.78	1124.79
604.13	1115.78
604.48	1106.73
604.83	1097.93
605.18	1089.05
605.53	1080.09
605.87	1071.28
606.22	1062.72
606.57	1053.92
606.92	1045.22
607.27	1036.32
607.62	1027.54
607.96	1018.94
608.31	1011.39
608.66	1003.39
609.01	995.81
609.36	988.18
609.70	980.28
610.05	972.27
610.40	964.60
610.75	956.99
611.10	949.67
611.44	942.01
611.79	934.60
612.14	926.83
612.49	919.24
612.83	912.12
613.18	905.04
613.53	897.77
613.88	890.60
614.22	884.03
614.57	877.27
614.92	870.53
615.27	863.79
615.61	856.90
615.96	850.21
616.31	843.43
616.65	836.58
617.00	829.98
617.35	823.54
617.70	817.10
618.04	810.76
618.39	804.39
618.74	798.37
619.08	792.20
619.43	786.25
619.78	780.28
620.12	774.17
620.47	768.23
620.82	762.42
621.16	756.90
621.51	750.99
621.85	745.10
622.20	739.26
622.55	733.61
622.89	727.91
623.24	722.26
623.59	716.68
623.93	711.16
624.28	705.77
624.62	700.34
624.97	694.92
625.32	689.59
625.66	684.13
626.01	678.65
626.35	673.32
626.70	668.05
627.04	663.00
627.39	657.96
627.73	653.04
628.08	648.34
628.43	643.49
628.77	638.73
629.12	634.11
629.46	629.65
629.81	624.98
630.15	620.22
630.50	615.64
630.84	611.27
631.19	607.06
631.53	602.87
631.88	598.60
632.22	594.42
632.57	590.49
632.91	586.50
633.26	582.59
633.60	578.76
633.95	575.03
634.29	571.15
634.64	567.24
634.98	563.24
635.32	559.38
635.67	555.66
636.01	551.90
636.36	548.17
636.70	544.58
637.05	541.02
637.39	537.65
637.73	534.12
638.08	530.65
638.42	527.15
638.77	523.54
639.11	519.89
639.45	516.32
639.80	512.73
640.14	509.34
640.49	505.90
640.83	502.31
641.17	498.82
641.52	495.48
641.86	492.11
642.20	488.94
642.55	485.61
642.89	482.38
643.23	479.32
643.58	476.52
643.92	473.58
644.26	470.66
644.61	467.72
644.95	464.82
645.29	461.85
645.64	458.86
645.98	456.02
646.32	453.36
646.66	450.68
647.01	447.99
647.35	445.33
647.69	442.56
648.04	439.99
648.38	437.41
648.72	434.80
649.06	432.27
649.41	429.75
649.75	427.23
650.09	424.73
650.43	422.25
650.78	419.73
651.12	417.20
651.46	414.80
651.80	412.48
652.14	410.23
652.49	408.00
652.83	405.82
653.17	403.62
653.51	401.47
653.85	399.41
654.20	397.28
654.54	395.08
654.88	393.08
655.22	391.11
655.56	389.10
655.90	387.19
656.25	385.29
656.59	383.40
656.93	381.61
657.27	379.86
657.61	378.00
657.95	376.20
658.29	374.43
658.64	372.68
658.98	370.91
659.32	369.16
659.66	367.52
660.00	365.88
660.34	364.29
660.68	362.65
661.02	360.93
661.36	359.34
661.70	357.81
662.05	356.24
662.39	354.68
662.73	353.20
663.07	351.75
663.41	350.33
663.75	348.92
664.09	347.51
664.43	346.02
664.77	344.64
665.11	343.21
665.45	341.85
665.79	340.48
666.13	339.10
666.47	337.72
666.81	336.30
667.15	334.86
667.49	333.51
667.83	332.21
668.17	330.95
668.51	329.71
668.85	328.49
669.19	327.36
669.53	326.14
669.87	324.90
670.21	323.70
670.55	322.50
670.89	321.39
671.23	320.24
671.57	319.11
671.91	318.04
672.25	317.02
672.58	315.99
672.92	314.93
673.26	313.93
673.60	312.94
673.94	311.94
674.28	311.01
674.62	310.06
674.96	309.08
675.30	308.16
675.64	307.21
675.97	306.28
676.31	305.32
676.65	304.38
676.99	303.51
677.33	302.58
677.67	301.70
678.01	300.73
678.34	299.85
678.68	299.02
679.02	298.14
679.36	297.29
679.70	296.44
680.04	295.61
680.37	294.78
680.71	293.99
681.05	293.24
681.39	292.44
681.73	291.62
682.06	290.83
682.40	290.06
682.74	289.31
683.08	288.58
683.42	287.84
683.75	287.17
684.09	286.42
684.43	285.70
684.77	284.99
685.10	284.32
685.44	283.62
685.78	282.93
686.12	282.28
686.45	281.60
686.79	280.93
687.13	280.28
687.46	279.60
687.80	278.96
688.14	278.26
688.48	277.64
688.81	277.01
689.15	276.43
689.49	275.80
689.82	275.19
690.16	274.52
690.50	273.92
690.83	273.31
691.17	272.72
691.51	272.15
691.84	271.60
692.18	271.01
692.52	270.42
692.85	269.84
693.19	269.31
693.52	268.77
693.86	268.22
694.20	267.69
694.53	267.18
694.87	266.66
695.21	266.16
695.54	265.65
695.88	265.13
696.21	264.58
696.55	264.09
696.88	263.59
697.22	263.12
697.56	262.64
697.89	262.11
698.23	261.62
698.56	261.11
698.90	260.65
699.23	260.17
699.57	259.73
699.90	259.28
700.24	258.80
700.58	258.36
700.91	257.95
701.25	257.60
701.58	257.23
701.92	256.84
702.25	256.43
702.59	256.01
702.92	255.62
703.26	255.23
703.59	254.84
703.93	254.54
704.26	254.17
704.60	253.80
704.93	253.44
705.26	253.08
705.60	252.76
705.93	252.38
706.27	252.07
706.60	251.75
706.94	251.44
707.27	251.07
707.61	250.72
707.94	250.36
708.27	249.94
708.61	249.56
708.94	249.20
709.28	248.88
709.61	248.56
709.94	248.26
710.28	247.97
710.61	247.69
710.95	247.32
711.28	247.10
711.61	246.80
711.95	246.55
712.28	246.27
712.61	245.98
712.95	245.77
713.28	245.55
713.61	245.27
713.95	244.98
714.28	244.76
714.61	244.50
714.95	244.25
715.28	244.00
715.61	243.76
715.95	243.54
716.28	243.30
716.61	243.09
716.95	242.85
717.28	242.62
717.61	242.39
717.94	242.17
718.28	241.88
718.61	241.66
718.94	241.42
719.27	241.22
719.61	241.03
719.94	240.79
720.27	240.53
720.60	240.33
720.94	240.14
721.27	239.95
721.60	239.79
721.93	239.60
722.27	239.45
722.60	239.29
722.93	239.09
723.26	238.92
723.59	238.72
723.93	238.57
724.26	238.41
724.59	238.24
724.92	238.08
725.25	237.95
725.59	237.79
725.92	237.65
726.25	237.49
726.58	237.34
726.91	237.18
727.24	237.04
727.57	236.90
727.91	236.73
728.24	236.60
728.57	236.44
728.90	236.31
729.23	236.14
729.56	236.04
729.89	235.90
730.22	235.76
730.55	235.62
730.89	235.48
731.22	235.34
731.55	235.20
731.88	235.07
732.21	234.93
732.54	234.80
732.87	234.68
733.20	234.57
733.53	234.45
733.86	234.34
734.19	234.21
734.52	234.12
734.85	234.08
735.18	233.94
735.51	233.86
735.84	233.75
736.17	233.67
736.50	233.51
736.83	233.53
737.16	233.43
737.49	233.33
737.82	233.23
738.15	233.15
738.48	233.06
738.81	232.95
739.14	232.85
739.47	232.75
739.80	232.64
740.13	232.55
740.46	232.44
740.79	232.33
741.12	232.24
741.45	232.12
741.78	231.98
742.11	231.92
742.44	231.80
742.77	231.73
743.10	231.62
743.43	231.53
743.75	231.33
744.08	231.40
744.41	231.31
744.74	231.22
745.07	231.11
745.40	231.05
745.73	231.01
746.06	230.94
746.39	230.88
746.71	230.79
747.04	230.70
747.37	230.63
747.70	230.57
748.03	230.50
748.36	230.45
748.68	230.37
749.01	230.27
749.34	230.20
749.67	230.13
750.00	230.08
750.33	230.09
750.65	230.04
750.98	229.83
751.31	229.77
751.64	229.71
751.97	229.70
752.29	229.62
752.62	229.51
752.95	229.43
753.28	229.35
753.60	229.28
753.93	229.24
754.26	229.19
754.59	229.09
754.91	229.02
755.24	228.94
755.57	228.93
755.90	228.87
756.22	228.80
756.55	228.72
756.88	228.63
757.20	228.50
757.53	228.42
757.86	228.36
758.19	228.30
758.51	228.25
758.84	228.15
759.17	228.08
759.49	228.04
759.82	228.04
760.15	228.00
760.47	227.96
760.80	227.88
761.13	227.84
761.45	227.80
761.78	227.76
762.11	227.72
762.43	227.61
762.76	227.57
763.08	227.54
763.41	227.50
763.74	227.46
764.06	227.41
764.39	227.38
764.71	227.33
765.04	227.28
765.37	227.23
765.69	227.18
766.02	227.14
766.34	227.09
766.67	227.01
767.00	226.99
767.32	227.00
767.65	227.03
767.97	226.98
768.30	226.94
768.62	226.91
768.95	226.86
769.27	226.82
769.60	226.80
769.92	226.75
770.25	226.69
770.57	226.64
770.90	226.61
771.22	226.57
771.55	226.53
771.87	226.51
772.20	226.48
772.52	226.53
772.85	226.62
773.17	226.60
773.50	226.56
773.82	226.51
774.15	226.43
774.47	226.34
774.80	226.30
775.12	226.27
775.45	226.24
775.77	226.22
776.09	226.20
776.42	226.16
776.74	226.17
777.07	226.15
777.39	226.13
777.72	226.10
778.04	226.09
778.36	226.05
778.69	226.03
779.01	226.02
779.33	225.91
779.66	225.76
779.98	225.73
780.31	225.72
780.63	225.74
780.95	225.73
781.28	225.71
781.60	225.68
781.92	225.66
782.25	225.64
782.57	225.62
782.89	225.59
783.22	225.57
783.54	225.52
783.86	225.51
784.19	225.49
784.51	225.50
784.83	225.46
785.16	225.44
785.48	225.43
785.80	225.41
786.12	225.40
786.45	225.39
786.77	225.38
787.09	225.36
787.42	225.30
787.74	225.29
788.06	225.28
788.38	225.26
788.71	225.24
789.03	225.22
789.35	225.22
789.67	225.19
789.99	225.19
790.32	225.16
790.64	225.16
790.96	225.24
791.28	225.19
791.61	225.17
791.93	225.16
792.25	225.14
792.57	225.20
792.89	225.16
793.21	225.15
793.54	225.13
793.86	225.10
794.18	225.10
794.50	225.06
794.82	225.05
795.14	225.05
795.47	225.06
795.79	225.05
796.11	225.01
796.43	225.00
796.75	224.98
797.07	224.98
797.39	224.96
797.71	224.86
798.04	224.86
798.36	224.86
798.68	224.84
799.00	224.84
799.32	224.78
799.64	224.79
799.96	224.78
800.28	224.79
800.60	224.78
800.92	224.77
801.24	224.76
801.56	224.76
801.89	224.73
802.21	224.73
802.53	224.70
802.85	224.71
803.17	224.75
803.49	224.72
803.81	224.70
804.13	224.68
804.45	224.66
804.77	224.66
805.09	224.64
805.41	224.62
805.73	224.59
806.05	224.55
806.37	224.53
806.69	224.52
807.01	224.50
807.33	224.50
807.65	224.45
807.97	224.49
808.28	224.47
808.60	224.45
808.92	224.43
809.24	224.49
809.56	224.46
809.88	224.41
810.20	224.41
810.52	224.42
810.84	224.40
811.16	224.39
811.48	224.37
811.80	224.40
812.12	224.40
812.43	224.41
812.75	224.41
813.07	224.39
813.39	224.39
813.71	224.37
814.03	224.35
814.35	224.35
814.67	224.30
814.98	224.29
815.30	224.28
815.62	224.26
815.94	224.19
816.26	224.20
816.58	224.17
816.89	224.17
817.21	224.14
817.53	224.14
817.85	224.14
818.17	224.14
818.48	224.09
818.80	224.10
819.12	224.08
819.44	224.06
819.76	224.04
820.07	224.03
820.39	224.02
820.71	224.03
821.03	224.02
821.34	224.01
821.66	224.02
821.98	224.02
822.30	224.02
822.61	224.08
822.93	224.06
823.25	224.05
823.57	224.04
823.88	224.05
824.20	224.04
824.52	224.06
824.83	224.04
825.15	224.03
825.47	224.02
825.79	224.03
826.10	224.02
826.42	224.02
826.74	224.02
827.05	224.02
827.37	224.02
827.69	224.01
828.00	224.01
828.32	224.01
828.64	223.99
828.95	224.04
829.27	224.00
829.58	224.00
829.90	224.02
830.22	224.02
830.53	224.00
830.85	223.99
831.17	223.95
831.48	223.95
831.80	223.96
832.11	223.95
832.43	223.93
832.75	223.93
833.06	223.99
833.38	223.96
833.69	223.95
834.01	223.95
834.32	223.95
834.64	223.94
834.96	223.93
835.27	223.93
835.59	223.90
835.90	223.88
836.22	223.88
836.53	223.86
836.85	223.84
837.16	223.94
837.48	223.94
837.79	223.98
838.11	223.98
838.42	223.97
838.74	223.98
839.05	223.97
839.37	223.97
839.68	223.91
840.00	223.90
840.31	223.91
840.63	223.90
840.94	223.89
841.26	223.87
841.57	223.87
841.88	223.87
842.20	223.86
842.51	223.84
842.83	223.84
843.14	223.93
843.46	223.92
843.77	223.86
844.08	223.86
844.40	223.82
844.71	223.81
845.03	223.80
845.34	223.79
845.65	223.79
845.97	223.78
846.28	223.79
846.60	223.79
846.91	223.77
847.22	223.77
847.54	223.80
847.85	223.80
848.16	223.79
848.48	223.77
848.79	223.81
849.10	223.82
849.42	223.83
849.73	223.73
850.04	223.73
850.36	223.69
850.67	223.71
850.98	223.71
851.30	223.72
851.61	223.71
851.92	223.71
852.23	223.74
852.55	223.75
852.86	223.75
853.17	223.76
853.49	223.78
853.80	223.79
854.11	223.80
854.42	223.81
854.74	223.80
855.05	223.80
855.36	223.75
855.67	223.75
855.99	223.75
856.30	223.87
856.61	223.86
856.92	223.87
857.23	223.87
857.55	223.86
857.86	223.84
858.17	223.86
858.48	223.85
858.79	223.82
859.11	223.82
859.42	223.81
859.73	223.80
860.04	223.79
860.35	223.75
860.66	223.72
860.98	223.72
861.29	223.73
861.60	223.72
861.91	223.75
862.22	223.73
862.53	223.71
862.84	223.58
863.16	223.60
863.47	223.59
863.78	223.57
864.09	223.57
864.40	223.58
864.71	223.58
865.02	223.59
865.33	223.58
865.64	223.56
865.95	223.56
866.27	223.62
866.58	223.61
866.89	223.63
867.20	223.63
867.51	223.61
867.82	223.60
868.13	223.63
868.44	223.60
868.75	223.62
869.06	223.63
869.37	223.64
869.68	223.61
869.99	223.62
870.30	223.63
870.61	223.64
870.92	223.63
871.23	223.62
871.54	223.63
871.85	223.65
872.16	223.66
872.47	223.66
872.78	223.60
873.09	223.61
873.40	223.60
873.71	223.61
874.02	223.62
874.33	223.61
874.64	223.59
874.95	223.61
875.26	223.59
875.56	223.58
875.87	223.58
876.18	223.57
876.49	223.68
876.80	223.66
877.11	223.64
877.42	223.65
877.73	223.65
878.04	223.64
878.35	223.64
878.66	223.64
878.96	223.64
879.27	223.64
879.58	223.64
879.89	223.63
880.20	223.66
880.51	223.65
880.82	223.65
881.12	223.66
881.43	223.64
881.74	223.63
882.05	223.62
882.36	223.63
882.67	223.64
882.97	223.52
883.28	223.52
883.59	223.51
883.90	223.52
884.21	223.53
884.51	223.53
884.82	223.51
885.13	223.50
885.44	223.50
885.74	223.50
886.05	223.49
886.36	223.49
886.67	223.45
886.98	223.50
887.28	223.51
887.59	223.50
887.90	223.51
888.20	223.50
888.51	223.52
888.82	223.50
889.13	223.51
889.43	223.60
889.74	223.60
890.05	223.60
890.35	223.59
890.66	223.57
890.97	223.55
891.28	223.54
891.58	223.54
891.89	223.54
892.20	223.53
892.50	223.52
892.81	223.51
893.12	223.51
893.42	223.45
893.73	223.46
894.04	223.45
894.34	223.46
894.65	223.46
894.95	223.45
895.26	223.45
895.57	223.49
895.87	223.39
896.18	223.40
896.48	223.40
896.79	223.40
897.10	223.41
897.40	223.42
897.71	223.43
898.01	223.42
898.32	223.43
898.63	223.43
898.93	223.44
899.24	223.44
899.54	223.44
899.85	223.43
900.15	223.43
900.46	223.43
900.76	223.43
901.07	223.43
901.38	223.42
901.68	223.43
901.99	223.38
902.29	223.38
902.60	223.37
902.90	223.36
903.21	223.36
903.51	223.35
903.82	223.37
904.12	223.37
904.43	223.37
904.73	223.37
905.03	223.37
905.34	223.47
905.64	223.46
905.95	223.46
906.25	223.46
906.56	223.46
906.86	223.45
907.17	223.44
907.47	223.45
907.77	223.44
908.08	223.42
908.38	223.43
908.69	223.43
908.99	223.45
909.30	223.46
909.60	223.46
909.90	223.47
910.21	223.44
910.51	223.43
910.81	223.43
911.12	223.43
911.42	223.43
911.73	223.32
912.03	223.33
912.33	223.35
912.64	223.34
912.94	223.33
913.24	223.32
913.55	223.31
913.85	223.30
914.15	223.33
914.46	223.34
914.76	223.33
915.06	223.32
915.37	223.30
915.67	223.29
915.97	223.29
916.27	223.27
916.58	223.27
916.88	223.27
917.18	223.26
917.49	223.33
917.79	223.33
918.09	223.34
918.39	223.37
918.70	223.36
919.00	223.37
919.30	223.42
919.60	223.42
919.91	223.41
920.21	223.41
920.51	223.39
920.81	223.38
921.12	223.40
921.42	223.39
921.72	223.40
922.02	223.41
922.32	223.42
922.63	223.43
922.93	223.49
923.23	223.49
923.53	223.49
923.83	223.42
924.13	223.43
924.44	223.42
924.74	223.43
925.04	223.45
925.34	223.45
925.64	223.40
925.94	223.40
926.24	223.46
926.55	223.46
926.85	223.47
927.15	223.47
927.45	223.47
927.75	223.46
928.05	223.46
928.35	223.46
928.65	223.47
928.95	223.47
929.26	223.42
929.56	223.44
929.86	223.45
930.16	223.44
930.46	223.43
930.76	223.43
931.06	223.38
931.36	223.36
931.66	223.37
931.96	223.39
932.26	223.40
932.56	223.35
932.86	223.36
933.16	223.35
933.46	223.34
933.76	223.33
934.06	223.35
934.36	223.38
934.66	223.38
934.96	223.36
935.26	223.36
935.56	223.38
935.86	223.35
936.16	223.33
936.46	223.33
936.76	223.32
937.06	223.31
937.36	223.32
937.66	223.32
937.96	223.31
938.26	223.28
938.56	223.27
938.86	223.28
939.16	223.30
939.46	223.31
939.76	223.31
940.06	223.31
940.35	223.29
940.65	223.24
940.95	223.25
941.25	223.23
941.55	223.22
941.85	223.20
942.15	223.23
942.45	223.26
942.75	223.25
943.04	223.26
943.34	223.27
943.64	223.26
943.94	223.25
944.24	223.25
944.54	223.26
944.84	223.26
945.13	223.24
945.43	223.22
945.73	223.21
946.03	223.20
946.33	223.19
946.62	223.18
946.92	223.18
947.22	223.18
947.52	223.19
947.82	223.20
948.11	223.19
948.41	223.17
948.71	223.13
949.01	223.14
949.31	223.13
949.60	223.12
949.90	223.14
950.20	223.13
950.50	223.13
950.79	223.12
951.09	223.14
951.39	223.13
951.69	223.12
951.98	223.14
952.28	223.15
952.58	223.15
952.87	223.16
953.17	223.17
953.47	223.16
953.76	223.16
954.06	223.14
954.36	223.12
954.66	223.13
954.95	223.16
955.25	223.17
955.55	223.17
955.84	223.16
956.14	223.16
956.44	223.17
956.73	223.16
957.03	223.17
957.32	223.17
957.62	223.17
957.92	223.19
958.21	223.18
958.51	223.29
958.81	223.31
959.10	223.32
959.40	223.34
959.69	223.35
959.99	223.36
960.29	223.37
960.58	223.37
960.88	223.40
961.17	223.39
961.47	223.39
961.76	223.39
962.06	223.41
962.36	223.39
962.65	223.40
962.95	223.41
963.24	223.39
963.54	223.40
963.83	223.40
964.13	223.39
964.42	223.38
964.72	223.29
965.01	223.29
965.31	223.28
965.60	223.25
965.90	223.32
966.19	223.29
966.49	223.30
966.78	223.29
967.08	223.28
967.37	223.28
967.67	223.26
967.96	223.28
968.26	223.27
968.55	223.28
968.85	223.28
969.14	223.28
969.43	223.28
969.73	223.27
970.02	223.26
970.32	223.25
970.61	223.23
970.91	223.21
971.20	223.19
971.49	223.18
971.79	223.19
972.08	223.12
972.38	223.13
972.67	223.12
972.96	223.14
973.26	223.12
973.55	223.15
973.85	223.15
974.14	223.14
974.43	223.15
974.73	223.13
975.02	223.12
975.31	223.12
975.61	223.12
975.90	223.11
976.19	223.11
976.49	223.12
976.78	223.12
977.07	223.12
977.37	223.13
977.66	223.14
977.95	223.13
978.24	223.13
978.54	223.15
978.83	223.15
979.12	223.14
979.42	223.14
979.71	223.12
980.00	223.11
980.29	223.11
980.59	223.09
980.88	223.11
981.17	223.11
981.46	223.11
981.76	223.12
982.05	223.15
982.34	223.16
982.63	223.16
982.93	223.15
983.22	223.18
983.51	223.18
983.80	223.20
984.09	223.21
984.39	223.20
984.68	223.19
984.97	223.20
985.26	223.20
985.55	223.21
985.85	223.19
986.14	223.21
986.43	223.22
986.72	223.22
987.01	223.19
987.30	223.19
987.59	223.18
987.89	223.18
988.18	223.15
988.47	223.15
988.76	223.14
989.05	223.13
989.34	223.11
989.63	223.13
989.92	223.12
990.22	223.10
990.51	223.10
990.80	223.09
991.09	223.10
991.38	223.11
991.67	223.09
991.96	223.08
992.25	223.08
992.54	223.06
992.83	223.07
993.12	223.07
993.41	223.08
993.70	223.12
993.99	223.14
994.28	223.16
994.58	223.17
994.87	223.16
995.16	223.16
995.45	223.16
995.74	223.12
996.03	223.14
996.32	223.15
996.61	223.17
996.90	223.17
997.19	223.16
997.48	223.16
997.77	223.16
998.06	223.17
998.34	223.16
998.63	223.16
998.92	223.17
999.21	223.18
999.50	223.18
999.79	223.15
1000.08	223.14
1000.37	223.14
1000.66	223.13
1000.95	223.15
1001.24	223.16
1001.53	223.17
1001.82	223.17
1002.11	223.15
1002.40	223.15
1002.68	223.18
1002.97	223.25
1003.26	223.24
1003.55	223.22
1003.84	223.23
1004.13	223.26
1004.42	223.26
1004.71	223.26
1004.99	223.25
1005.28	223.27
1005.57	223.26
1005.86	223.25
1006.15	223.25
1006.44	223.23
1006.72	223.25
1007.01	223.23
1007.30	223.23
1007.59	223.22
1007.88	223.21
1008.17	223.22
1008.45	223.21
1008.74	223.16
1009.03	223.12
1009.32	223.12
1009.60	223.12
1009.89	223.11
1010.18	223.07
1010.47	223.06
1010.76	223.06
1011.04	223.06
1011.33	223.06
1011.62	223.07
1011.91	223.08
1012.19	223.08
1012.48	223.08
1012.77	223.08
1013.05	223.12
1013.34	223.11
1013.63	223.11
1013.92	223.12
1014.20	223.11
1014.49	223.12
1014.78	223.13
1015.06	223.10
1015.35	223.10
1015.64	223.12
1015.92	223.13
1016.21	223.14
1016.50	223.14
1016.78	223.15
1017.07	223.16
1017.36	223.14
1017.64	223.13
1017.93	223.14
1018.22	223.13
1018.50	223.13
1018.79	223.12
1019.08	223.08
1019.36	223.09
1019.65	223.08
1019.93	223.10
1020.22	223.12
1020.51	223.16
1020.79	223.15
1021.08	222.99
1021.36	222.92
1021.65	223.08
1021.94	223.03
1022.22	223.19
1022.51	222.89
1022.79	223.56
1023.08	223.23
1023.36	224.30
1023.65	222.85
>>>>>End Processed Spectral Data<<<<<
