SpectraSuite Data File
++++++++++++++++++++++++++++++++++++
Date: Wed Sep 30 22:25:40 EDT 2015
User: lab3
Dark Spectrum Present: No
Reference Spectrum Present: No
Number of Sampled Component Spectra: 1
Spectrometers: USB2E7196
Integration Time (usec): 36000 (USB2E7196)
Spectra Averaged: 10000 (USB2E7196)
Boxcar Smoothing: 10 (USB2E7196)
Correct for Electrical Dark: No (USB2E7196)
Strobe/Lamp Enabled: No (USB2E7196)
Correct for Detector Non-linearity: No (USB2E7196)
Correct for Stray Light: No (USB2E7196)
Number of Pixels in Processed Spectrum: 2048
>>>>>Begin Processed Spectral Data<<<<<
339.09	0.00
339.48	209.74
339.86	211.26
340.24	212.64
340.63	214.10
341.01	217.01
341.39	216.80
341.78	218.13
342.16	219.34
342.54	219.83
342.93	208.41
343.31	218.94
343.69	219.48
344.07	219.94
344.46	220.37
344.84	220.75
345.22	220.99
345.60	221.24
345.99	221.43
346.37	221.56
346.75	221.66
347.13	221.74
347.52	221.80
347.90	221.89
348.28	221.93
348.66	221.98
349.05	221.98
349.43	222.03
349.81	222.08
350.19	222.13
350.57	222.20
350.96	222.28
351.34	222.37
351.72	222.47
352.10	222.57
352.48	222.65
352.87	222.70
353.25	222.77
353.63	222.83
354.01	222.89
354.39	222.97
354.77	223.05
355.15	223.15
355.54	223.20
355.92	223.24
356.30	223.31
356.68	223.45
357.06	223.53
357.44	223.58
357.82	223.64
358.20	223.75
358.58	223.81
358.97	223.88
359.35	223.96
359.73	224.04
360.11	224.09
360.49	224.15
360.87	224.20
361.25	224.26
361.63	224.34
362.01	224.39
362.39	224.42
362.77	224.47
363.15	224.49
363.53	224.53
363.91	224.57
364.29	224.59
364.67	224.51
365.05	224.53
365.43	224.57
365.81	224.59
366.19	224.61
366.57	224.66
366.95	224.66
367.33	224.64
367.71	224.64
368.09	224.65
368.47	224.65
368.85	224.64
369.23	224.64
369.61	224.59
369.99	224.61
370.37	224.61
370.75	224.67
371.13	224.64
371.51	224.60
371.89	224.58
372.27	224.55
372.65	224.53
373.03	224.49
373.41	224.45
373.78	224.40
374.16	224.31
374.54	224.23
374.92	224.18
375.30	224.14
375.68	224.07
376.06	224.03
376.44	223.97
376.82	223.93
377.19	223.88
377.57	223.83
377.95	223.75
378.33	223.69
378.71	223.54
379.09	223.49
379.47	223.46
379.84	223.39
380.22	223.33
380.60	223.26
380.98	223.21
381.36	223.16
381.73	223.09
382.11	223.07
382.49	223.02
382.87	222.96
383.25	222.91
383.62	222.99
384.00	222.92
384.38	222.88
384.76	222.85
385.13	222.84
385.51	222.79
385.89	222.74
386.27	222.70
386.64	222.68
387.02	222.63
387.40	222.59
387.78	222.56
388.15	222.54
388.53	222.50
388.91	222.47
389.29	222.43
389.66	222.43
390.04	222.38
390.42	222.37
390.79	222.36
391.17	222.34
391.55	222.21
391.92	222.20
392.30	222.20
392.68	222.16
393.05	222.14
393.43	222.14
393.81	222.15
394.18	222.13
394.56	222.13
394.94	222.15
395.31	222.15
395.69	222.19
396.06	222.21
396.44	222.23
396.82	222.24
397.19	222.32
397.57	222.32
397.95	222.36
398.32	222.36
398.70	222.40
399.07	222.46
399.45	222.49
399.82	222.54
400.20	222.57
400.58	222.62
400.95	222.63
401.33	222.71
401.70	222.84
402.08	222.92
402.45	223.00
402.83	223.10
403.20	223.20
403.58	223.27
403.95	223.40
404.33	223.53
404.71	223.65
405.08	223.83
405.46	223.98
405.83	224.14
406.21	224.31
406.58	224.50
406.96	224.68
407.33	224.89
407.70	225.13
408.08	225.46
408.45	225.74
408.83	226.05
409.20	226.32
409.58	226.57
409.95	226.92
410.33	227.29
410.70	227.64
411.08	228.05
411.45	228.48
411.82	228.92
412.20	229.42
412.57	230.02
412.95	230.48
413.32	231.09
413.69	231.72
414.07	232.38
414.44	233.11
414.82	233.85
415.19	234.71
415.56	235.59
415.94	236.50
416.31	237.52
416.68	238.54
417.06	239.74
417.43	240.85
417.81	242.14
418.18	243.44
418.55	244.87
418.93	246.36
419.30	247.92
419.67	249.57
420.04	251.27
420.42	253.04
420.79	255.10
421.16	257.17
421.54	259.27
421.91	261.47
422.28	263.75
422.66	266.22
423.03	268.57
423.40	271.03
423.77	273.67
424.15	276.38
424.52	279.19
424.89	282.24
425.26	285.27
425.64	288.08
426.01	291.24
426.38	294.47
426.75	297.81
427.13	301.22
427.50	304.78
427.87	308.49
428.24	312.22
428.61	315.80
428.99	319.65
429.36	323.89
429.73	327.94
430.10	331.97
430.47	336.09
430.85	340.32
431.22	344.83
431.59	349.47
431.96	353.98
432.33	358.97
432.70	363.70
433.08	369.29
433.45	374.57
433.82	379.76
434.19	385.55
434.56	391.25
434.93	396.73
435.30	402.16
435.68	408.28
436.05	414.26
436.42	420.23
436.79	425.68
437.16	431.55
437.53	437.84
437.90	444.13
438.27	450.27
438.64	456.95
439.01	462.98
439.38	468.49
439.75	473.80
440.13	479.89
440.50	485.68
440.87	490.25
441.24	495.27
441.61	500.83
441.98	504.91
442.35	509.75
442.72	514.73
443.09	519.49
443.46	522.59
443.83	524.89
444.20	526.85
444.57	529.70
444.94	531.44
445.31	533.22
445.68	534.83
446.05	536.07
446.42	536.00
446.79	535.85
447.16	535.74
447.53	535.68
447.90	533.98
448.27	532.39
448.64	529.83
449.01	528.18
449.37	524.45
449.74	521.06
450.11	516.70
450.48	511.86
450.85	506.99
451.22	502.85
451.59	498.82
451.96	495.16
452.33	489.74
452.70	484.91
453.07	479.01
453.43	473.08
453.80	467.34
454.17	461.83
454.54	456.71
454.91	450.91
455.28	445.45
455.65	440.31
456.02	434.83
456.38	430.42
456.75	424.69
457.12	420.08
457.49	415.43
457.86	410.98
458.23	407.09
458.59	402.79
458.96	398.36
459.33	394.45
459.70	390.46
460.07	387.41
460.43	383.83
460.80	380.48
461.17	377.52
461.54	374.33
461.91	371.35
462.27	368.31
462.64	365.83
463.01	362.99
463.38	360.12
463.74	357.52
464.11	355.20
464.48	353.11
464.85	350.86
465.21	349.15
465.58	347.26
465.95	345.06
466.32	343.31
466.68	341.60
467.05	339.87
467.42	338.21
467.78	336.42
468.15	334.76
468.52	333.53
468.88	331.92
469.25	330.43
469.62	329.26
469.98	327.99
470.35	326.85
470.72	325.83
471.08	324.79
471.45	323.92
471.82	322.98
472.18	321.99
472.55	321.34
472.92	320.55
473.28	319.93
473.65	319.29
474.02	318.68
474.38	318.18
474.75	317.90
475.11	317.49
475.48	317.33
475.85	317.17
476.21	317.11
476.58	317.11
476.94	317.29
477.31	317.40
477.67	317.55
478.04	317.80
478.41	318.13
478.77	318.57
479.14	318.90
479.50	319.44
479.87	320.11
480.23	320.79
480.60	321.44
480.96	322.12
481.33	323.06
481.69	324.01
482.06	324.95
482.42	325.83
482.79	326.89
483.15	328.10
483.52	329.46
483.88	330.78
484.25	332.19
484.61	333.65
484.98	335.23
485.34	336.99
485.71	338.82
486.07	340.77
486.44	342.72
486.80	344.88
487.17	347.09
487.53	349.52
487.90	352.05
488.26	354.79
488.62	357.67
488.99	360.56
489.35	363.58
489.72	366.83
490.08	370.27
490.44	373.79
490.81	377.47
491.17	381.25
491.54	385.28
491.90	389.41
492.26	393.84
492.63	398.52
492.99	403.39
493.36	408.38
493.72	413.65
494.08	419.05
494.45	424.75
494.81	430.67
495.17	436.69
495.54	443.05
495.90	449.73
496.26	456.55
496.63	463.60
496.99	470.93
497.35	478.61
497.72	486.60
498.08	494.74
498.44	503.15
498.80	512.09
499.17	521.26
499.53	530.77
499.89	540.52
500.26	550.43
500.62	560.61
500.98	571.44
501.34	582.41
501.71	593.92
502.07	605.65
502.43	617.76
502.79	630.24
503.16	643.11
503.52	656.17
503.88	669.59
504.24	683.44
504.60	697.58
504.97	712.12
505.33	727.01
505.69	742.78
506.05	758.76
506.41	774.75
506.78	791.06
507.14	807.83
507.50	825.21
507.86	842.98
508.22	860.99
508.59	879.02
508.95	897.77
509.31	916.94
509.67	936.80
510.03	956.91
510.39	977.21
510.75	997.76
511.12	1018.59
511.48	1039.77
511.84	1061.02
512.20	1082.59
512.56	1105.21
512.92	1128.12
513.28	1150.77
513.64	1173.71
514.00	1197.04
514.37	1220.73
514.73	1244.40
515.09	1267.93
515.45	1291.84
515.81	1316.36
516.17	1340.94
516.53	1365.21
516.89	1389.55
517.25	1414.07
517.61	1438.77
517.97	1463.69
518.33	1488.33
518.69	1513.14
519.05	1538.21
519.41	1563.41
519.77	1588.87
520.13	1613.60
520.49	1638.48
520.85	1663.55
521.21	1688.59
521.57	1714.23
521.93	1739.14
522.29	1764.94
522.65	1790.44
523.01	1815.77
523.37	1840.39
523.73	1865.60
524.09	1890.95
524.45	1916.28
524.81	1941.15
525.17	1965.92
525.53	1990.27
525.89	2014.69
526.25	2039.30
526.61	2063.33
526.97	2087.72
527.33	2112.00
527.68	2136.15
528.04	2159.40
528.40	2182.56
528.76	2205.91
529.12	2228.22
529.48	2250.91
529.84	2271.74
530.20	2293.17
530.56	2314.29
530.91	2335.45
531.27	2356.14
531.63	2376.24
531.99	2395.77
532.35	2414.94
532.71	2434.21
533.07	2454.16
533.42	2472.47
533.78	2491.25
534.14	2509.94
534.50	2527.83
534.86	2546.35
535.21	2563.02
535.57	2579.76
535.93	2595.61
536.29	2610.32
536.65	2625.79
537.00	2640.18
537.36	2655.07
537.72	2668.89
538.08	2682.49
538.44	2694.90
538.79	2707.49
539.15	2718.44
539.51	2729.33
539.87	2739.90
540.22	2748.39
540.58	2756.84
540.94	2766.01
541.29	2773.54
541.65	2780.17
542.01	2786.24
542.37	2790.44
542.72	2796.54
543.08	2802.08
543.44	2807.58
543.79	2812.10
544.15	2815.92
544.51	2819.62
544.87	2822.51
545.22	2824.92
545.58	2826.27
545.94	2828.10
546.29	2828.52
546.65	2829.15
547.01	2829.70
547.36	2830.46
547.72	2831.32
548.07	2830.76
548.43	2829.48
548.79	2827.62
549.14	2825.86
549.50	2824.52
549.86	2822.53
550.21	2817.96
550.57	2813.87
550.92	2808.36
551.28	2803.52
551.64	2798.44
551.99	2793.90
552.35	2788.88
552.70	2783.46
553.06	2778.79
553.41	2773.65
553.77	2767.93
554.13	2762.75
554.48	2756.85
554.84	2749.16
555.19	2741.63
555.55	2733.51
555.90	2725.94
556.26	2719.42
556.61	2712.24
556.97	2703.01
557.32	2694.49
557.68	2686.55
558.03	2677.85
558.39	2669.81
558.74	2662.07
559.10	2653.02
559.45	2643.68
559.81	2634.63
560.16	2624.95
560.52	2614.71
560.87	2605.48
561.23	2595.94
561.58	2585.92
561.94	2575.61
562.29	2564.87
562.64	2554.66
563.00	2544.83
563.35	2534.87
563.71	2524.01
564.06	2512.55
564.42	2502.18
564.77	2491.39
565.12	2480.72
565.48	2469.79
565.83	2459.54
566.19	2449.23
566.54	2438.68
566.89	2427.03
567.25	2415.40
567.60	2404.64
567.96	2393.46
568.31	2380.90
568.66	2368.16
569.02	2356.50
569.37	2344.66
569.72	2333.32
570.08	2321.26
570.43	2308.67
570.78	2295.79
571.14	2282.66
571.49	2270.36
571.84	2258.32
572.20	2244.99
572.55	2232.03
572.90	2218.95
573.26	2205.06
573.61	2190.58
573.96	2176.27
574.31	2162.40
574.67	2148.76
575.02	2134.66
575.37	2120.15
575.72	2105.92
576.08	2092.35
576.43	2077.72
576.78	2063.02
577.13	2049.14
577.49	2035.40
577.84	2022.00
578.19	2007.75
578.54	1993.11
578.90	1977.95
579.25	1962.52
579.60	1948.55
579.95	1934.21
580.30	1919.87
580.66	1905.79
581.01	1891.29
581.36	1877.21
581.71	1863.68
582.06	1849.67
582.42	1835.64
582.77	1822.43
583.12	1808.90
583.47	1795.33
583.82	1781.90
584.17	1768.40
584.53	1754.71
584.88	1740.97
585.23	1726.96
585.58	1713.44
585.93	1700.34
586.28	1688.03
586.63	1675.61
586.98	1662.42
587.34	1649.51
587.69	1636.07
588.04	1622.79
588.39	1610.28
588.74	1597.26
589.09	1583.97
589.44	1570.62
589.79	1557.91
590.14	1545.00
590.49	1532.25
590.84	1519.43
591.19	1507.28
591.54	1494.60
591.89	1481.78
592.25	1469.33
592.60	1456.41
592.95	1444.08
593.30	1432.02
593.65	1419.81
594.00	1407.70
594.35	1396.48
594.70	1384.37
595.05	1373.37
595.40	1362.27
595.75	1350.51
596.10	1339.51
596.45	1328.72
596.80	1318.42
597.15	1307.86
597.50	1297.34
597.85	1287.03
598.19	1276.89
598.54	1266.14
598.89	1256.12
599.24	1246.44
599.59	1236.49
599.94	1227.57
600.29	1218.55
600.64	1209.32
600.99	1199.51
601.34	1190.19
601.69	1180.20
602.04	1171.34
602.39	1162.30
602.74	1153.50
603.08	1144.94
603.43	1135.91
603.78	1126.73
604.13	1117.73
604.48	1108.66
604.83	1099.87
605.18	1090.97
605.53	1082.03
605.87	1073.19
606.22	1064.66
606.57	1055.84
606.92	1047.08
607.27	1038.22
607.62	1029.42
607.96	1020.81
608.31	1013.16
608.66	1005.11
609.01	997.50
609.36	989.83
609.70	981.96
610.05	973.89
610.40	966.19
610.75	958.63
611.10	951.37
611.44	943.67
611.79	936.29
612.14	928.53
612.49	920.89
612.83	913.75
613.18	906.68
613.53	899.42
613.88	892.22
614.22	885.62
614.57	878.87
614.92	872.08
615.27	865.31
615.61	858.41
615.96	851.74
616.31	844.99
616.65	838.13
617.00	831.51
617.35	825.04
617.70	818.59
618.04	812.20
618.39	805.84
618.74	799.81
619.08	793.59
619.43	787.65
619.78	781.76
620.12	775.64
620.47	769.68
620.82	763.77
621.16	758.22
621.51	752.32
621.85	746.41
622.20	740.54
622.55	734.88
622.89	729.17
623.24	723.49
623.59	717.90
623.93	712.34
624.28	706.92
624.62	701.49
624.97	696.04
625.32	690.71
625.66	685.24
626.01	679.78
626.35	674.47
626.70	669.16
627.04	664.02
627.39	658.95
627.73	654.00
628.08	649.28
628.43	644.44
628.77	639.69
629.12	635.04
629.46	630.59
629.81	625.96
630.15	621.19
630.50	616.57
630.84	612.14
631.19	607.91
631.53	603.73
631.88	599.42
632.22	595.22
632.57	591.27
632.91	587.27
633.26	583.35
633.60	579.51
633.95	575.78
634.29	571.91
634.64	567.99
634.98	563.97
635.32	560.12
635.67	556.40
636.01	552.61
636.36	548.87
636.70	545.26
637.05	541.64
637.39	538.24
637.73	534.71
638.08	531.24
638.42	527.75
638.77	524.11
639.11	520.49
639.45	516.89
639.80	513.27
640.14	509.85
640.49	506.39
640.83	502.82
641.17	499.28
641.52	495.92
641.86	492.56
642.20	489.37
642.55	486.03
642.89	482.75
643.23	479.70
643.58	476.87
643.92	473.92
644.26	471.02
644.61	468.09
644.95	465.17
645.29	462.20
645.64	459.20
645.98	456.33
646.32	453.62
646.66	450.94
647.01	448.22
647.35	445.54
647.69	442.76
648.04	440.11
648.38	437.51
648.72	434.86
649.06	432.28
649.41	429.73
649.75	427.19
650.09	424.67
650.43	422.16
650.78	419.62
651.12	417.08
651.46	414.62
651.80	412.28
652.14	410.01
652.49	407.76
652.83	405.55
653.17	403.34
653.51	401.19
653.85	399.12
654.20	396.98
654.54	394.76
654.88	392.72
655.22	390.76
655.56	388.75
655.90	386.84
656.25	384.95
656.59	383.05
656.93	381.24
657.27	379.48
657.61	377.62
657.95	375.82
658.29	374.03
658.64	372.28
658.98	370.49
659.32	368.73
659.66	367.07
660.00	365.44
660.34	363.83
660.68	362.16
661.02	360.43
661.36	358.81
661.70	357.27
662.05	355.72
662.39	354.14
662.73	352.66
663.07	351.20
663.41	349.75
663.75	348.33
664.09	346.92
664.43	345.43
664.77	344.04
665.11	342.59
665.45	341.20
665.79	339.82
666.13	338.44
666.47	337.03
666.81	335.61
667.15	334.14
667.49	332.79
667.83	331.49
668.17	330.22
668.51	328.98
668.85	327.76
669.19	326.60
669.53	325.38
669.87	324.13
670.21	322.92
670.55	321.72
670.89	320.59
671.23	319.44
671.57	318.30
671.91	317.21
672.25	316.18
672.58	315.15
672.92	314.08
673.26	313.08
673.60	312.09
673.94	311.09
674.28	310.15
674.62	309.20
674.96	308.22
675.30	307.30
675.64	306.35
675.97	305.42
676.31	304.45
676.65	303.50
676.99	302.62
677.33	301.67
677.67	300.78
678.01	299.81
678.34	298.91
678.68	298.07
679.02	297.20
679.36	296.34
679.70	295.48
680.04	294.66
680.37	293.82
680.71	293.01
681.05	292.25
681.39	291.46
681.73	290.62
682.06	289.82
682.40	289.04
682.74	288.28
683.08	287.55
683.42	286.79
683.75	286.11
684.09	285.36
684.43	284.65
684.77	283.93
685.10	283.26
685.44	282.57
685.78	281.87
686.12	281.20
686.45	280.52
686.79	279.85
687.13	279.19
687.46	278.52
687.80	277.86
688.14	277.17
688.48	276.53
688.81	275.90
689.15	275.32
689.49	274.68
689.82	274.07
690.16	273.41
690.50	272.80
690.83	272.20
691.17	271.61
691.51	271.04
691.84	270.48
692.18	269.90
692.52	269.30
692.85	268.72
693.19	268.18
693.52	267.63
693.86	267.09
694.20	266.55
694.53	266.03
694.87	265.50
695.21	265.00
695.54	264.49
695.88	263.97
696.21	263.42
696.55	262.92
696.88	262.42
697.22	261.94
697.56	261.46
697.89	260.92
698.23	260.42
698.56	259.90
698.90	259.43
699.23	258.95
699.57	258.50
699.90	258.05
700.24	257.56
700.58	257.12
700.91	256.71
701.25	256.37
701.58	255.99
701.92	255.60
702.25	255.19
702.59	254.77
702.92	254.37
703.26	253.98
703.59	253.58
703.93	253.27
704.26	252.90
704.60	252.52
704.93	252.16
705.26	251.80
705.60	251.47
705.93	251.09
706.27	250.78
706.60	250.46
706.94	250.14
707.27	249.77
707.61	249.42
707.94	249.05
708.27	248.62
708.61	248.23
708.94	247.87
709.28	247.54
709.61	247.22
709.94	246.92
710.28	246.62
710.61	246.33
710.95	245.95
711.28	245.73
711.61	245.44
711.95	245.18
712.28	244.90
712.61	244.60
712.95	244.39
713.28	244.16
713.61	243.87
713.95	243.59
714.28	243.35
714.61	243.09
714.95	242.84
715.28	242.59
715.61	242.34
715.95	242.11
716.28	241.87
716.61	241.66
716.95	241.42
717.28	241.19
717.61	240.96
717.94	240.73
718.28	240.43
718.61	240.21
718.94	239.97
719.27	239.75
719.61	239.56
719.94	239.32
720.27	239.06
720.60	238.85
720.94	238.65
721.27	238.47
721.60	238.30
721.93	238.11
722.27	237.96
722.60	237.80
722.93	237.60
723.26	237.42
723.59	237.22
723.93	237.06
724.26	236.90
724.59	236.72
724.92	236.56
725.25	236.43
725.59	236.27
725.92	236.13
726.25	235.98
726.58	235.83
726.91	235.66
727.24	235.53
727.57	235.38
727.91	235.21
728.24	235.08
728.57	234.92
728.90	234.78
729.23	234.61
729.56	234.51
729.89	234.37
730.22	234.22
730.55	234.08
730.89	233.94
731.22	233.79
731.55	233.66
731.88	233.53
732.21	233.38
732.54	233.25
732.87	233.13
733.20	233.01
733.53	232.89
733.86	232.78
734.19	232.65
734.52	232.55
734.85	232.51
735.18	232.38
735.51	232.29
735.84	232.18
736.17	232.10
736.50	231.94
736.83	231.96
737.16	231.86
737.49	231.77
737.82	231.66
738.15	231.58
738.48	231.49
738.81	231.38
739.14	231.27
739.47	231.17
739.80	231.06
740.13	230.97
740.46	230.86
740.79	230.75
741.12	230.66
741.45	230.54
741.78	230.39
742.11	230.32
742.44	230.21
742.77	230.13
743.10	230.02
743.43	229.93
743.75	229.73
744.08	229.80
744.41	229.71
744.74	229.62
745.07	229.51
745.40	229.45
745.73	229.41
746.06	229.34
746.39	229.28
746.71	229.20
747.04	229.11
747.37	229.03
747.70	228.97
748.03	228.90
748.36	228.85
748.68	228.78
749.01	228.68
749.34	228.60
749.67	228.54
750.00	228.48
750.33	228.50
750.65	228.44
750.98	228.22
751.31	228.15
751.64	228.09
751.97	228.08
752.29	228.00
752.62	227.88
752.95	227.81
753.28	227.72
753.60	227.65
753.93	227.61
754.26	227.56
754.59	227.46
754.91	227.39
755.24	227.30
755.57	227.29
755.90	227.23
756.22	227.16
756.55	227.08
756.88	227.00
757.20	226.86
757.53	226.78
757.86	226.72
758.19	226.67
758.51	226.61
758.84	226.51
759.17	226.45
759.49	226.40
759.82	226.40
760.15	226.37
760.47	226.32
760.80	226.24
761.13	226.20
761.45	226.16
761.78	226.12
762.11	226.07
762.43	225.97
762.76	225.93
763.08	225.90
763.41	225.86
763.74	225.82
764.06	225.77
764.39	225.74
764.71	225.69
765.04	225.64
765.37	225.59
765.69	225.55
766.02	225.51
766.34	225.46
766.67	225.38
767.00	225.35
767.32	225.37
767.65	225.39
767.97	225.34
768.30	225.31
768.62	225.27
768.95	225.22
769.27	225.18
769.60	225.16
769.92	225.10
770.25	225.05
770.57	225.00
770.90	224.97
771.22	224.92
771.55	224.89
771.87	224.87
772.20	224.84
772.52	224.90
772.85	224.99
773.17	224.96
773.50	224.93
773.82	224.88
774.15	224.80
774.47	224.70
774.80	224.66
775.12	224.64
775.45	224.61
775.77	224.58
776.09	224.56
776.42	224.54
776.74	224.54
777.07	224.51
777.39	224.49
777.72	224.45
778.04	224.44
778.36	224.40
778.69	224.38
779.01	224.36
779.33	224.24
779.66	224.10
779.98	224.07
780.31	224.05
780.63	224.07
780.95	224.07
781.28	224.05
781.60	224.02
781.92	224.00
782.25	223.98
782.57	223.96
782.89	223.93
783.22	223.90
783.54	223.86
783.86	223.85
784.19	223.83
784.51	223.84
784.83	223.81
785.16	223.79
785.48	223.77
785.80	223.75
786.12	223.75
786.45	223.74
786.77	223.73
787.09	223.70
787.42	223.64
787.74	223.63
788.06	223.62
788.38	223.60
788.71	223.58
789.03	223.57
789.35	223.56
789.67	223.54
789.99	223.53
790.32	223.50
790.64	223.50
790.96	223.58
791.28	223.53
791.61	223.51
791.93	223.51
792.25	223.49
792.57	223.54
792.89	223.51
793.21	223.50
793.54	223.47
793.86	223.45
794.18	223.44
794.50	223.40
794.82	223.39
795.14	223.38
795.47	223.39
795.79	223.38
796.11	223.34
796.43	223.33
796.75	223.32
797.07	223.31
797.39	223.29
797.71	223.19
798.04	223.19
798.36	223.18
798.68	223.17
799.00	223.16
799.32	223.10
799.64	223.11
799.96	223.09
800.28	223.10
800.60	223.08
800.92	223.08
801.24	223.07
801.56	223.07
801.89	223.05
802.21	223.04
802.53	223.00
802.85	223.02
803.17	223.06
803.49	223.03
803.81	223.01
804.13	222.99
804.45	222.97
804.77	222.97
805.09	222.96
805.41	222.94
805.73	222.91
806.05	222.87
806.37	222.86
806.69	222.84
807.01	222.82
807.33	222.82
807.65	222.77
807.97	222.81
808.28	222.79
808.60	222.78
808.92	222.75
809.24	222.81
809.56	222.78
809.88	222.74
810.20	222.74
810.52	222.75
810.84	222.73
811.16	222.71
811.48	222.70
811.80	222.73
812.12	222.72
812.43	222.73
812.75	222.74
813.07	222.72
813.39	222.72
813.71	222.71
814.03	222.69
814.35	222.69
814.67	222.64
814.98	222.63
815.30	222.62
815.62	222.60
815.94	222.53
816.26	222.53
816.58	222.50
816.89	222.51
817.21	222.47
817.53	222.47
817.85	222.47
818.17	222.47
818.48	222.42
818.80	222.44
819.12	222.41
819.44	222.39
819.76	222.37
820.07	222.37
820.39	222.37
820.71	222.37
821.03	222.37
821.34	222.36
821.66	222.36
821.98	222.37
822.30	222.36
822.61	222.42
822.93	222.40
823.25	222.39
823.57	222.38
823.88	222.39
824.20	222.38
824.52	222.39
824.83	222.39
825.15	222.37
825.47	222.36
825.79	222.36
826.10	222.36
826.42	222.35
826.74	222.35
827.05	222.34
827.37	222.34
827.69	222.32
828.00	222.33
828.32	222.33
828.64	222.31
828.95	222.37
829.27	222.33
829.58	222.33
829.90	222.35
830.22	222.35
830.53	222.33
830.85	222.32
831.17	222.29
831.48	222.28
831.80	222.29
832.11	222.28
832.43	222.26
832.75	222.26
833.06	222.32
833.38	222.29
833.69	222.28
834.01	222.29
834.32	222.28
834.64	222.27
834.96	222.26
835.27	222.26
835.59	222.22
835.90	222.20
836.22	222.19
836.53	222.17
836.85	222.15
837.16	222.26
837.48	222.26
837.79	222.29
838.11	222.29
838.42	222.29
838.74	222.30
839.05	222.29
839.37	222.29
839.68	222.22
840.00	222.22
840.31	222.24
840.63	222.23
840.94	222.21
841.26	222.20
841.57	222.20
841.88	222.20
842.20	222.18
842.51	222.16
842.83	222.16
843.14	222.26
843.46	222.25
843.77	222.19
844.08	222.18
844.40	222.14
844.71	222.13
845.03	222.12
845.34	222.11
845.65	222.11
845.97	222.10
846.28	222.11
846.60	222.11
846.91	222.09
847.22	222.08
847.54	222.11
847.85	222.11
848.16	222.10
848.48	222.08
848.79	222.12
849.10	222.13
849.42	222.13
849.73	222.03
850.04	222.03
850.36	222.00
850.67	222.01
850.98	222.02
851.30	222.03
851.61	222.03
851.92	222.02
852.23	222.05
852.55	222.06
852.86	222.06
853.17	222.06
853.49	222.08
853.80	222.10
854.11	222.10
854.42	222.12
854.74	222.11
855.05	222.12
855.36	222.06
855.67	222.06
855.99	222.06
856.30	222.19
856.61	222.18
856.92	222.19
857.23	222.19
857.55	222.17
857.86	222.16
858.17	222.18
858.48	222.16
858.79	222.14
859.11	222.14
859.42	222.14
859.73	222.13
860.04	222.12
860.35	222.09
860.66	222.05
860.98	222.04
861.29	222.06
861.60	222.05
861.91	222.07
862.22	222.05
862.53	222.04
862.84	221.91
863.16	221.93
863.47	221.91
863.78	221.89
864.09	221.90
864.40	221.91
864.71	221.91
865.02	221.92
865.33	221.91
865.64	221.89
865.95	221.89
866.27	221.95
866.58	221.94
866.89	221.95
867.20	221.96
867.51	221.94
867.82	221.94
868.13	221.97
868.44	221.94
868.75	221.96
869.06	221.97
869.37	221.98
869.68	221.96
869.99	221.97
870.30	221.98
870.61	221.99
870.92	221.97
871.23	221.96
871.54	221.97
871.85	221.99
872.16	222.00
872.47	221.99
872.78	221.94
873.09	221.95
873.40	221.93
873.71	221.94
874.02	221.95
874.33	221.94
874.64	221.91
874.95	221.93
875.26	221.91
875.56	221.90
875.87	221.90
876.18	221.90
876.49	222.00
876.80	221.99
877.11	221.97
877.42	221.97
877.73	221.98
878.04	221.96
878.35	221.96
878.66	221.96
878.96	221.96
879.27	221.95
879.58	221.94
879.89	221.94
880.20	221.97
880.51	221.96
880.82	221.96
881.12	221.97
881.43	221.94
881.74	221.93
882.05	221.92
882.36	221.93
882.67	221.93
882.97	221.82
883.28	221.81
883.59	221.81
883.90	221.82
884.21	221.83
884.51	221.82
884.82	221.81
885.13	221.81
885.44	221.81
885.74	221.81
886.05	221.80
886.36	221.80
886.67	221.76
886.98	221.81
887.28	221.82
887.59	221.82
887.90	221.82
888.20	221.82
888.51	221.83
888.82	221.81
889.13	221.82
889.43	221.91
889.74	221.91
890.05	221.90
890.35	221.89
890.66	221.87
890.97	221.86
891.28	221.85
891.58	221.84
891.89	221.84
892.20	221.83
892.50	221.82
892.81	221.82
893.12	221.81
893.42	221.76
893.73	221.76
894.04	221.76
894.34	221.77
894.65	221.76
894.95	221.75
895.26	221.76
895.57	221.79
895.87	221.69
896.18	221.70
896.48	221.71
896.79	221.71
897.10	221.72
897.40	221.73
897.71	221.74
898.01	221.73
898.32	221.74
898.63	221.74
898.93	221.75
899.24	221.75
899.54	221.74
899.85	221.74
900.15	221.74
900.46	221.73
900.76	221.74
901.07	221.74
901.38	221.73
901.68	221.75
901.99	221.70
902.29	221.71
902.60	221.70
902.90	221.69
903.21	221.69
903.51	221.68
903.82	221.70
904.12	221.70
904.43	221.70
904.73	221.69
905.03	221.70
905.34	221.80
905.64	221.79
905.95	221.80
906.25	221.79
906.56	221.79
906.86	221.79
907.17	221.78
907.47	221.79
907.77	221.78
908.08	221.76
908.38	221.76
908.69	221.76
908.99	221.78
909.30	221.79
909.60	221.79
909.90	221.80
910.21	221.76
910.51	221.75
910.81	221.75
911.12	221.75
911.42	221.75
911.73	221.64
912.03	221.65
912.33	221.67
912.64	221.67
912.94	221.65
913.24	221.64
913.55	221.63
913.85	221.62
914.15	221.64
914.46	221.65
914.76	221.65
915.06	221.64
915.37	221.63
915.67	221.62
915.97	221.62
916.27	221.59
916.58	221.61
916.88	221.61
917.18	221.60
917.49	221.66
917.79	221.66
918.09	221.67
918.39	221.70
918.70	221.69
919.00	221.70
919.30	221.75
919.60	221.75
919.91	221.74
920.21	221.75
920.51	221.72
920.81	221.72
921.12	221.73
921.42	221.73
921.72	221.73
922.02	221.74
922.32	221.75
922.63	221.76
922.93	221.81
923.23	221.82
923.53	221.81
923.83	221.75
924.13	221.76
924.44	221.75
924.74	221.77
925.04	221.79
925.34	221.78
925.64	221.74
925.94	221.74
926.24	221.80
926.55	221.78
926.85	221.80
927.15	221.80
927.45	221.80
927.75	221.80
928.05	221.80
928.35	221.79
928.65	221.81
928.95	221.81
929.26	221.77
929.56	221.78
929.86	221.80
930.16	221.79
930.46	221.78
930.76	221.79
931.06	221.74
931.36	221.71
931.66	221.73
931.96	221.74
932.26	221.75
932.56	221.70
932.86	221.71
933.16	221.71
933.46	221.70
933.76	221.69
934.06	221.71
934.36	221.74
934.66	221.74
934.96	221.72
935.26	221.73
935.56	221.74
935.86	221.71
936.16	221.70
936.46	221.69
936.76	221.68
937.06	221.67
937.36	221.68
937.66	221.68
937.96	221.67
938.26	221.65
938.56	221.64
938.86	221.65
939.16	221.67
939.46	221.68
939.76	221.69
940.06	221.68
940.35	221.66
940.65	221.61
940.95	221.62
941.25	221.60
941.55	221.58
941.85	221.58
942.15	221.60
942.45	221.63
942.75	221.62
943.04	221.63
943.34	221.65
943.64	221.64
943.94	221.62
944.24	221.62
944.54	221.63
944.84	221.63
945.13	221.62
945.43	221.60
945.73	221.59
946.03	221.58
946.33	221.57
946.62	221.56
946.92	221.56
947.22	221.57
947.52	221.57
947.82	221.58
948.11	221.57
948.41	221.54
948.71	221.51
949.01	221.52
949.31	221.51
949.60	221.49
949.90	221.51
950.20	221.50
950.50	221.50
950.79	221.49
951.09	221.50
951.39	221.50
951.69	221.49
951.98	221.51
952.28	221.52
952.58	221.52
952.87	221.52
953.17	221.53
953.47	221.52
953.76	221.51
954.06	221.49
954.36	221.48
954.66	221.48
954.95	221.52
955.25	221.52
955.55	221.52
955.84	221.51
956.14	221.51
956.44	221.52
956.73	221.51
957.03	221.51
957.32	221.51
957.62	221.50
957.92	221.52
958.21	221.51
958.51	221.63
958.81	221.64
959.10	221.66
959.40	221.68
959.69	221.69
959.99	221.70
960.29	221.71
960.58	221.71
960.88	221.75
961.17	221.73
961.47	221.74
961.76	221.73
962.06	221.75
962.36	221.74
962.65	221.74
962.95	221.75
963.24	221.74
963.54	221.74
963.83	221.75
964.13	221.74
964.42	221.73
964.72	221.64
965.01	221.64
965.31	221.63
965.60	221.60
965.90	221.67
966.19	221.64
966.49	221.65
966.78	221.64
967.08	221.63
967.37	221.63
967.67	221.61
967.96	221.63
968.26	221.62
968.55	221.64
968.85	221.64
969.14	221.63
969.43	221.63
969.73	221.62
970.02	221.62
970.32	221.61
970.61	221.60
970.91	221.57
971.20	221.55
971.49	221.54
971.79	221.56
972.08	221.48
972.38	221.50
972.67	221.49
972.96	221.51
973.26	221.49
973.55	221.52
973.85	221.51
974.14	221.50
974.43	221.51
974.73	221.49
975.02	221.48
975.31	221.48
975.61	221.48
975.90	221.47
976.19	221.47
976.49	221.47
976.78	221.48
977.07	221.48
977.37	221.50
977.66	221.51
977.95	221.49
978.24	221.50
978.54	221.52
978.83	221.51
979.12	221.50
979.42	221.50
979.71	221.48
980.00	221.48
980.29	221.49
980.59	221.47
980.88	221.50
981.17	221.49
981.46	221.49
981.76	221.49
982.05	221.53
982.34	221.53
982.63	221.53
982.93	221.53
983.22	221.56
983.51	221.56
983.80	221.57
984.09	221.58
984.39	221.57
984.68	221.56
984.97	221.56
985.26	221.56
985.55	221.57
985.85	221.55
986.14	221.56
986.43	221.57
986.72	221.57
987.01	221.53
987.30	221.54
987.59	221.53
987.89	221.53
988.18	221.50
988.47	221.49
988.76	221.48
989.05	221.47
989.34	221.45
989.63	221.47
989.92	221.46
990.22	221.45
990.51	221.44
990.80	221.44
991.09	221.44
991.38	221.46
991.67	221.44
991.96	221.44
992.25	221.44
992.54	221.42
992.83	221.42
993.12	221.42
993.41	221.44
993.70	221.48
993.99	221.49
994.28	221.51
994.58	221.52
994.87	221.51
995.16	221.51
995.45	221.50
995.74	221.46
996.03	221.48
996.32	221.50
996.61	221.52
996.90	221.52
997.19	221.51
997.48	221.51
997.77	221.50
998.06	221.50
998.34	221.49
998.63	221.49
998.92	221.50
999.21	221.51
999.50	221.50
999.79	221.47
1000.08	221.46
1000.37	221.47
1000.66	221.45
1000.95	221.48
1001.24	221.49
1001.53	221.50
1001.82	221.50
1002.11	221.47
1002.40	221.48
1002.68	221.50
1002.97	221.57
1003.26	221.56
1003.55	221.54
1003.84	221.56
1004.13	221.59
1004.42	221.59
1004.71	221.58
1004.99	221.57
1005.28	221.59
1005.57	221.59
1005.86	221.58
1006.15	221.57
1006.44	221.55
1006.72	221.57
1007.01	221.55
1007.30	221.55
1007.59	221.54
1007.88	221.54
1008.17	221.55
1008.45	221.53
1008.74	221.48
1009.03	221.44
1009.32	221.44
1009.60	221.44
1009.89	221.43
1010.18	221.39
1010.47	221.38
1010.76	221.39
1011.04	221.39
1011.33	221.39
1011.62	221.39
1011.91	221.40
1012.19	221.41
1012.48	221.41
1012.77	221.41
1013.05	221.44
1013.34	221.44
1013.63	221.44
1013.92	221.45
1014.20	221.44
1014.49	221.45
1014.78	221.46
1015.06	221.42
1015.35	221.42
1015.64	221.44
1015.92	221.46
1016.21	221.46
1016.50	221.47
1016.78	221.48
1017.07	221.48
1017.36	221.47
1017.64	221.45
1017.93	221.46
1018.22	221.45
1018.50	221.45
1018.79	221.44
1019.08	221.41
1019.36	221.41
1019.65	221.40
1019.93	221.43
1020.22	221.45
1020.51	221.50
1020.79	221.49
1021.08	221.32
1021.36	221.25
1021.65	221.47
1021.94	221.38
1022.22	221.54
1022.51	221.20
1022.79	222.05
1023.08	221.51
1023.36	222.72
1023.65	221.18
>>>>>End Processed Spectral Data<<<<<
