SpectraSuite Data File
++++++++++++++++++++++++++++++++++++
Date: Wed Sep 30 20:28:56 EDT 2015
User: lab3
Dark Spectrum Present: No
Reference Spectrum Present: No
Number of Sampled Component Spectra: 1
Spectrometers: USB2E7196
Integration Time (usec): 36000 (USB2E7196)
Spectra Averaged: 10000 (USB2E7196)
Boxcar Smoothing: 10 (USB2E7196)
Correct for Electrical Dark: No (USB2E7196)
Strobe/Lamp Enabled: No (USB2E7196)
Correct for Detector Non-linearity: No (USB2E7196)
Correct for Stray Light: No (USB2E7196)
Number of Pixels in Processed Spectrum: 2048
>>>>>Begin Processed Spectral Data<<<<<
339.09	0.00
339.48	210.55
339.86	212.06
340.24	213.39
340.63	214.87
341.01	217.76
341.39	217.52
341.78	218.91
342.16	220.07
342.54	220.56
342.93	209.13
343.31	219.70
343.69	220.23
344.07	220.70
344.46	221.12
344.84	221.51
345.22	221.75
345.60	222.00
345.99	222.19
346.37	222.33
346.75	222.44
347.13	222.51
347.52	222.58
347.90	222.66
348.28	222.69
348.66	222.75
349.05	222.75
349.43	222.80
349.81	222.86
350.19	222.91
350.57	222.98
350.96	223.06
351.34	223.15
351.72	223.25
352.10	223.36
352.48	223.43
352.87	223.48
353.25	223.54
353.63	223.60
354.01	223.67
354.39	223.75
354.77	223.82
355.15	223.93
355.54	223.98
355.92	224.02
356.30	224.10
356.68	224.23
357.06	224.30
357.44	224.35
357.82	224.42
358.20	224.53
358.58	224.59
358.97	224.66
359.35	224.74
359.73	224.82
360.11	224.87
360.49	224.93
360.87	224.98
361.25	225.04
361.63	225.12
362.01	225.17
362.39	225.20
362.77	225.25
363.15	225.27
363.53	225.30
363.91	225.34
364.29	225.36
364.67	225.29
365.05	225.31
365.43	225.35
365.81	225.37
366.19	225.39
366.57	225.44
366.95	225.44
367.33	225.41
367.71	225.40
368.09	225.42
368.47	225.42
368.85	225.41
369.23	225.42
369.61	225.36
369.99	225.38
370.37	225.38
370.75	225.43
371.13	225.40
371.51	225.36
371.89	225.34
372.27	225.32
372.65	225.29
373.03	225.25
373.41	225.20
373.78	225.15
374.16	225.06
374.54	224.98
374.92	224.93
375.30	224.89
375.68	224.82
376.06	224.77
376.44	224.71
376.82	224.67
377.19	224.61
377.57	224.56
377.95	224.47
378.33	224.41
378.71	224.27
379.09	224.22
379.47	224.19
379.84	224.12
380.22	224.06
380.60	223.99
380.98	223.94
381.36	223.89
381.73	223.82
382.11	223.80
382.49	223.76
382.87	223.70
383.25	223.65
383.62	223.72
384.00	223.66
384.38	223.62
384.76	223.60
385.13	223.59
385.51	223.55
385.89	223.50
386.27	223.46
386.64	223.44
387.02	223.39
387.40	223.34
387.78	223.32
388.15	223.29
388.53	223.26
388.91	223.23
389.29	223.19
389.66	223.18
390.04	223.15
390.42	223.14
390.79	223.12
391.17	223.10
391.55	222.97
391.92	222.95
392.30	222.95
392.68	222.91
393.05	222.89
393.43	222.89
393.81	222.89
394.18	222.87
394.56	222.87
394.94	222.90
395.31	222.89
395.69	222.93
396.06	222.96
396.44	222.98
396.82	222.99
397.19	223.06
397.57	223.07
397.95	223.11
398.32	223.11
398.70	223.15
399.07	223.21
399.45	223.24
399.82	223.28
400.20	223.31
400.58	223.37
400.95	223.38
401.33	223.46
401.70	223.59
402.08	223.68
402.45	223.76
402.83	223.85
403.20	223.95
403.58	224.03
403.95	224.15
404.33	224.28
404.71	224.40
405.08	224.58
405.46	224.72
405.83	224.88
406.21	225.05
406.58	225.24
406.96	225.42
407.33	225.63
407.70	225.87
408.08	226.19
408.45	226.47
408.83	226.77
409.20	227.05
409.58	227.30
409.95	227.64
410.33	228.01
410.70	228.35
411.08	228.77
411.45	229.20
411.82	229.64
412.20	230.14
412.57	230.73
412.95	231.19
413.32	231.80
413.69	232.43
414.07	233.09
414.44	233.81
414.82	234.54
415.19	235.40
415.56	236.27
415.94	237.18
416.31	238.20
416.68	239.22
417.06	240.40
417.43	241.51
417.81	242.79
418.18	244.09
418.55	245.51
418.93	246.98
419.30	248.52
419.67	250.17
420.04	251.86
420.42	253.62
420.79	255.66
421.16	257.72
421.54	259.81
421.91	262.00
422.28	264.27
422.66	266.72
423.03	269.06
423.40	271.51
423.77	274.14
424.15	276.83
424.52	279.63
424.89	282.66
425.26	285.67
425.64	288.47
426.01	291.61
426.38	294.83
426.75	298.15
427.13	301.54
427.50	305.09
427.87	308.78
428.24	312.50
428.61	316.07
428.99	319.90
429.36	324.12
429.73	328.15
430.10	332.17
430.47	336.27
430.85	340.49
431.22	344.99
431.59	349.60
431.96	354.10
432.33	359.07
432.70	363.78
433.08	369.37
433.45	374.64
433.82	379.81
434.19	385.59
434.56	391.27
434.93	396.74
435.30	402.14
435.68	408.25
436.05	414.21
436.42	420.16
436.79	425.59
437.16	431.44
437.53	437.71
437.90	443.97
438.27	450.08
438.64	456.72
439.01	462.73
439.38	468.20
439.75	473.49
440.13	479.54
440.50	485.30
440.87	489.84
441.24	494.82
441.61	500.33
441.98	504.37
442.35	509.18
442.72	514.12
443.09	518.84
443.46	521.90
443.83	524.16
444.20	526.10
444.57	528.91
444.94	530.61
445.31	532.37
445.68	533.94
446.05	535.13
446.42	535.04
446.79	534.86
447.16	534.72
447.53	534.64
447.90	532.92
448.27	531.31
448.64	528.74
449.01	527.06
449.37	523.34
449.74	519.96
450.11	515.59
450.48	510.75
450.85	505.90
451.22	501.77
451.59	497.74
451.96	494.08
452.33	488.68
452.70	483.86
453.07	477.98
453.43	472.09
453.80	466.39
454.17	460.91
454.54	455.82
454.91	450.06
455.28	444.65
455.65	439.54
456.02	434.09
456.38	429.71
456.75	424.03
457.12	419.45
457.49	414.83
457.86	410.42
458.23	406.56
458.59	402.29
458.96	397.89
459.33	394.02
459.70	390.07
460.07	387.06
460.43	383.51
460.80	380.18
461.17	377.24
461.54	374.07
461.91	371.11
462.27	368.10
462.64	365.63
463.01	362.81
463.38	359.97
463.74	357.39
464.11	355.08
464.48	353.01
464.85	350.79
465.21	349.09
465.58	347.21
465.95	345.03
466.32	343.29
466.68	341.59
467.05	339.87
467.42	338.22
467.78	336.44
468.15	334.80
468.52	333.57
468.88	331.97
469.25	330.50
469.62	329.34
469.98	328.07
470.35	326.94
470.72	325.92
471.08	324.88
471.45	324.02
471.82	323.08
472.18	322.10
472.55	321.46
472.92	320.67
473.28	320.05
473.65	319.41
474.02	318.80
474.38	318.31
474.75	318.04
475.11	317.63
475.48	317.46
475.85	317.30
476.21	317.25
476.58	317.25
476.94	317.43
477.31	317.54
477.67	317.68
478.04	317.94
478.41	318.26
478.77	318.71
479.14	319.04
479.50	319.57
479.87	320.25
480.23	320.93
480.60	321.58
480.96	322.26
481.33	323.20
481.69	324.14
482.06	325.07
482.42	325.95
482.79	327.00
483.15	328.21
483.52	329.57
483.88	330.88
484.25	332.28
484.61	333.74
484.98	335.32
485.34	337.07
485.71	338.90
486.07	340.84
486.44	342.78
486.80	344.93
487.17	347.13
487.53	349.55
487.90	352.07
488.26	354.80
488.62	357.67
488.99	360.55
489.35	363.57
489.72	366.81
490.08	370.23
490.44	373.74
490.81	377.41
491.17	381.17
491.54	385.19
491.90	389.31
492.26	393.73
492.63	398.39
492.99	403.25
493.36	408.23
493.72	413.49
494.08	418.86
494.45	424.54
494.81	430.44
495.17	436.44
495.54	442.78
495.90	449.44
496.26	456.23
496.63	463.26
496.99	470.56
497.35	478.22
497.72	486.19
498.08	494.31
498.44	502.70
498.80	511.62
499.17	520.77
499.53	530.25
499.89	539.96
500.26	549.85
500.62	560.00
500.98	570.82
501.34	581.77
501.71	593.26
502.07	604.97
502.43	617.06
502.79	629.51
503.16	642.34
503.52	655.37
503.88	668.76
504.24	682.59
504.60	696.71
504.97	711.20
505.33	726.07
505.69	741.81
506.05	757.76
506.41	773.71
506.78	789.98
507.14	806.71
507.50	824.05
507.86	841.77
508.22	859.75
508.59	877.74
508.95	896.47
509.31	915.61
509.67	935.45
510.03	955.52
510.39	975.79
510.75	996.30
511.12	1017.09
511.48	1038.23
511.84	1059.47
512.20	1081.02
512.56	1103.63
512.92	1126.50
513.28	1149.10
513.64	1172.01
514.00	1195.33
514.37	1218.96
514.73	1242.64
515.09	1266.13
515.45	1290.05
515.81	1314.54
516.17	1339.09
516.53	1363.32
516.89	1387.67
517.25	1412.19
517.61	1436.89
517.97	1461.80
518.33	1486.47
518.69	1511.28
519.05	1536.36
519.41	1561.57
519.77	1587.05
520.13	1611.81
520.49	1636.70
520.85	1661.82
521.21	1686.87
521.57	1712.57
521.93	1737.54
522.29	1763.37
522.65	1788.92
523.01	1814.30
523.37	1838.95
523.73	1864.27
524.09	1889.73
524.45	1915.08
524.81	1939.99
525.17	1964.80
525.53	1989.23
525.89	2013.73
526.25	2038.44
526.61	2062.55
526.97	2087.01
527.33	2111.36
527.68	2135.54
528.04	2158.89
528.40	2182.15
528.76	2205.58
529.12	2227.96
529.48	2250.75
529.84	2271.73
530.20	2293.27
530.56	2314.45
530.91	2335.73
531.27	2356.51
531.63	2376.69
531.99	2396.35
532.35	2415.65
532.71	2435.09
533.07	2455.10
533.42	2473.55
533.78	2492.42
534.14	2511.27
534.50	2529.25
534.86	2547.91
535.21	2564.73
535.57	2581.53
535.93	2597.55
536.29	2612.38
536.65	2628.01
537.00	2642.50
537.36	2657.49
537.72	2671.47
538.08	2685.21
538.44	2697.74
538.79	2710.48
539.15	2721.57
539.51	2732.60
539.87	2743.28
540.22	2751.80
540.58	2760.45
540.94	2769.68
541.29	2777.38
541.65	2784.10
542.01	2790.31
542.37	2794.65
542.72	2800.95
543.08	2806.65
543.44	2812.23
543.79	2816.95
544.15	2820.84
544.51	2824.73
544.87	2827.74
545.22	2830.30
545.58	2831.80
545.94	2833.80
546.29	2834.36
546.65	2835.03
547.01	2835.72
547.36	2836.57
547.72	2837.59
548.07	2837.10
548.43	2835.96
548.79	2834.21
549.14	2832.52
549.50	2831.37
549.86	2829.38
550.21	2824.88
550.57	2820.87
550.92	2815.47
551.28	2810.69
551.64	2805.74
551.99	2801.24
552.35	2796.30
552.70	2790.94
553.06	2786.36
553.41	2781.29
553.77	2775.55
554.13	2770.51
554.48	2764.61
554.84	2757.07
555.19	2749.66
555.55	2741.65
555.90	2734.23
556.26	2727.84
556.61	2720.77
556.97	2711.59
557.32	2703.20
557.68	2695.30
558.03	2686.69
558.39	2678.74
558.74	2671.03
559.10	2662.09
559.45	2652.79
559.81	2643.81
560.16	2634.14
560.52	2623.98
560.87	2614.88
561.23	2605.44
561.58	2595.51
561.94	2585.29
562.29	2574.57
562.64	2564.42
563.00	2554.63
563.35	2544.67
563.71	2533.75
564.06	2522.34
564.42	2511.96
564.77	2501.23
565.12	2490.62
565.48	2479.74
565.83	2469.56
566.19	2459.35
566.54	2448.79
566.89	2437.24
567.25	2425.63
567.60	2414.90
567.96	2403.72
568.31	2391.11
568.66	2378.45
569.02	2366.83
569.37	2355.02
569.72	2343.72
570.08	2331.70
570.43	2319.13
570.78	2306.26
571.14	2293.18
571.49	2280.90
571.84	2268.91
572.20	2255.62
572.55	2242.67
572.90	2229.63
573.26	2215.67
573.61	2201.12
573.96	2186.81
574.31	2172.92
574.67	2159.29
575.02	2145.21
575.37	2130.71
575.72	2116.47
576.08	2102.86
576.43	2088.17
576.78	2073.47
577.13	2059.56
577.49	2045.78
577.84	2032.33
578.19	2018.04
578.54	2003.36
578.90	1988.16
579.25	1972.68
579.60	1958.66
579.95	1944.29
580.30	1929.91
580.66	1915.83
581.01	1901.35
581.36	1887.26
581.71	1873.73
582.06	1859.69
582.42	1845.67
582.77	1832.42
583.12	1818.84
583.47	1805.25
583.82	1791.81
584.17	1778.28
584.53	1764.59
584.88	1750.85
585.23	1736.83
585.58	1723.30
585.93	1710.18
586.28	1697.89
586.63	1685.41
586.98	1672.18
587.34	1659.21
587.69	1645.75
588.04	1632.49
588.39	1619.95
588.74	1606.88
589.09	1593.54
589.44	1580.18
589.79	1567.40
590.14	1554.47
590.49	1541.71
590.84	1528.85
591.19	1516.63
591.54	1503.91
591.89	1491.04
592.25	1478.50
592.60	1465.54
592.95	1453.15
593.30	1441.08
593.65	1428.81
594.00	1416.70
594.35	1405.42
594.70	1393.28
595.05	1382.24
595.40	1371.04
595.75	1359.20
596.10	1348.16
596.45	1337.33
596.80	1326.96
597.15	1316.36
597.50	1305.78
597.85	1295.41
598.19	1285.22
598.54	1274.43
598.89	1264.35
599.24	1254.59
599.59	1244.59
599.94	1235.63
600.29	1226.57
600.64	1217.27
600.99	1207.38
601.34	1198.00
601.69	1187.95
602.04	1179.03
602.39	1169.93
602.74	1161.09
603.08	1152.51
603.43	1143.43
603.78	1134.22
604.13	1125.18
604.48	1116.06
604.83	1107.21
605.18	1098.27
605.53	1089.28
605.87	1080.40
606.22	1071.81
606.57	1062.95
606.92	1054.16
607.27	1045.23
607.62	1036.36
607.96	1027.69
608.31	1020.03
608.66	1011.93
609.01	1004.29
609.36	996.59
609.70	988.67
610.05	980.56
610.40	972.80
610.75	965.17
611.10	957.83
611.44	950.08
611.79	942.65
612.14	934.82
612.49	927.13
612.83	919.94
613.18	912.83
613.53	905.50
613.88	898.23
614.22	891.60
614.57	884.81
614.92	877.99
615.27	871.19
615.61	864.23
615.96	857.51
616.31	850.70
616.65	843.78
617.00	837.12
617.35	830.60
617.70	824.10
618.04	817.67
618.39	811.26
618.74	805.19
619.08	798.92
619.43	792.94
619.78	786.98
620.12	780.81
620.47	774.81
620.82	768.90
621.16	763.33
621.51	757.38
621.85	751.43
622.20	745.52
622.55	739.82
622.89	734.07
623.24	728.37
623.59	722.75
623.93	717.15
624.28	711.71
624.62	706.24
624.97	700.76
625.32	695.40
625.66	689.89
626.01	684.38
626.35	679.02
626.70	673.69
627.04	668.53
627.39	663.43
627.73	658.44
628.08	653.69
628.43	648.82
628.77	644.03
629.12	639.36
629.46	634.88
629.81	630.20
630.15	625.40
630.50	620.76
630.84	616.29
631.19	612.04
631.53	607.81
631.88	603.48
632.22	599.25
632.57	595.27
632.91	591.25
633.26	587.30
633.60	583.43
633.95	579.68
634.29	575.79
634.64	571.84
634.98	567.79
635.32	563.89
635.67	560.13
636.01	556.31
636.36	552.53
636.70	548.90
637.05	545.26
637.39	541.82
637.73	538.26
638.08	534.76
638.42	531.24
638.77	527.58
639.11	523.92
639.45	520.29
639.80	516.65
640.14	513.20
640.49	509.72
640.83	506.12
641.17	502.55
641.52	499.16
641.86	495.78
642.20	492.56
642.55	489.20
642.89	485.91
643.23	482.82
643.58	479.98
643.92	477.01
644.26	474.09
644.61	471.14
644.95	468.20
645.29	465.19
645.64	462.17
645.98	459.28
646.32	456.55
646.66	453.85
647.01	451.11
647.35	448.41
647.69	445.60
648.04	442.94
648.38	440.31
648.72	437.64
649.06	435.05
649.41	432.50
649.75	429.93
650.09	427.39
650.43	424.86
650.78	422.30
651.12	419.73
651.46	417.26
651.80	414.89
652.14	412.61
652.49	410.33
652.83	408.11
653.17	405.87
653.51	403.70
653.85	401.60
654.20	399.45
654.54	397.20
654.88	395.16
655.22	393.18
655.56	391.15
655.90	389.22
656.25	387.30
656.59	385.37
656.93	383.56
657.27	381.78
657.61	379.90
657.95	378.08
658.29	376.27
658.64	374.50
658.98	372.69
659.32	370.91
659.66	369.25
660.00	367.60
660.34	365.98
660.68	364.30
661.02	362.56
661.36	360.93
661.70	359.37
662.05	357.79
662.39	356.21
662.73	354.71
663.07	353.24
663.41	351.78
663.75	350.35
664.09	348.93
664.43	347.42
664.77	346.01
665.11	344.55
665.45	343.16
665.79	341.77
666.13	340.38
666.47	338.97
666.81	337.54
667.15	336.07
667.49	334.71
667.83	333.39
668.17	332.11
668.51	330.86
668.85	329.62
669.19	328.46
669.53	327.22
669.87	325.96
670.21	324.73
670.55	323.53
670.89	322.39
671.23	321.22
671.57	320.07
671.91	318.97
672.25	317.94
672.58	316.89
672.92	315.81
673.26	314.80
673.60	313.80
673.94	312.78
674.28	311.83
674.62	310.87
674.96	309.87
675.30	308.94
675.64	307.98
675.97	307.04
676.31	306.06
676.65	305.11
676.99	304.22
677.33	303.28
677.67	302.38
678.01	301.40
678.34	300.50
678.68	299.66
679.02	298.78
679.36	297.91
679.70	297.04
680.04	296.21
680.37	295.36
680.71	294.55
681.05	293.78
681.39	292.99
681.73	292.15
682.06	291.35
682.40	290.56
682.74	289.80
683.08	289.06
683.42	288.30
683.75	287.62
684.09	286.85
684.43	286.14
684.77	285.41
685.10	284.74
685.44	284.04
685.78	283.33
686.12	282.66
686.45	281.97
686.79	281.29
687.13	280.64
687.46	279.95
687.80	279.29
688.14	278.59
688.48	277.94
688.81	277.30
689.15	276.71
689.49	276.07
689.82	275.44
690.16	274.77
690.50	274.16
690.83	273.55
691.17	272.95
691.51	272.37
691.84	271.81
692.18	271.22
692.52	270.61
692.85	270.03
693.19	269.49
693.52	268.94
693.86	268.38
694.20	267.83
694.53	267.32
694.87	266.78
695.21	266.28
695.54	265.76
695.88	265.24
696.21	264.68
696.55	264.18
696.88	263.67
697.22	263.18
697.56	262.69
697.89	262.14
698.23	261.63
698.56	261.11
698.90	260.63
699.23	260.14
699.57	259.69
699.90	259.23
700.24	258.73
700.58	258.28
700.91	257.86
701.25	257.52
701.58	257.13
701.92	256.74
702.25	256.32
702.59	255.89
702.92	255.49
703.26	255.09
703.59	254.68
703.93	254.38
704.26	254.00
704.60	253.62
704.93	253.26
705.26	252.89
705.60	252.56
705.93	252.18
706.27	251.86
706.60	251.53
706.94	251.22
707.27	250.84
707.61	250.49
707.94	250.11
708.27	249.67
708.61	249.29
708.94	248.93
709.28	248.59
709.61	248.26
709.94	247.96
710.28	247.66
710.61	247.37
710.95	246.99
711.28	246.76
711.61	246.46
711.95	246.20
712.28	245.91
712.61	245.61
712.95	245.39
713.28	245.16
713.61	244.87
713.95	244.58
714.28	244.34
714.61	244.07
714.95	243.82
715.28	243.57
715.61	243.32
715.95	243.09
716.28	242.86
716.61	242.65
716.95	242.40
717.28	242.17
717.61	241.93
717.94	241.70
718.28	241.41
718.61	241.18
718.94	240.94
719.27	240.73
719.61	240.53
719.94	240.29
720.27	240.03
720.60	239.82
720.94	239.62
721.27	239.43
721.60	239.26
721.93	239.07
722.27	238.92
722.60	238.74
722.93	238.54
723.26	238.36
723.59	238.15
723.93	237.99
724.26	237.82
724.59	237.65
724.92	237.48
725.25	237.35
725.59	237.18
725.92	237.05
726.25	236.89
726.58	236.74
726.91	236.57
727.24	236.43
727.57	236.29
727.91	236.12
728.24	235.98
728.57	235.82
728.90	235.69
729.23	235.51
729.56	235.41
729.89	235.27
730.22	235.12
730.55	234.98
730.89	234.84
731.22	234.69
731.55	234.56
731.88	234.42
732.21	234.27
732.54	234.14
732.87	234.01
733.20	233.89
733.53	233.77
733.86	233.66
734.19	233.53
734.52	233.43
734.85	233.39
735.18	233.25
735.51	233.17
735.84	233.05
736.17	232.98
736.50	232.81
736.83	232.83
737.16	232.73
737.49	232.64
737.82	232.53
738.15	232.45
738.48	232.35
738.81	232.24
739.14	232.13
739.47	232.02
739.80	231.92
740.13	231.83
740.46	231.71
740.79	231.60
741.12	231.51
741.45	231.39
741.78	231.24
742.11	231.18
742.44	231.06
742.77	230.98
743.10	230.87
743.43	230.78
743.75	230.58
744.08	230.65
744.41	230.55
744.74	230.46
745.07	230.36
745.40	230.29
745.73	230.26
746.06	230.18
746.39	230.12
746.71	230.03
747.04	229.95
747.37	229.87
747.70	229.81
748.03	229.74
748.36	229.69
748.68	229.61
749.01	229.51
749.34	229.44
749.67	229.37
750.00	229.31
750.33	229.32
750.65	229.26
750.98	229.04
751.31	228.97
751.64	228.91
751.97	228.90
752.29	228.82
752.62	228.71
752.95	228.63
753.28	228.55
753.60	228.48
753.93	228.44
754.26	228.38
754.59	228.28
754.91	228.20
755.24	228.13
755.57	228.11
755.90	228.04
756.22	227.97
756.55	227.89
756.88	227.81
757.20	227.68
757.53	227.60
757.86	227.54
758.19	227.49
758.51	227.44
758.84	227.33
759.17	227.27
759.49	227.22
759.82	227.22
760.15	227.19
760.47	227.14
760.80	227.06
761.13	227.03
761.45	226.99
761.78	226.94
762.11	226.90
762.43	226.80
762.76	226.75
763.08	226.72
763.41	226.68
763.74	226.64
764.06	226.59
764.39	226.55
764.71	226.51
765.04	226.46
765.37	226.41
765.69	226.37
766.02	226.32
766.34	226.27
766.67	226.19
767.00	226.17
767.32	226.18
767.65	226.21
767.97	226.16
768.30	226.12
768.62	226.08
768.95	226.04
769.27	226.00
769.60	225.98
769.92	225.92
770.25	225.87
770.57	225.82
770.90	225.78
771.22	225.74
771.55	225.71
771.87	225.68
772.20	225.64
772.52	225.70
772.85	225.79
773.17	225.76
773.50	225.72
773.82	225.67
774.15	225.59
774.47	225.50
774.80	225.45
775.12	225.42
775.45	225.39
775.77	225.37
776.09	225.35
776.42	225.32
776.74	225.33
777.07	225.29
777.39	225.28
777.72	225.24
778.04	225.23
778.36	225.20
778.69	225.17
779.01	225.16
779.33	225.04
779.66	224.90
779.98	224.87
780.31	224.85
780.63	224.88
780.95	224.88
781.28	224.85
781.60	224.83
781.92	224.80
782.25	224.78
782.57	224.76
782.89	224.73
783.22	224.70
783.54	224.65
783.86	224.64
784.19	224.62
784.51	224.63
784.83	224.60
785.16	224.58
785.48	224.56
785.80	224.54
786.12	224.53
786.45	224.51
786.77	224.50
787.09	224.47
787.42	224.41
787.74	224.39
788.06	224.38
788.38	224.36
788.71	224.34
789.03	224.33
789.35	224.32
789.67	224.29
789.99	224.29
790.32	224.26
790.64	224.25
790.96	224.34
791.28	224.29
791.61	224.27
791.93	224.26
792.25	224.24
792.57	224.30
792.89	224.26
793.21	224.26
793.54	224.23
793.86	224.21
794.18	224.20
794.50	224.17
794.82	224.15
795.14	224.15
795.47	224.16
795.79	224.14
796.11	224.11
796.43	224.10
796.75	224.08
797.07	224.08
797.39	224.06
797.71	223.96
798.04	223.95
798.36	223.95
798.68	223.93
799.00	223.93
799.32	223.87
799.64	223.88
799.96	223.87
800.28	223.88
800.60	223.86
800.92	223.86
801.24	223.85
801.56	223.85
801.89	223.82
802.21	223.82
802.53	223.79
802.85	223.81
803.17	223.84
803.49	223.81
803.81	223.79
804.13	223.78
804.45	223.75
804.77	223.75
805.09	223.74
805.41	223.72
805.73	223.69
806.05	223.65
806.37	223.63
806.69	223.61
807.01	223.59
807.33	223.59
807.65	223.54
807.97	223.58
808.28	223.56
808.60	223.55
808.92	223.53
809.24	223.58
809.56	223.55
809.88	223.51
810.20	223.51
810.52	223.52
810.84	223.50
811.16	223.49
811.48	223.47
811.80	223.51
812.12	223.50
812.43	223.51
812.75	223.52
813.07	223.50
813.39	223.50
813.71	223.48
814.03	223.46
814.35	223.46
814.67	223.41
814.98	223.40
815.30	223.39
815.62	223.37
815.94	223.29
816.26	223.30
816.58	223.28
816.89	223.28
817.21	223.25
817.53	223.25
817.85	223.26
818.17	223.25
818.48	223.20
818.80	223.22
819.12	223.20
819.44	223.17
819.76	223.16
820.07	223.15
820.39	223.14
820.71	223.15
821.03	223.15
821.34	223.13
821.66	223.14
821.98	223.15
822.30	223.15
822.61	223.20
822.93	223.18
823.25	223.18
823.57	223.16
823.88	223.17
824.20	223.16
824.52	223.17
824.83	223.16
825.15	223.15
825.47	223.14
825.79	223.14
826.10	223.14
826.42	223.13
826.74	223.13
827.05	223.13
827.37	223.13
827.69	223.12
828.00	223.12
828.32	223.11
828.64	223.09
828.95	223.15
829.27	223.11
829.58	223.11
829.90	223.13
830.22	223.13
830.53	223.11
830.85	223.10
831.17	223.07
831.48	223.07
831.80	223.07
832.11	223.06
832.43	223.04
832.75	223.04
833.06	223.10
833.38	223.07
833.69	223.07
834.01	223.07
834.32	223.07
834.64	223.06
834.96	223.05
835.27	223.05
835.59	223.01
835.90	222.99
836.22	222.98
836.53	222.95
836.85	222.94
837.16	223.04
837.48	223.04
837.79	223.07
838.11	223.07
838.42	223.07
838.74	223.08
839.05	223.07
839.37	223.07
839.68	223.00
840.00	222.99
840.31	223.00
840.63	222.99
840.94	222.98
841.26	222.96
841.57	222.96
841.88	222.97
842.20	222.95
842.51	222.93
842.83	222.93
843.14	223.03
843.46	223.02
843.77	222.96
844.08	222.95
844.40	222.91
844.71	222.90
845.03	222.89
845.34	222.88
845.65	222.87
845.97	222.87
846.28	222.87
846.60	222.88
846.91	222.86
847.22	222.85
847.54	222.87
847.85	222.88
848.16	222.87
848.48	222.85
848.79	222.89
849.10	222.90
849.42	222.91
849.73	222.81
850.04	222.81
850.36	222.77
850.67	222.79
850.98	222.79
851.30	222.79
851.61	222.79
851.92	222.79
852.23	222.82
852.55	222.83
852.86	222.83
853.17	222.84
853.49	222.86
853.80	222.88
854.11	222.88
854.42	222.89
854.74	222.88
855.05	222.89
855.36	222.84
855.67	222.84
855.99	222.84
856.30	222.96
856.61	222.95
856.92	222.96
857.23	222.96
857.55	222.95
857.86	222.94
858.17	222.96
858.48	222.95
858.79	222.92
859.11	222.93
859.42	222.92
859.73	222.90
860.04	222.89
860.35	222.86
860.66	222.83
860.98	222.82
861.29	222.83
861.60	222.82
861.91	222.85
862.22	222.83
862.53	222.82
862.84	222.69
863.16	222.71
863.47	222.69
863.78	222.68
864.09	222.69
864.40	222.70
864.71	222.70
865.02	222.71
865.33	222.70
865.64	222.68
865.95	222.68
866.27	222.74
866.58	222.73
866.89	222.74
867.20	222.74
867.51	222.73
867.82	222.72
868.13	222.75
868.44	222.73
868.75	222.74
869.06	222.75
869.37	222.76
869.68	222.73
869.99	222.75
870.30	222.75
870.61	222.76
870.92	222.74
871.23	222.73
871.54	222.74
871.85	222.76
872.16	222.77
872.47	222.76
872.78	222.71
873.09	222.72
873.40	222.70
873.71	222.71
874.02	222.71
874.33	222.70
874.64	222.68
874.95	222.70
875.26	222.67
875.56	222.67
875.87	222.66
876.18	222.66
876.49	222.76
876.80	222.74
877.11	222.72
877.42	222.73
877.73	222.73
878.04	222.71
878.35	222.71
878.66	222.72
878.96	222.72
879.27	222.71
879.58	222.70
879.89	222.70
880.20	222.73
880.51	222.72
880.82	222.73
881.12	222.73
881.43	222.71
881.74	222.70
882.05	222.70
882.36	222.70
882.67	222.71
882.97	222.59
883.28	222.59
883.59	222.58
883.90	222.59
884.21	222.60
884.51	222.60
884.82	222.58
885.13	222.58
885.44	222.57
885.74	222.57
886.05	222.57
886.36	222.57
886.67	222.53
886.98	222.59
887.28	222.59
887.59	222.59
887.90	222.60
888.20	222.60
888.51	222.61
888.82	222.60
889.13	222.60
889.43	222.69
889.74	222.69
890.05	222.69
890.35	222.68
890.66	222.67
890.97	222.66
891.28	222.65
891.58	222.65
891.89	222.65
892.20	222.64
892.50	222.63
892.81	222.62
893.12	222.62
893.42	222.56
893.73	222.56
894.04	222.56
894.34	222.57
894.65	222.56
894.95	222.56
895.26	222.56
895.57	222.61
895.87	222.50
896.18	222.52
896.48	222.52
896.79	222.52
897.10	222.54
897.40	222.54
897.71	222.55
898.01	222.54
898.32	222.55
898.63	222.55
898.93	222.56
899.24	222.56
899.54	222.56
899.85	222.56
900.15	222.55
900.46	222.55
900.76	222.56
901.07	222.56
901.38	222.55
901.68	222.56
901.99	222.51
902.29	222.51
902.60	222.51
902.90	222.49
903.21	222.49
903.51	222.48
903.82	222.50
904.12	222.50
904.43	222.51
904.73	222.50
905.03	222.50
905.34	222.60
905.64	222.58
905.95	222.58
906.25	222.58
906.56	222.57
906.86	222.57
907.17	222.56
907.47	222.57
907.77	222.55
908.08	222.53
908.38	222.53
908.69	222.54
908.99	222.56
909.30	222.56
909.60	222.56
909.90	222.56
910.21	222.53
910.51	222.52
910.81	222.52
911.12	222.52
911.42	222.52
911.73	222.41
912.03	222.43
912.33	222.44
912.64	222.44
912.94	222.43
913.24	222.41
913.55	222.40
913.85	222.40
914.15	222.42
914.46	222.43
914.76	222.42
915.06	222.42
915.37	222.40
915.67	222.39
915.97	222.39
916.27	222.37
916.58	222.38
916.88	222.37
917.18	222.37
917.49	222.44
917.79	222.43
918.09	222.45
918.39	222.47
918.70	222.47
919.00	222.47
919.30	222.52
919.60	222.52
919.91	222.51
920.21	222.51
920.51	222.49
920.81	222.48
921.12	222.50
921.42	222.49
921.72	222.50
922.02	222.50
922.32	222.52
922.63	222.52
922.93	222.58
923.23	222.59
923.53	222.57
923.83	222.50
924.13	222.51
924.44	222.51
924.74	222.52
925.04	222.55
925.34	222.55
925.64	222.50
925.94	222.50
926.24	222.56
926.55	222.55
926.85	222.57
927.15	222.57
927.45	222.57
927.75	222.57
928.05	222.56
928.35	222.55
928.65	222.56
928.95	222.57
929.26	222.53
929.56	222.54
929.86	222.55
930.16	222.54
930.46	222.53
930.76	222.53
931.06	222.48
931.36	222.45
931.66	222.47
931.96	222.48
932.26	222.49
932.56	222.44
932.86	222.45
933.16	222.45
933.46	222.44
933.76	222.42
934.06	222.44
934.36	222.47
934.66	222.47
934.96	222.46
935.26	222.46
935.56	222.48
935.86	222.45
936.16	222.43
936.46	222.43
936.76	222.43
937.06	222.41
937.36	222.42
937.66	222.42
937.96	222.40
938.26	222.38
938.56	222.38
938.86	222.38
939.16	222.40
939.46	222.41
939.76	222.42
940.06	222.42
940.35	222.40
940.65	222.35
940.95	222.36
941.25	222.33
941.55	222.32
941.85	222.31
942.15	222.33
942.45	222.36
942.75	222.36
943.04	222.36
943.34	222.38
943.64	222.37
943.94	222.36
944.24	222.36
944.54	222.37
944.84	222.37
945.13	222.35
945.43	222.33
945.73	222.33
946.03	222.32
946.33	222.30
946.62	222.29
946.92	222.29
947.22	222.29
947.52	222.30
947.82	222.31
948.11	222.30
948.41	222.28
948.71	222.25
949.01	222.26
949.31	222.25
949.60	222.24
949.90	222.26
950.20	222.26
950.50	222.26
950.79	222.25
951.09	222.26
951.39	222.26
951.69	222.25
951.98	222.27
952.28	222.28
952.58	222.28
952.87	222.28
953.17	222.29
953.47	222.28
953.76	222.28
954.06	222.26
954.36	222.25
954.66	222.25
954.95	222.28
955.25	222.28
955.55	222.29
955.84	222.27
956.14	222.28
956.44	222.29
956.73	222.27
957.03	222.28
957.32	222.28
957.62	222.27
957.92	222.29
958.21	222.28
958.51	222.40
958.81	222.41
959.10	222.42
959.40	222.44
959.69	222.45
959.99	222.46
960.29	222.47
960.58	222.46
960.88	222.50
961.17	222.49
961.47	222.49
961.76	222.49
962.06	222.51
962.36	222.49
962.65	222.49
962.95	222.50
963.24	222.49
963.54	222.49
963.83	222.50
964.13	222.49
964.42	222.48
964.72	222.39
965.01	222.39
965.31	222.38
965.60	222.35
965.90	222.41
966.19	222.39
966.49	222.40
966.78	222.39
967.08	222.38
967.37	222.38
967.67	222.36
967.96	222.38
968.26	222.37
968.55	222.38
968.85	222.38
969.14	222.38
969.43	222.38
969.73	222.37
970.02	222.36
970.32	222.36
970.61	222.34
970.91	222.31
971.20	222.30
971.49	222.29
971.79	222.30
972.08	222.23
972.38	222.24
972.67	222.24
972.96	222.25
973.26	222.23
973.55	222.26
973.85	222.26
974.14	222.25
974.43	222.26
974.73	222.24
975.02	222.23
975.31	222.23
975.61	222.23
975.90	222.22
976.19	222.22
976.49	222.23
976.78	222.24
977.07	222.24
977.37	222.25
977.66	222.26
977.95	222.24
978.24	222.25
978.54	222.27
978.83	222.27
979.12	222.26
979.42	222.26
979.71	222.23
980.00	222.23
980.29	222.23
980.59	222.21
980.88	222.24
981.17	222.24
981.46	222.24
981.76	222.24
982.05	222.27
982.34	222.28
982.63	222.27
982.93	222.27
983.22	222.30
983.51	222.30
983.80	222.31
984.09	222.33
984.39	222.32
984.68	222.30
984.97	222.31
985.26	222.30
985.55	222.31
985.85	222.29
986.14	222.31
986.43	222.32
986.72	222.32
987.01	222.28
987.30	222.28
987.59	222.27
987.89	222.28
988.18	222.25
988.47	222.23
988.76	222.23
989.05	222.22
989.34	222.20
989.63	222.22
989.92	222.20
990.22	222.19
990.51	222.19
990.80	222.18
991.09	222.19
991.38	222.20
991.67	222.19
991.96	222.19
992.25	222.19
992.54	222.17
992.83	222.17
993.12	222.17
993.41	222.19
993.70	222.23
993.99	222.24
994.28	222.26
994.58	222.28
994.87	222.27
995.16	222.26
995.45	222.26
995.74	222.22
996.03	222.24
996.32	222.25
996.61	222.28
996.90	222.27
997.19	222.27
997.48	222.27
997.77	222.26
998.06	222.26
998.34	222.25
998.63	222.26
998.92	222.26
999.21	222.27
999.50	222.27
999.79	222.24
1000.08	222.23
1000.37	222.23
1000.66	222.22
1000.95	222.24
1001.24	222.25
1001.53	222.27
1001.82	222.27
1002.11	222.24
1002.40	222.25
1002.68	222.27
1002.97	222.34
1003.26	222.33
1003.55	222.32
1003.84	222.33
1004.13	222.37
1004.42	222.36
1004.71	222.36
1004.99	222.36
1005.28	222.38
1005.57	222.37
1005.86	222.36
1006.15	222.35
1006.44	222.34
1006.72	222.35
1007.01	222.33
1007.30	222.34
1007.59	222.32
1007.88	222.32
1008.17	222.33
1008.45	222.30
1008.74	222.26
1009.03	222.21
1009.32	222.22
1009.60	222.22
1009.89	222.21
1010.18	222.17
1010.47	222.16
1010.76	222.17
1011.04	222.16
1011.33	222.16
1011.62	222.16
1011.91	222.17
1012.19	222.18
1012.48	222.18
1012.77	222.18
1013.05	222.22
1013.34	222.21
1013.63	222.21
1013.92	222.21
1014.20	222.20
1014.49	222.21
1014.78	222.22
1015.06	222.19
1015.35	222.19
1015.64	222.21
1015.92	222.23
1016.21	222.23
1016.50	222.24
1016.78	222.25
1017.07	222.26
1017.36	222.24
1017.64	222.23
1017.93	222.24
1018.22	222.23
1018.50	222.22
1018.79	222.22
1019.08	222.18
1019.36	222.19
1019.65	222.18
1019.93	222.21
1020.22	222.23
1020.51	222.28
1020.79	222.27
1021.08	222.05
1021.36	221.99
1021.65	222.25
1021.94	222.18
1022.22	222.28
1022.51	222.00
1022.79	222.69
1023.08	222.36
1023.36	223.39
1023.65	221.97
>>>>>End Processed Spectral Data<<<<<
