SpectraSuite Data File
++++++++++++++++++++++++++++++++++++
Date: Wed Sep 30 18:15:35 EDT 2015
User: lab3
Dark Spectrum Present: No
Reference Spectrum Present: No
Number of Sampled Component Spectra: 1
Spectrometers: USB2E7196
Integration Time (usec): 36000 (USB2E7196)
Spectra Averaged: 3000 (USB2E7196)
Boxcar Smoothing: 10 (USB2E7196)
Correct for Electrical Dark: No (USB2E7196)
Strobe/Lamp Enabled: No (USB2E7196)
Correct for Detector Non-linearity: No (USB2E7196)
Correct for Stray Light: No (USB2E7196)
Number of Pixels in Processed Spectrum: 2048
>>>>>Begin Processed Spectral Data<<<<<
339.09	0.00
339.48	210.92
339.86	212.32
340.24	213.86
340.63	215.29
341.01	218.11
341.39	217.92
341.78	219.16
342.16	220.48
342.54	220.93
342.93	209.45
343.31	220.04
343.69	220.57
344.07	221.04
344.46	221.46
344.84	221.84
345.22	222.08
345.60	222.33
345.99	222.52
346.37	222.66
346.75	222.77
347.13	222.85
347.52	222.92
347.90	223.00
348.28	223.04
348.66	223.09
349.05	223.10
349.43	223.15
349.81	223.21
350.19	223.26
350.57	223.33
350.96	223.41
351.34	223.50
351.72	223.60
352.10	223.71
352.48	223.78
352.87	223.83
353.25	223.90
353.63	223.96
354.01	224.03
354.39	224.10
354.77	224.17
355.15	224.28
355.54	224.33
355.92	224.36
356.30	224.44
356.68	224.58
357.06	224.65
357.44	224.70
357.82	224.75
358.20	224.87
358.58	224.92
358.97	224.98
359.35	225.07
359.73	225.15
360.11	225.19
360.49	225.25
360.87	225.30
361.25	225.37
361.63	225.44
362.01	225.50
362.39	225.53
362.77	225.57
363.15	225.59
363.53	225.62
363.91	225.67
364.29	225.70
364.67	225.63
365.05	225.65
365.43	225.68
365.81	225.71
366.19	225.72
366.57	225.77
366.95	225.77
367.33	225.74
367.71	225.74
368.09	225.75
368.47	225.74
368.85	225.73
369.23	225.73
369.61	225.68
369.99	225.69
370.37	225.69
370.75	225.75
371.13	225.72
371.51	225.68
371.89	225.65
372.27	225.62
372.65	225.59
373.03	225.55
373.41	225.50
373.78	225.45
374.16	225.36
374.54	225.29
374.92	225.24
375.30	225.20
375.68	225.13
376.06	225.08
376.44	225.03
376.82	224.98
377.19	224.94
377.57	224.88
377.95	224.79
378.33	224.73
378.71	224.59
379.09	224.53
379.47	224.50
379.84	224.44
380.22	224.38
380.60	224.31
380.98	224.26
381.36	224.21
381.73	224.16
382.11	224.13
382.49	224.08
382.87	224.02
383.25	223.97
383.62	224.05
384.00	223.98
384.38	223.93
384.76	223.91
385.13	223.90
385.51	223.86
385.89	223.82
386.27	223.78
386.64	223.76
387.02	223.72
387.40	223.66
387.78	223.63
388.15	223.61
388.53	223.58
388.91	223.54
389.29	223.51
389.66	223.50
390.04	223.46
390.42	223.46
390.79	223.45
391.17	223.44
391.55	223.30
391.92	223.29
392.30	223.29
392.68	223.26
393.05	223.24
393.43	223.24
393.81	223.23
394.18	223.21
394.56	223.22
394.94	223.24
395.31	223.24
395.69	223.27
396.06	223.29
396.44	223.31
396.82	223.33
397.19	223.40
397.57	223.40
397.95	223.44
398.32	223.44
398.70	223.48
399.07	223.53
399.45	223.56
399.82	223.60
400.20	223.63
400.58	223.69
400.95	223.70
401.33	223.77
401.70	223.91
402.08	224.00
402.45	224.07
402.83	224.17
403.20	224.27
403.58	224.36
403.95	224.48
404.33	224.61
404.71	224.72
405.08	224.90
405.46	225.04
405.83	225.21
406.21	225.38
406.58	225.56
406.96	225.75
407.33	225.96
407.70	226.19
408.08	226.52
408.45	226.79
408.83	227.09
409.20	227.37
409.58	227.61
409.95	227.94
410.33	228.31
410.70	228.66
411.08	229.06
411.45	229.49
411.82	229.92
412.20	230.42
412.57	231.01
412.95	231.47
413.32	232.07
413.69	232.68
414.07	233.34
414.44	234.04
414.82	234.77
415.19	235.63
415.56	236.49
415.94	237.38
416.31	238.39
416.68	239.40
417.06	240.59
417.43	241.69
417.81	242.97
418.18	244.25
418.55	245.66
418.93	247.13
419.30	248.67
419.67	250.31
420.04	251.98
420.42	253.74
420.79	255.77
421.16	257.83
421.54	259.91
421.91	262.08
422.28	264.35
422.66	266.79
423.03	269.11
423.40	271.55
423.77	274.17
424.15	276.85
424.52	279.64
424.89	282.65
425.26	285.65
425.64	288.44
426.01	291.57
426.38	294.78
426.75	298.09
427.13	301.47
427.50	305.00
427.87	308.68
428.24	312.39
428.61	315.94
428.99	319.77
429.36	323.97
429.73	328.00
430.10	332.00
430.47	336.10
430.85	340.31
431.22	344.79
431.59	349.40
431.96	353.89
432.33	358.86
432.70	363.56
433.08	369.13
433.45	374.38
433.82	379.56
434.19	385.35
434.56	391.02
434.93	396.49
435.30	401.89
435.68	407.98
436.05	413.93
436.42	419.88
436.79	425.30
437.16	431.16
437.53	437.42
437.90	443.67
438.27	449.79
438.64	456.42
439.01	462.41
439.38	467.88
439.75	473.15
440.13	479.18
440.50	484.91
440.87	489.42
441.24	494.38
441.61	499.85
441.98	503.85
442.35	508.62
442.72	513.51
443.09	518.19
443.46	521.22
443.83	523.45
444.20	525.33
444.57	528.08
444.94	529.71
445.31	531.40
445.68	532.92
446.05	534.03
446.42	533.89
446.79	533.64
447.16	533.44
447.53	533.30
447.90	531.53
448.27	529.91
448.64	527.32
449.01	525.61
449.37	521.86
449.74	518.45
450.11	514.05
450.48	509.19
450.85	504.31
451.22	500.18
451.59	496.13
451.96	492.45
452.33	487.05
452.70	482.24
453.07	476.37
453.43	470.48
453.80	464.79
454.17	459.31
454.54	454.25
454.91	448.52
455.28	443.12
455.65	438.04
456.02	432.61
456.38	428.24
456.75	422.59
457.12	418.03
457.49	413.44
457.86	409.05
458.23	405.22
458.59	400.98
458.96	396.61
459.33	392.76
459.70	388.84
460.07	385.86
460.43	382.34
460.80	379.04
461.17	376.14
461.54	373.01
461.91	370.10
462.27	367.12
462.64	364.68
463.01	361.88
463.38	359.06
463.74	356.49
464.11	354.21
464.48	352.15
464.85	349.95
465.21	348.25
465.58	346.39
465.95	344.23
466.32	342.51
466.68	340.81
467.05	339.13
467.42	337.49
467.78	335.72
468.15	334.09
468.52	332.88
468.88	331.30
469.25	329.82
469.62	328.67
469.98	327.41
470.35	326.30
470.72	325.28
471.08	324.25
471.45	323.40
471.82	322.46
472.18	321.49
472.55	320.85
472.92	320.06
473.28	319.44
473.65	318.81
474.02	318.22
474.38	317.73
474.75	317.45
475.11	317.03
475.48	316.88
475.85	316.71
476.21	316.66
476.58	316.65
476.94	316.83
477.31	316.92
477.67	317.06
478.04	317.31
478.41	317.63
478.77	318.07
479.14	318.39
479.50	318.93
479.87	319.60
480.23	320.28
480.60	320.93
480.96	321.61
481.33	322.54
481.69	323.47
482.06	324.40
482.42	325.27
482.79	326.33
483.15	327.53
483.52	328.87
483.88	330.18
484.25	331.57
484.61	333.02
484.98	334.59
485.34	336.34
485.71	338.15
486.07	340.08
486.44	342.02
486.80	344.16
487.17	346.35
487.53	348.76
487.90	351.27
488.26	353.98
488.62	356.84
488.99	359.71
489.35	362.71
489.72	365.93
490.08	369.34
490.44	372.83
490.81	376.49
491.17	380.26
491.54	384.27
491.90	388.37
492.26	392.79
492.63	397.44
492.99	402.29
493.36	407.27
493.72	412.51
494.08	417.88
494.45	423.54
494.81	429.41
495.17	435.40
495.54	441.73
495.90	448.37
496.26	455.16
496.63	462.17
496.99	469.48
497.35	477.15
497.72	485.11
498.08	493.22
498.44	501.58
498.80	510.46
499.17	519.59
499.53	529.02
499.89	538.70
500.26	548.57
500.62	558.71
500.98	569.50
501.34	580.43
501.71	591.89
502.07	603.58
502.43	615.68
502.79	628.10
503.16	640.94
503.52	653.95
503.88	667.29
504.24	681.10
504.60	695.17
504.97	709.58
505.33	724.41
505.69	740.13
506.05	756.08
506.41	772.06
506.78	788.32
507.14	805.12
507.50	822.46
507.86	840.18
508.22	858.16
508.59	876.17
508.95	894.90
509.31	914.07
509.67	933.95
510.03	954.02
510.39	974.35
510.75	994.86
511.12	1015.67
511.48	1036.80
511.84	1058.10
512.20	1079.72
512.56	1102.50
512.92	1125.42
513.28	1148.06
513.64	1171.02
514.00	1194.42
514.37	1218.13
514.73	1241.84
515.09	1265.43
515.45	1289.41
515.81	1313.97
516.17	1338.60
516.53	1362.97
516.89	1387.44
517.25	1412.07
517.61	1436.90
517.97	1461.94
518.33	1486.83
518.69	1511.90
519.05	1537.28
519.41	1562.72
519.77	1588.47
520.13	1613.44
520.49	1638.63
520.85	1664.03
521.21	1689.33
521.57	1715.22
521.93	1740.45
522.29	1766.47
522.65	1792.28
523.01	1817.92
523.37	1842.75
523.73	1868.33
524.09	1894.13
524.45	1919.73
524.81	1944.89
525.17	1969.93
525.53	1994.63
525.89	2019.27
526.25	2044.10
526.61	2068.33
526.97	2092.94
527.33	2117.46
527.68	2141.80
528.04	2165.43
528.40	2188.89
528.76	2212.57
529.12	2235.19
529.48	2258.30
529.84	2279.62
530.20	2301.36
530.56	2322.77
530.91	2344.38
531.27	2365.42
531.63	2385.80
531.99	2405.71
532.35	2425.47
532.71	2445.41
533.07	2465.81
533.42	2484.75
533.78	2504.02
534.14	2523.30
534.50	2541.71
534.86	2560.76
535.21	2578.06
535.57	2595.14
535.93	2611.54
536.29	2626.64
536.65	2642.60
537.00	2657.37
537.36	2672.83
537.72	2687.30
538.08	2701.50
538.44	2714.54
538.79	2727.79
539.15	2739.29
539.51	2750.64
539.87	2761.37
540.22	2769.89
540.58	2778.75
540.94	2788.09
541.29	2796.00
541.65	2802.99
542.01	2809.51
542.37	2814.06
542.72	2820.50
543.08	2826.40
543.44	2832.14
543.79	2837.30
544.15	2841.52
544.51	2845.65
544.87	2848.78
545.22	2851.57
545.58	2853.31
545.94	2855.55
546.29	2856.31
546.65	2857.10
547.01	2858.13
547.36	2859.35
547.72	2860.88
548.07	2860.70
548.43	2860.00
548.79	2858.60
549.14	2857.08
549.50	2856.18
549.86	2854.34
550.21	2850.25
550.57	2846.62
550.92	2841.51
551.28	2836.98
551.64	2832.33
551.99	2828.04
552.35	2823.40
552.70	2818.21
553.06	2813.70
553.41	2808.61
553.77	2802.91
554.13	2798.11
554.48	2792.16
554.84	2784.71
555.19	2777.33
555.55	2769.35
555.90	2761.86
556.26	2755.52
556.61	2748.54
556.97	2739.29
557.32	2731.22
557.68	2723.21
558.03	2714.64
558.39	2706.89
558.74	2699.12
559.10	2690.30
559.45	2681.08
559.81	2671.98
560.16	2662.32
560.52	2652.29
560.87	2643.33
561.23	2633.92
561.58	2624.05
561.94	2614.04
562.29	2603.38
562.64	2593.25
563.00	2583.55
563.35	2573.67
563.71	2562.67
564.06	2551.33
564.42	2541.00
564.77	2530.22
565.12	2519.53
565.48	2508.52
565.83	2498.15
566.19	2487.92
566.54	2477.08
566.89	2465.46
567.25	2453.97
567.60	2443.24
567.96	2432.04
568.31	2419.53
568.66	2407.03
569.02	2395.47
569.37	2383.72
569.72	2372.54
570.08	2360.58
570.43	2347.99
570.78	2335.06
571.14	2322.16
571.49	2309.92
571.84	2297.90
572.20	2284.50
572.55	2271.69
572.90	2258.67
573.26	2244.74
573.61	2230.24
573.96	2216.06
574.31	2202.14
574.67	2188.43
575.02	2174.21
575.37	2159.63
575.72	2145.32
576.08	2131.45
576.43	2116.53
576.78	2101.64
577.13	2087.52
577.49	2073.58
577.84	2060.05
578.19	2045.70
578.54	2030.90
578.90	2015.55
579.25	1999.98
579.60	1985.95
579.95	1971.45
580.30	1957.06
580.66	1942.89
581.01	1928.24
581.36	1914.04
581.71	1900.48
582.06	1886.33
582.42	1872.39
582.77	1859.09
583.12	1845.28
583.47	1831.65
583.82	1818.14
584.17	1804.46
584.53	1790.68
584.88	1776.90
585.23	1762.74
585.58	1749.16
585.93	1735.89
586.28	1723.51
586.63	1710.87
586.98	1697.42
587.34	1684.24
587.69	1670.57
588.04	1657.18
588.39	1644.45
588.74	1631.11
589.09	1617.54
589.44	1604.05
589.79	1591.02
590.14	1577.91
590.49	1565.03
590.84	1551.99
591.19	1539.54
591.54	1526.67
591.89	1513.66
592.25	1500.87
592.60	1487.75
592.95	1475.15
593.30	1462.95
593.65	1450.52
594.00	1438.39
594.35	1426.93
594.70	1414.63
595.05	1403.32
595.40	1391.83
595.75	1379.77
596.10	1368.60
596.45	1357.68
596.80	1347.13
597.15	1336.38
597.50	1325.61
597.85	1315.04
598.19	1304.71
598.54	1293.83
598.89	1283.66
599.24	1273.71
599.59	1263.62
599.94	1254.52
600.29	1245.27
600.64	1235.80
600.99	1225.69
601.34	1216.06
601.69	1205.93
602.04	1196.93
602.39	1187.83
602.74	1178.99
603.08	1170.40
603.43	1161.29
603.78	1151.96
604.13	1142.80
604.48	1133.57
604.83	1124.59
605.18	1115.56
605.53	1106.43
605.87	1097.37
606.22	1088.56
606.57	1079.56
606.92	1070.56
607.27	1061.43
607.62	1052.43
607.96	1043.62
608.31	1035.94
608.66	1027.77
609.01	1019.99
609.36	1012.11
609.70	1003.99
610.05	995.73
610.40	987.81
610.75	979.97
611.10	972.41
611.44	964.49
611.79	956.86
612.14	948.86
612.49	941.03
612.83	933.68
613.18	926.41
613.53	918.98
613.88	911.64
614.22	904.95
614.57	898.04
614.92	891.10
615.27	884.17
615.61	877.01
615.96	870.16
616.31	863.19
616.65	856.18
617.00	849.40
617.35	842.73
617.70	836.09
618.04	829.57
618.39	823.07
618.74	816.91
619.08	810.56
619.43	804.48
619.78	798.39
620.12	792.13
620.47	786.06
620.82	780.04
621.16	774.34
621.51	768.28
621.85	762.24
622.20	756.23
622.55	750.40
622.89	744.51
623.24	738.63
623.59	732.89
623.93	727.18
624.28	721.64
624.62	716.06
624.97	710.47
625.32	704.99
625.66	699.38
626.01	693.75
626.35	688.30
626.70	682.89
627.04	677.68
627.39	672.51
627.73	667.42
628.08	662.60
628.43	657.60
628.77	652.64
629.12	647.85
629.46	643.27
629.81	638.50
630.15	633.65
630.50	628.96
630.84	624.46
631.19	620.13
631.53	615.82
631.88	611.43
632.22	607.13
632.57	603.05
632.91	598.92
633.26	594.87
633.60	590.92
633.95	587.09
634.29	583.09
634.64	579.06
634.98	574.93
635.32	570.96
635.67	567.16
636.01	563.31
636.36	559.49
636.70	555.82
637.05	552.13
637.39	548.64
637.73	545.00
638.08	541.43
638.42	537.85
638.77	534.13
639.11	530.39
639.45	526.69
639.80	523.01
640.14	519.50
640.49	515.95
640.83	512.29
641.17	508.66
641.52	505.21
641.86	501.76
642.20	498.50
642.55	495.06
642.89	491.70
643.23	488.56
643.58	485.67
643.92	482.64
644.26	479.64
644.61	476.63
644.95	473.63
645.29	470.56
645.64	467.46
645.98	464.51
646.32	461.75
646.66	458.98
647.01	456.18
647.35	453.45
647.69	450.60
648.04	447.90
648.38	445.23
648.72	442.50
649.06	439.86
649.41	437.26
649.75	434.66
650.09	432.08
650.43	429.50
650.78	426.90
651.12	424.28
651.46	421.77
651.80	419.35
652.14	417.01
652.49	414.70
652.83	412.46
653.17	410.18
653.51	407.98
653.85	405.84
654.20	403.66
654.54	401.38
654.88	399.30
655.22	397.26
655.56	395.19
655.90	393.23
656.25	391.27
656.59	389.30
656.93	387.45
657.27	385.64
657.61	383.72
657.95	381.87
658.29	380.02
658.64	378.19
658.98	376.35
659.32	374.54
659.66	372.82
660.00	371.12
660.34	369.46
660.68	367.73
661.02	365.95
661.36	364.29
661.70	362.69
662.05	361.08
662.39	359.45
662.73	357.91
663.07	356.40
663.41	354.92
663.75	353.47
664.09	352.01
664.43	350.47
664.77	349.04
665.11	347.55
665.45	346.15
665.79	344.73
666.13	343.32
666.47	341.88
666.81	340.43
667.15	338.95
667.49	337.55
667.83	336.21
668.17	334.91
668.51	333.62
668.85	332.36
669.19	331.17
669.53	329.91
669.87	328.63
670.21	327.38
670.55	326.13
670.89	324.95
671.23	323.75
671.57	322.56
671.91	321.42
672.25	320.35
672.58	319.27
672.92	318.16
673.26	317.13
673.60	316.11
673.94	315.06
674.28	314.09
674.62	313.10
674.96	312.08
675.30	311.12
675.64	310.14
675.97	309.17
676.31	308.17
676.65	307.20
676.99	306.29
677.33	305.33
677.67	304.42
678.01	303.43
678.34	302.51
678.68	301.66
679.02	300.77
679.36	299.88
679.70	299.00
680.04	298.15
680.37	297.29
680.71	296.45
681.05	295.68
681.39	294.85
681.73	294.00
682.06	293.19
682.40	292.38
682.74	291.61
683.08	290.86
683.42	290.09
683.75	289.39
684.09	288.62
684.43	287.89
684.77	287.14
685.10	286.46
685.44	285.75
685.78	285.02
686.12	284.34
686.45	283.65
686.79	282.96
687.13	282.29
687.46	281.58
687.80	280.91
688.14	280.20
688.48	279.54
688.81	278.89
689.15	278.29
689.49	277.64
689.82	277.01
690.16	276.32
690.50	275.69
690.83	275.06
691.17	274.44
691.51	273.84
691.84	273.25
692.18	272.64
692.52	272.02
692.85	271.42
693.19	270.86
693.52	270.30
693.86	269.73
694.20	269.17
694.53	268.64
694.87	268.09
695.21	267.56
695.54	267.03
695.88	266.49
696.21	265.91
696.55	265.38
696.88	264.87
697.22	264.36
697.56	263.86
697.89	263.31
698.23	262.80
698.56	262.27
698.90	261.79
699.23	261.29
699.57	260.83
699.90	260.36
700.24	259.87
700.58	259.40
700.91	258.97
701.25	258.61
701.58	258.21
701.92	257.81
702.25	257.39
702.59	256.96
702.92	256.55
703.26	256.15
703.59	255.74
703.93	255.41
704.26	255.03
704.60	254.65
704.93	254.27
705.26	253.90
705.60	253.56
705.93	253.17
706.27	252.84
706.60	252.51
706.94	252.18
707.27	251.79
707.61	251.44
707.94	251.06
708.27	250.62
708.61	250.23
708.94	249.86
709.28	249.52
709.61	249.18
709.94	248.87
710.28	248.55
710.61	248.26
710.95	247.87
711.28	247.63
711.61	247.33
711.95	247.06
712.28	246.77
712.61	246.46
712.95	246.24
713.28	246.01
713.61	245.72
713.95	245.42
714.28	245.18
714.61	244.90
714.95	244.64
715.28	244.37
715.61	244.12
715.95	243.88
716.28	243.63
716.61	243.41
716.95	243.16
717.28	242.94
717.61	242.70
717.94	242.47
718.28	242.17
718.61	241.94
718.94	241.69
719.27	241.48
719.61	241.27
719.94	241.02
720.27	240.75
720.60	240.54
720.94	240.34
721.27	240.13
721.60	239.96
721.93	239.76
722.27	239.61
722.60	239.43
722.93	239.23
723.26	239.04
723.59	238.84
723.93	238.66
724.26	238.48
724.59	238.30
724.92	238.13
725.25	237.99
725.59	237.82
725.92	237.68
726.25	237.52
726.58	237.36
726.91	237.19
727.24	237.05
727.57	236.89
727.91	236.72
728.24	236.58
728.57	236.41
728.90	236.28
729.23	236.10
729.56	236.00
729.89	235.84
730.22	235.69
730.55	235.55
730.89	235.40
731.22	235.26
731.55	235.12
731.88	234.98
732.21	234.83
732.54	234.69
732.87	234.55
733.20	234.43
733.53	234.30
733.86	234.19
734.19	234.06
734.52	233.95
734.85	233.92
735.18	233.77
735.51	233.69
735.84	233.57
736.17	233.49
736.50	233.32
736.83	233.34
737.16	233.24
737.49	233.14
737.82	233.04
738.15	232.95
738.48	232.85
738.81	232.74
739.14	232.63
739.47	232.53
739.80	232.42
740.13	232.33
740.46	232.22
740.79	232.10
741.12	232.00
741.45	231.88
741.78	231.72
742.11	231.65
742.44	231.52
742.77	231.44
743.10	231.33
743.43	231.23
743.75	231.03
744.08	231.10
744.41	231.01
744.74	230.91
745.07	230.79
745.40	230.73
745.73	230.69
746.06	230.61
746.39	230.55
746.71	230.46
747.04	230.37
747.37	230.29
747.70	230.24
748.03	230.16
748.36	230.11
748.68	230.03
749.01	229.94
749.34	229.87
749.67	229.79
750.00	229.73
750.33	229.75
750.65	229.69
750.98	229.47
751.31	229.40
751.64	229.34
751.97	229.33
752.29	229.24
752.62	229.13
752.95	229.05
753.28	228.96
753.60	228.89
753.93	228.84
754.26	228.79
754.59	228.69
754.91	228.61
755.24	228.53
755.57	228.51
755.90	228.45
756.22	228.38
756.55	228.30
756.88	228.21
757.20	228.08
757.53	228.00
757.86	227.93
758.19	227.88
758.51	227.82
758.84	227.72
759.17	227.66
759.49	227.62
759.82	227.62
760.15	227.59
760.47	227.54
760.80	227.46
761.13	227.42
761.45	227.39
761.78	227.34
762.11	227.30
762.43	227.20
762.76	227.15
763.08	227.12
763.41	227.08
763.74	227.05
764.06	227.00
764.39	226.96
764.71	226.92
765.04	226.86
765.37	226.81
765.69	226.77
766.02	226.73
766.34	226.68
766.67	226.60
767.00	226.57
767.32	226.58
767.65	226.61
767.97	226.55
768.30	226.51
768.62	226.47
768.95	226.43
769.27	226.39
769.60	226.37
769.92	226.31
770.25	226.26
770.57	226.20
770.90	226.15
771.22	226.11
771.55	226.08
771.87	226.05
772.20	226.02
772.52	226.07
772.85	226.16
773.17	226.13
773.50	226.09
773.82	226.04
774.15	225.96
774.47	225.87
774.80	225.83
775.12	225.80
775.45	225.77
775.77	225.74
776.09	225.72
776.42	225.69
776.74	225.70
777.07	225.67
777.39	225.65
777.72	225.62
778.04	225.61
778.36	225.57
778.69	225.54
779.01	225.53
779.33	225.41
779.66	225.27
779.98	225.24
780.31	225.22
780.63	225.24
780.95	225.23
781.28	225.21
781.60	225.19
781.92	225.16
782.25	225.14
782.57	225.11
782.89	225.08
783.22	225.05
783.54	225.01
783.86	225.00
784.19	224.97
784.51	224.99
784.83	224.95
785.16	224.93
785.48	224.91
785.80	224.89
786.12	224.88
786.45	224.86
786.77	224.85
787.09	224.83
787.42	224.78
787.74	224.76
788.06	224.75
788.38	224.73
788.71	224.71
789.03	224.70
789.35	224.69
789.67	224.66
789.99	224.65
790.32	224.62
790.64	224.62
790.96	224.69
791.28	224.64
791.61	224.62
791.93	224.62
792.25	224.60
792.57	224.65
792.89	224.63
793.21	224.62
793.54	224.59
793.86	224.57
794.18	224.56
794.50	224.53
794.82	224.51
795.14	224.51
795.47	224.52
795.79	224.51
796.11	224.48
796.43	224.46
796.75	224.45
797.07	224.45
797.39	224.43
797.71	224.33
798.04	224.32
798.36	224.32
798.68	224.30
799.00	224.30
799.32	224.24
799.64	224.24
799.96	224.23
800.28	224.24
800.60	224.22
800.92	224.22
801.24	224.20
801.56	224.19
801.89	224.17
802.21	224.16
802.53	224.13
802.85	224.14
803.17	224.18
803.49	224.15
803.81	224.13
804.13	224.11
804.45	224.10
804.77	224.09
805.09	224.08
805.41	224.06
805.73	224.03
806.05	223.99
806.37	223.98
806.69	223.95
807.01	223.93
807.33	223.92
807.65	223.88
807.97	223.91
808.28	223.89
808.60	223.89
808.92	223.86
809.24	223.92
809.56	223.89
809.88	223.85
810.20	223.85
810.52	223.86
810.84	223.84
811.16	223.82
811.48	223.80
811.80	223.84
812.12	223.83
812.43	223.84
812.75	223.85
813.07	223.83
813.39	223.83
813.71	223.82
814.03	223.80
814.35	223.80
814.67	223.76
814.98	223.74
815.30	223.73
815.62	223.71
815.94	223.64
816.26	223.64
816.58	223.62
816.89	223.62
817.21	223.59
817.53	223.60
817.85	223.59
818.17	223.59
818.48	223.54
818.80	223.55
819.12	223.53
819.44	223.51
819.76	223.50
820.07	223.49
820.39	223.48
820.71	223.49
821.03	223.49
821.34	223.47
821.66	223.48
821.98	223.49
822.30	223.49
822.61	223.54
822.93	223.52
823.25	223.51
823.57	223.50
823.88	223.50
824.20	223.50
824.52	223.51
824.83	223.50
825.15	223.50
825.47	223.49
825.79	223.49
826.10	223.48
826.42	223.47
826.74	223.48
827.05	223.47
827.37	223.47
827.69	223.46
828.00	223.47
828.32	223.47
828.64	223.45
828.95	223.51
829.27	223.48
829.58	223.48
829.90	223.50
830.22	223.50
830.53	223.48
830.85	223.46
831.17	223.43
831.48	223.43
831.80	223.43
832.11	223.42
832.43	223.41
832.75	223.41
833.06	223.47
833.38	223.44
833.69	223.44
834.01	223.43
834.32	223.42
834.64	223.41
834.96	223.40
835.27	223.40
835.59	223.36
835.90	223.34
836.22	223.33
836.53	223.31
836.85	223.30
837.16	223.41
837.48	223.41
837.79	223.45
838.11	223.45
838.42	223.45
838.74	223.46
839.05	223.45
839.37	223.45
839.68	223.38
840.00	223.37
840.31	223.38
840.63	223.37
840.94	223.36
841.26	223.36
841.57	223.35
841.88	223.35
842.20	223.33
842.51	223.31
842.83	223.31
843.14	223.40
843.46	223.39
843.77	223.32
844.08	223.31
844.40	223.27
844.71	223.26
845.03	223.25
845.34	223.23
845.65	223.22
845.97	223.22
846.28	223.23
846.60	223.23
846.91	223.21
847.22	223.20
847.54	223.22
847.85	223.22
848.16	223.21
848.48	223.19
848.79	223.23
849.10	223.24
849.42	223.24
849.73	223.15
850.04	223.15
850.36	223.11
850.67	223.13
850.98	223.13
851.30	223.13
851.61	223.14
851.92	223.13
852.23	223.16
852.55	223.17
852.86	223.16
853.17	223.16
853.49	223.19
853.80	223.21
854.11	223.21
854.42	223.22
854.74	223.21
855.05	223.21
855.36	223.15
855.67	223.15
855.99	223.15
856.30	223.27
856.61	223.27
856.92	223.27
857.23	223.26
857.55	223.25
857.86	223.25
858.17	223.26
858.48	223.24
858.79	223.22
859.11	223.23
859.42	223.23
859.73	223.21
860.04	223.21
860.35	223.18
860.66	223.15
860.98	223.15
861.29	223.17
861.60	223.16
861.91	223.18
862.22	223.17
862.53	223.15
862.84	223.03
863.16	223.05
863.47	223.04
863.78	223.02
864.09	223.03
864.40	223.03
864.71	223.03
865.02	223.04
865.33	223.03
865.64	223.01
865.95	223.01
866.27	223.07
866.58	223.06
866.89	223.08
867.20	223.07
867.51	223.06
867.82	223.06
868.13	223.09
868.44	223.07
868.75	223.09
869.06	223.09
869.37	223.10
869.68	223.07
869.99	223.08
870.30	223.10
870.61	223.10
870.92	223.09
871.23	223.09
871.54	223.09
871.85	223.12
872.16	223.13
872.47	223.11
872.78	223.06
873.09	223.07
873.40	223.06
873.71	223.06
874.02	223.07
874.33	223.06
874.64	223.03
874.95	223.05
875.26	223.02
875.56	223.02
875.87	223.01
876.18	223.01
876.49	223.11
876.80	223.10
877.11	223.08
877.42	223.09
877.73	223.09
878.04	223.07
878.35	223.08
878.66	223.08
878.96	223.08
879.27	223.07
879.58	223.07
879.89	223.06
880.20	223.09
880.51	223.08
880.82	223.08
881.12	223.09
881.43	223.07
881.74	223.06
882.05	223.06
882.36	223.07
882.67	223.08
882.97	222.97
883.28	222.96
883.59	222.96
883.90	222.97
884.21	222.98
884.51	222.98
884.82	222.96
885.13	222.95
885.44	222.95
885.74	222.95
886.05	222.94
886.36	222.94
886.67	222.89
886.98	222.95
887.28	222.95
887.59	222.93
887.90	222.93
888.20	222.93
888.51	222.95
888.82	222.92
889.13	222.92
889.43	223.01
889.74	223.01
890.05	223.00
890.35	222.99
890.66	222.97
890.97	222.95
891.28	222.94
891.58	222.94
891.89	222.95
892.20	222.94
892.50	222.93
892.81	222.92
893.12	222.92
893.42	222.87
893.73	222.87
894.04	222.88
894.34	222.89
894.65	222.89
894.95	222.87
895.26	222.88
895.57	222.93
895.87	222.82
896.18	222.84
896.48	222.85
896.79	222.85
897.10	222.86
897.40	222.87
897.71	222.88
898.01	222.87
898.32	222.88
898.63	222.88
898.93	222.89
899.24	222.89
899.54	222.89
899.85	222.89
900.15	222.88
900.46	222.88
900.76	222.88
901.07	222.88
901.38	222.88
901.68	222.89
901.99	222.83
902.29	222.84
902.60	222.83
902.90	222.82
903.21	222.82
903.51	222.81
903.82	222.83
904.12	222.83
904.43	222.83
904.73	222.83
905.03	222.83
905.34	222.92
905.64	222.92
905.95	222.92
906.25	222.92
906.56	222.91
906.86	222.92
907.17	222.90
907.47	222.91
907.77	222.90
908.08	222.88
908.38	222.88
908.69	222.89
908.99	222.90
909.30	222.91
909.60	222.90
909.90	222.90
910.21	222.87
910.51	222.85
910.81	222.85
911.12	222.86
911.42	222.86
911.73	222.75
912.03	222.75
912.33	222.78
912.64	222.77
912.94	222.75
913.24	222.73
913.55	222.72
913.85	222.72
914.15	222.74
914.46	222.75
914.76	222.75
915.06	222.74
915.37	222.72
915.67	222.71
915.97	222.72
916.27	222.70
916.58	222.71
916.88	222.71
917.18	222.70
917.49	222.77
917.79	222.77
918.09	222.78
918.39	222.81
918.70	222.80
919.00	222.81
919.30	222.86
919.60	222.85
919.91	222.85
920.21	222.85
920.51	222.82
920.81	222.81
921.12	222.83
921.42	222.83
921.72	222.83
922.02	222.84
922.32	222.85
922.63	222.85
922.93	222.90
923.23	222.91
923.53	222.90
923.83	222.84
924.13	222.85
924.44	222.86
924.74	222.86
925.04	222.88
925.34	222.87
925.64	222.83
925.94	222.85
926.24	222.90
926.55	222.89
926.85	222.91
927.15	222.91
927.45	222.90
927.75	222.91
928.05	222.92
928.35	222.90
928.65	222.92
928.95	222.92
929.26	222.88
929.56	222.91
929.86	222.92
930.16	222.91
930.46	222.89
930.76	222.89
931.06	222.84
931.36	222.82
931.66	222.83
931.96	222.84
932.26	222.84
932.56	222.80
932.86	222.80
933.16	222.80
933.46	222.80
933.76	222.78
934.06	222.80
934.36	222.83
934.66	222.83
934.96	222.81
935.26	222.82
935.56	222.83
935.86	222.81
936.16	222.79
936.46	222.78
936.76	222.77
937.06	222.76
937.36	222.77
937.66	222.77
937.96	222.76
938.26	222.75
938.56	222.74
938.86	222.74
939.16	222.77
939.46	222.77
939.76	222.78
940.06	222.78
940.35	222.76
940.65	222.70
940.95	222.71
941.25	222.68
941.55	222.67
941.85	222.65
942.15	222.68
942.45	222.70
942.75	222.70
943.04	222.71
943.34	222.72
943.64	222.71
943.94	222.70
944.24	222.70
944.54	222.71
944.84	222.70
945.13	222.69
945.43	222.67
945.73	222.66
946.03	222.65
946.33	222.64
946.62	222.63
946.92	222.62
947.22	222.63
947.52	222.65
947.82	222.66
948.11	222.65
948.41	222.63
948.71	222.60
949.01	222.60
949.31	222.59
949.60	222.58
949.90	222.61
950.20	222.61
950.50	222.61
950.79	222.60
951.09	222.61
951.39	222.61
951.69	222.60
951.98	222.62
952.28	222.63
952.58	222.63
952.87	222.64
953.17	222.65
953.47	222.63
953.76	222.63
954.06	222.60
954.36	222.59
954.66	222.59
954.95	222.62
955.25	222.63
955.55	222.63
955.84	222.62
956.14	222.61
956.44	222.61
956.73	222.60
957.03	222.61
957.32	222.61
957.62	222.60
957.92	222.62
958.21	222.61
958.51	222.73
958.81	222.74
959.10	222.75
959.40	222.77
959.69	222.78
959.99	222.80
960.29	222.80
960.58	222.80
960.88	222.83
961.17	222.83
961.47	222.84
961.76	222.83
962.06	222.84
962.36	222.83
962.65	222.84
962.95	222.84
963.24	222.83
963.54	222.83
963.83	222.84
964.13	222.83
964.42	222.82
964.72	222.73
965.01	222.73
965.31	222.72
965.60	222.68
965.90	222.75
966.19	222.72
966.49	222.73
966.78	222.73
967.08	222.72
967.37	222.72
967.67	222.69
967.96	222.71
968.26	222.70
968.55	222.71
968.85	222.71
969.14	222.70
969.43	222.71
969.73	222.70
970.02	222.69
970.32	222.68
970.61	222.67
970.91	222.64
971.20	222.62
971.49	222.62
971.79	222.64
972.08	222.57
972.38	222.57
972.67	222.57
972.96	222.58
973.26	222.56
973.55	222.59
973.85	222.59
974.14	222.59
974.43	222.59
974.73	222.58
975.02	222.56
975.31	222.57
975.61	222.57
975.90	222.55
976.19	222.55
976.49	222.56
976.78	222.57
977.07	222.57
977.37	222.58
977.66	222.59
977.95	222.57
978.24	222.58
978.54	222.60
978.83	222.59
979.12	222.59
979.42	222.59
979.71	222.57
980.00	222.56
980.29	222.56
980.59	222.55
980.88	222.57
981.17	222.57
981.46	222.57
981.76	222.58
982.05	222.60
982.34	222.60
982.63	222.60
982.93	222.60
983.22	222.62
983.51	222.63
983.80	222.64
984.09	222.66
984.39	222.66
984.68	222.64
984.97	222.65
985.26	222.64
985.55	222.65
985.85	222.63
986.14	222.64
986.43	222.64
986.72	222.63
987.01	222.61
987.30	222.61
987.59	222.60
987.89	222.60
988.18	222.57
988.47	222.57
988.76	222.56
989.05	222.55
989.34	222.53
989.63	222.56
989.92	222.54
990.22	222.52
990.51	222.51
990.80	222.50
991.09	222.50
991.38	222.51
991.67	222.50
991.96	222.50
992.25	222.50
992.54	222.48
992.83	222.49
993.12	222.48
993.41	222.50
993.70	222.54
993.99	222.56
994.28	222.58
994.58	222.59
994.87	222.58
995.16	222.58
995.45	222.57
995.74	222.54
996.03	222.56
996.32	222.58
996.61	222.60
996.90	222.61
997.19	222.60
997.48	222.60
997.77	222.60
998.06	222.61
998.34	222.60
998.63	222.60
998.92	222.60
999.21	222.62
999.50	222.62
999.79	222.59
1000.08	222.58
1000.37	222.58
1000.66	222.57
1000.95	222.60
1001.24	222.60
1001.53	222.61
1001.82	222.61
1002.11	222.59
1002.40	222.60
1002.68	222.62
1002.97	222.68
1003.26	222.67
1003.55	222.65
1003.84	222.66
1004.13	222.69
1004.42	222.69
1004.71	222.69
1004.99	222.68
1005.28	222.71
1005.57	222.70
1005.86	222.69
1006.15	222.69
1006.44	222.67
1006.72	222.68
1007.01	222.66
1007.30	222.66
1007.59	222.65
1007.88	222.64
1008.17	222.64
1008.45	222.62
1008.74	222.58
1009.03	222.54
1009.32	222.54
1009.60	222.54
1009.89	222.54
1010.18	222.49
1010.47	222.48
1010.76	222.48
1011.04	222.48
1011.33	222.47
1011.62	222.48
1011.91	222.48
1012.19	222.49
1012.48	222.50
1012.77	222.49
1013.05	222.53
1013.34	222.52
1013.63	222.52
1013.92	222.53
1014.20	222.53
1014.49	222.53
1014.78	222.54
1015.06	222.51
1015.35	222.51
1015.64	222.52
1015.92	222.54
1016.21	222.55
1016.50	222.55
1016.78	222.56
1017.07	222.57
1017.36	222.56
1017.64	222.55
1017.93	222.56
1018.22	222.54
1018.50	222.54
1018.79	222.55
1019.08	222.51
1019.36	222.52
1019.65	222.51
1019.93	222.54
1020.22	222.55
1020.51	222.61
1020.79	222.59
1021.08	222.39
1021.36	222.35
1021.65	222.54
1021.94	222.49
1022.22	222.59
1022.51	222.38
1022.79	223.13
1023.08	222.66
1023.36	223.74
1023.65	222.25
>>>>>End Processed Spectral Data<<<<<
