SpectraSuite Data File
++++++++++++++++++++++++++++++++++++
Date: Wed Sep 30 23:14:49 EDT 2015
User: lab3
Dark Spectrum Present: No
Reference Spectrum Present: No
Number of Sampled Component Spectra: 1
Spectrometers: USB2E7196
Integration Time (usec): 36000 (USB2E7196)
Spectra Averaged: 10000 (USB2E7196)
Boxcar Smoothing: 10 (USB2E7196)
Correct for Electrical Dark: No (USB2E7196)
Strobe/Lamp Enabled: No (USB2E7196)
Correct for Detector Non-linearity: No (USB2E7196)
Correct for Stray Light: No (USB2E7196)
Number of Pixels in Processed Spectrum: 2048
>>>>>Begin Processed Spectral Data<<<<<
339.09	0.00
339.48	210.99
339.86	212.46
340.24	213.84
340.63	215.29
341.01	218.24
341.39	217.97
341.78	219.31
342.16	220.47
342.54	221.00
342.93	209.54
343.31	220.13
343.69	220.67
344.07	221.13
344.46	221.56
344.84	221.94
345.22	222.18
345.60	222.43
345.99	222.62
346.37	222.76
346.75	222.87
347.13	222.94
347.52	223.01
347.90	223.09
348.28	223.13
348.66	223.18
349.05	223.18
349.43	223.23
349.81	223.28
350.19	223.34
350.57	223.41
350.96	223.49
351.34	223.58
351.72	223.68
352.10	223.78
352.48	223.86
352.87	223.91
353.25	223.98
353.63	224.04
354.01	224.10
354.39	224.18
354.77	224.26
355.15	224.36
355.54	224.42
355.92	224.45
356.30	224.52
356.68	224.66
357.06	224.74
357.44	224.79
357.82	224.85
358.20	224.96
358.58	225.02
358.97	225.08
359.35	225.16
359.73	225.24
360.11	225.29
360.49	225.35
360.87	225.40
361.25	225.46
361.63	225.54
362.01	225.59
362.39	225.63
362.77	225.67
363.15	225.70
363.53	225.73
363.91	225.77
364.29	225.79
364.67	225.72
365.05	225.74
365.43	225.77
365.81	225.80
366.19	225.82
366.57	225.87
366.95	225.87
367.33	225.85
367.71	225.85
368.09	225.87
368.47	225.86
368.85	225.85
369.23	225.86
369.61	225.81
369.99	225.82
370.37	225.82
370.75	225.88
371.13	225.84
371.51	225.80
371.89	225.78
372.27	225.76
372.65	225.73
373.03	225.69
373.41	225.65
373.78	225.60
374.16	225.51
374.54	225.43
374.92	225.38
375.30	225.34
375.68	225.27
376.06	225.22
376.44	225.17
376.82	225.13
377.19	225.07
377.57	225.02
377.95	224.94
378.33	224.87
378.71	224.73
379.09	224.68
379.47	224.64
379.84	224.58
380.22	224.51
380.60	224.44
380.98	224.39
381.36	224.34
381.73	224.27
382.11	224.24
382.49	224.20
382.87	224.14
383.25	224.09
383.62	224.16
384.00	224.09
384.38	224.05
384.76	224.03
385.13	224.02
385.51	223.98
385.89	223.92
386.27	223.89
386.64	223.87
387.02	223.82
387.40	223.77
387.78	223.74
388.15	223.72
388.53	223.69
388.91	223.66
389.29	223.62
389.66	223.62
390.04	223.58
390.42	223.57
390.79	223.56
391.17	223.53
391.55	223.40
391.92	223.39
392.30	223.39
392.68	223.35
393.05	223.33
393.43	223.33
393.81	223.33
394.18	223.31
394.56	223.31
394.94	223.34
395.31	223.34
395.69	223.37
396.06	223.40
396.44	223.42
396.82	223.43
397.19	223.50
397.57	223.51
397.95	223.55
398.32	223.55
398.70	223.59
399.07	223.64
399.45	223.68
399.82	223.72
400.20	223.75
400.58	223.80
400.95	223.82
401.33	223.89
401.70	224.03
402.08	224.12
402.45	224.19
402.83	224.29
403.20	224.40
403.58	224.48
403.95	224.60
404.33	224.73
404.71	224.86
405.08	225.03
405.46	225.18
405.83	225.34
406.21	225.51
406.58	225.70
406.96	225.88
407.33	226.10
407.70	226.34
408.08	226.67
408.45	226.95
408.83	227.26
409.20	227.54
409.58	227.79
409.95	228.13
410.33	228.51
410.70	228.86
411.08	229.27
411.45	229.70
411.82	230.14
412.20	230.65
412.57	231.25
412.95	231.72
413.32	232.34
413.69	232.97
414.07	233.64
414.44	234.37
414.82	235.11
415.19	235.98
415.56	236.86
415.94	237.78
416.31	238.81
416.68	239.84
417.06	241.05
417.43	242.16
417.81	243.46
418.18	244.78
418.55	246.22
418.93	247.72
419.30	249.29
419.67	250.96
420.04	252.67
420.42	254.46
420.79	256.53
421.16	258.62
421.54	260.74
421.91	262.96
422.28	265.28
422.66	267.77
423.03	270.14
423.40	272.63
423.77	275.30
424.15	278.04
424.52	280.88
424.89	283.96
425.26	287.03
425.64	289.87
426.01	293.07
426.38	296.35
426.75	299.72
427.13	303.17
427.50	306.78
427.87	310.53
428.24	314.33
428.61	317.96
428.99	321.87
429.36	326.16
429.73	330.26
430.10	334.35
430.47	338.52
430.85	342.82
431.22	347.41
431.59	352.10
431.96	356.68
432.33	361.76
432.70	366.57
433.08	372.26
433.45	377.62
433.82	382.90
434.19	388.79
434.56	394.58
434.93	400.17
435.30	405.69
435.68	411.91
436.05	417.99
436.42	424.06
436.79	429.60
437.16	435.57
437.53	441.97
437.90	448.36
438.27	454.60
438.64	461.38
439.01	467.50
439.38	473.10
439.75	478.50
440.13	484.66
440.50	490.52
440.87	495.14
441.24	500.22
441.61	505.83
441.98	509.94
442.35	514.83
442.72	519.84
443.09	524.64
443.46	527.73
443.83	530.01
444.20	531.96
444.57	534.79
444.94	536.48
445.31	538.23
445.68	539.79
446.05	540.95
446.42	540.79
446.79	540.55
447.16	540.34
447.53	540.18
447.90	538.36
448.27	536.67
448.64	533.98
449.01	532.20
449.37	528.34
449.74	524.82
450.11	520.30
450.48	515.33
450.85	510.32
451.22	506.06
451.59	501.90
451.96	498.11
452.33	492.55
452.70	487.61
453.07	481.58
453.43	475.54
453.80	469.71
454.17	464.10
454.54	458.89
454.91	453.00
455.28	447.47
455.65	442.25
456.02	436.69
456.38	432.21
456.75	426.42
457.12	421.76
457.49	417.06
457.86	412.56
458.23	408.63
458.59	404.27
458.96	399.80
459.33	395.86
459.70	391.85
460.07	388.78
460.43	385.18
460.80	381.79
461.17	378.81
461.54	375.60
461.91	372.61
462.27	369.55
462.64	367.06
463.01	364.20
463.38	361.32
463.74	358.71
464.11	356.39
464.48	354.29
464.85	352.04
465.21	350.32
465.58	348.41
465.95	346.21
466.32	344.45
466.68	342.73
467.05	341.00
467.42	339.34
467.78	337.55
468.15	335.88
468.52	334.66
468.88	333.04
469.25	331.56
469.62	330.38
469.98	329.11
470.35	327.98
470.72	326.95
471.08	325.91
471.45	325.05
471.82	324.10
472.18	323.12
472.55	322.48
472.92	321.69
473.28	321.07
473.65	320.44
474.02	319.84
474.38	319.35
474.75	319.07
475.11	318.66
475.48	318.51
475.85	318.35
476.21	318.30
476.58	318.30
476.94	318.49
477.31	318.62
477.67	318.77
478.04	319.04
478.41	319.37
478.77	319.83
479.14	320.16
479.50	320.72
479.87	321.40
480.23	322.08
480.60	322.75
480.96	323.45
481.33	324.40
481.69	325.35
482.06	326.29
482.42	327.19
482.79	328.26
483.15	329.49
483.52	330.86
483.88	332.20
484.25	333.61
484.61	335.09
484.98	336.67
485.34	338.44
485.71	340.28
486.07	342.25
486.44	344.20
486.80	346.38
487.17	348.60
487.53	351.05
487.90	353.61
488.26	356.36
488.62	359.26
488.99	362.17
489.35	365.22
489.72	368.51
490.08	371.96
490.44	375.52
490.81	379.24
491.17	383.04
491.54	387.11
491.90	391.28
492.26	395.76
492.63	400.49
492.99	405.39
493.36	410.43
493.72	415.73
494.08	421.17
494.45	426.92
494.81	432.87
495.17	438.94
495.54	445.36
495.90	452.09
496.26	458.96
496.63	466.07
496.99	473.46
497.35	481.22
497.72	489.26
498.08	497.47
498.44	505.93
498.80	514.94
499.17	524.18
499.53	533.76
499.89	543.56
500.26	553.54
500.62	563.80
500.98	574.72
501.34	585.81
501.71	597.44
502.07	609.27
502.43	621.51
502.79	634.05
503.16	647.03
503.52	660.17
503.88	673.69
504.24	687.66
504.60	701.89
504.97	716.52
505.33	731.54
505.69	747.45
506.05	763.55
506.41	779.64
506.78	796.05
507.14	812.94
507.50	830.42
507.86	848.32
508.22	866.47
508.59	884.65
508.95	903.54
509.31	922.87
509.67	942.89
510.03	963.13
510.39	983.60
510.75	1004.30
511.12	1025.32
511.48	1046.60
511.84	1068.03
512.20	1089.79
512.56	1112.60
512.92	1135.59
513.28	1158.31
513.64	1181.39
514.00	1204.88
514.37	1228.68
514.73	1252.55
515.09	1276.22
515.45	1300.32
515.81	1324.99
516.17	1349.67
516.53	1374.06
516.89	1398.52
517.25	1423.20
517.61	1448.05
517.97	1473.12
518.33	1497.94
518.69	1522.85
519.05	1548.09
519.41	1573.43
519.77	1599.03
520.13	1623.89
520.49	1648.94
520.85	1674.23
521.21	1699.40
521.57	1725.19
521.93	1750.30
522.29	1776.20
522.65	1801.85
523.01	1827.29
523.37	1851.96
523.73	1877.37
524.09	1902.96
524.45	1928.39
524.81	1953.31
525.17	1978.14
525.53	2002.58
525.89	2027.07
526.25	2051.79
526.61	2075.96
526.97	2100.43
527.33	2124.82
527.68	2148.93
528.04	2172.32
528.40	2195.52
528.76	2218.94
529.12	2241.28
529.48	2264.00
529.84	2284.93
530.20	2306.41
530.56	2327.50
530.91	2348.71
531.27	2369.36
531.63	2389.34
531.99	2408.87
532.35	2428.14
532.71	2447.51
533.07	2467.39
533.42	2485.81
533.78	2504.52
534.14	2523.24
534.50	2541.10
534.86	2559.64
535.21	2576.39
535.57	2592.95
535.93	2608.91
536.29	2623.59
536.65	2639.18
537.00	2653.56
537.36	2668.45
537.72	2682.34
538.08	2695.87
538.44	2708.26
538.79	2720.88
539.15	2731.87
539.51	2742.74
539.87	2753.21
540.22	2761.45
540.58	2769.97
540.94	2778.90
541.29	2786.51
541.65	2793.04
542.01	2799.06
542.37	2803.22
542.72	2809.43
543.08	2815.00
543.44	2820.32
543.79	2824.92
544.15	2828.45
544.51	2832.13
544.87	2834.86
545.22	2837.22
545.58	2838.60
545.94	2840.45
546.29	2840.83
546.65	2841.21
547.01	2841.82
547.36	2842.42
547.72	2843.26
548.07	2842.61
548.43	2841.37
548.79	2839.44
549.14	2837.47
549.50	2836.26
549.86	2833.88
550.21	2829.17
550.57	2824.92
550.92	2819.42
551.28	2814.46
551.64	2809.55
551.99	2804.87
552.35	2799.81
552.70	2794.30
553.06	2789.57
553.41	2784.33
553.77	2778.37
554.13	2773.33
554.48	2767.15
554.84	2759.51
555.19	2752.05
555.55	2744.00
555.90	2736.52
556.26	2730.02
556.61	2722.88
556.97	2713.49
557.32	2705.17
557.68	2697.06
558.03	2688.37
558.39	2680.31
558.74	2672.38
559.10	2663.30
559.45	2653.79
559.81	2644.66
560.16	2634.81
560.52	2624.65
560.87	2615.52
561.23	2605.97
561.58	2595.91
561.94	2585.57
562.29	2574.77
562.64	2564.53
563.00	2554.53
563.35	2544.38
563.71	2533.24
564.06	2521.78
564.42	2511.27
564.77	2500.40
565.12	2489.68
565.48	2478.78
565.83	2468.53
566.19	2458.29
566.54	2447.52
566.89	2435.98
567.25	2424.31
567.60	2413.46
567.96	2402.11
568.31	2389.35
568.66	2376.70
569.02	2365.04
569.37	2353.14
569.72	2341.75
570.08	2329.63
570.43	2317.03
570.78	2304.06
571.14	2290.97
571.49	2278.56
571.84	2266.51
572.20	2253.21
572.55	2240.21
572.90	2227.05
573.26	2212.84
573.61	2198.11
573.96	2183.80
574.31	2169.76
574.67	2156.04
575.02	2141.92
575.37	2127.31
575.72	2112.95
576.08	2099.16
576.43	2084.28
576.78	2069.57
577.13	2055.60
577.49	2041.63
577.84	2028.05
578.19	2013.64
578.54	1998.86
578.90	1983.61
579.25	1968.03
579.60	1953.92
579.95	1939.46
580.30	1925.03
580.66	1910.93
581.01	1896.51
581.36	1882.37
581.71	1868.86
582.06	1854.72
582.42	1840.77
582.77	1827.45
583.12	1813.78
583.47	1800.22
583.82	1786.80
584.17	1773.22
584.53	1759.52
584.88	1745.86
585.23	1731.78
585.58	1718.26
585.93	1705.14
586.28	1692.86
586.63	1680.32
586.98	1667.08
587.34	1654.04
587.69	1640.54
588.04	1627.36
588.39	1614.79
588.74	1601.67
589.09	1588.34
589.44	1575.00
589.79	1562.11
590.14	1549.23
590.49	1536.50
590.84	1523.63
591.19	1511.39
591.54	1498.66
591.89	1485.77
592.25	1473.18
592.60	1460.28
592.95	1447.93
593.30	1435.92
593.65	1423.62
594.00	1411.61
594.35	1400.28
594.70	1388.23
595.05	1377.23
595.40	1365.94
595.75	1354.09
596.10	1343.09
596.45	1332.29
596.80	1321.99
597.15	1311.49
597.50	1300.91
597.85	1290.61
598.19	1280.47
598.54	1269.70
598.89	1259.68
599.24	1249.93
599.59	1240.01
599.94	1231.10
600.29	1222.06
600.64	1212.75
600.99	1202.86
601.34	1193.45
601.69	1183.51
602.04	1174.58
602.39	1165.53
602.74	1156.74
603.08	1148.17
603.43	1139.12
603.78	1129.96
604.13	1120.92
604.48	1111.82
604.83	1102.99
605.18	1094.09
605.53	1085.08
605.87	1076.23
606.22	1067.64
606.57	1058.82
606.92	1050.07
607.27	1041.11
607.62	1032.27
607.96	1023.63
608.31	1016.05
608.66	1008.01
609.01	1000.38
609.36	992.71
609.70	984.78
610.05	976.71
610.40	968.99
610.75	961.36
611.10	954.00
611.44	946.28
611.79	938.84
612.14	931.03
612.49	923.39
612.83	916.24
613.18	909.13
613.53	901.82
613.88	894.61
614.22	888.01
614.57	881.24
614.92	874.45
615.27	867.67
615.61	860.74
615.96	854.01
616.31	847.22
616.65	840.33
617.00	833.70
617.35	827.22
617.70	820.75
618.04	814.36
618.39	807.98
618.74	801.94
619.08	795.73
619.43	789.75
619.78	783.75
620.12	777.60
620.47	771.63
620.82	765.79
621.16	760.24
621.51	754.29
621.85	748.37
622.20	742.51
622.55	736.85
622.89	731.10
623.24	725.43
623.59	719.82
623.93	714.26
624.28	708.84
624.62	703.39
624.97	697.93
625.32	692.58
625.66	687.08
626.01	681.57
626.35	676.21
626.70	670.91
627.04	665.84
627.39	660.77
627.73	655.81
628.08	651.07
628.43	646.20
628.77	641.42
629.12	636.78
629.46	632.29
629.81	627.60
630.15	622.81
630.50	618.19
630.84	613.78
631.19	609.55
631.53	605.34
631.88	601.04
632.22	596.84
632.57	592.87
632.91	588.86
633.26	584.93
633.60	581.08
633.95	577.35
634.29	573.44
634.64	569.52
634.98	565.50
635.32	561.63
635.67	557.89
636.01	554.11
636.36	550.35
636.70	546.73
637.05	543.14
637.39	539.75
637.73	536.20
638.08	532.72
638.42	529.18
638.77	525.56
639.11	521.89
639.45	518.29
639.80	514.68
640.14	511.27
640.49	507.81
640.83	504.20
641.17	500.68
641.52	497.30
641.86	493.90
642.20	490.71
642.55	487.35
642.89	484.09
643.23	481.02
643.58	478.19
643.92	475.24
644.26	472.30
644.61	469.35
644.95	466.42
645.29	463.42
645.64	460.42
645.98	457.54
646.32	454.86
646.66	452.18
647.01	449.45
647.35	446.77
647.69	443.98
648.04	441.38
648.38	438.78
648.72	436.15
649.06	433.61
649.41	431.07
649.75	428.53
650.09	426.02
650.43	423.52
650.78	420.97
651.12	418.42
651.46	415.99
651.80	413.67
652.14	411.40
652.49	409.16
652.83	406.96
653.17	404.75
653.51	402.59
653.85	400.51
654.20	398.36
654.54	396.14
654.88	394.12
655.22	392.13
655.56	390.11
655.90	388.19
656.25	386.26
656.59	384.35
656.93	382.55
657.27	380.78
657.61	378.90
657.95	377.10
658.29	375.31
658.64	373.54
658.98	371.74
659.32	369.98
659.66	368.32
660.00	366.67
660.34	365.06
660.68	363.40
661.02	361.67
661.36	360.07
661.70	358.52
662.05	356.94
662.39	355.36
662.73	353.87
663.07	352.40
663.41	350.96
663.75	349.55
664.09	348.13
664.43	346.63
664.77	345.24
665.11	343.79
665.45	342.41
665.79	341.04
666.13	339.66
666.47	338.26
666.81	336.84
667.15	335.39
667.49	334.03
667.83	332.72
668.17	331.45
668.51	330.20
668.85	328.98
669.19	327.84
669.53	326.62
669.87	325.37
670.21	324.16
670.55	322.96
670.89	321.84
671.23	320.69
671.57	319.55
671.91	318.46
672.25	317.43
672.58	316.39
672.92	315.32
673.26	314.32
673.60	313.32
673.94	312.31
674.28	311.36
674.62	310.40
674.96	309.41
675.30	308.49
675.64	307.54
675.97	306.61
676.31	305.63
676.65	304.69
676.99	303.80
677.33	302.87
677.67	301.98
678.01	301.00
678.34	300.11
678.68	299.27
679.02	298.39
679.36	297.52
679.70	296.67
680.04	295.84
680.37	295.00
680.71	294.20
681.05	293.44
681.39	292.64
681.73	291.81
682.06	291.02
682.40	290.24
682.74	289.48
683.08	288.75
683.42	288.00
683.75	287.32
684.09	286.56
684.43	285.85
684.77	285.13
685.10	284.46
685.44	283.76
685.78	283.06
686.12	282.40
686.45	281.72
686.79	281.05
687.13	280.39
687.46	279.72
687.80	279.07
688.14	278.37
688.48	277.74
688.81	277.11
689.15	276.52
689.49	275.88
689.82	275.27
690.16	274.60
690.50	273.99
690.83	273.38
691.17	272.79
691.51	272.21
691.84	271.65
692.18	271.06
692.52	270.46
692.85	269.88
693.19	269.35
693.52	268.80
693.86	268.26
694.20	267.72
694.53	267.21
694.87	266.68
695.21	266.17
695.54	265.66
695.88	265.14
696.21	264.58
696.55	264.09
696.88	263.58
697.22	263.10
697.56	262.62
697.89	262.08
698.23	261.58
698.56	261.07
698.90	260.60
699.23	260.12
699.57	259.67
699.90	259.22
700.24	258.74
700.58	258.29
700.91	257.87
701.25	257.53
701.58	257.15
701.92	256.75
702.25	256.34
702.59	255.92
702.92	255.53
703.26	255.13
703.59	254.73
703.93	254.42
704.26	254.05
704.60	253.67
704.93	253.31
705.26	252.95
705.60	252.62
705.93	252.24
706.27	251.92
706.60	251.59
706.94	251.27
707.27	250.90
707.61	250.55
707.94	250.18
708.27	249.75
708.61	249.37
708.94	249.02
709.28	248.69
709.61	248.36
709.94	248.06
710.28	247.77
710.61	247.49
710.95	247.11
711.28	246.88
711.61	246.59
711.95	246.34
712.28	246.05
712.61	245.76
712.95	245.54
713.28	245.32
713.61	245.04
713.95	244.75
714.28	244.52
714.61	244.25
714.95	244.00
715.28	243.75
715.61	243.51
715.95	243.28
716.28	243.04
716.61	242.82
716.95	242.58
717.28	242.35
717.61	242.12
717.94	241.89
718.28	241.60
718.61	241.38
718.94	241.14
719.27	240.93
719.61	240.74
719.94	240.50
720.27	240.25
720.60	240.04
720.94	239.85
721.27	239.66
721.60	239.49
721.93	239.30
722.27	239.15
722.60	238.98
722.93	238.78
723.26	238.61
723.59	238.40
723.93	238.24
724.26	238.08
724.59	237.90
724.92	237.75
725.25	237.62
725.59	237.45
725.92	237.31
726.25	237.16
726.58	237.00
726.91	236.84
727.24	236.70
727.57	236.55
727.91	236.38
728.24	236.25
728.57	236.09
728.90	235.96
729.23	235.78
729.56	235.69
729.89	235.55
730.22	235.40
730.55	235.27
730.89	235.12
731.22	234.98
731.55	234.85
731.88	234.72
732.21	234.57
732.54	234.45
732.87	234.32
733.20	234.21
733.53	234.09
733.86	233.98
734.19	233.85
734.52	233.75
734.85	233.71
735.18	233.58
735.51	233.49
735.84	233.38
736.17	233.30
736.50	233.13
736.83	233.15
737.16	233.05
737.49	232.96
737.82	232.86
738.15	232.78
738.48	232.68
738.81	232.57
739.14	232.46
739.47	232.35
739.80	232.24
740.13	232.15
740.46	232.04
740.79	231.93
741.12	231.83
741.45	231.72
741.78	231.57
742.11	231.51
742.44	231.39
742.77	231.32
743.10	231.21
743.43	231.12
743.75	230.92
744.08	230.99
744.41	230.90
744.74	230.80
745.07	230.69
745.40	230.63
745.73	230.59
746.06	230.52
746.39	230.46
746.71	230.37
747.04	230.29
747.37	230.21
747.70	230.16
748.03	230.09
748.36	230.04
748.68	229.96
749.01	229.86
749.34	229.79
749.67	229.72
750.00	229.67
750.33	229.68
750.65	229.62
750.98	229.40
751.31	229.34
751.64	229.28
751.97	229.27
752.29	229.20
752.62	229.09
752.95	229.02
753.28	228.93
753.60	228.87
753.93	228.83
754.26	228.77
754.59	228.67
754.91	228.60
755.24	228.52
755.57	228.51
755.90	228.44
756.22	228.37
756.55	228.30
756.88	228.21
757.20	228.08
757.53	228.00
757.86	227.94
758.19	227.89
758.51	227.84
758.84	227.73
759.17	227.67
759.49	227.62
759.82	227.62
760.15	227.59
760.47	227.53
760.80	227.46
761.13	227.42
761.45	227.37
761.78	227.33
762.11	227.28
762.43	227.18
762.76	227.14
763.08	227.11
763.41	227.07
763.74	227.03
764.06	226.99
764.39	226.95
764.71	226.91
765.04	226.85
765.37	226.80
765.69	226.76
766.02	226.71
766.34	226.66
766.67	226.58
767.00	226.56
767.32	226.58
767.65	226.60
767.97	226.55
768.30	226.52
768.62	226.48
768.95	226.43
769.27	226.39
769.60	226.37
769.92	226.31
770.25	226.26
770.57	226.21
770.90	226.18
771.22	226.13
771.55	226.11
771.87	226.08
772.20	226.05
772.52	226.11
772.85	226.20
773.17	226.17
773.50	226.13
773.82	226.08
774.15	226.00
774.47	225.91
774.80	225.87
775.12	225.84
775.45	225.81
775.77	225.79
776.09	225.77
776.42	225.74
776.74	225.75
777.07	225.72
777.39	225.70
777.72	225.66
778.04	225.66
778.36	225.62
778.69	225.59
779.01	225.58
779.33	225.46
779.66	225.32
779.98	225.30
780.31	225.28
780.63	225.31
780.95	225.30
781.28	225.28
781.60	225.26
781.92	225.24
782.25	225.22
782.57	225.20
782.89	225.17
783.22	225.15
783.54	225.10
783.86	225.09
784.19	225.07
784.51	225.08
784.83	225.05
785.16	225.03
785.48	225.01
785.80	224.99
786.12	224.98
786.45	224.96
786.77	224.95
787.09	224.92
787.42	224.87
787.74	224.85
788.06	224.84
788.38	224.82
788.71	224.79
789.03	224.78
789.35	224.77
789.67	224.75
789.99	224.74
790.32	224.71
790.64	224.71
790.96	224.79
791.28	224.74
791.61	224.72
791.93	224.71
792.25	224.69
792.57	224.75
792.89	224.72
793.21	224.71
793.54	224.69
793.86	224.66
794.18	224.65
794.50	224.62
794.82	224.61
795.14	224.61
795.47	224.61
795.79	224.60
796.11	224.56
796.43	224.55
796.75	224.53
797.07	224.53
797.39	224.50
797.71	224.40
798.04	224.39
798.36	224.39
798.68	224.37
799.00	224.37
799.32	224.31
799.64	224.31
799.96	224.30
800.28	224.30
800.60	224.29
800.92	224.28
801.24	224.27
801.56	224.27
801.89	224.25
802.21	224.24
802.53	224.21
802.85	224.22
803.17	224.26
803.49	224.23
803.81	224.20
804.13	224.19
804.45	224.17
804.77	224.17
805.09	224.16
805.41	224.14
805.73	224.11
806.05	224.07
806.37	224.06
806.69	224.04
807.01	224.02
807.33	224.02
807.65	223.98
807.97	224.02
808.28	223.99
808.60	223.98
808.92	223.96
809.24	224.02
809.56	223.99
809.88	223.95
810.20	223.95
810.52	223.96
810.84	223.94
811.16	223.92
811.48	223.91
811.80	223.93
812.12	223.92
812.43	223.94
812.75	223.94
813.07	223.93
813.39	223.92
813.71	223.90
814.03	223.89
814.35	223.89
814.67	223.84
814.98	223.83
815.30	223.82
815.62	223.80
815.94	223.73
816.26	223.73
816.58	223.71
816.89	223.71
817.21	223.68
817.53	223.69
817.85	223.69
818.17	223.68
818.48	223.64
818.80	223.65
819.12	223.62
819.44	223.60
819.76	223.59
820.07	223.58
820.39	223.57
820.71	223.58
821.03	223.57
821.34	223.56
821.66	223.57
821.98	223.57
822.30	223.57
822.61	223.63
822.93	223.61
823.25	223.60
823.57	223.58
823.88	223.59
824.20	223.59
824.52	223.60
824.83	223.59
825.15	223.58
825.47	223.57
825.79	223.58
826.10	223.57
826.42	223.56
826.74	223.56
827.05	223.56
827.37	223.56
827.69	223.55
828.00	223.55
828.32	223.55
828.64	223.53
828.95	223.58
829.27	223.54
829.58	223.54
829.90	223.56
830.22	223.56
830.53	223.54
830.85	223.53
831.17	223.50
831.48	223.50
831.80	223.50
832.11	223.49
832.43	223.48
832.75	223.47
833.06	223.53
833.38	223.50
833.69	223.50
834.01	223.50
834.32	223.49
834.64	223.47
834.96	223.47
835.27	223.46
835.59	223.42
835.90	223.41
836.22	223.40
836.53	223.38
836.85	223.36
837.16	223.47
837.48	223.47
837.79	223.50
838.11	223.50
838.42	223.50
838.74	223.51
839.05	223.50
839.37	223.49
839.68	223.42
840.00	223.42
840.31	223.43
840.63	223.42
840.94	223.41
841.26	223.40
841.57	223.40
841.88	223.41
842.20	223.39
842.51	223.37
842.83	223.37
843.14	223.47
843.46	223.46
843.77	223.39
844.08	223.39
844.40	223.35
844.71	223.34
845.03	223.32
845.34	223.31
845.65	223.31
845.97	223.31
846.28	223.31
846.60	223.31
846.91	223.29
847.22	223.29
847.54	223.30
847.85	223.31
848.16	223.30
848.48	223.28
848.79	223.31
849.10	223.32
849.42	223.33
849.73	223.23
850.04	223.23
850.36	223.19
850.67	223.21
850.98	223.21
851.30	223.22
851.61	223.22
851.92	223.21
852.23	223.25
852.55	223.25
852.86	223.25
853.17	223.26
853.49	223.28
853.80	223.30
854.11	223.30
854.42	223.31
854.74	223.30
855.05	223.30
855.36	223.25
855.67	223.25
855.99	223.24
856.30	223.36
856.61	223.36
856.92	223.37
857.23	223.36
857.55	223.35
857.86	223.34
858.17	223.36
858.48	223.34
858.79	223.32
859.11	223.32
859.42	223.32
859.73	223.30
860.04	223.30
860.35	223.27
860.66	223.23
860.98	223.23
861.29	223.24
861.60	223.23
861.91	223.26
862.22	223.24
862.53	223.23
862.84	223.11
863.16	223.13
863.47	223.11
863.78	223.09
864.09	223.10
864.40	223.11
864.71	223.11
865.02	223.12
865.33	223.11
865.64	223.09
865.95	223.09
866.27	223.16
866.58	223.15
866.89	223.16
867.20	223.16
867.51	223.15
867.82	223.14
868.13	223.17
868.44	223.15
868.75	223.17
869.06	223.18
869.37	223.18
869.68	223.15
869.99	223.17
870.30	223.18
870.61	223.19
870.92	223.18
871.23	223.17
871.54	223.18
871.85	223.20
872.16	223.22
872.47	223.21
872.78	223.15
873.09	223.16
873.40	223.15
873.71	223.15
874.02	223.16
874.33	223.15
874.64	223.12
874.95	223.14
875.26	223.12
875.56	223.12
875.87	223.11
876.18	223.11
876.49	223.20
876.80	223.19
877.11	223.17
877.42	223.18
877.73	223.18
878.04	223.16
878.35	223.16
878.66	223.16
878.96	223.16
879.27	223.15
879.58	223.14
879.89	223.14
880.20	223.17
880.51	223.17
880.82	223.17
881.12	223.17
881.43	223.15
881.74	223.14
882.05	223.14
882.36	223.14
882.67	223.15
882.97	223.04
883.28	223.03
883.59	223.03
883.90	223.04
884.21	223.05
884.51	223.05
884.82	223.03
885.13	223.03
885.44	223.03
885.74	223.03
886.05	223.02
886.36	223.02
886.67	222.98
886.98	223.04
887.28	223.04
887.59	223.04
887.90	223.05
888.20	223.05
888.51	223.07
888.82	223.05
889.13	223.05
889.43	223.14
889.74	223.14
890.05	223.14
890.35	223.12
890.66	223.11
890.97	223.09
891.28	223.08
891.58	223.08
891.89	223.08
892.20	223.07
892.50	223.06
892.81	223.05
893.12	223.04
893.42	222.99
893.73	222.99
894.04	222.98
894.34	222.99
894.65	222.98
894.95	222.97
895.26	222.97
895.57	223.01
895.87	222.91
896.18	222.93
896.48	222.93
896.79	222.93
897.10	222.94
897.40	222.95
897.71	222.96
898.01	222.95
898.32	222.96
898.63	222.95
898.93	222.97
899.24	222.97
899.54	222.96
899.85	222.96
900.15	222.95
900.46	222.95
900.76	222.95
901.07	222.95
901.38	222.95
901.68	222.96
901.99	222.91
902.29	222.92
902.60	222.91
902.90	222.90
903.21	222.89
903.51	222.88
903.82	222.90
904.12	222.90
904.43	222.90
904.73	222.89
905.03	222.90
905.34	223.00
905.64	222.99
905.95	223.00
906.25	223.00
906.56	222.99
906.86	222.99
907.17	222.98
907.47	222.98
907.77	222.98
908.08	222.96
908.38	222.96
908.69	222.96
908.99	222.98
909.30	222.99
909.60	222.99
909.90	222.99
910.21	222.97
910.51	222.95
910.81	222.94
911.12	222.95
911.42	222.95
911.73	222.84
912.03	222.85
912.33	222.87
912.64	222.86
912.94	222.85
913.24	222.84
913.55	222.83
913.85	222.82
914.15	222.84
914.46	222.85
914.76	222.84
915.06	222.84
915.37	222.82
915.67	222.81
915.97	222.81
916.27	222.78
916.58	222.79
916.88	222.79
917.18	222.78
917.49	222.85
917.79	222.84
918.09	222.86
918.39	222.88
918.70	222.87
919.00	222.88
919.30	222.93
919.60	222.93
919.91	222.92
920.21	222.93
920.51	222.90
920.81	222.89
921.12	222.91
921.42	222.91
921.72	222.92
922.02	222.92
922.32	222.93
922.63	222.94
922.93	223.00
923.23	223.00
923.53	222.99
923.83	222.92
924.13	222.93
924.44	222.93
924.74	222.94
925.04	222.96
925.34	222.96
925.64	222.92
925.94	222.92
926.24	222.97
926.55	222.96
926.85	222.98
927.15	222.98
927.45	222.98
927.75	222.98
928.05	222.98
928.35	222.97
928.65	222.99
928.95	222.99
929.26	222.94
929.56	222.96
929.86	222.97
930.16	222.96
930.46	222.95
930.76	222.95
931.06	222.90
931.36	222.87
931.66	222.89
931.96	222.90
932.26	222.90
932.56	222.86
932.86	222.87
933.16	222.87
933.46	222.86
933.76	222.84
934.06	222.86
934.36	222.89
934.66	222.89
934.96	222.87
935.26	222.87
935.56	222.89
935.86	222.86
936.16	222.85
936.46	222.84
936.76	222.84
937.06	222.82
937.36	222.84
937.66	222.84
937.96	222.83
938.26	222.81
938.56	222.81
938.86	222.81
939.16	222.84
939.46	222.84
939.76	222.85
940.06	222.85
940.35	222.83
940.65	222.78
940.95	222.79
941.25	222.77
941.55	222.76
941.85	222.75
942.15	222.78
942.45	222.80
942.75	222.80
943.04	222.81
943.34	222.83
943.64	222.82
943.94	222.80
944.24	222.80
944.54	222.81
944.84	222.81
945.13	222.79
945.43	222.77
945.73	222.76
946.03	222.76
946.33	222.75
946.62	222.73
946.92	222.73
947.22	222.73
947.52	222.74
947.82	222.75
948.11	222.74
948.41	222.72
948.71	222.69
949.01	222.70
949.31	222.68
949.60	222.67
949.90	222.69
950.20	222.69
950.50	222.69
950.79	222.68
951.09	222.69
951.39	222.69
951.69	222.68
951.98	222.70
952.28	222.70
952.58	222.70
952.87	222.71
953.17	222.72
953.47	222.70
953.76	222.70
954.06	222.68
954.36	222.67
954.66	222.67
954.95	222.70
955.25	222.71
955.55	222.72
955.84	222.70
956.14	222.70
956.44	222.71
956.73	222.70
957.03	222.70
957.32	222.70
957.62	222.70
957.92	222.72
958.21	222.71
958.51	222.83
958.81	222.84
959.10	222.85
959.40	222.87
959.69	222.88
959.99	222.89
960.29	222.90
960.58	222.90
960.88	222.93
961.17	222.91
961.47	222.92
961.76	222.91
962.06	222.93
962.36	222.92
962.65	222.92
962.95	222.93
963.24	222.92
963.54	222.92
963.83	222.93
964.13	222.92
964.42	222.91
964.72	222.82
965.01	222.82
965.31	222.82
965.60	222.79
965.90	222.86
966.19	222.83
966.49	222.84
966.78	222.84
967.08	222.83
967.37	222.83
967.67	222.81
967.96	222.82
968.26	222.82
968.55	222.83
968.85	222.83
969.14	222.83
969.43	222.83
969.73	222.82
970.02	222.81
970.32	222.80
970.61	222.79
970.91	222.76
971.20	222.75
971.49	222.74
971.79	222.75
972.08	222.67
972.38	222.68
972.67	222.68
972.96	222.70
973.26	222.68
973.55	222.71
973.85	222.71
974.14	222.69
974.43	222.70
974.73	222.68
975.02	222.67
975.31	222.67
975.61	222.67
975.90	222.67
976.19	222.66
976.49	222.67
976.78	222.68
977.07	222.68
977.37	222.68
977.66	222.70
977.95	222.68
978.24	222.69
978.54	222.71
978.83	222.70
979.12	222.69
979.42	222.70
979.71	222.68
980.00	222.67
980.29	222.68
980.59	222.66
980.88	222.69
981.17	222.68
981.46	222.68
981.76	222.68
982.05	222.71
982.34	222.72
982.63	222.71
982.93	222.71
983.22	222.73
983.51	222.74
983.80	222.75
984.09	222.77
984.39	222.76
984.68	222.74
984.97	222.75
985.26	222.75
985.55	222.75
985.85	222.74
986.14	222.75
986.43	222.76
986.72	222.76
987.01	222.73
987.30	222.73
987.59	222.72
987.89	222.72
988.18	222.69
988.47	222.68
988.76	222.67
989.05	222.66
989.34	222.65
989.63	222.67
989.92	222.65
990.22	222.64
990.51	222.63
990.80	222.63
991.09	222.63
991.38	222.64
991.67	222.63
991.96	222.62
992.25	222.63
992.54	222.61
992.83	222.61
993.12	222.61
993.41	222.63
993.70	222.67
993.99	222.69
994.28	222.71
994.58	222.73
994.87	222.72
995.16	222.72
995.45	222.71
995.74	222.67
996.03	222.69
996.32	222.71
996.61	222.73
996.90	222.73
997.19	222.73
997.48	222.72
997.77	222.72
998.06	222.72
998.34	222.71
998.63	222.71
998.92	222.72
999.21	222.73
999.50	222.73
999.79	222.69
1000.08	222.68
1000.37	222.68
1000.66	222.67
1000.95	222.70
1001.24	222.71
1001.53	222.72
1001.82	222.71
1002.11	222.69
1002.40	222.70
1002.68	222.71
1002.97	222.78
1003.26	222.78
1003.55	222.76
1003.84	222.77
1004.13	222.80
1004.42	222.79
1004.71	222.79
1004.99	222.78
1005.28	222.81
1005.57	222.80
1005.86	222.79
1006.15	222.78
1006.44	222.77
1006.72	222.78
1007.01	222.75
1007.30	222.75
1007.59	222.74
1007.88	222.74
1008.17	222.74
1008.45	222.73
1008.74	222.69
1009.03	222.64
1009.32	222.64
1009.60	222.64
1009.89	222.63
1010.18	222.59
1010.47	222.58
1010.76	222.58
1011.04	222.58
1011.33	222.58
1011.62	222.59
1011.91	222.59
1012.19	222.59
1012.48	222.60
1012.77	222.59
1013.05	222.63
1013.34	222.63
1013.63	222.63
1013.92	222.63
1014.20	222.63
1014.49	222.64
1014.78	222.64
1015.06	222.61
1015.35	222.61
1015.64	222.63
1015.92	222.64
1016.21	222.65
1016.50	222.65
1016.78	222.66
1017.07	222.67
1017.36	222.66
1017.64	222.64
1017.93	222.65
1018.22	222.64
1018.50	222.64
1018.79	222.63
1019.08	222.59
1019.36	222.60
1019.65	222.59
1019.93	222.62
1020.22	222.63
1020.51	222.68
1020.79	222.67
1021.08	222.50
1021.36	222.49
1021.65	222.60
1021.94	222.55
1022.22	222.70
1022.51	222.43
1022.79	223.08
1023.08	222.79
1023.36	223.82
1023.65	222.39
>>>>>End Processed Spectral Data<<<<<
