SpectraSuite Data File
++++++++++++++++++++++++++++++++++++
Date: Thu Oct 01 05:29:34 EDT 2015
User: lab3
Dark Spectrum Present: No
Reference Spectrum Present: No
Number of Sampled Component Spectra: 1
Spectrometers: USB2E7196
Integration Time (usec): 36000 (USB2E7196)
Spectra Averaged: 10000 (USB2E7196)
Boxcar Smoothing: 10 (USB2E7196)
Correct for Electrical Dark: No (USB2E7196)
Strobe/Lamp Enabled: No (USB2E7196)
Correct for Detector Non-linearity: No (USB2E7196)
Correct for Stray Light: No (USB2E7196)
Number of Pixels in Processed Spectrum: 2048
>>>>>Begin Processed Spectral Data<<<<<
339.09	0.00
339.48	209.84
339.86	211.28
340.24	212.63
340.63	214.10
341.01	217.08
341.39	216.84
341.78	218.18
342.16	219.36
342.54	219.84
342.93	208.44
343.31	218.98
343.69	219.52
344.07	219.98
344.46	220.41
344.84	220.80
345.22	221.04
345.60	221.29
345.99	221.48
346.37	221.62
346.75	221.73
347.13	221.80
347.52	221.87
347.90	221.95
348.28	221.99
348.66	222.05
349.05	222.05
349.43	222.10
349.81	222.16
350.19	222.21
350.57	222.28
350.96	222.36
351.34	222.46
351.72	222.55
352.10	222.66
352.48	222.73
352.87	222.78
353.25	222.85
353.63	222.91
354.01	222.97
354.39	223.05
354.77	223.13
355.15	223.23
355.54	223.28
355.92	223.32
356.30	223.39
356.68	223.53
357.06	223.60
357.44	223.65
357.82	223.71
358.20	223.82
358.58	223.87
358.97	223.93
359.35	224.01
359.73	224.09
360.11	224.14
360.49	224.20
360.87	224.25
361.25	224.31
361.63	224.39
362.01	224.44
362.39	224.47
362.77	224.51
363.15	224.54
363.53	224.58
363.91	224.61
364.29	224.63
364.67	224.55
365.05	224.58
365.43	224.61
365.81	224.64
366.19	224.65
366.57	224.71
366.95	224.71
367.33	224.69
367.71	224.68
368.09	224.70
368.47	224.70
368.85	224.69
369.23	224.70
369.61	224.64
369.99	224.66
370.37	224.65
370.75	224.71
371.13	224.68
371.51	224.63
371.89	224.61
372.27	224.59
372.65	224.57
373.03	224.53
373.41	224.48
373.78	224.43
374.16	224.34
374.54	224.26
374.92	224.21
375.30	224.16
375.68	224.10
376.06	224.05
376.44	223.99
376.82	223.95
377.19	223.89
377.57	223.84
377.95	223.76
378.33	223.70
378.71	223.55
379.09	223.50
379.47	223.47
379.84	223.40
380.22	223.34
380.60	223.27
380.98	223.22
381.36	223.16
381.73	223.10
382.11	223.07
382.49	223.03
382.87	222.97
383.25	222.92
383.62	223.00
384.00	222.93
384.38	222.89
384.76	222.88
385.13	222.86
385.51	222.82
385.89	222.77
386.27	222.73
386.64	222.71
387.02	222.66
387.40	222.62
387.78	222.59
388.15	222.57
388.53	222.54
388.91	222.51
389.29	222.47
389.66	222.46
390.04	222.43
390.42	222.42
390.79	222.41
391.17	222.39
391.55	222.25
391.92	222.24
392.30	222.24
392.68	222.20
393.05	222.18
393.43	222.17
393.81	222.18
394.18	222.16
394.56	222.16
394.94	222.19
395.31	222.19
395.69	222.22
396.06	222.24
396.44	222.26
396.82	222.28
397.19	222.35
397.57	222.36
397.95	222.40
398.32	222.39
398.70	222.43
399.07	222.49
399.45	222.52
399.82	222.56
400.20	222.59
400.58	222.65
400.95	222.67
401.33	222.74
401.70	222.87
402.08	222.96
402.45	223.04
402.83	223.14
403.20	223.25
403.58	223.33
403.95	223.45
404.33	223.59
404.71	223.72
405.08	223.90
405.46	224.04
405.83	224.21
406.21	224.38
406.58	224.57
406.96	224.76
407.33	224.98
407.70	225.22
408.08	225.56
408.45	225.84
408.83	226.15
409.20	226.44
409.58	226.70
409.95	227.05
410.33	227.43
410.70	227.78
411.08	228.21
411.45	228.65
411.82	229.10
412.20	229.62
412.57	230.23
412.95	230.70
413.32	231.33
413.69	231.98
414.07	232.66
414.44	233.41
414.82	234.17
415.19	235.06
415.56	235.96
415.94	236.90
416.31	237.95
416.68	239.00
417.06	240.22
417.43	241.37
417.81	242.70
418.18	244.04
418.55	245.51
418.93	247.04
419.30	248.63
419.67	250.34
420.04	252.08
420.42	253.91
420.79	256.03
421.16	258.16
421.54	260.33
421.91	262.59
422.28	264.95
422.66	267.48
423.03	269.90
423.40	272.44
423.77	275.16
424.15	277.96
424.52	280.85
424.89	284.00
425.26	287.11
425.64	290.01
426.01	293.27
426.38	296.60
426.75	300.03
427.13	303.54
427.50	307.21
427.87	311.02
428.24	314.87
428.61	318.54
428.99	322.50
429.36	326.85
429.73	331.01
430.10	335.15
430.47	339.37
430.85	343.72
431.22	348.35
431.59	353.10
431.96	357.73
432.33	362.86
432.70	367.71
433.08	373.46
433.45	378.89
433.82	384.21
434.19	390.17
434.56	396.02
434.93	401.67
435.30	407.25
435.68	413.54
436.05	419.69
436.42	425.84
436.79	431.45
437.16	437.50
437.53	443.98
437.90	450.47
438.27	456.80
438.64	463.68
439.01	469.91
439.38	475.59
439.75	481.10
440.13	487.37
440.50	493.36
440.87	498.09
441.24	503.29
441.61	509.03
441.98	513.25
442.35	518.27
442.72	523.42
443.09	528.36
443.46	531.56
443.83	533.95
444.20	536.00
444.57	538.95
444.94	540.75
445.31	542.62
445.68	544.29
446.05	545.57
446.42	545.51
446.79	545.35
447.16	545.23
447.53	545.15
447.90	543.39
448.27	541.75
448.64	539.10
449.01	537.36
449.37	533.50
449.74	530.00
450.11	525.46
450.48	520.45
450.85	515.40
451.22	511.12
451.59	506.94
451.96	503.12
452.33	497.49
452.70	492.49
453.07	486.36
453.43	480.23
453.80	474.28
454.17	468.56
454.54	463.26
454.91	457.27
455.28	451.63
455.65	446.30
456.02	440.62
456.38	436.04
456.75	430.12
457.12	425.35
457.49	420.53
457.86	415.93
458.23	411.90
458.59	407.45
458.96	402.86
459.33	398.81
459.70	394.68
460.07	391.54
460.43	387.84
460.80	384.38
461.17	381.32
461.54	378.02
461.91	374.95
462.27	371.81
462.64	369.25
463.01	366.31
463.38	363.36
463.74	360.68
464.11	358.29
464.48	356.14
464.85	353.84
465.21	352.06
465.58	350.12
465.95	347.86
466.32	346.06
466.68	344.30
467.05	342.54
467.42	340.84
467.78	339.00
468.15	337.30
468.52	336.04
468.88	334.39
469.25	332.88
469.62	331.67
469.98	330.37
470.35	329.21
470.72	328.17
471.08	327.11
471.45	326.23
471.82	325.27
472.18	324.26
472.55	323.61
472.92	322.80
473.28	322.18
473.65	321.53
474.02	320.92
474.38	320.42
474.75	320.15
475.11	319.74
475.48	319.58
475.85	319.43
476.21	319.38
476.58	319.39
476.94	319.59
477.31	319.72
477.67	319.88
478.04	320.14
478.41	320.49
478.77	320.95
479.14	321.30
479.50	321.86
479.87	322.56
480.23	323.26
480.60	323.94
480.96	324.64
481.33	325.61
481.69	326.58
482.06	327.54
482.42	328.44
482.79	329.53
483.15	330.78
483.52	332.17
483.88	333.52
484.25	334.95
484.61	336.45
484.98	338.05
485.34	339.86
485.71	341.72
486.07	343.72
486.44	345.70
486.80	347.90
487.17	350.15
487.53	352.62
487.90	355.20
488.26	357.98
488.62	360.92
488.99	363.87
489.35	366.94
489.72	370.27
490.08	373.77
490.44	377.36
490.81	381.10
491.17	384.95
491.54	389.05
491.90	393.26
492.26	397.79
492.63	402.56
492.99	407.52
493.36	412.61
493.72	417.96
494.08	423.46
494.45	429.26
494.81	435.29
495.17	441.43
495.54	447.92
495.90	454.72
496.26	461.66
496.63	468.84
496.99	476.31
497.35	484.14
497.72	492.27
498.08	500.56
498.44	509.12
498.80	518.24
499.17	527.58
499.53	537.26
499.89	547.17
500.26	557.25
500.62	567.61
500.98	578.64
501.34	589.83
501.71	601.56
502.07	613.51
502.43	625.85
502.79	638.55
503.16	651.65
503.52	664.95
503.88	678.62
504.24	692.71
504.60	707.10
504.97	721.87
505.33	737.01
505.69	753.08
506.05	769.34
506.41	785.61
506.78	802.19
507.14	819.25
507.50	836.92
507.86	854.98
508.22	873.31
508.59	891.66
508.95	910.73
509.31	930.23
509.67	950.43
510.03	970.86
510.39	991.48
510.75	1012.35
511.12	1033.52
511.48	1055.03
511.84	1076.61
512.20	1098.48
512.56	1121.48
512.92	1144.71
513.28	1167.65
513.64	1190.88
514.00	1214.54
514.37	1238.52
514.73	1262.53
515.09	1286.32
515.45	1310.56
515.81	1335.36
516.17	1360.22
516.53	1384.75
516.89	1409.34
517.25	1434.13
517.61	1459.09
517.97	1484.24
518.33	1509.14
518.69	1534.18
519.05	1559.45
519.41	1584.87
519.77	1610.57
520.13	1635.45
520.49	1660.51
520.85	1685.75
521.21	1710.96
521.57	1736.74
521.93	1761.79
522.29	1787.71
522.65	1813.36
523.01	1838.76
523.37	1863.42
523.73	1888.70
524.09	1914.17
524.45	1939.55
524.81	1964.44
525.17	1989.25
525.53	2013.63
525.89	2038.02
526.25	2062.60
526.61	2086.64
526.97	2110.99
527.33	2135.22
527.68	2159.34
528.04	2182.56
528.40	2205.69
528.76	2228.95
529.12	2251.16
529.48	2273.75
529.84	2294.47
530.20	2315.78
530.56	2336.77
530.91	2357.78
531.27	2378.29
531.63	2398.15
531.99	2417.48
532.35	2436.47
532.71	2455.54
533.07	2475.23
533.42	2493.33
533.78	2511.86
534.14	2530.36
534.50	2548.03
534.86	2566.31
535.21	2582.72
535.57	2599.10
535.93	2614.67
536.29	2629.09
536.65	2644.33
537.00	2658.42
537.36	2673.04
537.72	2686.58
538.08	2699.80
538.44	2711.86
538.79	2724.14
539.15	2734.79
539.51	2745.38
539.87	2755.62
540.22	2763.74
540.58	2771.89
540.94	2780.67
541.29	2787.87
541.65	2794.10
542.01	2799.80
542.37	2803.63
542.72	2809.36
543.08	2814.61
543.44	2819.73
543.79	2823.94
544.15	2827.35
544.51	2830.70
544.87	2833.17
545.22	2835.21
545.58	2836.32
545.94	2837.88
546.29	2837.96
546.65	2838.19
547.01	2838.42
547.36	2838.78
547.72	2839.30
548.07	2838.37
548.43	2836.79
548.79	2834.56
549.14	2832.34
549.50	2830.75
549.86	2828.36
550.21	2823.49
550.57	2819.02
550.92	2813.19
551.28	2808.01
551.64	2802.67
551.99	2797.77
552.35	2792.44
552.70	2786.69
553.06	2781.65
553.41	2776.16
553.77	2770.14
554.13	2764.72
554.48	2758.46
554.84	2750.52
555.19	2742.73
555.55	2734.36
555.90	2726.54
556.26	2719.78
556.61	2712.40
556.97	2702.84
557.32	2694.10
557.68	2685.87
558.03	2676.93
558.39	2668.66
558.74	2660.57
559.10	2651.22
559.45	2641.56
559.81	2632.25
560.16	2622.28
560.52	2611.83
560.87	2602.40
561.23	2592.62
561.58	2582.29
561.94	2571.71
562.29	2560.67
562.64	2550.24
563.00	2540.15
563.35	2529.94
563.71	2518.82
564.06	2507.13
564.42	2496.49
564.77	2485.50
565.12	2474.62
565.48	2463.47
565.83	2452.98
566.19	2442.49
566.54	2431.67
566.89	2419.92
567.25	2408.10
567.60	2397.12
567.96	2385.73
568.31	2372.93
568.66	2360.01
569.02	2348.20
569.37	2336.15
569.72	2324.61
570.08	2312.34
570.43	2299.54
570.78	2286.45
571.14	2273.14
571.49	2260.64
571.84	2248.40
572.20	2234.88
572.55	2221.75
572.90	2208.51
573.26	2194.39
573.61	2179.71
573.96	2165.28
574.31	2151.24
574.67	2137.43
575.02	2123.17
575.37	2108.48
575.72	2094.06
576.08	2080.27
576.43	2065.44
576.78	2050.65
577.13	2036.70
577.49	2022.79
577.84	2009.28
578.19	1994.89
578.54	1980.14
578.90	1964.88
579.25	1949.36
579.60	1935.26
579.95	1920.77
580.30	1906.32
580.66	1892.17
581.01	1877.62
581.36	1863.43
581.71	1849.78
582.06	1835.68
582.42	1821.62
582.77	1808.35
583.12	1794.73
583.47	1781.14
583.82	1767.66
584.17	1754.09
584.53	1740.30
584.88	1726.54
585.23	1712.44
585.58	1698.87
585.93	1685.75
586.28	1673.46
586.63	1660.97
586.98	1647.77
587.34	1634.82
587.69	1621.37
588.04	1608.14
588.39	1595.62
588.74	1582.62
589.09	1569.34
589.44	1556.01
589.79	1543.27
590.14	1530.36
590.49	1517.69
590.84	1504.89
591.19	1492.76
591.54	1480.11
591.89	1467.34
592.25	1454.91
592.60	1442.07
592.95	1429.79
593.30	1417.78
593.65	1405.55
594.00	1393.55
594.35	1382.34
594.70	1370.29
595.05	1359.35
595.40	1348.25
595.75	1336.53
596.10	1325.59
596.45	1314.87
596.80	1304.63
597.15	1294.18
597.50	1283.73
597.85	1273.47
598.19	1263.40
598.54	1252.72
598.89	1242.79
599.24	1233.19
599.59	1223.32
599.94	1214.49
600.29	1205.54
600.64	1196.37
600.99	1186.63
601.34	1177.35
601.69	1167.49
602.04	1158.69
602.39	1149.70
602.74	1140.96
603.08	1132.47
603.43	1123.50
603.78	1114.42
604.13	1105.48
604.48	1096.47
604.83	1087.75
605.18	1078.92
605.53	1070.03
605.87	1061.28
606.22	1052.79
606.57	1044.02
606.92	1035.36
607.27	1026.57
607.62	1017.85
607.96	1009.31
608.31	1001.77
608.66	993.79
609.01	986.25
609.36	978.65
609.70	970.85
610.05	962.87
610.40	955.23
610.75	947.73
611.10	940.50
611.44	932.87
611.79	925.57
612.14	917.87
612.49	910.33
612.83	903.26
613.18	896.25
613.53	889.03
613.88	881.90
614.22	875.36
614.57	868.65
614.92	861.94
615.27	855.24
615.61	848.40
615.96	841.79
616.31	835.11
616.65	828.31
617.00	821.76
617.35	815.36
617.70	808.99
618.04	802.67
618.39	796.38
618.74	790.42
619.08	784.26
619.43	778.37
619.78	772.51
620.12	766.44
620.47	760.56
620.82	754.77
621.16	749.29
621.51	743.46
621.85	737.61
622.20	731.82
622.55	726.21
622.89	720.54
623.24	714.92
623.59	709.39
623.93	703.89
624.28	698.55
624.62	693.18
624.97	687.80
625.32	682.53
625.66	677.13
626.01	671.73
626.35	666.46
626.70	661.23
627.04	656.18
627.39	651.18
627.73	646.30
628.08	641.63
628.43	636.84
628.77	632.11
629.12	627.52
629.46	623.11
629.81	618.53
630.15	613.83
630.50	609.28
630.84	604.92
631.19	600.74
631.53	596.61
631.88	592.37
632.22	588.22
632.57	584.31
632.91	580.36
633.26	576.48
633.60	572.69
633.95	568.98
634.29	565.14
634.64	561.27
634.98	557.30
635.32	553.50
635.67	549.83
636.01	546.10
636.36	542.41
636.70	538.86
637.05	535.30
637.39	531.96
637.73	528.49
638.08	525.07
638.42	521.62
638.77	518.04
639.11	514.47
639.45	510.93
639.80	507.37
640.14	504.01
640.49	500.60
640.83	497.09
641.17	493.62
641.52	490.32
641.86	487.01
642.20	483.87
642.55	480.56
642.89	477.36
643.23	474.34
643.58	471.56
643.92	468.65
644.26	465.79
644.61	462.89
644.95	460.02
645.29	457.10
645.64	454.14
645.98	451.32
646.32	448.66
646.66	446.01
647.01	443.35
647.35	440.73
647.69	438.01
648.04	435.42
648.38	432.88
648.72	430.29
649.06	427.77
649.41	425.28
649.75	422.79
650.09	420.31
650.43	417.85
650.78	415.37
651.12	412.87
651.46	410.47
651.80	408.17
652.14	405.95
652.49	403.73
652.83	401.58
653.17	399.40
653.51	397.30
653.85	395.25
654.20	393.15
654.54	390.96
654.88	388.97
655.22	387.04
655.56	385.07
655.90	383.18
656.25	381.31
656.59	379.44
656.93	377.67
657.27	375.95
657.61	374.12
657.95	372.35
658.29	370.59
658.64	368.87
658.98	367.12
659.32	365.40
659.66	363.78
660.00	362.17
660.34	360.59
660.68	358.95
661.02	357.26
661.36	355.68
661.70	354.17
662.05	352.64
662.39	351.09
662.73	349.63
663.07	348.20
663.41	346.79
663.75	345.41
664.09	344.03
664.43	342.56
664.77	341.20
665.11	339.77
665.45	338.43
665.79	337.08
666.13	335.73
666.47	334.35
666.81	332.95
667.15	331.53
667.49	330.20
667.83	328.93
668.17	327.69
668.51	326.47
668.85	325.27
669.19	324.15
669.53	322.95
669.87	321.73
670.21	320.54
670.55	319.37
670.89	318.27
671.23	317.13
671.57	316.01
671.91	314.95
672.25	313.94
672.58	312.93
672.92	311.88
673.26	310.90
673.60	309.93
673.94	308.95
674.28	308.03
674.62	307.10
674.96	306.13
675.30	305.23
675.64	304.29
675.97	303.38
676.31	302.42
676.65	301.49
676.99	300.63
677.33	299.71
677.67	298.84
678.01	297.88
678.34	297.00
678.68	296.19
679.02	295.33
679.36	294.48
679.70	293.64
680.04	292.83
680.37	292.01
680.71	291.22
681.05	290.48
681.39	289.70
681.73	288.88
682.06	288.10
682.40	287.33
682.74	286.59
683.08	285.88
683.42	285.13
683.75	284.47
684.09	283.72
684.43	283.03
684.77	282.32
685.10	281.66
685.44	280.98
685.78	280.29
686.12	279.64
686.45	278.98
686.79	278.32
687.13	277.68
687.46	277.01
687.80	276.37
688.14	275.69
688.48	275.06
688.81	274.44
689.15	273.87
689.49	273.25
689.82	272.65
690.16	272.00
690.50	271.40
690.83	270.81
691.17	270.23
691.51	269.67
691.84	269.12
692.18	268.55
692.52	267.97
692.85	267.40
693.19	266.88
693.52	266.34
693.86	265.80
694.20	265.27
694.53	264.77
694.87	264.26
695.21	263.77
695.54	263.27
695.88	262.76
696.21	262.22
696.55	261.74
696.88	261.24
697.22	260.78
697.56	260.31
697.89	259.78
698.23	259.30
698.56	258.79
698.90	258.33
699.23	257.86
699.57	257.43
699.90	256.99
700.24	256.51
700.58	256.08
700.91	255.68
701.25	255.35
701.58	254.98
701.92	254.60
702.25	254.20
702.59	253.79
702.92	253.40
703.26	253.03
703.59	252.64
703.93	252.35
704.26	251.99
704.60	251.62
704.93	251.27
705.26	250.92
705.60	250.61
705.93	250.24
706.27	249.94
706.60	249.62
706.94	249.32
707.27	248.96
707.61	248.62
707.94	248.27
708.27	247.85
708.61	247.47
708.94	247.13
709.28	246.81
709.61	246.49
709.94	246.20
710.28	245.91
710.61	245.63
710.95	245.26
711.28	245.04
711.61	244.76
711.95	244.52
712.28	244.24
712.61	243.95
712.95	243.74
713.28	243.52
713.61	243.25
713.95	242.97
714.28	242.75
714.61	242.49
714.95	242.25
715.28	242.00
715.61	241.77
715.95	241.55
716.28	241.31
716.61	241.11
716.95	240.88
717.28	240.66
717.61	240.43
717.94	240.21
718.28	239.92
718.61	239.71
718.94	239.48
719.27	239.27
719.61	239.08
719.94	238.85
720.27	238.60
720.60	238.40
720.94	238.21
721.27	238.02
721.60	237.86
721.93	237.68
722.27	237.53
722.60	237.37
722.93	237.18
723.26	237.01
723.59	236.82
723.93	236.66
724.26	236.51
724.59	236.34
724.92	236.19
725.25	236.07
725.59	235.91
725.92	235.78
726.25	235.63
726.58	235.48
726.91	235.32
727.24	235.19
727.57	235.04
727.91	234.88
728.24	234.75
728.57	234.60
728.90	234.47
729.23	234.30
729.56	234.21
729.89	234.07
730.22	233.92
730.55	233.79
730.89	233.65
731.22	233.51
731.55	233.38
731.88	233.25
732.21	233.10
732.54	232.98
732.87	232.85
733.20	232.74
733.53	232.62
733.86	232.52
734.19	232.39
734.52	232.30
734.85	232.27
735.18	232.14
735.51	232.05
735.84	231.94
736.17	231.86
736.50	231.71
736.83	231.73
737.16	231.63
737.49	231.55
737.82	231.45
738.15	231.37
738.48	231.27
738.81	231.17
739.14	231.06
739.47	230.96
739.80	230.86
740.13	230.77
740.46	230.67
740.79	230.56
741.12	230.47
741.45	230.35
741.78	230.21
742.11	230.15
742.44	230.04
742.77	229.97
743.10	229.87
743.43	229.78
743.75	229.58
744.08	229.66
744.41	229.56
744.74	229.48
745.07	229.37
745.40	229.31
745.73	229.27
746.06	229.20
746.39	229.15
746.71	229.06
747.04	228.98
747.37	228.90
747.70	228.85
748.03	228.78
748.36	228.73
748.68	228.66
749.01	228.56
749.34	228.49
749.67	228.42
750.00	228.37
750.33	228.38
750.65	228.32
750.98	228.10
751.31	228.04
751.64	227.99
751.97	227.98
752.29	227.91
752.62	227.79
752.95	227.72
753.28	227.64
753.60	227.58
753.93	227.54
754.26	227.48
754.59	227.39
754.91	227.31
755.24	227.24
755.57	227.22
755.90	227.16
756.22	227.08
756.55	227.01
756.88	226.92
757.20	226.80
757.53	226.71
757.86	226.65
758.19	226.60
758.51	226.55
758.84	226.44
759.17	226.38
759.49	226.34
759.82	226.35
760.15	226.31
760.47	226.26
760.80	226.19
761.13	226.15
761.45	226.11
761.78	226.07
762.11	226.03
762.43	225.93
762.76	225.89
763.08	225.86
763.41	225.83
763.74	225.79
764.06	225.75
764.39	225.72
764.71	225.68
765.04	225.62
765.37	225.58
765.69	225.53
766.02	225.49
766.34	225.44
766.67	225.36
767.00	225.34
767.32	225.36
767.65	225.39
767.97	225.34
768.30	225.31
768.62	225.27
768.95	225.23
769.27	225.19
769.60	225.17
769.92	225.12
770.25	225.07
770.57	225.02
770.90	224.98
771.22	224.94
771.55	224.91
771.87	224.89
772.20	224.85
772.52	224.91
772.85	225.01
773.17	224.98
773.50	224.94
773.82	224.89
774.15	224.81
774.47	224.71
774.80	224.67
775.12	224.63
775.45	224.60
775.77	224.58
776.09	224.56
776.42	224.53
776.74	224.54
777.07	224.51
777.39	224.49
777.72	224.46
778.04	224.45
778.36	224.42
778.69	224.39
779.01	224.38
779.33	224.26
779.66	224.12
779.98	224.08
780.31	224.07
780.63	224.09
780.95	224.09
781.28	224.07
781.60	224.04
781.92	224.02
782.25	224.00
782.57	223.98
782.89	223.95
783.22	223.92
783.54	223.88
783.86	223.87
784.19	223.84
784.51	223.85
784.83	223.82
785.16	223.79
785.48	223.78
785.80	223.76
786.12	223.75
786.45	223.73
786.77	223.72
787.09	223.69
787.42	223.64
787.74	223.63
788.06	223.61
788.38	223.59
788.71	223.57
789.03	223.56
789.35	223.56
789.67	223.53
789.99	223.52
790.32	223.49
790.64	223.49
790.96	223.58
791.28	223.52
791.61	223.51
791.93	223.50
792.25	223.48
792.57	223.54
792.89	223.51
793.21	223.50
793.54	223.48
793.86	223.46
794.18	223.45
794.50	223.41
794.82	223.40
795.14	223.40
795.47	223.41
795.79	223.40
796.11	223.36
796.43	223.35
796.75	223.33
797.07	223.33
797.39	223.31
797.71	223.21
798.04	223.20
798.36	223.20
798.68	223.18
799.00	223.18
799.32	223.11
799.64	223.12
799.96	223.10
800.28	223.11
800.60	223.10
800.92	223.10
801.24	223.09
801.56	223.09
801.89	223.07
802.21	223.06
802.53	223.03
802.85	223.05
803.17	223.09
803.49	223.06
803.81	223.05
804.13	223.03
804.45	223.01
804.77	223.01
805.09	223.00
805.41	222.98
805.73	222.95
806.05	222.92
806.37	222.90
806.69	222.88
807.01	222.86
807.33	222.85
807.65	222.81
807.97	222.85
808.28	222.82
808.60	222.81
808.92	222.78
809.24	222.84
809.56	222.80
809.88	222.76
810.20	222.76
810.52	222.77
810.84	222.75
811.16	222.73
811.48	222.71
811.80	222.74
812.12	222.73
812.43	222.75
812.75	222.75
813.07	222.73
813.39	222.73
813.71	222.71
814.03	222.69
814.35	222.69
814.67	222.64
814.98	222.63
815.30	222.62
815.62	222.60
815.94	222.53
816.26	222.54
816.58	222.52
816.89	222.52
817.21	222.49
817.53	222.49
817.85	222.49
818.17	222.48
818.48	222.43
818.80	222.45
819.12	222.43
819.44	222.40
819.76	222.39
820.07	222.39
820.39	222.38
820.71	222.39
821.03	222.39
821.34	222.37
821.66	222.38
821.98	222.39
822.30	222.39
822.61	222.45
822.93	222.42
823.25	222.42
823.57	222.41
823.88	222.42
824.20	222.41
824.52	222.43
824.83	222.42
825.15	222.41
825.47	222.39
825.79	222.40
826.10	222.39
826.42	222.39
826.74	222.39
827.05	222.39
827.37	222.38
827.69	222.37
828.00	222.38
828.32	222.38
828.64	222.36
828.95	222.41
829.27	222.37
829.58	222.37
829.90	222.38
830.22	222.39
830.53	222.36
830.85	222.35
831.17	222.32
831.48	222.32
831.80	222.32
832.11	222.31
832.43	222.29
832.75	222.29
833.06	222.35
833.38	222.32
833.69	222.31
834.01	222.31
834.32	222.30
834.64	222.29
834.96	222.29
835.27	222.28
835.59	222.24
835.90	222.23
836.22	222.22
836.53	222.20
836.85	222.19
837.16	222.29
837.48	222.29
837.79	222.32
838.11	222.32
838.42	222.32
838.74	222.33
839.05	222.32
839.37	222.32
839.68	222.25
840.00	222.25
840.31	222.27
840.63	222.25
840.94	222.24
841.26	222.23
841.57	222.23
841.88	222.24
842.20	222.22
842.51	222.20
842.83	222.19
843.14	222.29
843.46	222.29
843.77	222.22
844.08	222.22
844.40	222.18
844.71	222.17
845.03	222.16
845.34	222.15
845.65	222.14
845.97	222.14
846.28	222.15
846.60	222.15
846.91	222.13
847.22	222.13
847.54	222.15
847.85	222.16
848.16	222.14
848.48	222.13
848.79	222.16
849.10	222.18
849.42	222.18
849.73	222.08
850.04	222.07
850.36	222.03
850.67	222.05
850.98	222.05
851.30	222.06
851.61	222.05
851.92	222.05
852.23	222.09
852.55	222.09
852.86	222.09
853.17	222.10
853.49	222.12
853.80	222.14
854.11	222.14
854.42	222.15
854.74	222.14
855.05	222.14
855.36	222.08
855.67	222.09
855.99	222.08
856.30	222.21
856.61	222.21
856.92	222.21
857.23	222.21
857.55	222.20
857.86	222.19
858.17	222.21
858.48	222.19
858.79	222.16
859.11	222.17
859.42	222.16
859.73	222.15
860.04	222.14
860.35	222.11
860.66	222.08
860.98	222.07
861.29	222.08
861.60	222.08
861.91	222.10
862.22	222.08
862.53	222.07
862.84	221.94
863.16	221.96
863.47	221.95
863.78	221.93
864.09	221.94
864.40	221.95
864.71	221.94
865.02	221.95
865.33	221.94
865.64	221.93
865.95	221.93
866.27	221.99
866.58	221.98
866.89	221.99
867.20	221.99
867.51	221.97
867.82	221.96
868.13	221.99
868.44	221.97
868.75	221.99
869.06	222.00
869.37	222.01
869.68	221.98
869.99	222.00
870.30	222.01
870.61	222.01
870.92	221.99
871.23	221.99
871.54	222.00
871.85	222.02
872.16	222.03
872.47	222.02
872.78	221.97
873.09	221.98
873.40	221.97
873.71	221.98
874.02	221.98
874.33	221.97
874.64	221.95
874.95	221.96
875.26	221.94
875.56	221.94
875.87	221.94
876.18	221.93
876.49	222.04
876.80	222.02
877.11	222.00
877.42	222.01
877.73	222.01
878.04	222.00
878.35	221.99
878.66	221.99
878.96	221.99
879.27	221.98
879.58	221.98
879.89	221.97
880.20	222.00
880.51	222.00
880.82	222.00
881.12	222.01
881.43	221.99
881.74	221.97
882.05	221.96
882.36	221.97
882.67	221.98
882.97	221.86
883.28	221.85
883.59	221.85
883.90	221.86
884.21	221.87
884.51	221.86
884.82	221.85
885.13	221.84
885.44	221.84
885.74	221.85
886.05	221.84
886.36	221.84
886.67	221.80
886.98	221.85
887.28	221.86
887.59	221.86
887.90	221.87
888.20	221.87
888.51	221.89
888.82	221.87
889.13	221.87
889.43	221.97
889.74	221.96
890.05	221.96
890.35	221.94
890.66	221.93
890.97	221.92
891.28	221.90
891.58	221.90
891.89	221.90
892.20	221.89
892.50	221.88
892.81	221.87
893.12	221.87
893.42	221.81
893.73	221.81
894.04	221.80
894.34	221.81
894.65	221.81
894.95	221.80
895.26	221.80
895.57	221.85
895.87	221.74
896.18	221.75
896.48	221.76
896.79	221.76
897.10	221.77
897.40	221.78
897.71	221.79
898.01	221.78
898.32	221.79
898.63	221.79
898.93	221.80
899.24	221.80
899.54	221.79
899.85	221.79
900.15	221.79
900.46	221.78
900.76	221.78
901.07	221.78
901.38	221.77
901.68	221.78
901.99	221.73
902.29	221.74
902.60	221.73
902.90	221.72
903.21	221.72
903.51	221.71
903.82	221.72
904.12	221.72
904.43	221.73
904.73	221.72
905.03	221.73
905.34	221.82
905.64	221.82
905.95	221.82
906.25	221.82
906.56	221.81
906.86	221.81
907.17	221.80
907.47	221.81
907.77	221.81
908.08	221.79
908.38	221.79
908.69	221.79
908.99	221.81
909.30	221.82
909.60	221.82
909.90	221.83
910.21	221.80
910.51	221.78
910.81	221.78
911.12	221.79
911.42	221.79
911.73	221.68
912.03	221.69
912.33	221.71
912.64	221.70
912.94	221.69
913.24	221.68
913.55	221.67
913.85	221.66
914.15	221.68
914.46	221.69
914.76	221.68
915.06	221.68
915.37	221.66
915.67	221.65
915.97	221.65
916.27	221.62
916.58	221.63
916.88	221.64
917.18	221.63
917.49	221.70
917.79	221.69
918.09	221.71
918.39	221.74
918.70	221.73
919.00	221.74
919.30	221.79
919.60	221.79
919.91	221.77
920.21	221.78
920.51	221.76
920.81	221.75
921.12	221.77
921.42	221.77
921.72	221.77
922.02	221.78
922.32	221.80
922.63	221.80
922.93	221.86
923.23	221.86
923.53	221.85
923.83	221.78
924.13	221.78
924.44	221.78
924.74	221.79
925.04	221.81
925.34	221.81
925.64	221.76
925.94	221.76
926.24	221.82
926.55	221.81
926.85	221.82
927.15	221.83
927.45	221.82
927.75	221.82
928.05	221.82
928.35	221.81
928.65	221.82
928.95	221.83
929.26	221.78
929.56	221.80
929.86	221.81
930.16	221.81
930.46	221.79
930.76	221.80
931.06	221.75
931.36	221.72
931.66	221.74
931.96	221.76
932.26	221.76
932.56	221.71
932.86	221.72
933.16	221.72
933.46	221.71
933.76	221.69
934.06	221.72
934.36	221.75
934.66	221.75
934.96	221.73
935.26	221.74
935.56	221.75
935.86	221.72
936.16	221.71
936.46	221.70
936.76	221.69
937.06	221.68
937.36	221.68
937.66	221.69
937.96	221.68
938.26	221.65
938.56	221.64
938.86	221.65
939.16	221.67
939.46	221.67
939.76	221.68
940.06	221.68
940.35	221.66
940.65	221.61
940.95	221.61
941.25	221.59
941.55	221.58
941.85	221.57
942.15	221.59
942.45	221.62
942.75	221.61
943.04	221.62
943.34	221.64
943.64	221.63
943.94	221.62
944.24	221.62
944.54	221.63
944.84	221.63
945.13	221.61
945.43	221.59
945.73	221.58
946.03	221.57
946.33	221.56
946.62	221.55
946.92	221.56
947.22	221.56
947.52	221.57
947.82	221.58
948.11	221.57
948.41	221.55
948.71	221.52
949.01	221.52
949.31	221.52
949.60	221.50
949.90	221.52
950.20	221.52
950.50	221.51
950.79	221.51
951.09	221.52
951.39	221.53
951.69	221.52
951.98	221.54
952.28	221.55
952.58	221.54
952.87	221.55
953.17	221.56
953.47	221.55
953.76	221.55
954.06	221.53
954.36	221.52
954.66	221.52
954.95	221.55
955.25	221.56
955.55	221.57
955.84	221.55
956.14	221.56
956.44	221.57
956.73	221.56
957.03	221.56
957.32	221.56
957.62	221.56
957.92	221.58
958.21	221.57
958.51	221.69
958.81	221.70
959.10	221.71
959.40	221.74
959.69	221.74
959.99	221.76
960.29	221.76
960.58	221.76
960.88	221.80
961.17	221.78
961.47	221.79
961.76	221.78
962.06	221.80
962.36	221.78
962.65	221.78
962.95	221.79
963.24	221.78
963.54	221.78
963.83	221.79
964.13	221.78
964.42	221.77
964.72	221.68
965.01	221.68
965.31	221.67
965.60	221.64
965.90	221.70
966.19	221.68
966.49	221.68
966.78	221.68
967.08	221.67
967.37	221.67
967.67	221.64
967.96	221.66
968.26	221.66
968.55	221.67
968.85	221.66
969.14	221.66
969.43	221.66
969.73	221.64
970.02	221.64
970.32	221.63
970.61	221.62
970.91	221.58
971.20	221.57
971.49	221.56
971.79	221.57
972.08	221.50
972.38	221.51
972.67	221.51
972.96	221.52
973.26	221.50
973.55	221.53
973.85	221.53
974.14	221.52
974.43	221.53
974.73	221.51
975.02	221.50
975.31	221.50
975.61	221.50
975.90	221.50
976.19	221.49
976.49	221.50
976.78	221.50
977.07	221.51
977.37	221.51
977.66	221.52
977.95	221.50
978.24	221.51
978.54	221.53
978.83	221.52
979.12	221.51
979.42	221.51
979.71	221.49
980.00	221.49
980.29	221.49
980.59	221.47
980.88	221.50
981.17	221.50
981.46	221.50
981.76	221.50
982.05	221.53
982.34	221.53
982.63	221.53
982.93	221.53
983.22	221.55
983.51	221.56
983.80	221.57
984.09	221.59
984.39	221.58
984.68	221.56
984.97	221.57
985.26	221.56
985.55	221.57
985.85	221.55
986.14	221.57
986.43	221.58
986.72	221.57
987.01	221.54
987.30	221.54
987.59	221.54
987.89	221.54
988.18	221.51
988.47	221.51
988.76	221.50
989.05	221.49
989.34	221.47
989.63	221.50
989.92	221.48
990.22	221.46
990.51	221.46
990.80	221.45
991.09	221.46
991.38	221.48
991.67	221.47
991.96	221.46
992.25	221.46
992.54	221.44
992.83	221.44
993.12	221.44
993.41	221.46
993.70	221.50
993.99	221.51
994.28	221.53
994.58	221.55
994.87	221.54
995.16	221.54
995.45	221.53
995.74	221.49
996.03	221.51
996.32	221.53
996.61	221.55
996.90	221.55
997.19	221.54
997.48	221.54
997.77	221.53
998.06	221.54
998.34	221.53
998.63	221.53
998.92	221.53
999.21	221.55
999.50	221.55
999.79	221.51
1000.08	221.50
1000.37	221.50
1000.66	221.48
1000.95	221.51
1001.24	221.51
1001.53	221.53
1001.82	221.53
1002.11	221.50
1002.40	221.51
1002.68	221.54
1002.97	221.61
1003.26	221.60
1003.55	221.58
1003.84	221.60
1004.13	221.63
1004.42	221.62
1004.71	221.62
1004.99	221.62
1005.28	221.63
1005.57	221.63
1005.86	221.62
1006.15	221.60
1006.44	221.59
1006.72	221.61
1007.01	221.59
1007.30	221.58
1007.59	221.57
1007.88	221.57
1008.17	221.58
1008.45	221.56
1008.74	221.51
1009.03	221.46
1009.32	221.46
1009.60	221.46
1009.89	221.45
1010.18	221.41
1010.47	221.40
1010.76	221.41
1011.04	221.40
1011.33	221.40
1011.62	221.41
1011.91	221.42
1012.19	221.43
1012.48	221.43
1012.77	221.43
1013.05	221.46
1013.34	221.46
1013.63	221.45
1013.92	221.46
1014.20	221.45
1014.49	221.46
1014.78	221.47
1015.06	221.44
1015.35	221.44
1015.64	221.45
1015.92	221.47
1016.21	221.48
1016.50	221.48
1016.78	221.49
1017.07	221.49
1017.36	221.47
1017.64	221.46
1017.93	221.46
1018.22	221.45
1018.50	221.44
1018.79	221.45
1019.08	221.41
1019.36	221.41
1019.65	221.41
1019.93	221.44
1020.22	221.46
1020.51	221.51
1020.79	221.49
1021.08	221.27
1021.36	221.29
1021.65	221.52
1021.94	221.39
1022.22	221.49
1022.51	221.28
1022.79	221.93
1023.08	221.65
1023.36	222.68
1023.65	221.20
>>>>>End Processed Spectral Data<<<<<
