SpectraSuite Data File
++++++++++++++++++++++++++++++++++++
Date: Thu Oct 01 07:20:10 EDT 2015
User: lab3
Dark Spectrum Present: No
Reference Spectrum Present: No
Number of Sampled Component Spectra: 1
Spectrometers: USB2E7196
Integration Time (usec): 36000 (USB2E7196)
Spectra Averaged: 10000 (USB2E7196)
Boxcar Smoothing: 10 (USB2E7196)
Correct for Electrical Dark: No (USB2E7196)
Strobe/Lamp Enabled: No (USB2E7196)
Correct for Detector Non-linearity: No (USB2E7196)
Correct for Stray Light: No (USB2E7196)
Number of Pixels in Processed Spectrum: 2048
>>>>>Begin Processed Spectral Data<<<<<
339.09	0.00
339.48	210.14
339.86	211.61
340.24	212.98
340.63	214.37
341.01	217.35
341.39	217.13
341.78	218.39
342.16	219.65
342.54	220.15
342.93	208.73
343.31	219.27
343.69	219.81
344.07	220.27
344.46	220.71
344.84	221.09
345.22	221.33
345.60	221.59
345.99	221.78
346.37	221.92
346.75	222.03
347.13	222.10
347.52	222.17
347.90	222.26
348.28	222.29
348.66	222.35
349.05	222.35
349.43	222.40
349.81	222.46
350.19	222.52
350.57	222.59
350.96	222.67
351.34	222.76
351.72	222.85
352.10	222.96
352.48	223.04
352.87	223.09
353.25	223.16
353.63	223.22
354.01	223.28
354.39	223.36
354.77	223.44
355.15	223.54
355.54	223.59
355.92	223.62
356.30	223.69
356.68	223.83
357.06	223.90
357.44	223.95
357.82	224.01
358.20	224.12
358.58	224.17
358.97	224.23
359.35	224.31
359.73	224.39
360.11	224.44
360.49	224.50
360.87	224.55
361.25	224.61
361.63	224.69
362.01	224.74
362.39	224.77
362.77	224.81
363.15	224.84
363.53	224.87
363.91	224.91
364.29	224.94
364.67	224.86
365.05	224.88
365.43	224.92
365.81	224.95
366.19	224.96
366.57	225.01
366.95	225.01
367.33	224.99
367.71	224.98
368.09	225.00
368.47	224.99
368.85	224.98
369.23	224.99
369.61	224.93
369.99	224.95
370.37	224.95
370.75	225.00
371.13	224.97
371.51	224.93
371.89	224.90
372.27	224.88
372.65	224.85
373.03	224.81
373.41	224.77
373.78	224.71
374.16	224.62
374.54	224.54
374.92	224.50
375.30	224.45
375.68	224.38
376.06	224.34
376.44	224.28
376.82	224.24
377.19	224.19
377.57	224.14
377.95	224.05
378.33	223.98
378.71	223.84
379.09	223.79
379.47	223.75
379.84	223.69
380.22	223.63
380.60	223.56
380.98	223.51
381.36	223.46
381.73	223.40
382.11	223.37
382.49	223.33
382.87	223.26
383.25	223.22
383.62	223.30
384.00	223.23
384.38	223.19
384.76	223.17
385.13	223.15
385.51	223.11
385.89	223.06
386.27	223.02
386.64	223.00
387.02	222.96
387.40	222.92
387.78	222.89
388.15	222.86
388.53	222.83
388.91	222.80
389.29	222.77
389.66	222.76
390.04	222.72
390.42	222.72
390.79	222.70
391.17	222.69
391.55	222.55
391.92	222.54
392.30	222.54
392.68	222.50
393.05	222.48
393.43	222.48
393.81	222.49
394.18	222.46
394.56	222.46
394.94	222.49
395.31	222.49
395.69	222.53
396.06	222.55
396.44	222.57
396.82	222.59
397.19	222.66
397.57	222.67
397.95	222.71
398.32	222.70
398.70	222.75
399.07	222.80
399.45	222.84
399.82	222.88
400.20	222.92
400.58	222.97
400.95	222.99
401.33	223.06
401.70	223.20
402.08	223.29
402.45	223.37
402.83	223.47
403.20	223.58
403.58	223.67
403.95	223.79
404.33	223.92
404.71	224.05
405.08	224.23
405.46	224.38
405.83	224.55
406.21	224.73
406.58	224.92
406.96	225.11
407.33	225.33
407.70	225.58
408.08	225.91
408.45	226.20
408.83	226.52
409.20	226.81
409.58	227.07
409.95	227.42
410.33	227.81
410.70	228.17
411.08	228.58
411.45	229.03
411.82	229.49
412.20	230.01
412.57	230.62
412.95	231.11
413.32	231.74
413.69	232.39
414.07	233.08
414.44	233.83
414.82	234.59
415.19	235.49
415.56	236.39
415.94	237.34
416.31	238.39
416.68	239.45
417.06	240.69
417.43	241.84
417.81	243.17
418.18	244.53
418.55	246.01
418.93	247.55
419.30	249.16
419.67	250.88
420.04	252.64
420.42	254.47
420.79	256.60
421.16	258.75
421.54	260.93
421.91	263.20
422.28	265.57
422.66	268.13
423.03	270.56
423.40	273.11
423.77	275.85
424.15	278.66
424.52	281.57
424.89	284.72
425.26	287.87
425.64	290.78
426.01	294.05
426.38	297.40
426.75	300.84
427.13	304.36
427.50	308.05
427.87	311.87
428.24	315.74
428.61	319.43
428.99	323.40
429.36	327.77
429.73	331.94
430.10	336.10
430.47	340.34
430.85	344.70
431.22	349.35
431.59	354.12
431.96	358.75
432.33	363.89
432.70	368.76
433.08	374.53
433.45	379.97
433.82	385.31
434.19	391.28
434.56	397.16
434.93	402.82
435.30	408.42
435.68	414.73
436.05	420.90
436.42	427.06
436.79	432.69
437.16	438.75
437.53	445.26
437.90	451.77
438.27	458.13
438.64	465.03
439.01	471.28
439.38	476.99
439.75	482.52
440.13	488.83
440.50	494.85
440.87	499.61
441.24	504.83
441.61	510.60
441.98	514.85
442.35	519.90
442.72	525.08
443.09	530.05
443.46	533.29
443.83	535.71
444.20	537.78
444.57	540.77
444.94	542.60
445.31	544.48
445.68	546.18
446.05	547.49
446.42	547.45
446.79	547.31
447.16	547.22
447.53	547.18
447.90	545.43
448.27	543.80
448.64	541.15
449.01	539.44
449.37	535.58
449.74	532.08
450.11	527.56
450.48	522.54
450.85	517.48
451.22	513.20
451.59	509.01
451.96	505.19
452.33	499.55
452.70	494.53
453.07	488.38
453.43	482.22
453.80	476.25
454.17	470.52
454.54	465.19
454.91	459.16
455.28	453.48
455.65	448.12
456.02	442.41
456.38	437.80
456.75	431.85
457.12	427.05
457.49	422.20
457.86	417.56
458.23	413.50
458.59	409.02
458.96	404.40
459.33	400.31
459.70	396.16
460.07	392.99
460.43	389.26
460.80	385.77
461.17	382.69
461.54	379.37
461.91	376.27
462.27	373.11
462.64	370.53
463.01	367.57
463.38	364.59
463.74	361.90
464.11	359.50
464.48	357.33
464.85	355.00
465.21	353.22
465.58	351.26
465.95	348.99
466.32	347.18
466.68	345.41
467.05	343.63
467.42	341.92
467.78	340.08
468.15	338.38
468.52	337.11
468.88	335.45
469.25	333.93
469.62	332.73
469.98	331.42
470.35	330.26
470.72	329.22
471.08	328.16
471.45	327.28
471.82	326.31
472.18	325.30
472.55	324.65
472.92	323.84
473.28	323.21
473.65	322.56
474.02	321.95
474.38	321.45
474.75	321.18
475.11	320.76
475.48	320.61
475.85	320.45
476.21	320.41
476.58	320.41
476.94	320.61
477.31	320.74
477.67	320.90
478.04	321.17
478.41	321.52
478.77	321.99
479.14	322.33
479.50	322.90
479.87	323.60
480.23	324.30
480.60	324.99
480.96	325.70
481.33	326.67
481.69	327.65
482.06	328.61
482.42	329.52
482.79	330.60
483.15	331.86
483.52	333.25
483.88	334.61
484.25	336.05
484.61	337.55
484.98	339.16
485.34	340.97
485.71	342.84
486.07	344.84
486.44	346.83
486.80	349.04
487.17	351.29
487.53	353.78
487.90	356.36
488.26	359.15
488.62	362.10
488.99	365.06
489.35	368.15
489.72	371.48
490.08	374.99
490.44	378.59
490.81	382.36
491.17	386.22
491.54	390.34
491.90	394.56
492.26	399.11
492.63	403.90
492.99	408.88
493.36	413.98
493.72	419.36
494.08	424.87
494.45	430.69
494.81	436.73
495.17	442.89
495.54	449.41
495.90	456.23
496.26	463.20
496.63	470.40
496.99	477.89
497.35	485.76
497.72	493.93
498.08	502.25
498.44	510.83
498.80	519.97
499.17	529.34
499.53	539.05
499.89	549.00
500.26	559.11
500.62	569.51
500.98	580.58
501.34	591.82
501.71	603.59
502.07	615.59
502.43	627.98
502.79	640.73
503.16	653.88
503.52	667.22
503.88	680.94
504.24	695.08
504.60	709.52
504.97	724.34
505.33	739.53
505.69	755.66
506.05	771.98
506.41	788.31
506.78	804.95
507.14	822.06
507.50	839.79
507.86	857.89
508.22	876.27
508.59	894.67
508.95	913.80
509.31	933.34
509.67	953.59
510.03	974.08
510.39	994.76
510.75	1015.70
511.12	1036.93
511.48	1058.49
511.84	1080.13
512.20	1102.08
512.56	1125.13
512.92	1148.40
513.28	1171.38
513.64	1194.67
514.00	1218.37
514.37	1242.42
514.73	1266.47
515.09	1290.31
515.45	1314.60
515.81	1339.45
516.17	1364.37
516.53	1388.94
516.89	1413.57
517.25	1438.39
517.61	1463.39
517.97	1488.58
518.33	1513.50
518.69	1538.56
519.05	1563.87
519.41	1589.32
519.77	1615.03
520.13	1639.92
520.49	1664.99
520.85	1690.26
521.21	1715.47
521.57	1741.26
521.93	1766.32
522.29	1792.24
522.65	1817.86
523.01	1843.25
523.37	1867.92
523.73	1893.19
524.09	1918.64
524.45	1944.02
524.81	1968.90
525.17	1993.71
525.53	2018.08
525.89	2042.44
526.25	2067.00
526.61	2091.00
526.97	2115.30
527.33	2139.53
527.68	2163.64
528.04	2186.85
528.40	2209.93
528.76	2233.17
529.12	2255.33
529.48	2277.87
529.84	2298.53
530.20	2319.83
530.56	2340.77
530.91	2361.74
531.27	2382.22
531.63	2402.03
531.99	2421.33
532.35	2440.24
532.71	2459.20
533.07	2478.81
533.42	2496.86
533.78	2515.34
534.14	2533.78
534.50	2551.37
534.86	2569.57
535.21	2585.88
535.57	2602.16
535.93	2617.66
536.29	2631.99
536.65	2647.15
537.00	2661.17
537.36	2675.75
537.72	2689.20
538.08	2702.33
538.44	2714.32
538.79	2726.50
539.15	2737.06
539.51	2747.55
539.87	2757.71
540.22	2765.78
540.58	2773.85
540.94	2782.55
541.29	2789.63
541.65	2795.76
542.01	2801.39
542.37	2805.15
542.72	2810.80
543.08	2815.96
543.44	2820.99
543.79	2825.16
544.15	2828.49
544.51	2831.75
544.87	2834.13
545.22	2836.10
545.58	2837.13
545.94	2838.59
546.29	2838.59
546.65	2838.74
547.01	2838.90
547.36	2839.19
547.72	2839.61
548.07	2838.61
548.43	2836.93
548.79	2834.63
549.14	2832.37
549.50	2830.67
549.86	2828.20
550.21	2823.26
550.57	2818.74
550.92	2812.83
551.28	2807.54
551.64	2802.13
551.99	2797.16
552.35	2791.78
552.70	2785.93
553.06	2780.83
553.41	2775.27
553.77	2769.19
554.13	2763.73
554.48	2757.39
554.84	2749.37
555.19	2741.50
555.55	2733.05
555.90	2725.19
556.26	2718.37
556.61	2710.90
556.97	2701.26
557.32	2692.46
557.68	2684.16
558.03	2675.17
558.39	2666.88
558.74	2658.73
559.10	2649.32
559.45	2639.60
559.81	2630.22
560.16	2620.22
560.52	2609.69
560.87	2600.17
561.23	2590.29
561.58	2579.89
561.94	2569.25
562.29	2558.13
562.64	2547.65
563.00	2537.54
563.35	2527.27
563.71	2516.12
564.06	2504.38
564.42	2493.72
564.77	2482.64
565.12	2471.70
565.48	2460.47
565.83	2449.89
566.19	2439.34
566.54	2428.46
566.89	2416.65
567.25	2404.78
567.60	2393.74
567.96	2382.33
568.31	2369.49
568.66	2356.54
569.02	2344.69
569.37	2332.60
569.72	2321.01
570.08	2308.70
570.43	2295.85
570.78	2282.71
571.14	2269.35
571.49	2256.85
571.84	2244.59
572.20	2231.05
572.55	2217.88
572.90	2204.64
573.26	2190.52
573.61	2175.83
573.96	2161.37
574.31	2147.30
574.67	2133.43
575.02	2119.16
575.37	2104.44
575.72	2090.03
576.08	2076.23
576.43	2061.40
576.78	2046.60
577.13	2032.66
577.49	2018.75
577.84	2005.19
578.19	1990.79
578.54	1976.03
578.90	1960.75
579.25	1945.22
579.60	1931.10
579.95	1916.59
580.30	1902.11
580.66	1887.94
581.01	1873.37
581.36	1859.18
581.71	1845.53
582.06	1831.43
582.42	1817.34
582.77	1804.05
583.12	1790.41
583.47	1776.82
583.82	1763.34
584.17	1749.77
584.53	1736.00
584.88	1722.24
585.23	1708.15
585.58	1694.58
585.93	1681.47
586.28	1669.17
586.63	1656.68
586.98	1643.51
587.34	1630.57
587.69	1617.14
588.04	1603.90
588.39	1591.38
588.74	1578.41
589.09	1565.13
589.44	1551.83
589.79	1539.11
590.14	1526.22
590.49	1513.57
590.84	1500.79
591.19	1488.65
591.54	1476.01
591.89	1463.24
592.25	1450.81
592.60	1438.00
592.95	1425.74
593.30	1413.73
593.65	1401.52
594.00	1389.51
594.35	1378.31
594.70	1366.29
595.05	1355.36
595.40	1344.28
595.75	1332.59
596.10	1321.67
596.45	1310.97
596.80	1300.75
597.15	1290.32
597.50	1279.91
597.85	1269.64
598.19	1259.59
598.54	1248.93
598.89	1239.02
599.24	1229.44
599.59	1219.61
599.94	1210.79
600.29	1201.86
600.64	1192.72
600.99	1183.01
601.34	1173.76
601.69	1163.92
602.04	1155.15
602.39	1146.17
602.74	1137.45
603.08	1128.98
603.43	1120.02
603.78	1110.97
604.13	1102.06
604.48	1093.07
604.83	1084.35
605.18	1075.54
605.53	1066.67
605.87	1057.94
606.22	1049.48
606.57	1040.73
606.92	1032.07
607.27	1023.30
607.62	1014.63
607.96	1006.11
608.31	998.58
608.66	990.62
609.01	983.09
609.36	975.51
609.70	967.73
610.05	959.78
610.40	952.17
610.75	944.70
611.10	937.49
611.44	929.88
611.79	922.59
612.14	914.94
612.49	907.42
612.83	900.38
613.18	893.38
613.53	886.18
613.88	879.08
614.22	872.56
614.57	865.88
614.92	859.17
615.27	852.51
615.61	845.69
615.96	839.12
616.31	832.46
616.65	825.70
617.00	819.18
617.35	812.80
617.70	806.45
618.04	800.14
618.39	793.87
618.74	787.94
619.08	781.82
619.43	775.96
619.78	770.13
620.12	764.10
620.47	758.24
620.82	752.46
621.16	746.99
621.51	741.18
621.85	735.36
622.20	729.59
622.55	723.99
622.89	718.36
623.24	712.75
623.59	707.23
623.93	701.74
624.28	696.41
624.62	691.05
624.97	685.69
625.32	680.45
625.66	675.06
626.01	669.68
626.35	664.43
626.70	659.23
627.04	654.20
627.39	649.22
627.73	644.36
628.08	639.72
628.43	634.96
628.77	630.26
629.12	625.68
629.46	621.30
629.81	616.74
630.15	612.05
630.50	607.52
630.84	603.18
631.19	599.03
631.53	594.92
631.88	590.69
632.22	586.56
632.57	582.65
632.91	578.72
633.26	574.86
633.60	571.08
633.95	567.38
634.29	563.55
634.64	559.68
634.98	555.73
635.32	551.93
635.67	548.28
636.01	544.57
636.36	540.90
636.70	537.35
637.05	533.80
637.39	530.48
637.73	527.02
638.08	523.61
638.42	520.18
638.77	516.61
639.11	513.06
639.45	509.54
639.80	506.00
640.14	502.65
640.49	499.27
640.83	495.78
641.17	492.33
641.52	489.04
641.86	485.76
642.20	482.63
642.55	479.35
642.89	476.16
643.23	473.16
643.58	470.38
643.92	467.50
644.26	464.65
644.61	461.77
644.95	458.91
645.29	456.00
645.64	453.06
645.98	450.26
646.32	447.61
646.66	444.98
647.01	442.33
647.35	439.72
647.69	437.01
648.04	434.43
648.38	431.89
648.72	429.32
649.06	426.81
649.41	424.33
649.75	421.85
650.09	419.39
650.43	416.94
650.78	414.47
651.12	411.99
651.46	409.61
651.80	407.33
652.14	405.11
652.49	402.91
652.83	400.76
653.17	398.60
653.51	396.51
653.85	394.48
654.20	392.39
654.54	390.22
654.88	388.24
655.22	386.33
655.56	384.37
655.90	382.50
656.25	380.64
656.59	378.78
656.93	377.03
657.27	375.31
657.61	373.50
657.95	371.74
658.29	369.99
658.64	368.28
658.98	366.54
659.32	364.83
659.66	363.22
660.00	361.62
660.34	360.05
660.68	358.43
661.02	356.75
661.36	355.17
661.70	353.67
662.05	352.14
662.39	350.61
662.73	349.16
663.07	347.74
663.41	346.34
663.75	344.96
664.09	343.59
664.43	342.13
664.77	340.78
665.11	339.36
665.45	338.02
665.79	336.68
666.13	335.32
666.47	333.96
666.81	332.57
667.15	331.15
667.49	329.84
667.83	328.57
668.17	327.34
668.51	326.13
668.85	324.94
669.19	323.81
669.53	322.62
669.87	321.41
670.21	320.22
670.55	319.05
670.89	317.96
671.23	316.83
671.57	315.72
671.91	314.65
672.25	313.66
672.58	312.65
672.92	311.61
673.26	310.64
673.60	309.68
673.94	308.70
674.28	307.78
674.62	306.85
674.96	305.90
675.30	304.99
675.64	304.07
675.97	303.16
676.31	302.20
676.65	301.29
676.99	300.43
677.33	299.51
677.67	298.64
678.01	297.69
678.34	296.82
678.68	296.00
679.02	295.15
679.36	294.31
679.70	293.47
680.04	292.66
680.37	291.84
680.71	291.06
681.05	290.32
681.39	289.54
681.73	288.73
682.06	287.95
682.40	287.18
682.74	286.44
683.08	285.73
683.42	285.00
683.75	284.33
684.09	283.59
684.43	282.91
684.77	282.20
685.10	281.55
685.44	280.87
685.78	280.19
686.12	279.54
686.45	278.88
686.79	278.22
687.13	277.59
687.46	276.93
687.80	276.29
688.14	275.61
688.48	274.99
688.81	274.36
689.15	273.79
689.49	273.18
689.82	272.59
690.16	271.94
690.50	271.35
690.83	270.76
691.17	270.19
691.51	269.63
691.84	269.09
692.18	268.52
692.52	267.94
692.85	267.37
693.19	266.86
693.52	266.32
693.86	265.79
694.20	265.27
694.53	264.78
694.87	264.27
695.21	263.78
695.54	263.29
695.88	262.79
696.21	262.26
696.55	261.77
696.88	261.28
697.22	260.82
697.56	260.35
697.89	259.83
698.23	259.35
698.56	258.85
698.90	258.39
699.23	257.92
699.57	257.49
699.90	257.06
700.24	256.58
700.58	256.16
700.91	255.76
701.25	255.43
701.58	255.06
701.92	254.68
702.25	254.28
702.59	253.87
702.92	253.50
703.26	253.12
703.59	252.73
703.93	252.44
704.26	252.08
704.60	251.72
704.93	251.37
705.26	251.02
705.60	250.71
705.93	250.34
706.27	250.04
706.60	249.73
706.94	249.43
707.27	249.07
707.61	248.73
707.94	248.38
708.27	247.96
708.61	247.59
708.94	247.25
709.28	246.93
709.61	246.62
709.94	246.32
710.28	246.03
710.61	245.76
710.95	245.39
711.28	245.17
711.61	244.90
711.95	244.65
712.28	244.37
712.61	244.08
712.95	243.87
713.28	243.65
713.61	243.39
713.95	243.11
714.28	242.88
714.61	242.63
714.95	242.39
715.28	242.14
715.61	241.90
715.95	241.69
716.28	241.45
716.61	241.25
716.95	241.02
717.28	240.80
717.61	240.57
717.94	240.36
718.28	240.08
718.61	239.86
718.94	239.63
719.27	239.43
719.61	239.25
719.94	239.02
720.27	238.77
720.60	238.57
720.94	238.38
721.27	238.20
721.60	238.04
721.93	237.86
722.27	237.72
722.60	237.56
722.93	237.36
723.26	237.20
723.59	237.00
723.93	236.85
724.26	236.69
724.59	236.52
724.92	236.37
725.25	236.24
725.59	236.08
725.92	235.95
726.25	235.80
726.58	235.65
726.91	235.50
727.24	235.37
727.57	235.22
727.91	235.07
728.24	234.93
728.57	234.78
728.90	234.66
729.23	234.48
729.56	234.39
729.89	234.26
730.22	234.12
730.55	233.99
730.89	233.85
731.22	233.72
731.55	233.59
731.88	233.46
732.21	233.32
732.54	233.20
732.87	233.08
733.20	232.97
733.53	232.86
733.86	232.75
734.19	232.62
734.52	232.53
734.85	232.50
735.18	232.37
735.51	232.29
735.84	232.18
736.17	232.11
736.50	231.95
736.83	231.98
737.16	231.89
737.49	231.80
737.82	231.70
738.15	231.62
738.48	231.53
738.81	231.43
739.14	231.32
739.47	231.22
739.80	231.12
740.13	231.04
740.46	230.93
740.79	230.82
741.12	230.73
741.45	230.62
741.78	230.47
742.11	230.41
742.44	230.30
742.77	230.23
743.10	230.12
743.43	230.03
743.75	229.84
744.08	229.91
744.41	229.82
744.74	229.73
745.07	229.63
745.40	229.57
745.73	229.53
746.06	229.47
746.39	229.41
746.71	229.33
747.04	229.24
747.37	229.17
747.70	229.12
748.03	229.06
748.36	229.01
748.68	228.94
749.01	228.83
749.34	228.77
749.67	228.70
750.00	228.65
750.33	228.66
750.65	228.61
750.98	228.39
751.31	228.33
751.64	228.27
751.97	228.27
752.29	228.19
752.62	228.08
752.95	228.01
753.28	227.93
753.60	227.87
753.93	227.84
754.26	227.79
754.59	227.69
754.91	227.61
755.24	227.54
755.57	227.52
755.90	227.46
756.22	227.39
756.55	227.31
756.88	227.23
757.20	227.10
757.53	227.01
757.86	226.96
758.19	226.91
758.51	226.85
758.84	226.74
759.17	226.68
759.49	226.64
759.82	226.63
760.15	226.59
760.47	226.54
760.80	226.47
761.13	226.43
761.45	226.39
761.78	226.35
762.11	226.30
762.43	226.21
762.76	226.16
763.08	226.13
763.41	226.10
763.74	226.06
764.06	226.02
764.39	225.98
764.71	225.94
765.04	225.89
765.37	225.84
765.69	225.80
766.02	225.76
766.34	225.71
766.67	225.64
767.00	225.62
767.32	225.63
767.65	225.66
767.97	225.61
768.30	225.59
768.62	225.55
768.95	225.50
769.27	225.46
769.60	225.44
769.92	225.38
770.25	225.33
770.57	225.28
770.90	225.25
771.22	225.21
771.55	225.17
771.87	225.14
772.20	225.11
772.52	225.17
772.85	225.26
773.17	225.24
773.50	225.20
773.82	225.15
774.15	225.06
774.47	224.97
774.80	224.92
775.12	224.89
775.45	224.87
775.77	224.85
776.09	224.83
776.42	224.80
776.74	224.81
777.07	224.78
777.39	224.76
777.72	224.72
778.04	224.71
778.36	224.68
778.69	224.66
779.01	224.64
779.33	224.53
779.66	224.39
779.98	224.35
780.31	224.34
780.63	224.36
780.95	224.36
781.28	224.34
781.60	224.31
781.92	224.29
782.25	224.27
782.57	224.25
782.89	224.22
783.22	224.19
783.54	224.15
783.86	224.14
784.19	224.12
784.51	224.13
784.83	224.10
785.16	224.08
785.48	224.06
785.80	224.04
786.12	224.03
786.45	224.02
786.77	224.01
787.09	223.98
787.42	223.92
787.74	223.90
788.06	223.90
788.38	223.88
788.71	223.85
789.03	223.84
789.35	223.84
789.67	223.81
789.99	223.80
790.32	223.78
790.64	223.77
790.96	223.86
791.28	223.80
791.61	223.78
791.93	223.78
792.25	223.75
792.57	223.82
792.89	223.79
793.21	223.78
793.54	223.76
793.86	223.74
794.18	223.73
794.50	223.69
794.82	223.68
795.14	223.68
795.47	223.69
795.79	223.67
796.11	223.64
796.43	223.63
796.75	223.61
797.07	223.61
797.39	223.59
797.71	223.49
798.04	223.48
798.36	223.48
798.68	223.47
799.00	223.47
799.32	223.40
799.64	223.41
799.96	223.40
800.28	223.41
800.60	223.39
800.92	223.39
801.24	223.38
801.56	223.38
801.89	223.36
802.21	223.35
802.53	223.32
802.85	223.34
803.17	223.37
803.49	223.34
803.81	223.33
804.13	223.31
804.45	223.29
804.77	223.29
805.09	223.28
805.41	223.26
805.73	223.23
806.05	223.19
806.37	223.18
806.69	223.16
807.01	223.14
807.33	223.14
807.65	223.09
807.97	223.13
808.28	223.11
808.60	223.10
808.92	223.07
809.24	223.13
809.56	223.10
809.88	223.06
810.20	223.06
810.52	223.08
810.84	223.06
811.16	223.04
811.48	223.03
811.80	223.06
812.12	223.05
812.43	223.06
812.75	223.07
813.07	223.06
813.39	223.05
813.71	223.03
814.03	223.02
814.35	223.02
814.67	222.97
814.98	222.96
815.30	222.95
815.62	222.93
815.94	222.86
816.26	222.87
816.58	222.84
816.89	222.84
817.21	222.81
817.53	222.81
817.85	222.81
818.17	222.81
818.48	222.76
818.80	222.78
819.12	222.75
819.44	222.73
819.76	222.71
820.07	222.71
820.39	222.70
820.71	222.71
821.03	222.70
821.34	222.69
821.66	222.70
821.98	222.70
822.30	222.70
822.61	222.75
822.93	222.74
823.25	222.73
823.57	222.71
823.88	222.73
824.20	222.72
824.52	222.74
824.83	222.73
825.15	222.71
825.47	222.70
825.79	222.70
826.10	222.70
826.42	222.70
826.74	222.70
827.05	222.70
827.37	222.69
827.69	222.68
828.00	222.69
828.32	222.69
828.64	222.67
828.95	222.72
829.27	222.68
829.58	222.68
829.90	222.69
830.22	222.70
830.53	222.67
830.85	222.65
831.17	222.62
831.48	222.62
831.80	222.63
832.11	222.61
832.43	222.60
832.75	222.60
833.06	222.66
833.38	222.63
833.69	222.62
834.01	222.62
834.32	222.61
834.64	222.60
834.96	222.60
835.27	222.59
835.59	222.55
835.90	222.54
836.22	222.53
836.53	222.51
836.85	222.49
837.16	222.60
837.48	222.60
837.79	222.64
838.11	222.64
838.42	222.63
838.74	222.64
839.05	222.63
839.37	222.62
839.68	222.55
840.00	222.55
840.31	222.56
840.63	222.55
840.94	222.54
841.26	222.53
841.57	222.52
841.88	222.52
842.20	222.51
842.51	222.49
842.83	222.49
843.14	222.58
843.46	222.58
843.77	222.51
844.08	222.51
844.40	222.47
844.71	222.46
845.03	222.45
845.34	222.43
845.65	222.43
845.97	222.44
846.28	222.44
846.60	222.45
846.91	222.43
847.22	222.43
847.54	222.45
847.85	222.45
848.16	222.44
848.48	222.42
848.79	222.47
849.10	222.48
849.42	222.49
849.73	222.39
850.04	222.39
850.36	222.35
850.67	222.37
850.98	222.37
851.30	222.38
851.61	222.38
851.92	222.37
852.23	222.41
852.55	222.40
852.86	222.40
853.17	222.41
853.49	222.43
853.80	222.45
854.11	222.45
854.42	222.46
854.74	222.45
855.05	222.45
855.36	222.39
855.67	222.39
855.99	222.38
856.30	222.50
856.61	222.50
856.92	222.50
857.23	222.50
857.55	222.49
857.86	222.48
858.17	222.50
858.48	222.49
858.79	222.46
859.11	222.47
859.42	222.47
859.73	222.45
860.04	222.44
860.35	222.42
860.66	222.38
860.98	222.38
861.29	222.39
861.60	222.39
861.91	222.41
862.22	222.40
862.53	222.39
862.84	222.26
863.16	222.28
863.47	222.26
863.78	222.25
864.09	222.26
864.40	222.26
864.71	222.26
865.02	222.27
865.33	222.26
865.64	222.24
865.95	222.24
866.27	222.30
866.58	222.29
866.89	222.30
867.20	222.30
867.51	222.29
867.82	222.28
868.13	222.31
868.44	222.29
868.75	222.31
869.06	222.31
869.37	222.33
869.68	222.30
869.99	222.32
870.30	222.32
870.61	222.34
870.92	222.32
871.23	222.31
871.54	222.33
871.85	222.35
872.16	222.37
872.47	222.36
872.78	222.30
873.09	222.31
873.40	222.30
873.71	222.31
874.02	222.32
874.33	222.31
874.64	222.28
874.95	222.30
875.26	222.28
875.56	222.28
875.87	222.27
876.18	222.26
876.49	222.37
876.80	222.36
877.11	222.33
877.42	222.34
877.73	222.34
878.04	222.32
878.35	222.32
878.66	222.32
878.96	222.32
879.27	222.31
879.58	222.31
879.89	222.31
880.20	222.33
880.51	222.33
880.82	222.33
881.12	222.33
881.43	222.30
881.74	222.30
882.05	222.29
882.36	222.29
882.67	222.31
882.97	222.19
883.28	222.18
883.59	222.18
883.90	222.19
884.21	222.20
884.51	222.19
884.82	222.18
885.13	222.18
885.44	222.18
885.74	222.18
886.05	222.17
886.36	222.17
886.67	222.13
886.98	222.19
887.28	222.19
887.59	222.19
887.90	222.20
888.20	222.19
888.51	222.21
888.82	222.19
889.13	222.20
889.43	222.28
889.74	222.28
890.05	222.27
890.35	222.26
890.66	222.24
890.97	222.23
891.28	222.22
891.58	222.22
891.89	222.22
892.20	222.20
892.50	222.19
892.81	222.18
893.12	222.18
893.42	222.12
893.73	222.12
894.04	222.12
894.34	222.12
894.65	222.12
894.95	222.10
895.26	222.11
895.57	222.15
895.87	222.05
896.18	222.07
896.48	222.07
896.79	222.07
897.10	222.09
897.40	222.09
897.71	222.10
898.01	222.09
898.32	222.10
898.63	222.10
898.93	222.11
899.24	222.12
899.54	222.12
899.85	222.11
900.15	222.11
900.46	222.11
900.76	222.11
901.07	222.11
901.38	222.11
901.68	222.12
901.99	222.06
902.29	222.07
902.60	222.06
902.90	222.05
903.21	222.05
903.51	222.04
903.82	222.06
904.12	222.06
904.43	222.07
904.73	222.06
905.03	222.06
905.34	222.16
905.64	222.15
905.95	222.15
906.25	222.15
906.56	222.14
906.86	222.14
907.17	222.14
907.47	222.14
907.77	222.13
908.08	222.11
908.38	222.12
908.69	222.13
908.99	222.15
909.30	222.15
909.60	222.15
909.90	222.16
910.21	222.13
910.51	222.11
910.81	222.11
911.12	222.11
911.42	222.11
911.73	222.00
912.03	222.01
912.33	222.03
912.64	222.02
912.94	222.01
913.24	222.00
913.55	221.99
913.85	221.98
914.15	222.01
914.46	222.02
914.76	222.01
915.06	222.00
915.37	221.98
915.67	221.97
915.97	221.97
916.27	221.95
916.58	221.96
916.88	221.95
917.18	221.94
917.49	222.01
917.79	222.01
918.09	222.03
918.39	222.05
918.70	222.04
919.00	222.05
919.30	222.10
919.60	222.09
919.91	222.08
920.21	222.09
920.51	222.07
920.81	222.06
921.12	222.08
921.42	222.07
921.72	222.08
922.02	222.09
922.32	222.10
922.63	222.10
922.93	222.16
923.23	222.17
923.53	222.16
923.83	222.09
924.13	222.10
924.44	222.10
924.74	222.11
925.04	222.13
925.34	222.13
925.64	222.09
925.94	222.09
926.24	222.15
926.55	222.14
926.85	222.14
927.15	222.14
927.45	222.14
927.75	222.14
928.05	222.14
928.35	222.12
928.65	222.13
928.95	222.14
929.26	222.09
929.56	222.11
929.86	222.12
930.16	222.12
930.46	222.11
930.76	222.11
931.06	222.06
931.36	222.03
931.66	222.05
931.96	222.06
932.26	222.07
932.56	222.02
932.86	222.03
933.16	222.03
933.46	222.02
933.76	222.01
934.06	222.03
934.36	222.06
934.66	222.06
934.96	222.05
935.26	222.05
935.56	222.06
935.86	222.04
936.16	222.02
936.46	222.01
936.76	222.00
937.06	221.99
937.36	221.99
937.66	222.00
937.96	221.99
938.26	221.97
938.56	221.96
938.86	221.96
939.16	221.99
939.46	221.99
939.76	222.00
940.06	222.00
940.35	221.98
940.65	221.93
940.95	221.94
941.25	221.91
941.55	221.90
941.85	221.89
942.15	221.91
942.45	221.94
942.75	221.94
943.04	221.95
943.34	221.96
943.64	221.95
943.94	221.94
944.24	221.94
944.54	221.95
944.84	221.95
945.13	221.94
945.43	221.92
945.73	221.91
946.03	221.90
946.33	221.89
946.62	221.88
946.92	221.88
947.22	221.88
947.52	221.89
947.82	221.90
948.11	221.89
948.41	221.86
948.71	221.84
949.01	221.84
949.31	221.84
949.60	221.82
949.90	221.84
950.20	221.84
950.50	221.83
950.79	221.82
951.09	221.84
951.39	221.83
951.69	221.82
951.98	221.84
952.28	221.84
952.58	221.84
952.87	221.85
953.17	221.86
953.47	221.85
953.76	221.85
954.06	221.83
954.36	221.82
954.66	221.82
954.95	221.84
955.25	221.85
955.55	221.86
955.84	221.84
956.14	221.85
956.44	221.86
956.73	221.84
957.03	221.85
957.32	221.84
957.62	221.84
957.92	221.86
958.21	221.84
958.51	221.97
958.81	221.98
959.10	221.99
959.40	222.00
959.69	222.01
959.99	222.02
960.29	222.02
960.58	222.02
960.88	222.06
961.17	222.05
961.47	222.05
961.76	222.04
962.06	222.07
962.36	222.05
962.65	222.06
962.95	222.07
963.24	222.05
963.54	222.06
963.83	222.07
964.13	222.06
964.42	222.05
964.72	221.96
965.01	221.96
965.31	221.96
965.60	221.93
965.90	222.00
966.19	221.98
966.49	221.98
966.78	221.98
967.08	221.97
967.37	221.97
967.67	221.95
967.96	221.97
968.26	221.96
968.55	221.97
968.85	221.97
969.14	221.96
969.43	221.97
969.73	221.96
970.02	221.95
970.32	221.95
970.61	221.93
970.91	221.90
971.20	221.89
971.49	221.88
971.79	221.89
972.08	221.82
972.38	221.83
972.67	221.82
972.96	221.84
973.26	221.82
973.55	221.85
973.85	221.84
974.14	221.84
974.43	221.84
974.73	221.82
975.02	221.81
975.31	221.82
975.61	221.82
975.90	221.81
976.19	221.80
976.49	221.81
976.78	221.82
977.07	221.82
977.37	221.83
977.66	221.84
977.95	221.82
978.24	221.83
978.54	221.86
978.83	221.85
979.12	221.84
979.42	221.85
979.71	221.83
980.00	221.83
980.29	221.83
980.59	221.82
980.88	221.85
981.17	221.85
981.46	221.85
981.76	221.85
982.05	221.88
982.34	221.89
982.63	221.88
982.93	221.88
983.22	221.91
983.51	221.91
983.80	221.92
984.09	221.94
984.39	221.93
984.68	221.91
984.97	221.92
985.26	221.91
985.55	221.92
985.85	221.90
986.14	221.91
986.43	221.92
986.72	221.92
987.01	221.88
987.30	221.88
987.59	221.87
987.89	221.87
988.18	221.84
988.47	221.83
988.76	221.83
989.05	221.82
989.34	221.80
989.63	221.83
989.92	221.81
990.22	221.79
990.51	221.79
990.80	221.78
991.09	221.78
991.38	221.80
991.67	221.78
991.96	221.78
992.25	221.78
992.54	221.76
992.83	221.76
993.12	221.76
993.41	221.77
993.70	221.81
993.99	221.83
994.28	221.84
994.58	221.86
994.87	221.85
995.16	221.85
995.45	221.84
995.74	221.80
996.03	221.82
996.32	221.84
996.61	221.86
996.90	221.86
997.19	221.85
997.48	221.84
997.77	221.84
998.06	221.84
998.34	221.83
998.63	221.84
998.92	221.84
999.21	221.86
999.50	221.85
999.79	221.81
1000.08	221.81
1000.37	221.81
1000.66	221.80
1000.95	221.82
1001.24	221.83
1001.53	221.84
1001.82	221.84
1002.11	221.82
1002.40	221.82
1002.68	221.84
1002.97	221.91
1003.26	221.90
1003.55	221.89
1003.84	221.90
1004.13	221.93
1004.42	221.93
1004.71	221.92
1004.99	221.92
1005.28	221.94
1005.57	221.93
1005.86	221.92
1006.15	221.91
1006.44	221.89
1006.72	221.91
1007.01	221.88
1007.30	221.88
1007.59	221.87
1007.88	221.87
1008.17	221.87
1008.45	221.85
1008.74	221.81
1009.03	221.76
1009.32	221.76
1009.60	221.76
1009.89	221.76
1010.18	221.72
1010.47	221.71
1010.76	221.71
1011.04	221.71
1011.33	221.71
1011.62	221.72
1011.91	221.73
1012.19	221.73
1012.48	221.74
1012.77	221.73
1013.05	221.77
1013.34	221.77
1013.63	221.76
1013.92	221.77
1014.20	221.76
1014.49	221.77
1014.78	221.78
1015.06	221.75
1015.35	221.75
1015.64	221.76
1015.92	221.77
1016.21	221.78
1016.50	221.79
1016.78	221.79
1017.07	221.80
1017.36	221.79
1017.64	221.77
1017.93	221.77
1018.22	221.77
1018.50	221.76
1018.79	221.76
1019.08	221.72
1019.36	221.73
1019.65	221.73
1019.93	221.76
1020.22	221.78
1020.51	221.83
1020.79	221.82
1021.08	221.64
1021.36	221.59
1021.65	221.78
1021.94	221.73
1022.22	221.86
1022.51	221.61
1022.79	222.31
1023.08	221.88
1023.36	223.00
1023.65	221.55
>>>>>End Processed Spectral Data<<<<<
