SpectraSuite Data File
++++++++++++++++++++++++++++++++++++
Date: Wed Sep 30 21:05:47 EDT 2015
User: lab3
Dark Spectrum Present: No
Reference Spectrum Present: No
Number of Sampled Component Spectra: 1
Spectrometers: USB2E7196
Integration Time (usec): 36000 (USB2E7196)
Spectra Averaged: 10000 (USB2E7196)
Boxcar Smoothing: 10 (USB2E7196)
Correct for Electrical Dark: No (USB2E7196)
Strobe/Lamp Enabled: No (USB2E7196)
Correct for Detector Non-linearity: No (USB2E7196)
Correct for Stray Light: No (USB2E7196)
Number of Pixels in Processed Spectrum: 2048
>>>>>Begin Processed Spectral Data<<<<<
339.09	0.00
339.48	211.11
339.86	212.56
340.24	213.95
340.63	215.32
341.01	218.29
341.39	218.08
341.78	219.39
342.16	220.58
342.54	221.11
342.93	209.63
343.31	220.23
343.69	220.76
344.07	221.23
344.46	221.66
344.84	222.05
345.22	222.29
345.60	222.54
345.99	222.74
346.37	222.87
346.75	222.98
347.13	223.06
347.52	223.13
347.90	223.21
348.28	223.24
348.66	223.30
349.05	223.30
349.43	223.35
349.81	223.41
350.19	223.47
350.57	223.53
350.96	223.61
351.34	223.70
351.72	223.80
352.10	223.90
352.48	223.98
352.87	224.03
353.25	224.09
353.63	224.15
354.01	224.22
354.39	224.29
354.77	224.37
355.15	224.47
355.54	224.53
355.92	224.57
356.30	224.65
356.68	224.78
357.06	224.85
357.44	224.91
357.82	224.97
358.20	225.08
358.58	225.14
358.97	225.20
359.35	225.28
359.73	225.36
360.11	225.41
360.49	225.47
360.87	225.52
361.25	225.58
361.63	225.66
362.01	225.71
362.39	225.74
362.77	225.79
363.15	225.82
363.53	225.85
363.91	225.88
364.29	225.90
364.67	225.82
365.05	225.85
365.43	225.88
365.81	225.91
366.19	225.92
366.57	225.97
366.95	225.97
367.33	225.95
367.71	225.94
368.09	225.96
368.47	225.95
368.85	225.94
369.23	225.95
369.61	225.90
369.99	225.91
370.37	225.91
370.75	225.96
371.13	225.93
371.51	225.89
371.89	225.88
372.27	225.85
372.65	225.83
373.03	225.79
373.41	225.74
373.78	225.69
374.16	225.60
374.54	225.52
374.92	225.47
375.30	225.43
375.68	225.36
376.06	225.31
376.44	225.26
376.82	225.21
377.19	225.16
377.57	225.11
377.95	225.02
378.33	224.96
378.71	224.82
379.09	224.77
379.47	224.73
379.84	224.66
380.22	224.60
380.60	224.53
380.98	224.47
381.36	224.42
381.73	224.36
382.11	224.33
382.49	224.29
382.87	224.23
383.25	224.18
383.62	224.26
384.00	224.19
384.38	224.15
384.76	224.13
385.13	224.11
385.51	224.07
385.89	224.02
386.27	223.98
386.64	223.96
387.02	223.91
387.40	223.86
387.78	223.84
388.15	223.81
388.53	223.78
388.91	223.75
389.29	223.72
389.66	223.71
390.04	223.67
390.42	223.66
390.79	223.65
391.17	223.63
391.55	223.50
391.92	223.48
392.30	223.48
392.68	223.45
393.05	223.43
393.43	223.42
393.81	223.43
394.18	223.41
394.56	223.41
394.94	223.44
395.31	223.44
395.69	223.48
396.06	223.50
396.44	223.52
396.82	223.53
397.19	223.60
397.57	223.61
397.95	223.65
398.32	223.65
398.70	223.69
399.07	223.75
399.45	223.79
399.82	223.83
400.20	223.87
400.58	223.92
400.95	223.94
401.33	224.01
401.70	224.14
402.08	224.23
402.45	224.31
402.83	224.41
403.20	224.51
403.58	224.59
403.95	224.71
404.33	224.85
404.71	224.97
405.08	225.15
405.46	225.29
405.83	225.45
406.21	225.61
406.58	225.80
406.96	225.98
407.33	226.19
407.70	226.43
408.08	226.75
408.45	227.03
408.83	227.33
409.20	227.61
409.58	227.86
409.95	228.20
410.33	228.57
410.70	228.91
411.08	229.32
411.45	229.75
411.82	230.19
412.20	230.69
412.57	231.29
412.95	231.75
413.32	232.37
413.69	232.99
414.07	233.65
414.44	234.38
414.82	235.11
415.19	235.98
415.56	236.85
415.94	237.76
416.31	238.78
416.68	239.80
417.06	240.99
417.43	242.10
417.81	243.39
418.18	244.70
418.55	246.13
418.93	247.62
419.30	249.17
419.67	250.82
420.04	252.52
420.42	254.28
420.79	256.33
421.16	258.40
421.54	260.51
421.91	262.71
422.28	265.00
422.66	267.46
423.03	269.81
423.40	272.29
423.77	274.93
424.15	277.65
424.52	280.47
424.89	283.52
425.26	286.55
425.64	289.37
426.01	292.54
426.38	295.78
426.75	299.12
427.13	302.55
427.50	306.13
427.87	309.85
428.24	313.61
428.61	317.21
428.99	321.09
429.36	325.34
429.73	329.41
430.10	333.47
430.47	337.61
430.85	341.86
431.22	346.40
431.59	351.07
431.96	355.61
432.33	360.63
432.70	365.40
433.08	371.04
433.45	376.37
433.82	381.60
434.19	387.44
434.56	393.18
434.93	398.71
435.30	404.18
435.68	410.34
436.05	416.37
436.42	422.40
436.79	427.88
437.16	433.80
437.53	440.15
437.90	446.48
438.27	452.66
438.64	459.37
439.01	465.43
439.38	470.97
439.75	476.31
440.13	482.42
440.50	488.23
440.87	492.80
441.24	497.83
441.61	503.38
441.98	507.44
442.35	512.28
442.72	517.24
443.09	521.99
443.46	525.04
443.83	527.30
444.20	529.21
444.57	532.02
444.94	533.69
445.31	535.41
445.68	536.95
446.05	538.10
446.42	537.95
446.79	537.71
447.16	537.51
447.53	537.35
447.90	535.55
448.27	533.87
448.64	531.21
449.01	529.45
449.37	525.63
449.74	522.16
450.11	517.68
450.48	512.76
450.85	507.80
451.22	503.59
451.59	499.47
451.96	495.72
452.33	490.22
452.70	485.34
453.07	479.37
453.43	473.39
453.80	467.62
454.17	462.07
454.54	456.92
454.91	451.10
455.28	445.62
455.65	440.45
456.02	434.96
456.38	430.53
456.75	424.81
457.12	420.19
457.49	415.54
457.86	411.09
458.23	407.20
458.59	402.90
458.96	398.48
459.33	394.59
459.70	390.62
460.07	387.60
460.43	384.03
460.80	380.68
461.17	377.73
461.54	374.55
461.91	371.59
462.27	368.57
462.64	366.09
463.01	363.26
463.38	360.41
463.74	357.83
464.11	355.53
464.48	353.44
464.85	351.21
465.21	349.50
465.58	347.62
465.95	345.44
466.32	343.69
466.68	341.99
467.05	340.27
467.42	338.61
467.78	336.83
468.15	335.18
468.52	333.95
468.88	332.35
469.25	330.88
469.62	329.71
469.98	328.44
470.35	327.31
470.72	326.29
471.08	325.26
471.45	324.40
471.82	323.46
472.18	322.48
472.55	321.84
472.92	321.06
473.28	320.44
473.65	319.81
474.02	319.20
474.38	318.72
474.75	318.44
475.11	318.03
475.48	317.88
475.85	317.72
476.21	317.67
476.58	317.67
476.94	317.86
477.31	317.98
477.67	318.13
478.04	318.39
478.41	318.72
478.77	319.16
479.14	319.49
479.50	320.04
479.87	320.72
480.23	321.41
480.60	322.07
480.96	322.75
481.33	323.69
481.69	324.64
482.06	325.58
482.42	326.46
482.79	327.53
483.15	328.75
483.52	330.12
483.88	331.44
484.25	332.84
484.61	334.31
484.98	335.88
485.34	337.65
485.71	339.48
486.07	341.43
486.44	343.37
486.80	345.53
487.17	347.74
487.53	350.17
487.90	352.69
488.26	355.43
488.62	358.32
488.99	361.21
489.35	364.23
489.72	367.50
490.08	370.93
490.44	374.46
490.81	378.16
491.17	381.94
491.54	385.98
491.90	390.12
492.26	394.58
492.63	399.27
492.99	404.15
493.36	409.16
493.72	414.43
494.08	419.85
494.45	425.57
494.81	431.48
495.17	437.52
495.54	443.90
495.90	450.59
496.26	457.41
496.63	464.48
496.99	471.84
497.35	479.55
497.72	487.55
498.08	495.71
498.44	504.12
498.80	513.09
499.17	522.28
499.53	531.80
499.89	541.56
500.26	551.49
500.62	561.70
500.98	572.56
501.34	583.58
501.71	595.13
502.07	606.90
502.43	619.07
502.79	631.56
503.16	644.47
503.52	657.56
503.88	671.01
504.24	684.90
504.60	699.07
504.97	713.61
505.33	728.55
505.69	744.38
506.05	760.40
506.41	776.41
506.78	792.74
507.14	809.55
507.50	826.94
507.86	844.75
508.22	862.80
508.59	880.89
508.95	899.68
509.31	918.92
509.67	938.85
510.03	958.99
510.39	979.37
510.75	999.97
511.12	1020.87
511.48	1042.06
511.84	1063.41
512.20	1085.08
512.56	1107.81
512.92	1130.72
513.28	1153.35
513.64	1176.35
514.00	1199.76
514.37	1223.49
514.73	1247.29
515.09	1270.88
515.45	1294.88
515.81	1319.49
516.17	1344.10
516.53	1368.43
516.89	1392.84
517.25	1417.45
517.61	1442.24
517.97	1467.23
518.33	1492.01
518.69	1516.88
519.05	1542.06
519.41	1567.34
519.77	1592.88
520.13	1617.72
520.49	1642.71
520.85	1667.97
521.21	1693.11
521.57	1718.86
521.93	1743.93
522.29	1769.79
522.65	1795.44
523.01	1820.90
523.37	1845.59
523.73	1871.01
524.09	1896.61
524.45	1922.04
524.81	1946.95
525.17	1971.81
525.53	1996.26
525.89	2020.79
526.25	2045.54
526.61	2069.76
526.97	2094.24
527.33	2118.67
527.68	2142.80
528.04	2166.24
528.40	2189.50
528.76	2212.94
529.12	2235.35
529.48	2258.16
529.84	2279.18
530.20	2300.70
530.56	2321.84
530.91	2343.11
531.27	2363.84
531.63	2383.90
531.99	2403.54
532.35	2422.89
532.71	2442.36
533.07	2462.36
533.42	2480.88
533.78	2499.69
534.14	2518.50
534.50	2536.47
534.86	2555.12
535.21	2572.01
535.57	2588.69
535.93	2604.76
536.29	2619.58
536.65	2635.28
537.00	2649.75
537.36	2664.76
537.72	2678.79
538.08	2692.48
538.44	2704.99
538.79	2717.75
539.15	2728.84
539.51	2739.84
539.87	2750.46
540.22	2758.81
540.58	2767.44
540.94	2776.50
541.29	2784.23
541.65	2790.92
542.01	2797.09
542.37	2801.40
542.72	2807.74
543.08	2813.42
543.44	2818.88
543.79	2823.61
544.15	2827.32
544.51	2831.16
544.87	2834.03
545.22	2836.54
545.58	2838.04
545.94	2840.04
546.29	2840.56
546.65	2841.06
547.01	2841.78
547.36	2842.50
547.72	2843.50
548.07	2842.97
548.43	2841.86
548.79	2840.07
549.14	2838.22
549.50	2837.11
549.86	2834.88
550.21	2830.28
550.57	2826.18
550.92	2820.77
551.28	2815.93
551.64	2811.09
551.99	2806.51
552.35	2801.54
552.70	2796.12
553.06	2791.49
553.41	2786.37
553.77	2780.48
554.13	2775.55
554.48	2769.48
554.84	2761.96
555.19	2754.60
555.55	2746.64
555.90	2739.27
556.26	2732.86
556.61	2725.82
556.97	2716.55
557.32	2708.29
557.68	2700.28
558.03	2691.67
558.39	2683.68
558.74	2675.86
559.10	2666.88
559.45	2657.47
559.81	2648.44
560.16	2638.68
560.52	2628.60
560.87	2619.56
561.23	2610.12
561.58	2600.13
561.94	2589.89
562.29	2579.17
562.64	2569.00
563.00	2559.10
563.35	2548.97
563.71	2537.89
564.06	2526.49
564.42	2516.02
564.77	2505.23
565.12	2494.57
565.48	2483.74
565.83	2473.58
566.19	2463.41
566.54	2452.72
566.89	2441.22
567.25	2429.59
567.60	2418.80
567.96	2407.49
568.31	2394.76
568.66	2382.15
569.02	2370.55
569.37	2358.73
569.72	2347.40
570.08	2335.34
570.43	2322.80
570.78	2309.90
571.14	2296.87
571.49	2284.49
571.84	2272.50
572.20	2259.25
572.55	2246.33
572.90	2233.20
573.26	2219.05
573.61	2204.35
573.96	2190.04
574.31	2176.06
574.67	2162.39
575.02	2148.33
575.37	2133.78
575.72	2119.45
576.08	2105.70
576.43	2090.83
576.78	2076.11
577.13	2062.13
577.49	2048.19
577.84	2034.62
578.19	2020.22
578.54	2005.48
578.90	1990.27
579.25	1974.70
579.60	1960.61
579.95	1946.14
580.30	1931.72
580.66	1917.64
581.01	1903.20
581.36	1889.08
581.71	1875.58
582.06	1861.46
582.42	1847.48
582.77	1834.16
583.12	1820.49
583.47	1806.92
583.82	1793.53
584.17	1779.99
584.53	1766.29
584.88	1752.62
585.23	1738.54
585.58	1725.03
585.93	1711.90
586.28	1699.60
586.63	1687.06
586.98	1673.79
587.34	1660.75
587.69	1647.23
588.04	1634.06
588.39	1621.49
588.74	1608.35
589.09	1595.01
589.44	1581.65
589.79	1568.76
590.14	1555.87
590.49	1543.13
590.84	1530.26
591.19	1517.99
591.54	1505.22
591.89	1492.30
592.25	1479.68
592.60	1466.75
592.95	1454.36
593.30	1442.32
593.65	1430.01
594.00	1417.99
594.35	1406.62
594.70	1394.54
595.05	1383.50
595.40	1372.18
595.75	1360.30
596.10	1349.28
596.45	1338.45
596.80	1328.10
597.15	1317.55
597.50	1306.96
597.85	1296.61
598.19	1286.42
598.54	1275.61
598.89	1265.56
599.24	1255.78
599.59	1245.83
599.94	1236.88
600.29	1227.81
600.64	1218.48
600.99	1208.54
601.34	1199.11
601.69	1189.13
602.04	1180.18
602.39	1171.10
602.74	1162.27
603.08	1153.67
603.43	1144.59
603.78	1135.40
604.13	1126.34
604.48	1117.20
604.83	1108.34
605.18	1099.40
605.53	1090.37
605.87	1081.49
606.22	1072.86
606.57	1064.01
606.92	1055.23
607.27	1046.24
607.62	1037.36
607.96	1028.69
608.31	1021.06
608.66	1012.98
609.01	1005.33
609.36	997.63
609.70	989.67
610.05	981.57
610.40	973.81
610.75	966.12
611.10	958.73
611.44	950.97
611.79	943.50
612.14	935.63
612.49	927.96
612.83	920.78
613.18	913.63
613.53	906.28
613.88	899.04
614.22	892.40
614.57	885.60
614.92	878.79
615.27	871.97
615.61	865.01
615.96	858.24
616.31	851.40
616.65	844.46
617.00	837.78
617.35	831.27
617.70	824.78
618.04	818.36
618.39	811.94
618.74	805.86
619.08	799.60
619.43	793.60
619.78	787.57
620.12	781.39
620.47	775.39
620.82	769.52
621.16	763.93
621.51	757.96
621.85	752.00
622.20	746.10
622.55	740.41
622.89	734.65
623.24	728.96
623.59	723.33
623.93	717.75
624.28	712.30
624.62	706.83
624.97	701.34
625.32	695.97
625.66	690.43
626.01	684.90
626.35	679.52
626.70	674.19
627.04	669.07
627.39	663.97
627.73	659.00
628.08	654.24
628.43	649.35
628.77	644.54
629.12	639.87
629.46	635.37
629.81	630.66
630.15	625.85
630.50	621.20
630.84	616.77
631.19	612.51
631.53	608.27
631.88	603.94
632.22	599.71
632.57	595.73
632.91	591.70
633.26	587.75
633.60	583.89
633.95	580.14
634.29	576.23
634.64	572.29
634.98	568.24
635.32	564.34
635.67	560.56
636.01	556.76
636.36	552.98
636.70	549.35
637.05	545.73
637.39	542.31
637.73	538.73
638.08	535.22
638.42	531.68
638.77	528.03
639.11	524.34
639.45	520.72
639.80	517.09
640.14	513.66
640.49	510.17
640.83	506.54
641.17	503.00
641.52	499.60
641.86	496.19
642.20	492.97
642.55	489.59
642.89	486.32
643.23	483.22
643.58	480.39
643.92	477.41
644.26	474.46
644.61	471.49
644.95	468.53
645.29	465.52
645.64	462.49
645.98	459.59
646.32	456.89
646.66	454.18
647.01	451.44
647.35	448.74
647.69	445.94
648.04	443.32
648.38	440.69
648.72	438.02
649.06	435.45
649.41	432.89
649.75	430.34
650.09	427.81
650.43	425.28
650.78	422.72
651.12	420.14
651.46	417.69
651.80	415.34
652.14	413.06
652.49	410.80
652.83	408.59
653.17	406.36
653.51	404.20
653.85	402.10
654.20	399.94
654.54	397.70
654.88	395.67
655.22	393.67
655.56	391.63
655.90	389.70
656.25	387.77
656.59	385.85
656.93	384.03
657.27	382.24
657.61	380.36
657.95	378.54
658.29	376.74
658.64	374.95
658.98	373.14
659.32	371.36
659.66	369.69
660.00	368.03
660.34	366.40
660.68	364.73
661.02	362.99
661.36	361.37
661.70	359.81
662.05	358.22
662.39	356.63
662.73	355.13
663.07	353.66
663.41	352.20
663.75	350.77
664.09	349.34
664.43	347.82
664.77	346.42
665.11	344.95
665.45	343.58
665.79	342.19
666.13	340.79
666.47	339.39
666.81	337.96
667.15	336.50
667.49	335.13
667.83	333.81
668.17	332.54
668.51	331.27
668.85	330.04
669.19	328.89
669.53	327.65
669.87	326.39
670.21	325.17
670.55	323.96
670.89	322.83
671.23	321.67
671.57	320.53
671.91	319.43
672.25	318.40
672.58	317.34
672.92	316.27
673.26	315.26
673.60	314.25
673.94	313.23
674.28	312.28
674.62	311.31
674.96	310.31
675.30	309.38
675.64	308.42
675.97	307.48
676.31	306.49
676.65	305.54
676.99	304.65
677.33	303.71
677.67	302.81
678.01	301.83
678.34	300.93
678.68	300.09
679.02	299.21
679.36	298.33
679.70	297.47
680.04	296.64
680.37	295.79
680.71	294.98
681.05	294.22
681.39	293.42
681.73	292.59
682.06	291.79
682.40	291.00
682.74	290.23
683.08	289.49
683.42	288.74
683.75	288.07
684.09	287.31
684.43	286.59
684.77	285.86
685.10	285.18
685.44	284.47
685.78	283.77
686.12	283.10
686.45	282.42
686.79	281.74
687.13	281.08
687.46	280.39
687.80	279.74
688.14	279.03
688.48	278.39
688.81	277.75
689.15	277.16
689.49	276.53
689.82	275.91
690.16	275.23
690.50	274.62
690.83	274.00
691.17	273.40
691.51	272.82
691.84	272.25
692.18	271.65
692.52	271.05
692.85	270.47
693.19	269.92
693.52	269.37
693.86	268.82
694.20	268.27
694.53	267.76
694.87	267.22
695.21	266.71
695.54	266.20
695.88	265.67
696.21	265.11
696.55	264.61
696.88	264.10
697.22	263.62
697.56	263.12
697.89	262.58
698.23	262.08
698.56	261.56
698.90	261.08
699.23	260.59
699.57	260.15
699.90	259.69
700.24	259.20
700.58	258.75
700.91	258.32
701.25	257.98
701.58	257.59
701.92	257.20
702.25	256.78
702.59	256.36
702.92	255.95
703.26	255.56
703.59	255.16
703.93	254.84
704.26	254.47
704.60	254.09
704.93	253.73
705.26	253.37
705.60	253.04
705.93	252.66
706.27	252.34
706.60	252.01
706.94	251.70
707.27	251.32
707.61	250.97
707.94	250.60
708.27	250.17
708.61	249.78
708.94	249.42
709.28	249.08
709.61	248.75
709.94	248.45
710.28	248.15
710.61	247.86
710.95	247.48
711.28	247.26
711.61	246.97
711.95	246.71
712.28	246.42
712.61	246.12
712.95	245.90
713.28	245.68
713.61	245.39
713.95	245.10
714.28	244.87
714.61	244.60
714.95	244.35
715.28	244.09
715.61	243.85
715.95	243.62
716.28	243.38
716.61	243.16
716.95	242.91
717.28	242.68
717.61	242.44
717.94	242.21
718.28	241.92
718.61	241.69
718.94	241.45
719.27	241.24
719.61	241.04
719.94	240.80
720.27	240.53
720.60	240.32
720.94	240.13
721.27	239.93
721.60	239.77
721.93	239.57
722.27	239.42
722.60	239.25
722.93	239.05
723.26	238.87
723.59	238.67
723.93	238.50
724.26	238.33
724.59	238.16
724.92	238.00
725.25	237.86
725.59	237.70
725.92	237.56
726.25	237.40
726.58	237.24
726.91	237.07
727.24	236.94
727.57	236.79
727.91	236.62
728.24	236.48
728.57	236.32
728.90	236.19
729.23	236.00
729.56	235.90
729.89	235.76
730.22	235.62
730.55	235.48
730.89	235.33
731.22	235.19
731.55	235.05
731.88	234.92
732.21	234.77
732.54	234.64
732.87	234.51
733.20	234.39
733.53	234.28
733.86	234.17
734.19	234.04
734.52	233.94
734.85	233.90
735.18	233.76
735.51	233.68
735.84	233.56
736.17	233.49
736.50	233.32
736.83	233.33
737.16	233.23
737.49	233.14
737.82	233.04
738.15	232.95
738.48	232.85
738.81	232.75
739.14	232.64
739.47	232.53
739.80	232.42
740.13	232.33
740.46	232.22
740.79	232.11
741.12	232.01
741.45	231.89
741.78	231.74
742.11	231.67
742.44	231.56
742.77	231.48
743.10	231.37
743.43	231.28
743.75	231.09
744.08	231.16
744.41	231.06
744.74	230.96
745.07	230.86
745.40	230.79
745.73	230.76
746.06	230.68
746.39	230.62
746.71	230.53
747.04	230.44
747.37	230.37
747.70	230.31
748.03	230.24
748.36	230.19
748.68	230.12
749.01	230.01
749.34	229.94
749.67	229.87
750.00	229.81
750.33	229.82
750.65	229.76
750.98	229.54
751.31	229.48
751.64	229.43
751.97	229.42
752.29	229.34
752.62	229.23
752.95	229.15
753.28	229.07
753.60	229.00
753.93	228.96
754.26	228.90
754.59	228.80
754.91	228.72
755.24	228.65
755.57	228.63
755.90	228.57
756.22	228.50
756.55	228.42
756.88	228.34
757.20	228.21
757.53	228.12
757.86	228.06
758.19	228.01
758.51	227.95
758.84	227.84
759.17	227.78
759.49	227.74
759.82	227.74
760.15	227.70
760.47	227.65
760.80	227.57
761.13	227.54
761.45	227.50
761.78	227.46
762.11	227.41
762.43	227.31
762.76	227.26
763.08	227.23
763.41	227.19
763.74	227.16
764.06	227.12
764.39	227.08
764.71	227.03
765.04	226.98
765.37	226.93
765.69	226.89
766.02	226.85
766.34	226.79
766.67	226.71
767.00	226.69
767.32	226.71
767.65	226.73
767.97	226.68
768.30	226.64
768.62	226.61
768.95	226.55
769.27	226.51
769.60	226.49
769.92	226.43
770.25	226.38
770.57	226.33
770.90	226.29
771.22	226.25
771.55	226.22
771.87	226.19
772.20	226.16
772.52	226.21
772.85	226.31
773.17	226.28
773.50	226.24
773.82	226.19
774.15	226.11
774.47	226.01
774.80	225.97
775.12	225.94
775.45	225.91
775.77	225.89
776.09	225.87
776.42	225.84
776.74	225.85
777.07	225.82
777.39	225.80
777.72	225.77
778.04	225.75
778.36	225.72
778.69	225.69
779.01	225.68
779.33	225.56
779.66	225.42
779.98	225.39
780.31	225.38
780.63	225.40
780.95	225.39
781.28	225.37
781.60	225.34
781.92	225.32
782.25	225.30
782.57	225.29
782.89	225.26
783.22	225.23
783.54	225.18
783.86	225.17
784.19	225.15
784.51	225.16
784.83	225.12
785.16	225.11
785.48	225.09
785.80	225.07
786.12	225.06
786.45	225.04
786.77	225.03
787.09	225.01
787.42	224.96
787.74	224.95
788.06	224.93
788.38	224.92
788.71	224.89
789.03	224.88
789.35	224.87
789.67	224.85
789.99	224.84
790.32	224.82
790.64	224.82
790.96	224.90
791.28	224.85
791.61	224.83
791.93	224.82
792.25	224.80
792.57	224.86
792.89	224.83
793.21	224.82
793.54	224.79
793.86	224.77
794.18	224.76
794.50	224.72
794.82	224.71
795.14	224.71
795.47	224.72
795.79	224.70
796.11	224.67
796.43	224.66
796.75	224.64
797.07	224.63
797.39	224.62
797.71	224.52
798.04	224.51
798.36	224.51
798.68	224.49
799.00	224.49
799.32	224.43
799.64	224.44
799.96	224.42
800.28	224.43
800.60	224.41
800.92	224.41
801.24	224.39
801.56	224.39
801.89	224.37
802.21	224.36
802.53	224.33
802.85	224.34
803.17	224.38
803.49	224.35
803.81	224.33
804.13	224.31
804.45	224.29
804.77	224.29
805.09	224.28
805.41	224.26
805.73	224.23
806.05	224.19
806.37	224.17
806.69	224.15
807.01	224.14
807.33	224.14
807.65	224.09
807.97	224.13
808.28	224.10
808.60	224.09
808.92	224.07
809.24	224.12
809.56	224.09
809.88	224.05
810.20	224.05
810.52	224.06
810.84	224.05
811.16	224.03
811.48	224.01
811.80	224.04
812.12	224.03
812.43	224.04
812.75	224.04
813.07	224.03
813.39	224.03
813.71	224.01
814.03	224.00
814.35	224.00
814.67	223.95
814.98	223.94
815.30	223.93
815.62	223.91
815.94	223.84
816.26	223.84
816.58	223.82
816.89	223.82
817.21	223.78
817.53	223.79
817.85	223.79
818.17	223.78
818.48	223.73
818.80	223.75
819.12	223.72
819.44	223.70
819.76	223.68
820.07	223.67
820.39	223.66
820.71	223.66
821.03	223.66
821.34	223.65
821.66	223.66
821.98	223.66
822.30	223.66
822.61	223.72
822.93	223.70
823.25	223.70
823.57	223.68
823.88	223.69
824.20	223.69
824.52	223.70
824.83	223.69
825.15	223.67
825.47	223.66
825.79	223.66
826.10	223.66
826.42	223.65
826.74	223.66
827.05	223.66
827.37	223.65
827.69	223.64
828.00	223.64
828.32	223.64
828.64	223.62
828.95	223.67
829.27	223.64
829.58	223.64
829.90	223.64
830.22	223.65
830.53	223.63
830.85	223.62
831.17	223.59
831.48	223.59
831.80	223.59
832.11	223.58
832.43	223.56
832.75	223.56
833.06	223.62
833.38	223.59
833.69	223.59
834.01	223.58
834.32	223.58
834.64	223.57
834.96	223.56
835.27	223.56
835.59	223.53
835.90	223.51
836.22	223.50
836.53	223.48
836.85	223.47
837.16	223.57
837.48	223.57
837.79	223.60
838.11	223.60
838.42	223.60
838.74	223.61
839.05	223.60
839.37	223.60
839.68	223.53
840.00	223.53
840.31	223.54
840.63	223.53
840.94	223.52
841.26	223.51
841.57	223.50
841.88	223.50
842.20	223.49
842.51	223.47
842.83	223.47
843.14	223.56
843.46	223.55
843.77	223.49
844.08	223.49
844.40	223.45
844.71	223.44
845.03	223.43
845.34	223.41
845.65	223.41
845.97	223.41
846.28	223.41
846.60	223.41
846.91	223.40
847.22	223.39
847.54	223.41
847.85	223.42
848.16	223.40
848.48	223.38
848.79	223.42
849.10	223.43
849.42	223.43
849.73	223.33
850.04	223.34
850.36	223.30
850.67	223.31
850.98	223.31
851.30	223.32
851.61	223.32
851.92	223.31
852.23	223.35
852.55	223.35
852.86	223.35
853.17	223.35
853.49	223.38
853.80	223.39
854.11	223.39
854.42	223.41
854.74	223.40
855.05	223.40
855.36	223.35
855.67	223.35
855.99	223.34
856.30	223.47
856.61	223.46
856.92	223.46
857.23	223.46
857.55	223.45
857.86	223.44
858.17	223.46
858.48	223.45
858.79	223.42
859.11	223.42
859.42	223.42
859.73	223.40
860.04	223.39
860.35	223.36
860.66	223.33
860.98	223.33
861.29	223.34
861.60	223.33
861.91	223.35
862.22	223.33
862.53	223.32
862.84	223.19
863.16	223.21
863.47	223.19
863.78	223.18
864.09	223.19
864.40	223.19
864.71	223.19
865.02	223.20
865.33	223.19
865.64	223.17
865.95	223.17
866.27	223.23
866.58	223.22
866.89	223.23
867.20	223.23
867.51	223.22
867.82	223.21
868.13	223.25
868.44	223.22
868.75	223.24
869.06	223.25
869.37	223.26
869.68	223.24
869.99	223.26
870.30	223.26
870.61	223.27
870.92	223.25
871.23	223.24
871.54	223.25
871.85	223.27
872.16	223.29
872.47	223.28
872.78	223.23
873.09	223.24
873.40	223.23
873.71	223.23
874.02	223.24
874.33	223.23
874.64	223.21
874.95	223.23
875.26	223.20
875.56	223.20
875.87	223.19
876.18	223.18
876.49	223.29
876.80	223.27
877.11	223.25
877.42	223.26
877.73	223.26
878.04	223.24
878.35	223.24
878.66	223.23
878.96	223.24
879.27	223.23
879.58	223.23
879.89	223.22
880.20	223.25
880.51	223.24
880.82	223.25
881.12	223.25
881.43	223.23
881.74	223.21
882.05	223.21
882.36	223.22
882.67	223.22
882.97	223.11
883.28	223.10
883.59	223.10
883.90	223.11
884.21	223.12
884.51	223.12
884.82	223.10
885.13	223.10
885.44	223.10
885.74	223.10
886.05	223.09
886.36	223.09
886.67	223.05
886.98	223.10
887.28	223.10
887.59	223.11
887.90	223.11
888.20	223.11
888.51	223.13
888.82	223.11
889.13	223.11
889.43	223.20
889.74	223.20
890.05	223.20
890.35	223.18
890.66	223.16
890.97	223.15
891.28	223.15
891.58	223.15
891.89	223.15
892.20	223.14
892.50	223.13
892.81	223.12
893.12	223.12
893.42	223.07
893.73	223.07
894.04	223.06
894.34	223.07
894.65	223.07
894.95	223.06
895.26	223.06
895.57	223.11
895.87	223.00
896.18	223.02
896.48	223.02
896.79	223.02
897.10	223.03
897.40	223.04
897.71	223.05
898.01	223.03
898.32	223.05
898.63	223.04
898.93	223.05
899.24	223.05
899.54	223.05
899.85	223.05
900.15	223.04
900.46	223.04
900.76	223.05
901.07	223.05
901.38	223.05
901.68	223.05
901.99	223.00
902.29	223.01
902.60	223.00
902.90	222.99
903.21	222.99
903.51	222.98
903.82	223.00
904.12	223.01
904.43	223.01
904.73	223.00
905.03	223.01
905.34	223.11
905.64	223.10
905.95	223.10
906.25	223.11
906.56	223.10
906.86	223.10
907.17	223.09
907.47	223.10
907.77	223.09
908.08	223.06
908.38	223.07
908.69	223.08
908.99	223.10
909.30	223.11
909.60	223.10
909.90	223.11
910.21	223.08
910.51	223.06
910.81	223.06
911.12	223.06
911.42	223.06
911.73	222.95
912.03	222.96
912.33	222.98
912.64	222.97
912.94	222.95
913.24	222.94
913.55	222.93
913.85	222.92
914.15	222.94
914.46	222.95
914.76	222.94
915.06	222.94
915.37	222.91
915.67	222.90
915.97	222.91
916.27	222.89
916.58	222.89
916.88	222.89
917.18	222.89
917.49	222.96
917.79	222.95
918.09	222.97
918.39	222.99
918.70	222.98
919.00	222.99
919.30	223.04
919.60	223.04
919.91	223.03
920.21	223.04
920.51	223.02
920.81	223.01
921.12	223.03
921.42	223.03
921.72	223.04
922.02	223.05
922.32	223.06
922.63	223.06
922.93	223.12
923.23	223.12
923.53	223.11
923.83	223.04
924.13	223.05
924.44	223.05
924.74	223.06
925.04	223.08
925.34	223.08
925.64	223.03
925.94	223.03
926.24	223.09
926.55	223.08
926.85	223.09
927.15	223.09
927.45	223.08
927.75	223.08
928.05	223.08
928.35	223.07
928.65	223.08
928.95	223.09
929.26	223.04
929.56	223.06
929.86	223.07
930.16	223.07
930.46	223.06
930.76	223.06
931.06	223.01
931.36	222.98
931.66	223.00
931.96	223.02
932.26	223.02
932.56	222.97
932.86	222.98
933.16	222.98
933.46	222.97
933.76	222.96
934.06	222.98
934.36	223.01
934.66	223.01
934.96	222.99
935.26	222.99
935.56	223.02
935.86	222.99
936.16	222.97
936.46	222.96
936.76	222.95
937.06	222.93
937.36	222.94
937.66	222.95
937.96	222.94
938.26	222.92
938.56	222.91
938.86	222.92
939.16	222.94
939.46	222.94
939.76	222.94
940.06	222.94
940.35	222.92
940.65	222.87
940.95	222.88
941.25	222.85
941.55	222.84
941.85	222.83
942.15	222.86
942.45	222.89
942.75	222.89
943.04	222.89
943.34	222.91
943.64	222.91
943.94	222.89
944.24	222.89
944.54	222.89
944.84	222.89
945.13	222.88
945.43	222.86
945.73	222.85
946.03	222.85
946.33	222.84
946.62	222.83
946.92	222.83
947.22	222.83
947.52	222.84
947.82	222.85
948.11	222.83
948.41	222.81
948.71	222.78
949.01	222.79
949.31	222.78
949.60	222.77
949.90	222.79
950.20	222.79
950.50	222.78
950.79	222.78
951.09	222.80
951.39	222.79
951.69	222.78
951.98	222.80
952.28	222.81
952.58	222.81
952.87	222.81
953.17	222.83
953.47	222.81
953.76	222.81
954.06	222.79
954.36	222.78
954.66	222.78
954.95	222.81
955.25	222.82
955.55	222.83
955.84	222.81
956.14	222.81
956.44	222.81
956.73	222.80
957.03	222.81
957.32	222.80
957.62	222.80
957.92	222.82
958.21	222.81
958.51	222.93
958.81	222.94
959.10	222.95
959.40	222.97
959.69	222.98
959.99	223.00
960.29	223.00
960.58	223.00
960.88	223.04
961.17	223.02
961.47	223.03
961.76	223.02
962.06	223.04
962.36	223.03
962.65	223.04
962.95	223.04
963.24	223.03
963.54	223.03
963.83	223.04
964.13	223.03
964.42	223.02
964.72	222.93
965.01	222.93
965.31	222.92
965.60	222.89
965.90	222.96
966.19	222.93
966.49	222.94
966.78	222.94
967.08	222.92
967.37	222.92
967.67	222.90
967.96	222.92
968.26	222.91
968.55	222.92
968.85	222.91
969.14	222.91
969.43	222.91
969.73	222.90
970.02	222.89
970.32	222.88
970.61	222.87
970.91	222.83
971.20	222.82
971.49	222.81
971.79	222.82
972.08	222.75
972.38	222.76
972.67	222.76
972.96	222.77
973.26	222.75
973.55	222.78
973.85	222.78
974.14	222.77
974.43	222.78
974.73	222.76
975.02	222.75
975.31	222.75
975.61	222.75
975.90	222.74
976.19	222.74
976.49	222.75
976.78	222.76
977.07	222.76
977.37	222.76
977.66	222.78
977.95	222.76
978.24	222.78
978.54	222.79
978.83	222.79
979.12	222.78
979.42	222.78
979.71	222.76
980.00	222.76
980.29	222.76
980.59	222.74
980.88	222.77
981.17	222.77
981.46	222.77
981.76	222.77
982.05	222.80
982.34	222.81
982.63	222.81
982.93	222.81
983.22	222.84
983.51	222.85
983.80	222.86
984.09	222.87
984.39	222.86
984.68	222.85
984.97	222.86
985.26	222.85
985.55	222.85
985.85	222.84
986.14	222.85
986.43	222.86
986.72	222.86
987.01	222.83
987.30	222.82
987.59	222.82
987.89	222.82
988.18	222.79
988.47	222.78
988.76	222.77
989.05	222.76
989.34	222.74
989.63	222.76
989.92	222.74
990.22	222.73
990.51	222.72
990.80	222.71
991.09	222.72
991.38	222.73
991.67	222.72
991.96	222.71
992.25	222.72
992.54	222.70
992.83	222.70
993.12	222.70
993.41	222.71
993.70	222.76
993.99	222.77
994.28	222.79
994.58	222.80
994.87	222.79
995.16	222.79
995.45	222.78
995.74	222.74
996.03	222.76
996.32	222.78
996.61	222.80
996.90	222.80
997.19	222.79
997.48	222.79
997.77	222.79
998.06	222.79
998.34	222.78
998.63	222.78
998.92	222.79
999.21	222.81
999.50	222.80
999.79	222.77
1000.08	222.77
1000.37	222.77
1000.66	222.76
1000.95	222.78
1001.24	222.79
1001.53	222.81
1001.82	222.80
1002.11	222.78
1002.40	222.78
1002.68	222.80
1002.97	222.88
1003.26	222.86
1003.55	222.85
1003.84	222.86
1004.13	222.89
1004.42	222.88
1004.71	222.88
1004.99	222.88
1005.28	222.90
1005.57	222.89
1005.86	222.88
1006.15	222.87
1006.44	222.85
1006.72	222.86
1007.01	222.84
1007.30	222.84
1007.59	222.83
1007.88	222.83
1008.17	222.84
1008.45	222.82
1008.74	222.78
1009.03	222.73
1009.32	222.73
1009.60	222.73
1009.89	222.72
1010.18	222.68
1010.47	222.68
1010.76	222.68
1011.04	222.68
1011.33	222.68
1011.62	222.68
1011.91	222.70
1012.19	222.70
1012.48	222.70
1012.77	222.70
1013.05	222.74
1013.34	222.74
1013.63	222.73
1013.92	222.74
1014.20	222.74
1014.49	222.74
1014.78	222.75
1015.06	222.72
1015.35	222.72
1015.64	222.73
1015.92	222.75
1016.21	222.76
1016.50	222.76
1016.78	222.77
1017.07	222.78
1017.36	222.76
1017.64	222.75
1017.93	222.76
1018.22	222.75
1018.50	222.75
1018.79	222.74
1019.08	222.70
1019.36	222.71
1019.65	222.70
1019.93	222.73
1020.22	222.74
1020.51	222.80
1020.79	222.78
1021.08	222.59
1021.36	222.56
1021.65	222.73
1021.94	222.66
1022.22	222.83
1022.51	222.54
1022.79	223.20
1023.08	222.86
1023.36	223.97
1023.65	222.48
>>>>>End Processed Spectral Data<<<<<
