SpectraSuite Data File
++++++++++++++++++++++++++++++++++++
Date: Thu Oct 01 11:50:30 EDT 2015
User: lab3
Dark Spectrum Present: No
Reference Spectrum Present: No
Number of Sampled Component Spectra: 1
Spectrometers: USB2E7196
Integration Time (usec): 36000 (USB2E7196)
Spectra Averaged: 10000 (USB2E7196)
Boxcar Smoothing: 10 (USB2E7196)
Correct for Electrical Dark: No (USB2E7196)
Strobe/Lamp Enabled: No (USB2E7196)
Correct for Detector Non-linearity: No (USB2E7196)
Correct for Stray Light: No (USB2E7196)
Number of Pixels in Processed Spectrum: 2048
>>>>>Begin Processed Spectral Data<<<<<
339.09	0.00
339.48	210.72
339.86	212.17
340.24	213.66
340.63	215.10
341.01	217.97
341.39	217.73
341.78	219.07
342.16	220.28
342.54	220.78
342.93	209.32
343.31	219.90
343.69	220.44
344.07	220.90
344.46	221.33
344.84	221.71
345.22	221.95
345.60	222.21
345.99	222.40
346.37	222.54
346.75	222.64
347.13	222.71
347.52	222.78
347.90	222.86
348.28	222.90
348.66	222.95
349.05	222.96
349.43	223.00
349.81	223.06
350.19	223.11
350.57	223.18
350.96	223.26
351.34	223.35
351.72	223.44
352.10	223.55
352.48	223.62
352.87	223.68
353.25	223.74
353.63	223.80
354.01	223.86
354.39	223.94
354.77	224.02
355.15	224.12
355.54	224.17
355.92	224.21
356.30	224.28
356.68	224.42
357.06	224.50
357.44	224.55
357.82	224.61
358.20	224.72
358.58	224.78
358.97	224.85
359.35	224.93
359.73	225.01
360.11	225.06
360.49	225.12
360.87	225.16
361.25	225.23
361.63	225.31
362.01	225.37
362.39	225.40
362.77	225.44
363.15	225.46
363.53	225.50
363.91	225.54
364.29	225.56
364.67	225.48
365.05	225.50
365.43	225.54
365.81	225.57
366.19	225.58
366.57	225.64
366.95	225.64
367.33	225.62
367.71	225.61
368.09	225.63
368.47	225.62
368.85	225.61
369.23	225.62
369.61	225.57
369.99	225.58
370.37	225.58
370.75	225.64
371.13	225.61
371.51	225.58
371.89	225.56
372.27	225.53
372.65	225.51
373.03	225.47
373.41	225.43
373.78	225.39
374.16	225.29
374.54	225.21
374.92	225.16
375.30	225.12
375.68	225.05
376.06	225.01
376.44	224.96
376.82	224.91
377.19	224.86
377.57	224.81
377.95	224.73
378.33	224.66
378.71	224.52
379.09	224.47
379.47	224.43
379.84	224.37
380.22	224.30
380.60	224.23
380.98	224.18
381.36	224.13
381.73	224.06
382.11	224.04
382.49	223.99
382.87	223.93
383.25	223.88
383.62	223.96
384.00	223.89
384.38	223.85
384.76	223.83
385.13	223.82
385.51	223.78
385.89	223.73
386.27	223.69
386.64	223.67
387.02	223.62
387.40	223.58
387.78	223.55
388.15	223.52
388.53	223.49
388.91	223.46
389.29	223.43
389.66	223.42
390.04	223.38
390.42	223.38
390.79	223.36
391.17	223.34
391.55	223.21
391.92	223.20
392.30	223.20
392.68	223.16
393.05	223.14
393.43	223.14
393.81	223.14
394.18	223.13
394.56	223.13
394.94	223.15
395.31	223.16
395.69	223.19
396.06	223.22
396.44	223.24
396.82	223.25
397.19	223.32
397.57	223.33
397.95	223.37
398.32	223.36
398.70	223.41
399.07	223.46
399.45	223.50
399.82	223.54
400.20	223.57
400.58	223.63
400.95	223.65
401.33	223.72
401.70	223.85
402.08	223.94
402.45	224.02
402.83	224.13
403.20	224.24
403.58	224.32
403.95	224.45
404.33	224.58
404.71	224.71
405.08	224.89
405.46	225.05
405.83	225.21
406.21	225.39
406.58	225.59
406.96	225.78
407.33	226.00
407.70	226.25
408.08	226.58
408.45	226.87
408.83	227.19
409.20	227.48
409.58	227.75
409.95	228.10
410.33	228.49
410.70	228.85
411.08	229.28
411.45	229.74
411.82	230.20
412.20	230.73
412.57	231.35
412.95	231.84
413.32	232.48
413.69	233.14
414.07	233.84
414.44	234.61
414.82	235.38
415.19	236.30
415.56	237.22
415.94	238.19
416.31	239.26
416.68	240.34
417.06	241.60
417.43	242.77
417.81	244.13
418.18	245.51
418.55	247.02
418.93	248.59
419.30	250.23
419.67	251.98
420.04	253.77
420.42	255.65
420.79	257.82
421.16	260.01
421.54	262.22
421.91	264.54
422.28	266.95
422.66	269.56
423.03	272.03
423.40	274.63
423.77	277.42
424.15	280.27
424.52	283.24
424.89	286.45
425.26	289.64
425.64	292.60
426.01	295.92
426.38	299.31
426.75	302.81
427.13	306.39
427.50	310.12
427.87	314.01
428.24	317.92
428.61	321.67
428.99	325.70
429.36	330.13
429.73	334.36
430.10	338.58
430.47	342.87
430.85	347.29
431.22	352.00
431.59	356.83
431.96	361.53
432.33	366.74
432.70	371.67
433.08	377.51
433.45	383.03
433.82	388.45
434.19	394.52
434.56	400.47
434.93	406.21
435.30	411.89
435.68	418.28
436.05	424.54
436.42	430.80
436.79	436.50
437.16	442.65
437.53	449.25
437.90	455.86
438.27	462.31
438.64	469.33
439.01	475.67
439.38	481.47
439.75	487.09
440.13	493.50
440.50	499.62
440.87	504.45
441.24	509.77
441.61	515.64
441.98	519.96
442.35	525.10
442.72	530.39
443.09	535.45
443.46	538.76
443.83	541.24
444.20	543.35
444.57	546.40
444.94	548.28
445.31	550.21
445.68	551.96
446.05	553.31
446.42	553.29
446.79	553.17
447.16	553.09
447.53	553.05
447.90	551.31
448.27	549.69
448.64	547.01
449.01	545.28
449.37	541.38
449.74	537.83
450.11	533.24
450.48	528.14
450.85	523.01
451.22	518.66
451.59	514.41
451.96	510.54
452.33	504.82
452.70	499.72
453.07	493.47
453.43	487.21
453.80	481.15
454.17	475.31
454.54	469.90
454.91	463.77
455.28	458.00
455.65	452.54
456.02	446.72
456.38	442.03
456.75	435.97
457.12	431.08
457.49	426.14
457.86	421.43
458.23	417.29
458.59	412.72
458.96	408.02
459.33	403.85
459.70	399.62
460.07	396.39
460.43	392.59
460.80	389.04
461.17	385.89
461.54	382.51
461.91	379.35
462.27	376.13
462.64	373.50
463.01	370.49
463.38	367.45
463.74	364.72
464.11	362.28
464.48	360.07
464.85	357.71
465.21	355.90
465.58	353.90
465.95	351.60
466.32	349.77
466.68	347.96
467.05	346.17
467.42	344.43
467.78	342.56
468.15	340.84
468.52	339.56
468.88	337.89
469.25	336.34
469.62	335.13
469.98	333.81
470.35	332.64
470.72	331.58
471.08	330.52
471.45	329.62
471.82	328.64
472.18	327.63
472.55	326.97
472.92	326.16
473.28	325.53
473.65	324.87
474.02	324.26
474.38	323.75
474.75	323.48
475.11	323.06
475.48	322.92
475.85	322.76
476.21	322.71
476.58	322.72
476.94	322.93
477.31	323.06
477.67	323.22
478.04	323.50
478.41	323.85
478.77	324.32
479.14	324.67
479.50	325.24
479.87	325.96
480.23	326.67
480.60	327.36
480.96	328.08
481.33	329.07
481.69	330.05
482.06	331.03
482.42	331.95
482.79	333.05
483.15	334.31
483.52	335.72
483.88	337.09
484.25	338.55
484.61	340.06
484.98	341.70
485.34	343.52
485.71	345.41
486.07	347.43
486.44	349.44
486.80	351.67
487.17	353.96
487.53	356.47
487.90	359.09
488.26	361.91
488.62	364.89
488.99	367.88
489.35	371.00
489.72	374.37
490.08	377.91
490.44	381.55
490.81	385.35
491.17	389.25
491.54	393.42
491.90	397.68
492.26	402.28
492.63	407.11
492.99	412.14
493.36	417.29
493.72	422.71
494.08	428.28
494.45	434.15
494.81	440.25
495.17	446.48
495.54	453.05
495.90	459.94
496.26	466.97
496.63	474.24
496.99	481.82
497.35	489.76
497.72	498.00
498.08	506.39
498.44	515.06
498.80	524.29
499.17	533.75
499.53	543.56
499.89	553.58
500.26	563.79
500.62	574.28
500.98	585.48
501.34	596.83
501.71	608.72
502.07	620.83
502.43	633.34
502.79	646.19
503.16	659.46
503.52	672.92
503.88	686.77
504.24	701.04
504.60	715.59
504.97	730.53
505.33	745.88
505.69	762.17
506.05	778.64
506.41	795.12
506.78	811.91
507.14	829.16
507.50	847.04
507.86	865.29
508.22	883.82
508.59	902.39
508.95	921.67
509.31	941.38
509.67	961.83
510.03	982.47
510.39	1003.33
510.75	1024.43
511.12	1045.83
511.48	1067.55
511.84	1089.34
512.20	1111.47
512.56	1134.72
512.92	1158.14
513.28	1181.24
513.64	1204.68
514.00	1228.54
514.37	1252.73
514.73	1276.94
515.09	1300.95
515.45	1325.41
515.81	1350.40
516.17	1375.43
516.53	1400.12
516.89	1424.87
517.25	1449.79
517.61	1474.92
517.97	1500.24
518.33	1525.28
518.69	1550.45
519.05	1575.87
519.41	1601.44
519.77	1627.25
520.13	1652.23
520.49	1677.39
520.85	1702.79
521.21	1728.08
521.57	1753.92
521.93	1779.04
522.29	1805.00
522.65	1830.69
523.01	1856.13
523.37	1880.82
523.73	1906.11
524.09	1931.61
524.45	1957.03
524.81	1981.97
525.17	2006.78
525.53	2031.12
525.89	2055.44
526.25	2080.01
526.61	2104.04
526.97	2128.31
527.33	2152.53
527.68	2176.59
528.04	2199.77
528.40	2222.77
528.76	2245.96
529.12	2268.09
529.48	2290.58
529.84	2311.19
530.20	2332.38
530.56	2353.21
530.91	2374.11
531.27	2394.54
531.63	2414.26
531.99	2433.42
532.35	2452.22
532.71	2471.12
533.07	2490.58
533.42	2508.55
533.78	2526.89
534.14	2545.19
534.50	2562.66
534.86	2580.69
535.21	2596.84
535.57	2612.92
535.93	2628.32
536.29	2642.50
536.65	2657.53
537.00	2671.46
537.36	2685.90
537.72	2699.25
538.08	2712.22
538.44	2724.08
538.79	2736.07
539.15	2746.42
539.51	2756.71
539.87	2766.68
540.22	2774.53
540.58	2782.48
540.94	2790.96
541.29	2797.88
541.65	2803.83
542.01	2809.28
542.37	2812.88
542.72	2818.42
543.08	2823.46
543.44	2828.29
543.79	2832.32
544.15	2835.43
544.51	2838.49
544.87	2840.65
545.22	2842.43
545.58	2843.32
545.94	2844.62
546.29	2844.45
546.65	2844.41
547.01	2844.44
547.36	2844.55
547.72	2844.80
548.07	2843.58
548.43	2841.71
548.79	2839.22
549.14	2836.75
549.50	2834.97
549.86	2832.26
550.21	2827.17
550.57	2822.44
550.92	2816.35
551.28	2810.87
551.64	2805.33
551.99	2800.17
552.35	2794.63
552.70	2788.61
553.06	2783.32
553.41	2777.57
553.77	2771.31
554.13	2765.75
554.48	2759.22
554.84	2751.04
555.19	2743.04
555.55	2734.50
555.90	2726.54
556.26	2719.58
556.61	2711.96
556.97	2702.10
557.32	2693.17
557.68	2684.67
558.03	2675.58
558.39	2667.20
558.74	2658.90
559.10	2649.37
559.45	2639.48
559.81	2629.98
560.16	2619.78
560.52	2609.16
560.87	2599.55
561.23	2589.50
561.58	2578.96
561.94	2568.19
562.29	2556.91
562.64	2546.29
563.00	2536.01
563.35	2525.63
563.71	2514.34
564.06	2502.47
564.42	2491.69
564.77	2480.54
565.12	2469.47
565.48	2458.13
565.83	2447.41
566.19	2436.73
566.54	2425.65
566.89	2413.72
567.25	2401.73
567.60	2390.62
567.96	2379.09
568.31	2366.08
568.66	2353.07
569.02	2341.12
569.37	2328.91
569.72	2317.22
570.08	2304.85
570.43	2291.92
570.78	2278.67
571.14	2265.19
571.49	2252.57
571.84	2240.21
572.20	2226.53
572.55	2213.29
572.90	2199.95
573.26	2185.65
573.61	2170.86
573.96	2156.36
574.31	2142.24
574.67	2128.29
575.02	2113.91
575.37	2099.06
575.72	2084.58
576.08	2070.66
576.43	2055.74
576.78	2040.91
577.13	2026.92
577.49	2012.85
577.84	1999.20
578.19	1984.72
578.54	1969.93
578.90	1954.59
579.25	1939.01
579.60	1924.83
579.95	1910.23
580.30	1895.68
580.66	1881.49
581.01	1866.89
581.36	1852.62
581.71	1838.92
582.06	1824.74
582.42	1810.62
582.77	1797.29
583.12	1783.57
583.47	1769.97
583.82	1756.45
584.17	1742.84
584.53	1729.04
584.88	1715.30
585.23	1701.15
585.58	1687.53
585.93	1674.37
586.28	1662.07
586.63	1649.56
586.98	1636.36
587.34	1623.39
587.69	1609.95
588.04	1596.73
588.39	1584.18
588.74	1571.20
589.09	1557.90
589.44	1544.62
589.79	1531.91
590.14	1519.04
590.49	1506.43
590.84	1493.64
591.19	1481.50
591.54	1468.83
591.89	1456.07
592.25	1443.63
592.60	1430.86
592.95	1418.63
593.30	1406.67
593.65	1394.46
594.00	1382.49
594.35	1371.32
594.70	1359.35
595.05	1348.46
595.40	1337.37
595.75	1325.69
596.10	1314.81
596.45	1304.15
596.80	1293.94
597.15	1283.53
597.50	1273.14
597.85	1262.90
598.19	1252.88
598.54	1242.27
598.89	1232.43
599.24	1222.89
599.59	1213.13
599.94	1204.36
600.29	1195.45
600.64	1186.32
600.99	1176.62
601.34	1167.39
601.69	1157.58
602.04	1148.84
602.39	1139.89
602.74	1131.18
603.08	1122.75
603.43	1113.81
603.78	1104.82
604.13	1095.95
604.48	1087.01
604.83	1078.33
605.18	1069.56
605.53	1060.74
605.87	1052.04
606.22	1043.60
606.57	1034.87
606.92	1026.27
607.27	1017.54
607.62	1008.93
607.96	1000.47
608.31	993.00
608.66	985.08
609.01	977.60
609.36	970.07
609.70	962.32
610.05	954.41
610.40	946.86
610.75	939.43
611.10	932.24
611.44	924.68
611.79	917.41
612.14	909.78
612.49	902.30
612.83	895.27
613.18	888.31
613.53	881.14
613.88	874.08
614.22	867.57
614.57	860.89
614.92	854.20
615.27	847.56
615.61	840.77
615.96	834.21
616.31	827.58
616.65	820.83
617.00	814.35
617.35	808.01
617.70	801.69
618.04	795.43
618.39	789.17
618.74	783.26
619.08	777.19
619.43	771.37
619.78	765.55
620.12	759.55
620.47	753.72
620.82	747.99
621.16	742.55
621.51	736.78
621.85	731.00
622.20	725.27
622.55	719.71
622.89	714.10
623.24	708.54
623.59	703.03
623.93	697.59
624.28	692.30
624.62	686.98
624.97	681.66
625.32	676.45
625.66	671.11
626.01	665.75
626.35	660.53
626.70	655.35
627.04	650.36
627.39	645.43
627.73	640.61
628.08	635.99
628.43	631.26
628.77	626.58
629.12	622.05
629.46	617.67
629.81	613.12
630.15	608.46
630.50	603.98
630.84	599.70
631.19	595.58
631.53	591.49
631.88	587.29
632.22	583.19
632.57	579.31
632.91	575.39
633.26	571.57
633.60	567.80
633.95	564.10
634.29	560.29
634.64	556.46
634.98	552.55
635.32	548.79
635.67	545.15
636.01	541.47
636.36	537.83
636.70	534.33
637.05	530.83
637.39	527.53
637.73	524.09
638.08	520.70
638.42	517.30
638.77	513.77
639.11	510.25
639.45	506.77
639.80	503.27
640.14	499.97
640.49	496.61
640.83	493.15
641.17	489.76
641.52	486.51
641.86	483.24
642.20	480.14
642.55	476.89
642.89	473.73
643.23	470.77
643.58	468.02
643.92	465.16
644.26	462.33
644.61	459.48
644.95	456.64
645.29	453.77
645.64	450.85
645.98	448.07
646.32	445.46
646.66	442.85
647.01	440.21
647.35	437.62
647.69	434.94
648.04	432.41
648.38	429.90
648.72	427.36
649.06	424.89
649.41	422.44
649.75	419.98
650.09	417.56
650.43	415.14
650.78	412.70
651.12	410.24
651.46	407.89
651.80	405.63
652.14	403.45
652.49	401.26
652.83	399.14
653.17	397.01
653.51	394.94
653.85	392.93
654.20	390.86
654.54	388.72
654.88	386.76
655.22	384.86
655.56	382.92
655.90	381.06
656.25	379.22
656.59	377.39
656.93	375.65
657.27	373.95
657.61	372.15
657.95	370.41
658.29	368.69
658.64	366.99
658.98	365.28
659.32	363.58
659.66	362.00
660.00	360.42
660.34	358.87
660.68	357.27
661.02	355.60
661.36	354.05
661.70	352.57
662.05	351.06
662.39	349.53
662.73	348.11
663.07	346.72
663.41	345.33
663.75	343.97
664.09	342.60
664.43	341.17
664.77	339.82
665.11	338.42
665.45	337.10
665.79	335.77
666.13	334.43
666.47	333.08
666.81	331.71
667.15	330.31
667.49	329.01
667.83	327.76
668.17	326.55
668.51	325.36
668.85	324.18
669.19	323.07
669.53	321.90
669.87	320.69
670.21	319.51
670.55	318.36
670.89	317.27
671.23	316.16
671.57	315.06
671.91	314.02
672.25	313.04
672.58	312.03
672.92	311.00
673.26	310.04
673.60	309.08
673.94	308.11
674.28	307.21
674.62	306.29
674.96	305.34
675.30	304.45
675.64	303.52
675.97	302.62
676.31	301.68
676.65	300.77
676.99	299.92
677.33	299.02
677.67	298.17
678.01	297.24
678.34	296.37
678.68	295.56
679.02	294.72
679.36	293.89
679.70	293.06
680.04	292.27
680.37	291.46
680.71	290.69
681.05	289.95
681.39	289.18
681.73	288.38
682.06	287.60
682.40	286.85
682.74	286.13
683.08	285.42
683.42	284.70
683.75	284.04
684.09	283.31
684.43	282.62
684.77	281.93
685.10	281.28
685.44	280.62
685.78	279.94
686.12	279.30
686.45	278.65
686.79	278.00
687.13	277.38
687.46	276.72
687.80	276.09
688.14	275.42
688.48	274.81
688.81	274.20
689.15	273.64
689.49	273.04
689.82	272.45
690.16	271.80
690.50	271.22
690.83	270.64
691.17	270.07
691.51	269.52
691.84	268.99
692.18	268.42
692.52	267.84
692.85	267.29
693.19	266.77
693.52	266.25
693.86	265.72
694.20	265.21
694.53	264.72
694.87	264.21
695.21	263.73
695.54	263.24
695.88	262.75
696.21	262.22
696.55	261.74
696.88	261.25
697.22	260.79
697.56	260.33
697.89	259.82
698.23	259.35
698.56	258.85
698.90	258.40
699.23	257.94
699.57	257.52
699.90	257.08
700.24	256.62
700.58	256.20
700.91	255.80
701.25	255.48
701.58	255.12
701.92	254.75
702.25	254.36
702.59	253.96
702.92	253.58
703.26	253.21
703.59	252.84
703.93	252.55
704.26	252.20
704.60	251.84
704.93	251.50
705.26	251.16
705.60	250.85
705.93	250.49
706.27	250.20
706.60	249.89
706.94	249.60
707.27	249.25
707.61	248.92
707.94	248.57
708.27	248.16
708.61	247.80
708.94	247.46
709.28	247.15
709.61	246.84
709.94	246.56
710.28	246.27
710.61	246.01
710.95	245.64
711.28	245.43
711.61	245.16
711.95	244.92
712.28	244.65
712.61	244.37
712.95	244.17
713.28	243.96
713.61	243.69
713.95	243.42
714.28	243.20
714.61	242.94
714.95	242.71
715.28	242.48
715.61	242.24
715.95	242.03
716.28	241.80
716.61	241.60
716.95	241.37
717.28	241.15
717.61	240.93
717.94	240.72
718.28	240.43
718.61	240.22
718.94	239.99
719.27	239.79
719.61	239.61
719.94	239.38
720.27	239.13
720.60	238.94
720.94	238.75
721.27	238.57
721.60	238.41
721.93	238.23
722.27	238.09
722.60	237.93
722.93	237.74
723.26	237.57
723.59	237.38
723.93	237.23
724.26	237.08
724.59	236.91
724.92	236.76
725.25	236.64
725.59	236.49
725.92	236.36
726.25	236.22
726.58	236.07
726.91	235.92
727.24	235.79
727.57	235.65
727.91	235.49
728.24	235.37
728.57	235.22
728.90	235.10
729.23	234.93
729.56	234.83
729.89	234.71
730.22	234.57
730.55	234.44
730.89	234.31
731.22	234.17
731.55	234.04
731.88	233.92
732.21	233.78
732.54	233.66
732.87	233.54
733.20	233.43
733.53	233.32
733.86	233.21
734.19	233.09
734.52	233.00
734.85	232.97
735.18	232.84
735.51	232.76
735.84	232.65
736.17	232.58
736.50	232.43
736.83	232.45
737.16	232.36
737.49	232.27
737.82	232.17
738.15	232.10
738.48	232.00
738.81	231.90
739.14	231.80
739.47	231.69
739.80	231.60
740.13	231.51
740.46	231.40
740.79	231.30
741.12	231.22
741.45	231.11
741.78	230.96
742.11	230.90
742.44	230.79
742.77	230.72
743.10	230.62
743.43	230.53
743.75	230.34
744.08	230.41
744.41	230.32
744.74	230.24
745.07	230.13
745.40	230.07
745.73	230.04
746.06	229.98
746.39	229.92
746.71	229.83
747.04	229.75
747.37	229.68
747.70	229.63
748.03	229.56
748.36	229.51
748.68	229.44
749.01	229.34
749.34	229.27
749.67	229.21
750.00	229.16
750.33	229.18
750.65	229.12
750.98	228.90
751.31	228.84
751.64	228.79
751.97	228.78
752.29	228.71
752.62	228.60
752.95	228.53
753.28	228.45
753.60	228.39
753.93	228.36
754.26	228.31
754.59	228.21
754.91	228.14
755.24	228.07
755.57	228.06
755.90	228.00
756.22	227.93
756.55	227.86
756.88	227.78
757.20	227.65
757.53	227.56
757.86	227.51
758.19	227.46
758.51	227.41
758.84	227.31
759.17	227.24
759.49	227.20
759.82	227.20
760.15	227.17
760.47	227.11
760.80	227.03
761.13	227.00
761.45	226.96
761.78	226.91
762.11	226.88
762.43	226.78
762.76	226.74
763.08	226.71
763.41	226.67
763.74	226.63
764.06	226.59
764.39	226.55
764.71	226.51
765.04	226.46
765.37	226.41
765.69	226.36
766.02	226.32
766.34	226.27
766.67	226.20
767.00	226.18
767.32	226.20
767.65	226.23
767.97	226.18
768.30	226.15
768.62	226.12
768.95	226.07
769.27	226.03
769.60	226.01
769.92	225.95
770.25	225.90
770.57	225.85
770.90	225.82
771.22	225.78
771.55	225.75
771.87	225.73
772.20	225.70
772.52	225.75
772.85	225.85
773.17	225.82
773.50	225.78
773.82	225.73
774.15	225.65
774.47	225.56
774.80	225.52
775.12	225.49
775.45	225.46
775.77	225.44
776.09	225.42
776.42	225.39
776.74	225.40
777.07	225.38
777.39	225.36
777.72	225.32
778.04	225.32
778.36	225.28
778.69	225.26
779.01	225.24
779.33	225.13
779.66	224.98
779.98	224.95
780.31	224.94
780.63	224.96
780.95	224.96
781.28	224.94
781.60	224.92
781.92	224.89
782.25	224.87
782.57	224.85
782.89	224.82
783.22	224.79
783.54	224.75
783.86	224.74
784.19	224.71
784.51	224.73
784.83	224.70
785.16	224.68
785.48	224.66
785.80	224.65
786.12	224.64
786.45	224.63
786.77	224.62
787.09	224.60
787.42	224.54
787.74	224.53
788.06	224.52
788.38	224.50
788.71	224.48
789.03	224.46
789.35	224.46
789.67	224.44
789.99	224.43
790.32	224.40
790.64	224.40
790.96	224.48
791.28	224.43
791.61	224.41
791.93	224.41
792.25	224.38
792.57	224.44
792.89	224.41
793.21	224.40
793.54	224.38
793.86	224.36
794.18	224.35
794.50	224.31
794.82	224.30
795.14	224.30
795.47	224.31
795.79	224.30
796.11	224.26
796.43	224.24
796.75	224.23
797.07	224.22
797.39	224.21
797.71	224.11
798.04	224.10
798.36	224.10
798.68	224.08
799.00	224.08
799.32	224.02
799.64	224.02
799.96	224.01
800.28	224.02
800.60	224.01
800.92	224.00
801.24	223.99
801.56	223.99
801.89	223.97
802.21	223.96
802.53	223.93
802.85	223.94
803.17	223.99
803.49	223.96
803.81	223.94
804.13	223.92
804.45	223.90
804.77	223.90
805.09	223.89
805.41	223.87
805.73	223.84
806.05	223.81
806.37	223.79
806.69	223.77
807.01	223.75
807.33	223.75
807.65	223.70
807.97	223.74
808.28	223.72
808.60	223.71
808.92	223.68
809.24	223.74
809.56	223.72
809.88	223.67
810.20	223.67
810.52	223.69
810.84	223.67
811.16	223.65
811.48	223.64
811.80	223.67
812.12	223.66
812.43	223.67
812.75	223.67
813.07	223.66
813.39	223.66
813.71	223.64
814.03	223.62
814.35	223.62
814.67	223.57
814.98	223.56
815.30	223.55
815.62	223.53
815.94	223.46
816.26	223.46
816.58	223.44
816.89	223.44
817.21	223.41
817.53	223.41
817.85	223.42
818.17	223.41
818.48	223.36
818.80	223.38
819.12	223.35
819.44	223.33
819.76	223.31
820.07	223.31
820.39	223.31
820.71	223.32
821.03	223.31
821.34	223.30
821.66	223.31
821.98	223.32
822.30	223.31
822.61	223.37
822.93	223.35
823.25	223.34
823.57	223.32
823.88	223.33
824.20	223.32
824.52	223.33
824.83	223.32
825.15	223.31
825.47	223.30
825.79	223.30
826.10	223.30
826.42	223.29
826.74	223.29
827.05	223.29
827.37	223.29
827.69	223.27
828.00	223.28
828.32	223.27
828.64	223.25
828.95	223.30
829.27	223.27
829.58	223.27
829.90	223.29
830.22	223.29
830.53	223.27
830.85	223.26
831.17	223.23
831.48	223.23
831.80	223.24
832.11	223.22
832.43	223.21
832.75	223.21
833.06	223.27
833.38	223.23
833.69	223.23
834.01	223.23
834.32	223.22
834.64	223.21
834.96	223.21
835.27	223.20
835.59	223.17
835.90	223.15
836.22	223.14
836.53	223.12
836.85	223.10
837.16	223.21
837.48	223.21
837.79	223.24
838.11	223.24
838.42	223.24
838.74	223.25
839.05	223.25
839.37	223.24
839.68	223.17
840.00	223.17
840.31	223.18
840.63	223.17
840.94	223.16
841.26	223.15
841.57	223.14
841.88	223.15
842.20	223.14
842.51	223.12
842.83	223.11
843.14	223.21
843.46	223.20
843.77	223.14
844.08	223.13
844.40	223.09
844.71	223.08
845.03	223.07
845.34	223.06
845.65	223.05
845.97	223.05
846.28	223.06
846.60	223.06
846.91	223.04
847.22	223.04
847.54	223.07
847.85	223.07
848.16	223.06
848.48	223.04
848.79	223.08
849.10	223.09
849.42	223.10
849.73	223.00
850.04	223.00
850.36	222.96
850.67	222.97
850.98	222.98
851.30	222.98
851.61	222.98
851.92	222.98
852.23	223.01
852.55	223.01
852.86	223.02
853.17	223.02
853.49	223.04
853.80	223.06
854.11	223.06
854.42	223.07
854.74	223.06
855.05	223.07
855.36	223.01
855.67	223.01
855.99	223.01
856.30	223.13
856.61	223.13
856.92	223.12
857.23	223.13
857.55	223.11
857.86	223.11
858.17	223.12
858.48	223.11
858.79	223.08
859.11	223.09
859.42	223.08
859.73	223.06
860.04	223.05
860.35	223.02
860.66	222.99
860.98	222.99
861.29	223.00
861.60	222.99
861.91	223.01
862.22	222.99
862.53	222.98
862.84	222.86
863.16	222.88
863.47	222.86
863.78	222.85
864.09	222.85
864.40	222.86
864.71	222.85
865.02	222.87
865.33	222.86
865.64	222.84
865.95	222.84
866.27	222.90
866.58	222.89
866.89	222.91
867.20	222.90
867.51	222.89
867.82	222.88
868.13	222.92
868.44	222.89
868.75	222.91
869.06	222.92
869.37	222.93
869.68	222.90
869.99	222.92
870.30	222.92
870.61	222.93
870.92	222.92
871.23	222.91
871.54	222.92
871.85	222.95
872.16	222.96
872.47	222.95
872.78	222.89
873.09	222.90
873.40	222.89
873.71	222.89
874.02	222.90
874.33	222.89
874.64	222.86
874.95	222.88
875.26	222.86
875.56	222.86
875.87	222.85
876.18	222.85
876.49	222.95
876.80	222.94
877.11	222.92
877.42	222.93
877.73	222.93
878.04	222.91
878.35	222.90
878.66	222.91
878.96	222.91
879.27	222.91
879.58	222.90
879.89	222.89
880.20	222.92
880.51	222.92
880.82	222.92
881.12	222.92
881.43	222.90
881.74	222.89
882.05	222.88
882.36	222.88
882.67	222.89
882.97	222.78
883.28	222.77
883.59	222.77
883.90	222.78
884.21	222.79
884.51	222.78
884.82	222.77
885.13	222.76
885.44	222.76
885.74	222.76
886.05	222.75
886.36	222.75
886.67	222.71
886.98	222.76
887.28	222.77
887.59	222.77
887.90	222.77
888.20	222.77
888.51	222.78
888.82	222.77
889.13	222.77
889.43	222.86
889.74	222.85
890.05	222.85
890.35	222.84
890.66	222.82
890.97	222.81
891.28	222.80
891.58	222.80
891.89	222.80
892.20	222.79
892.50	222.78
892.81	222.77
893.12	222.77
893.42	222.72
893.73	222.72
894.04	222.72
894.34	222.73
894.65	222.73
894.95	222.72
895.26	222.72
895.57	222.77
895.87	222.66
896.18	222.68
896.48	222.69
896.79	222.69
897.10	222.71
897.40	222.72
897.71	222.73
898.01	222.72
898.32	222.73
898.63	222.72
898.93	222.73
899.24	222.73
899.54	222.73
899.85	222.73
900.15	222.72
900.46	222.72
900.76	222.72
901.07	222.72
901.38	222.72
901.68	222.72
901.99	222.67
902.29	222.68
902.60	222.67
902.90	222.66
903.21	222.65
903.51	222.64
903.82	222.66
904.12	222.66
904.43	222.66
904.73	222.65
905.03	222.66
905.34	222.76
905.64	222.75
905.95	222.75
906.25	222.75
906.56	222.74
906.86	222.74
907.17	222.73
907.47	222.74
907.77	222.73
908.08	222.71
908.38	222.71
908.69	222.72
908.99	222.74
909.30	222.75
909.60	222.74
909.90	222.75
910.21	222.72
910.51	222.71
910.81	222.71
911.12	222.72
911.42	222.72
911.73	222.61
912.03	222.62
912.33	222.64
912.64	222.63
912.94	222.62
913.24	222.61
913.55	222.60
913.85	222.59
914.15	222.62
914.46	222.63
914.76	222.62
915.06	222.61
915.37	222.59
915.67	222.58
915.97	222.59
916.27	222.56
916.58	222.57
916.88	222.56
917.18	222.55
917.49	222.62
917.79	222.61
918.09	222.63
918.39	222.65
918.70	222.64
919.00	222.65
919.30	222.70
919.60	222.70
919.91	222.69
920.21	222.70
920.51	222.68
920.81	222.67
921.12	222.69
921.42	222.68
921.72	222.69
922.02	222.70
922.32	222.71
922.63	222.72
922.93	222.78
923.23	222.79
923.53	222.78
923.83	222.71
924.13	222.72
924.44	222.72
924.74	222.73
925.04	222.75
925.34	222.75
925.64	222.70
925.94	222.70
926.24	222.76
926.55	222.75
926.85	222.76
927.15	222.76
927.45	222.75
927.75	222.75
928.05	222.75
928.35	222.74
928.65	222.76
928.95	222.76
929.26	222.71
929.56	222.73
929.86	222.74
930.16	222.73
930.46	222.72
930.76	222.73
931.06	222.68
931.36	222.65
931.66	222.67
931.96	222.68
932.26	222.69
932.56	222.65
932.86	222.66
933.16	222.65
933.46	222.64
933.76	222.63
934.06	222.65
934.36	222.68
934.66	222.68
934.96	222.66
935.26	222.67
935.56	222.68
935.86	222.66
936.16	222.64
936.46	222.63
936.76	222.62
937.06	222.61
937.36	222.62
937.66	222.62
937.96	222.61
938.26	222.59
938.56	222.58
938.86	222.59
939.16	222.61
939.46	222.61
939.76	222.62
940.06	222.62
940.35	222.60
940.65	222.55
940.95	222.56
941.25	222.53
941.55	222.52
941.85	222.51
942.15	222.53
942.45	222.56
942.75	222.56
943.04	222.57
943.34	222.59
943.64	222.58
943.94	222.56
944.24	222.56
944.54	222.57
944.84	222.57
945.13	222.55
945.43	222.53
945.73	222.52
946.03	222.52
946.33	222.51
946.62	222.50
946.92	222.50
947.22	222.50
947.52	222.51
947.82	222.53
948.11	222.51
948.41	222.49
948.71	222.46
949.01	222.47
949.31	222.46
949.60	222.45
949.90	222.46
950.20	222.46
950.50	222.46
950.79	222.45
951.09	222.47
951.39	222.46
951.69	222.46
951.98	222.47
952.28	222.48
952.58	222.48
952.87	222.48
953.17	222.50
953.47	222.48
953.76	222.48
954.06	222.46
954.36	222.45
954.66	222.45
954.95	222.47
955.25	222.48
955.55	222.49
955.84	222.47
956.14	222.47
956.44	222.48
956.73	222.47
957.03	222.47
957.32	222.47
957.62	222.47
957.92	222.49
958.21	222.48
958.51	222.59
958.81	222.60
959.10	222.62
959.40	222.63
959.69	222.64
959.99	222.65
960.29	222.66
960.58	222.66
960.88	222.70
961.17	222.69
961.47	222.69
961.76	222.68
962.06	222.70
962.36	222.69
962.65	222.69
962.95	222.69
963.24	222.68
963.54	222.68
963.83	222.69
964.13	222.69
964.42	222.68
964.72	222.59
965.01	222.59
965.31	222.58
965.60	222.56
965.90	222.62
966.19	222.59
966.49	222.60
966.78	222.60
967.08	222.59
967.37	222.59
967.67	222.57
967.96	222.59
968.26	222.58
968.55	222.60
968.85	222.59
969.14	222.59
969.43	222.59
969.73	222.58
970.02	222.58
970.32	222.57
970.61	222.55
970.91	222.52
971.20	222.50
971.49	222.50
971.79	222.51
972.08	222.44
972.38	222.45
972.67	222.44
972.96	222.46
973.26	222.43
973.55	222.46
973.85	222.46
974.14	222.45
974.43	222.45
974.73	222.44
975.02	222.43
975.31	222.43
975.61	222.43
975.90	222.42
976.19	222.41
976.49	222.42
976.78	222.42
977.07	222.43
977.37	222.43
977.66	222.45
977.95	222.43
978.24	222.43
978.54	222.45
978.83	222.44
979.12	222.44
979.42	222.44
979.71	222.42
980.00	222.42
980.29	222.42
980.59	222.41
980.88	222.44
981.17	222.44
981.46	222.43
981.76	222.43
982.05	222.47
982.34	222.47
982.63	222.47
982.93	222.47
983.22	222.50
983.51	222.50
983.80	222.52
984.09	222.53
984.39	222.52
984.68	222.51
984.97	222.52
985.26	222.51
985.55	222.52
985.85	222.50
986.14	222.51
986.43	222.52
986.72	222.51
987.01	222.48
987.30	222.48
987.59	222.47
987.89	222.48
988.18	222.44
988.47	222.43
988.76	222.42
989.05	222.41
989.34	222.40
989.63	222.42
989.92	222.40
990.22	222.38
990.51	222.38
990.80	222.37
991.09	222.38
991.38	222.39
991.67	222.38
991.96	222.37
992.25	222.37
992.54	222.35
992.83	222.36
993.12	222.36
993.41	222.38
993.70	222.42
993.99	222.44
994.28	222.45
994.58	222.47
994.87	222.46
995.16	222.46
995.45	222.45
995.74	222.42
996.03	222.43
996.32	222.45
996.61	222.47
996.90	222.47
997.19	222.46
997.48	222.46
997.77	222.45
998.06	222.46
998.34	222.45
998.63	222.45
998.92	222.45
999.21	222.47
999.50	222.47
999.79	222.43
1000.08	222.42
1000.37	222.42
1000.66	222.40
1000.95	222.43
1001.24	222.44
1001.53	222.45
1001.82	222.45
1002.11	222.43
1002.40	222.43
1002.68	222.45
1002.97	222.53
1003.26	222.52
1003.55	222.50
1003.84	222.51
1004.13	222.54
1004.42	222.54
1004.71	222.54
1004.99	222.53
1005.28	222.55
1005.57	222.54
1005.86	222.54
1006.15	222.52
1006.44	222.51
1006.72	222.52
1007.01	222.50
1007.30	222.50
1007.59	222.49
1007.88	222.49
1008.17	222.50
1008.45	222.48
1008.74	222.44
1009.03	222.38
1009.32	222.39
1009.60	222.39
1009.89	222.38
1010.18	222.34
1010.47	222.33
1010.76	222.34
1011.04	222.34
1011.33	222.33
1011.62	222.34
1011.91	222.34
1012.19	222.35
1012.48	222.35
1012.77	222.35
1013.05	222.38
1013.34	222.38
1013.63	222.38
1013.92	222.38
1014.20	222.38
1014.49	222.38
1014.78	222.39
1015.06	222.36
1015.35	222.36
1015.64	222.37
1015.92	222.39
1016.21	222.40
1016.50	222.41
1016.78	222.42
1017.07	222.43
1017.36	222.40
1017.64	222.39
1017.93	222.40
1018.22	222.39
1018.50	222.39
1018.79	222.38
1019.08	222.34
1019.36	222.35
1019.65	222.34
1019.93	222.37
1020.22	222.38
1020.51	222.44
1020.79	222.43
1021.08	222.20
1021.36	222.21
1021.65	222.31
1021.94	222.34
1022.22	222.43
1022.51	222.14
1022.79	222.85
1023.08	222.58
1023.36	223.61
1023.65	222.15
>>>>>End Processed Spectral Data<<<<<
