SpectraSuite Data File
++++++++++++++++++++++++++++++++++++
Date: Thu Oct 01 00:34:41 EDT 2015
User: lab3
Dark Spectrum Present: No
Reference Spectrum Present: No
Number of Sampled Component Spectra: 1
Spectrometers: USB2E7196
Integration Time (usec): 36000 (USB2E7196)
Spectra Averaged: 10000 (USB2E7196)
Boxcar Smoothing: 10 (USB2E7196)
Correct for Electrical Dark: No (USB2E7196)
Strobe/Lamp Enabled: No (USB2E7196)
Correct for Detector Non-linearity: No (USB2E7196)
Correct for Stray Light: No (USB2E7196)
Number of Pixels in Processed Spectrum: 2048
>>>>>Begin Processed Spectral Data<<<<<
339.09	0.00
339.48	209.72
339.86	211.25
340.24	212.61
340.63	213.98
341.01	216.94
341.39	216.63
341.78	218.00
342.16	219.23
342.54	219.70
342.93	208.32
343.31	218.85
343.69	219.39
344.07	219.85
344.46	220.28
344.84	220.66
345.22	220.90
345.60	221.16
345.99	221.35
346.37	221.49
346.75	221.59
347.13	221.67
347.52	221.74
347.90	221.82
348.28	221.85
348.66	221.91
349.05	221.91
349.43	221.96
349.81	222.01
350.19	222.07
350.57	222.14
350.96	222.22
351.34	222.32
351.72	222.41
352.10	222.51
352.48	222.59
352.87	222.64
353.25	222.71
353.63	222.77
354.01	222.83
354.39	222.91
354.77	222.99
355.15	223.09
355.54	223.14
355.92	223.18
356.30	223.25
356.68	223.39
357.06	223.47
357.44	223.52
357.82	223.58
358.20	223.69
358.58	223.75
358.97	223.81
359.35	223.89
359.73	223.97
360.11	224.02
360.49	224.09
360.87	224.13
361.25	224.20
361.63	224.28
362.01	224.33
362.39	224.36
362.77	224.41
363.15	224.43
363.53	224.47
363.91	224.50
364.29	224.53
364.67	224.45
365.05	224.48
365.43	224.51
365.81	224.54
366.19	224.55
366.57	224.60
366.95	224.60
367.33	224.58
367.71	224.57
368.09	224.59
368.47	224.58
368.85	224.57
369.23	224.58
369.61	224.52
369.99	224.54
370.37	224.53
370.75	224.59
371.13	224.56
371.51	224.52
371.89	224.50
372.27	224.48
372.65	224.46
373.03	224.42
373.41	224.37
373.78	224.33
374.16	224.23
374.54	224.16
374.92	224.11
375.30	224.06
375.68	223.99
376.06	223.95
376.44	223.90
376.82	223.85
377.19	223.80
377.57	223.75
377.95	223.66
378.33	223.60
378.71	223.45
379.09	223.40
379.47	223.37
379.84	223.30
380.22	223.24
380.60	223.17
380.98	223.12
381.36	223.06
381.73	223.00
382.11	222.97
382.49	222.93
382.87	222.87
383.25	222.82
383.62	222.90
384.00	222.83
384.38	222.78
384.76	222.76
385.13	222.75
385.51	222.71
385.89	222.66
386.27	222.62
386.64	222.60
387.02	222.55
387.40	222.50
387.78	222.47
388.15	222.44
388.53	222.41
388.91	222.38
389.29	222.34
389.66	222.33
390.04	222.30
390.42	222.29
390.79	222.28
391.17	222.26
391.55	222.13
391.92	222.12
392.30	222.12
392.68	222.08
393.05	222.06
393.43	222.06
393.81	222.06
394.18	222.05
394.56	222.05
394.94	222.08
395.31	222.08
395.69	222.12
396.06	222.14
396.44	222.16
396.82	222.17
397.19	222.24
397.57	222.25
397.95	222.29
398.32	222.28
398.70	222.32
399.07	222.38
399.45	222.41
399.82	222.45
400.20	222.48
400.58	222.54
400.95	222.55
401.33	222.63
401.70	222.76
402.08	222.85
402.45	222.93
402.83	223.03
403.20	223.13
403.58	223.21
403.95	223.33
404.33	223.46
404.71	223.59
405.08	223.77
405.46	223.91
405.83	224.08
406.21	224.25
406.58	224.44
406.96	224.62
407.33	224.84
407.70	225.08
408.08	225.40
408.45	225.69
408.83	225.99
409.20	226.27
409.58	226.52
409.95	226.86
410.33	227.24
410.70	227.59
411.08	228.01
411.45	228.45
411.82	228.89
412.20	229.39
412.57	229.99
412.95	230.46
413.32	231.08
413.69	231.71
414.07	232.38
414.44	233.11
414.82	233.85
415.19	234.73
415.56	235.61
415.94	236.52
416.31	237.55
416.68	238.58
417.06	239.78
417.43	240.91
417.81	242.20
418.18	243.52
418.55	244.96
418.93	246.46
419.30	248.03
419.67	249.70
420.04	251.41
420.42	253.20
420.79	255.28
421.16	257.36
421.54	259.49
421.91	261.71
422.28	264.01
422.66	266.50
423.03	268.87
423.40	271.36
423.77	274.03
424.15	276.76
424.52	279.60
424.89	282.67
425.26	285.73
425.64	288.56
426.01	291.75
426.38	295.01
426.75	298.37
427.13	301.80
427.50	305.40
427.87	309.13
428.24	312.89
428.61	316.50
428.99	320.38
429.36	324.65
429.73	328.72
430.10	332.78
430.47	336.93
430.85	341.19
431.22	345.73
431.59	350.39
431.96	354.93
432.33	359.95
432.70	364.72
433.08	370.35
433.45	375.68
433.82	380.90
434.19	386.73
434.56	392.47
434.93	397.99
435.30	403.47
435.68	409.62
436.05	415.65
436.42	421.67
436.79	427.17
437.16	433.08
437.53	439.43
437.90	445.77
438.27	451.95
438.64	458.68
439.01	464.77
439.38	470.34
439.75	475.70
440.13	481.84
440.50	487.69
440.87	492.30
441.24	497.37
441.61	502.98
441.98	507.10
442.35	511.99
442.72	517.03
443.09	521.84
443.46	524.98
443.83	527.31
444.20	529.29
444.57	532.18
444.94	533.93
445.31	535.75
445.68	537.39
446.05	538.65
446.42	538.60
446.79	538.44
447.16	538.34
447.53	538.28
447.90	536.59
448.27	535.00
448.64	532.42
449.01	530.76
449.37	527.01
449.74	523.60
450.11	519.19
450.48	514.31
450.85	509.40
451.22	505.23
451.59	501.16
451.96	497.46
452.33	491.99
452.70	487.12
453.07	481.17
453.43	475.19
453.80	469.39
454.17	463.83
454.54	458.67
454.91	452.82
455.28	447.32
455.65	442.11
456.02	436.58
456.38	432.12
456.75	426.34
457.12	421.68
457.49	416.98
457.86	412.49
458.23	408.56
458.59	404.22
458.96	399.75
459.33	395.80
459.70	391.76
460.07	388.70
460.43	385.08
460.80	381.68
461.17	378.69
461.54	375.47
461.91	372.45
462.27	369.38
462.64	366.87
463.01	364.00
463.38	361.11
463.74	358.48
464.11	356.14
464.48	354.03
464.85	351.77
465.21	350.04
465.58	348.13
465.95	345.91
466.32	344.14
466.68	342.42
467.05	340.68
467.42	339.01
467.78	337.20
468.15	335.54
468.52	334.30
468.88	332.68
469.25	331.19
469.62	330.01
469.98	328.73
470.35	327.58
470.72	326.55
471.08	325.51
471.45	324.63
471.82	323.67
472.18	322.68
472.55	322.04
472.92	321.24
473.28	320.62
473.65	319.98
474.02	319.37
474.38	318.87
474.75	318.59
475.11	318.17
475.48	318.02
475.85	317.85
476.21	317.80
476.58	317.80
476.94	317.98
477.31	318.09
477.67	318.24
478.04	318.50
478.41	318.83
478.77	319.28
479.14	319.62
479.50	320.17
479.87	320.85
480.23	321.53
480.60	322.19
480.96	322.88
481.33	323.84
481.69	324.79
482.06	325.74
482.42	326.62
482.79	327.70
483.15	328.92
483.52	330.29
483.88	331.62
484.25	333.04
484.61	334.51
484.98	336.10
485.34	337.88
485.71	339.72
486.07	341.68
486.44	343.64
486.80	345.82
487.17	348.04
487.53	350.48
487.90	353.02
488.26	355.77
488.62	358.66
488.99	361.57
489.35	364.60
489.72	367.88
490.08	371.33
490.44	374.86
490.81	378.56
491.17	382.36
491.54	386.41
491.90	390.56
492.26	395.02
492.63	399.73
492.99	404.62
493.36	409.64
493.72	414.94
494.08	420.35
494.45	426.07
494.81	432.01
495.17	438.07
495.54	444.47
495.90	451.18
496.26	458.03
496.63	465.11
496.99	472.47
497.35	480.19
497.72	488.22
498.08	496.40
498.44	504.85
498.80	513.84
499.17	523.06
499.53	532.62
499.89	542.40
500.26	552.35
500.62	562.58
500.98	573.47
501.34	584.51
501.71	596.08
502.07	607.87
502.43	620.06
502.79	632.60
503.16	645.52
503.52	658.65
503.88	672.14
504.24	686.06
504.60	700.29
504.97	714.89
505.33	729.85
505.69	745.71
506.05	761.77
506.41	777.84
506.78	794.22
507.14	811.07
507.50	828.53
507.86	846.37
508.22	864.46
508.59	882.58
508.95	901.41
509.31	920.67
509.67	940.62
510.03	960.81
510.39	981.20
510.75	1001.84
511.12	1022.74
511.48	1044.02
511.84	1065.35
512.20	1086.97
512.56	1109.69
512.92	1132.67
513.28	1155.39
513.64	1178.40
514.00	1201.81
514.37	1225.57
514.73	1249.32
515.09	1272.91
515.45	1296.92
515.81	1321.50
516.17	1346.15
516.53	1370.48
516.89	1394.88
517.25	1419.46
517.61	1444.22
517.97	1469.19
518.33	1493.90
518.69	1518.76
519.05	1543.88
519.41	1569.13
519.77	1594.67
520.13	1619.44
520.49	1644.35
520.85	1669.45
521.21	1694.51
521.57	1720.19
521.93	1745.12
522.29	1770.95
522.65	1796.48
523.01	1821.79
523.37	1846.41
523.73	1871.64
524.09	1897.01
524.45	1922.33
524.81	1947.19
525.17	1971.96
525.53	1996.30
525.89	2020.68
526.25	2045.26
526.61	2069.24
526.97	2093.60
527.33	2117.84
527.68	2141.95
528.04	2165.18
528.40	2188.31
528.76	2211.61
529.12	2233.85
529.48	2256.48
529.84	2277.24
530.20	2298.63
530.56	2319.70
530.91	2340.80
531.27	2361.39
531.63	2381.38
531.99	2400.85
532.35	2419.92
532.71	2439.11
533.07	2458.95
533.42	2477.17
533.78	2495.87
534.14	2514.48
534.50	2532.26
534.86	2550.68
535.21	2567.23
535.57	2583.83
535.93	2599.56
536.29	2614.18
536.65	2629.54
537.00	2643.80
537.36	2658.58
537.72	2672.25
538.08	2685.71
538.44	2698.00
538.79	2710.46
539.15	2721.30
539.51	2732.08
539.87	2742.52
540.22	2750.88
540.58	2759.22
540.94	2768.25
541.29	2775.67
541.65	2782.17
542.01	2788.12
542.37	2792.19
542.72	2798.17
543.08	2803.60
543.44	2808.98
543.79	2813.38
544.15	2817.07
544.51	2820.67
544.87	2823.42
545.22	2825.73
545.58	2826.97
545.94	2828.66
546.29	2828.97
546.65	2829.46
547.01	2829.89
547.36	2830.52
547.72	2831.28
548.07	2830.58
548.43	2829.20
548.79	2827.18
549.14	2825.30
549.50	2823.87
549.86	2821.76
550.21	2817.08
550.57	2812.89
550.92	2807.28
551.28	2802.32
551.64	2797.17
551.99	2792.51
552.35	2787.39
552.70	2781.88
553.06	2777.10
553.41	2771.87
553.77	2766.09
554.13	2760.83
554.48	2754.84
554.84	2747.07
555.19	2739.44
555.55	2731.24
555.90	2723.59
556.26	2717.00
556.61	2709.74
556.97	2700.41
557.32	2691.82
557.68	2683.79
558.03	2675.01
558.39	2666.89
558.74	2659.05
559.10	2649.91
559.45	2640.50
559.81	2631.37
560.16	2621.59
560.52	2611.30
560.87	2602.00
561.23	2592.38
561.58	2582.28
561.94	2571.88
562.29	2561.03
562.64	2550.75
563.00	2540.85
563.35	2530.81
563.71	2519.88
564.06	2508.37
564.42	2497.92
564.77	2487.08
565.12	2476.36
565.48	2465.35
565.83	2455.05
566.19	2444.67
566.54	2434.04
566.89	2422.35
567.25	2410.65
567.60	2399.83
567.96	2388.60
568.31	2375.99
568.66	2363.19
569.02	2351.48
569.37	2339.59
569.72	2328.22
570.08	2316.10
570.43	2303.45
570.78	2290.54
571.14	2277.36
571.49	2265.00
571.84	2252.93
572.20	2239.55
572.55	2226.52
572.90	2213.41
573.26	2199.46
573.61	2184.93
573.96	2170.59
574.31	2156.68
574.67	2143.00
575.02	2128.86
575.37	2114.31
575.72	2100.02
576.08	2086.43
576.43	2071.75
576.78	2057.03
577.13	2043.15
577.49	2029.40
577.84	2015.98
578.19	2001.70
578.54	1987.03
578.90	1971.86
579.25	1956.40
579.60	1942.39
579.95	1928.04
580.30	1913.69
580.66	1899.59
581.01	1885.11
581.36	1871.02
581.71	1857.47
582.06	1843.44
582.42	1829.42
582.77	1816.18
583.12	1802.66
583.47	1789.07
583.82	1775.63
584.17	1762.11
584.53	1748.41
584.88	1734.66
585.23	1720.64
585.58	1707.10
585.93	1694.01
586.28	1681.72
586.63	1669.29
586.98	1656.12
587.34	1643.21
587.69	1629.78
588.04	1616.52
588.39	1604.01
588.74	1591.00
589.09	1577.73
589.44	1564.40
589.79	1551.70
590.14	1538.81
590.49	1526.09
590.84	1513.30
591.19	1501.16
591.54	1488.51
591.89	1475.72
592.25	1463.31
592.60	1450.42
592.95	1438.12
593.30	1426.09
593.65	1413.88
594.00	1401.82
594.35	1390.62
594.70	1378.52
595.05	1367.55
595.40	1356.47
595.75	1344.74
596.10	1333.76
596.45	1323.01
596.80	1312.74
597.15	1302.23
597.50	1291.76
597.85	1281.48
598.19	1271.38
598.54	1260.66
598.89	1250.68
599.24	1241.03
599.59	1231.10
599.94	1222.22
600.29	1213.23
600.64	1204.03
600.99	1194.24
601.34	1184.95
601.69	1174.99
602.04	1166.18
602.39	1157.15
602.74	1148.36
603.08	1139.85
603.43	1130.85
603.78	1121.71
604.13	1112.74
604.48	1103.70
604.83	1094.93
605.18	1086.06
605.53	1077.12
605.87	1068.33
606.22	1059.81
606.57	1051.02
606.92	1042.31
607.27	1033.49
607.62	1024.73
607.96	1016.16
608.31	1008.55
608.66	1000.52
609.01	992.95
609.36	985.31
609.70	977.48
610.05	969.46
610.40	961.79
610.75	954.27
611.10	947.02
611.44	939.35
611.79	932.01
612.14	924.28
612.49	916.68
612.83	909.59
613.18	902.56
613.53	895.32
613.88	888.15
614.22	881.57
614.57	874.84
614.92	868.09
615.27	861.37
615.61	854.50
615.96	847.88
616.31	841.16
616.65	834.33
617.00	827.75
617.35	821.30
617.70	814.88
618.04	808.51
618.39	802.18
618.74	796.18
619.08	789.99
619.43	784.07
619.78	778.20
620.12	772.10
620.47	766.17
620.82	760.30
621.16	754.78
621.51	748.92
621.85	743.04
622.20	737.19
622.55	731.53
622.89	725.85
623.24	720.18
623.59	714.61
623.93	709.08
624.28	703.69
624.62	698.29
624.97	692.87
625.32	687.57
625.66	682.13
626.01	676.69
626.35	671.40
626.70	666.12
627.04	661.02
627.39	655.98
627.73	651.05
628.08	646.35
628.43	641.54
628.77	636.81
629.12	632.17
629.46	627.75
629.81	623.15
630.15	618.42
630.50	613.84
630.84	609.43
631.19	605.21
631.53	601.05
631.88	596.76
632.22	592.58
632.57	588.64
632.91	584.65
633.26	580.76
633.60	576.94
633.95	573.21
634.29	569.36
634.64	565.46
634.98	561.45
635.32	557.62
635.67	553.92
636.01	550.16
636.36	546.43
636.70	542.84
637.05	539.24
637.39	535.85
637.73	532.34
638.08	528.90
638.42	525.43
638.77	521.81
639.11	518.21
639.45	514.63
639.80	511.03
640.14	507.64
640.49	504.20
640.83	500.65
641.17	497.13
641.52	493.79
641.86	490.46
642.20	487.28
642.55	483.96
642.89	480.70
643.23	477.66
643.58	474.85
643.92	471.91
644.26	469.02
644.61	466.11
644.95	463.21
645.29	460.25
645.64	457.26
645.98	454.41
646.32	451.72
646.66	449.05
647.01	446.36
647.35	443.71
647.69	440.95
648.04	438.31
648.38	435.73
648.72	433.10
649.06	430.54
649.41	428.02
649.75	425.49
650.09	422.99
650.43	420.50
650.78	417.98
651.12	415.46
651.46	413.03
651.80	410.69
652.14	408.44
652.49	406.20
652.83	404.01
653.17	401.82
653.51	399.69
653.85	397.62
654.20	395.51
654.54	393.29
654.88	391.27
655.22	389.32
655.56	387.33
655.90	385.44
656.25	383.56
656.59	381.66
656.93	379.87
657.27	378.13
657.61	376.28
657.95	374.49
658.29	372.71
658.64	370.97
658.98	369.20
659.32	367.45
659.66	365.81
660.00	364.19
660.34	362.59
660.68	360.94
661.02	359.22
661.36	357.61
661.70	356.08
662.05	354.54
662.39	352.97
662.73	351.50
663.07	350.05
663.41	348.62
663.75	347.22
664.09	345.82
664.43	344.34
664.77	342.95
665.11	341.51
665.45	340.14
665.79	338.77
666.13	337.40
666.47	336.01
666.81	334.60
667.15	333.15
667.49	331.80
667.83	330.51
668.17	329.25
668.51	328.03
668.85	326.81
669.19	325.67
669.53	324.46
669.87	323.22
670.21	322.01
670.55	320.83
670.89	319.71
671.23	318.55
671.57	317.42
671.91	316.33
672.25	315.31
672.58	314.29
672.92	313.23
673.26	312.23
673.60	311.25
673.94	310.26
674.28	309.32
674.62	308.38
674.96	307.40
675.30	306.49
675.64	305.54
675.97	304.62
676.31	303.65
676.65	302.71
676.99	301.83
677.33	300.90
677.67	300.02
678.01	299.05
678.34	298.16
678.68	297.34
679.02	296.48
679.36	295.62
679.70	294.77
680.04	293.95
680.37	293.11
680.71	292.31
681.05	291.55
681.39	290.77
681.73	289.94
682.06	289.14
682.40	288.36
682.74	287.61
683.08	286.89
683.42	286.14
683.75	285.47
684.09	284.71
684.43	284.01
684.77	283.29
685.10	282.62
685.44	281.94
685.78	281.23
686.12	280.58
686.45	279.90
686.79	279.23
687.13	278.59
687.46	277.91
687.80	277.26
688.14	276.58
688.48	275.94
688.81	275.31
689.15	274.73
689.49	274.11
689.82	273.50
690.16	272.84
690.50	272.23
690.83	271.63
691.17	271.04
691.51	270.48
691.84	269.93
692.18	269.34
692.52	268.75
692.85	268.18
693.19	267.65
693.52	267.10
693.86	266.56
694.20	266.03
694.53	265.52
694.87	264.99
695.21	264.49
695.54	263.99
695.88	263.48
696.21	262.93
696.55	262.43
696.88	261.93
697.22	261.45
697.56	260.98
697.89	260.44
698.23	259.95
698.56	259.43
698.90	258.97
699.23	258.49
699.57	258.05
699.90	257.60
700.24	257.11
700.58	256.68
700.91	256.27
701.25	255.93
701.58	255.56
701.92	255.18
702.25	254.77
702.59	254.35
702.92	253.95
703.26	253.57
703.59	253.18
703.93	252.87
704.26	252.50
704.60	252.13
704.93	251.77
705.26	251.42
705.60	251.10
705.93	250.72
706.27	250.42
706.60	250.10
706.94	249.79
707.27	249.42
707.61	249.08
707.94	248.72
708.27	248.29
708.61	247.91
708.94	247.55
709.28	247.23
709.61	246.90
709.94	246.61
710.28	246.32
710.61	246.04
710.95	245.66
711.28	245.45
711.61	245.16
711.95	244.91
712.28	244.63
712.61	244.33
712.95	244.12
713.28	243.89
713.61	243.62
713.95	243.33
714.28	243.10
714.61	242.84
714.95	242.60
715.28	242.34
715.61	242.10
715.95	241.88
716.28	241.64
716.61	241.43
716.95	241.19
717.28	240.96
717.61	240.73
717.94	240.51
718.28	240.22
718.61	239.99
718.94	239.76
719.27	239.54
719.61	239.35
719.94	239.12
720.27	238.86
720.60	238.66
720.94	238.46
721.27	238.27
721.60	238.10
721.93	237.91
722.27	237.76
722.60	237.60
722.93	237.40
723.26	237.23
723.59	237.02
723.93	236.86
724.26	236.70
724.59	236.52
724.92	236.36
725.25	236.24
725.59	236.08
725.92	235.94
726.25	235.79
726.58	235.64
726.91	235.47
727.24	235.34
727.57	235.19
727.91	235.03
728.24	234.89
728.57	234.74
728.90	234.61
729.23	234.43
729.56	234.34
729.89	234.20
730.22	234.06
730.55	233.92
730.89	233.78
731.22	233.64
731.55	233.50
731.88	233.37
732.21	233.23
732.54	233.09
732.87	232.97
733.20	232.85
733.53	232.73
733.86	232.63
734.19	232.50
734.52	232.40
734.85	232.37
735.18	232.23
735.51	232.15
735.84	232.04
736.17	231.96
736.50	231.79
736.83	231.81
737.16	231.71
737.49	231.62
737.82	231.52
738.15	231.45
738.48	231.35
738.81	231.25
739.14	231.14
739.47	231.04
739.80	230.93
740.13	230.84
740.46	230.73
740.79	230.61
741.12	230.52
741.45	230.41
741.78	230.26
742.11	230.21
742.44	230.09
742.77	230.01
743.10	229.91
743.43	229.81
743.75	229.61
744.08	229.68
744.41	229.59
744.74	229.50
745.07	229.39
745.40	229.32
745.73	229.29
746.06	229.22
746.39	229.16
746.71	229.07
747.04	228.99
747.37	228.92
747.70	228.87
748.03	228.79
748.36	228.74
748.68	228.67
749.01	228.56
749.34	228.49
749.67	228.42
750.00	228.36
750.33	228.38
750.65	228.32
750.98	228.10
751.31	228.04
751.64	227.98
751.97	227.97
752.29	227.90
752.62	227.78
752.95	227.71
753.28	227.62
753.60	227.55
753.93	227.51
754.26	227.46
754.59	227.36
754.91	227.28
755.24	227.21
755.57	227.19
755.90	227.13
756.22	227.06
756.55	226.99
756.88	226.91
757.20	226.78
757.53	226.69
757.86	226.64
758.19	226.59
758.51	226.52
758.84	226.42
759.17	226.36
759.49	226.32
759.82	226.32
760.15	226.28
760.47	226.24
760.80	226.16
761.13	226.13
761.45	226.09
761.78	226.04
762.11	226.00
762.43	225.90
762.76	225.86
763.08	225.83
763.41	225.79
763.74	225.75
764.06	225.71
764.39	225.67
764.71	225.63
765.04	225.58
765.37	225.53
765.69	225.49
766.02	225.45
766.34	225.40
766.67	225.32
767.00	225.29
767.32	225.31
767.65	225.33
767.97	225.28
768.30	225.25
768.62	225.21
768.95	225.16
769.27	225.12
769.60	225.10
769.92	225.04
770.25	224.99
770.57	224.94
770.90	224.90
771.22	224.86
771.55	224.83
771.87	224.80
772.20	224.77
772.52	224.82
772.85	224.92
773.17	224.89
773.50	224.86
773.82	224.81
774.15	224.73
774.47	224.64
774.80	224.60
775.12	224.57
775.45	224.54
775.77	224.52
776.09	224.50
776.42	224.47
776.74	224.48
777.07	224.45
777.39	224.43
777.72	224.40
778.04	224.39
778.36	224.35
778.69	224.33
779.01	224.31
779.33	224.19
779.66	224.05
779.98	224.02
780.31	224.00
780.63	224.03
780.95	224.02
781.28	224.00
781.60	223.97
781.92	223.95
782.25	223.93
782.57	223.91
782.89	223.88
783.22	223.86
783.54	223.81
783.86	223.80
784.19	223.78
784.51	223.79
784.83	223.75
785.16	223.74
785.48	223.72
785.80	223.70
786.12	223.69
786.45	223.67
786.77	223.66
787.09	223.64
787.42	223.58
787.74	223.56
788.06	223.55
788.38	223.53
788.71	223.51
789.03	223.50
789.35	223.49
789.67	223.46
789.99	223.45
790.32	223.43
790.64	223.42
790.96	223.50
791.28	223.45
791.61	223.43
791.93	223.43
792.25	223.40
792.57	223.46
792.89	223.43
793.21	223.43
793.54	223.40
793.86	223.38
794.18	223.37
794.50	223.34
794.82	223.33
795.14	223.33
795.47	223.34
795.79	223.33
796.11	223.29
796.43	223.27
796.75	223.26
797.07	223.26
797.39	223.23
797.71	223.13
798.04	223.13
798.36	223.12
798.68	223.10
799.00	223.10
799.32	223.04
799.64	223.05
799.96	223.03
800.28	223.04
800.60	223.03
800.92	223.02
801.24	223.01
801.56	223.00
801.89	222.98
802.21	222.97
802.53	222.95
802.85	222.96
803.17	223.00
803.49	222.97
803.81	222.95
804.13	222.94
804.45	222.91
804.77	222.91
805.09	222.90
805.41	222.89
805.73	222.86
806.05	222.82
806.37	222.80
806.69	222.79
807.01	222.76
807.33	222.76
807.65	222.71
807.97	222.75
808.28	222.73
808.60	222.72
808.92	222.70
809.24	222.76
809.56	222.73
809.88	222.69
810.20	222.69
810.52	222.70
810.84	222.68
811.16	222.66
811.48	222.64
811.80	222.68
812.12	222.67
812.43	222.68
812.75	222.68
813.07	222.67
813.39	222.66
813.71	222.64
814.03	222.63
814.35	222.63
814.67	222.58
814.98	222.57
815.30	222.56
815.62	222.54
815.94	222.46
816.26	222.47
816.58	222.44
816.89	222.44
817.21	222.41
817.53	222.41
817.85	222.41
818.17	222.40
818.48	222.36
818.80	222.37
819.12	222.34
819.44	222.32
819.76	222.31
820.07	222.31
820.39	222.30
820.71	222.31
821.03	222.30
821.34	222.29
821.66	222.30
821.98	222.30
822.30	222.29
822.61	222.35
822.93	222.33
823.25	222.33
823.57	222.31
823.88	222.32
824.20	222.32
824.52	222.33
824.83	222.32
825.15	222.31
825.47	222.29
825.79	222.30
826.10	222.29
826.42	222.28
826.74	222.28
827.05	222.28
827.37	222.27
827.69	222.26
828.00	222.27
828.32	222.26
828.64	222.25
828.95	222.30
829.27	222.26
829.58	222.26
829.90	222.28
830.22	222.28
830.53	222.26
830.85	222.25
831.17	222.22
831.48	222.21
831.80	222.22
832.11	222.21
832.43	222.20
832.75	222.19
833.06	222.25
833.38	222.22
833.69	222.22
834.01	222.22
834.32	222.21
834.64	222.20
834.96	222.20
835.27	222.19
835.59	222.15
835.90	222.14
836.22	222.13
836.53	222.11
836.85	222.10
837.16	222.21
837.48	222.20
837.79	222.23
838.11	222.23
838.42	222.23
838.74	222.24
839.05	222.24
839.37	222.23
839.68	222.16
840.00	222.16
840.31	222.17
840.63	222.16
840.94	222.15
841.26	222.14
841.57	222.13
841.88	222.14
842.20	222.12
842.51	222.11
842.83	222.11
843.14	222.20
843.46	222.19
843.77	222.13
844.08	222.13
844.40	222.09
844.71	222.08
845.03	222.07
845.34	222.05
845.65	222.05
845.97	222.05
846.28	222.05
846.60	222.06
846.91	222.04
847.22	222.03
847.54	222.05
847.85	222.06
848.16	222.05
848.48	222.03
848.79	222.07
849.10	222.08
849.42	222.09
849.73	221.98
850.04	221.98
850.36	221.94
850.67	221.96
850.98	221.97
851.30	221.97
851.61	221.97
851.92	221.97
852.23	222.00
852.55	222.00
852.86	222.00
853.17	222.01
853.49	222.03
853.80	222.06
854.11	222.06
854.42	222.07
854.74	222.06
855.05	222.07
855.36	222.01
855.67	222.01
855.99	222.01
856.30	222.13
856.61	222.13
856.92	222.13
857.23	222.13
857.55	222.11
857.86	222.10
858.17	222.12
858.48	222.10
858.79	222.08
859.11	222.09
859.42	222.08
859.73	222.07
860.04	222.06
860.35	222.02
860.66	221.98
860.98	221.98
861.29	221.99
861.60	221.98
861.91	222.01
862.22	221.99
862.53	221.97
862.84	221.85
863.16	221.87
863.47	221.85
863.78	221.84
864.09	221.85
864.40	221.85
864.71	221.85
865.02	221.86
865.33	221.85
865.64	221.83
865.95	221.83
866.27	221.89
866.58	221.88
866.89	221.89
867.20	221.89
867.51	221.88
867.82	221.87
868.13	221.90
868.44	221.88
868.75	221.90
869.06	221.90
869.37	221.91
869.68	221.88
869.99	221.90
870.30	221.91
870.61	221.92
870.92	221.90
871.23	221.89
871.54	221.90
871.85	221.93
872.16	221.94
872.47	221.93
872.78	221.88
873.09	221.89
873.40	221.88
873.71	221.89
874.02	221.90
874.33	221.89
874.64	221.86
874.95	221.88
875.26	221.86
875.56	221.85
875.87	221.85
876.18	221.84
876.49	221.94
876.80	221.93
877.11	221.91
877.42	221.92
877.73	221.92
878.04	221.90
878.35	221.90
878.66	221.89
878.96	221.89
879.27	221.89
879.58	221.87
879.89	221.87
880.20	221.89
880.51	221.89
880.82	221.89
881.12	221.90
881.43	221.87
881.74	221.86
882.05	221.86
882.36	221.86
882.67	221.87
882.97	221.75
883.28	221.75
883.59	221.75
883.90	221.75
884.21	221.77
884.51	221.76
884.82	221.74
885.13	221.75
885.44	221.74
885.74	221.74
886.05	221.74
886.36	221.74
886.67	221.70
886.98	221.75
887.28	221.76
887.59	221.75
887.90	221.76
888.20	221.75
888.51	221.77
888.82	221.76
889.13	221.76
889.43	221.86
889.74	221.85
890.05	221.85
890.35	221.84
890.66	221.82
890.97	221.80
891.28	221.80
891.58	221.80
891.89	221.80
892.20	221.78
892.50	221.77
892.81	221.77
893.12	221.77
893.42	221.71
893.73	221.72
894.04	221.72
894.34	221.73
894.65	221.72
894.95	221.71
895.26	221.72
895.57	221.76
895.87	221.65
896.18	221.67
896.48	221.68
896.79	221.67
897.10	221.69
897.40	221.69
897.71	221.70
898.01	221.69
898.32	221.70
898.63	221.70
898.93	221.70
899.24	221.71
899.54	221.70
899.85	221.70
900.15	221.69
900.46	221.69
900.76	221.69
901.07	221.69
901.38	221.69
901.68	221.70
901.99	221.64
902.29	221.65
902.60	221.64
902.90	221.63
903.21	221.63
903.51	221.62
903.82	221.64
904.12	221.64
904.43	221.65
904.73	221.64
905.03	221.65
905.34	221.75
905.64	221.74
905.95	221.74
906.25	221.74
906.56	221.74
906.86	221.74
907.17	221.73
907.47	221.73
907.77	221.72
908.08	221.70
908.38	221.71
908.69	221.72
908.99	221.74
909.30	221.74
909.60	221.74
909.90	221.75
910.21	221.72
910.51	221.70
910.81	221.70
911.12	221.71
911.42	221.71
911.73	221.59
912.03	221.60
912.33	221.62
912.64	221.61
912.94	221.60
913.24	221.59
913.55	221.58
913.85	221.57
914.15	221.59
914.46	221.61
914.76	221.59
915.06	221.59
915.37	221.56
915.67	221.55
915.97	221.56
916.27	221.54
916.58	221.54
916.88	221.54
917.18	221.53
917.49	221.60
917.79	221.60
918.09	221.61
918.39	221.63
918.70	221.63
919.00	221.63
919.30	221.69
919.60	221.68
919.91	221.67
920.21	221.68
920.51	221.66
920.81	221.65
921.12	221.67
921.42	221.66
921.72	221.67
922.02	221.67
922.32	221.69
922.63	221.69
922.93	221.75
923.23	221.75
923.53	221.74
923.83	221.67
924.13	221.68
924.44	221.68
924.74	221.70
925.04	221.72
925.34	221.72
925.64	221.67
925.94	221.67
926.24	221.73
926.55	221.72
926.85	221.73
927.15	221.73
927.45	221.73
927.75	221.73
928.05	221.73
928.35	221.72
928.65	221.73
928.95	221.74
929.26	221.69
929.56	221.71
929.86	221.73
930.16	221.72
930.46	221.71
930.76	221.71
931.06	221.66
931.36	221.64
931.66	221.65
931.96	221.66
932.26	221.67
932.56	221.63
932.86	221.63
933.16	221.63
933.46	221.62
933.76	221.61
934.06	221.63
934.36	221.66
934.66	221.66
934.96	221.65
935.26	221.65
935.56	221.66
935.86	221.63
936.16	221.62
936.46	221.61
936.76	221.60
937.06	221.59
937.36	221.59
937.66	221.60
937.96	221.59
938.26	221.56
938.56	221.55
938.86	221.56
939.16	221.58
939.46	221.59
939.76	221.59
940.06	221.59
940.35	221.57
940.65	221.52
940.95	221.53
941.25	221.51
941.55	221.50
941.85	221.49
942.15	221.51
942.45	221.54
942.75	221.55
943.04	221.55
943.34	221.57
943.64	221.57
943.94	221.55
944.24	221.55
944.54	221.56
944.84	221.56
945.13	221.55
945.43	221.53
945.73	221.52
946.03	221.51
946.33	221.50
946.62	221.49
946.92	221.49
947.22	221.49
947.52	221.50
947.82	221.51
948.11	221.50
948.41	221.48
948.71	221.44
949.01	221.45
949.31	221.44
949.60	221.42
949.90	221.44
950.20	221.43
950.50	221.43
950.79	221.42
951.09	221.43
951.39	221.43
951.69	221.42
951.98	221.44
952.28	221.45
952.58	221.44
952.87	221.45
953.17	221.46
953.47	221.45
953.76	221.44
954.06	221.42
954.36	221.41
954.66	221.41
954.95	221.44
955.25	221.44
955.55	221.45
955.84	221.43
956.14	221.44
956.44	221.45
956.73	221.43
957.03	221.44
957.32	221.44
957.62	221.44
957.92	221.46
958.21	221.44
958.51	221.56
958.81	221.58
959.10	221.59
959.40	221.61
959.69	221.62
959.99	221.64
960.29	221.64
960.58	221.64
960.88	221.68
961.17	221.67
961.47	221.68
961.76	221.67
962.06	221.69
962.36	221.68
962.65	221.68
962.95	221.68
963.24	221.68
963.54	221.68
963.83	221.69
964.13	221.68
964.42	221.67
964.72	221.58
965.01	221.58
965.31	221.57
965.60	221.55
965.90	221.61
966.19	221.58
966.49	221.59
966.78	221.59
967.08	221.57
967.37	221.58
967.67	221.56
967.96	221.57
968.26	221.57
968.55	221.58
968.85	221.58
969.14	221.58
969.43	221.57
969.73	221.56
970.02	221.55
970.32	221.54
970.61	221.53
970.91	221.50
971.20	221.48
971.49	221.47
971.79	221.48
972.08	221.41
972.38	221.42
972.67	221.41
972.96	221.43
973.26	221.41
973.55	221.44
973.85	221.44
974.14	221.43
974.43	221.43
974.73	221.41
975.02	221.40
975.31	221.40
975.61	221.40
975.90	221.40
976.19	221.39
976.49	221.40
976.78	221.41
977.07	221.41
977.37	221.42
977.66	221.43
977.95	221.42
978.24	221.43
978.54	221.45
978.83	221.44
979.12	221.43
979.42	221.43
979.71	221.41
980.00	221.41
980.29	221.41
980.59	221.39
980.88	221.42
981.17	221.42
981.46	221.42
981.76	221.42
982.05	221.45
982.34	221.46
982.63	221.46
982.93	221.46
983.22	221.48
983.51	221.49
983.80	221.50
984.09	221.51
984.39	221.50
984.68	221.49
984.97	221.49
985.26	221.48
985.55	221.49
985.85	221.47
986.14	221.49
986.43	221.50
986.72	221.50
987.01	221.46
987.30	221.46
987.59	221.45
987.89	221.46
988.18	221.43
988.47	221.42
988.76	221.41
989.05	221.40
989.34	221.38
989.63	221.40
989.92	221.38
990.22	221.37
990.51	221.37
990.80	221.36
991.09	221.37
991.38	221.39
991.67	221.38
991.96	221.37
992.25	221.37
992.54	221.35
992.83	221.35
993.12	221.35
993.41	221.36
993.70	221.40
993.99	221.42
994.28	221.43
994.58	221.45
994.87	221.44
995.16	221.44
995.45	221.43
995.74	221.39
996.03	221.41
996.32	221.42
996.61	221.44
996.90	221.44
997.19	221.44
997.48	221.44
997.77	221.43
998.06	221.44
998.34	221.43
998.63	221.43
998.92	221.43
999.21	221.45
999.50	221.45
999.79	221.41
1000.08	221.41
1000.37	221.41
1000.66	221.39
1000.95	221.42
1001.24	221.43
1001.53	221.45
1001.82	221.45
1002.11	221.43
1002.40	221.43
1002.68	221.45
1002.97	221.53
1003.26	221.51
1003.55	221.50
1003.84	221.51
1004.13	221.55
1004.42	221.54
1004.71	221.54
1004.99	221.54
1005.28	221.56
1005.57	221.55
1005.86	221.55
1006.15	221.54
1006.44	221.52
1006.72	221.54
1007.01	221.51
1007.30	221.51
1007.59	221.50
1007.88	221.50
1008.17	221.50
1008.45	221.47
1008.74	221.43
1009.03	221.38
1009.32	221.38
1009.60	221.39
1009.89	221.37
1010.18	221.33
1010.47	221.33
1010.76	221.33
1011.04	221.33
1011.33	221.33
1011.62	221.34
1011.91	221.34
1012.19	221.34
1012.48	221.35
1012.77	221.35
1013.05	221.38
1013.34	221.38
1013.63	221.38
1013.92	221.39
1014.20	221.39
1014.49	221.39
1014.78	221.40
1015.06	221.37
1015.35	221.38
1015.64	221.39
1015.92	221.40
1016.21	221.41
1016.50	221.41
1016.78	221.42
1017.07	221.43
1017.36	221.41
1017.64	221.39
1017.93	221.40
1018.22	221.39
1018.50	221.39
1018.79	221.39
1019.08	221.35
1019.36	221.36
1019.65	221.35
1019.93	221.37
1020.22	221.39
1020.51	221.44
1020.79	221.42
1021.08	221.26
1021.36	221.19
1021.65	221.40
1021.94	221.32
1022.22	221.48
1022.51	221.12
1022.79	221.87
1023.08	221.53
1023.36	222.57
1023.65	221.06
>>>>>End Processed Spectral Data<<<<<
