SpectraSuite Data File
++++++++++++++++++++++++++++++++++++
Date: Wed Sep 30 16:26:40 EDT 2015
User: lab3
Dark Spectrum Present: No
Reference Spectrum Present: No
Number of Sampled Component Spectra: 1
Spectrometers: USB2E7196
Integration Time (usec): 36000 (USB2E7196)
Spectra Averaged: 3000 (USB2E7196)
Boxcar Smoothing: 10 (USB2E7196)
Correct for Electrical Dark: No (USB2E7196)
Strobe/Lamp Enabled: No (USB2E7196)
Correct for Detector Non-linearity: No (USB2E7196)
Correct for Stray Light: No (USB2E7196)
Number of Pixels in Processed Spectrum: 2048
>>>>>Begin Processed Spectral Data<<<<<
339.09	0.00
339.48	211.71
339.86	213.07
340.24	214.54
340.63	215.87
341.01	218.85
341.39	218.64
341.78	220.04
342.16	221.06
342.54	221.55
342.93	210.14
343.31	220.76
343.69	221.29
344.07	221.75
344.46	222.17
344.84	222.56
345.22	222.80
345.60	223.05
345.99	223.24
346.37	223.38
346.75	223.49
347.13	223.57
347.52	223.62
347.90	223.70
348.28	223.74
348.66	223.79
349.05	223.79
349.43	223.83
349.81	223.88
350.19	223.94
350.57	224.00
350.96	224.08
351.34	224.17
351.72	224.26
352.10	224.37
352.48	224.44
352.87	224.48
353.25	224.54
353.63	224.60
354.01	224.66
354.39	224.73
354.77	224.80
355.15	224.90
355.54	224.95
355.92	224.99
356.30	225.05
356.68	225.18
357.06	225.25
357.44	225.31
357.82	225.36
358.20	225.47
358.58	225.53
358.97	225.59
359.35	225.67
359.73	225.75
360.11	225.80
360.49	225.86
360.87	225.91
361.25	225.97
361.63	226.05
362.01	226.09
362.39	226.12
362.77	226.16
363.15	226.18
363.53	226.22
363.91	226.25
364.29	226.27
364.67	226.19
365.05	226.21
365.43	226.25
365.81	226.28
366.19	226.29
366.57	226.34
366.95	226.34
367.33	226.32
367.71	226.31
368.09	226.32
368.47	226.32
368.85	226.31
369.23	226.31
369.61	226.25
369.99	226.28
370.37	226.28
370.75	226.33
371.13	226.30
371.51	226.26
371.89	226.25
372.27	226.22
372.65	226.20
373.03	226.16
373.41	226.11
373.78	226.06
374.16	225.97
374.54	225.89
374.92	225.84
375.30	225.79
375.68	225.73
376.06	225.69
376.44	225.63
376.82	225.59
377.19	225.54
377.57	225.50
377.95	225.40
378.33	225.34
378.71	225.20
379.09	225.15
379.47	225.12
379.84	225.05
380.22	224.99
380.60	224.92
380.98	224.87
381.36	224.82
381.73	224.76
382.11	224.73
382.49	224.69
382.87	224.63
383.25	224.58
383.62	224.66
384.00	224.59
384.38	224.55
384.76	224.53
385.13	224.51
385.51	224.48
385.89	224.44
386.27	224.41
386.64	224.39
387.02	224.35
387.40	224.30
387.78	224.27
388.15	224.25
388.53	224.22
388.91	224.20
389.29	224.16
389.66	224.16
390.04	224.12
390.42	224.12
390.79	224.10
391.17	224.08
391.55	223.94
391.92	223.94
392.30	223.93
392.68	223.90
393.05	223.88
393.43	223.87
393.81	223.86
394.18	223.84
394.56	223.84
394.94	223.87
395.31	223.87
395.69	223.91
396.06	223.92
396.44	223.94
396.82	223.94
397.19	224.02
397.57	224.03
397.95	224.07
398.32	224.06
398.70	224.10
399.07	224.16
399.45	224.19
399.82	224.23
400.20	224.26
400.58	224.31
400.95	224.32
401.33	224.40
401.70	224.53
402.08	224.62
402.45	224.70
402.83	224.80
403.20	224.91
403.58	224.98
403.95	225.11
404.33	225.24
404.71	225.37
405.08	225.55
405.46	225.69
405.83	225.85
406.21	226.01
406.58	226.20
406.96	226.38
407.33	226.59
407.70	226.84
408.08	227.16
408.45	227.44
408.83	227.74
409.20	228.02
409.58	228.26
409.95	228.60
410.33	228.96
410.70	229.30
411.08	229.71
411.45	230.14
411.82	230.57
412.20	231.07
412.57	231.66
412.95	232.12
413.32	232.72
413.69	233.35
414.07	234.01
414.44	234.73
414.82	235.47
415.19	236.33
415.56	237.20
415.94	238.11
416.31	239.12
416.68	240.14
417.06	241.32
417.43	242.43
417.81	243.70
418.18	245.00
418.55	246.42
418.93	247.89
419.30	249.42
419.67	251.06
420.04	252.75
420.42	254.51
420.79	256.54
421.16	258.59
421.54	260.68
421.91	262.85
422.28	265.11
422.66	267.54
423.03	269.86
423.40	272.30
423.77	274.92
424.15	277.60
424.52	280.39
424.89	283.42
425.26	286.43
425.64	289.21
426.01	292.35
426.38	295.55
426.75	298.87
427.13	302.26
427.50	305.81
427.87	309.49
428.24	313.21
428.61	316.77
428.99	320.61
429.36	324.83
429.73	328.86
430.10	332.88
430.47	336.99
430.85	341.21
431.22	345.71
431.59	350.33
431.96	354.82
432.33	359.81
432.70	364.53
433.08	370.11
433.45	375.38
433.82	380.56
434.19	386.36
434.56	392.04
434.93	397.51
435.30	402.91
435.68	409.01
436.05	414.95
436.42	420.92
436.79	426.34
437.16	432.20
437.53	438.47
437.90	444.73
438.27	450.84
438.64	457.47
439.01	463.45
439.38	468.91
439.75	474.19
440.13	480.19
440.50	485.89
440.87	490.39
441.24	495.35
441.61	500.81
441.98	504.82
442.35	509.59
442.72	514.48
443.09	519.16
443.46	522.17
443.83	524.41
444.20	526.28
444.57	529.04
444.94	530.69
445.31	532.39
445.68	533.91
446.05	535.05
446.42	534.92
446.79	534.69
447.16	534.52
447.53	534.40
447.90	532.67
448.27	531.07
448.64	528.50
449.01	526.82
449.37	523.11
449.74	519.71
450.11	515.32
450.48	510.51
450.85	505.66
451.22	501.55
451.59	497.51
451.96	493.85
452.33	488.46
452.70	483.67
453.07	477.80
453.43	471.94
453.80	466.26
454.17	460.81
454.54	455.75
454.91	450.03
455.28	444.64
455.65	439.56
456.02	434.15
456.38	429.79
456.75	424.14
457.12	419.59
457.49	415.00
457.86	410.63
458.23	406.79
458.59	402.55
458.96	398.19
459.33	394.35
459.70	390.45
460.07	387.48
460.43	383.96
460.80	380.66
461.17	377.76
461.54	374.64
461.91	371.71
462.27	368.73
462.64	366.30
463.01	363.50
463.38	360.67
463.74	358.10
464.11	355.82
464.48	353.76
464.85	351.55
465.21	349.87
465.58	347.99
465.95	345.83
466.32	344.11
466.68	342.42
467.05	340.73
467.42	339.09
467.78	337.32
468.15	335.69
468.52	334.47
468.88	332.88
469.25	331.40
469.62	330.24
469.98	328.98
470.35	327.85
470.72	326.84
471.08	325.81
471.45	324.96
471.82	324.02
472.18	323.05
472.55	322.41
472.92	321.63
473.28	321.02
473.65	320.39
474.02	319.78
474.38	319.28
474.75	319.01
475.11	318.59
475.48	318.43
475.85	318.27
476.21	318.21
476.58	318.20
476.94	318.39
477.31	318.50
477.67	318.65
478.04	318.90
478.41	319.23
478.77	319.68
479.14	320.02
479.50	320.56
479.87	321.25
480.23	321.93
480.60	322.58
480.96	323.26
481.33	324.20
481.69	325.15
482.06	326.09
482.42	326.97
482.79	328.04
483.15	329.27
483.52	330.64
483.88	331.97
484.25	333.38
484.61	334.85
484.98	336.43
485.34	338.19
485.71	340.01
486.07	341.97
486.44	343.90
486.80	346.06
487.17	348.27
487.53	350.69
487.90	353.23
488.26	355.97
488.62	358.86
488.99	361.76
489.35	364.79
489.72	368.06
490.08	371.49
490.44	375.00
490.81	378.68
491.17	382.46
491.54	386.49
491.90	390.63
492.26	395.08
492.63	399.77
492.99	404.65
493.36	409.66
493.72	414.91
494.08	420.31
494.45	426.01
494.81	431.91
495.17	437.94
495.54	444.31
495.90	450.99
496.26	457.80
496.63	464.86
496.99	472.19
497.35	479.87
497.72	487.86
498.08	496.00
498.44	504.40
498.80	513.33
499.17	522.48
499.53	531.95
499.89	541.64
500.26	551.52
500.62	561.68
500.98	572.51
501.34	583.45
501.71	594.94
502.07	606.63
502.43	618.75
502.79	631.16
503.16	643.98
503.52	656.97
503.88	670.29
504.24	684.08
504.60	698.11
504.97	712.51
505.33	727.33
505.69	743.02
506.05	758.90
506.41	774.80
506.78	791.01
507.14	807.72
507.50	824.96
507.86	842.59
508.22	860.46
508.59	878.37
508.95	897.01
509.31	916.09
509.67	935.84
510.03	955.78
510.39	975.96
510.75	996.32
511.12	1016.97
511.48	1037.93
511.84	1059.06
512.20	1080.53
512.56	1103.09
512.92	1125.73
513.28	1148.11
513.64	1170.84
514.00	1194.03
514.37	1217.45
514.73	1240.93
515.09	1264.25
515.45	1287.97
515.81	1312.25
516.17	1336.51
516.53	1360.54
516.89	1384.61
517.25	1408.87
517.61	1433.34
517.97	1458.02
518.33	1482.54
518.69	1507.22
519.05	1532.19
519.41	1557.20
519.77	1582.50
520.13	1607.06
520.49	1631.85
520.85	1656.82
521.21	1681.62
521.57	1706.98
521.93	1731.68
522.29	1757.13
522.65	1782.38
523.01	1807.44
523.37	1831.68
523.73	1856.68
524.09	1881.91
524.45	1906.97
524.81	1931.51
525.17	1955.91
525.53	1979.97
525.89	2003.94
526.25	2028.11
526.61	2051.69
526.97	2075.62
527.33	2099.41
527.68	2122.99
528.04	2145.88
528.40	2168.57
528.76	2191.49
529.12	2213.41
529.48	2235.78
529.84	2256.35
530.20	2277.36
530.56	2298.02
530.91	2318.92
531.27	2339.25
531.63	2358.88
531.99	2377.98
532.35	2397.02
532.71	2416.20
533.07	2435.83
533.42	2454.00
533.78	2472.51
534.14	2491.04
534.50	2508.64
534.86	2526.91
535.21	2543.43
535.57	2559.71
535.93	2575.36
536.29	2589.67
536.65	2604.80
537.00	2618.87
537.36	2633.60
537.72	2647.32
538.08	2660.77
538.44	2673.09
538.79	2685.61
539.15	2696.32
539.51	2706.92
539.87	2716.85
540.22	2724.66
540.58	2732.80
540.94	2741.39
541.29	2748.61
541.65	2754.86
542.01	2760.68
542.37	2764.58
542.72	2770.40
543.08	2775.64
543.44	2780.71
543.79	2785.32
544.15	2788.88
544.51	2792.37
544.87	2794.90
545.22	2797.11
545.58	2798.25
545.94	2799.90
546.29	2800.07
546.65	2800.30
547.01	2800.78
547.36	2801.45
547.72	2802.39
548.07	2801.72
548.43	2800.52
548.79	2798.64
549.14	2796.66
549.50	2795.33
549.86	2792.95
550.21	2788.43
550.57	2784.40
550.92	2778.96
551.28	2774.02
551.64	2769.04
551.99	2764.35
552.35	2759.29
552.70	2753.75
553.06	2748.88
553.41	2743.40
553.77	2737.35
554.13	2732.23
554.48	2725.93
554.84	2718.26
555.19	2710.62
555.55	2702.34
555.90	2694.63
556.26	2687.95
556.61	2680.69
556.97	2671.24
557.32	2663.02
557.68	2654.79
558.03	2646.08
558.39	2638.16
558.74	2630.23
559.10	2621.30
559.45	2611.90
559.81	2602.69
560.16	2592.86
560.52	2582.75
560.87	2573.66
561.23	2564.17
561.58	2554.27
561.94	2544.29
562.29	2533.60
562.64	2523.46
563.00	2513.75
563.35	2503.88
563.71	2492.89
564.06	2481.62
564.42	2471.28
564.77	2460.53
565.12	2449.83
565.48	2438.87
565.83	2428.52
566.19	2418.35
566.54	2407.49
566.89	2395.99
567.25	2384.63
567.60	2374.04
567.96	2362.94
568.31	2350.55
568.66	2338.20
569.02	2326.81
569.37	2315.16
569.72	2304.08
570.08	2292.29
570.43	2279.93
570.78	2267.16
571.14	2254.50
571.49	2242.42
571.84	2230.58
572.20	2217.43
572.55	2204.92
572.90	2192.15
573.26	2178.48
573.61	2164.23
573.96	2150.36
574.31	2136.74
574.67	2123.26
575.02	2109.32
575.37	2095.06
575.72	2081.09
576.08	2067.48
576.43	2052.80
576.78	2038.24
577.13	2024.43
577.49	2010.74
577.84	1997.46
578.19	1983.44
578.54	1969.01
578.90	1954.06
579.25	1938.91
579.60	1925.25
579.95	1911.08
580.30	1897.02
580.66	1883.19
581.01	1868.89
581.36	1855.05
581.71	1841.84
582.06	1828.04
582.42	1814.50
582.77	1801.54
583.12	1788.05
583.47	1774.86
583.82	1761.74
584.17	1748.48
584.53	1735.14
584.88	1721.82
585.23	1708.05
585.58	1694.85
585.93	1681.92
586.28	1669.88
586.63	1657.56
586.98	1644.47
587.34	1631.62
587.69	1618.37
588.04	1605.41
588.39	1593.07
588.74	1580.13
589.09	1566.96
589.44	1553.91
589.79	1541.24
590.14	1528.54
590.49	1516.08
590.84	1503.43
591.19	1491.37
591.54	1478.85
591.89	1466.17
592.25	1453.78
592.60	1441.10
592.95	1428.91
593.30	1417.14
593.65	1405.11
594.00	1393.41
594.35	1382.34
594.70	1370.46
595.05	1359.51
595.40	1348.34
595.75	1336.70
596.10	1325.92
596.45	1315.38
596.80	1305.17
597.15	1294.78
597.50	1284.33
597.85	1274.12
598.19	1264.11
598.54	1253.60
598.89	1243.81
599.24	1234.25
599.59	1224.49
599.94	1215.74
600.29	1206.82
600.64	1197.65
600.99	1187.87
601.34	1178.55
601.69	1168.74
602.04	1160.09
602.39	1151.32
602.74	1142.82
603.08	1134.51
603.43	1125.69
603.78	1116.74
604.13	1107.93
604.48	1099.07
604.83	1090.51
605.18	1081.82
605.53	1073.05
605.87	1064.34
606.22	1055.88
606.57	1047.19
606.92	1038.51
607.27	1029.69
607.62	1021.06
607.96	1012.60
608.31	1005.23
608.66	997.42
609.01	989.99
609.36	982.40
609.70	974.59
610.05	966.65
610.40	959.07
610.75	951.54
611.10	944.25
611.44	936.63
611.79	929.29
612.14	921.57
612.49	914.04
612.83	906.97
613.18	900.00
613.53	892.88
613.88	885.86
614.22	879.46
614.57	872.82
614.92	866.14
615.27	859.49
615.61	852.66
615.96	846.07
616.31	839.41
616.65	832.67
617.00	826.16
617.35	819.76
617.70	813.40
618.04	807.17
618.39	800.93
618.74	795.03
619.08	788.95
619.43	783.11
619.78	777.27
620.12	771.26
620.47	765.43
620.82	759.67
621.16	754.18
621.51	748.34
621.85	742.53
622.20	736.80
622.55	731.23
622.89	725.53
623.24	719.91
623.59	714.36
623.93	708.90
624.28	703.62
624.62	698.29
624.97	692.91
625.32	687.65
625.66	682.28
626.01	676.90
626.35	671.64
626.70	666.44
627.04	661.48
627.39	656.53
627.73	651.67
628.08	647.05
628.43	642.25
628.77	637.52
629.12	632.94
629.46	628.53
629.81	623.93
630.15	619.29
630.50	614.79
630.84	610.48
631.19	606.31
631.53	602.17
631.88	597.95
632.22	593.83
632.57	589.92
632.91	585.94
633.26	582.05
633.60	578.26
633.95	574.60
634.29	570.73
634.64	566.85
634.98	562.88
635.32	559.05
635.67	555.40
636.01	551.71
636.36	548.03
636.70	544.50
637.05	540.97
637.39	537.62
637.73	534.11
638.08	530.69
638.42	527.25
638.77	523.69
639.11	520.08
639.45	516.53
639.80	512.99
640.14	509.62
640.49	506.23
640.83	502.69
641.17	499.21
641.52	495.90
641.86	492.59
642.20	489.46
642.55	486.15
642.89	482.94
643.23	479.93
643.58	477.16
643.92	474.24
644.26	471.36
644.61	468.45
644.95	465.57
645.29	462.61
645.64	459.63
645.98	456.79
646.32	454.14
646.66	451.47
647.01	448.79
647.35	446.16
647.69	443.41
648.04	440.84
648.38	438.27
648.72	435.65
649.06	433.12
649.41	430.61
649.75	428.12
650.09	425.64
650.43	423.16
650.78	420.65
651.12	418.14
651.46	415.72
651.80	413.42
652.14	411.17
652.49	408.95
652.83	406.78
653.17	404.59
653.51	402.46
653.85	400.40
654.20	398.28
654.54	396.09
654.88	394.08
655.22	392.12
655.56	390.12
655.90	388.23
656.25	386.35
656.59	384.46
656.93	382.68
657.27	380.92
657.61	379.07
657.95	377.28
658.29	375.50
658.64	373.74
658.98	371.97
659.32	370.23
659.66	368.58
660.00	366.94
660.34	365.34
660.68	363.69
661.02	361.97
661.36	360.38
661.70	358.85
662.05	357.28
662.39	355.72
662.73	354.24
663.07	352.79
663.41	351.34
663.75	349.95
664.09	348.54
664.43	347.07
664.77	345.70
665.11	344.27
665.45	342.92
665.79	341.55
666.13	340.18
666.47	338.79
666.81	337.40
667.15	335.97
667.49	334.63
667.83	333.34
668.17	332.10
668.51	330.85
668.85	329.62
669.19	328.49
669.53	327.28
669.87	326.03
670.21	324.82
670.55	323.62
670.89	322.49
671.23	321.33
671.57	320.19
671.91	319.10
672.25	318.06
672.58	317.02
672.92	315.96
673.26	314.96
673.60	313.98
673.94	312.97
674.28	312.03
674.62	311.09
674.96	310.10
675.30	309.18
675.64	308.24
675.97	307.31
676.31	306.33
676.65	305.41
676.99	304.54
677.33	303.62
677.67	302.75
678.01	301.79
678.34	300.91
678.68	300.09
679.02	299.21
679.36	298.35
679.70	297.51
680.04	296.68
680.37	295.84
680.71	295.05
681.05	294.31
681.39	293.52
681.73	292.69
682.06	291.91
682.40	291.13
682.74	290.38
683.08	289.65
683.42	288.92
683.75	288.25
684.09	287.49
684.43	286.79
684.77	286.07
685.10	285.41
685.44	284.72
685.78	284.02
686.12	283.37
686.45	282.70
686.79	282.03
687.13	281.38
687.46	280.71
687.80	280.06
688.14	279.36
688.48	278.73
688.81	278.10
689.15	277.51
689.49	276.89
689.82	276.28
690.16	275.61
690.50	275.01
690.83	274.39
691.17	273.79
691.51	273.21
691.84	272.64
692.18	272.05
692.52	271.44
692.85	270.86
693.19	270.33
693.52	269.77
693.86	269.23
694.20	268.69
694.53	268.17
694.87	267.63
695.21	267.12
695.54	266.60
695.88	266.08
696.21	265.53
696.55	265.02
696.88	264.52
697.22	264.03
697.56	263.54
697.89	263.00
698.23	262.50
698.56	261.99
698.90	261.53
699.23	261.04
699.57	260.61
699.90	260.15
700.24	259.66
700.58	259.22
700.91	258.80
701.25	258.45
701.58	258.07
701.92	257.68
702.25	257.26
702.59	256.84
702.92	256.45
703.26	256.05
703.59	255.64
703.93	255.33
704.26	254.95
704.60	254.56
704.93	254.21
705.26	253.84
705.60	253.52
705.93	253.14
706.27	252.83
706.60	252.49
706.94	252.17
707.27	251.80
707.61	251.44
707.94	251.08
708.27	250.64
708.61	250.26
708.94	249.90
709.28	249.58
709.61	249.25
709.94	248.94
710.28	248.64
710.61	248.35
710.95	247.97
711.28	247.75
711.61	247.46
711.95	247.19
712.28	246.90
712.61	246.60
712.95	246.38
713.28	246.15
713.61	245.87
713.95	245.57
714.28	245.32
714.61	245.06
714.95	244.81
715.28	244.55
715.61	244.31
715.95	244.07
716.28	243.82
716.61	243.62
716.95	243.38
717.28	243.15
717.61	242.91
717.94	242.69
718.28	242.39
718.61	242.16
718.94	241.93
719.27	241.71
719.61	241.50
719.94	241.27
720.27	241.00
720.60	240.80
720.94	240.60
721.27	240.40
721.60	240.24
721.93	240.05
722.27	239.88
722.60	239.71
722.93	239.51
723.26	239.33
723.59	239.13
723.93	238.95
724.26	238.79
724.59	238.61
724.92	238.45
725.25	238.32
725.59	238.15
725.92	238.01
726.25	237.85
726.58	237.69
726.91	237.53
727.24	237.39
727.57	237.24
727.91	237.07
728.24	236.93
728.57	236.77
728.90	236.63
729.23	236.46
729.56	236.36
729.89	236.22
730.22	236.06
730.55	235.92
730.89	235.77
731.22	235.63
731.55	235.49
731.88	235.36
732.21	235.21
732.54	235.08
732.87	234.96
733.20	234.84
733.53	234.72
733.86	234.61
734.19	234.48
734.52	234.38
734.85	234.34
735.18	234.21
735.51	234.12
735.84	234.01
736.17	233.93
736.50	233.77
736.83	233.79
737.16	233.69
737.49	233.60
737.82	233.50
738.15	233.41
738.48	233.32
738.81	233.22
739.14	233.11
739.47	233.00
739.80	232.90
740.13	232.81
740.46	232.69
740.79	232.58
741.12	232.49
741.45	232.37
741.78	232.22
742.11	232.16
742.44	232.04
742.77	231.96
743.10	231.86
743.43	231.76
743.75	231.56
744.08	231.63
744.41	231.54
744.74	231.45
745.07	231.34
745.40	231.27
745.73	231.23
746.06	231.16
746.39	231.09
746.71	231.00
747.04	230.91
747.37	230.84
747.70	230.79
748.03	230.72
748.36	230.66
748.68	230.59
749.01	230.49
749.34	230.42
749.67	230.35
750.00	230.29
750.33	230.30
750.65	230.25
750.98	230.03
751.31	229.96
751.64	229.89
751.97	229.88
752.29	229.81
752.62	229.69
752.95	229.62
753.28	229.53
753.60	229.47
753.93	229.43
754.26	229.38
754.59	229.27
754.91	229.19
755.24	229.11
755.57	229.10
755.90	229.04
756.22	228.97
756.55	228.89
756.88	228.81
757.20	228.67
757.53	228.58
757.86	228.52
758.19	228.47
758.51	228.42
758.84	228.32
759.17	228.26
759.49	228.22
759.82	228.22
760.15	228.18
760.47	228.13
760.80	228.05
761.13	228.02
761.45	227.98
761.78	227.93
762.11	227.89
762.43	227.79
762.76	227.74
763.08	227.71
763.41	227.67
763.74	227.62
764.06	227.58
764.39	227.55
764.71	227.50
765.04	227.46
765.37	227.40
765.69	227.36
766.02	227.32
766.34	227.27
766.67	227.19
767.00	227.16
767.32	227.18
767.65	227.20
767.97	227.14
768.30	227.11
768.62	227.08
768.95	227.03
769.27	226.99
769.60	226.97
769.92	226.91
770.25	226.86
770.57	226.81
770.90	226.78
771.22	226.73
771.55	226.69
771.87	226.67
772.20	226.63
772.52	226.68
772.85	226.77
773.17	226.75
773.50	226.70
773.82	226.65
774.15	226.57
774.47	226.48
774.80	226.43
775.12	226.40
775.45	226.37
775.77	226.34
776.09	226.32
776.42	226.29
776.74	226.30
777.07	226.28
777.39	226.25
777.72	226.22
778.04	226.21
778.36	226.18
778.69	226.16
779.01	226.15
779.33	226.03
779.66	225.89
779.98	225.86
780.31	225.84
780.63	225.87
780.95	225.86
781.28	225.85
781.60	225.82
781.92	225.80
782.25	225.78
782.57	225.76
782.89	225.74
783.22	225.71
783.54	225.66
783.86	225.64
784.19	225.62
784.51	225.63
784.83	225.59
785.16	225.57
785.48	225.55
785.80	225.52
786.12	225.51
786.45	225.50
786.77	225.49
787.09	225.46
787.42	225.40
787.74	225.38
788.06	225.36
788.38	225.34
788.71	225.32
789.03	225.30
789.35	225.30
789.67	225.27
789.99	225.25
790.32	225.22
790.64	225.23
790.96	225.31
791.28	225.26
791.61	225.24
791.93	225.24
792.25	225.22
792.57	225.28
792.89	225.25
793.21	225.24
793.54	225.21
793.86	225.19
794.18	225.18
794.50	225.15
794.82	225.13
795.14	225.13
795.47	225.14
795.79	225.13
796.11	225.09
796.43	225.08
796.75	225.07
797.07	225.07
797.39	225.04
797.71	224.94
798.04	224.93
798.36	224.93
798.68	224.92
799.00	224.91
799.32	224.85
799.64	224.86
799.96	224.85
800.28	224.86
800.60	224.85
800.92	224.85
801.24	224.84
801.56	224.84
801.89	224.81
802.21	224.80
802.53	224.78
802.85	224.80
803.17	224.83
803.49	224.81
803.81	224.79
804.13	224.77
804.45	224.75
804.77	224.75
805.09	224.74
805.41	224.72
805.73	224.69
806.05	224.65
806.37	224.63
806.69	224.61
807.01	224.59
807.33	224.59
807.65	224.54
807.97	224.57
808.28	224.55
808.60	224.54
808.92	224.51
809.24	224.56
809.56	224.53
809.88	224.49
810.20	224.49
810.52	224.49
810.84	224.47
811.16	224.44
811.48	224.43
811.80	224.45
812.12	224.44
812.43	224.46
812.75	224.46
813.07	224.44
813.39	224.44
813.71	224.42
814.03	224.40
814.35	224.40
814.67	224.35
814.98	224.34
815.30	224.34
815.62	224.31
815.94	224.24
816.26	224.25
816.58	224.23
816.89	224.22
817.21	224.20
817.53	224.20
817.85	224.20
818.17	224.20
818.48	224.15
818.80	224.17
819.12	224.14
819.44	224.11
819.76	224.10
820.07	224.09
820.39	224.08
820.71	224.09
821.03	224.09
821.34	224.08
821.66	224.08
821.98	224.09
822.30	224.08
822.61	224.14
822.93	224.11
823.25	224.11
823.57	224.10
823.88	224.10
824.20	224.10
824.52	224.12
824.83	224.11
825.15	224.09
825.47	224.08
825.79	224.09
826.10	224.08
826.42	224.08
826.74	224.08
827.05	224.07
827.37	224.06
827.69	224.05
828.00	224.05
828.32	224.06
828.64	224.04
828.95	224.09
829.27	224.07
829.58	224.07
829.90	224.09
830.22	224.10
830.53	224.08
830.85	224.06
831.17	224.03
831.48	224.03
831.80	224.04
832.11	224.03
832.43	224.01
832.75	224.01
833.06	224.07
833.38	224.05
833.69	224.04
834.01	224.05
834.32	224.05
834.64	224.04
834.96	224.03
835.27	224.03
835.59	224.00
835.90	223.97
836.22	223.96
836.53	223.93
836.85	223.92
837.16	224.02
837.48	224.02
837.79	224.06
838.11	224.06
838.42	224.05
838.74	224.06
839.05	224.05
839.37	224.05
839.68	223.98
840.00	223.98
840.31	223.99
840.63	223.97
840.94	223.96
841.26	223.94
841.57	223.93
841.88	223.94
842.20	223.92
842.51	223.90
842.83	223.90
843.14	223.99
843.46	223.99
843.77	223.92
844.08	223.92
844.40	223.88
844.71	223.88
845.03	223.86
845.34	223.86
845.65	223.86
845.97	223.86
846.28	223.86
846.60	223.86
846.91	223.84
847.22	223.84
847.54	223.87
847.85	223.88
848.16	223.88
848.48	223.85
848.79	223.88
849.10	223.90
849.42	223.90
849.73	223.80
850.04	223.79
850.36	223.75
850.67	223.77
850.98	223.77
851.30	223.77
851.61	223.77
851.92	223.76
852.23	223.79
852.55	223.79
852.86	223.79
853.17	223.80
853.49	223.81
853.80	223.83
854.11	223.83
854.42	223.83
854.74	223.82
855.05	223.83
855.36	223.78
855.67	223.78
855.99	223.78
856.30	223.91
856.61	223.90
856.92	223.90
857.23	223.90
857.55	223.89
857.86	223.88
858.17	223.90
858.48	223.89
858.79	223.86
859.11	223.87
859.42	223.87
859.73	223.85
860.04	223.85
860.35	223.82
860.66	223.78
860.98	223.78
861.29	223.80
861.60	223.78
861.91	223.81
862.22	223.79
862.53	223.77
862.84	223.65
863.16	223.68
863.47	223.65
863.78	223.64
864.09	223.65
864.40	223.65
864.71	223.65
865.02	223.66
865.33	223.65
865.64	223.63
865.95	223.63
866.27	223.69
866.58	223.67
866.89	223.69
867.20	223.68
867.51	223.67
867.82	223.66
868.13	223.70
868.44	223.67
868.75	223.69
869.06	223.70
869.37	223.70
869.68	223.68
869.99	223.70
870.30	223.70
870.61	223.71
870.92	223.69
871.23	223.67
871.54	223.68
871.85	223.71
872.16	223.73
872.47	223.72
872.78	223.67
873.09	223.68
873.40	223.67
873.71	223.68
874.02	223.69
874.33	223.68
874.64	223.65
874.95	223.66
875.26	223.64
875.56	223.63
875.87	223.63
876.18	223.62
876.49	223.72
876.80	223.72
877.11	223.70
877.42	223.71
877.73	223.72
878.04	223.70
878.35	223.69
878.66	223.69
878.96	223.69
879.27	223.68
879.58	223.67
879.89	223.67
880.20	223.70
880.51	223.69
880.82	223.69
881.12	223.70
881.43	223.69
881.74	223.68
882.05	223.67
882.36	223.68
882.67	223.69
882.97	223.58
883.28	223.58
883.59	223.58
883.90	223.58
884.21	223.59
884.51	223.59
884.82	223.58
885.13	223.57
885.44	223.58
885.74	223.58
886.05	223.58
886.36	223.58
886.67	223.53
886.98	223.59
887.28	223.59
887.59	223.59
887.90	223.59
888.20	223.59
888.51	223.61
888.82	223.60
889.13	223.60
889.43	223.69
889.74	223.67
890.05	223.67
890.35	223.66
890.66	223.64
890.97	223.63
891.28	223.62
891.58	223.62
891.89	223.61
892.20	223.60
892.50	223.58
892.81	223.58
893.12	223.57
893.42	223.52
893.73	223.52
894.04	223.52
894.34	223.53
894.65	223.52
894.95	223.50
895.26	223.50
895.57	223.55
895.87	223.44
896.18	223.46
896.48	223.46
896.79	223.45
897.10	223.47
897.40	223.47
897.71	223.48
898.01	223.47
898.32	223.49
898.63	223.48
898.93	223.49
899.24	223.50
899.54	223.50
899.85	223.50
900.15	223.49
900.46	223.50
900.76	223.50
901.07	223.51
901.38	223.50
901.68	223.51
901.99	223.46
902.29	223.47
902.60	223.47
902.90	223.45
903.21	223.45
903.51	223.44
903.82	223.46
904.12	223.46
904.43	223.47
904.73	223.45
905.03	223.47
905.34	223.56
905.64	223.55
905.95	223.55
906.25	223.55
906.56	223.55
906.86	223.55
907.17	223.54
907.47	223.54
907.77	223.53
908.08	223.51
908.38	223.52
908.69	223.53
908.99	223.55
909.30	223.57
909.60	223.57
909.90	223.58
910.21	223.55
910.51	223.54
910.81	223.54
911.12	223.54
911.42	223.54
911.73	223.43
912.03	223.44
912.33	223.46
912.64	223.44
912.94	223.44
913.24	223.41
913.55	223.41
913.85	223.40
914.15	223.42
914.46	223.44
914.76	223.42
915.06	223.41
915.37	223.38
915.67	223.37
915.97	223.37
916.27	223.35
916.58	223.35
916.88	223.35
917.18	223.34
917.49	223.41
917.79	223.41
918.09	223.43
918.39	223.45
918.70	223.45
919.00	223.46
919.30	223.51
919.60	223.51
919.91	223.50
920.21	223.51
920.51	223.49
920.81	223.48
921.12	223.50
921.42	223.49
921.72	223.50
922.02	223.51
922.32	223.52
922.63	223.52
922.93	223.58
923.23	223.58
923.53	223.57
923.83	223.50
924.13	223.51
924.44	223.51
924.74	223.52
925.04	223.54
925.34	223.54
925.64	223.49
925.94	223.49
926.24	223.54
926.55	223.53
926.85	223.55
927.15	223.55
927.45	223.54
927.75	223.54
928.05	223.54
928.35	223.53
928.65	223.55
928.95	223.55
929.26	223.51
929.56	223.53
929.86	223.53
930.16	223.53
930.46	223.52
930.76	223.51
931.06	223.46
931.36	223.43
931.66	223.45
931.96	223.46
932.26	223.46
932.56	223.42
932.86	223.42
933.16	223.41
933.46	223.40
933.76	223.39
934.06	223.41
934.36	223.44
934.66	223.43
934.96	223.41
935.26	223.42
935.56	223.43
935.86	223.40
936.16	223.39
936.46	223.37
936.76	223.37
937.06	223.35
937.36	223.37
937.66	223.37
937.96	223.37
938.26	223.35
938.56	223.34
938.86	223.34
939.16	223.36
939.46	223.37
939.76	223.37
940.06	223.37
940.35	223.35
940.65	223.30
940.95	223.31
941.25	223.29
941.55	223.27
941.85	223.27
942.15	223.29
942.45	223.31
942.75	223.31
943.04	223.32
943.34	223.34
943.64	223.33
943.94	223.31
944.24	223.31
944.54	223.32
944.84	223.32
945.13	223.30
945.43	223.28
945.73	223.27
946.03	223.27
946.33	223.26
946.62	223.25
946.92	223.26
947.22	223.26
947.52	223.27
947.82	223.28
948.11	223.27
948.41	223.25
948.71	223.22
949.01	223.23
949.31	223.21
949.60	223.20
949.90	223.22
950.20	223.22
950.50	223.20
950.79	223.19
951.09	223.21
951.39	223.21
951.69	223.20
951.98	223.22
952.28	223.23
952.58	223.22
952.87	223.22
953.17	223.23
953.47	223.22
953.76	223.22
954.06	223.20
954.36	223.19
954.66	223.19
954.95	223.22
955.25	223.23
955.55	223.24
955.84	223.23
956.14	223.23
956.44	223.24
956.73	223.23
957.03	223.23
957.32	223.23
957.62	223.23
957.92	223.25
958.21	223.24
958.51	223.36
958.81	223.37
959.10	223.38
959.40	223.41
959.69	223.41
959.99	223.43
960.29	223.42
960.58	223.43
960.88	223.47
961.17	223.46
961.47	223.47
961.76	223.46
962.06	223.47
962.36	223.46
962.65	223.47
962.95	223.48
963.24	223.47
963.54	223.48
963.83	223.49
964.13	223.47
964.42	223.46
964.72	223.37
965.01	223.36
965.31	223.35
965.60	223.33
965.90	223.39
966.19	223.37
966.49	223.38
966.78	223.37
967.08	223.36
967.37	223.36
967.67	223.34
967.96	223.36
968.26	223.36
968.55	223.37
968.85	223.37
969.14	223.37
969.43	223.37
969.73	223.36
970.02	223.34
970.32	223.34
970.61	223.34
970.91	223.32
971.20	223.30
971.49	223.29
971.79	223.31
972.08	223.23
972.38	223.24
972.67	223.23
972.96	223.25
973.26	223.23
973.55	223.26
973.85	223.26
974.14	223.24
974.43	223.25
974.73	223.23
975.02	223.22
975.31	223.23
975.61	223.22
975.90	223.22
976.19	223.21
976.49	223.22
976.78	223.22
977.07	223.22
977.37	223.23
977.66	223.24
977.95	223.22
978.24	223.24
978.54	223.25
978.83	223.25
979.12	223.24
979.42	223.24
979.71	223.22
980.00	223.21
980.29	223.22
980.59	223.21
980.88	223.23
981.17	223.23
981.46	223.23
981.76	223.23
982.05	223.26
982.34	223.27
982.63	223.27
982.93	223.27
983.22	223.29
983.51	223.30
983.80	223.31
984.09	223.33
984.39	223.32
984.68	223.30
984.97	223.30
985.26	223.29
985.55	223.30
985.85	223.28
986.14	223.30
986.43	223.31
986.72	223.29
987.01	223.26
987.30	223.26
987.59	223.26
987.89	223.26
988.18	223.22
988.47	223.22
988.76	223.21
989.05	223.20
989.34	223.19
989.63	223.22
989.92	223.20
990.22	223.19
990.51	223.19
990.80	223.18
991.09	223.19
991.38	223.21
991.67	223.20
991.96	223.19
992.25	223.19
992.54	223.18
992.83	223.18
993.12	223.18
993.41	223.19
993.70	223.23
993.99	223.24
994.28	223.26
994.58	223.27
994.87	223.26
995.16	223.26
995.45	223.25
995.74	223.21
996.03	223.22
996.32	223.24
996.61	223.26
996.90	223.26
997.19	223.26
997.48	223.26
997.77	223.25
998.06	223.26
998.34	223.25
998.63	223.25
998.92	223.26
999.21	223.28
999.50	223.28
999.79	223.25
1000.08	223.24
1000.37	223.24
1000.66	223.23
1000.95	223.25
1001.24	223.26
1001.53	223.27
1001.82	223.27
1002.11	223.24
1002.40	223.25
1002.68	223.27
1002.97	223.33
1003.26	223.31
1003.55	223.29
1003.84	223.30
1004.13	223.34
1004.42	223.33
1004.71	223.34
1004.99	223.32
1005.28	223.34
1005.57	223.33
1005.86	223.32
1006.15	223.32
1006.44	223.30
1006.72	223.31
1007.01	223.29
1007.30	223.29
1007.59	223.28
1007.88	223.28
1008.17	223.28
1008.45	223.26
1008.74	223.22
1009.03	223.17
1009.32	223.18
1009.60	223.18
1009.89	223.17
1010.18	223.13
1010.47	223.12
1010.76	223.12
1011.04	223.12
1011.33	223.11
1011.62	223.12
1011.91	223.13
1012.19	223.13
1012.48	223.13
1012.77	223.13
1013.05	223.16
1013.34	223.17
1013.63	223.16
1013.92	223.17
1014.20	223.16
1014.49	223.17
1014.78	223.18
1015.06	223.15
1015.35	223.15
1015.64	223.15
1015.92	223.18
1016.21	223.18
1016.50	223.18
1016.78	223.19
1017.07	223.20
1017.36	223.18
1017.64	223.17
1017.93	223.18
1018.22	223.16
1018.50	223.16
1018.79	223.16
1019.08	223.13
1019.36	223.14
1019.65	223.13
1019.93	223.15
1020.22	223.17
1020.51	223.22
1020.79	223.21
1021.08	222.98
1021.36	223.01
1021.65	223.19
1021.94	223.12
1022.22	223.23
1022.51	222.96
1022.79	223.72
1023.08	223.34
1023.36	224.44
1023.65	222.97
>>>>>End Processed Spectral Data<<<<<
