SpectraSuite Data File
++++++++++++++++++++++++++++++++++++
Date: Wed Sep 30 14:47:05 EDT 2015
User: lab3
Dark Spectrum Present: No
Reference Spectrum Present: No
Number of Sampled Component Spectra: 1
Spectrometers: USB2E7196
Integration Time (usec): 36000 (USB2E7196)
Spectra Averaged: 1500 (USB2E7196)
Boxcar Smoothing: 10 (USB2E7196)
Correct for Electrical Dark: No (USB2E7196)
Strobe/Lamp Enabled: No (USB2E7196)
Correct for Detector Non-linearity: No (USB2E7196)
Correct for Stray Light: No (USB2E7196)
Number of Pixels in Processed Spectrum: 2048
>>>>>Begin Processed Spectral Data<<<<<
339.09	0.00
339.48	211.39
339.86	212.93
340.24	214.21
340.63	215.59
341.01	218.67
341.39	218.35
341.78	219.57
342.16	220.80
342.54	221.37
342.93	209.87
343.31	220.48
343.69	221.02
344.07	221.48
344.46	221.90
344.84	222.28
345.22	222.51
345.60	222.76
345.99	222.95
346.37	223.09
346.75	223.19
347.13	223.28
347.52	223.34
347.90	223.41
348.28	223.44
348.66	223.50
349.05	223.51
349.43	223.55
349.81	223.60
350.19	223.66
350.57	223.71
350.96	223.79
351.34	223.87
351.72	223.96
352.10	224.06
352.48	224.14
352.87	224.19
353.25	224.25
353.63	224.31
354.01	224.37
354.39	224.45
354.77	224.52
355.15	224.61
355.54	224.65
355.92	224.69
356.30	224.76
356.68	224.89
357.06	224.96
357.44	225.01
357.82	225.07
358.20	225.17
358.58	225.24
358.97	225.31
359.35	225.39
359.73	225.47
360.11	225.52
360.49	225.58
360.87	225.62
361.25	225.69
361.63	225.77
362.01	225.83
362.39	225.85
362.77	225.90
363.15	225.93
363.53	225.97
363.91	226.01
364.29	226.03
364.67	225.96
365.05	225.98
365.43	226.00
365.81	226.03
366.19	226.05
366.57	226.10
366.95	226.10
367.33	226.08
367.71	226.06
368.09	226.08
368.47	226.07
368.85	226.07
369.23	226.07
369.61	226.02
369.99	226.03
370.37	226.04
370.75	226.09
371.13	226.05
371.51	226.01
371.89	225.99
372.27	225.96
372.65	225.94
373.03	225.90
373.41	225.86
373.78	225.82
374.16	225.73
374.54	225.65
374.92	225.60
375.30	225.55
375.68	225.49
376.06	225.44
376.44	225.39
376.82	225.35
377.19	225.30
377.57	225.25
377.95	225.16
378.33	225.10
378.71	224.96
379.09	224.92
379.47	224.88
379.84	224.82
380.22	224.76
380.60	224.68
380.98	224.64
381.36	224.59
381.73	224.52
382.11	224.49
382.49	224.45
382.87	224.39
383.25	224.35
383.62	224.43
384.00	224.36
384.38	224.32
384.76	224.29
385.13	224.27
385.51	224.23
385.89	224.18
386.27	224.14
386.64	224.13
387.02	224.07
387.40	224.03
387.78	224.00
388.15	223.98
388.53	223.95
388.91	223.93
389.29	223.89
389.66	223.89
390.04	223.85
390.42	223.83
390.79	223.81
391.17	223.80
391.55	223.66
391.92	223.65
392.30	223.64
392.68	223.61
393.05	223.60
393.43	223.60
393.81	223.61
394.18	223.59
394.56	223.59
394.94	223.61
395.31	223.61
395.69	223.65
396.06	223.66
396.44	223.67
396.82	223.68
397.19	223.75
397.57	223.76
397.95	223.80
398.32	223.81
398.70	223.84
399.07	223.90
399.45	223.93
399.82	223.97
400.20	224.01
400.58	224.06
400.95	224.07
401.33	224.14
401.70	224.26
402.08	224.35
402.45	224.43
402.83	224.54
403.20	224.64
403.58	224.72
403.95	224.84
404.33	224.98
404.71	225.10
405.08	225.28
405.46	225.43
405.83	225.59
406.21	225.75
406.58	225.95
406.96	226.13
407.33	226.35
407.70	226.60
408.08	226.93
408.45	227.21
408.83	227.52
409.20	227.80
409.58	228.05
409.95	228.39
410.33	228.77
410.70	229.12
411.08	229.54
411.45	229.98
411.82	230.43
412.20	230.94
412.57	231.55
412.95	232.02
413.32	232.64
413.69	233.29
414.07	233.97
414.44	234.71
414.82	235.46
415.19	236.34
415.56	237.23
415.94	238.16
416.31	239.20
416.68	240.25
417.06	241.46
417.43	242.60
417.81	243.91
418.18	245.23
418.55	246.68
418.93	248.18
419.30	249.76
419.67	251.45
420.04	253.17
420.42	255.00
420.79	257.08
421.16	259.19
421.54	261.32
421.91	263.57
422.28	265.90
422.66	268.41
423.03	270.81
423.40	273.35
423.77	276.05
424.15	278.84
424.52	281.72
424.89	284.84
425.26	287.93
425.64	290.81
426.01	294.05
426.38	297.38
426.75	300.81
427.13	304.33
427.50	307.99
427.87	311.83
428.24	315.67
428.61	319.37
428.99	323.38
429.36	327.76
429.73	331.95
430.10	336.14
430.47	340.41
430.85	344.81
431.22	349.48
431.59	354.27
431.96	358.96
432.33	364.17
432.70	369.10
433.08	374.94
433.45	380.45
433.82	385.88
434.19	391.92
434.56	397.89
434.93	403.63
435.30	409.32
435.68	415.69
436.05	421.93
436.42	428.16
436.79	433.83
437.16	439.99
437.53	446.56
437.90	453.11
438.27	459.52
438.64	466.42
439.01	472.70
439.38	478.43
439.75	483.92
440.13	490.15
440.50	496.09
440.87	500.81
441.24	505.95
441.61	511.58
441.98	515.73
442.35	520.66
442.72	525.70
443.09	530.48
443.46	533.53
443.83	535.79
444.20	537.66
444.57	540.41
444.94	541.99
445.31	543.65
445.68	545.09
446.05	546.10
446.42	545.89
446.79	545.56
447.16	545.27
447.53	545.04
447.90	543.14
448.27	541.35
448.64	538.54
449.01	536.70
449.37	532.77
449.74	529.17
450.11	524.53
450.48	519.46
450.85	514.38
451.22	510.07
451.59	505.77
451.96	501.91
452.33	496.31
452.70	491.28
453.07	485.14
453.43	479.02
453.80	473.12
454.17	467.39
454.54	462.08
454.91	456.12
455.28	450.50
455.65	445.17
456.02	439.54
456.38	435.00
456.75	429.12
457.12	424.42
457.49	419.68
457.86	415.14
458.23	411.14
458.59	406.74
458.96	402.23
459.33	398.30
459.70	394.29
460.07	391.24
460.43	387.67
460.80	384.31
461.17	381.36
461.54	378.17
461.91	375.19
462.27	372.16
462.64	369.69
463.01	366.84
463.38	364.00
463.74	361.41
464.11	359.11
464.48	357.04
464.85	354.77
465.21	353.01
465.58	351.08
465.95	348.89
466.32	347.15
466.68	345.44
467.05	343.70
467.42	342.01
467.78	340.19
468.15	338.50
468.52	337.26
468.88	335.62
469.25	334.13
469.62	332.95
469.98	331.67
470.35	330.53
470.72	329.52
471.08	328.47
471.45	327.62
471.82	326.65
472.18	325.63
472.55	325.00
472.92	324.24
473.28	323.63
473.65	322.99
474.02	322.38
474.38	321.87
474.75	321.60
475.11	321.19
475.48	321.03
475.85	320.85
476.21	320.81
476.58	320.82
476.94	321.04
477.31	321.16
477.67	321.30
478.04	321.56
478.41	321.88
478.77	322.33
479.14	322.65
479.50	323.21
479.87	323.90
480.23	324.59
480.60	325.27
480.96	325.97
481.33	326.94
481.69	327.92
482.06	328.87
482.42	329.79
482.79	330.91
483.15	332.19
483.52	333.63
483.88	335.02
484.25	336.49
484.61	338.00
484.98	339.63
485.34	341.47
485.71	343.37
486.07	345.42
486.44	347.46
486.80	349.71
487.17	352.02
487.53	354.55
487.90	357.17
488.26	359.98
488.62	362.97
488.99	366.00
489.35	369.14
489.72	372.56
490.08	376.13
490.44	379.77
490.81	383.60
491.17	387.54
491.54	391.70
491.90	395.94
492.26	400.50
492.63	405.31
492.99	410.32
493.36	415.49
493.72	420.94
494.08	426.55
494.45	432.47
494.81	438.60
495.17	444.82
495.54	451.44
495.90	458.41
496.26	465.51
496.63	472.76
496.99	480.32
497.35	488.21
497.72	496.38
498.08	504.76
498.44	513.36
498.80	522.50
499.17	531.93
499.53	541.71
499.89	551.74
500.26	561.95
500.62	572.37
500.98	583.40
501.34	594.60
501.71	606.29
502.07	618.20
502.43	630.54
502.79	643.32
503.16	656.46
503.52	669.69
503.88	683.39
504.24	697.50
504.60	711.82
504.97	726.53
505.33	741.60
505.69	757.44
506.05	773.57
506.41	789.85
506.78	806.38
507.14	823.47
507.50	840.91
507.86	858.68
508.22	876.73
508.59	894.88
508.95	913.60
509.31	932.84
509.67	952.86
510.03	973.00
510.39	993.22
510.75	1013.60
511.12	1034.35
511.48	1055.29
511.84	1076.59
512.20	1098.11
512.56	1120.49
512.92	1143.02
513.28	1165.48
513.64	1188.19
514.00	1211.27
514.37	1234.96
514.73	1258.62
515.09	1282.09
515.45	1305.79
515.81	1329.75
516.17	1353.84
516.53	1377.81
516.89	1401.51
517.25	1425.17
517.61	1449.06
517.97	1473.27
518.33	1497.52
518.69	1521.92
519.05	1546.67
519.41	1571.30
519.77	1596.33
520.13	1620.61
520.49	1644.97
520.85	1669.25
521.21	1693.55
521.57	1718.44
521.93	1742.45
522.29	1766.88
522.65	1791.20
523.01	1815.57
523.37	1839.32
523.73	1863.67
524.09	1887.81
524.45	1912.09
524.81	1936.24
525.17	1959.82
525.53	1983.17
525.89	2006.43
526.25	2029.69
526.61	2051.54
526.97	2073.76
527.33	2095.71
527.68	2117.66
528.04	2139.22
528.40	2160.70
528.76	2181.84
529.12	2202.28
529.48	2223.45
529.84	2242.52
530.20	2262.08
530.56	2281.07
530.91	2300.69
531.27	2319.80
531.63	2338.14
531.99	2355.98
532.35	2373.32
532.71	2391.55
533.07	2410.09
533.42	2426.84
533.78	2444.07
534.14	2461.81
534.50	2478.67
534.86	2496.06
535.21	2511.43
535.57	2526.71
535.93	2541.46
536.29	2555.67
536.65	2569.38
537.00	2581.74
537.36	2595.20
537.72	2607.37
538.08	2619.62
538.44	2630.61
538.79	2640.99
539.15	2650.46
539.51	2659.91
539.87	2668.31
540.22	2674.21
540.58	2680.22
540.94	2686.94
541.29	2692.51
541.65	2697.84
542.01	2702.91
542.37	2705.90
542.72	2710.35
543.08	2713.85
543.44	2717.11
543.79	2719.66
544.15	2721.80
544.51	2723.51
544.87	2725.12
545.22	2726.30
545.58	2726.18
545.94	2726.03
546.29	2724.71
546.65	2723.78
547.01	2722.61
547.36	2721.94
547.72	2721.75
548.07	2720.24
548.43	2717.24
548.79	2713.94
549.14	2710.60
549.50	2707.47
549.86	2704.17
550.21	2699.67
550.57	2695.55
550.92	2690.20
551.28	2684.76
551.64	2679.21
551.99	2673.87
552.35	2667.35
552.70	2660.98
553.06	2655.49
553.41	2649.69
553.77	2643.74
554.13	2637.68
554.48	2630.29
554.84	2621.93
555.19	2613.39
555.55	2604.28
555.90	2596.32
556.26	2588.61
556.61	2579.97
556.97	2569.95
557.32	2560.11
557.68	2550.39
558.03	2540.23
558.39	2531.02
558.74	2522.60
559.10	2512.73
559.45	2502.72
559.81	2493.19
560.16	2483.12
560.52	2472.72
560.87	2462.50
561.23	2451.72
561.58	2441.35
561.94	2430.97
562.29	2420.19
562.64	2409.94
563.00	2399.89
563.35	2389.70
563.71	2378.65
564.06	2367.94
564.42	2357.43
564.77	2346.81
565.12	2336.04
565.48	2325.03
565.83	2313.60
566.19	2301.69
566.54	2290.54
566.89	2278.57
567.25	2266.53
567.60	2255.47
567.96	2243.85
568.31	2231.22
568.66	2219.05
569.02	2207.15
569.37	2195.65
569.72	2184.96
570.08	2173.20
570.43	2161.03
570.78	2148.67
571.14	2136.32
571.49	2123.63
571.84	2111.22
572.20	2097.97
572.55	2084.73
572.90	2071.95
573.26	2059.62
573.61	2046.47
573.96	2033.57
574.31	2021.13
574.67	2008.66
575.02	1995.17
575.37	1981.68
575.72	1968.60
576.08	1955.59
576.43	1942.00
576.78	1928.43
577.13	1914.53
577.49	1901.04
577.84	1887.71
578.19	1874.49
578.54	1860.89
578.90	1847.01
579.25	1832.95
579.60	1820.12
579.95	1807.47
580.30	1794.56
580.66	1781.05
581.01	1767.64
581.36	1753.90
581.71	1740.59
582.06	1727.52
582.42	1714.78
582.77	1701.99
583.12	1689.50
583.47	1677.39
583.82	1664.81
584.17	1651.44
584.53	1638.44
584.88	1625.59
585.23	1612.68
585.58	1599.76
585.93	1587.31
586.28	1575.47
586.63	1563.52
586.98	1550.97
587.34	1538.60
587.69	1525.71
588.04	1513.26
588.39	1501.27
588.74	1489.03
589.09	1477.15
589.44	1464.54
589.79	1452.11
590.14	1439.88
590.49	1427.58
590.84	1415.30
591.19	1403.70
591.54	1392.14
591.89	1380.32
592.25	1369.04
592.60	1357.42
592.95	1346.18
593.30	1334.80
593.65	1323.53
594.00	1312.39
594.35	1301.79
594.70	1290.38
595.05	1279.87
595.40	1269.06
595.75	1258.08
596.10	1247.77
596.45	1237.07
596.80	1227.05
597.15	1217.17
597.50	1207.26
597.85	1197.72
598.19	1188.15
598.54	1178.23
598.89	1168.98
599.24	1159.98
599.59	1150.93
599.94	1142.45
600.29	1133.63
600.64	1124.89
600.99	1115.48
601.34	1106.67
601.69	1097.65
602.04	1089.54
602.39	1081.00
602.74	1072.94
603.08	1065.16
603.43	1057.12
603.78	1049.01
604.13	1040.99
604.48	1032.78
604.83	1024.82
605.18	1016.71
605.53	1008.53
605.87	1000.37
606.22	992.49
606.57	984.38
606.92	976.11
607.27	968.06
607.62	960.21
607.96	952.49
608.31	945.78
608.66	938.79
609.01	931.81
609.36	924.77
609.70	917.82
610.05	910.67
610.40	903.65
610.75	896.47
611.10	889.75
611.44	882.78
611.79	876.14
612.14	869.37
612.49	862.45
612.83	855.98
613.18	849.70
613.53	843.47
613.88	837.37
614.22	831.51
614.57	825.41
614.92	819.46
615.27	813.59
615.61	807.24
615.96	800.99
616.31	794.93
616.65	788.72
617.00	782.56
617.35	776.49
617.70	770.52
618.04	764.73
618.39	758.80
618.74	753.18
619.08	747.39
619.43	741.74
619.78	736.23
620.12	730.57
620.47	725.08
620.82	719.58
621.16	714.21
621.51	708.69
621.85	703.27
622.20	697.71
622.55	692.22
622.89	686.88
623.24	681.69
623.59	676.57
623.93	671.71
624.28	667.01
624.62	662.30
624.97	657.51
625.32	652.80
625.66	647.91
626.01	643.00
626.35	638.25
626.70	633.50
627.04	629.04
627.39	624.57
627.73	620.10
628.08	615.68
628.43	611.27
628.77	606.94
629.12	602.66
629.46	598.57
629.81	594.38
630.15	590.21
630.50	586.14
630.84	582.12
631.19	578.16
631.53	574.29
631.88	570.41
632.22	566.46
632.57	562.76
632.91	559.12
633.26	555.49
633.60	551.85
633.95	548.32
634.29	544.68
634.64	541.09
634.98	537.42
635.32	533.88
635.67	530.57
636.01	527.27
636.36	523.95
636.70	520.75
637.05	517.58
637.39	514.47
637.73	511.15
638.08	507.93
638.42	504.77
638.77	501.51
639.11	498.14
639.45	494.93
639.80	491.67
640.14	488.57
640.49	485.50
640.83	482.39
641.17	479.35
641.52	476.31
641.86	473.23
642.20	470.32
642.55	467.27
642.89	464.26
643.23	461.37
643.58	458.68
643.92	455.86
644.26	453.12
644.61	450.43
644.95	447.77
645.29	445.02
645.64	442.21
645.98	439.52
646.32	436.94
646.66	434.39
647.01	431.91
647.35	429.54
647.69	427.04
648.04	424.63
648.38	422.21
648.72	419.82
649.06	417.48
649.41	415.17
649.75	412.93
650.09	410.62
650.43	408.33
650.78	406.05
651.12	403.76
651.46	401.54
651.80	399.37
652.14	397.29
652.49	395.27
652.83	393.27
653.17	391.30
653.51	389.42
653.85	387.55
654.20	385.62
654.54	383.57
654.88	381.62
655.22	379.73
655.56	377.89
655.90	376.09
656.25	374.34
656.59	372.57
656.93	370.89
657.27	369.30
657.61	367.61
657.95	365.96
658.29	364.38
658.64	362.82
658.98	361.17
659.32	359.48
659.66	357.89
660.00	356.35
660.34	354.80
660.68	353.24
661.02	351.64
661.36	350.11
661.70	348.64
662.05	347.21
662.39	345.80
662.73	344.44
663.07	343.13
663.41	341.82
663.75	340.53
664.09	339.23
664.43	337.87
664.77	336.56
665.11	335.19
665.45	333.87
665.79	332.57
666.13	331.35
666.47	330.17
666.81	328.94
667.15	327.65
667.49	326.45
667.83	325.27
668.17	324.13
668.51	323.02
668.85	321.93
669.19	320.87
669.53	319.71
669.87	318.51
670.21	317.38
670.55	316.28
670.89	315.25
671.23	314.19
671.57	313.14
671.91	312.17
672.25	311.26
672.58	310.36
672.92	309.41
673.26	308.51
673.60	307.60
673.94	306.69
674.28	305.84
674.62	304.97
674.96	304.04
675.30	303.21
675.64	302.34
675.97	301.48
676.31	300.59
676.65	299.77
676.99	299.03
677.33	298.19
677.67	297.38
678.01	296.50
678.34	295.70
678.68	294.94
679.02	294.13
679.36	293.32
679.70	292.52
680.04	291.74
680.37	290.95
680.71	290.21
681.05	289.50
681.39	288.79
681.73	288.04
682.06	287.35
682.40	286.64
682.74	285.95
683.08	285.30
683.42	284.63
683.75	283.99
684.09	283.30
684.43	282.67
684.77	282.01
685.10	281.40
685.44	280.76
685.78	280.14
686.12	279.54
686.45	278.94
686.79	278.30
687.13	277.70
687.46	277.06
687.80	276.45
688.14	275.82
688.48	275.24
688.81	274.65
689.15	274.11
689.49	273.51
689.82	272.92
690.16	272.28
690.50	271.70
690.83	271.11
691.17	270.53
691.51	269.96
691.84	269.42
692.18	268.86
692.52	268.31
692.85	267.77
693.19	267.27
693.52	266.73
693.86	266.22
694.20	265.71
694.53	265.24
694.87	264.73
695.21	264.21
695.54	263.69
695.88	263.19
696.21	262.67
696.55	262.19
696.88	261.73
697.22	261.27
697.56	260.83
697.89	260.37
698.23	259.93
698.56	259.47
698.90	259.07
699.23	258.63
699.57	258.22
699.90	257.79
700.24	257.33
700.58	256.93
700.91	256.55
701.25	256.24
701.58	255.88
701.92	255.52
702.25	255.16
702.59	254.78
702.92	254.41
703.26	254.03
703.59	253.67
703.93	253.39
704.26	253.03
704.60	252.66
704.93	252.30
705.26	251.93
705.60	251.60
705.93	251.23
706.27	250.93
706.60	250.62
706.94	250.34
707.27	250.00
707.61	249.66
707.94	249.31
708.27	248.89
708.61	248.53
708.94	248.19
709.28	247.88
709.61	247.57
709.94	247.29
710.28	247.02
710.61	246.75
710.95	246.38
711.28	246.19
711.61	245.91
711.95	245.67
712.28	245.41
712.61	245.12
712.95	244.92
713.28	244.69
713.61	244.41
713.95	244.12
714.28	243.87
714.61	243.62
714.95	243.37
715.28	243.12
715.61	242.90
715.95	242.69
716.28	242.45
716.61	242.25
716.95	242.03
717.28	241.80
717.61	241.57
717.94	241.35
718.28	241.06
718.61	240.86
718.94	240.64
719.27	240.45
719.61	240.27
719.94	240.03
720.27	239.79
720.60	239.60
720.94	239.41
721.27	239.23
721.60	239.07
721.93	238.90
722.27	238.78
722.60	238.60
722.93	238.41
723.26	238.24
723.59	238.04
723.93	237.88
724.26	237.72
724.59	237.56
724.92	237.41
725.25	237.27
725.59	237.12
725.92	236.97
726.25	236.82
726.58	236.66
726.91	236.52
727.24	236.38
727.57	236.23
727.91	236.08
728.24	235.95
728.57	235.80
728.90	235.67
729.23	235.50
729.56	235.41
729.89	235.28
730.22	235.14
730.55	235.01
730.89	234.88
731.22	234.75
731.55	234.62
731.88	234.50
732.21	234.36
732.54	234.23
732.87	234.11
733.20	234.01
733.53	233.90
733.86	233.80
734.19	233.68
734.52	233.59
734.85	233.55
735.18	233.43
735.51	233.35
735.84	233.25
736.17	233.17
736.50	233.01
736.83	233.02
737.16	232.93
737.49	232.83
737.82	232.73
738.15	232.65
738.48	232.55
738.81	232.45
739.14	232.35
739.47	232.24
739.80	232.14
740.13	232.07
740.46	231.95
740.79	231.83
741.12	231.73
741.45	231.61
741.78	231.46
742.11	231.40
742.44	231.28
742.77	231.20
743.10	231.10
743.43	231.01
743.75	230.82
744.08	230.89
744.41	230.79
744.74	230.70
745.07	230.60
745.40	230.54
745.73	230.51
746.06	230.43
746.39	230.37
746.71	230.29
747.04	230.19
747.37	230.13
747.70	230.08
748.03	230.02
748.36	229.97
748.68	229.91
749.01	229.81
749.34	229.75
749.67	229.68
750.00	229.64
750.33	229.66
750.65	229.61
750.98	229.41
751.31	229.35
751.64	229.29
751.97	229.29
752.29	229.23
752.62	229.13
752.95	229.07
753.28	228.99
753.60	228.93
753.93	228.90
754.26	228.86
754.59	228.76
754.91	228.71
755.24	228.64
755.57	228.62
755.90	228.55
756.22	228.49
756.55	228.42
756.88	228.34
757.20	228.21
757.53	228.12
757.86	228.06
758.19	228.02
758.51	227.97
758.84	227.87
759.17	227.80
759.49	227.75
759.82	227.75
760.15	227.71
760.47	227.67
760.80	227.59
761.13	227.55
761.45	227.51
761.78	227.46
762.11	227.42
762.43	227.31
762.76	227.28
763.08	227.25
763.41	227.21
763.74	227.17
764.06	227.14
764.39	227.11
764.71	227.06
765.04	227.01
765.37	226.96
765.69	226.93
766.02	226.89
766.34	226.85
766.67	226.77
767.00	226.75
767.32	226.77
767.65	226.79
767.97	226.75
768.30	226.73
768.62	226.69
768.95	226.64
769.27	226.61
769.60	226.59
769.92	226.54
770.25	226.49
770.57	226.44
770.90	226.38
771.22	226.33
771.55	226.30
771.87	226.27
772.20	226.23
772.52	226.28
772.85	226.37
773.17	226.33
773.50	226.30
773.82	226.26
774.15	226.18
774.47	226.08
774.80	226.03
775.12	226.00
775.45	225.97
775.77	225.95
776.09	225.93
776.42	225.90
776.74	225.91
777.07	225.88
777.39	225.86
777.72	225.84
778.04	225.83
778.36	225.81
778.69	225.78
779.01	225.76
779.33	225.65
779.66	225.51
779.98	225.49
780.31	225.47
780.63	225.48
780.95	225.47
781.28	225.45
781.60	225.43
781.92	225.41
782.25	225.39
782.57	225.37
782.89	225.34
783.22	225.31
783.54	225.27
783.86	225.26
784.19	225.23
784.51	225.25
784.83	225.22
785.16	225.19
785.48	225.19
785.80	225.18
786.12	225.17
786.45	225.14
786.77	225.14
787.09	225.12
787.42	225.07
787.74	225.05
788.06	225.04
788.38	225.02
788.71	225.00
789.03	224.99
789.35	224.98
789.67	224.97
789.99	224.95
790.32	224.93
790.64	224.93
790.96	225.01
791.28	224.95
791.61	224.93
791.93	224.93
792.25	224.91
792.57	224.97
792.89	224.94
793.21	224.95
793.54	224.92
793.86	224.89
794.18	224.89
794.50	224.85
794.82	224.83
795.14	224.85
795.47	224.85
795.79	224.84
796.11	224.80
796.43	224.78
796.75	224.78
797.07	224.78
797.39	224.75
797.71	224.66
798.04	224.66
798.36	224.66
798.68	224.65
799.00	224.64
799.32	224.58
799.64	224.58
799.96	224.57
800.28	224.57
800.60	224.56
800.92	224.56
801.24	224.56
801.56	224.55
801.89	224.53
802.21	224.53
802.53	224.50
802.85	224.52
803.17	224.56
803.49	224.53
803.81	224.51
804.13	224.50
804.45	224.47
804.77	224.46
805.09	224.45
805.41	224.44
805.73	224.41
806.05	224.37
806.37	224.36
806.69	224.33
807.01	224.32
807.33	224.32
807.65	224.27
807.97	224.31
808.28	224.30
808.60	224.29
808.92	224.26
809.24	224.32
809.56	224.30
809.88	224.26
810.20	224.26
810.52	224.27
810.84	224.25
811.16	224.24
811.48	224.23
811.80	224.27
812.12	224.26
812.43	224.28
812.75	224.27
813.07	224.26
813.39	224.25
813.71	224.23
814.03	224.20
814.35	224.20
814.67	224.15
814.98	224.14
815.30	224.14
815.62	224.12
815.94	224.04
816.26	224.04
816.58	224.01
816.89	224.01
817.21	223.99
817.53	223.99
817.85	223.99
818.17	223.98
818.48	223.92
818.80	223.93
819.12	223.91
819.44	223.89
819.76	223.87
820.07	223.87
820.39	223.86
820.71	223.87
821.03	223.87
821.34	223.85
821.66	223.85
821.98	223.85
822.30	223.84
822.61	223.90
822.93	223.89
823.25	223.89
823.57	223.88
823.88	223.87
824.20	223.86
824.52	223.88
824.83	223.87
825.15	223.85
825.47	223.83
825.79	223.83
826.10	223.83
826.42	223.82
826.74	223.80
827.05	223.80
827.37	223.79
827.69	223.79
828.00	223.79
828.32	223.79
828.64	223.77
828.95	223.82
829.27	223.79
829.58	223.78
829.90	223.79
830.22	223.79
830.53	223.78
830.85	223.76
831.17	223.72
831.48	223.73
831.80	223.73
832.11	223.72
832.43	223.70
832.75	223.69
833.06	223.75
833.38	223.72
833.69	223.72
834.01	223.73
834.32	223.72
834.64	223.71
834.96	223.71
835.27	223.71
835.59	223.66
835.90	223.65
836.22	223.65
836.53	223.63
836.85	223.62
837.16	223.71
837.48	223.71
837.79	223.75
838.11	223.75
838.42	223.75
838.74	223.76
839.05	223.75
839.37	223.75
839.68	223.69
840.00	223.69
840.31	223.70
840.63	223.68
840.94	223.67
841.26	223.65
841.57	223.65
841.88	223.65
842.20	223.63
842.51	223.61
842.83	223.60
843.14	223.69
843.46	223.69
843.77	223.63
844.08	223.63
844.40	223.59
844.71	223.58
845.03	223.57
845.34	223.57
845.65	223.57
845.97	223.57
846.28	223.56
846.60	223.57
846.91	223.56
847.22	223.55
847.54	223.58
847.85	223.59
848.16	223.59
848.48	223.58
848.79	223.61
849.10	223.63
849.42	223.63
849.73	223.53
850.04	223.53
850.36	223.49
850.67	223.51
850.98	223.52
851.30	223.52
851.61	223.52
851.92	223.50
852.23	223.54
852.55	223.55
852.86	223.56
853.17	223.56
853.49	223.58
853.80	223.60
854.11	223.61
854.42	223.61
854.74	223.61
855.05	223.61
855.36	223.56
855.67	223.55
855.99	223.55
856.30	223.67
856.61	223.67
856.92	223.67
857.23	223.67
857.55	223.65
857.86	223.64
858.17	223.65
858.48	223.64
858.79	223.62
859.11	223.61
859.42	223.61
859.73	223.59
860.04	223.59
860.35	223.56
860.66	223.51
860.98	223.50
861.29	223.51
861.60	223.50
861.91	223.53
862.22	223.52
862.53	223.51
862.84	223.39
863.16	223.40
863.47	223.39
863.78	223.36
864.09	223.36
864.40	223.37
864.71	223.36
865.02	223.37
865.33	223.35
865.64	223.33
865.95	223.33
866.27	223.40
866.58	223.39
866.89	223.39
867.20	223.39
867.51	223.38
867.82	223.36
868.13	223.39
868.44	223.37
868.75	223.39
869.06	223.40
869.37	223.40
869.68	223.38
869.99	223.41
870.30	223.43
870.61	223.43
870.92	223.42
871.23	223.41
871.54	223.43
871.85	223.47
872.16	223.48
872.47	223.47
872.78	223.42
873.09	223.43
873.40	223.42
873.71	223.44
874.02	223.45
874.33	223.44
874.64	223.40
874.95	223.42
875.26	223.40
875.56	223.40
875.87	223.39
876.18	223.39
876.49	223.49
876.80	223.47
877.11	223.47
877.42	223.47
877.73	223.47
878.04	223.45
878.35	223.45
878.66	223.45
878.96	223.45
879.27	223.45
879.58	223.44
879.89	223.43
880.20	223.46
880.51	223.45
880.82	223.46
881.12	223.47
881.43	223.45
881.74	223.43
882.05	223.42
882.36	223.42
882.67	223.43
882.97	223.31
883.28	223.32
883.59	223.31
883.90	223.33
884.21	223.34
884.51	223.33
884.82	223.31
885.13	223.30
885.44	223.30
885.74	223.31
886.05	223.30
886.36	223.30
886.67	223.25
886.98	223.31
887.28	223.31
887.59	223.30
887.90	223.31
888.20	223.31
888.51	223.33
888.82	223.32
889.13	223.33
889.43	223.42
889.74	223.42
890.05	223.42
890.35	223.41
890.66	223.38
890.97	223.39
891.28	223.38
891.58	223.39
891.89	223.39
892.20	223.36
892.50	223.35
892.81	223.34
893.12	223.35
893.42	223.30
893.73	223.31
894.04	223.32
894.34	223.33
894.65	223.34
894.95	223.32
895.26	223.33
895.57	223.38
895.87	223.28
896.18	223.28
896.48	223.28
896.79	223.28
897.10	223.29
897.40	223.29
897.71	223.31
898.01	223.30
898.32	223.31
898.63	223.31
898.93	223.32
899.24	223.33
899.54	223.32
899.85	223.32
900.15	223.31
900.46	223.30
900.76	223.29
901.07	223.29
901.38	223.28
901.68	223.28
901.99	223.22
902.29	223.23
902.60	223.22
902.90	223.21
903.21	223.20
903.51	223.20
903.82	223.23
904.12	223.22
904.43	223.23
904.73	223.22
905.03	223.22
905.34	223.31
905.64	223.30
905.95	223.30
906.25	223.31
906.56	223.30
906.86	223.31
907.17	223.30
907.47	223.30
907.77	223.30
908.08	223.28
908.38	223.29
908.69	223.29
908.99	223.31
909.30	223.32
909.60	223.31
909.90	223.31
910.21	223.28
910.51	223.26
910.81	223.26
911.12	223.27
911.42	223.28
911.73	223.18
912.03	223.18
912.33	223.20
912.64	223.18
912.94	223.17
913.24	223.15
913.55	223.14
913.85	223.14
914.15	223.16
914.46	223.17
914.76	223.16
915.06	223.14
915.37	223.12
915.67	223.11
915.97	223.11
916.27	223.09
916.58	223.09
916.88	223.09
917.18	223.07
917.49	223.14
917.79	223.13
918.09	223.14
918.39	223.16
918.70	223.15
919.00	223.17
919.30	223.21
919.60	223.20
919.91	223.19
920.21	223.20
920.51	223.16
920.81	223.16
921.12	223.18
921.42	223.18
921.72	223.18
922.02	223.19
922.32	223.20
922.63	223.21
922.93	223.26
923.23	223.27
923.53	223.27
923.83	223.20
924.13	223.21
924.44	223.22
924.74	223.24
925.04	223.26
925.34	223.26
925.64	223.22
925.94	223.23
926.24	223.28
926.55	223.27
926.85	223.29
927.15	223.28
927.45	223.28
927.75	223.28
928.05	223.28
928.35	223.27
928.65	223.29
928.95	223.29
929.26	223.25
929.56	223.27
929.86	223.29
930.16	223.28
930.46	223.27
930.76	223.27
931.06	223.22
931.36	223.19
931.66	223.20
931.96	223.21
932.26	223.23
932.56	223.18
932.86	223.19
933.16	223.19
933.46	223.18
933.76	223.16
934.06	223.19
934.36	223.23
934.66	223.23
934.96	223.21
935.26	223.22
935.56	223.23
935.86	223.19
936.16	223.18
936.46	223.17
936.76	223.16
937.06	223.15
937.36	223.15
937.66	223.16
937.96	223.15
938.26	223.13
938.56	223.11
938.86	223.12
939.16	223.14
939.46	223.14
939.76	223.15
940.06	223.15
940.35	223.13
940.65	223.08
940.95	223.09
941.25	223.07
941.55	223.05
941.85	223.04
942.15	223.07
942.45	223.08
942.75	223.09
943.04	223.09
943.34	223.10
943.64	223.09
943.94	223.08
944.24	223.07
944.54	223.08
944.84	223.08
945.13	223.07
945.43	223.05
945.73	223.05
946.03	223.05
946.33	223.04
946.62	223.03
946.92	223.03
947.22	223.02
947.52	223.03
947.82	223.05
948.11	223.04
948.41	223.01
948.71	222.99
949.01	223.00
949.31	222.99
949.60	222.98
949.90	223.00
950.20	222.99
950.50	222.99
950.79	222.99
951.09	223.00
951.39	223.00
951.69	222.98
951.98	223.00
952.28	223.01
952.58	223.00
952.87	223.01
953.17	223.02
953.47	223.01
953.76	223.01
954.06	222.99
954.36	222.97
954.66	222.98
954.95	223.00
955.25	223.00
955.55	223.01
955.84	223.00
956.14	223.01
956.44	223.02
956.73	223.01
957.03	223.01
957.32	223.01
957.62	223.02
957.92	223.04
958.21	223.02
958.51	223.13
958.81	223.15
959.10	223.16
959.40	223.18
959.69	223.19
959.99	223.20
960.29	223.20
960.58	223.21
960.88	223.25
961.17	223.24
961.47	223.25
961.76	223.24
962.06	223.26
962.36	223.25
962.65	223.24
962.95	223.25
963.24	223.24
963.54	223.24
963.83	223.25
964.13	223.23
964.42	223.23
964.72	223.13
965.01	223.13
965.31	223.13
965.60	223.10
965.90	223.17
966.19	223.15
966.49	223.15
966.78	223.15
967.08	223.14
967.37	223.14
967.67	223.12
967.96	223.13
968.26	223.13
968.55	223.14
968.85	223.14
969.14	223.14
969.43	223.14
969.73	223.13
970.02	223.13
970.32	223.13
970.61	223.12
970.91	223.09
971.20	223.08
971.49	223.07
971.79	223.09
972.08	223.01
972.38	223.02
972.67	223.01
972.96	223.02
973.26	223.00
973.55	223.03
973.85	223.03
974.14	223.03
974.43	223.03
974.73	223.02
975.02	223.00
975.31	223.00
975.61	223.01
975.90	223.00
976.19	222.98
976.49	222.98
976.78	222.99
977.07	222.98
977.37	222.99
977.66	223.00
977.95	222.98
978.24	222.99
978.54	223.00
978.83	222.99
979.12	222.98
979.42	222.98
979.71	222.96
980.00	222.96
980.29	222.96
980.59	222.93
980.88	222.95
981.17	222.95
981.46	222.95
981.76	222.95
982.05	222.98
982.34	222.99
982.63	222.98
982.93	222.99
983.22	223.03
983.51	223.03
983.80	223.05
984.09	223.06
984.39	223.06
984.68	223.05
984.97	223.05
985.26	223.05
985.55	223.05
985.85	223.03
986.14	223.04
986.43	223.06
986.72	223.06
987.01	223.03
987.30	223.03
987.59	223.03
987.89	223.03
988.18	223.00
988.47	222.99
988.76	222.99
989.05	222.98
989.34	222.97
989.63	222.99
989.92	222.97
990.22	222.96
990.51	222.95
990.80	222.94
991.09	222.96
991.38	222.97
991.67	222.96
991.96	222.95
992.25	222.95
992.54	222.92
992.83	222.93
993.12	222.92
993.41	222.94
993.70	222.98
993.99	222.99
994.28	223.00
994.58	223.02
994.87	223.01
995.16	223.00
995.45	222.99
995.74	222.95
996.03	222.96
996.32	222.98
996.61	223.00
996.90	223.01
997.19	222.99
997.48	223.00
997.77	223.00
998.06	223.01
998.34	222.99
998.63	222.99
998.92	222.99
999.21	223.01
999.50	223.00
999.79	222.96
1000.08	222.96
1000.37	222.97
1000.66	222.95
1000.95	222.97
1001.24	222.98
1001.53	223.00
1001.82	223.00
1002.11	222.98
1002.40	222.98
1002.68	223.00
1002.97	223.06
1003.26	223.05
1003.55	223.03
1003.84	223.04
1004.13	223.08
1004.42	223.09
1004.71	223.09
1004.99	223.09
1005.28	223.11
1005.57	223.11
1005.86	223.11
1006.15	223.11
1006.44	223.09
1006.72	223.09
1007.01	223.07
1007.30	223.07
1007.59	223.06
1007.88	223.06
1008.17	223.07
1008.45	223.06
1008.74	223.01
1009.03	222.96
1009.32	222.98
1009.60	222.98
1009.89	222.97
1010.18	222.93
1010.47	222.91
1010.76	222.92
1011.04	222.91
1011.33	222.91
1011.62	222.92
1011.91	222.93
1012.19	222.93
1012.48	222.95
1012.77	222.95
1013.05	222.99
1013.34	222.98
1013.63	222.99
1013.92	222.98
1014.20	222.98
1014.49	222.97
1014.78	222.99
1015.06	222.96
1015.35	222.95
1015.64	222.96
1015.92	222.98
1016.21	222.99
1016.50	222.99
1016.78	223.00
1017.07	223.01
1017.36	223.00
1017.64	222.97
1017.93	222.98
1018.22	222.97
1018.50	222.96
1018.79	222.96
1019.08	222.93
1019.36	222.94
1019.65	222.93
1019.93	222.96
1020.22	222.97
1020.51	223.04
1020.79	223.02
1021.08	222.82
1021.36	222.84
1021.65	223.04
1021.94	223.11
1022.22	223.06
1022.51	222.82
1022.79	223.38
1023.08	223.06
1023.36	224.34
1023.65	222.68
>>>>>End Processed Spectral Data<<<<<
