SpectraSuite Data File
++++++++++++++++++++++++++++++++++++
Date: Wed Sep 30 19:33:38 EDT 2015
User: lab3
Dark Spectrum Present: No
Reference Spectrum Present: No
Number of Sampled Component Spectra: 1
Spectrometers: USB2E7196
Integration Time (usec): 36000 (USB2E7196)
Spectra Averaged: 10000 (USB2E7196)
Boxcar Smoothing: 10 (USB2E7196)
Correct for Electrical Dark: No (USB2E7196)
Strobe/Lamp Enabled: No (USB2E7196)
Correct for Detector Non-linearity: No (USB2E7196)
Correct for Stray Light: No (USB2E7196)
Number of Pixels in Processed Spectrum: 2048
>>>>>Begin Processed Spectral Data<<<<<
339.09	0.00
339.48	210.70
339.86	212.14
340.24	213.52
340.63	214.98
341.01	217.82
341.39	217.64
341.78	219.06
342.16	220.15
342.54	220.63
342.93	209.23
343.31	219.80
343.69	220.34
344.07	220.80
344.46	221.23
344.84	221.61
345.22	221.86
345.60	222.11
345.99	222.30
346.37	222.44
346.75	222.55
347.13	222.62
347.52	222.69
347.90	222.78
348.28	222.81
348.66	222.86
349.05	222.86
349.43	222.91
349.81	222.97
350.19	223.02
350.57	223.09
350.96	223.17
351.34	223.26
351.72	223.35
352.10	223.46
352.48	223.53
352.87	223.58
353.25	223.65
353.63	223.71
354.01	223.77
354.39	223.85
354.77	223.93
355.15	224.03
355.54	224.08
355.92	224.11
356.30	224.19
356.68	224.32
357.06	224.40
357.44	224.45
357.82	224.52
358.20	224.63
358.58	224.69
358.97	224.75
359.35	224.83
359.73	224.91
360.11	224.96
360.49	225.02
360.87	225.07
361.25	225.13
361.63	225.21
362.01	225.26
362.39	225.29
362.77	225.34
363.15	225.36
363.53	225.40
363.91	225.43
364.29	225.45
364.67	225.38
365.05	225.41
365.43	225.44
365.81	225.46
366.19	225.48
366.57	225.53
366.95	225.53
367.33	225.51
367.71	225.50
368.09	225.52
368.47	225.51
368.85	225.50
369.23	225.51
369.61	225.46
369.99	225.47
370.37	225.47
370.75	225.52
371.13	225.49
371.51	225.45
371.89	225.43
372.27	225.40
372.65	225.38
373.03	225.33
373.41	225.29
373.78	225.24
374.16	225.14
374.54	225.07
374.92	225.02
375.30	224.97
375.68	224.91
376.06	224.86
376.44	224.81
376.82	224.76
377.19	224.71
377.57	224.66
377.95	224.57
378.33	224.51
378.71	224.37
379.09	224.32
379.47	224.29
379.84	224.23
380.22	224.17
380.60	224.10
380.98	224.05
381.36	224.00
381.73	223.94
382.11	223.91
382.49	223.86
382.87	223.80
383.25	223.75
383.62	223.83
384.00	223.77
384.38	223.72
384.76	223.70
385.13	223.69
385.51	223.65
385.89	223.60
386.27	223.56
386.64	223.54
387.02	223.49
387.40	223.45
387.78	223.42
388.15	223.39
388.53	223.35
388.91	223.32
389.29	223.29
389.66	223.28
390.04	223.24
390.42	223.24
390.79	223.22
391.17	223.20
391.55	223.07
391.92	223.06
392.30	223.05
392.68	223.02
393.05	223.00
393.43	223.00
393.81	223.00
394.18	222.98
394.56	222.98
394.94	223.01
395.31	223.00
395.69	223.04
396.06	223.07
396.44	223.09
396.82	223.10
397.19	223.17
397.57	223.18
397.95	223.22
398.32	223.21
398.70	223.25
399.07	223.31
399.45	223.34
399.82	223.38
400.20	223.42
400.58	223.47
400.95	223.48
401.33	223.56
401.70	223.69
402.08	223.78
402.45	223.85
402.83	223.95
403.20	224.05
403.58	224.13
403.95	224.25
404.33	224.38
404.71	224.51
405.08	224.68
405.46	224.82
405.83	224.98
406.21	225.14
406.58	225.33
406.96	225.52
407.33	225.73
407.70	225.96
408.08	226.28
408.45	226.56
408.83	226.87
409.20	227.14
409.58	227.39
409.95	227.72
410.33	228.09
410.70	228.43
411.08	228.84
411.45	229.27
411.82	229.71
412.20	230.20
412.57	230.80
412.95	231.26
413.32	231.87
413.69	232.49
414.07	233.16
414.44	233.87
414.82	234.60
415.19	235.47
415.56	236.34
415.94	237.24
416.31	238.25
416.68	239.27
417.06	240.45
417.43	241.57
417.81	242.85
418.18	244.15
418.55	245.57
418.93	247.05
419.30	248.60
419.67	250.25
420.04	251.94
420.42	253.71
420.79	255.76
421.16	257.82
421.54	259.93
421.91	262.12
422.28	264.41
422.66	266.87
423.03	269.21
423.40	271.68
423.77	274.33
424.15	277.04
424.52	279.86
424.89	282.91
425.26	285.95
425.64	288.77
426.01	291.94
426.38	295.19
426.75	298.54
427.13	301.96
427.50	305.54
427.87	309.27
428.24	313.03
428.61	316.63
428.99	320.52
429.36	324.78
429.73	328.86
430.10	332.92
430.47	337.07
430.85	341.35
431.22	345.91
431.59	350.58
431.96	355.14
432.33	360.18
432.70	364.97
433.08	370.64
433.45	375.99
433.82	381.24
434.19	387.10
434.56	392.86
434.93	398.43
435.30	403.92
435.68	410.11
436.05	416.17
436.42	422.22
436.79	427.72
437.16	433.67
437.53	440.03
437.90	446.39
438.27	452.59
438.64	459.33
439.01	465.41
439.38	470.97
439.75	476.34
440.13	482.46
440.50	488.27
440.87	492.85
441.24	497.87
441.61	503.42
441.98	507.48
442.35	512.30
442.72	517.24
443.09	521.97
443.46	525.00
443.83	527.23
444.20	529.11
444.57	531.89
444.94	533.51
445.31	535.20
445.68	536.68
446.05	537.78
446.42	537.56
446.79	537.26
447.16	537.00
447.53	536.78
447.90	534.91
448.27	533.17
448.64	530.45
449.01	528.63
449.37	524.74
449.74	521.21
450.11	516.69
450.48	511.70
450.85	506.70
451.22	502.43
451.59	498.26
451.96	494.47
452.33	488.94
452.70	484.02
453.07	478.02
453.43	472.03
453.80	466.23
454.17	460.66
454.54	455.49
454.91	449.66
455.28	444.16
455.65	439.00
456.02	433.50
456.38	429.07
456.75	423.36
457.12	418.75
457.49	414.10
457.86	409.66
458.23	405.78
458.59	401.49
458.96	397.09
459.33	393.21
459.70	389.25
460.07	386.23
460.43	382.67
460.80	379.34
461.17	376.40
461.54	373.24
461.91	370.29
462.27	367.29
462.64	364.83
463.01	362.02
463.38	359.18
463.74	356.61
464.11	354.31
464.48	352.23
464.85	350.02
465.21	348.32
465.58	346.44
465.95	344.27
466.32	342.53
466.68	340.83
467.05	339.12
467.42	337.47
467.78	335.69
468.15	334.06
468.52	332.83
468.88	331.23
469.25	329.77
469.62	328.60
469.98	327.34
470.35	326.21
470.72	325.19
471.08	324.16
471.45	323.31
471.82	322.37
472.18	321.39
472.55	320.76
472.92	319.97
473.28	319.36
473.65	318.73
474.02	318.13
474.38	317.64
474.75	317.37
475.11	316.96
475.48	316.81
475.85	316.65
476.21	316.60
476.58	316.60
476.94	316.79
477.31	316.90
477.67	317.05
478.04	317.30
478.41	317.63
478.77	318.08
479.14	318.41
479.50	318.95
479.87	319.63
480.23	320.31
480.60	320.97
480.96	321.65
481.33	322.59
481.69	323.53
482.06	324.46
482.42	325.35
482.79	326.41
483.15	327.62
483.52	328.98
483.88	330.30
484.25	331.70
484.61	333.16
484.98	334.74
485.34	336.51
485.71	338.34
486.07	340.29
486.44	342.22
486.80	344.38
487.17	346.59
487.53	349.02
487.90	351.55
488.26	354.29
488.62	357.18
488.99	360.07
489.35	363.10
489.72	366.36
490.08	369.79
490.44	373.32
490.81	377.01
491.17	380.80
491.54	384.84
491.90	388.98
492.26	393.44
492.63	398.13
492.99	403.01
493.36	408.02
493.72	413.29
494.08	418.72
494.45	424.43
494.81	430.34
495.17	436.39
495.54	442.77
495.90	449.47
496.26	456.31
496.63	463.38
496.99	470.73
497.35	478.45
497.72	486.46
498.08	494.64
498.44	503.07
498.80	512.05
499.17	521.25
499.53	530.80
499.89	540.57
500.26	550.51
500.62	560.74
500.98	571.61
501.34	582.64
501.71	594.18
502.07	605.98
502.43	618.16
502.79	630.69
503.16	643.62
503.52	656.72
503.88	670.19
504.24	684.12
504.60	698.33
504.97	712.92
505.33	727.89
505.69	743.74
506.05	759.79
506.41	775.85
506.78	792.21
507.14	809.06
507.50	826.52
507.86	844.38
508.22	862.49
508.59	880.62
508.95	899.47
509.31	918.77
509.67	938.73
510.03	958.93
510.39	979.36
510.75	1000.02
511.12	1020.99
511.48	1042.27
511.84	1063.66
512.20	1085.37
512.56	1108.14
512.92	1131.14
513.28	1153.89
513.64	1176.97
514.00	1200.44
514.37	1224.27
514.73	1248.13
515.09	1271.78
515.45	1295.84
515.81	1320.51
516.17	1345.22
516.53	1369.66
516.89	1394.18
517.25	1418.90
517.61	1443.78
517.97	1468.88
518.33	1493.71
518.69	1518.68
519.05	1543.93
519.41	1569.32
519.77	1594.97
520.13	1619.90
520.49	1644.99
520.85	1670.29
521.21	1695.53
521.57	1721.42
521.93	1746.60
522.29	1772.63
522.65	1798.37
523.01	1823.98
523.37	1848.83
523.73	1874.38
524.09	1900.05
524.45	1925.57
524.81	1950.64
525.17	1975.65
525.53	2000.27
525.89	2024.98
526.25	2049.89
526.61	2074.23
526.97	2098.88
527.33	2123.45
527.68	2147.79
528.04	2171.39
528.40	2194.84
528.76	2218.48
529.12	2241.06
529.48	2264.00
529.84	2285.14
530.20	2306.86
530.56	2328.18
530.91	2349.59
531.27	2370.46
531.63	2390.78
531.99	2410.62
532.35	2430.12
532.71	2449.74
533.07	2469.93
533.42	2488.55
533.78	2507.56
534.14	2526.57
534.50	2544.72
534.86	2563.55
535.21	2580.59
535.57	2597.52
535.93	2613.70
536.29	2628.67
536.65	2644.47
537.00	2659.11
537.36	2674.24
537.72	2688.36
538.08	2702.24
538.44	2714.89
538.79	2727.85
539.15	2739.13
539.51	2750.33
539.87	2761.17
540.22	2769.76
540.58	2778.51
540.94	2787.81
541.29	2795.65
541.65	2802.46
542.01	2808.78
542.37	2813.22
542.72	2819.61
543.08	2825.38
543.44	2831.03
543.79	2835.87
544.15	2839.80
544.51	2843.81
544.87	2846.92
545.22	2849.57
545.58	2851.19
545.94	2853.33
546.29	2853.96
546.65	2854.61
547.01	2855.36
547.36	2856.18
547.72	2857.27
548.07	2856.87
548.43	2855.84
548.79	2854.12
549.14	2852.40
549.50	2851.29
549.86	2849.25
550.21	2844.76
550.57	2840.78
550.92	2835.44
551.28	2830.64
551.64	2825.77
551.99	2821.24
552.35	2816.29
552.70	2810.92
553.06	2806.34
553.41	2801.26
553.77	2795.44
554.13	2790.43
554.48	2784.51
554.84	2776.97
555.19	2769.58
555.55	2761.57
555.90	2754.14
556.26	2747.77
556.61	2740.76
556.97	2731.59
557.32	2723.30
557.68	2715.36
558.03	2706.75
558.39	2698.71
558.74	2690.91
559.10	2681.92
559.45	2672.56
559.81	2663.54
560.16	2653.85
560.52	2643.71
560.87	2634.63
561.23	2625.21
561.58	2615.25
561.94	2604.99
562.29	2594.29
562.64	2584.15
563.00	2574.29
563.35	2564.23
563.71	2553.26
564.06	2541.85
564.42	2531.39
564.77	2520.57
565.12	2509.90
565.48	2499.01
565.83	2488.84
566.19	2478.69
566.54	2468.10
566.89	2456.55
567.25	2444.92
567.60	2434.13
567.96	2422.86
568.31	2410.15
568.66	2397.45
569.02	2385.80
569.37	2373.96
569.72	2362.60
570.08	2350.48
570.43	2337.83
570.78	2324.88
571.14	2311.74
571.49	2299.34
571.84	2287.29
572.20	2273.97
572.55	2261.00
572.90	2247.89
573.26	2233.82
573.61	2219.13
573.96	2204.74
574.31	2190.72
574.67	2177.00
575.02	2162.84
575.37	2148.26
575.72	2133.91
576.08	2120.18
576.43	2105.33
576.78	2090.53
577.13	2076.53
577.49	2062.60
577.84	2049.07
578.19	2034.68
578.54	2019.88
578.90	2004.59
579.25	1988.98
579.60	1974.87
579.95	1960.38
580.30	1945.91
580.66	1931.71
581.01	1917.16
581.36	1902.98
581.71	1889.37
582.06	1875.23
582.42	1861.17
582.77	1847.83
583.12	1834.13
583.47	1820.45
583.82	1806.93
584.17	1793.29
584.53	1779.50
584.88	1765.71
585.23	1751.60
585.58	1738.02
585.93	1724.84
586.28	1712.45
586.63	1699.88
586.98	1686.53
587.34	1673.44
587.69	1659.84
588.04	1646.54
588.39	1633.91
588.74	1620.72
589.09	1607.33
589.44	1593.85
589.79	1580.90
590.14	1567.89
590.49	1555.07
590.84	1542.11
591.19	1529.81
591.54	1517.00
591.89	1504.01
592.25	1491.35
592.60	1478.29
592.95	1465.80
593.30	1453.63
593.65	1441.25
594.00	1429.08
594.35	1417.68
594.70	1405.44
595.05	1394.31
595.40	1382.97
595.75	1371.02
596.10	1359.89
596.45	1348.95
596.80	1338.52
597.15	1327.88
597.50	1317.21
597.85	1306.76
598.19	1296.48
598.54	1285.58
598.89	1275.39
599.24	1265.53
599.59	1255.45
599.94	1246.40
600.29	1237.25
600.64	1227.86
600.99	1217.87
601.34	1208.38
601.69	1198.27
602.04	1189.27
602.39	1180.10
602.74	1171.19
603.08	1162.51
603.43	1153.35
603.78	1144.06
604.13	1134.92
604.48	1125.69
604.83	1116.74
605.18	1107.71
605.53	1098.60
605.87	1089.64
606.22	1080.97
606.57	1072.03
606.92	1063.16
607.27	1054.12
607.62	1045.15
607.96	1036.38
608.31	1028.65
608.66	1020.48
609.01	1012.77
609.36	1004.98
609.70	996.96
610.05	988.77
610.40	980.92
610.75	973.18
611.10	965.74
611.44	957.89
611.79	950.37
612.14	942.45
612.49	934.70
612.83	927.46
613.18	920.25
613.53	912.84
613.88	905.51
614.22	898.83
614.57	891.97
614.92	885.09
615.27	878.22
615.61	871.20
615.96	864.39
616.31	857.50
616.65	850.51
617.00	843.78
617.35	837.19
617.70	830.63
618.04	824.14
618.39	817.66
618.74	811.55
619.08	805.22
619.43	799.16
619.78	793.11
620.12	786.86
620.47	780.79
620.82	774.84
621.16	769.21
621.51	763.19
621.85	757.17
622.20	751.20
622.55	745.45
622.89	739.63
623.24	733.88
623.59	728.21
623.93	722.56
624.28	717.06
624.62	711.54
624.97	706.00
625.32	700.58
625.66	694.99
626.01	689.41
626.35	683.99
626.70	678.60
627.04	673.41
627.39	668.26
627.73	663.22
628.08	658.40
628.43	653.47
628.77	648.61
629.12	643.90
629.46	639.37
629.81	634.62
630.15	629.76
630.50	625.06
630.84	620.55
631.19	616.26
631.53	611.98
631.88	607.60
632.22	603.34
632.57	599.30
632.91	595.24
633.26	591.25
633.60	587.35
633.95	583.57
634.29	579.62
634.64	575.65
634.98	571.55
635.32	567.62
635.67	563.82
636.01	559.98
636.36	556.17
636.70	552.50
637.05	548.83
637.39	545.37
637.73	541.77
638.08	538.23
638.42	534.66
638.77	530.98
639.11	527.27
639.45	523.61
639.80	519.93
640.14	516.45
640.49	512.92
640.83	509.28
641.17	505.68
641.52	502.24
641.86	498.80
642.20	495.56
642.55	492.16
642.89	488.83
643.23	485.70
643.58	482.82
643.92	479.82
644.26	476.85
644.61	473.87
644.95	470.89
645.29	467.84
645.64	464.79
645.98	461.86
646.32	459.10
646.66	456.36
647.01	453.59
647.35	450.86
647.69	448.03
648.04	445.35
648.38	442.69
648.72	439.99
649.06	437.38
649.41	434.80
649.75	432.21
650.09	429.64
650.43	427.08
650.78	424.49
651.12	421.88
651.46	419.39
651.80	417.01
652.14	414.70
652.49	412.41
652.83	410.16
653.17	407.90
653.51	405.72
653.85	403.60
654.20	401.43
654.54	399.16
654.88	397.10
655.22	395.09
655.56	393.04
655.90	391.10
656.25	389.15
656.59	387.20
656.93	385.36
657.27	383.56
657.61	381.66
657.95	379.82
658.29	378.00
658.64	376.21
658.98	374.38
659.32	372.58
659.66	370.89
660.00	369.21
660.34	367.57
660.68	365.88
661.02	364.12
661.36	362.47
661.70	360.90
662.05	359.30
662.39	357.69
662.73	356.17
663.07	354.67
663.41	353.20
663.75	351.76
664.09	350.32
664.43	348.79
664.77	347.38
665.11	345.89
665.45	344.50
665.79	343.09
666.13	341.68
666.47	340.26
666.81	338.81
667.15	337.33
667.49	335.95
667.83	334.62
668.17	333.33
668.51	332.06
668.85	330.82
669.19	329.65
669.53	328.40
669.87	327.14
670.21	325.91
670.55	324.69
670.89	323.55
671.23	322.37
671.57	321.20
671.91	320.09
672.25	319.05
672.58	317.99
672.92	316.90
673.26	315.88
673.60	314.86
673.94	313.83
674.28	312.86
674.62	311.89
674.96	310.88
675.30	309.94
675.64	308.97
675.97	308.01
676.31	307.02
676.65	306.05
676.99	305.15
677.33	304.18
677.67	303.27
678.01	302.28
678.34	301.37
678.68	300.52
679.02	299.63
679.36	298.74
679.70	297.87
680.04	297.03
680.37	296.17
680.71	295.35
681.05	294.58
681.39	293.77
681.73	292.93
682.06	292.12
682.40	291.32
682.74	290.55
683.08	289.80
683.42	289.03
683.75	288.34
684.09	287.57
684.43	286.86
684.77	286.12
685.10	285.44
685.44	284.73
685.78	284.02
686.12	283.34
686.45	282.65
686.79	281.97
687.13	281.31
687.46	280.62
687.80	279.95
688.14	279.23
688.48	278.59
688.81	277.94
689.15	277.34
689.49	276.70
689.82	276.08
690.16	275.40
690.50	274.78
690.83	274.16
691.17	273.56
691.51	272.98
691.84	272.41
692.18	271.80
692.52	271.19
692.85	270.61
693.19	270.07
693.52	269.51
693.86	268.95
694.20	268.39
694.53	267.87
694.87	267.33
695.21	266.81
695.54	266.29
695.88	265.76
696.21	265.20
696.55	264.68
696.88	264.17
697.22	263.67
697.56	263.18
697.89	262.63
698.23	262.11
698.56	261.58
698.90	261.10
699.23	260.61
699.57	260.16
699.90	259.69
700.24	259.19
700.58	258.73
700.91	258.31
701.25	257.96
701.58	257.57
701.92	257.18
702.25	256.76
702.59	256.33
702.92	255.92
703.26	255.53
703.59	255.12
703.93	254.80
704.26	254.42
704.60	254.04
704.93	253.67
705.26	253.30
705.60	252.97
705.93	252.58
706.27	252.27
706.60	251.93
706.94	251.62
707.27	251.23
707.61	250.88
707.94	250.50
708.27	250.06
708.61	249.67
708.94	249.30
709.28	248.96
709.61	248.63
709.94	248.32
710.28	248.02
710.61	247.73
710.95	247.35
711.28	247.12
711.61	246.82
711.95	246.56
712.28	246.27
712.61	245.96
712.95	245.74
713.28	245.51
713.61	245.22
713.95	244.92
714.28	244.68
714.61	244.41
714.95	244.16
715.28	243.90
715.61	243.65
715.95	243.41
716.28	243.17
716.61	242.95
716.95	242.70
717.28	242.47
717.61	242.22
717.94	241.99
718.28	241.69
718.61	241.47
718.94	241.22
719.27	241.01
719.61	240.81
719.94	240.57
720.27	240.30
720.60	240.09
720.94	239.89
721.27	239.69
721.60	239.52
721.93	239.33
722.27	239.17
722.60	239.00
722.93	238.80
723.26	238.63
723.59	238.42
723.93	238.25
724.26	238.07
724.59	237.90
724.92	237.73
725.25	237.60
725.59	237.43
725.92	237.29
726.25	237.13
726.58	236.97
726.91	236.80
727.24	236.66
727.57	236.51
727.91	236.34
728.24	236.20
728.57	236.04
728.90	235.91
729.23	235.72
729.56	235.62
729.89	235.48
730.22	235.33
730.55	235.19
730.89	235.04
731.22	234.89
731.55	234.76
731.88	234.62
732.21	234.47
732.54	234.33
732.87	234.21
733.20	234.09
733.53	233.97
733.86	233.86
734.19	233.72
734.52	233.62
734.85	233.58
735.18	233.44
735.51	233.35
735.84	233.23
736.17	233.15
736.50	232.99
736.83	233.00
737.16	232.90
737.49	232.80
737.82	232.70
738.15	232.62
738.48	232.52
738.81	232.41
739.14	232.30
739.47	232.19
739.80	232.08
740.13	231.99
740.46	231.87
740.79	231.76
741.12	231.66
741.45	231.55
741.78	231.40
742.11	231.33
742.44	231.21
742.77	231.14
743.10	231.02
743.43	230.93
743.75	230.73
744.08	230.80
744.41	230.70
744.74	230.61
745.07	230.50
745.40	230.43
745.73	230.40
746.06	230.33
746.39	230.27
746.71	230.18
747.04	230.10
747.37	230.02
747.70	229.96
748.03	229.89
748.36	229.83
748.68	229.75
749.01	229.65
749.34	229.58
749.67	229.51
750.00	229.46
750.33	229.47
750.65	229.41
750.98	229.19
751.31	229.12
751.64	229.06
751.97	229.05
752.29	228.97
752.62	228.86
752.95	228.78
753.28	228.70
753.60	228.63
753.93	228.59
754.26	228.53
754.59	228.43
754.91	228.35
755.24	228.28
755.57	228.26
755.90	228.20
756.22	228.12
756.55	228.04
756.88	227.96
757.20	227.82
757.53	227.74
757.86	227.68
758.19	227.63
758.51	227.58
758.84	227.47
759.17	227.40
759.49	227.35
759.82	227.36
760.15	227.32
760.47	227.26
760.80	227.18
761.13	227.15
761.45	227.10
761.78	227.06
762.11	227.02
762.43	226.92
762.76	226.87
763.08	226.85
763.41	226.81
763.74	226.77
764.06	226.72
764.39	226.68
764.71	226.63
765.04	226.58
765.37	226.52
765.69	226.48
766.02	226.44
766.34	226.39
766.67	226.30
767.00	226.28
767.32	226.29
767.65	226.32
767.97	226.27
768.30	226.23
768.62	226.19
768.95	226.14
769.27	226.10
769.60	226.08
769.92	226.02
770.25	225.97
770.57	225.92
770.90	225.88
771.22	225.84
771.55	225.80
771.87	225.77
772.20	225.74
772.52	225.79
772.85	225.88
773.17	225.85
773.50	225.81
773.82	225.76
774.15	225.68
774.47	225.58
774.80	225.54
775.12	225.51
775.45	225.47
775.77	225.45
776.09	225.43
776.42	225.40
776.74	225.41
777.07	225.38
777.39	225.35
777.72	225.32
778.04	225.31
778.36	225.28
778.69	225.25
779.01	225.24
779.33	225.12
779.66	224.98
779.98	224.95
780.31	224.93
780.63	224.95
780.95	224.95
781.28	224.93
781.60	224.90
781.92	224.88
782.25	224.86
782.57	224.84
782.89	224.81
783.22	224.78
783.54	224.74
783.86	224.73
784.19	224.71
784.51	224.72
784.83	224.69
785.16	224.67
785.48	224.65
785.80	224.64
786.12	224.63
786.45	224.61
786.77	224.61
787.09	224.58
787.42	224.53
787.74	224.51
788.06	224.50
788.38	224.48
788.71	224.46
789.03	224.45
789.35	224.44
789.67	224.41
789.99	224.41
790.32	224.38
790.64	224.37
790.96	224.46
791.28	224.41
791.61	224.39
791.93	224.38
792.25	224.36
792.57	224.42
792.89	224.39
793.21	224.38
793.54	224.36
793.86	224.34
794.18	224.33
794.50	224.30
794.82	224.28
795.14	224.29
795.47	224.29
795.79	224.28
796.11	224.25
796.43	224.24
796.75	224.22
797.07	224.22
797.39	224.20
797.71	224.10
798.04	224.09
798.36	224.09
798.68	224.08
799.00	224.07
799.32	224.01
799.64	224.02
799.96	224.00
800.28	224.02
800.60	224.00
800.92	223.99
801.24	223.98
801.56	223.97
801.89	223.96
802.21	223.95
802.53	223.92
802.85	223.93
803.17	223.97
803.49	223.94
803.81	223.92
804.13	223.90
804.45	223.88
804.77	223.87
805.09	223.86
805.41	223.84
805.73	223.81
806.05	223.77
806.37	223.75
806.69	223.73
807.01	223.70
807.33	223.70
807.65	223.65
807.97	223.69
808.28	223.67
808.60	223.66
808.92	223.63
809.24	223.69
809.56	223.66
809.88	223.61
810.20	223.61
810.52	223.63
810.84	223.61
811.16	223.59
811.48	223.58
811.80	223.61
812.12	223.60
812.43	223.61
812.75	223.61
813.07	223.59
813.39	223.59
813.71	223.57
814.03	223.56
814.35	223.56
814.67	223.50
814.98	223.49
815.30	223.48
815.62	223.46
815.94	223.39
816.26	223.39
816.58	223.37
816.89	223.37
817.21	223.34
817.53	223.34
817.85	223.34
818.17	223.33
818.48	223.28
818.80	223.30
819.12	223.28
819.44	223.26
819.76	223.24
820.07	223.23
820.39	223.23
820.71	223.23
821.03	223.23
821.34	223.22
821.66	223.23
821.98	223.24
822.30	223.23
822.61	223.29
822.93	223.27
823.25	223.26
823.57	223.25
823.88	223.26
824.20	223.25
824.52	223.26
824.83	223.25
825.15	223.24
825.47	223.22
825.79	223.23
826.10	223.22
826.42	223.22
826.74	223.22
827.05	223.21
827.37	223.21
827.69	223.20
828.00	223.20
828.32	223.20
828.64	223.18
828.95	223.23
829.27	223.19
829.58	223.19
829.90	223.20
830.22	223.20
830.53	223.18
830.85	223.17
831.17	223.14
831.48	223.14
831.80	223.14
832.11	223.13
832.43	223.11
832.75	223.11
833.06	223.17
833.38	223.14
833.69	223.13
834.01	223.13
834.32	223.13
834.64	223.11
834.96	223.11
835.27	223.11
835.59	223.08
835.90	223.06
836.22	223.05
836.53	223.03
836.85	223.02
837.16	223.12
837.48	223.12
837.79	223.16
838.11	223.16
838.42	223.16
838.74	223.16
839.05	223.16
839.37	223.15
839.68	223.08
840.00	223.08
840.31	223.09
840.63	223.08
840.94	223.07
841.26	223.06
841.57	223.05
841.88	223.06
842.20	223.04
842.51	223.03
842.83	223.02
843.14	223.11
843.46	223.11
843.77	223.05
844.08	223.04
844.40	223.01
844.71	222.99
845.03	222.98
845.34	222.97
845.65	222.97
845.97	222.97
846.28	222.98
846.60	222.99
846.91	222.97
847.22	222.96
847.54	222.98
847.85	222.99
848.16	222.98
848.48	222.95
848.79	222.99
849.10	223.01
849.42	223.01
849.73	222.91
850.04	222.92
850.36	222.88
850.67	222.89
850.98	222.90
851.30	222.91
851.61	222.90
851.92	222.90
852.23	222.93
852.55	222.93
852.86	222.93
853.17	222.93
853.49	222.95
853.80	222.97
854.11	222.98
854.42	222.99
854.74	222.98
855.05	222.99
855.36	222.93
855.67	222.94
855.99	222.94
856.30	223.06
856.61	223.05
856.92	223.05
857.23	223.05
857.55	223.04
857.86	223.03
858.17	223.05
858.48	223.03
858.79	223.00
859.11	223.01
859.42	223.00
859.73	222.99
860.04	222.98
860.35	222.95
860.66	222.92
860.98	222.91
861.29	222.93
861.60	222.92
861.91	222.94
862.22	222.92
862.53	222.90
862.84	222.78
863.16	222.81
863.47	222.79
863.78	222.78
864.09	222.79
864.40	222.79
864.71	222.79
865.02	222.81
865.33	222.80
865.64	222.78
865.95	222.77
866.27	222.84
866.58	222.83
866.89	222.84
867.20	222.84
867.51	222.83
867.82	222.82
868.13	222.85
868.44	222.82
868.75	222.84
869.06	222.85
869.37	222.86
869.68	222.83
869.99	222.85
870.30	222.86
870.61	222.87
870.92	222.85
871.23	222.84
871.54	222.85
871.85	222.87
872.16	222.88
872.47	222.88
872.78	222.82
873.09	222.83
873.40	222.81
873.71	222.82
874.02	222.83
874.33	222.82
874.64	222.80
874.95	222.82
875.26	222.80
875.56	222.79
875.87	222.78
876.18	222.78
876.49	222.87
876.80	222.86
877.11	222.84
877.42	222.84
877.73	222.85
878.04	222.83
878.35	222.83
878.66	222.83
878.96	222.83
879.27	222.82
879.58	222.81
879.89	222.81
880.20	222.83
880.51	222.82
880.82	222.82
881.12	222.83
881.43	222.81
881.74	222.79
882.05	222.79
882.36	222.80
882.67	222.81
882.97	222.69
883.28	222.68
883.59	222.68
883.90	222.69
884.21	222.70
884.51	222.69
884.82	222.68
885.13	222.67
885.44	222.67
885.74	222.67
886.05	222.67
886.36	222.67
886.67	222.63
886.98	222.68
887.28	222.69
887.59	222.68
887.90	222.69
888.20	222.68
888.51	222.70
888.82	222.68
889.13	222.69
889.43	222.78
889.74	222.77
890.05	222.77
890.35	222.75
890.66	222.73
890.97	222.72
891.28	222.71
891.58	222.72
891.89	222.72
892.20	222.71
892.50	222.70
892.81	222.69
893.12	222.69
893.42	222.63
893.73	222.63
894.04	222.63
894.34	222.64
894.65	222.64
894.95	222.63
895.26	222.63
895.57	222.68
895.87	222.57
896.18	222.59
896.48	222.59
896.79	222.59
897.10	222.60
897.40	222.61
897.71	222.62
898.01	222.61
898.32	222.62
898.63	222.62
898.93	222.62
899.24	222.63
899.54	222.62
899.85	222.62
900.15	222.61
900.46	222.61
900.76	222.61
901.07	222.61
901.38	222.61
901.68	222.62
901.99	222.56
902.29	222.57
902.60	222.56
902.90	222.55
903.21	222.55
903.51	222.55
903.82	222.56
904.12	222.56
904.43	222.57
904.73	222.57
905.03	222.57
905.34	222.67
905.64	222.67
905.95	222.67
906.25	222.67
906.56	222.66
906.86	222.66
907.17	222.65
907.47	222.66
907.77	222.65
908.08	222.63
908.38	222.63
908.69	222.64
908.99	222.66
909.30	222.66
909.60	222.66
909.90	222.67
910.21	222.64
910.51	222.62
910.81	222.62
911.12	222.62
911.42	222.62
911.73	222.51
912.03	222.52
912.33	222.54
912.64	222.53
912.94	222.52
913.24	222.50
913.55	222.50
913.85	222.50
914.15	222.52
914.46	222.53
914.76	222.52
915.06	222.52
915.37	222.50
915.67	222.49
915.97	222.49
916.27	222.47
916.58	222.48
916.88	222.48
917.18	222.47
917.49	222.53
917.79	222.53
918.09	222.55
918.39	222.57
918.70	222.56
919.00	222.57
919.30	222.62
919.60	222.62
919.91	222.61
920.21	222.61
920.51	222.59
920.81	222.59
921.12	222.60
921.42	222.60
921.72	222.60
922.02	222.61
922.32	222.62
922.63	222.63
922.93	222.68
923.23	222.69
923.53	222.68
923.83	222.61
924.13	222.62
924.44	222.62
924.74	222.63
925.04	222.65
925.34	222.65
925.64	222.60
925.94	222.61
926.24	222.66
926.55	222.66
926.85	222.67
927.15	222.66
927.45	222.66
927.75	222.66
928.05	222.66
928.35	222.65
928.65	222.66
928.95	222.67
929.26	222.62
929.56	222.64
929.86	222.65
930.16	222.64
930.46	222.63
930.76	222.63
931.06	222.58
931.36	222.55
931.66	222.57
931.96	222.58
932.26	222.58
932.56	222.54
932.86	222.54
933.16	222.54
933.46	222.53
933.76	222.51
934.06	222.53
934.36	222.56
934.66	222.56
934.96	222.55
935.26	222.55
935.56	222.56
935.86	222.54
936.16	222.52
936.46	222.52
936.76	222.52
937.06	222.50
937.36	222.51
937.66	222.51
937.96	222.50
938.26	222.48
938.56	222.48
938.86	222.48
939.16	222.51
939.46	222.51
939.76	222.52
940.06	222.52
940.35	222.50
940.65	222.45
940.95	222.46
941.25	222.43
941.55	222.42
941.85	222.41
942.15	222.43
942.45	222.46
942.75	222.46
943.04	222.46
943.34	222.48
943.64	222.47
943.94	222.46
944.24	222.46
944.54	222.46
944.84	222.46
945.13	222.45
945.43	222.42
945.73	222.42
946.03	222.41
946.33	222.40
946.62	222.39
946.92	222.39
947.22	222.39
947.52	222.40
947.82	222.41
948.11	222.40
948.41	222.37
948.71	222.34
949.01	222.35
949.31	222.34
949.60	222.33
949.90	222.35
950.20	222.34
950.50	222.34
950.79	222.33
951.09	222.35
951.39	222.34
951.69	222.34
951.98	222.35
952.28	222.36
952.58	222.36
952.87	222.37
953.17	222.38
953.47	222.37
953.76	222.36
954.06	222.35
954.36	222.33
954.66	222.34
954.95	222.37
955.25	222.37
955.55	222.39
955.84	222.37
956.14	222.38
956.44	222.38
956.73	222.37
957.03	222.38
957.32	222.37
957.62	222.37
957.92	222.39
958.21	222.38
958.51	222.50
958.81	222.51
959.10	222.53
959.40	222.55
959.69	222.56
959.99	222.58
960.29	222.58
960.58	222.58
960.88	222.62
961.17	222.61
961.47	222.61
961.76	222.60
962.06	222.62
962.36	222.61
962.65	222.61
962.95	222.62
963.24	222.61
963.54	222.61
963.83	222.62
964.13	222.61
964.42	222.60
964.72	222.51
965.01	222.51
965.31	222.50
965.60	222.47
965.90	222.53
966.19	222.50
966.49	222.51
966.78	222.51
967.08	222.49
967.37	222.49
967.67	222.47
967.96	222.49
968.26	222.49
968.55	222.50
968.85	222.49
969.14	222.49
969.43	222.49
969.73	222.47
970.02	222.46
970.32	222.46
970.61	222.44
970.91	222.42
971.20	222.40
971.49	222.40
971.79	222.40
972.08	222.33
972.38	222.34
972.67	222.33
972.96	222.35
973.26	222.33
973.55	222.36
973.85	222.35
974.14	222.34
974.43	222.35
974.73	222.33
975.02	222.32
975.31	222.33
975.61	222.33
975.90	222.32
976.19	222.32
976.49	222.32
976.78	222.33
977.07	222.33
977.37	222.34
977.66	222.34
977.95	222.33
978.24	222.34
978.54	222.36
978.83	222.35
979.12	222.34
979.42	222.34
979.71	222.33
980.00	222.32
980.29	222.33
980.59	222.31
980.88	222.33
981.17	222.34
981.46	222.34
981.76	222.34
982.05	222.37
982.34	222.38
982.63	222.37
982.93	222.38
983.22	222.40
983.51	222.40
983.80	222.42
984.09	222.43
984.39	222.42
984.68	222.41
984.97	222.41
985.26	222.41
985.55	222.41
985.85	222.39
986.14	222.41
986.43	222.42
986.72	222.41
987.01	222.38
987.30	222.38
987.59	222.37
987.89	222.38
988.18	222.35
988.47	222.34
988.76	222.33
989.05	222.32
989.34	222.30
989.63	222.33
989.92	222.31
990.22	222.30
990.51	222.30
990.80	222.29
991.09	222.30
991.38	222.32
991.67	222.31
991.96	222.30
992.25	222.30
992.54	222.28
992.83	222.29
993.12	222.28
993.41	222.30
993.70	222.34
993.99	222.36
994.28	222.37
994.58	222.39
994.87	222.38
995.16	222.38
995.45	222.37
995.74	222.34
996.03	222.35
996.32	222.37
996.61	222.39
996.90	222.38
997.19	222.37
997.48	222.37
997.77	222.37
998.06	222.37
998.34	222.36
998.63	222.36
998.92	222.37
999.21	222.38
999.50	222.38
999.79	222.34
1000.08	222.33
1000.37	222.33
1000.66	222.32
1000.95	222.34
1001.24	222.35
1001.53	222.36
1001.82	222.36
1002.11	222.33
1002.40	222.34
1002.68	222.36
1002.97	222.43
1003.26	222.42
1003.55	222.40
1003.84	222.41
1004.13	222.44
1004.42	222.44
1004.71	222.44
1004.99	222.43
1005.28	222.45
1005.57	222.44
1005.86	222.43
1006.15	222.42
1006.44	222.41
1006.72	222.42
1007.01	222.40
1007.30	222.40
1007.59	222.39
1007.88	222.39
1008.17	222.40
1008.45	222.38
1008.74	222.34
1009.03	222.29
1009.32	222.29
1009.60	222.29
1009.89	222.28
1010.18	222.24
1010.47	222.23
1010.76	222.23
1011.04	222.24
1011.33	222.23
1011.62	222.24
1011.91	222.25
1012.19	222.25
1012.48	222.26
1012.77	222.25
1013.05	222.29
1013.34	222.28
1013.63	222.28
1013.92	222.29
1014.20	222.28
1014.49	222.28
1014.78	222.30
1015.06	222.26
1015.35	222.27
1015.64	222.28
1015.92	222.30
1016.21	222.30
1016.50	222.31
1016.78	222.32
1017.07	222.32
1017.36	222.30
1017.64	222.29
1017.93	222.30
1018.22	222.29
1018.50	222.28
1018.79	222.28
1019.08	222.25
1019.36	222.25
1019.65	222.24
1019.93	222.27
1020.22	222.28
1020.51	222.33
1020.79	222.32
1021.08	222.11
1021.36	222.08
1021.65	222.31
1021.94	222.23
1022.22	222.33
1022.51	222.08
1022.79	222.73
1023.08	222.38
1023.36	223.49
1023.65	221.97
>>>>>End Processed Spectral Data<<<<<
