SpectraSuite Data File
++++++++++++++++++++++++++++++++++++
Date: Thu Oct 01 08:21:37 EDT 2015
User: lab3
Dark Spectrum Present: No
Reference Spectrum Present: No
Number of Sampled Component Spectra: 1
Spectrometers: USB2E7196
Integration Time (usec): 36000 (USB2E7196)
Spectra Averaged: 10000 (USB2E7196)
Boxcar Smoothing: 10 (USB2E7196)
Correct for Electrical Dark: No (USB2E7196)
Strobe/Lamp Enabled: No (USB2E7196)
Correct for Detector Non-linearity: No (USB2E7196)
Correct for Stray Light: No (USB2E7196)
Number of Pixels in Processed Spectrum: 2048
>>>>>Begin Processed Spectral Data<<<<<
339.09	0.00
339.48	210.83
339.86	212.30
340.24	213.72
340.63	215.04
341.01	218.03
341.39	217.78
341.78	219.18
342.16	220.34
342.54	220.83
342.93	209.39
343.31	219.97
343.69	220.51
344.07	220.97
344.46	221.39
344.84	221.78
345.22	222.02
345.60	222.28
345.99	222.47
346.37	222.61
346.75	222.72
347.13	222.80
347.52	222.87
347.90	222.95
348.28	222.99
348.66	223.04
349.05	223.05
349.43	223.10
349.81	223.15
350.19	223.20
350.57	223.27
350.96	223.35
351.34	223.44
351.72	223.54
352.10	223.65
352.48	223.73
352.87	223.78
353.25	223.84
353.63	223.90
354.01	223.97
354.39	224.05
354.77	224.12
355.15	224.22
355.54	224.27
355.92	224.31
356.30	224.38
356.68	224.52
357.06	224.60
357.44	224.66
357.82	224.72
358.20	224.83
358.58	224.89
358.97	224.96
359.35	225.04
359.73	225.12
360.11	225.16
360.49	225.22
360.87	225.27
361.25	225.34
361.63	225.42
362.01	225.47
362.39	225.50
362.77	225.55
363.15	225.58
363.53	225.61
363.91	225.64
364.29	225.67
364.67	225.59
365.05	225.61
365.43	225.64
365.81	225.67
366.19	225.69
366.57	225.74
366.95	225.74
367.33	225.72
367.71	225.71
368.09	225.73
368.47	225.73
368.85	225.71
369.23	225.72
369.61	225.67
369.99	225.68
370.37	225.67
370.75	225.72
371.13	225.69
371.51	225.65
371.89	225.64
372.27	225.61
372.65	225.58
373.03	225.54
373.41	225.50
373.78	225.45
374.16	225.35
374.54	225.27
374.92	225.22
375.30	225.18
375.68	225.12
376.06	225.07
376.44	225.01
376.82	224.97
377.19	224.91
377.57	224.86
377.95	224.78
378.33	224.72
378.71	224.57
379.09	224.52
379.47	224.49
379.84	224.42
380.22	224.36
380.60	224.29
380.98	224.24
381.36	224.19
381.73	224.12
382.11	224.09
382.49	224.05
382.87	223.99
383.25	223.94
383.62	224.02
384.00	223.95
384.38	223.91
384.76	223.88
385.13	223.87
385.51	223.83
385.89	223.78
386.27	223.75
386.64	223.72
387.02	223.68
387.40	223.63
387.78	223.60
388.15	223.58
388.53	223.55
388.91	223.51
389.29	223.48
389.66	223.47
390.04	223.43
390.42	223.42
390.79	223.41
391.17	223.39
391.55	223.25
391.92	223.24
392.30	223.25
392.68	223.21
393.05	223.19
393.43	223.19
393.81	223.19
394.18	223.17
394.56	223.17
394.94	223.20
395.31	223.20
395.69	223.23
396.06	223.26
396.44	223.28
396.82	223.29
397.19	223.37
397.57	223.39
397.95	223.43
398.32	223.43
398.70	223.47
399.07	223.53
399.45	223.56
399.82	223.60
400.20	223.63
400.58	223.69
400.95	223.71
401.33	223.79
401.70	223.92
402.08	224.01
402.45	224.09
402.83	224.20
403.20	224.30
403.58	224.39
403.95	224.51
404.33	224.65
404.71	224.78
405.08	224.96
405.46	225.11
405.83	225.27
406.21	225.44
406.58	225.64
406.96	225.83
407.33	226.05
407.70	226.30
408.08	226.64
408.45	226.93
408.83	227.25
409.20	227.53
409.58	227.80
409.95	228.15
410.33	228.53
410.70	228.90
411.08	229.32
411.45	229.77
411.82	230.23
412.20	230.75
412.57	231.36
412.95	231.85
413.32	232.48
413.69	233.13
414.07	233.83
414.44	234.58
414.82	235.34
415.19	236.24
415.56	237.16
415.94	238.11
416.31	239.17
416.68	240.24
417.06	241.48
417.43	242.64
417.81	243.98
418.18	245.35
418.55	246.84
418.93	248.39
419.30	250.02
419.67	251.75
420.04	253.52
420.42	255.38
420.79	257.52
421.16	259.69
421.54	261.89
421.91	264.19
422.28	266.58
422.66	269.16
423.03	271.61
423.40	274.19
423.77	276.95
424.15	279.79
424.52	282.73
424.89	285.92
425.26	289.09
425.64	292.03
426.01	295.33
426.38	298.71
426.75	302.18
427.13	305.74
427.50	309.46
427.87	313.31
428.24	317.21
428.61	320.95
428.99	324.96
429.36	329.37
429.73	333.59
430.10	337.78
430.47	342.07
430.85	346.48
431.22	351.18
431.59	356.00
431.96	360.70
432.33	365.89
432.70	370.81
433.08	376.64
433.45	382.15
433.82	387.56
434.19	393.62
434.56	399.57
434.93	405.30
435.30	410.97
435.68	417.36
436.05	423.61
436.42	429.86
436.79	435.55
437.16	441.70
437.53	448.29
437.90	454.88
438.27	461.31
438.64	468.30
439.01	474.62
439.38	480.40
439.75	485.98
440.13	492.37
440.50	498.45
440.87	503.26
441.24	508.53
441.61	514.35
441.98	518.63
442.35	523.72
442.72	528.94
443.09	533.94
443.46	537.19
443.83	539.61
444.20	541.66
444.57	544.65
444.94	546.45
445.31	548.32
445.68	549.99
446.05	551.27
446.42	551.17
446.79	550.98
447.16	550.82
447.53	550.71
447.90	548.89
448.27	547.19
448.64	544.46
449.01	542.67
449.37	538.72
449.74	535.13
450.11	530.48
450.48	525.36
450.85	520.21
451.22	515.83
451.59	511.55
451.96	507.65
452.33	501.91
452.70	496.81
453.07	490.57
453.43	484.32
453.80	478.27
454.17	472.46
454.54	467.06
454.91	460.96
455.28	455.22
455.65	449.80
456.02	444.02
456.38	439.36
456.75	433.36
457.12	428.51
457.49	423.62
457.86	418.95
458.23	414.85
458.59	410.32
458.96	405.66
459.33	401.55
459.70	397.37
460.07	394.17
460.43	390.42
460.80	386.91
461.17	383.81
461.54	380.47
461.91	377.35
462.27	374.17
462.64	371.58
463.01	368.61
463.38	365.62
463.74	362.92
464.11	360.50
464.48	358.31
464.85	355.98
465.21	354.20
465.58	352.22
465.95	349.95
466.32	348.14
466.68	346.37
467.05	344.59
467.42	342.87
467.78	341.02
468.15	339.30
468.52	338.03
468.88	336.37
469.25	334.85
469.62	333.65
469.98	332.34
470.35	331.17
470.72	330.12
471.08	329.06
471.45	328.18
471.82	327.21
472.18	326.20
472.55	325.55
472.92	324.74
473.28	324.12
473.65	323.47
474.02	322.85
474.38	322.36
474.75	322.08
475.11	321.67
475.48	321.52
475.85	321.37
476.21	321.33
476.58	321.35
476.94	321.55
477.31	321.69
477.67	321.85
478.04	322.12
478.41	322.48
478.77	322.95
479.14	323.30
479.50	323.87
479.87	324.58
480.23	325.29
480.60	325.98
480.96	326.70
481.33	327.68
481.69	328.66
482.06	329.63
482.42	330.55
482.79	331.65
483.15	332.91
483.52	334.31
483.88	335.67
484.25	337.11
484.61	338.61
484.98	340.24
485.34	342.06
485.71	343.94
486.07	345.94
486.44	347.94
486.80	350.15
487.17	352.43
487.53	354.93
487.90	357.52
488.26	360.34
488.62	363.31
488.99	366.28
489.35	369.38
489.72	372.74
490.08	376.27
490.44	379.89
490.81	383.68
491.17	387.57
491.54	391.73
491.90	395.98
492.26	400.57
492.63	405.39
492.99	410.39
493.36	415.52
493.72	420.93
494.08	426.48
494.45	432.35
494.81	438.42
495.17	444.63
495.54	451.19
495.90	458.06
496.26	465.06
496.63	472.31
496.99	479.86
497.35	487.78
497.72	495.99
498.08	504.36
498.44	512.99
498.80	522.20
499.17	531.61
499.53	541.38
499.89	551.37
500.26	561.55
500.62	572.01
500.98	583.18
501.34	594.49
501.71	606.33
502.07	618.41
502.43	630.88
502.79	643.69
503.16	656.91
503.52	670.32
503.88	684.12
504.24	698.36
504.60	712.85
504.97	727.76
505.33	743.06
505.69	759.29
506.05	775.72
506.41	792.13
506.78	808.85
507.14	826.04
507.50	843.85
507.86	862.04
508.22	880.54
508.59	899.05
508.95	918.27
509.31	937.95
509.67	958.33
510.03	978.92
510.39	999.74
510.75	1020.79
511.12	1042.15
511.48	1063.78
511.84	1085.55
512.20	1107.63
512.56	1130.82
512.92	1154.16
513.28	1177.21
513.64	1200.60
514.00	1224.42
514.37	1248.57
514.73	1272.79
515.09	1296.76
515.45	1321.19
515.81	1346.17
516.17	1371.18
516.53	1395.87
516.89	1420.59
517.25	1445.53
517.61	1470.66
517.97	1495.95
518.33	1521.00
518.69	1546.16
519.05	1571.59
519.41	1597.16
519.77	1622.98
520.13	1648.00
520.49	1673.20
520.85	1698.63
521.21	1723.95
521.57	1749.84
521.93	1775.03
522.29	1801.03
522.65	1826.76
523.01	1852.26
523.37	1876.98
523.73	1902.38
524.09	1927.98
524.45	1953.44
524.81	1978.36
525.17	2003.22
525.53	2027.62
525.89	2052.05
526.25	2076.68
526.61	2100.81
526.97	2125.14
527.33	2149.44
527.68	2173.51
528.04	2196.79
528.40	2219.89
528.76	2243.18
529.12	2265.38
529.48	2287.96
529.84	2308.68
530.20	2329.96
530.56	2350.87
530.91	2371.84
531.27	2392.30
531.63	2412.05
531.99	2431.33
532.35	2450.31
532.71	2469.38
533.07	2488.95
533.42	2507.04
533.78	2525.48
534.14	2543.92
534.50	2561.53
534.86	2579.74
535.21	2596.12
535.57	2612.34
535.93	2627.94
536.29	2642.25
536.65	2657.47
537.00	2671.50
537.36	2686.06
537.72	2699.57
538.08	2712.67
538.44	2724.64
538.79	2736.83
539.15	2747.40
539.51	2757.88
539.87	2767.97
540.22	2775.85
540.58	2783.98
540.94	2792.54
541.29	2799.67
541.65	2805.73
542.01	2811.31
542.37	2815.03
542.72	2820.75
543.08	2825.91
543.44	2830.81
543.79	2834.99
544.15	2838.14
544.51	2841.35
544.87	2843.63
545.22	2845.57
545.58	2846.59
545.94	2848.10
546.29	2848.08
546.65	2848.07
547.01	2848.23
547.36	2848.43
547.72	2848.83
548.07	2847.75
548.43	2846.08
548.79	2843.73
549.14	2841.33
549.50	2839.72
549.86	2837.02
550.21	2831.95
550.57	2827.30
550.92	2821.37
551.28	2816.02
551.64	2810.67
551.99	2805.62
552.35	2800.19
552.70	2794.29
553.06	2789.14
553.41	2783.50
553.77	2777.25
554.13	2771.85
554.48	2765.34
554.84	2757.31
555.19	2749.46
555.55	2741.04
555.90	2733.23
556.26	2726.39
556.61	2718.95
556.97	2709.20
557.32	2700.47
557.68	2692.06
558.03	2683.05
558.39	2674.73
558.74	2666.45
559.10	2657.01
559.45	2647.16
559.81	2637.73
560.16	2627.59
560.52	2617.11
560.87	2607.66
561.23	2597.75
561.58	2587.29
561.94	2576.62
562.29	2565.49
562.64	2554.98
563.00	2544.74
563.35	2534.34
563.71	2522.98
564.06	2511.21
564.42	2500.44
564.77	2489.32
565.12	2478.33
565.48	2467.14
565.83	2456.53
566.19	2446.03
566.54	2435.02
566.89	2423.22
567.25	2411.32
567.60	2400.23
567.96	2388.66
568.31	2375.65
568.66	2362.74
569.02	2350.86
569.37	2338.71
569.72	2327.06
570.08	2314.70
570.43	2301.83
570.78	2288.63
571.14	2275.28
571.49	2262.66
571.84	2250.36
572.20	2236.81
572.55	2223.60
572.90	2210.26
573.26	2195.91
573.61	2181.03
573.96	2166.57
574.31	2152.42
574.67	2138.49
575.02	2124.19
575.37	2109.40
575.72	2094.86
576.08	2080.90
576.43	2065.92
576.78	2051.11
577.13	2037.09
577.49	2022.99
577.84	2009.31
578.19	1994.81
578.54	1979.97
578.90	1964.65
579.25	1949.03
579.60	1934.80
579.95	1920.22
580.30	1905.68
580.66	1891.51
581.01	1876.97
581.36	1862.69
581.71	1849.05
582.06	1834.85
582.42	1820.78
582.77	1807.46
583.12	1793.76
583.47	1780.16
583.82	1766.68
584.17	1753.06
584.53	1739.25
584.88	1725.53
585.23	1711.39
585.58	1697.80
585.93	1684.66
586.28	1672.34
586.63	1659.78
586.98	1646.55
587.34	1633.54
587.69	1620.03
588.04	1606.85
588.39	1594.28
588.74	1581.21
589.09	1567.88
589.44	1554.57
589.79	1541.75
590.14	1528.86
590.49	1516.19
590.84	1503.36
591.19	1491.17
591.54	1478.47
591.89	1465.65
592.25	1453.16
592.60	1440.33
592.95	1428.03
593.30	1416.03
593.65	1403.79
594.00	1391.82
594.35	1380.55
594.70	1368.56
595.05	1357.64
595.40	1346.42
595.75	1334.68
596.10	1323.80
596.45	1313.09
596.80	1302.85
597.15	1292.42
597.50	1281.96
597.85	1271.70
598.19	1261.65
598.54	1250.97
598.89	1241.08
599.24	1231.45
599.59	1221.64
599.94	1212.84
600.29	1203.90
600.64	1194.72
600.99	1184.95
601.34	1175.64
601.69	1165.82
602.04	1157.01
602.39	1148.03
602.74	1139.32
603.08	1130.84
603.43	1121.85
603.78	1112.81
604.13	1103.89
604.48	1094.88
604.83	1086.14
605.18	1077.34
605.53	1068.44
605.87	1059.70
606.22	1051.19
606.57	1042.45
606.92	1033.81
607.27	1024.99
607.62	1016.29
607.96	1007.77
608.31	1000.28
608.66	992.34
609.01	984.81
609.36	977.23
609.70	969.42
610.05	961.46
610.40	953.84
610.75	946.31
611.10	939.05
611.44	931.43
611.79	924.10
612.14	916.40
612.49	908.88
612.83	901.83
613.18	894.81
613.53	887.57
613.88	880.46
614.22	873.93
614.57	867.22
614.92	860.51
615.27	853.83
615.61	846.99
615.96	840.35
616.31	833.66
616.65	826.87
617.00	820.33
617.35	813.94
617.70	807.59
618.04	801.30
618.39	795.01
618.74	789.06
619.08	782.95
619.43	777.07
619.78	771.17
620.12	765.11
620.47	759.25
620.82	753.51
621.16	748.04
621.51	742.20
621.85	736.37
622.20	730.59
622.55	724.99
622.89	719.34
623.24	713.75
623.59	708.21
623.93	702.74
624.28	697.40
624.62	692.04
624.97	686.67
625.32	681.41
625.66	676.01
626.01	670.59
626.35	665.33
626.70	660.12
627.04	655.09
627.39	650.12
627.73	645.25
628.08	640.60
628.43	635.82
628.77	631.10
629.12	626.53
629.46	622.11
629.81	617.51
630.15	612.81
630.50	608.27
630.84	603.95
631.19	599.80
631.53	595.67
631.88	591.45
632.22	587.31
632.57	583.41
632.91	579.46
633.26	575.59
633.60	571.79
633.95	568.10
634.29	564.27
634.64	560.40
634.98	556.45
635.32	552.65
635.67	548.97
636.01	545.26
636.36	541.59
636.70	538.06
637.05	534.54
637.39	531.22
637.73	527.75
638.08	524.33
638.42	520.87
638.77	517.32
639.11	513.73
639.45	510.22
639.80	506.69
640.14	503.36
640.49	499.97
640.83	496.46
641.17	493.03
641.52	489.73
641.86	486.43
642.20	483.30
642.55	480.01
642.89	476.83
643.23	473.82
643.58	471.04
643.92	468.15
644.26	465.27
644.61	462.37
644.95	459.51
645.29	456.58
645.64	453.64
645.98	450.84
646.32	448.22
646.66	445.58
647.01	442.91
647.35	440.29
647.69	437.58
648.04	435.04
648.38	432.50
648.72	429.92
649.06	427.45
649.41	424.96
649.75	422.48
650.09	420.03
650.43	417.59
650.78	415.12
651.12	412.64
651.46	410.27
651.80	407.99
652.14	405.79
652.49	403.60
652.83	401.47
653.17	399.31
653.51	397.20
653.85	395.17
654.20	393.07
654.54	390.91
654.88	388.95
655.22	387.01
655.56	385.05
655.90	383.17
656.25	381.30
656.59	379.45
656.93	377.70
657.27	375.98
657.61	374.15
657.95	372.39
658.29	370.65
658.64	368.93
658.98	367.19
659.32	365.47
659.66	363.85
660.00	362.24
660.34	360.68
660.68	359.06
661.02	357.38
661.36	355.82
661.70	354.32
662.05	352.78
662.39	351.25
662.73	349.80
663.07	348.38
663.41	346.98
663.75	345.60
664.09	344.22
664.43	342.76
664.77	341.40
665.11	339.99
665.45	338.66
665.79	337.32
666.13	335.97
666.47	334.61
666.81	333.22
667.15	331.81
667.49	330.50
667.83	329.24
668.17	328.00
668.51	326.79
668.85	325.59
669.19	324.48
669.53	323.29
669.87	322.08
670.21	320.90
670.55	319.73
670.89	318.64
671.23	317.52
671.57	316.41
671.91	315.35
672.25	314.36
672.58	313.34
672.92	312.30
673.26	311.32
673.60	310.35
673.94	309.37
674.28	308.46
674.62	307.52
674.96	306.55
675.30	305.64
675.64	304.71
675.97	303.80
676.31	302.85
676.65	301.93
676.99	301.06
677.33	300.15
677.67	299.28
678.01	298.33
678.34	297.46
678.68	296.64
679.02	295.79
679.36	294.94
679.70	294.10
680.04	293.29
680.37	292.47
680.71	291.70
681.05	290.96
681.39	290.18
681.73	289.37
682.06	288.60
682.40	287.84
682.74	287.10
683.08	286.39
683.42	285.66
683.75	285.00
684.09	284.25
684.43	283.56
684.77	282.85
685.10	282.20
685.44	281.52
685.78	280.84
686.12	280.19
686.45	279.53
686.79	278.88
687.13	278.25
687.46	277.58
687.80	276.94
688.14	276.26
688.48	275.65
688.81	275.02
689.15	274.45
689.49	273.84
689.82	273.24
690.16	272.58
690.50	271.99
690.83	271.40
691.17	270.83
691.51	270.27
691.84	269.73
692.18	269.15
692.52	268.57
692.85	268.01
693.19	267.48
693.52	266.94
693.86	266.41
694.20	265.88
694.53	265.39
694.87	264.87
695.21	264.38
695.54	263.89
695.88	263.39
696.21	262.86
696.55	262.37
696.88	261.88
697.22	261.42
697.56	260.95
697.89	260.43
698.23	259.94
698.56	259.45
698.90	259.00
699.23	258.53
699.57	258.11
699.90	257.67
700.24	257.20
700.58	256.78
700.91	256.38
701.25	256.05
701.58	255.69
701.92	255.31
702.25	254.91
702.59	254.50
702.92	254.12
703.26	253.75
703.59	253.36
703.93	253.07
704.26	252.71
704.60	252.35
704.93	252.01
705.26	251.65
705.60	251.34
705.93	250.97
706.27	250.68
706.60	250.36
706.94	250.06
707.27	249.70
707.61	249.36
707.94	249.01
708.27	248.59
708.61	248.23
708.94	247.89
709.28	247.57
709.61	247.26
709.94	246.97
710.28	246.68
710.61	246.42
710.95	246.05
711.28	245.84
711.61	245.56
711.95	245.31
712.28	245.04
712.61	244.75
712.95	244.55
713.28	244.33
713.61	244.06
713.95	243.78
714.28	243.56
714.61	243.31
714.95	243.07
715.28	242.83
715.61	242.59
715.95	242.37
716.28	242.15
716.61	241.93
716.95	241.70
717.28	241.48
717.61	241.25
717.94	241.03
718.28	240.74
718.61	240.53
718.94	240.30
719.27	240.10
719.61	239.92
719.94	239.70
720.27	239.45
720.60	239.26
720.94	239.07
721.27	238.88
721.60	238.73
721.93	238.54
722.27	238.40
722.60	238.24
722.93	238.05
723.26	237.88
723.59	237.70
723.93	237.54
724.26	237.39
724.59	237.22
724.92	237.07
725.25	236.95
725.59	236.79
725.92	236.66
726.25	236.51
726.58	236.36
726.91	236.20
727.24	236.07
727.57	235.92
727.91	235.77
728.24	235.64
728.57	235.48
728.90	235.35
729.23	235.18
729.56	235.09
729.89	234.96
730.22	234.81
730.55	234.68
730.89	234.54
731.22	234.41
731.55	234.28
731.88	234.15
732.21	234.01
732.54	233.89
732.87	233.76
733.20	233.65
733.53	233.54
733.86	233.44
734.19	233.31
734.52	233.21
734.85	233.17
735.18	233.04
735.51	232.97
735.84	232.86
736.17	232.78
736.50	232.63
736.83	232.65
737.16	232.56
737.49	232.47
737.82	232.37
738.15	232.29
738.48	232.21
738.81	232.10
739.14	232.00
739.47	231.90
739.80	231.80
740.13	231.71
740.46	231.60
740.79	231.50
741.12	231.41
741.45	231.30
741.78	231.15
742.11	231.10
742.44	230.99
742.77	230.92
743.10	230.81
743.43	230.73
743.75	230.54
744.08	230.62
744.41	230.52
744.74	230.44
745.07	230.33
745.40	230.27
745.73	230.23
746.06	230.16
746.39	230.10
746.71	230.02
747.04	229.94
747.37	229.87
747.70	229.82
748.03	229.75
748.36	229.70
748.68	229.63
749.01	229.53
749.34	229.46
749.67	229.39
750.00	229.34
750.33	229.35
750.65	229.29
750.98	229.07
751.31	229.02
751.64	228.96
751.97	228.96
752.29	228.89
752.62	228.78
752.95	228.71
753.28	228.63
753.60	228.57
753.93	228.53
754.26	228.48
754.59	228.38
754.91	228.31
755.24	228.24
755.57	228.23
755.90	228.17
756.22	228.10
756.55	228.02
756.88	227.94
757.20	227.82
757.53	227.73
757.86	227.67
758.19	227.62
758.51	227.56
758.84	227.46
759.17	227.40
759.49	227.35
759.82	227.35
760.15	227.31
760.47	227.26
760.80	227.19
761.13	227.15
761.45	227.11
761.78	227.06
762.11	227.02
762.43	226.92
762.76	226.87
763.08	226.84
763.41	226.80
763.74	226.77
764.06	226.72
764.39	226.69
764.71	226.65
765.04	226.60
765.37	226.55
765.69	226.51
766.02	226.47
766.34	226.42
766.67	226.34
767.00	226.32
767.32	226.34
767.65	226.36
767.97	226.31
768.30	226.28
768.62	226.24
768.95	226.19
769.27	226.15
769.60	226.13
769.92	226.08
770.25	226.03
770.57	225.98
770.90	225.94
771.22	225.90
771.55	225.86
771.87	225.84
772.20	225.80
772.52	225.86
772.85	225.95
773.17	225.92
773.50	225.89
773.82	225.84
774.15	225.76
774.47	225.66
774.80	225.63
775.12	225.59
775.45	225.57
775.77	225.55
776.09	225.53
776.42	225.50
776.74	225.51
777.07	225.48
777.39	225.46
777.72	225.43
778.04	225.41
778.36	225.38
778.69	225.36
779.01	225.35
779.33	225.23
779.66	225.09
779.98	225.06
780.31	225.04
780.63	225.06
780.95	225.06
781.28	225.04
781.60	225.01
781.92	224.99
782.25	224.97
782.57	224.95
782.89	224.92
783.22	224.90
783.54	224.86
783.86	224.85
784.19	224.82
784.51	224.84
784.83	224.80
785.16	224.78
785.48	224.77
785.80	224.75
786.12	224.74
786.45	224.72
786.77	224.72
787.09	224.69
787.42	224.63
787.74	224.62
788.06	224.61
788.38	224.59
788.71	224.57
789.03	224.55
789.35	224.55
789.67	224.52
789.99	224.51
790.32	224.49
790.64	224.48
790.96	224.56
791.28	224.51
791.61	224.49
791.93	224.49
792.25	224.47
792.57	224.53
792.89	224.50
793.21	224.49
793.54	224.46
793.86	224.44
794.18	224.43
794.50	224.40
794.82	224.38
795.14	224.39
795.47	224.39
795.79	224.39
796.11	224.35
796.43	224.34
796.75	224.33
797.07	224.32
797.39	224.30
797.71	224.21
798.04	224.20
798.36	224.20
798.68	224.19
799.00	224.18
799.32	224.12
799.64	224.13
799.96	224.12
800.28	224.12
800.60	224.11
800.92	224.11
801.24	224.09
801.56	224.09
801.89	224.06
802.21	224.06
802.53	224.03
802.85	224.04
803.17	224.08
803.49	224.05
803.81	224.03
804.13	224.02
804.45	223.99
804.77	223.99
805.09	223.98
805.41	223.96
805.73	223.94
806.05	223.90
806.37	223.88
806.69	223.85
807.01	223.83
807.33	223.83
807.65	223.79
807.97	223.83
808.28	223.81
808.60	223.80
808.92	223.77
809.24	223.83
809.56	223.80
809.88	223.76
810.20	223.76
810.52	223.77
810.84	223.75
811.16	223.74
811.48	223.72
811.80	223.75
812.12	223.75
812.43	223.76
812.75	223.77
813.07	223.75
813.39	223.75
813.71	223.74
814.03	223.72
814.35	223.72
814.67	223.67
814.98	223.66
815.30	223.65
815.62	223.63
815.94	223.55
816.26	223.56
816.58	223.53
816.89	223.54
817.21	223.51
817.53	223.51
817.85	223.51
818.17	223.50
818.48	223.46
818.80	223.47
819.12	223.45
819.44	223.43
819.76	223.41
820.07	223.40
820.39	223.40
820.71	223.40
821.03	223.40
821.34	223.39
821.66	223.40
821.98	223.41
822.30	223.40
822.61	223.46
822.93	223.43
823.25	223.43
823.57	223.42
823.88	223.43
824.20	223.42
824.52	223.43
824.83	223.43
825.15	223.41
825.47	223.41
825.79	223.41
826.10	223.40
826.42	223.40
826.74	223.40
827.05	223.40
827.37	223.40
827.69	223.39
828.00	223.39
828.32	223.39
828.64	223.37
828.95	223.42
829.27	223.39
829.58	223.39
829.90	223.40
830.22	223.41
830.53	223.39
830.85	223.38
831.17	223.35
831.48	223.34
831.80	223.35
832.11	223.33
832.43	223.32
832.75	223.32
833.06	223.37
833.38	223.34
833.69	223.34
834.01	223.34
834.32	223.34
834.64	223.32
834.96	223.32
835.27	223.32
835.59	223.27
835.90	223.26
836.22	223.25
836.53	223.22
836.85	223.21
837.16	223.31
837.48	223.31
837.79	223.34
838.11	223.34
838.42	223.33
838.74	223.34
839.05	223.33
839.37	223.32
839.68	223.26
840.00	223.26
840.31	223.26
840.63	223.25
840.94	223.24
841.26	223.22
841.57	223.22
841.88	223.23
842.20	223.21
842.51	223.19
842.83	223.19
843.14	223.29
843.46	223.28
843.77	223.22
844.08	223.21
844.40	223.18
844.71	223.17
845.03	223.16
845.34	223.15
845.65	223.14
845.97	223.14
846.28	223.14
846.60	223.15
846.91	223.13
847.22	223.13
847.54	223.15
847.85	223.16
848.16	223.14
848.48	223.12
848.79	223.16
849.10	223.17
849.42	223.18
849.73	223.08
850.04	223.08
850.36	223.04
850.67	223.05
850.98	223.06
851.30	223.07
851.61	223.06
851.92	223.06
852.23	223.09
852.55	223.10
852.86	223.10
853.17	223.11
853.49	223.13
853.80	223.15
854.11	223.15
854.42	223.16
854.74	223.15
855.05	223.16
855.36	223.10
855.67	223.10
855.99	223.10
856.30	223.22
856.61	223.22
856.92	223.22
857.23	223.22
857.55	223.20
857.86	223.19
858.17	223.21
858.48	223.19
858.79	223.17
859.11	223.18
859.42	223.17
859.73	223.15
860.04	223.14
860.35	223.11
860.66	223.08
860.98	223.07
861.29	223.09
861.60	223.08
861.91	223.10
862.22	223.09
862.53	223.07
862.84	222.94
863.16	222.96
863.47	222.95
863.78	222.93
864.09	222.94
864.40	222.95
864.71	222.94
865.02	222.96
865.33	222.95
865.64	222.92
865.95	222.92
866.27	222.99
866.58	222.98
866.89	222.99
867.20	222.99
867.51	222.97
867.82	222.97
868.13	223.00
868.44	222.98
868.75	223.00
869.06	223.00
869.37	223.02
869.68	222.99
869.99	223.01
870.30	223.02
870.61	223.02
870.92	223.01
871.23	222.99
871.54	223.00
871.85	223.02
872.16	223.04
872.47	223.03
872.78	222.98
873.09	222.98
873.40	222.97
873.71	222.99
874.02	222.99
874.33	222.98
874.64	222.95
874.95	222.97
875.26	222.95
875.56	222.95
875.87	222.94
876.18	222.93
876.49	223.03
876.80	223.02
877.11	223.00
877.42	223.01
877.73	223.01
878.04	222.99
878.35	222.99
878.66	222.99
878.96	222.99
879.27	222.98
879.58	222.97
879.89	222.97
880.20	222.99
880.51	222.98
880.82	222.99
881.12	222.99
881.43	222.97
881.74	222.96
882.05	222.95
882.36	222.95
882.67	222.96
882.97	222.85
883.28	222.85
883.59	222.84
883.90	222.85
884.21	222.87
884.51	222.87
884.82	222.85
885.13	222.85
885.44	222.84
885.74	222.85
886.05	222.84
886.36	222.85
886.67	222.81
886.98	222.86
887.28	222.86
887.59	222.86
887.90	222.87
888.20	222.87
888.51	222.89
888.82	222.87
889.13	222.87
889.43	222.96
889.74	222.96
890.05	222.96
890.35	222.94
890.66	222.93
890.97	222.91
891.28	222.90
891.58	222.90
891.89	222.90
892.20	222.88
892.50	222.87
892.81	222.87
893.12	222.87
893.42	222.81
893.73	222.81
894.04	222.81
894.34	222.82
894.65	222.81
894.95	222.80
895.26	222.81
895.57	222.85
895.87	222.74
896.18	222.76
896.48	222.76
896.79	222.76
897.10	222.77
897.40	222.78
897.71	222.79
898.01	222.79
898.32	222.80
898.63	222.80
898.93	222.81
899.24	222.81
899.54	222.80
899.85	222.79
900.15	222.79
900.46	222.79
900.76	222.80
901.07	222.80
901.38	222.79
901.68	222.81
901.99	222.75
902.29	222.76
902.60	222.75
902.90	222.74
903.21	222.73
903.51	222.72
903.82	222.74
904.12	222.73
904.43	222.74
904.73	222.74
905.03	222.74
905.34	222.84
905.64	222.83
905.95	222.83
906.25	222.83
906.56	222.83
906.86	222.83
907.17	222.82
907.47	222.82
907.77	222.80
908.08	222.78
908.38	222.79
908.69	222.80
908.99	222.82
909.30	222.82
909.60	222.82
909.90	222.83
910.21	222.80
910.51	222.79
910.81	222.78
911.12	222.79
911.42	222.79
911.73	222.68
912.03	222.70
912.33	222.72
912.64	222.71
912.94	222.70
913.24	222.68
913.55	222.67
913.85	222.67
914.15	222.69
914.46	222.70
914.76	222.70
915.06	222.69
915.37	222.67
915.67	222.66
915.97	222.66
916.27	222.64
916.58	222.64
916.88	222.64
917.18	222.63
917.49	222.70
917.79	222.70
918.09	222.71
918.39	222.73
918.70	222.72
919.00	222.73
919.30	222.78
919.60	222.78
919.91	222.77
920.21	222.77
920.51	222.75
920.81	222.74
921.12	222.76
921.42	222.76
921.72	222.77
922.02	222.77
922.32	222.79
922.63	222.79
922.93	222.85
923.23	222.85
923.53	222.85
923.83	222.77
924.13	222.79
924.44	222.78
924.74	222.80
925.04	222.82
925.34	222.82
925.64	222.77
925.94	222.77
926.24	222.83
926.55	222.83
926.85	222.84
927.15	222.84
927.45	222.83
927.75	222.83
928.05	222.83
928.35	222.82
928.65	222.83
928.95	222.84
929.26	222.79
929.56	222.81
929.86	222.82
930.16	222.81
930.46	222.80
930.76	222.80
931.06	222.75
931.36	222.73
931.66	222.74
931.96	222.75
932.26	222.76
932.56	222.71
932.86	222.72
933.16	222.71
933.46	222.71
933.76	222.69
934.06	222.71
934.36	222.74
934.66	222.74
934.96	222.72
935.26	222.73
935.56	222.74
935.86	222.72
936.16	222.70
936.46	222.70
936.76	222.69
937.06	222.68
937.36	222.69
937.66	222.69
937.96	222.68
938.26	222.66
938.56	222.65
938.86	222.66
939.16	222.68
939.46	222.69
939.76	222.69
940.06	222.70
940.35	222.68
940.65	222.63
940.95	222.64
941.25	222.61
941.55	222.60
941.85	222.59
942.15	222.61
942.45	222.64
942.75	222.64
943.04	222.64
943.34	222.67
943.64	222.65
943.94	222.64
944.24	222.64
944.54	222.65
944.84	222.65
945.13	222.63
945.43	222.61
945.73	222.61
946.03	222.60
946.33	222.59
946.62	222.57
946.92	222.57
947.22	222.58
947.52	222.59
947.82	222.60
948.11	222.59
948.41	222.57
948.71	222.54
949.01	222.55
949.31	222.54
949.60	222.52
949.90	222.54
950.20	222.53
950.50	222.53
950.79	222.53
951.09	222.54
951.39	222.54
951.69	222.54
951.98	222.55
952.28	222.56
952.58	222.56
952.87	222.56
953.17	222.58
953.47	222.57
953.76	222.57
954.06	222.55
954.36	222.54
954.66	222.54
954.95	222.57
955.25	222.57
955.55	222.58
955.84	222.56
956.14	222.56
956.44	222.57
956.73	222.55
957.03	222.56
957.32	222.56
957.62	222.55
957.92	222.57
958.21	222.56
958.51	222.68
958.81	222.70
959.10	222.70
959.40	222.72
959.69	222.73
959.99	222.74
960.29	222.75
960.58	222.74
960.88	222.78
961.17	222.76
961.47	222.77
961.76	222.76
962.06	222.78
962.36	222.77
962.65	222.77
962.95	222.78
963.24	222.77
963.54	222.77
963.83	222.78
964.13	222.77
964.42	222.76
964.72	222.67
965.01	222.66
965.31	222.65
965.60	222.63
965.90	222.69
966.19	222.66
966.49	222.67
966.78	222.67
967.08	222.65
967.37	222.66
967.67	222.64
967.96	222.65
968.26	222.65
968.55	222.66
968.85	222.66
969.14	222.66
969.43	222.66
969.73	222.65
970.02	222.65
970.32	222.64
970.61	222.62
970.91	222.59
971.20	222.58
971.49	222.57
971.79	222.58
972.08	222.51
972.38	222.51
972.67	222.51
972.96	222.52
973.26	222.50
973.55	222.53
973.85	222.52
974.14	222.51
974.43	222.52
974.73	222.50
975.02	222.49
975.31	222.49
975.61	222.49
975.90	222.48
976.19	222.48
976.49	222.48
976.78	222.50
977.07	222.50
977.37	222.51
977.66	222.52
977.95	222.50
978.24	222.52
978.54	222.54
978.83	222.53
979.12	222.52
979.42	222.53
979.71	222.51
980.00	222.51
980.29	222.51
980.59	222.49
980.88	222.52
981.17	222.52
981.46	222.52
981.76	222.52
982.05	222.55
982.34	222.56
982.63	222.55
982.93	222.55
983.22	222.57
983.51	222.58
983.80	222.59
984.09	222.61
984.39	222.60
984.68	222.58
984.97	222.60
985.26	222.59
985.55	222.60
985.85	222.58
986.14	222.60
986.43	222.61
986.72	222.60
987.01	222.57
987.30	222.57
987.59	222.56
987.89	222.56
988.18	222.53
988.47	222.52
988.76	222.51
989.05	222.51
989.34	222.49
989.63	222.52
989.92	222.50
990.22	222.49
990.51	222.48
990.80	222.47
991.09	222.48
991.38	222.49
991.67	222.48
991.96	222.47
992.25	222.47
992.54	222.45
992.83	222.46
993.12	222.45
993.41	222.47
993.70	222.51
993.99	222.53
994.28	222.54
994.58	222.56
994.87	222.55
995.16	222.55
995.45	222.54
995.74	222.50
996.03	222.52
996.32	222.53
996.61	222.55
996.90	222.55
997.19	222.55
997.48	222.55
997.77	222.54
998.06	222.54
998.34	222.53
998.63	222.53
998.92	222.53
999.21	222.55
999.50	222.55
999.79	222.52
1000.08	222.52
1000.37	222.52
1000.66	222.50
1000.95	222.53
1001.24	222.53
1001.53	222.55
1001.82	222.55
1002.11	222.53
1002.40	222.53
1002.68	222.55
1002.97	222.62
1003.26	222.61
1003.55	222.60
1003.84	222.61
1004.13	222.64
1004.42	222.64
1004.71	222.64
1004.99	222.63
1005.28	222.65
1005.57	222.64
1005.86	222.63
1006.15	222.62
1006.44	222.60
1006.72	222.62
1007.01	222.60
1007.30	222.60
1007.59	222.59
1007.88	222.59
1008.17	222.60
1008.45	222.58
1008.74	222.54
1009.03	222.49
1009.32	222.49
1009.60	222.49
1009.89	222.48
1010.18	222.44
1010.47	222.44
1010.76	222.43
1011.04	222.43
1011.33	222.43
1011.62	222.43
1011.91	222.45
1012.19	222.45
1012.48	222.45
1012.77	222.45
1013.05	222.49
1013.34	222.48
1013.63	222.48
1013.92	222.49
1014.20	222.48
1014.49	222.48
1014.78	222.49
1015.06	222.46
1015.35	222.46
1015.64	222.48
1015.92	222.50
1016.21	222.50
1016.50	222.50
1016.78	222.52
1017.07	222.53
1017.36	222.51
1017.64	222.50
1017.93	222.50
1018.22	222.50
1018.50	222.50
1018.79	222.49
1019.08	222.45
1019.36	222.46
1019.65	222.45
1019.93	222.48
1020.22	222.49
1020.51	222.54
1020.79	222.53
1021.08	222.40
1021.36	222.32
1021.65	222.47
1021.94	222.43
1022.22	222.52
1022.51	222.28
1022.79	222.96
1023.08	222.60
1023.36	223.71
1023.65	222.27
>>>>>End Processed Spectral Data<<<<<
