SpectraSuite Data File
++++++++++++++++++++++++++++++++++++
Date: Wed Sep 30 14:36:57 EDT 2015
User: lab3
Dark Spectrum Present: No
Reference Spectrum Present: No
Number of Sampled Component Spectra: 1
Spectrometers: USB2E7196
Integration Time (usec): 36000 (USB2E7196)
Spectra Averaged: 1500 (USB2E7196)
Boxcar Smoothing: 10 (USB2E7196)
Correct for Electrical Dark: No (USB2E7196)
Strobe/Lamp Enabled: No (USB2E7196)
Correct for Detector Non-linearity: No (USB2E7196)
Correct for Stray Light: No (USB2E7196)
Number of Pixels in Processed Spectrum: 2048
>>>>>Begin Processed Spectral Data<<<<<
339.09	0.00
339.48	211.68
339.86	212.95
340.24	214.55
340.63	215.84
341.01	218.62
341.39	218.44
341.78	219.80
342.16	221.13
342.54	221.53
342.93	210.04
343.31	220.65
343.69	221.18
344.07	221.64
344.46	222.06
344.84	222.44
345.22	222.67
345.60	222.92
345.99	223.11
346.37	223.24
346.75	223.34
347.13	223.41
347.52	223.48
347.90	223.56
348.28	223.59
348.66	223.64
349.05	223.64
349.43	223.68
349.81	223.74
350.19	223.80
350.57	223.86
350.96	223.93
351.34	224.01
351.72	224.11
352.10	224.21
352.48	224.28
352.87	224.32
353.25	224.39
353.63	224.45
354.01	224.52
354.39	224.59
354.77	224.67
355.15	224.77
355.54	224.82
355.92	224.85
356.30	224.93
356.68	225.05
357.06	225.12
357.44	225.17
357.82	225.23
358.20	225.33
358.58	225.39
358.97	225.45
359.35	225.53
359.73	225.62
360.11	225.66
360.49	225.73
360.87	225.78
361.25	225.85
361.63	225.93
362.01	225.98
362.39	226.01
362.77	226.05
363.15	226.07
363.53	226.11
363.91	226.14
364.29	226.17
364.67	226.09
365.05	226.12
365.43	226.15
365.81	226.17
366.19	226.19
366.57	226.23
366.95	226.23
367.33	226.21
367.71	226.20
368.09	226.22
368.47	226.22
368.85	226.21
369.23	226.22
369.61	226.18
369.99	226.19
370.37	226.19
370.75	226.26
371.13	226.23
371.51	226.20
371.89	226.18
372.27	226.16
372.65	226.13
373.03	226.10
373.41	226.06
373.78	226.02
374.16	225.93
374.54	225.86
374.92	225.81
375.30	225.76
375.68	225.70
376.06	225.66
376.44	225.61
376.82	225.56
377.19	225.51
377.57	225.45
377.95	225.37
378.33	225.30
378.71	225.16
379.09	225.12
379.47	225.07
379.84	225.02
380.22	224.96
380.60	224.89
380.98	224.84
381.36	224.79
381.73	224.74
382.11	224.71
382.49	224.67
382.87	224.61
383.25	224.56
383.62	224.63
384.00	224.56
384.38	224.52
384.76	224.50
385.13	224.49
385.51	224.45
385.89	224.40
386.27	224.37
386.64	224.34
387.02	224.29
387.40	224.24
387.78	224.21
388.15	224.18
388.53	224.16
388.91	224.12
389.29	224.10
389.66	224.08
390.04	224.04
390.42	224.04
390.79	224.03
391.17	224.01
391.55	223.88
391.92	223.87
392.30	223.87
392.68	223.84
393.05	223.81
393.43	223.80
393.81	223.80
394.18	223.78
394.56	223.77
394.94	223.81
395.31	223.80
395.69	223.83
396.06	223.85
396.44	223.87
396.82	223.88
397.19	223.95
397.57	223.96
397.95	224.00
398.32	223.99
398.70	224.02
399.07	224.08
399.45	224.10
399.82	224.14
400.20	224.17
400.58	224.23
400.95	224.24
401.33	224.31
401.70	224.45
402.08	224.55
402.45	224.64
402.83	224.73
403.20	224.83
403.58	224.92
403.95	225.04
404.33	225.17
404.71	225.29
405.08	225.47
405.46	225.61
405.83	225.77
406.21	225.94
406.58	226.14
406.96	226.33
407.33	226.55
407.70	226.79
408.08	227.12
408.45	227.41
408.83	227.71
409.20	228.00
409.58	228.25
409.95	228.59
410.33	228.96
410.70	229.31
411.08	229.72
411.45	230.17
411.82	230.61
412.20	231.12
412.57	231.72
412.95	232.20
413.32	232.83
413.69	233.47
414.07	234.14
414.44	234.87
414.82	235.63
415.19	236.51
415.56	237.40
415.94	238.32
416.31	239.36
416.68	240.40
417.06	241.61
417.43	242.74
417.81	244.05
418.18	245.37
418.55	246.83
418.93	248.34
419.30	249.92
419.67	251.60
420.04	253.33
420.42	255.14
420.79	257.23
421.16	259.34
421.54	261.48
421.91	263.72
422.28	266.07
422.66	268.58
423.03	270.97
423.40	273.49
423.77	276.19
424.15	278.97
424.52	281.86
424.89	284.98
425.26	288.07
425.64	290.95
426.01	294.20
426.38	297.51
426.75	300.94
427.13	304.45
427.50	308.12
427.87	311.95
428.24	315.82
428.61	319.53
428.99	323.53
429.36	327.90
429.73	332.08
430.10	336.25
430.47	340.51
430.85	344.91
431.22	349.58
431.59	354.39
431.96	359.07
432.33	364.27
432.70	369.22
433.08	375.06
433.45	380.56
433.82	385.98
434.19	392.05
434.56	398.00
434.93	403.75
435.30	409.42
435.68	415.80
436.05	422.03
436.42	428.25
436.79	433.92
437.16	440.08
437.53	446.64
437.90	453.19
438.27	459.62
438.64	466.52
439.01	472.80
439.38	478.53
439.75	484.03
440.13	490.26
440.50	496.18
440.87	500.88
441.24	506.03
441.61	511.67
441.98	515.80
442.35	520.72
442.72	525.77
443.09	530.55
443.46	533.58
443.83	535.82
444.20	537.69
444.57	540.43
444.94	542.02
445.31	543.66
445.68	545.09
446.05	546.10
446.42	545.89
446.79	545.57
447.16	545.28
447.53	545.04
447.90	543.15
448.27	541.38
448.64	538.55
449.01	536.71
449.37	532.76
449.74	529.14
450.11	524.50
450.48	519.42
450.85	514.32
451.22	510.00
451.59	505.73
451.96	501.86
452.33	496.25
452.70	491.21
453.07	485.10
453.43	478.99
453.80	473.07
454.17	467.36
454.54	462.03
454.91	456.06
455.28	450.44
455.65	445.13
456.02	439.50
456.38	434.98
456.75	429.11
457.12	424.41
457.49	419.68
457.86	415.16
458.23	411.18
458.59	406.78
458.96	402.28
459.33	398.35
459.70	394.35
460.07	391.31
460.43	387.74
460.80	384.39
461.17	381.46
461.54	378.29
461.91	375.31
462.27	372.27
462.64	369.81
463.01	366.96
463.38	364.11
463.74	361.51
464.11	359.21
464.48	357.15
464.85	354.89
465.21	353.15
465.58	351.24
465.95	349.03
466.32	347.30
466.68	345.60
467.05	343.87
467.42	342.19
467.78	340.37
468.15	338.68
468.52	337.45
468.88	335.81
469.25	334.32
469.62	333.14
469.98	331.87
470.35	330.72
470.72	329.70
471.08	328.65
471.45	327.81
471.82	326.84
472.18	325.82
472.55	325.18
472.92	324.40
473.28	323.79
473.65	323.15
474.02	322.55
474.38	322.03
474.75	321.75
475.11	321.34
475.48	321.19
475.85	321.04
476.21	320.99
476.58	321.00
476.94	321.19
477.31	321.31
477.67	321.45
478.04	321.71
478.41	322.04
478.77	322.51
479.14	322.83
479.50	323.38
479.87	324.08
480.23	324.78
480.60	325.47
480.96	326.16
481.33	327.14
481.69	328.11
482.06	329.07
482.42	330.00
482.79	331.12
483.15	332.40
483.52	333.84
483.88	335.22
484.25	336.71
484.61	338.22
484.98	339.85
485.34	341.70
485.71	343.62
486.07	345.67
486.44	347.70
486.80	349.94
487.17	352.26
487.53	354.78
487.90	357.40
488.26	360.21
488.62	363.20
488.99	366.21
489.35	369.37
489.72	372.80
490.08	376.37
490.44	380.01
490.81	383.83
491.17	387.75
491.54	391.93
491.90	396.16
492.26	400.74
492.63	405.54
492.99	410.55
493.36	415.71
493.72	421.17
494.08	426.78
494.45	432.69
494.81	438.82
495.17	445.03
495.54	451.67
495.90	458.64
496.26	465.73
496.63	473.01
496.99	480.59
497.35	488.45
497.72	496.61
498.08	504.99
498.44	513.61
498.80	522.76
499.17	532.18
499.53	541.93
499.89	551.93
500.26	562.12
500.62	572.55
500.98	583.57
501.34	594.74
501.71	606.41
502.07	618.32
502.43	630.63
502.79	643.41
503.16	656.51
503.52	669.74
503.88	683.40
504.24	697.48
504.60	711.73
504.97	726.45
505.33	741.51
505.69	757.32
506.05	773.38
506.41	789.64
506.78	806.14
507.14	823.24
507.50	840.64
507.86	858.42
508.22	876.43
508.59	894.56
508.95	913.26
509.31	932.46
509.67	952.43
510.03	972.56
510.39	992.74
510.75	1013.09
511.12	1033.80
511.48	1054.71
511.84	1075.96
512.20	1097.44
512.56	1119.77
512.92	1142.22
513.28	1164.64
513.64	1187.30
514.00	1210.35
514.37	1233.98
514.73	1257.54
515.09	1280.94
515.45	1304.54
515.81	1328.40
516.17	1352.36
516.53	1376.24
516.89	1399.91
517.25	1423.51
517.61	1447.28
517.97	1471.35
518.33	1495.48
518.69	1519.78
519.05	1544.43
519.41	1568.94
519.77	1593.88
520.13	1618.04
520.49	1642.28
520.85	1666.39
521.21	1690.63
521.57	1715.30
521.93	1739.16
522.29	1763.48
522.65	1787.69
523.01	1811.92
523.37	1835.58
523.73	1859.85
524.09	1883.86
524.45	1907.96
524.81	1931.93
525.17	1955.38
525.53	1978.64
525.89	2001.75
526.25	2024.78
526.61	2046.48
526.97	2068.54
527.33	2090.34
527.68	2112.13
528.04	2133.52
528.40	2154.87
528.76	2175.77
529.12	2196.10
529.48	2217.08
529.84	2235.94
530.20	2255.29
530.56	2274.08
530.91	2293.52
531.27	2312.39
531.63	2330.54
531.99	2348.16
532.35	2365.37
532.71	2383.43
533.07	2401.77
533.42	2418.35
533.78	2435.45
534.14	2452.97
534.50	2469.66
534.86	2486.83
535.21	2502.03
535.57	2517.08
535.93	2531.63
536.29	2545.65
536.65	2559.14
537.00	2571.35
537.36	2584.60
537.72	2596.66
538.08	2608.75
538.44	2619.55
538.79	2629.79
539.15	2639.06
539.51	2648.34
539.87	2656.52
540.22	2662.25
540.58	2668.05
540.94	2674.61
541.29	2680.00
541.65	2685.16
542.01	2690.03
542.37	2692.87
542.72	2697.12
543.08	2700.57
543.44	2703.68
543.79	2706.13
544.15	2708.11
544.51	2709.66
544.87	2711.17
545.22	2712.12
545.58	2711.89
545.94	2711.63
546.29	2710.21
546.65	2709.13
547.01	2707.83
547.36	2707.00
547.72	2706.62
548.07	2705.01
548.43	2701.87
548.79	2698.49
549.14	2695.06
549.50	2691.83
549.86	2688.42
550.21	2683.82
550.57	2679.52
550.92	2674.04
551.28	2668.50
551.64	2662.88
551.99	2657.48
552.35	2650.84
552.70	2644.44
553.06	2638.84
553.41	2632.93
553.77	2626.83
554.13	2620.73
554.48	2613.32
554.84	2604.98
555.19	2596.45
555.55	2587.32
555.90	2579.36
556.26	2571.58
556.61	2562.95
556.97	2552.88
557.32	2543.04
557.68	2533.28
558.03	2523.17
558.39	2514.03
558.74	2505.56
559.10	2495.74
559.45	2485.70
559.81	2476.24
560.16	2466.22
560.52	2455.78
560.87	2445.57
561.23	2434.79
561.58	2424.44
561.94	2414.06
562.29	2403.32
562.64	2393.06
563.00	2383.00
563.35	2372.78
563.71	2361.75
564.06	2351.02
564.42	2340.59
564.77	2329.98
565.12	2319.25
565.48	2308.23
565.83	2296.74
566.19	2284.92
566.54	2273.75
566.89	2261.80
567.25	2249.78
567.60	2238.77
567.96	2227.24
568.31	2214.68
568.66	2202.59
569.02	2190.70
569.37	2179.24
569.72	2168.53
570.08	2156.78
570.43	2144.66
570.78	2132.36
571.14	2120.09
571.49	2107.45
571.84	2095.08
572.20	2081.89
572.55	2068.79
572.90	2056.16
573.26	2043.89
573.61	2030.78
573.96	2017.97
574.31	2005.58
574.67	1993.19
575.02	1979.73
575.37	1966.31
575.72	1953.33
576.08	1940.40
576.43	1926.96
576.78	1913.48
577.13	1899.70
577.49	1886.33
577.84	1873.15
578.19	1860.01
578.54	1846.54
578.90	1832.80
579.25	1818.87
579.60	1806.11
579.95	1793.53
580.30	1780.68
580.66	1767.35
581.01	1754.09
581.36	1740.45
581.71	1727.30
582.06	1714.27
582.42	1701.59
582.77	1688.90
583.12	1676.50
583.47	1664.44
583.82	1651.92
584.17	1638.67
584.53	1625.75
584.88	1613.02
585.23	1600.16
585.58	1587.31
585.93	1574.91
586.28	1563.16
586.63	1551.26
586.98	1538.86
587.34	1526.58
587.69	1513.78
588.04	1501.40
588.39	1489.46
588.74	1477.34
589.09	1465.57
589.44	1453.09
589.79	1440.79
590.14	1428.67
590.49	1416.46
590.84	1404.31
591.19	1392.87
591.54	1381.42
591.89	1369.73
592.25	1358.57
592.60	1347.04
592.95	1335.93
593.30	1324.67
593.65	1313.49
594.00	1302.51
594.35	1291.98
594.70	1280.67
595.05	1270.29
595.40	1259.58
595.75	1248.71
596.10	1238.50
596.45	1227.88
596.80	1217.99
597.15	1208.20
597.50	1198.37
597.85	1188.96
598.19	1179.52
598.54	1169.67
598.89	1160.48
599.24	1151.56
599.59	1142.59
599.94	1134.23
600.29	1125.50
600.64	1116.88
600.99	1107.58
601.34	1098.82
601.69	1089.90
602.04	1081.86
602.39	1073.39
602.74	1065.40
603.08	1057.69
603.43	1049.74
603.78	1041.74
604.13	1033.77
604.48	1025.65
604.83	1017.78
605.18	1009.74
605.53	1001.58
605.87	993.51
606.22	985.69
606.57	977.70
606.92	969.50
607.27	961.52
607.62	953.79
607.96	946.12
608.31	939.48
608.66	932.57
609.01	925.67
609.36	918.70
609.70	911.80
610.05	904.73
610.40	897.75
610.75	890.64
611.10	883.98
611.44	877.08
611.79	870.48
612.14	863.78
612.49	856.94
612.83	850.59
613.18	844.36
613.53	838.22
613.88	832.15
614.22	826.36
614.57	820.32
614.92	814.41
615.27	808.58
615.61	802.29
615.96	796.11
616.31	790.11
616.65	783.95
617.00	777.87
617.35	771.86
617.70	765.97
618.04	760.27
618.39	754.38
618.74	748.81
619.08	743.11
619.43	737.52
619.78	732.07
620.12	726.45
620.47	721.02
620.82	715.58
621.16	710.27
621.51	704.82
621.85	699.47
622.20	693.97
622.55	688.56
622.89	683.27
623.24	678.13
623.59	673.08
623.93	668.26
624.28	663.60
624.62	658.94
624.97	654.20
625.32	649.50
625.66	644.67
626.01	639.79
626.35	635.08
626.70	630.38
627.04	625.93
627.39	621.47
627.73	617.03
628.08	612.66
628.43	608.31
628.77	604.02
629.12	599.79
629.46	595.72
629.81	591.55
630.15	587.43
630.50	583.39
630.84	579.39
631.19	575.49
631.53	571.68
631.88	567.84
632.22	563.93
632.57	560.28
632.91	556.66
633.26	553.08
633.60	549.48
633.95	545.97
634.29	542.37
634.64	538.85
634.98	535.23
635.32	531.71
635.67	528.40
636.01	525.13
636.36	521.84
636.70	518.67
637.05	515.54
637.39	512.46
637.73	509.16
638.08	505.97
638.42	502.82
638.77	499.57
639.11	496.23
639.45	493.03
639.80	489.81
640.14	486.74
640.49	483.70
640.83	480.62
641.17	477.60
641.52	474.60
641.86	471.51
642.20	468.61
642.55	465.60
642.89	462.62
643.23	459.74
643.58	457.08
643.92	454.32
644.26	451.62
644.61	448.92
644.95	446.30
645.29	443.57
645.64	440.80
645.98	438.12
646.32	435.58
646.66	433.05
647.01	430.59
647.35	428.23
647.69	425.77
648.04	423.38
648.38	420.96
648.72	418.59
649.06	416.29
649.41	414.01
649.75	411.79
650.09	409.49
650.43	407.24
650.78	404.95
651.12	402.68
651.46	400.46
651.80	398.32
652.14	396.26
652.49	394.24
652.83	392.26
653.17	390.31
653.51	388.44
653.85	386.59
654.20	384.67
654.54	382.65
654.88	380.73
655.22	378.86
655.56	377.03
655.90	375.26
656.25	373.52
656.59	371.76
656.93	370.10
657.27	368.52
657.61	366.83
657.95	365.19
658.29	363.61
658.64	362.05
658.98	360.41
659.32	358.73
659.66	357.18
660.00	355.65
660.34	354.10
660.68	352.54
661.02	350.97
661.36	349.45
661.70	347.99
662.05	346.58
662.39	345.18
662.73	343.83
663.07	342.52
663.41	341.24
663.75	339.96
664.09	338.67
664.43	337.31
664.77	336.02
665.11	334.66
665.45	333.37
665.79	332.10
666.13	330.89
666.47	329.72
666.81	328.49
667.15	327.22
667.49	326.04
667.83	324.87
668.17	323.73
668.51	322.64
668.85	321.55
669.19	320.49
669.53	319.34
669.87	318.15
670.21	317.02
670.55	315.90
670.89	314.88
671.23	313.82
671.57	312.79
671.91	311.82
672.25	310.92
672.58	310.00
672.92	309.05
673.26	308.16
673.60	307.26
673.94	306.36
674.28	305.50
674.62	304.64
674.96	303.73
675.30	302.90
675.64	302.05
675.97	301.20
676.31	300.35
676.65	299.53
676.99	298.82
677.33	297.99
677.67	297.19
678.01	296.32
678.34	295.51
678.68	294.75
679.02	293.97
679.36	293.18
679.70	292.38
680.04	291.61
680.37	290.83
680.71	290.09
681.05	289.38
681.39	288.67
681.73	287.94
682.06	287.25
682.40	286.53
682.74	285.85
683.08	285.19
683.42	284.51
683.75	283.88
684.09	283.17
684.43	282.53
684.77	281.87
685.10	281.27
685.44	280.64
685.78	280.02
686.12	279.42
686.45	278.82
686.79	278.20
687.13	277.59
687.46	276.96
687.80	276.35
688.14	275.74
688.48	275.15
688.81	274.56
689.15	274.02
689.49	273.43
689.82	272.85
690.16	272.20
690.50	271.62
690.83	271.05
691.17	270.46
691.51	269.92
691.84	269.39
692.18	268.83
692.52	268.27
692.85	267.73
693.19	267.23
693.52	266.70
693.86	266.18
694.20	265.67
694.53	265.18
694.87	264.67
695.21	264.16
695.54	263.66
695.88	263.15
696.21	262.62
696.55	262.15
696.88	261.67
697.22	261.22
697.56	260.78
697.89	260.31
698.23	259.88
698.56	259.43
698.90	259.03
699.23	258.61
699.57	258.20
699.90	257.78
700.24	257.34
700.58	256.94
700.91	256.57
701.25	256.27
701.58	255.92
701.92	255.56
702.25	255.18
702.59	254.79
702.92	254.43
703.26	254.06
703.59	253.68
703.93	253.40
704.26	253.06
704.60	252.70
704.93	252.33
705.26	251.96
705.60	251.64
705.93	251.26
706.27	250.96
706.60	250.66
706.94	250.38
707.27	250.03
707.61	249.70
707.94	249.35
708.27	248.94
708.61	248.58
708.94	248.26
709.28	247.96
709.61	247.65
709.94	247.37
710.28	247.10
710.61	246.85
710.95	246.51
711.28	246.29
711.61	246.02
711.95	245.79
712.28	245.52
712.61	245.23
712.95	245.03
713.28	244.81
713.61	244.52
713.95	244.23
714.28	243.98
714.61	243.73
714.95	243.50
715.28	243.25
715.61	243.03
715.95	242.82
716.28	242.60
716.61	242.40
716.95	242.18
717.28	241.97
717.61	241.74
717.94	241.51
718.28	241.24
718.61	241.03
718.94	240.81
719.27	240.61
719.61	240.44
719.94	240.21
720.27	239.97
720.60	239.79
720.94	239.60
721.27	239.42
721.60	239.27
721.93	239.08
722.27	238.94
722.60	238.78
722.93	238.57
723.26	238.40
723.59	238.19
723.93	238.03
724.26	237.87
724.59	237.69
724.92	237.54
725.25	237.41
725.59	237.26
725.92	237.13
726.25	236.98
726.58	236.83
726.91	236.67
727.24	236.54
727.57	236.38
727.91	236.22
728.24	236.09
728.57	235.93
728.90	235.81
729.23	235.64
729.56	235.56
729.89	235.42
730.22	235.30
730.55	235.17
730.89	235.04
731.22	234.90
731.55	234.79
731.88	234.67
732.21	234.51
732.54	234.39
732.87	234.26
733.20	234.16
733.53	234.05
733.86	233.95
734.19	233.82
734.52	233.74
734.85	233.71
735.18	233.59
735.51	233.52
735.84	233.41
736.17	233.33
736.50	233.17
736.83	233.19
737.16	233.09
737.49	233.00
737.82	232.89
738.15	232.82
738.48	232.73
738.81	232.63
739.14	232.53
739.47	232.43
739.80	232.33
740.13	232.24
740.46	232.13
740.79	232.01
741.12	231.91
741.45	231.80
741.78	231.64
742.11	231.57
742.44	231.45
742.77	231.39
743.10	231.28
743.43	231.19
743.75	231.00
744.08	231.07
744.41	230.99
744.74	230.91
745.07	230.80
745.40	230.74
745.73	230.70
746.06	230.63
746.39	230.57
746.71	230.49
747.04	230.42
747.37	230.35
747.70	230.30
748.03	230.24
748.36	230.19
748.68	230.13
749.01	230.03
749.34	229.97
749.67	229.89
750.00	229.84
750.33	229.85
750.65	229.80
750.98	229.59
751.31	229.53
751.64	229.48
751.97	229.48
752.29	229.41
752.62	229.30
752.95	229.23
753.28	229.16
753.60	229.10
753.93	229.06
754.26	229.02
754.59	228.93
754.91	228.86
755.24	228.80
755.57	228.79
755.90	228.74
756.22	228.68
756.55	228.62
756.88	228.54
757.20	228.42
757.53	228.34
757.86	228.29
758.19	228.24
758.51	228.18
758.84	228.08
759.17	228.02
759.49	227.98
759.82	227.99
760.15	227.95
760.47	227.89
760.80	227.82
761.13	227.77
761.45	227.73
761.78	227.69
762.11	227.64
762.43	227.54
762.76	227.50
763.08	227.45
763.41	227.41
763.74	227.37
764.06	227.33
764.39	227.28
764.71	227.24
765.04	227.18
765.37	227.13
765.69	227.09
766.02	227.05
766.34	227.00
766.67	226.92
767.00	226.91
767.32	226.93
767.65	226.96
767.97	226.91
768.30	226.88
768.62	226.85
768.95	226.80
769.27	226.76
769.60	226.73
769.92	226.69
770.25	226.63
770.57	226.58
770.90	226.54
771.22	226.50
771.55	226.46
771.87	226.44
772.20	226.40
772.52	226.46
772.85	226.54
773.17	226.52
773.50	226.48
773.82	226.43
774.15	226.34
774.47	226.24
774.80	226.20
775.12	226.18
775.45	226.14
775.77	226.12
776.09	226.10
776.42	226.08
776.74	226.08
777.07	226.05
777.39	226.04
777.72	226.01
778.04	226.01
778.36	225.98
778.69	225.95
779.01	225.94
779.33	225.82
779.66	225.69
779.98	225.65
780.31	225.64
780.63	225.66
780.95	225.65
781.28	225.63
781.60	225.61
781.92	225.59
782.25	225.57
782.57	225.55
782.89	225.53
783.22	225.50
783.54	225.46
783.86	225.45
784.19	225.43
784.51	225.44
784.83	225.40
785.16	225.38
785.48	225.38
785.80	225.36
786.12	225.36
786.45	225.33
786.77	225.33
787.09	225.31
787.42	225.26
787.74	225.25
788.06	225.25
788.38	225.22
788.71	225.20
789.03	225.18
789.35	225.18
789.67	225.15
789.99	225.14
790.32	225.13
790.64	225.13
790.96	225.21
791.28	225.16
791.61	225.16
791.93	225.14
792.25	225.12
792.57	225.17
792.89	225.14
793.21	225.13
793.54	225.10
793.86	225.07
794.18	225.06
794.50	225.02
794.82	225.00
795.14	225.01
795.47	225.02
795.79	225.01
796.11	224.97
796.43	224.96
796.75	224.96
797.07	224.95
797.39	224.92
797.71	224.82
798.04	224.81
798.36	224.81
798.68	224.81
799.00	224.80
799.32	224.74
799.64	224.75
799.96	224.74
800.28	224.75
800.60	224.74
800.92	224.74
801.24	224.72
801.56	224.73
801.89	224.70
802.21	224.69
802.53	224.67
802.85	224.68
803.17	224.72
803.49	224.68
803.81	224.66
804.13	224.64
804.45	224.62
804.77	224.62
805.09	224.61
805.41	224.58
805.73	224.55
806.05	224.51
806.37	224.49
806.69	224.48
807.01	224.45
807.33	224.45
807.65	224.41
807.97	224.44
808.28	224.41
808.60	224.41
808.92	224.38
809.24	224.43
809.56	224.40
809.88	224.36
810.20	224.36
810.52	224.39
810.84	224.36
811.16	224.34
811.48	224.33
811.80	224.36
812.12	224.36
812.43	224.38
812.75	224.38
813.07	224.36
813.39	224.35
813.71	224.34
814.03	224.32
814.35	224.32
814.67	224.26
814.98	224.25
815.30	224.23
815.62	224.23
815.94	224.16
816.26	224.16
816.58	224.14
816.89	224.14
817.21	224.10
817.53	224.12
817.85	224.12
818.17	224.11
818.48	224.06
818.80	224.06
819.12	224.03
819.44	224.00
819.76	223.99
820.07	223.99
820.39	223.98
820.71	223.99
821.03	223.99
821.34	223.99
821.66	224.00
821.98	224.01
822.30	224.00
822.61	224.07
822.93	224.05
823.25	224.04
823.57	224.04
823.88	224.05
824.20	224.04
824.52	224.05
824.83	224.04
825.15	224.02
825.47	224.02
825.79	224.03
826.10	224.03
826.42	224.02
826.74	224.03
827.05	224.03
827.37	224.03
827.69	224.03
828.00	224.04
828.32	224.03
828.64	224.01
828.95	224.06
829.27	224.02
829.58	224.03
829.90	224.04
830.22	224.03
830.53	224.01
830.85	223.99
831.17	223.96
831.48	223.96
831.80	223.97
832.11	223.97
832.43	223.95
832.75	223.95
833.06	224.02
833.38	223.99
833.69	223.98
834.01	223.98
834.32	223.97
834.64	223.94
834.96	223.95
835.27	223.95
835.59	223.91
835.90	223.89
836.22	223.87
836.53	223.85
836.85	223.84
837.16	223.95
837.48	223.95
837.79	223.99
838.11	223.99
838.42	223.98
838.74	223.99
839.05	223.98
839.37	223.97
839.68	223.90
840.00	223.90
840.31	223.91
840.63	223.89
840.94	223.87
841.26	223.86
841.57	223.86
841.88	223.86
842.20	223.84
842.51	223.83
842.83	223.83
843.14	223.92
843.46	223.92
843.77	223.86
844.08	223.84
844.40	223.81
844.71	223.80
845.03	223.79
845.34	223.79
845.65	223.78
845.97	223.78
846.28	223.77
846.60	223.78
846.91	223.76
847.22	223.76
847.54	223.79
847.85	223.80
848.16	223.78
848.48	223.76
848.79	223.80
849.10	223.81
849.42	223.82
849.73	223.71
850.04	223.71
850.36	223.67
850.67	223.69
850.98	223.69
851.30	223.70
851.61	223.69
851.92	223.69
852.23	223.73
852.55	223.73
852.86	223.73
853.17	223.74
853.49	223.77
853.80	223.78
854.11	223.80
854.42	223.80
854.74	223.80
855.05	223.81
855.36	223.75
855.67	223.75
855.99	223.75
856.30	223.87
856.61	223.87
856.92	223.87
857.23	223.88
857.55	223.87
857.86	223.86
858.17	223.87
858.48	223.85
858.79	223.83
859.11	223.84
859.42	223.84
859.73	223.82
860.04	223.81
860.35	223.78
860.66	223.74
860.98	223.74
861.29	223.76
861.60	223.75
861.91	223.77
862.22	223.75
862.53	223.74
862.84	223.62
863.16	223.64
863.47	223.62
863.78	223.60
864.09	223.61
864.40	223.62
864.71	223.61
865.02	223.62
865.33	223.60
865.64	223.58
865.95	223.59
866.27	223.66
866.58	223.65
866.89	223.66
867.20	223.66
867.51	223.63
867.82	223.63
868.13	223.66
868.44	223.64
868.75	223.66
869.06	223.67
869.37	223.68
869.68	223.65
869.99	223.66
870.30	223.67
870.61	223.68
870.92	223.66
871.23	223.65
871.54	223.67
871.85	223.70
872.16	223.71
872.47	223.70
872.78	223.64
873.09	223.65
873.40	223.63
873.71	223.64
874.02	223.65
874.33	223.63
874.64	223.61
874.95	223.62
875.26	223.59
875.56	223.59
875.87	223.60
876.18	223.60
876.49	223.69
876.80	223.68
877.11	223.66
877.42	223.67
877.73	223.67
878.04	223.65
878.35	223.64
878.66	223.64
878.96	223.63
879.27	223.63
879.58	223.62
879.89	223.62
880.20	223.65
880.51	223.64
880.82	223.65
881.12	223.66
881.43	223.63
881.74	223.63
882.05	223.61
882.36	223.60
882.67	223.61
882.97	223.51
883.28	223.50
883.59	223.49
883.90	223.50
884.21	223.50
884.51	223.50
884.82	223.49
885.13	223.49
885.44	223.49
885.74	223.49
886.05	223.49
886.36	223.50
886.67	223.46
886.98	223.51
887.28	223.52
887.59	223.52
887.90	223.53
888.20	223.53
888.51	223.56
888.82	223.55
889.13	223.55
889.43	223.64
889.74	223.63
890.05	223.64
890.35	223.63
890.66	223.61
890.97	223.60
891.28	223.59
891.58	223.59
891.89	223.59
892.20	223.57
892.50	223.57
892.81	223.56
893.12	223.56
893.42	223.51
893.73	223.50
894.04	223.50
894.34	223.50
894.65	223.49
894.95	223.48
895.26	223.50
895.57	223.54
895.87	223.43
896.18	223.45
896.48	223.45
896.79	223.45
897.10	223.47
897.40	223.46
897.71	223.48
898.01	223.46
898.32	223.48
898.63	223.47
898.93	223.48
899.24	223.49
899.54	223.48
899.85	223.48
900.15	223.47
900.46	223.47
900.76	223.48
901.07	223.47
901.38	223.47
901.68	223.47
901.99	223.42
902.29	223.43
902.60	223.43
902.90	223.43
903.21	223.42
903.51	223.41
903.82	223.43
904.12	223.43
904.43	223.45
904.73	223.44
905.03	223.45
905.34	223.54
905.64	223.53
905.95	223.55
906.25	223.54
906.56	223.54
906.86	223.54
907.17	223.53
907.47	223.54
907.77	223.52
908.08	223.49
908.38	223.49
908.69	223.48
908.99	223.49
909.30	223.49
909.60	223.49
909.90	223.48
910.21	223.47
910.51	223.44
910.81	223.43
911.12	223.43
911.42	223.42
911.73	223.30
912.03	223.30
912.33	223.31
912.64	223.30
912.94	223.29
913.24	223.27
913.55	223.25
913.85	223.25
914.15	223.27
914.46	223.29
914.76	223.29
915.06	223.29
915.37	223.27
915.67	223.26
915.97	223.26
916.27	223.24
916.58	223.23
916.88	223.23
917.18	223.23
917.49	223.29
917.79	223.29
918.09	223.31
918.39	223.34
918.70	223.34
919.00	223.34
919.30	223.39
919.60	223.39
919.91	223.38
920.21	223.38
920.51	223.36
920.81	223.35
921.12	223.36
921.42	223.36
921.72	223.38
922.02	223.39
922.32	223.41
922.63	223.41
922.93	223.48
923.23	223.48
923.53	223.47
923.83	223.40
924.13	223.40
924.44	223.40
924.74	223.41
925.04	223.42
925.34	223.43
925.64	223.38
925.94	223.38
926.24	223.44
926.55	223.43
926.85	223.44
927.15	223.44
927.45	223.44
927.75	223.44
928.05	223.43
928.35	223.43
928.65	223.44
928.95	223.44
929.26	223.39
929.56	223.41
929.86	223.42
930.16	223.41
930.46	223.42
930.76	223.43
931.06	223.38
931.36	223.36
931.66	223.38
931.96	223.39
932.26	223.39
932.56	223.36
932.86	223.37
933.16	223.38
933.46	223.38
933.76	223.37
934.06	223.38
934.36	223.41
934.66	223.40
934.96	223.39
935.26	223.39
935.56	223.41
935.86	223.38
936.16	223.37
936.46	223.37
936.76	223.36
937.06	223.34
937.36	223.35
937.66	223.35
937.96	223.35
938.26	223.33
938.56	223.33
938.86	223.33
939.16	223.35
939.46	223.37
939.76	223.37
940.06	223.36
940.35	223.35
940.65	223.30
940.95	223.32
941.25	223.30
941.55	223.28
941.85	223.28
942.15	223.31
942.45	223.34
942.75	223.34
943.04	223.34
943.34	223.35
943.64	223.34
943.94	223.32
944.24	223.33
944.54	223.33
944.84	223.33
945.13	223.31
945.43	223.29
945.73	223.28
946.03	223.27
946.33	223.27
946.62	223.25
946.92	223.26
947.22	223.26
947.52	223.26
947.82	223.27
948.11	223.26
948.41	223.23
948.71	223.20
949.01	223.21
949.31	223.20
949.60	223.19
949.90	223.22
950.20	223.22
950.50	223.20
950.79	223.20
951.09	223.20
951.39	223.20
951.69	223.20
951.98	223.22
952.28	223.22
952.58	223.22
952.87	223.23
953.17	223.24
953.47	223.23
953.76	223.22
954.06	223.20
954.36	223.18
954.66	223.19
954.95	223.21
955.25	223.22
955.55	223.23
955.84	223.22
956.14	223.22
956.44	223.22
956.73	223.20
957.03	223.21
957.32	223.21
957.62	223.21
957.92	223.22
958.21	223.19
958.51	223.30
958.81	223.31
959.10	223.32
959.40	223.34
959.69	223.34
959.99	223.35
960.29	223.36
960.58	223.36
960.88	223.39
961.17	223.38
961.47	223.38
961.76	223.37
962.06	223.39
962.36	223.38
962.65	223.39
962.95	223.40
963.24	223.38
963.54	223.39
963.83	223.40
964.13	223.40
964.42	223.39
964.72	223.30
965.01	223.30
965.31	223.29
965.60	223.27
965.90	223.32
966.19	223.30
966.49	223.31
966.78	223.31
967.08	223.30
967.37	223.29
967.67	223.28
967.96	223.29
968.26	223.29
968.55	223.30
968.85	223.30
969.14	223.30
969.43	223.30
969.73	223.29
970.02	223.28
970.32	223.27
970.61	223.25
970.91	223.24
971.20	223.23
971.49	223.22
971.79	223.24
972.08	223.18
972.38	223.19
972.67	223.18
972.96	223.20
973.26	223.18
973.55	223.21
973.85	223.22
974.14	223.21
974.43	223.21
974.73	223.20
975.02	223.18
975.31	223.18
975.61	223.19
975.90	223.19
976.19	223.18
976.49	223.19
976.78	223.20
977.07	223.20
977.37	223.20
977.66	223.21
977.95	223.19
978.24	223.20
978.54	223.22
978.83	223.22
979.12	223.21
979.42	223.22
979.71	223.20
980.00	223.19
980.29	223.20
980.59	223.18
980.88	223.21
981.17	223.21
981.46	223.22
981.76	223.21
982.05	223.25
982.34	223.25
982.63	223.25
982.93	223.25
983.22	223.27
983.51	223.29
983.80	223.30
984.09	223.31
984.39	223.30
984.68	223.29
984.97	223.30
985.26	223.29
985.55	223.29
985.85	223.27
986.14	223.28
986.43	223.30
986.72	223.28
987.01	223.25
987.30	223.24
987.59	223.22
987.89	223.24
988.18	223.19
988.47	223.19
988.76	223.18
989.05	223.17
989.34	223.15
989.63	223.18
989.92	223.16
990.22	223.14
990.51	223.14
990.80	223.12
991.09	223.12
991.38	223.14
991.67	223.12
991.96	223.11
992.25	223.11
992.54	223.08
992.83	223.08
993.12	223.08
993.41	223.10
993.70	223.14
993.99	223.16
994.28	223.18
994.58	223.19
994.87	223.19
995.16	223.19
995.45	223.18
995.74	223.14
996.03	223.15
996.32	223.17
996.61	223.19
996.90	223.20
997.19	223.19
997.48	223.19
997.77	223.18
998.06	223.19
998.34	223.18
998.63	223.19
998.92	223.20
999.21	223.22
999.50	223.21
999.79	223.17
1000.08	223.16
1000.37	223.16
1000.66	223.15
1000.95	223.16
1001.24	223.17
1001.53	223.19
1001.82	223.19
1002.11	223.17
1002.40	223.17
1002.68	223.20
1002.97	223.27
1003.26	223.25
1003.55	223.24
1003.84	223.25
1004.13	223.29
1004.42	223.29
1004.71	223.28
1004.99	223.27
1005.28	223.29
1005.57	223.29
1005.86	223.29
1006.15	223.28
1006.44	223.27
1006.72	223.29
1007.01	223.27
1007.30	223.26
1007.59	223.25
1007.88	223.24
1008.17	223.25
1008.45	223.23
1008.74	223.19
1009.03	223.14
1009.32	223.13
1009.60	223.14
1009.89	223.12
1010.18	223.07
1010.47	223.07
1010.76	223.07
1011.04	223.07
1011.33	223.07
1011.62	223.07
1011.91	223.07
1012.19	223.08
1012.48	223.08
1012.77	223.08
1013.05	223.11
1013.34	223.12
1013.63	223.12
1013.92	223.12
1014.20	223.12
1014.49	223.12
1014.78	223.13
1015.06	223.10
1015.35	223.11
1015.64	223.12
1015.92	223.14
1016.21	223.16
1016.50	223.15
1016.78	223.16
1017.07	223.17
1017.36	223.14
1017.64	223.14
1017.93	223.15
1018.22	223.13
1018.50	223.13
1018.79	223.12
1019.08	223.09
1019.36	223.09
1019.65	223.07
1019.93	223.10
1020.22	223.11
1020.51	223.17
1020.79	223.15
1021.08	222.91
1021.36	222.85
1021.65	223.14
1021.94	223.07
1022.22	223.08
1022.51	222.83
1022.79	223.59
1023.08	223.26
1023.36	224.34
1023.65	222.86
>>>>>End Processed Spectral Data<<<<<
