SpectraSuite Data File
++++++++++++++++++++++++++++++++++++
Date: Wed Sep 30 14:45:14 EDT 2015
User: lab3
Dark Spectrum Present: No
Reference Spectrum Present: No
Number of Sampled Component Spectra: 1
Spectrometers: USB2E7196
Integration Time (usec): 36000 (USB2E7196)
Spectra Averaged: 1500 (USB2E7196)
Boxcar Smoothing: 10 (USB2E7196)
Correct for Electrical Dark: No (USB2E7196)
Strobe/Lamp Enabled: No (USB2E7196)
Correct for Detector Non-linearity: No (USB2E7196)
Correct for Stray Light: No (USB2E7196)
Number of Pixels in Processed Spectrum: 2048
>>>>>Begin Processed Spectral Data<<<<<
339.09	0.00
339.48	211.35
339.86	212.82
340.24	214.21
340.63	215.74
341.01	218.65
341.39	218.33
341.78	219.82
342.16	220.88
342.54	221.35
342.93	209.89
343.31	220.50
343.69	221.04
344.07	221.49
344.46	221.92
344.84	222.29
345.22	222.52
345.60	222.78
345.99	222.96
346.37	223.09
346.75	223.20
347.13	223.27
347.52	223.33
347.90	223.41
348.28	223.45
348.66	223.50
349.05	223.50
349.43	223.56
349.81	223.61
350.19	223.67
350.57	223.74
350.96	223.82
351.34	223.91
351.72	224.00
352.10	224.11
352.48	224.18
352.87	224.24
353.25	224.31
353.63	224.37
354.01	224.44
354.39	224.52
354.77	224.60
355.15	224.71
355.54	224.76
355.92	224.80
356.30	224.88
356.68	225.02
357.06	225.10
357.44	225.15
357.82	225.22
358.20	225.32
358.58	225.38
358.97	225.44
359.35	225.53
359.73	225.61
360.11	225.67
360.49	225.73
360.87	225.78
361.25	225.84
361.63	225.92
362.01	225.97
362.39	226.00
362.77	226.05
363.15	226.06
363.53	226.10
363.91	226.13
364.29	226.16
364.67	226.08
365.05	226.11
365.43	226.14
365.81	226.17
366.19	226.19
366.57	226.24
366.95	226.25
367.33	226.23
367.71	226.22
368.09	226.24
368.47	226.23
368.85	226.23
369.23	226.24
369.61	226.19
369.99	226.19
370.37	226.19
370.75	226.24
371.13	226.20
371.51	226.16
371.89	226.13
372.27	226.11
372.65	226.08
373.03	226.04
373.41	225.98
373.78	225.94
374.16	225.84
374.54	225.76
374.92	225.70
375.30	225.66
375.68	225.59
376.06	225.54
376.44	225.48
376.82	225.43
377.19	225.37
377.57	225.32
377.95	225.24
378.33	225.19
378.71	225.04
379.09	225.00
379.47	224.97
379.84	224.90
380.22	224.83
380.60	224.78
380.98	224.72
381.36	224.68
381.73	224.61
382.11	224.59
382.49	224.54
382.87	224.48
383.25	224.43
383.62	224.50
384.00	224.44
384.38	224.40
384.76	224.38
385.13	224.36
385.51	224.32
385.89	224.28
386.27	224.23
386.64	224.20
387.02	224.15
387.40	224.10
387.78	224.08
388.15	224.06
388.53	224.02
388.91	224.00
389.29	223.96
389.66	223.95
390.04	223.91
390.42	223.91
390.79	223.90
391.17	223.87
391.55	223.74
391.92	223.72
392.30	223.71
392.68	223.67
393.05	223.65
393.43	223.64
393.81	223.64
394.18	223.62
394.56	223.63
394.94	223.65
395.31	223.64
395.69	223.68
396.06	223.70
396.44	223.72
396.82	223.73
397.19	223.79
397.57	223.81
397.95	223.84
398.32	223.84
398.70	223.88
399.07	223.93
399.45	223.97
399.82	224.02
400.20	224.06
400.58	224.13
400.95	224.14
401.33	224.22
401.70	224.35
402.08	224.44
402.45	224.52
402.83	224.63
403.20	224.74
403.58	224.81
403.95	224.94
404.33	225.06
404.71	225.20
405.08	225.38
405.46	225.52
405.83	225.69
406.21	225.85
406.58	226.04
406.96	226.24
407.33	226.46
407.70	226.70
408.08	227.03
408.45	227.31
408.83	227.63
409.20	227.91
409.58	228.16
409.95	228.51
410.33	228.88
410.70	229.23
411.08	229.65
411.45	230.09
411.82	230.53
412.20	231.05
412.57	231.65
412.95	232.12
413.32	232.74
413.69	233.38
414.07	234.06
414.44	234.79
414.82	235.54
415.19	236.42
415.56	237.30
415.94	238.23
416.31	239.27
416.68	240.31
417.06	241.52
417.43	242.66
417.81	243.96
418.18	245.29
418.55	246.75
418.93	248.26
419.30	249.84
419.67	251.51
420.04	253.25
420.42	255.05
420.79	257.15
421.16	259.26
421.54	261.40
421.91	263.64
422.28	265.97
422.66	268.49
423.03	270.88
423.40	273.41
423.77	276.10
424.15	278.88
424.52	281.77
424.89	284.88
425.26	287.98
425.64	290.87
426.01	294.11
426.38	297.43
426.75	300.85
427.13	304.38
427.50	308.06
427.87	311.88
428.24	315.75
428.61	319.46
428.99	323.45
429.36	327.82
429.73	332.01
430.10	336.18
430.47	340.43
430.85	344.83
431.22	349.51
431.59	354.31
431.96	358.99
432.33	364.21
432.70	369.17
433.08	375.01
433.45	380.50
433.82	385.93
434.19	391.99
434.56	397.95
434.93	403.69
435.30	409.38
435.68	415.76
436.05	421.99
436.42	428.22
436.79	433.90
437.16	440.06
437.53	446.65
437.90	453.23
438.27	459.65
438.64	466.59
439.01	472.86
439.38	478.61
439.75	484.13
440.13	490.37
440.50	496.30
440.87	500.99
441.24	506.16
441.61	511.79
441.98	515.91
442.35	520.83
442.72	525.88
443.09	530.65
443.46	533.68
443.83	535.95
444.20	537.83
444.57	540.58
444.94	542.16
445.31	543.80
445.68	545.24
446.05	546.26
446.42	546.03
446.79	545.72
447.16	545.42
447.53	545.17
447.90	543.27
448.27	541.48
448.64	538.69
449.01	536.84
449.37	532.91
449.74	529.33
450.11	524.71
450.48	519.64
450.85	514.54
451.22	510.22
451.59	505.92
451.96	502.05
452.33	496.42
452.70	491.39
453.07	485.27
453.43	479.14
453.80	473.22
454.17	467.49
454.54	462.16
454.91	456.18
455.28	450.56
455.65	445.25
456.02	439.61
456.38	435.07
456.75	429.18
457.12	424.48
457.49	419.72
457.86	415.18
458.23	411.20
458.59	406.81
458.96	402.31
459.33	398.38
459.70	394.38
460.07	391.36
460.43	387.79
460.80	384.42
461.17	381.48
461.54	378.31
461.91	375.32
462.27	372.31
462.64	369.85
463.01	367.00
463.38	364.15
463.74	361.55
464.11	359.25
464.48	357.18
464.85	354.93
465.21	353.18
465.58	351.27
465.95	349.06
466.32	347.30
466.68	345.59
467.05	343.84
467.42	342.15
467.78	340.32
468.15	338.64
468.52	337.40
468.88	335.76
469.25	334.25
469.62	333.07
469.98	331.78
470.35	330.64
470.72	329.62
471.08	328.57
471.45	327.71
471.82	326.72
472.18	325.70
472.55	325.06
472.92	324.28
473.28	323.65
473.65	323.01
474.02	322.41
474.38	321.90
474.75	321.63
475.11	321.22
475.48	321.05
475.85	320.88
476.21	320.83
476.58	320.83
476.94	321.04
477.31	321.16
477.67	321.29
478.04	321.54
478.41	321.86
478.77	322.32
479.14	322.63
479.50	323.21
479.87	323.90
480.23	324.59
480.60	325.27
480.96	325.99
481.33	326.97
481.69	327.93
482.06	328.90
482.42	329.83
482.79	330.95
483.15	332.23
483.52	333.67
483.88	335.06
484.25	336.54
484.61	338.08
484.98	339.71
485.34	341.55
485.71	343.46
486.07	345.50
486.44	347.55
486.80	349.80
487.17	352.09
487.53	354.62
487.90	357.25
488.26	360.05
488.62	363.04
488.99	366.07
489.35	369.23
489.72	372.64
490.08	376.20
490.44	379.85
490.81	383.68
491.17	387.61
491.54	391.79
491.90	396.04
492.26	400.61
492.63	405.42
492.99	410.43
493.36	415.61
493.72	421.08
494.08	426.68
494.45	432.60
494.81	438.75
495.17	444.99
495.54	451.61
495.90	458.58
496.26	465.67
496.63	472.93
496.99	480.51
497.35	488.37
497.72	496.57
498.08	504.95
498.44	513.57
498.80	522.71
499.17	532.14
499.53	541.90
499.89	551.90
500.26	562.09
500.62	572.51
500.98	583.56
501.34	594.77
501.71	606.47
502.07	618.38
502.43	630.72
502.79	643.48
503.16	656.61
503.52	669.84
503.88	683.54
504.24	697.66
504.60	711.96
504.97	726.72
505.33	741.79
505.69	757.61
506.05	773.74
506.41	790.02
506.78	806.54
507.14	823.65
507.50	841.08
507.86	858.88
508.22	876.95
508.59	895.11
508.95	913.82
509.31	933.04
509.67	953.04
510.03	973.20
510.39	993.44
510.75	1013.85
511.12	1034.61
511.48	1055.57
511.84	1076.85
512.20	1098.35
512.56	1120.74
512.92	1143.26
513.28	1165.70
513.64	1188.43
514.00	1211.54
514.37	1235.20
514.73	1258.82
515.09	1282.28
515.45	1305.97
515.81	1329.91
516.17	1353.96
516.53	1377.89
516.89	1401.62
517.25	1425.30
517.61	1449.15
517.97	1473.32
518.33	1497.54
518.69	1521.94
519.05	1546.67
519.41	1571.27
519.77	1596.29
520.13	1620.54
520.49	1644.88
520.85	1669.15
521.21	1693.45
521.57	1718.24
521.93	1742.22
522.29	1766.66
522.65	1790.96
523.01	1815.30
523.37	1839.04
523.73	1863.37
524.09	1887.50
524.45	1911.75
524.81	1935.85
525.17	1959.43
525.53	1982.81
525.89	2006.04
526.25	2029.25
526.61	2051.08
526.97	2073.25
527.33	2095.21
527.68	2117.11
528.04	2138.60
528.40	2160.04
528.76	2181.13
529.12	2201.61
529.48	2222.77
529.84	2241.78
530.20	2261.35
530.56	2280.29
530.91	2299.91
531.27	2318.99
531.63	2337.31
531.99	2355.09
532.35	2372.43
532.71	2390.60
533.07	2409.07
533.42	2425.80
533.78	2443.04
534.14	2460.72
534.50	2477.56
534.86	2494.86
535.21	2510.25
535.57	2525.51
535.93	2540.25
536.29	2554.37
536.65	2568.04
537.00	2580.39
537.36	2593.81
537.72	2606.01
538.08	2618.27
538.44	2629.21
538.79	2639.54
539.15	2648.95
539.51	2658.41
539.87	2666.80
540.22	2672.70
540.58	2678.68
540.94	2685.44
541.29	2690.96
541.65	2696.25
542.01	2701.33
542.37	2704.35
542.72	2708.69
543.08	2712.25
543.44	2715.45
543.79	2718.00
544.15	2720.13
544.51	2721.82
544.87	2723.43
545.22	2724.49
545.58	2724.34
545.94	2724.17
546.29	2722.90
546.65	2721.95
547.01	2720.76
547.36	2720.07
547.72	2719.85
548.07	2718.32
548.43	2715.21
548.79	2711.90
549.14	2708.54
549.50	2705.35
549.86	2702.00
550.21	2697.53
550.57	2693.39
550.92	2688.02
551.28	2682.57
551.64	2676.99
551.99	2671.66
552.35	2665.15
552.70	2658.84
553.06	2653.35
553.41	2647.53
553.77	2641.52
554.13	2635.46
554.48	2628.05
554.84	2619.69
555.19	2611.17
555.55	2602.03
555.90	2594.09
556.26	2586.31
556.61	2577.71
556.97	2567.66
557.32	2557.81
557.68	2548.06
558.03	2537.84
558.39	2528.68
558.74	2520.30
559.10	2510.43
559.45	2500.36
559.81	2490.81
560.16	2480.72
560.52	2470.26
560.87	2460.04
561.23	2449.25
561.58	2438.86
561.94	2428.45
562.29	2417.66
562.64	2407.41
563.00	2397.37
563.35	2387.18
563.71	2376.19
564.06	2365.46
564.42	2354.99
564.77	2344.41
565.12	2333.68
565.48	2322.68
565.83	2311.18
566.19	2299.27
566.54	2288.08
566.89	2276.09
567.25	2264.07
567.60	2253.00
567.96	2241.43
568.31	2228.84
568.66	2216.65
569.02	2204.72
569.37	2193.26
569.72	2182.56
570.08	2170.75
570.43	2158.60
570.78	2146.23
571.14	2133.90
571.49	2121.21
571.84	2108.80
572.20	2095.54
572.55	2082.36
572.90	2069.64
573.26	2057.34
573.61	2044.18
573.96	2031.32
574.31	2018.90
574.67	2006.42
575.02	1992.92
575.37	1979.42
575.72	1966.36
576.08	1953.39
576.43	1939.84
576.78	1926.30
577.13	1912.42
577.49	1898.99
577.84	1885.67
578.19	1872.47
578.54	1858.89
578.90	1845.04
579.25	1831.03
579.60	1818.18
579.95	1805.49
580.30	1792.56
580.66	1779.10
581.01	1765.74
581.36	1752.00
581.71	1738.73
582.06	1725.66
582.42	1712.92
582.77	1700.14
583.12	1687.64
583.47	1675.51
583.82	1662.96
584.17	1649.61
584.53	1636.59
584.88	1623.75
585.23	1610.90
585.58	1597.98
585.93	1585.53
586.28	1573.68
586.63	1561.72
586.98	1549.26
587.34	1536.93
587.69	1524.05
588.04	1511.58
588.39	1499.57
588.74	1487.35
589.09	1475.49
589.44	1462.92
589.79	1450.52
590.14	1438.30
590.49	1426.04
590.84	1413.80
591.19	1402.24
591.54	1390.68
591.89	1378.88
592.25	1367.58
592.60	1355.94
592.95	1344.71
593.30	1333.35
593.65	1322.10
594.00	1310.97
594.35	1300.33
594.70	1288.93
595.05	1278.42
595.40	1267.63
595.75	1256.64
596.10	1246.39
596.45	1235.70
596.80	1225.72
597.15	1215.89
597.50	1205.95
597.85	1196.41
598.19	1186.85
598.54	1176.95
598.89	1167.70
599.24	1158.73
599.59	1149.69
599.94	1141.22
600.29	1132.43
600.64	1123.69
600.99	1114.31
601.34	1105.52
601.69	1096.53
602.04	1088.41
602.39	1079.91
602.74	1071.89
603.08	1064.12
603.43	1056.08
603.78	1048.03
604.13	1039.98
604.48	1031.78
604.83	1023.87
605.18	1015.78
605.53	1007.56
605.87	999.42
606.22	991.54
606.57	983.45
606.92	975.20
607.27	967.16
607.62	959.36
607.96	951.63
608.31	944.92
608.66	937.94
609.01	930.96
609.36	923.94
609.70	916.96
610.05	909.79
610.40	902.79
610.75	895.64
611.10	888.89
611.44	881.94
611.79	875.30
612.14	868.55
612.49	861.63
612.83	855.22
613.18	848.97
613.53	842.74
613.88	836.64
614.22	830.81
614.57	824.70
614.92	818.73
615.27	812.87
615.61	806.56
615.96	800.32
616.31	794.29
616.65	788.09
617.00	781.97
617.35	775.92
617.70	769.97
618.04	764.20
618.39	758.29
618.74	752.66
619.08	746.89
619.43	741.25
619.78	735.76
620.12	730.09
620.47	724.58
620.82	719.12
621.16	713.78
621.51	708.26
621.85	702.88
622.20	697.35
622.55	691.86
622.89	686.51
623.24	681.32
623.59	676.19
623.93	671.33
624.28	666.63
624.62	661.95
624.97	657.16
625.32	652.45
625.66	647.55
626.01	642.64
626.35	637.89
626.70	633.14
627.04	628.68
627.39	624.21
627.73	619.74
628.08	615.33
628.43	610.91
628.77	606.59
629.12	602.32
629.46	598.24
629.81	594.06
630.15	589.91
630.50	585.84
630.84	581.82
631.19	577.89
631.53	574.05
631.88	570.15
632.22	566.18
632.57	562.47
632.91	558.84
633.26	555.22
633.60	551.59
633.95	548.07
634.29	544.43
634.64	540.83
634.98	537.18
635.32	533.64
635.67	530.31
636.01	527.00
636.36	523.68
636.70	520.47
637.05	517.31
637.39	514.20
637.73	510.89
638.08	507.66
638.42	504.50
638.77	501.23
639.11	497.87
639.45	494.67
639.80	491.43
640.14	488.32
640.49	485.25
640.83	482.16
641.17	479.12
641.52	476.08
641.86	473.00
642.20	470.09
642.55	467.04
642.89	464.04
643.23	461.18
643.58	458.50
643.92	455.70
644.26	452.97
644.61	450.29
644.95	447.64
645.29	444.91
645.64	442.11
645.98	439.41
646.32	436.85
646.66	434.30
647.01	431.79
647.35	429.42
647.69	426.94
648.04	424.54
648.38	422.12
648.72	419.75
649.06	417.43
649.41	415.13
649.75	412.89
650.09	410.56
650.43	408.29
650.78	405.99
651.12	403.70
651.46	401.46
651.80	399.29
652.14	397.20
652.49	395.17
652.83	393.15
653.17	391.19
653.51	389.31
653.85	387.45
654.20	385.52
654.54	383.48
654.88	381.53
655.22	379.63
655.56	377.80
655.90	376.02
656.25	374.25
656.59	372.47
656.93	370.79
657.27	369.20
657.61	367.50
657.95	365.85
658.29	364.26
658.64	362.72
658.98	361.05
659.32	359.38
659.66	357.80
660.00	356.27
660.34	354.71
660.68	353.14
661.02	351.57
661.36	350.04
661.70	348.57
662.05	347.16
662.39	345.74
662.73	344.39
663.07	343.06
663.41	341.76
663.75	340.46
664.09	339.18
664.43	337.83
664.77	336.52
665.11	335.15
665.45	333.84
665.79	332.54
666.13	331.33
666.47	330.14
666.81	328.90
667.15	327.63
667.49	326.44
667.83	325.27
668.17	324.10
668.51	323.00
668.85	321.92
669.19	320.86
669.53	319.71
669.87	318.50
670.21	317.36
670.55	316.25
670.89	315.22
671.23	314.15
671.57	313.11
671.91	312.14
672.25	311.25
672.58	310.33
672.92	309.38
673.26	308.47
673.60	307.56
673.94	306.66
674.28	305.80
674.62	304.91
674.96	303.99
675.30	303.18
675.64	302.31
675.97	301.45
676.31	300.57
676.65	299.74
676.99	299.03
677.33	298.20
677.67	297.41
678.01	296.53
678.34	295.71
678.68	294.93
679.02	294.14
679.36	293.34
679.70	292.55
680.04	291.76
680.37	290.97
680.71	290.24
681.05	289.54
681.39	288.81
681.73	288.08
682.06	287.38
682.40	286.66
682.74	285.98
683.08	285.33
683.42	284.64
683.75	284.01
684.09	283.29
684.43	282.65
684.77	281.99
685.10	281.37
685.44	280.74
685.78	280.12
686.12	279.51
686.45	278.90
686.79	278.26
687.13	277.66
687.46	277.04
687.80	276.43
688.14	275.79
688.48	275.21
688.81	274.62
689.15	274.07
689.49	273.47
689.82	272.89
690.16	272.23
690.50	271.65
690.83	271.07
691.17	270.49
691.51	269.93
691.84	269.39
692.18	268.84
692.52	268.28
692.85	267.74
693.19	267.24
693.52	266.71
693.86	266.21
694.20	265.70
694.53	265.20
694.87	264.70
695.21	264.20
695.54	263.69
695.88	263.17
696.21	262.64
696.55	262.17
696.88	261.69
697.22	261.24
697.56	260.81
697.89	260.34
698.23	259.91
698.56	259.46
698.90	259.04
699.23	258.61
699.57	258.21
699.90	257.79
700.24	257.35
700.58	256.95
700.91	256.57
701.25	256.25
701.58	255.91
701.92	255.54
702.25	255.17
702.59	254.78
702.92	254.43
703.26	254.06
703.59	253.69
703.93	253.41
704.26	253.06
704.60	252.69
704.93	252.33
705.26	251.95
705.60	251.63
705.93	251.26
706.27	250.97
706.60	250.66
706.94	250.37
707.27	250.02
707.61	249.68
707.94	249.34
708.27	248.93
708.61	248.56
708.94	248.23
709.28	247.93
709.61	247.63
709.94	247.34
710.28	247.08
710.61	246.81
710.95	246.45
711.28	246.25
711.61	245.97
711.95	245.74
712.28	245.47
712.61	245.19
712.95	244.99
713.28	244.75
713.61	244.46
713.95	244.17
714.28	243.92
714.61	243.67
714.95	243.43
715.28	243.19
715.61	242.95
715.95	242.75
716.28	242.51
716.61	242.31
716.95	242.09
717.28	241.87
717.61	241.64
717.94	241.44
718.28	241.15
718.61	240.95
718.94	240.73
719.27	240.53
719.61	240.34
719.94	240.12
720.27	239.88
720.60	239.70
720.94	239.51
721.27	239.32
721.60	239.17
721.93	238.99
722.27	238.85
722.60	238.68
722.93	238.47
723.26	238.30
723.59	238.10
723.93	237.95
724.26	237.78
724.59	237.62
724.92	237.45
725.25	237.32
725.59	237.16
725.92	237.02
726.25	236.88
726.58	236.73
726.91	236.58
727.24	236.45
727.57	236.31
727.91	236.15
728.24	236.03
728.57	235.87
728.90	235.74
729.23	235.57
729.56	235.49
729.89	235.35
730.22	235.21
730.55	235.08
730.89	234.95
731.22	234.82
731.55	234.69
731.88	234.57
732.21	234.42
732.54	234.30
732.87	234.17
733.20	234.07
733.53	233.95
733.86	233.85
734.19	233.72
734.52	233.63
734.85	233.60
735.18	233.49
735.51	233.43
735.84	233.33
736.17	233.25
736.50	233.10
736.83	233.13
737.16	233.04
737.49	232.95
737.82	232.84
738.15	232.75
738.48	232.67
738.81	232.57
739.14	232.47
739.47	232.38
739.80	232.28
740.13	232.19
740.46	232.09
740.79	231.98
741.12	231.88
741.45	231.77
741.78	231.61
742.11	231.54
742.44	231.41
742.77	231.34
743.10	231.24
743.43	231.14
743.75	230.94
744.08	231.01
744.41	230.93
744.74	230.85
745.07	230.75
745.40	230.68
745.73	230.65
746.06	230.59
746.39	230.53
746.71	230.46
747.04	230.37
747.37	230.30
747.70	230.26
748.03	230.20
748.36	230.16
748.68	230.08
749.01	229.98
749.34	229.92
749.67	229.86
750.00	229.80
750.33	229.83
750.65	229.79
750.98	229.58
751.31	229.51
751.64	229.45
751.97	229.45
752.29	229.38
752.62	229.27
752.95	229.19
753.28	229.12
753.60	229.05
753.93	229.01
754.26	228.96
754.59	228.87
754.91	228.80
755.24	228.73
755.57	228.72
755.90	228.67
756.22	228.60
756.55	228.53
756.88	228.46
757.20	228.33
757.53	228.23
757.86	228.18
758.19	228.14
758.51	228.08
758.84	227.98
759.17	227.92
759.49	227.87
759.82	227.87
760.15	227.84
760.47	227.79
760.80	227.72
761.13	227.69
761.45	227.65
761.78	227.60
762.11	227.56
762.43	227.47
762.76	227.41
763.08	227.38
763.41	227.34
763.74	227.30
764.06	227.25
764.39	227.22
764.71	227.18
765.04	227.13
765.37	227.08
765.69	227.04
766.02	227.01
766.34	226.96
766.67	226.88
767.00	226.86
767.32	226.87
767.65	226.91
767.97	226.86
768.30	226.82
768.62	226.79
768.95	226.73
769.27	226.70
769.60	226.69
769.92	226.64
770.25	226.60
770.57	226.54
770.90	226.51
771.22	226.47
771.55	226.43
771.87	226.40
772.20	226.37
772.52	226.43
772.85	226.51
773.17	226.48
773.50	226.45
773.82	226.40
774.15	226.32
774.47	226.21
774.80	226.17
775.12	226.15
775.45	226.11
775.77	226.09
776.09	226.07
776.42	226.04
776.74	226.04
777.07	226.01
777.39	225.99
777.72	225.96
778.04	225.94
778.36	225.91
778.69	225.88
779.01	225.87
779.33	225.75
779.66	225.61
779.98	225.59
780.31	225.56
780.63	225.58
780.95	225.58
781.28	225.56
781.60	225.53
781.92	225.50
782.25	225.49
782.57	225.47
782.89	225.44
783.22	225.42
783.54	225.37
783.86	225.36
784.19	225.34
784.51	225.36
784.83	225.33
785.16	225.31
785.48	225.30
785.80	225.28
786.12	225.26
786.45	225.24
786.77	225.23
787.09	225.21
787.42	225.16
787.74	225.15
788.06	225.14
788.38	225.13
788.71	225.10
789.03	225.10
789.35	225.09
789.67	225.06
789.99	225.04
790.32	225.03
790.64	225.01
790.96	225.09
791.28	225.02
791.61	225.00
791.93	224.99
792.25	224.97
792.57	225.02
792.89	225.00
793.21	224.99
793.54	224.97
793.86	224.93
794.18	224.92
794.50	224.89
794.82	224.86
795.14	224.86
795.47	224.86
795.79	224.85
796.11	224.81
796.43	224.80
796.75	224.79
797.07	224.78
797.39	224.77
797.71	224.67
798.04	224.66
798.36	224.66
798.68	224.65
799.00	224.65
799.32	224.59
799.64	224.59
799.96	224.58
800.28	224.59
800.60	224.59
800.92	224.59
801.24	224.57
801.56	224.57
801.89	224.55
802.21	224.54
802.53	224.52
802.85	224.54
803.17	224.57
803.49	224.54
803.81	224.53
804.13	224.51
804.45	224.49
804.77	224.49
805.09	224.48
805.41	224.46
805.73	224.44
806.05	224.40
806.37	224.39
806.69	224.37
807.01	224.34
807.33	224.34
807.65	224.30
807.97	224.34
808.28	224.32
808.60	224.31
808.92	224.29
809.24	224.35
809.56	224.32
809.88	224.28
810.20	224.28
810.52	224.29
810.84	224.28
811.16	224.27
811.48	224.24
811.80	224.26
812.12	224.26
812.43	224.26
812.75	224.27
813.07	224.25
813.39	224.25
813.71	224.23
814.03	224.21
814.35	224.22
814.67	224.17
814.98	224.16
815.30	224.15
815.62	224.13
815.94	224.05
816.26	224.05
816.58	224.04
816.89	224.04
817.21	224.00
817.53	224.00
817.85	224.00
818.17	224.00
818.48	223.96
818.80	223.99
819.12	223.97
819.44	223.94
819.76	223.93
820.07	223.93
820.39	223.92
820.71	223.92
821.03	223.91
821.34	223.88
821.66	223.90
821.98	223.90
822.30	223.90
822.61	223.94
822.93	223.92
823.25	223.91
823.57	223.89
823.88	223.91
824.20	223.91
824.52	223.92
824.83	223.92
825.15	223.91
825.47	223.90
825.79	223.90
826.10	223.89
826.42	223.89
826.74	223.89
827.05	223.89
827.37	223.89
827.69	223.89
828.00	223.90
828.32	223.89
828.64	223.87
828.95	223.93
829.27	223.90
829.58	223.91
829.90	223.93
830.22	223.93
830.53	223.91
830.85	223.89
831.17	223.86
831.48	223.86
831.80	223.86
832.11	223.84
832.43	223.82
832.75	223.83
833.06	223.88
833.38	223.86
833.69	223.85
834.01	223.86
834.32	223.86
834.64	223.85
834.96	223.84
835.27	223.84
835.59	223.80
835.90	223.79
836.22	223.77
836.53	223.75
836.85	223.73
837.16	223.83
837.48	223.82
837.79	223.85
838.11	223.85
838.42	223.85
838.74	223.86
839.05	223.85
839.37	223.85
839.68	223.78
840.00	223.77
840.31	223.78
840.63	223.76
840.94	223.75
841.26	223.73
841.57	223.74
841.88	223.74
842.20	223.72
842.51	223.71
842.83	223.71
843.14	223.81
843.46	223.81
843.77	223.76
844.08	223.76
844.40	223.72
844.71	223.72
845.03	223.71
845.34	223.71
845.65	223.70
845.97	223.70
846.28	223.70
846.60	223.72
846.91	223.70
847.22	223.70
847.54	223.72
847.85	223.73
848.16	223.72
848.48	223.70
848.79	223.74
849.10	223.75
849.42	223.75
849.73	223.65
850.04	223.64
850.36	223.60
850.67	223.61
850.98	223.61
851.30	223.62
851.61	223.61
851.92	223.60
852.23	223.64
852.55	223.64
852.86	223.65
853.17	223.64
853.49	223.67
853.80	223.69
854.11	223.69
854.42	223.72
854.74	223.70
855.05	223.70
855.36	223.65
855.67	223.65
855.99	223.64
856.30	223.77
856.61	223.76
856.92	223.76
857.23	223.77
857.55	223.76
857.86	223.73
858.17	223.75
858.48	223.72
858.79	223.69
859.11	223.70
859.42	223.68
859.73	223.67
860.04	223.66
860.35	223.62
860.66	223.58
860.98	223.57
861.29	223.58
861.60	223.57
861.91	223.59
862.22	223.58
862.53	223.56
862.84	223.43
863.16	223.46
863.47	223.44
863.78	223.42
864.09	223.43
864.40	223.45
864.71	223.44
865.02	223.46
865.33	223.46
865.64	223.43
865.95	223.43
866.27	223.49
866.58	223.48
866.89	223.50
867.20	223.50
867.51	223.49
867.82	223.48
868.13	223.51
868.44	223.50
868.75	223.51
869.06	223.52
869.37	223.53
869.68	223.51
869.99	223.52
870.30	223.53
870.61	223.53
870.92	223.51
871.23	223.50
871.54	223.52
871.85	223.54
872.16	223.56
872.47	223.56
872.78	223.51
873.09	223.53
873.40	223.51
873.71	223.51
874.02	223.52
874.33	223.51
874.64	223.48
874.95	223.49
875.26	223.47
875.56	223.47
875.87	223.47
876.18	223.46
876.49	223.56
876.80	223.55
877.11	223.53
877.42	223.54
877.73	223.56
878.04	223.53
878.35	223.53
878.66	223.52
878.96	223.52
879.27	223.51
879.58	223.50
879.89	223.50
880.20	223.53
880.51	223.52
880.82	223.52
881.12	223.53
881.43	223.51
881.74	223.49
882.05	223.49
882.36	223.49
882.67	223.50
882.97	223.39
883.28	223.38
883.59	223.37
883.90	223.38
884.21	223.38
884.51	223.38
884.82	223.36
885.13	223.37
885.44	223.36
885.74	223.37
886.05	223.36
886.36	223.36
886.67	223.32
886.98	223.37
887.28	223.38
887.59	223.37
887.90	223.38
888.20	223.38
888.51	223.40
888.82	223.38
889.13	223.39
889.43	223.48
889.74	223.47
890.05	223.48
890.35	223.47
890.66	223.45
890.97	223.44
891.28	223.44
891.58	223.44
891.89	223.44
892.20	223.43
892.50	223.42
892.81	223.42
893.12	223.43
893.42	223.38
893.73	223.39
894.04	223.38
894.34	223.40
894.65	223.41
894.95	223.39
895.26	223.39
895.57	223.43
895.87	223.33
896.18	223.36
896.48	223.36
896.79	223.36
897.10	223.39
897.40	223.39
897.71	223.40
898.01	223.38
898.32	223.39
898.63	223.39
898.93	223.39
899.24	223.39
899.54	223.39
899.85	223.38
900.15	223.37
900.46	223.38
900.76	223.37
901.07	223.37
901.38	223.37
901.68	223.38
901.99	223.32
902.29	223.33
902.60	223.32
902.90	223.31
903.21	223.31
903.51	223.30
903.82	223.32
904.12	223.32
904.43	223.32
904.73	223.31
905.03	223.32
905.34	223.42
905.64	223.42
905.95	223.42
906.25	223.42
906.56	223.42
906.86	223.42
907.17	223.41
907.47	223.41
907.77	223.40
908.08	223.38
908.38	223.38
908.69	223.39
908.99	223.40
909.30	223.41
909.60	223.41
909.90	223.41
910.21	223.38
910.51	223.36
910.81	223.36
911.12	223.36
911.42	223.37
911.73	223.26
912.03	223.26
912.33	223.28
912.64	223.26
912.94	223.26
913.24	223.24
913.55	223.23
913.85	223.21
914.15	223.24
914.46	223.25
914.76	223.24
915.06	223.23
915.37	223.21
915.67	223.20
915.97	223.20
916.27	223.17
916.58	223.18
916.88	223.19
917.18	223.18
917.49	223.24
917.79	223.23
918.09	223.25
918.39	223.27
918.70	223.26
919.00	223.28
919.30	223.32
919.60	223.32
919.91	223.31
920.21	223.31
920.51	223.28
920.81	223.27
921.12	223.29
921.42	223.29
921.72	223.30
922.02	223.31
922.32	223.32
922.63	223.32
922.93	223.38
923.23	223.38
923.53	223.38
923.83	223.31
924.13	223.33
924.44	223.32
924.74	223.34
925.04	223.36
925.34	223.35
925.64	223.30
925.94	223.30
926.24	223.36
926.55	223.36
926.85	223.38
927.15	223.38
927.45	223.36
927.75	223.36
928.05	223.35
928.35	223.35
928.65	223.35
928.95	223.37
929.26	223.31
929.56	223.33
929.86	223.35
930.16	223.35
930.46	223.33
930.76	223.33
931.06	223.29
931.36	223.25
931.66	223.27
931.96	223.30
932.26	223.30
932.56	223.26
932.86	223.26
933.16	223.26
933.46	223.25
933.76	223.25
934.06	223.27
934.36	223.31
934.66	223.30
934.96	223.28
935.26	223.28
935.56	223.29
935.86	223.26
936.16	223.23
936.46	223.21
936.76	223.21
937.06	223.19
937.36	223.19
937.66	223.19
937.96	223.18
938.26	223.15
938.56	223.14
938.86	223.14
939.16	223.17
939.46	223.18
939.76	223.18
940.06	223.18
940.35	223.16
940.65	223.11
940.95	223.11
941.25	223.09
941.55	223.08
941.85	223.07
942.15	223.09
942.45	223.11
942.75	223.11
943.04	223.12
943.34	223.14
943.64	223.13
943.94	223.12
944.24	223.12
944.54	223.14
944.84	223.13
945.13	223.11
945.43	223.09
945.73	223.08
946.03	223.08
946.33	223.06
946.62	223.06
946.92	223.06
947.22	223.07
947.52	223.07
947.82	223.08
948.11	223.08
948.41	223.06
948.71	223.04
949.01	223.05
949.31	223.04
949.60	223.03
949.90	223.04
950.20	223.03
950.50	223.02
950.79	223.01
951.09	223.03
951.39	223.04
951.69	223.02
951.98	223.04
952.28	223.04
952.58	223.03
952.87	223.04
953.17	223.05
953.47	223.03
953.76	223.03
954.06	223.01
954.36	222.99
954.66	222.99
954.95	223.02
955.25	223.02
955.55	223.03
955.84	223.02
956.14	223.03
956.44	223.05
956.73	223.04
957.03	223.05
957.32	223.05
957.62	223.04
957.92	223.06
958.21	223.06
958.51	223.18
958.81	223.20
959.10	223.21
959.40	223.23
959.69	223.25
959.99	223.26
960.29	223.27
960.58	223.28
960.88	223.32
961.17	223.30
961.47	223.32
961.76	223.31
962.06	223.33
962.36	223.31
962.65	223.31
962.95	223.32
963.24	223.30
963.54	223.30
963.83	223.31
964.13	223.31
964.42	223.30
964.72	223.21
965.01	223.21
965.31	223.20
965.60	223.17
965.90	223.23
966.19	223.22
966.49	223.22
966.78	223.21
967.08	223.19
967.37	223.19
967.67	223.16
967.96	223.18
968.26	223.17
968.55	223.19
968.85	223.18
969.14	223.17
969.43	223.18
969.73	223.18
970.02	223.17
970.32	223.16
970.61	223.14
970.91	223.12
971.20	223.10
971.49	223.10
971.79	223.11
972.08	223.04
972.38	223.05
972.67	223.04
972.96	223.06
973.26	223.04
973.55	223.07
973.85	223.06
974.14	223.05
974.43	223.05
974.73	223.04
975.02	223.02
975.31	223.03
975.61	223.02
975.90	223.00
976.19	223.00
976.49	222.99
976.78	222.99
977.07	222.99
977.37	223.00
977.66	223.01
977.95	223.00
978.24	223.01
978.54	223.02
978.83	223.01
979.12	223.00
979.42	223.00
979.71	222.98
980.00	222.99
980.29	222.99
980.59	222.98
980.88	223.01
981.17	223.00
981.46	223.00
981.76	223.00
982.05	223.04
982.34	223.04
982.63	223.05
982.93	223.05
983.22	223.08
983.51	223.08
983.80	223.08
984.09	223.09
984.39	223.08
984.68	223.07
984.97	223.08
985.26	223.08
985.55	223.09
985.85	223.06
986.14	223.07
986.43	223.09
986.72	223.08
987.01	223.05
987.30	223.05
987.59	223.05
987.89	223.05
988.18	223.02
988.47	223.01
988.76	223.00
989.05	222.99
989.34	222.97
989.63	222.99
989.92	222.98
990.22	222.97
990.51	222.96
990.80	222.95
991.09	222.95
991.38	222.96
991.67	222.95
991.96	222.95
992.25	222.95
992.54	222.93
992.83	222.93
993.12	222.93
993.41	222.95
993.70	222.99
993.99	223.01
994.28	223.03
994.58	223.05
994.87	223.03
995.16	223.03
995.45	223.03
995.74	222.99
996.03	223.00
996.32	223.02
996.61	223.05
996.90	223.05
997.19	223.05
997.48	223.06
997.77	223.04
998.06	223.07
998.34	223.06
998.63	223.05
998.92	223.05
999.21	223.08
999.50	223.07
999.79	223.04
1000.08	223.04
1000.37	223.03
1000.66	223.02
1000.95	223.06
1001.24	223.07
1001.53	223.07
1001.82	223.07
1002.11	223.05
1002.40	223.06
1002.68	223.08
1002.97	223.14
1003.26	223.13
1003.55	223.10
1003.84	223.12
1004.13	223.14
1004.42	223.14
1004.71	223.15
1004.99	223.15
1005.28	223.17
1005.57	223.16
1005.86	223.15
1006.15	223.14
1006.44	223.12
1006.72	223.14
1007.01	223.12
1007.30	223.12
1007.59	223.12
1007.88	223.13
1008.17	223.13
1008.45	223.11
1008.74	223.07
1009.03	223.03
1009.32	223.03
1009.60	223.03
1009.89	223.03
1010.18	222.98
1010.47	222.98
1010.76	222.97
1011.04	222.96
1011.33	222.95
1011.62	222.95
1011.91	222.96
1012.19	222.97
1012.48	222.98
1012.77	222.97
1013.05	223.01
1013.34	223.00
1013.63	222.99
1013.92	223.00
1014.20	223.00
1014.49	223.00
1014.78	223.01
1015.06	222.98
1015.35	222.98
1015.64	222.99
1015.92	223.01
1016.21	223.02
1016.50	223.02
1016.78	223.03
1017.07	223.04
1017.36	223.03
1017.64	223.02
1017.93	223.03
1018.22	223.02
1018.50	223.01
1018.79	223.01
1019.08	222.97
1019.36	222.99
1019.65	222.98
1019.93	223.01
1020.22	223.02
1020.51	223.08
1020.79	223.06
1021.08	223.04
1021.36	222.73
1021.65	223.03
1021.94	223.03
1022.22	223.12
1022.51	222.83
1022.79	223.59
1023.08	223.17
1023.36	224.25
1023.65	222.77
>>>>>End Processed Spectral Data<<<<<
