SpectraSuite Data File
++++++++++++++++++++++++++++++++++++
Date: Thu Oct 01 06:55:35 EDT 2015
User: lab3
Dark Spectrum Present: No
Reference Spectrum Present: No
Number of Sampled Component Spectra: 1
Spectrometers: USB2E7196
Integration Time (usec): 36000 (USB2E7196)
Spectra Averaged: 10000 (USB2E7196)
Boxcar Smoothing: 10 (USB2E7196)
Correct for Electrical Dark: No (USB2E7196)
Strobe/Lamp Enabled: No (USB2E7196)
Correct for Detector Non-linearity: No (USB2E7196)
Correct for Stray Light: No (USB2E7196)
Number of Pixels in Processed Spectrum: 2048
>>>>>Begin Processed Spectral Data<<<<<
339.09	0.00
339.48	210.40
339.86	211.85
340.24	213.26
340.63	214.68
341.01	217.58
341.39	217.38
341.78	218.74
342.16	219.92
342.54	220.40
342.93	208.98
343.31	219.54
343.69	220.08
344.07	220.54
344.46	220.97
344.84	221.35
345.22	221.59
345.60	221.85
345.99	222.04
346.37	222.17
346.75	222.28
347.13	222.35
347.52	222.42
347.90	222.50
348.28	222.54
348.66	222.59
349.05	222.59
349.43	222.64
349.81	222.70
350.19	222.75
350.57	222.82
350.96	222.90
351.34	222.99
351.72	223.08
352.10	223.19
352.48	223.26
352.87	223.32
353.25	223.38
353.63	223.44
354.01	223.51
354.39	223.58
354.77	223.66
355.15	223.76
355.54	223.81
355.92	223.85
356.30	223.92
356.68	224.06
357.06	224.14
357.44	224.19
357.82	224.25
358.20	224.36
358.58	224.42
358.97	224.49
359.35	224.57
359.73	224.64
360.11	224.70
360.49	224.76
360.87	224.80
361.25	224.86
361.63	224.94
362.01	224.99
362.39	225.02
362.77	225.07
363.15	225.09
363.53	225.13
363.91	225.17
364.29	225.19
364.67	225.11
365.05	225.13
365.43	225.16
365.81	225.19
366.19	225.20
366.57	225.25
366.95	225.25
367.33	225.23
367.71	225.22
368.09	225.24
368.47	225.23
368.85	225.22
369.23	225.23
369.61	225.18
369.99	225.20
370.37	225.19
370.75	225.25
371.13	225.22
371.51	225.18
371.89	225.15
372.27	225.12
372.65	225.10
373.03	225.06
373.41	225.02
373.78	224.97
374.16	224.87
374.54	224.79
374.92	224.75
375.30	224.70
375.68	224.63
376.06	224.59
376.44	224.54
376.82	224.49
377.19	224.43
377.57	224.38
377.95	224.30
378.33	224.23
378.71	224.09
379.09	224.04
379.47	224.01
379.84	223.94
380.22	223.88
380.60	223.81
380.98	223.76
381.36	223.71
381.73	223.65
382.11	223.62
382.49	223.58
382.87	223.52
383.25	223.47
383.62	223.54
384.00	223.48
384.38	223.43
384.76	223.41
385.13	223.40
385.51	223.36
385.89	223.31
386.27	223.27
386.64	223.25
387.02	223.21
387.40	223.16
387.78	223.13
388.15	223.10
388.53	223.07
388.91	223.05
389.29	223.01
389.66	223.00
390.04	222.97
390.42	222.96
390.79	222.94
391.17	222.92
391.55	222.79
391.92	222.78
392.30	222.78
392.68	222.75
393.05	222.73
393.43	222.73
393.81	222.73
394.18	222.71
394.56	222.71
394.94	222.73
395.31	222.73
395.69	222.77
396.06	222.79
396.44	222.82
396.82	222.83
397.19	222.91
397.57	222.92
397.95	222.96
398.32	222.96
398.70	223.00
399.07	223.06
399.45	223.10
399.82	223.14
400.20	223.18
400.58	223.23
400.95	223.25
401.33	223.33
401.70	223.47
402.08	223.56
402.45	223.64
402.83	223.75
403.20	223.85
403.58	223.93
403.95	224.06
404.33	224.19
404.71	224.32
405.08	224.50
405.46	224.64
405.83	224.80
406.21	224.98
406.58	225.17
406.96	225.36
407.33	225.58
407.70	225.82
408.08	226.16
408.45	226.44
408.83	226.76
409.20	227.04
409.58	227.30
409.95	227.65
410.33	228.03
410.70	228.38
411.08	228.81
411.45	229.26
411.82	229.71
412.20	230.23
412.57	230.84
412.95	231.33
413.32	231.95
413.69	232.60
414.07	233.29
414.44	234.03
414.82	234.80
415.19	235.69
415.56	236.60
415.94	237.53
416.31	238.59
416.68	239.65
417.06	240.87
417.43	242.02
417.81	243.35
418.18	244.71
418.55	246.19
418.93	247.72
419.30	249.33
419.67	251.04
420.04	252.80
420.42	254.63
420.79	256.76
421.16	258.90
421.54	261.08
421.91	263.35
422.28	265.72
422.66	268.27
423.03	270.69
423.40	273.24
423.77	275.98
424.15	278.77
424.52	281.67
424.89	284.82
425.26	287.95
425.64	290.86
426.01	294.12
426.38	297.46
426.75	300.90
427.13	304.41
427.50	308.08
427.87	311.89
428.24	315.74
428.61	319.42
428.99	323.38
429.36	327.74
429.73	331.90
430.10	336.05
430.47	340.28
430.85	344.62
431.22	349.26
431.59	354.01
431.96	358.64
432.33	363.77
432.70	368.62
433.08	374.37
433.45	379.80
433.82	385.14
434.19	391.10
434.56	396.96
434.93	402.61
435.30	408.20
435.68	414.49
436.05	420.64
436.42	426.80
436.79	432.41
437.16	438.46
437.53	444.94
437.90	451.43
438.27	457.76
438.64	464.65
439.01	470.88
439.38	476.59
439.75	482.10
440.13	488.39
440.50	494.40
440.87	499.13
441.24	504.34
441.61	510.09
441.98	514.32
442.35	519.36
442.72	524.52
443.09	529.48
443.46	532.71
443.83	535.12
444.20	537.19
444.57	540.17
444.94	542.00
445.31	543.88
445.68	545.57
446.05	546.89
446.42	546.85
446.79	546.71
447.16	546.62
447.53	546.57
447.90	544.85
448.27	543.23
448.64	540.60
449.01	538.90
449.37	535.06
449.74	531.57
450.11	527.06
450.48	522.05
450.85	517.02
451.22	512.75
451.59	508.57
451.96	504.77
452.33	499.15
452.70	494.15
453.07	488.03
453.43	481.89
453.80	475.94
454.17	470.22
454.54	464.92
454.91	458.91
455.28	453.25
455.65	447.90
456.02	442.20
456.38	437.61
456.75	431.68
457.12	426.89
457.49	422.06
457.86	417.44
458.23	413.40
458.59	408.92
458.96	404.31
459.33	400.24
459.70	396.10
460.07	392.94
460.43	389.22
460.80	385.74
461.17	382.67
461.54	379.35
461.91	376.26
462.27	373.10
462.64	370.53
463.01	367.58
463.38	364.61
463.74	361.93
464.11	359.53
464.48	357.36
464.85	355.04
465.21	353.27
465.58	351.31
465.95	349.05
466.32	347.25
466.68	345.48
467.05	343.72
467.42	342.01
467.78	340.17
468.15	338.47
468.52	337.20
468.88	335.55
469.25	334.04
469.62	332.84
469.98	331.53
470.35	330.37
470.72	329.33
471.08	328.27
471.45	327.40
471.82	326.43
472.18	325.42
472.55	324.77
472.92	323.96
473.28	323.34
473.65	322.69
474.02	322.08
474.38	321.57
474.75	321.30
475.11	320.88
475.48	320.73
475.85	320.57
476.21	320.53
476.58	320.54
476.94	320.74
477.31	320.86
477.67	321.03
478.04	321.30
478.41	321.64
478.77	322.11
479.14	322.46
479.50	323.02
479.87	323.73
480.23	324.43
480.60	325.11
480.96	325.81
481.33	326.78
481.69	327.76
482.06	328.72
482.42	329.63
482.79	330.72
483.15	331.97
483.52	333.37
483.88	334.72
484.25	336.15
484.61	337.65
484.98	339.26
485.34	341.05
485.71	342.92
486.07	344.92
486.44	346.90
486.80	349.10
487.17	351.36
487.53	353.84
487.90	356.42
488.26	359.21
488.62	362.16
488.99	365.11
489.35	368.19
489.72	371.52
490.08	375.02
490.44	378.62
490.81	382.38
491.17	386.23
491.54	390.35
491.90	394.57
492.26	399.12
492.63	403.91
492.99	408.88
493.36	413.97
493.72	419.33
494.08	424.83
494.45	430.65
494.81	436.67
495.17	442.83
495.54	449.33
495.90	456.14
496.26	463.09
496.63	470.27
496.99	477.76
497.35	485.60
497.72	493.75
498.08	502.05
498.44	510.62
498.80	519.75
499.17	529.11
499.53	538.80
499.89	548.72
500.26	558.81
500.62	569.18
500.98	580.24
501.34	591.45
501.71	603.21
502.07	615.18
502.43	627.54
502.79	640.26
503.16	653.37
503.52	666.69
503.88	680.38
504.24	694.50
504.60	708.90
504.97	723.69
505.33	738.86
505.69	754.96
506.05	771.25
506.41	787.53
506.78	804.13
507.14	821.21
507.50	838.89
507.86	856.95
508.22	875.31
508.59	893.68
508.95	912.77
509.31	932.29
509.67	952.52
510.03	972.96
510.39	993.61
510.75	1014.51
511.12	1035.70
511.48	1057.21
511.84	1078.81
512.20	1100.71
512.56	1123.74
512.92	1146.95
513.28	1169.89
513.64	1193.14
514.00	1216.80
514.37	1240.79
514.73	1264.80
515.09	1288.61
515.45	1312.87
515.81	1337.68
516.17	1362.53
516.53	1387.06
516.89	1411.65
517.25	1436.44
517.61	1461.42
517.97	1486.60
518.33	1511.47
518.69	1536.50
519.05	1561.79
519.41	1587.20
519.77	1612.87
520.13	1637.73
520.49	1662.78
520.85	1688.03
521.21	1713.19
521.57	1738.96
521.93	1764.00
522.29	1789.89
522.65	1815.48
523.01	1840.85
523.37	1865.47
523.73	1890.73
524.09	1916.16
524.45	1941.51
524.81	1966.35
525.17	1991.11
525.53	2015.42
525.89	2039.76
526.25	2064.29
526.61	2088.28
526.97	2112.56
527.33	2136.78
527.68	2160.84
528.04	2184.03
528.40	2207.07
528.76	2230.31
529.12	2252.46
529.48	2274.98
529.84	2295.63
530.20	2316.89
530.56	2337.79
530.91	2358.75
531.27	2379.22
531.63	2399.02
531.99	2418.28
532.35	2437.19
532.71	2456.18
533.07	2475.76
533.42	2493.83
533.78	2512.29
534.14	2530.71
534.50	2548.29
534.86	2566.47
535.21	2582.79
535.57	2599.06
535.93	2614.59
536.29	2628.89
536.65	2644.05
537.00	2658.09
537.36	2672.66
537.72	2686.14
538.08	2699.27
538.44	2711.26
538.79	2723.44
539.15	2733.98
539.51	2744.47
539.87	2754.62
540.22	2762.65
540.58	2770.75
540.94	2779.41
541.29	2786.53
541.65	2792.67
542.01	2798.28
542.37	2802.05
542.72	2807.76
543.08	2812.95
543.44	2817.97
543.79	2822.16
544.15	2825.48
544.51	2828.74
544.87	2831.15
545.22	2833.14
545.58	2834.19
545.94	2835.72
546.29	2835.75
546.65	2835.90
547.01	2836.09
547.36	2836.39
547.72	2836.83
548.07	2835.82
548.43	2834.16
548.79	2831.86
549.14	2829.60
549.50	2827.99
549.86	2825.49
550.21	2820.55
550.57	2816.02
550.92	2810.14
551.28	2804.86
551.64	2799.49
551.99	2794.53
552.35	2789.13
552.70	2783.31
553.06	2778.22
553.41	2772.65
553.77	2766.57
554.13	2761.17
554.48	2754.84
554.84	2746.85
555.19	2739.02
555.55	2730.63
555.90	2722.82
556.26	2716.03
556.61	2708.60
556.97	2698.97
557.32	2690.21
557.68	2681.92
558.03	2672.97
558.39	2664.70
558.74	2656.57
559.10	2647.22
559.45	2637.52
559.81	2628.17
560.16	2618.16
560.52	2607.68
560.87	2598.22
561.23	2588.36
561.58	2577.98
561.94	2567.37
562.29	2556.28
562.64	2545.84
563.00	2535.74
563.35	2525.50
563.71	2514.36
564.06	2502.65
564.42	2491.98
564.77	2480.95
565.12	2470.03
565.48	2458.84
565.83	2448.29
566.19	2437.78
566.54	2426.88
566.89	2415.09
567.25	2403.25
567.60	2392.25
567.96	2380.85
568.31	2368.02
568.66	2355.13
569.02	2343.29
569.37	2331.22
569.72	2319.66
570.08	2307.36
570.43	2294.56
570.78	2281.44
571.14	2268.10
571.49	2255.59
571.84	2243.37
572.20	2229.83
572.55	2216.71
572.90	2203.47
573.26	2189.33
573.61	2174.63
573.96	2160.23
574.31	2146.20
574.67	2132.35
575.02	2118.08
575.37	2103.38
575.72	2088.96
576.08	2075.16
576.43	2060.33
576.78	2045.57
577.13	2031.64
577.49	2017.72
577.84	2004.15
578.19	1989.76
578.54	1975.02
578.90	1959.77
579.25	1944.25
579.60	1930.16
579.95	1915.66
580.30	1901.21
580.66	1887.07
581.01	1872.54
581.36	1858.36
581.71	1844.73
582.06	1830.62
582.42	1816.59
582.77	1803.31
583.12	1789.68
583.47	1776.09
583.82	1762.62
584.17	1749.06
584.53	1735.32
584.88	1721.60
585.23	1707.52
585.58	1693.97
585.93	1680.87
586.28	1668.59
586.63	1656.11
586.98	1642.94
587.34	1630.00
587.69	1616.57
588.04	1603.37
588.39	1590.85
588.74	1577.86
589.09	1564.60
589.44	1551.32
589.79	1538.61
590.14	1525.75
590.49	1513.13
590.84	1500.36
591.19	1488.25
591.54	1475.59
591.89	1462.82
592.25	1450.40
592.60	1437.59
592.95	1425.34
593.30	1413.36
593.65	1401.15
594.00	1389.16
594.35	1377.97
594.70	1365.98
595.05	1355.07
595.40	1343.98
595.75	1332.30
596.10	1321.40
596.45	1310.71
596.80	1300.49
597.15	1290.06
597.50	1279.64
597.85	1269.39
598.19	1259.35
598.54	1248.71
598.89	1238.83
599.24	1229.27
599.59	1219.47
599.94	1210.67
600.29	1201.74
600.64	1192.59
600.99	1182.89
601.34	1173.64
601.69	1163.81
602.04	1155.04
602.39	1146.06
602.74	1137.36
603.08	1128.90
603.43	1119.95
603.78	1110.90
604.13	1101.99
604.48	1093.02
604.83	1084.31
605.18	1075.53
605.53	1066.66
605.87	1057.94
606.22	1049.47
606.57	1040.71
606.92	1032.07
607.27	1023.32
607.62	1014.65
607.96	1006.14
608.31	998.63
608.66	990.68
609.01	983.16
609.36	975.60
609.70	967.83
610.05	959.89
610.40	952.28
610.75	944.81
611.10	937.61
611.44	930.02
611.79	922.72
612.14	915.07
612.49	907.55
612.83	900.51
613.18	893.52
613.53	886.32
613.88	879.23
614.22	872.71
614.57	866.00
614.92	859.31
615.27	852.65
615.61	845.83
615.96	839.25
616.31	832.59
616.65	825.81
617.00	819.29
617.35	812.91
617.70	806.57
618.04	800.28
618.39	794.01
618.74	788.07
619.08	781.95
619.43	776.09
619.78	770.25
620.12	764.21
620.47	758.35
620.82	752.59
621.16	747.13
621.51	741.33
621.85	735.53
622.20	729.75
622.55	724.16
622.89	718.53
623.24	712.94
623.59	707.43
623.93	701.96
624.28	696.63
624.62	691.28
624.97	685.91
625.32	680.67
625.66	675.29
626.01	669.91
626.35	664.66
626.70	659.45
627.04	654.42
627.39	649.44
627.73	644.59
628.08	639.94
628.43	635.18
628.77	630.48
629.12	625.92
629.46	621.53
629.81	616.95
630.15	612.26
630.50	607.74
630.84	603.40
631.19	599.24
631.53	595.13
631.88	590.91
632.22	586.79
632.57	582.89
632.91	578.96
633.26	575.10
633.60	571.32
633.95	567.62
634.29	563.81
634.64	559.94
634.98	555.99
635.32	552.20
635.67	548.54
636.01	544.84
636.36	541.16
636.70	537.62
637.05	534.09
637.39	530.76
637.73	527.30
638.08	523.90
638.42	520.46
638.77	516.90
639.11	513.34
639.45	509.82
639.80	506.28
640.14	502.94
640.49	499.55
640.83	496.06
641.17	492.62
641.52	489.34
641.86	486.05
642.20	482.92
642.55	479.64
642.89	476.44
643.23	473.44
643.58	470.67
643.92	467.77
644.26	464.92
644.61	462.04
644.95	459.18
645.29	456.26
645.64	453.33
645.98	450.52
646.32	447.89
646.66	445.25
647.01	442.59
647.35	439.98
647.69	437.26
648.04	434.69
648.38	432.16
648.72	429.57
649.06	427.08
649.41	424.60
649.75	422.11
650.09	419.66
650.43	417.21
650.78	414.75
651.12	412.27
651.46	409.89
651.80	407.60
652.14	405.38
652.49	403.18
652.83	401.04
653.17	398.88
653.51	396.78
653.85	394.75
654.20	392.66
654.54	390.50
654.88	388.52
655.22	386.60
655.56	384.63
655.90	382.76
656.25	380.91
656.59	379.06
656.93	377.30
657.27	375.58
657.61	373.76
657.95	372.01
658.29	370.26
658.64	368.54
658.98	366.80
659.32	365.09
659.66	363.48
660.00	361.88
660.34	360.32
660.68	358.69
661.02	357.01
661.36	355.43
661.70	353.93
662.05	352.41
662.39	350.87
662.73	349.43
663.07	348.01
663.41	346.60
663.75	345.23
664.09	343.85
664.43	342.39
664.77	341.04
665.11	339.62
665.45	338.28
665.79	336.94
666.13	335.60
666.47	334.23
666.81	332.84
667.15	331.43
667.49	330.11
667.83	328.85
668.17	327.62
668.51	326.41
668.85	325.21
669.19	324.10
669.53	322.91
669.87	321.69
670.21	320.51
670.55	319.34
670.89	318.24
671.23	317.11
671.57	316.00
671.91	314.94
672.25	313.95
672.58	312.94
672.92	311.90
673.26	310.92
673.60	309.96
673.94	308.98
674.28	308.06
674.62	307.13
674.96	306.17
675.30	305.26
675.64	304.33
675.97	303.42
676.31	302.47
676.65	301.54
676.99	300.69
677.33	299.77
677.67	298.90
678.01	297.95
678.34	297.08
678.68	296.27
679.02	295.42
679.36	294.57
679.70	293.73
680.04	292.92
680.37	292.11
680.71	291.32
681.05	290.58
681.39	289.81
681.73	288.99
682.06	288.21
682.40	287.45
682.74	286.72
683.08	286.01
683.42	285.27
683.75	284.61
684.09	283.87
684.43	283.18
684.77	282.47
685.10	281.82
685.44	281.14
685.78	280.46
686.12	279.82
686.45	279.16
686.79	278.49
687.13	277.86
687.46	277.20
687.80	276.56
688.14	275.88
688.48	275.26
688.81	274.64
689.15	274.07
689.49	273.45
689.82	272.86
690.16	272.21
690.50	271.62
690.83	271.03
691.17	270.46
691.51	269.90
691.84	269.36
692.18	268.79
692.52	268.20
692.85	267.63
693.19	267.11
693.52	266.58
693.86	266.05
694.20	265.52
694.53	265.02
694.87	264.51
695.21	264.02
695.54	263.53
695.88	263.02
696.21	262.49
696.55	262.01
696.88	261.52
697.22	261.05
697.56	260.58
697.89	260.06
698.23	259.57
698.56	259.07
698.90	258.62
699.23	258.15
699.57	257.72
699.90	257.28
700.24	256.82
700.58	256.39
700.91	255.99
701.25	255.66
701.58	255.30
701.92	254.92
702.25	254.53
702.59	254.12
702.92	253.74
703.26	253.36
703.59	252.98
703.93	252.68
704.26	252.33
704.60	251.96
704.93	251.61
705.26	251.26
705.60	250.95
705.93	250.59
706.27	250.29
706.60	249.98
706.94	249.68
707.27	249.31
707.61	248.97
707.94	248.62
708.27	248.20
708.61	247.84
708.94	247.49
709.28	247.17
709.61	246.86
709.94	246.57
710.28	246.28
710.61	246.01
710.95	245.64
711.28	245.43
711.61	245.16
711.95	244.91
712.28	244.63
712.61	244.35
712.95	244.14
713.28	243.93
713.61	243.66
713.95	243.38
714.28	243.16
714.61	242.90
714.95	242.67
715.28	242.42
715.61	242.19
715.95	241.97
716.28	241.74
716.61	241.53
716.95	241.30
717.28	241.08
717.61	240.85
717.94	240.63
718.28	240.35
718.61	240.13
718.94	239.91
719.27	239.71
719.61	239.52
719.94	239.29
720.27	239.04
720.60	238.84
720.94	238.65
721.27	238.47
721.60	238.31
721.93	238.12
722.27	237.98
722.60	237.82
722.93	237.63
723.26	237.47
723.59	237.28
723.93	237.12
724.26	236.96
724.59	236.80
724.92	236.65
725.25	236.52
725.59	236.37
725.92	236.23
726.25	236.08
726.58	235.93
726.91	235.77
727.24	235.64
727.57	235.50
727.91	235.34
728.24	235.21
728.57	235.05
728.90	234.93
729.23	234.76
729.56	234.66
729.89	234.53
730.22	234.39
730.55	234.25
730.89	234.12
731.22	233.98
731.55	233.85
731.88	233.72
732.21	233.58
732.54	233.45
732.87	233.33
733.20	233.22
733.53	233.11
733.86	233.00
734.19	232.87
734.52	232.78
734.85	232.74
735.18	232.61
735.51	232.54
735.84	232.43
736.17	232.35
736.50	232.19
736.83	232.21
737.16	232.12
737.49	232.03
737.82	231.93
738.15	231.85
738.48	231.76
738.81	231.66
739.14	231.56
739.47	231.46
739.80	231.36
740.13	231.27
740.46	231.16
740.79	231.05
741.12	230.96
741.45	230.85
741.78	230.71
742.11	230.65
742.44	230.54
742.77	230.47
743.10	230.37
743.43	230.28
743.75	230.08
744.08	230.16
744.41	230.07
744.74	229.98
745.07	229.88
745.40	229.82
745.73	229.78
746.06	229.71
746.39	229.66
746.71	229.57
747.04	229.49
747.37	229.42
747.70	229.37
748.03	229.30
748.36	229.25
748.68	229.18
749.01	229.08
749.34	229.01
749.67	228.95
750.00	228.90
750.33	228.91
750.65	228.86
750.98	228.64
751.31	228.58
751.64	228.52
751.97	228.51
752.29	228.44
752.62	228.33
752.95	228.26
753.28	228.18
753.60	228.12
753.93	228.08
754.26	228.02
754.59	227.93
754.91	227.86
755.24	227.78
755.57	227.77
755.90	227.70
756.22	227.64
756.55	227.56
756.88	227.48
757.20	227.35
757.53	227.27
757.86	227.21
758.19	227.17
758.51	227.11
758.84	227.00
759.17	226.94
759.49	226.90
759.82	226.90
760.15	226.86
760.47	226.81
760.80	226.74
761.13	226.71
761.45	226.66
761.78	226.62
762.11	226.57
762.43	226.47
762.76	226.43
763.08	226.40
763.41	226.36
763.74	226.33
764.06	226.28
764.39	226.25
764.71	226.20
765.04	226.15
765.37	226.10
765.69	226.06
766.02	226.02
766.34	225.97
766.67	225.89
767.00	225.87
767.32	225.89
767.65	225.91
767.97	225.86
768.30	225.83
768.62	225.79
768.95	225.74
769.27	225.71
769.60	225.68
769.92	225.63
770.25	225.58
770.57	225.53
770.90	225.49
771.22	225.45
771.55	225.42
771.87	225.39
772.20	225.36
772.52	225.42
772.85	225.51
773.17	225.49
773.50	225.45
773.82	225.40
774.15	225.32
774.47	225.22
774.80	225.18
775.12	225.14
775.45	225.11
775.77	225.10
776.09	225.08
776.42	225.05
776.74	225.06
777.07	225.03
777.39	225.01
777.72	224.98
778.04	224.97
778.36	224.93
778.69	224.91
779.01	224.89
779.33	224.78
779.66	224.63
779.98	224.60
780.31	224.58
780.63	224.60
780.95	224.60
781.28	224.58
781.60	224.56
781.92	224.54
782.25	224.52
782.57	224.49
782.89	224.46
783.22	224.43
783.54	224.39
783.86	224.38
784.19	224.36
784.51	224.37
784.83	224.34
785.16	224.32
785.48	224.30
785.80	224.28
786.12	224.28
786.45	224.26
786.77	224.26
787.09	224.23
787.42	224.18
787.74	224.16
788.06	224.15
788.38	224.13
788.71	224.11
789.03	224.10
789.35	224.10
789.67	224.07
789.99	224.07
790.32	224.04
790.64	224.03
790.96	224.11
791.28	224.06
791.61	224.04
791.93	224.03
792.25	224.01
792.57	224.07
792.89	224.04
793.21	224.03
793.54	224.01
793.86	223.98
794.18	223.98
794.50	223.94
794.82	223.93
795.14	223.94
795.47	223.94
795.79	223.93
796.11	223.89
796.43	223.88
796.75	223.86
797.07	223.86
797.39	223.84
797.71	223.74
798.04	223.74
798.36	223.73
798.68	223.71
799.00	223.71
799.32	223.65
799.64	223.66
799.96	223.64
800.28	223.65
800.60	223.64
800.92	223.63
801.24	223.61
801.56	223.61
801.89	223.59
802.21	223.58
802.53	223.55
802.85	223.57
803.17	223.61
803.49	223.57
803.81	223.56
804.13	223.54
804.45	223.52
804.77	223.52
805.09	223.51
805.41	223.50
805.73	223.48
806.05	223.43
806.37	223.42
806.69	223.40
807.01	223.38
807.33	223.38
807.65	223.34
807.97	223.38
808.28	223.35
808.60	223.35
808.92	223.33
809.24	223.38
809.56	223.36
809.88	223.31
810.20	223.31
810.52	223.32
810.84	223.30
811.16	223.29
811.48	223.27
811.80	223.30
812.12	223.29
812.43	223.30
812.75	223.30
813.07	223.29
813.39	223.29
813.71	223.27
814.03	223.25
814.35	223.26
814.67	223.21
814.98	223.20
815.30	223.19
815.62	223.17
815.94	223.09
816.26	223.10
816.58	223.07
816.89	223.07
817.21	223.04
817.53	223.05
817.85	223.05
818.17	223.05
818.48	223.00
818.80	223.01
819.12	222.99
819.44	222.97
819.76	222.95
820.07	222.95
820.39	222.94
820.71	222.95
821.03	222.94
821.34	222.93
821.66	222.94
821.98	222.95
822.30	222.94
822.61	223.00
822.93	222.98
823.25	222.98
823.57	222.96
823.88	222.97
824.20	222.96
824.52	222.98
824.83	222.97
825.15	222.96
825.47	222.94
825.79	222.95
826.10	222.94
826.42	222.94
826.74	222.94
827.05	222.94
827.37	222.93
827.69	222.92
828.00	222.93
828.32	222.92
828.64	222.90
828.95	222.96
829.27	222.93
829.58	222.92
829.90	222.94
830.22	222.94
830.53	222.92
830.85	222.91
831.17	222.88
831.48	222.87
831.80	222.88
832.11	222.87
832.43	222.85
832.75	222.85
833.06	222.91
833.38	222.88
833.69	222.88
834.01	222.88
834.32	222.87
834.64	222.86
834.96	222.85
835.27	222.85
835.59	222.81
835.90	222.79
836.22	222.79
836.53	222.76
836.85	222.75
837.16	222.86
837.48	222.85
837.79	222.89
838.11	222.89
838.42	222.88
838.74	222.89
839.05	222.88
839.37	222.88
839.68	222.81
840.00	222.80
840.31	222.81
840.63	222.80
840.94	222.79
841.26	222.77
841.57	222.77
841.88	222.78
842.20	222.76
842.51	222.74
842.83	222.73
843.14	222.83
843.46	222.82
843.77	222.75
844.08	222.75
844.40	222.71
844.71	222.70
845.03	222.69
845.34	222.68
845.65	222.67
845.97	222.67
846.28	222.67
846.60	222.68
846.91	222.66
847.22	222.66
847.54	222.68
847.85	222.68
848.16	222.67
848.48	222.65
848.79	222.69
849.10	222.70
849.42	222.70
849.73	222.60
850.04	222.60
850.36	222.56
850.67	222.58
850.98	222.58
851.30	222.59
851.61	222.59
851.92	222.59
852.23	222.62
852.55	222.63
852.86	222.63
853.17	222.64
853.49	222.66
853.80	222.68
854.11	222.68
854.42	222.69
854.74	222.68
855.05	222.69
855.36	222.63
855.67	222.63
855.99	222.64
856.30	222.76
856.61	222.76
856.92	222.76
857.23	222.76
857.55	222.75
857.86	222.74
858.17	222.75
858.48	222.74
858.79	222.71
859.11	222.71
859.42	222.71
859.73	222.69
860.04	222.68
860.35	222.65
860.66	222.62
860.98	222.62
861.29	222.63
861.60	222.62
861.91	222.64
862.22	222.63
862.53	222.62
862.84	222.49
863.16	222.51
863.47	222.50
863.78	222.48
864.09	222.49
864.40	222.50
864.71	222.50
865.02	222.51
865.33	222.50
865.64	222.48
865.95	222.48
866.27	222.55
866.58	222.54
866.89	222.55
867.20	222.55
867.51	222.53
867.82	222.53
868.13	222.56
868.44	222.54
868.75	222.56
869.06	222.56
869.37	222.58
869.68	222.55
869.99	222.57
870.30	222.58
870.61	222.59
870.92	222.57
871.23	222.56
871.54	222.57
871.85	222.60
872.16	222.61
872.47	222.60
872.78	222.55
873.09	222.56
873.40	222.55
873.71	222.56
874.02	222.57
874.33	222.55
874.64	222.53
874.95	222.55
875.26	222.52
875.56	222.52
875.87	222.51
876.18	222.51
876.49	222.61
876.80	222.59
877.11	222.57
877.42	222.57
877.73	222.57
878.04	222.56
878.35	222.55
878.66	222.55
878.96	222.55
879.27	222.54
879.58	222.53
879.89	222.53
880.20	222.55
880.51	222.55
880.82	222.55
881.12	222.56
881.43	222.54
881.74	222.52
882.05	222.52
882.36	222.53
882.67	222.53
882.97	222.42
883.28	222.41
883.59	222.42
883.90	222.42
884.21	222.44
884.51	222.43
884.82	222.41
885.13	222.41
885.44	222.41
885.74	222.41
886.05	222.40
886.36	222.40
886.67	222.36
886.98	222.41
887.28	222.42
887.59	222.41
887.90	222.42
888.20	222.42
888.51	222.43
888.82	222.41
889.13	222.42
889.43	222.51
889.74	222.50
890.05	222.51
890.35	222.49
890.66	222.48
890.97	222.47
891.28	222.46
891.58	222.47
891.89	222.47
892.20	222.45
892.50	222.45
892.81	222.44
893.12	222.44
893.42	222.38
893.73	222.39
894.04	222.39
894.34	222.39
894.65	222.39
894.95	222.38
895.26	222.39
895.57	222.43
895.87	222.32
896.18	222.34
896.48	222.34
896.79	222.34
897.10	222.36
897.40	222.36
897.71	222.37
898.01	222.36
898.32	222.37
898.63	222.37
898.93	222.38
899.24	222.38
899.54	222.37
899.85	222.37
900.15	222.36
900.46	222.35
900.76	222.36
901.07	222.36
901.38	222.34
901.68	222.36
901.99	222.30
902.29	222.31
902.60	222.30
902.90	222.29
903.21	222.29
903.51	222.28
903.82	222.30
904.12	222.30
904.43	222.31
904.73	222.30
905.03	222.31
905.34	222.40
905.64	222.39
905.95	222.40
906.25	222.40
906.56	222.39
906.86	222.40
907.17	222.38
907.47	222.39
907.77	222.39
908.08	222.36
908.38	222.37
908.69	222.38
908.99	222.40
909.30	222.41
909.60	222.41
909.90	222.41
910.21	222.38
910.51	222.36
910.81	222.36
911.12	222.37
911.42	222.37
911.73	222.26
912.03	222.27
912.33	222.29
912.64	222.28
912.94	222.27
913.24	222.26
913.55	222.25
913.85	222.25
914.15	222.27
914.46	222.28
914.76	222.28
915.06	222.27
915.37	222.25
915.67	222.24
915.97	222.24
916.27	222.21
916.58	222.22
916.88	222.22
917.18	222.21
917.49	222.28
917.79	222.27
918.09	222.29
918.39	222.32
918.70	222.31
919.00	222.32
919.30	222.36
919.60	222.36
919.91	222.35
920.21	222.35
920.51	222.33
920.81	222.32
921.12	222.34
921.42	222.33
921.72	222.34
922.02	222.35
922.32	222.36
922.63	222.36
922.93	222.42
923.23	222.42
923.53	222.41
923.83	222.34
924.13	222.35
924.44	222.34
924.74	222.36
925.04	222.38
925.34	222.38
925.64	222.33
925.94	222.33
926.24	222.39
926.55	222.38
926.85	222.39
927.15	222.39
927.45	222.38
927.75	222.38
928.05	222.38
928.35	222.37
928.65	222.39
928.95	222.40
929.26	222.34
929.56	222.36
929.86	222.38
930.16	222.37
930.46	222.36
930.76	222.36
931.06	222.31
931.36	222.28
931.66	222.30
931.96	222.31
932.26	222.32
932.56	222.27
932.86	222.28
933.16	222.28
933.46	222.27
933.76	222.26
934.06	222.28
934.36	222.31
934.66	222.31
934.96	222.29
935.26	222.29
935.56	222.31
935.86	222.28
936.16	222.26
936.46	222.26
936.76	222.25
937.06	222.24
937.36	222.24
937.66	222.25
937.96	222.24
938.26	222.22
938.56	222.21
938.86	222.21
939.16	222.23
939.46	222.24
939.76	222.24
940.06	222.24
940.35	222.22
940.65	222.17
940.95	222.18
941.25	222.16
941.55	222.15
941.85	222.14
942.15	222.16
942.45	222.19
942.75	222.18
943.04	222.19
943.34	222.20
943.64	222.19
943.94	222.18
944.24	222.18
944.54	222.19
944.84	222.19
945.13	222.18
945.43	222.15
945.73	222.15
946.03	222.14
946.33	222.13
946.62	222.12
946.92	222.12
947.22	222.13
947.52	222.14
947.82	222.15
948.11	222.14
948.41	222.11
948.71	222.09
949.01	222.09
949.31	222.08
949.60	222.08
949.90	222.10
950.20	222.09
950.50	222.09
950.79	222.08
951.09	222.09
951.39	222.08
951.69	222.08
951.98	222.10
952.28	222.10
952.58	222.10
952.87	222.10
953.17	222.12
953.47	222.10
953.76	222.10
954.06	222.08
954.36	222.07
954.66	222.07
954.95	222.10
955.25	222.11
955.55	222.11
955.84	222.10
956.14	222.10
956.44	222.11
956.73	222.10
957.03	222.11
957.32	222.11
957.62	222.10
957.92	222.12
958.21	222.11
958.51	222.22
958.81	222.24
959.10	222.25
959.40	222.27
959.69	222.27
959.99	222.29
960.29	222.29
960.58	222.29
960.88	222.33
961.17	222.31
961.47	222.32
961.76	222.31
962.06	222.33
962.36	222.31
962.65	222.31
962.95	222.33
963.24	222.31
963.54	222.31
963.83	222.32
964.13	222.32
964.42	222.31
964.72	222.22
965.01	222.22
965.31	222.21
965.60	222.18
965.90	222.25
966.19	222.22
966.49	222.23
966.78	222.23
967.08	222.22
967.37	222.22
967.67	222.20
967.96	222.22
968.26	222.21
968.55	222.23
968.85	222.22
969.14	222.21
969.43	222.21
969.73	222.21
970.02	222.20
970.32	222.19
970.61	222.18
970.91	222.15
971.20	222.14
971.49	222.13
971.79	222.14
972.08	222.06
972.38	222.08
972.67	222.07
972.96	222.08
973.26	222.06
973.55	222.09
973.85	222.09
974.14	222.08
974.43	222.09
974.73	222.07
975.02	222.06
975.31	222.06
975.61	222.06
975.90	222.05
976.19	222.04
976.49	222.06
976.78	222.06
977.07	222.06
977.37	222.07
977.66	222.08
977.95	222.07
978.24	222.08
978.54	222.10
978.83	222.09
979.12	222.09
979.42	222.09
979.71	222.07
980.00	222.06
980.29	222.07
980.59	222.05
980.88	222.07
981.17	222.08
981.46	222.08
981.76	222.07
982.05	222.11
982.34	222.11
982.63	222.11
982.93	222.11
983.22	222.13
983.51	222.13
983.80	222.15
984.09	222.16
984.39	222.15
984.68	222.13
984.97	222.14
985.26	222.13
985.55	222.14
985.85	222.12
986.14	222.13
986.43	222.14
986.72	222.14
987.01	222.10
987.30	222.10
987.59	222.10
987.89	222.10
988.18	222.07
988.47	222.06
988.76	222.05
989.05	222.04
989.34	222.03
989.63	222.05
989.92	222.04
990.22	222.02
990.51	222.02
990.80	222.01
991.09	222.02
991.38	222.03
991.67	222.02
991.96	222.02
992.25	222.02
992.54	222.00
992.83	222.01
993.12	222.00
993.41	222.02
993.70	222.06
993.99	222.08
994.28	222.10
994.58	222.12
994.87	222.11
995.16	222.11
995.45	222.10
995.74	222.06
996.03	222.08
996.32	222.10
996.61	222.11
996.90	222.12
997.19	222.11
997.48	222.11
997.77	222.10
998.06	222.10
998.34	222.09
998.63	222.10
998.92	222.10
999.21	222.12
999.50	222.12
999.79	222.08
1000.08	222.08
1000.37	222.08
1000.66	222.06
1000.95	222.09
1001.24	222.09
1001.53	222.11
1001.82	222.11
1002.11	222.08
1002.40	222.09
1002.68	222.11
1002.97	222.18
1003.26	222.18
1003.55	222.16
1003.84	222.17
1004.13	222.21
1004.42	222.21
1004.71	222.20
1004.99	222.20
1005.28	222.22
1005.57	222.21
1005.86	222.20
1006.15	222.19
1006.44	222.17
1006.72	222.19
1007.01	222.17
1007.30	222.17
1007.59	222.16
1007.88	222.16
1008.17	222.17
1008.45	222.14
1008.74	222.10
1009.03	222.05
1009.32	222.05
1009.60	222.06
1009.89	222.04
1010.18	222.00
1010.47	221.99
1010.76	221.99
1011.04	221.98
1011.33	221.98
1011.62	221.98
1011.91	221.99
1012.19	221.99
1012.48	222.00
1012.77	221.99
1013.05	222.03
1013.34	222.03
1013.63	222.02
1013.92	222.03
1014.20	222.03
1014.49	222.03
1014.78	222.04
1015.06	222.00
1015.35	222.01
1015.64	222.02
1015.92	222.04
1016.21	222.05
1016.50	222.05
1016.78	222.06
1017.07	222.07
1017.36	222.05
1017.64	222.03
1017.93	222.03
1018.22	222.02
1018.50	222.02
1018.79	222.02
1019.08	221.98
1019.36	221.98
1019.65	221.98
1019.93	222.00
1020.22	222.01
1020.51	222.06
1020.79	222.05
1021.08	221.81
1021.36	221.84
1021.65	222.09
1021.94	221.88
1022.22	222.04
1022.51	221.83
1022.79	222.48
1023.08	222.13
1023.36	223.20
1023.65	221.74
>>>>>End Processed Spectral Data<<<<<
