SpectraSuite Data File
++++++++++++++++++++++++++++++++++++
Date: Thu Oct 01 05:23:26 EDT 2015
User: lab3
Dark Spectrum Present: No
Reference Spectrum Present: No
Number of Sampled Component Spectra: 1
Spectrometers: USB2E7196
Integration Time (usec): 36000 (USB2E7196)
Spectra Averaged: 10000 (USB2E7196)
Boxcar Smoothing: 10 (USB2E7196)
Correct for Electrical Dark: No (USB2E7196)
Strobe/Lamp Enabled: No (USB2E7196)
Correct for Detector Non-linearity: No (USB2E7196)
Correct for Stray Light: No (USB2E7196)
Number of Pixels in Processed Spectrum: 2048
>>>>>Begin Processed Spectral Data<<<<<
339.09	0.00
339.48	209.75
339.86	211.20
340.24	212.57
340.63	213.99
341.01	216.93
341.39	216.63
341.78	218.01
342.16	219.20
342.54	219.73
342.93	208.29
343.31	218.82
343.69	219.35
344.07	219.81
344.46	220.24
344.84	220.63
345.22	220.86
345.60	221.12
345.99	221.31
346.37	221.44
346.75	221.55
347.13	221.62
347.52	221.69
347.90	221.77
348.28	221.80
348.66	221.86
349.05	221.86
349.43	221.91
349.81	221.97
350.19	222.03
350.57	222.09
350.96	222.18
351.34	222.27
351.72	222.36
352.10	222.47
352.48	222.54
352.87	222.59
353.25	222.66
353.63	222.72
354.01	222.78
354.39	222.86
354.77	222.93
355.15	223.03
355.54	223.09
355.92	223.12
356.30	223.20
356.68	223.34
357.06	223.41
357.44	223.47
357.82	223.53
358.20	223.65
358.58	223.70
358.97	223.77
359.35	223.85
359.73	223.93
360.11	223.98
360.49	224.04
360.87	224.09
361.25	224.16
361.63	224.24
362.01	224.29
362.39	224.33
362.77	224.38
363.15	224.41
363.53	224.45
363.91	224.48
364.29	224.51
364.67	224.43
365.05	224.45
365.43	224.49
365.81	224.51
366.19	224.53
366.57	224.58
366.95	224.58
367.33	224.55
367.71	224.55
368.09	224.57
368.47	224.57
368.85	224.56
369.23	224.57
369.61	224.52
369.99	224.53
370.37	224.52
370.75	224.58
371.13	224.55
371.51	224.51
371.89	224.49
372.27	224.46
372.65	224.45
373.03	224.41
373.41	224.36
373.78	224.31
374.16	224.22
374.54	224.14
374.92	224.09
375.30	224.05
375.68	223.98
376.06	223.93
376.44	223.88
376.82	223.83
377.19	223.78
377.57	223.72
377.95	223.64
378.33	223.58
378.71	223.43
379.09	223.38
379.47	223.35
379.84	223.28
380.22	223.22
380.60	223.15
380.98	223.10
381.36	223.05
381.73	222.99
382.11	222.96
382.49	222.91
382.87	222.86
383.25	222.81
383.62	222.89
384.00	222.82
384.38	222.78
384.76	222.76
385.13	222.74
385.51	222.71
385.89	222.65
386.27	222.62
386.64	222.60
387.02	222.55
387.40	222.50
387.78	222.48
388.15	222.45
388.53	222.42
388.91	222.39
389.29	222.35
389.66	222.34
390.04	222.30
390.42	222.30
390.79	222.28
391.17	222.26
391.55	222.12
391.92	222.11
392.30	222.11
392.68	222.07
393.05	222.05
393.43	222.05
393.81	222.05
394.18	222.03
394.56	222.03
394.94	222.06
395.31	222.06
395.69	222.10
396.06	222.13
396.44	222.15
396.82	222.16
397.19	222.23
397.57	222.25
397.95	222.29
398.32	222.28
398.70	222.32
399.07	222.38
399.45	222.42
399.82	222.46
400.20	222.49
400.58	222.55
400.95	222.57
401.33	222.64
401.70	222.78
402.08	222.87
402.45	222.95
402.83	223.05
403.20	223.15
403.58	223.23
403.95	223.35
404.33	223.49
404.71	223.61
405.08	223.79
405.46	223.94
405.83	224.10
406.21	224.28
406.58	224.47
406.96	224.66
407.33	224.88
407.70	225.12
408.08	225.45
408.45	225.74
408.83	226.05
409.20	226.33
409.58	226.58
409.95	226.93
410.33	227.31
410.70	227.67
411.08	228.09
411.45	228.54
411.82	228.98
412.20	229.50
412.57	230.11
412.95	230.59
413.32	231.22
413.69	231.86
414.07	232.54
414.44	233.29
414.82	234.04
415.19	234.93
415.56	235.83
415.94	236.77
416.31	237.82
416.68	238.87
417.06	240.10
417.43	241.24
417.81	242.56
418.18	243.90
418.55	245.38
418.93	246.90
419.30	248.50
419.67	250.20
420.04	251.95
420.42	253.77
420.79	255.88
421.16	258.01
421.54	260.18
421.91	262.44
422.28	264.79
422.66	267.32
423.03	269.73
423.40	272.27
423.77	274.99
424.15	277.77
424.52	280.66
424.89	283.79
425.26	286.90
425.64	289.79
426.01	293.05
426.38	296.37
426.75	299.79
427.13	303.29
427.50	306.95
427.87	310.75
428.24	314.58
428.61	318.25
428.99	322.20
429.36	326.54
429.73	330.69
430.10	334.82
430.47	339.03
430.85	343.37
431.22	347.99
431.59	352.73
431.96	357.35
432.33	362.46
432.70	367.30
433.08	373.03
433.45	378.44
433.82	383.76
434.19	389.70
434.56	395.53
434.93	401.17
435.30	406.72
435.68	412.99
436.05	419.12
436.42	425.25
436.79	430.83
437.16	436.87
437.53	443.33
437.90	449.80
438.27	456.10
438.64	462.96
439.01	469.16
439.38	474.84
439.75	480.33
440.13	486.60
440.50	492.58
440.87	497.29
441.24	502.48
441.61	508.20
441.98	512.42
442.35	517.42
442.72	522.57
443.09	527.50
443.46	530.72
443.83	533.12
444.20	535.17
444.57	538.13
444.94	539.94
445.31	541.80
445.68	543.48
446.05	544.79
446.42	544.74
446.79	544.59
447.16	544.49
447.53	544.43
447.90	542.70
448.27	541.08
448.64	538.46
449.01	536.75
449.37	532.92
449.74	529.44
450.11	524.94
450.48	519.95
450.85	514.93
451.22	510.67
451.59	506.50
451.96	502.72
452.33	497.13
452.70	492.15
453.07	486.06
453.43	479.94
453.80	474.02
454.17	468.34
454.54	463.06
454.91	457.08
455.28	451.44
455.65	446.13
456.02	440.46
456.38	435.89
456.75	429.99
457.12	425.22
457.49	420.42
457.86	415.82
458.23	411.80
458.59	407.35
458.96	402.77
459.33	398.72
459.70	394.59
460.07	391.45
460.43	387.75
460.80	384.28
461.17	381.23
461.54	377.93
461.91	374.86
462.27	371.72
462.64	369.16
463.01	366.23
463.38	363.27
463.74	360.60
464.11	358.22
464.48	356.07
464.85	353.76
465.21	351.99
465.58	350.05
465.95	347.80
466.32	346.00
466.68	344.24
467.05	342.48
467.42	340.78
467.78	338.95
468.15	337.26
468.52	336.00
468.88	334.35
469.25	332.84
469.62	331.64
469.98	330.34
470.35	329.19
470.72	328.14
471.08	327.08
471.45	326.21
471.82	325.24
472.18	324.23
472.55	323.58
472.92	322.77
473.28	322.15
473.65	321.50
474.02	320.88
474.38	320.38
474.75	320.11
475.11	319.69
475.48	319.54
475.85	319.37
476.21	319.32
476.58	319.32
476.94	319.51
477.31	319.64
477.67	319.79
478.04	320.06
478.41	320.40
478.77	320.86
479.14	321.20
479.50	321.77
479.87	322.46
480.23	323.16
480.60	323.84
480.96	324.54
481.33	325.52
481.69	326.49
482.06	327.45
482.42	328.35
482.79	329.43
483.15	330.68
483.52	332.07
483.88	333.43
484.25	334.86
484.61	336.35
484.98	337.96
485.34	339.76
485.71	341.63
486.07	343.61
486.44	345.59
486.80	347.79
487.17	350.04
487.53	352.51
487.90	355.08
488.26	357.86
488.62	360.80
488.99	363.74
489.35	366.81
489.72	370.12
490.08	373.62
490.44	377.20
490.81	380.94
491.17	384.78
491.54	388.88
491.90	393.08
492.26	397.60
492.63	402.37
492.99	407.32
493.36	412.41
493.72	417.76
494.08	423.25
494.45	429.05
494.81	435.06
495.17	441.19
495.54	447.68
495.90	454.48
496.26	461.41
496.63	468.58
496.99	476.03
497.35	483.85
497.72	491.98
498.08	500.27
498.44	508.81
498.80	517.91
499.17	527.24
499.53	536.91
499.89	546.82
500.26	556.88
500.62	567.23
500.98	578.25
501.34	589.42
501.71	601.14
502.07	613.08
502.43	625.40
502.79	638.09
503.16	651.16
503.52	664.44
503.88	678.09
504.24	692.17
504.60	706.55
504.97	721.32
505.33	736.45
505.69	752.51
506.05	768.77
506.41	785.03
506.78	801.60
507.14	818.63
507.50	836.28
507.86	854.31
508.22	872.62
508.59	890.93
508.95	909.98
509.31	929.45
509.67	949.63
510.03	970.04
510.39	990.64
510.75	1011.51
511.12	1032.65
511.48	1054.14
511.84	1075.68
512.20	1097.53
512.56	1120.48
512.92	1143.67
513.28	1166.60
513.64	1189.81
514.00	1213.42
514.37	1237.40
514.73	1261.37
515.09	1285.15
515.45	1309.36
515.81	1334.14
516.17	1358.99
516.53	1383.50
516.89	1408.07
517.25	1432.83
517.61	1457.75
517.97	1482.89
518.33	1507.74
518.69	1532.76
519.05	1558.01
519.41	1583.41
519.77	1609.08
520.13	1633.97
520.49	1658.99
520.85	1684.21
521.21	1709.38
521.57	1735.14
521.93	1760.16
522.29	1786.07
522.65	1811.69
523.01	1837.07
523.37	1861.73
523.73	1886.99
524.09	1912.41
524.45	1937.76
524.81	1962.65
525.17	1987.46
525.53	2011.81
525.89	2036.19
526.25	2060.75
526.61	2084.76
526.97	2109.07
527.33	2133.29
527.68	2157.38
528.04	2180.61
528.40	2203.70
528.76	2226.95
529.12	2249.15
529.48	2271.72
529.84	2292.43
530.20	2313.73
530.56	2334.71
530.91	2355.72
531.27	2376.24
531.63	2396.12
531.99	2415.47
532.35	2434.42
532.71	2453.46
533.07	2473.14
533.42	2491.24
533.78	2509.79
534.14	2528.27
534.50	2545.93
534.86	2564.22
535.21	2580.61
535.57	2597.01
535.93	2612.58
536.29	2627.00
536.65	2642.20
537.00	2656.29
537.36	2670.91
537.72	2684.44
538.08	2697.67
538.44	2709.72
538.79	2721.98
539.15	2732.62
539.51	2743.20
539.87	2753.46
540.22	2761.61
540.58	2769.76
540.94	2778.54
541.29	2785.71
541.65	2791.98
542.01	2797.69
542.37	2801.51
542.72	2807.24
543.08	2812.47
543.44	2817.60
543.79	2821.82
544.15	2825.25
544.51	2828.60
544.87	2831.08
545.22	2833.14
545.58	2834.23
545.94	2835.76
546.29	2835.83
546.65	2836.10
547.01	2836.32
547.36	2836.70
547.72	2837.20
548.07	2836.30
548.43	2834.72
548.79	2832.49
549.14	2830.32
549.50	2828.68
549.86	2826.35
550.21	2821.48
550.57	2817.04
550.92	2811.21
551.28	2806.02
551.64	2800.67
551.99	2795.78
552.35	2790.46
552.70	2784.71
553.06	2779.68
553.41	2774.24
553.77	2768.25
554.13	2762.80
554.48	2756.58
554.84	2748.63
555.19	2740.84
555.55	2732.46
555.90	2724.62
556.26	2717.88
556.61	2710.49
556.97	2700.96
557.32	2692.18
557.68	2683.97
558.03	2675.02
558.39	2666.75
558.74	2658.71
559.10	2649.37
559.45	2639.75
559.81	2630.42
560.16	2620.49
560.52	2610.04
560.87	2600.57
561.23	2590.78
561.58	2580.48
561.94	2569.90
562.29	2558.87
562.64	2548.44
563.00	2538.37
563.35	2528.18
563.71	2517.07
564.06	2505.37
564.42	2494.76
564.77	2483.76
565.12	2472.87
565.48	2461.73
565.83	2451.23
566.19	2440.71
566.54	2429.93
566.89	2418.16
567.25	2406.36
567.60	2395.38
567.96	2384.00
568.31	2371.23
568.66	2358.31
569.02	2346.48
569.37	2334.46
569.72	2322.92
570.08	2310.64
570.43	2297.82
570.78	2284.77
571.14	2271.45
571.49	2258.98
571.84	2246.76
572.20	2233.25
572.55	2220.13
572.90	2206.90
573.26	2192.83
573.61	2178.18
573.96	2163.75
574.31	2149.74
574.67	2135.93
575.02	2121.69
575.37	2107.02
575.72	2092.62
576.08	2078.87
576.43	2064.08
576.78	2049.29
577.13	2035.36
577.49	2021.48
577.84	2007.98
578.19	1993.63
578.54	1978.89
578.90	1963.65
579.25	1948.15
579.60	1934.06
579.95	1919.60
580.30	1905.18
580.66	1891.03
581.01	1876.49
581.36	1862.29
581.71	1848.65
582.06	1834.57
582.42	1820.49
582.77	1807.23
583.12	1793.65
583.47	1780.04
583.82	1766.57
584.17	1753.01
584.53	1739.25
584.88	1725.50
585.23	1711.44
585.58	1697.87
585.93	1684.76
586.28	1672.46
586.63	1660.00
586.98	1646.82
587.34	1633.89
587.69	1620.45
588.04	1607.19
588.39	1594.67
588.74	1581.70
589.09	1568.42
589.44	1555.09
589.79	1542.37
590.14	1529.47
590.49	1516.80
590.84	1504.03
591.19	1491.91
591.54	1479.26
591.89	1466.49
592.25	1454.07
592.60	1441.23
592.95	1428.94
593.30	1416.93
593.65	1404.72
594.00	1392.69
594.35	1381.50
594.70	1369.44
595.05	1358.49
595.40	1347.43
595.75	1335.71
596.10	1324.78
596.45	1314.05
596.80	1303.82
597.15	1293.36
597.50	1282.92
597.85	1272.65
598.19	1262.58
598.54	1251.89
598.89	1241.95
599.24	1232.36
599.59	1222.50
599.94	1213.66
600.29	1204.72
600.64	1195.56
600.99	1185.83
601.34	1176.58
601.69	1166.70
602.04	1157.91
602.39	1148.93
602.74	1140.19
603.08	1131.73
603.43	1122.76
603.78	1113.70
604.13	1104.78
604.48	1095.77
604.83	1087.06
605.18	1078.23
605.53	1069.34
605.87	1060.60
606.22	1052.12
606.57	1043.35
606.92	1034.68
607.27	1025.91
607.62	1017.22
607.96	1008.70
608.31	1001.15
608.66	993.17
609.01	985.63
609.36	978.04
609.70	970.24
610.05	962.27
610.40	954.63
610.75	947.15
611.10	939.93
611.44	932.30
611.79	925.01
612.14	917.33
612.49	909.78
612.83	902.72
613.18	895.72
613.53	888.50
613.88	881.38
614.22	874.84
614.57	868.13
614.92	861.41
615.27	854.72
615.61	847.89
615.96	841.29
616.31	834.62
616.65	827.84
617.00	821.30
617.35	814.90
617.70	808.53
618.04	802.21
618.39	795.92
618.74	789.96
619.08	783.81
619.43	777.94
619.78	772.10
620.12	766.06
620.47	760.19
620.82	754.39
621.16	748.91
621.51	743.09
621.85	737.25
622.20	731.46
622.55	725.85
622.89	720.19
623.24	714.57
623.59	709.03
623.93	703.54
624.28	698.19
624.62	692.83
624.97	687.46
625.32	682.20
625.66	676.81
626.01	671.41
626.35	666.14
626.70	660.90
627.04	655.85
627.39	650.85
627.73	645.97
628.08	641.31
628.43	636.55
628.77	631.84
629.12	627.25
629.46	622.85
629.81	618.26
630.15	613.56
630.50	609.02
630.84	604.65
631.19	600.47
631.53	596.35
631.88	592.10
632.22	587.95
632.57	584.03
632.91	580.08
633.26	576.21
633.60	572.42
633.95	568.71
634.29	564.88
634.64	561.01
634.98	557.04
635.32	553.23
635.67	549.56
636.01	545.83
636.36	542.14
636.70	538.59
637.05	535.03
637.39	531.69
637.73	528.21
638.08	524.80
638.42	521.36
638.77	517.78
639.11	514.22
639.45	510.69
639.80	507.13
640.14	503.77
640.49	500.37
640.83	496.87
641.17	493.40
641.52	490.10
641.86	486.79
642.20	483.64
642.55	480.36
642.89	477.13
643.23	474.12
643.58	471.34
643.92	468.44
644.26	465.58
644.61	462.69
644.95	459.82
645.29	456.89
645.64	453.93
645.98	451.11
646.32	448.44
646.66	445.80
647.01	443.13
647.35	440.51
647.69	437.78
648.04	435.18
648.38	432.64
648.72	430.05
649.06	427.53
649.41	425.05
649.75	422.55
650.09	420.08
650.43	417.62
650.78	415.13
651.12	412.64
651.46	410.24
651.80	407.95
652.14	405.73
652.49	403.52
652.83	401.36
653.17	399.19
653.51	397.09
653.85	395.05
654.20	392.95
654.54	390.77
654.88	388.78
655.22	386.86
655.56	384.89
655.90	383.01
656.25	381.15
656.59	379.28
656.93	377.51
657.27	375.79
657.61	373.96
657.95	372.20
658.29	370.44
658.64	368.71
658.98	366.96
659.32	365.24
659.66	363.62
660.00	362.01
660.34	360.44
660.68	358.80
661.02	357.12
661.36	355.53
661.70	354.02
662.05	352.49
662.39	350.94
662.73	349.48
663.07	348.05
663.41	346.64
663.75	345.25
664.09	343.87
664.43	342.41
664.77	341.04
665.11	339.62
665.45	338.27
665.79	336.93
666.13	335.57
666.47	334.20
666.81	332.80
667.15	331.38
667.49	330.06
667.83	328.79
668.17	327.55
668.51	326.35
668.85	325.14
669.19	324.01
669.53	322.83
669.87	321.60
670.21	320.42
670.55	319.24
670.89	318.14
671.23	317.00
671.57	315.88
671.91	314.81
672.25	313.81
672.58	312.80
672.92	311.75
673.26	310.76
673.60	309.79
673.94	308.81
674.28	307.88
674.62	306.95
674.96	305.98
675.30	305.07
675.64	304.13
675.97	303.21
676.31	302.26
676.65	301.33
676.99	300.47
677.33	299.54
677.67	298.67
678.01	297.72
678.34	296.84
678.68	296.02
679.02	295.17
679.36	294.31
679.70	293.47
680.04	292.66
680.37	291.84
680.71	291.05
681.05	290.31
681.39	289.53
681.73	288.71
682.06	287.93
682.40	287.17
682.74	286.43
683.08	285.71
683.42	284.97
683.75	284.31
684.09	283.56
684.43	282.87
684.77	282.16
685.10	281.51
685.44	280.83
685.78	280.14
686.12	279.49
686.45	278.83
686.79	278.17
687.13	277.54
687.46	276.87
687.80	276.23
688.14	275.55
688.48	274.91
688.81	274.29
689.15	273.72
689.49	273.11
689.82	272.51
690.16	271.85
690.50	271.26
690.83	270.66
691.17	270.09
691.51	269.53
691.84	268.98
692.18	268.40
692.52	267.82
692.85	267.25
693.19	266.73
693.52	266.19
693.86	265.66
694.20	265.13
694.53	264.63
694.87	264.11
695.21	263.62
695.54	263.13
695.88	262.63
696.21	262.09
696.55	261.60
696.88	261.11
697.22	260.65
697.56	260.18
697.89	259.65
698.23	259.17
698.56	258.66
698.90	258.20
699.23	257.73
699.57	257.30
699.90	256.86
700.24	256.39
700.58	255.96
700.91	255.56
701.25	255.23
701.58	254.85
701.92	254.48
702.25	254.07
702.59	253.66
702.92	253.27
703.26	252.89
703.59	252.51
703.93	252.21
704.26	251.85
704.60	251.49
704.93	251.13
705.26	250.79
705.60	250.47
705.93	250.11
706.27	249.81
706.60	249.49
706.94	249.19
707.27	248.83
707.61	248.48
707.94	248.13
708.27	247.71
708.61	247.34
708.94	246.99
709.28	246.67
709.61	246.36
709.94	246.07
710.28	245.77
710.61	245.50
710.95	245.12
711.28	244.91
711.61	244.63
711.95	244.39
712.28	244.10
712.61	243.81
712.95	243.61
713.28	243.39
713.61	243.11
713.95	242.83
714.28	242.61
714.61	242.35
714.95	242.11
715.28	241.87
715.61	241.63
715.95	241.41
716.28	241.18
716.61	240.98
716.95	240.74
717.28	240.53
717.61	240.30
717.94	240.08
718.28	239.79
718.61	239.58
718.94	239.34
719.27	239.14
719.61	238.96
719.94	238.73
720.27	238.47
720.60	238.27
720.94	238.08
721.27	237.90
721.60	237.74
721.93	237.55
722.27	237.41
722.60	237.24
722.93	237.05
723.26	236.88
723.59	236.69
723.93	236.53
724.26	236.37
724.59	236.21
724.92	236.05
725.25	235.93
725.59	235.77
725.92	235.64
726.25	235.49
726.58	235.34
726.91	235.18
727.24	235.06
727.57	234.91
727.91	234.75
728.24	234.62
728.57	234.47
728.90	234.34
729.23	234.17
729.56	234.08
729.89	233.94
730.22	233.80
730.55	233.67
730.89	233.53
731.22	233.39
731.55	233.26
731.88	233.14
732.21	233.00
732.54	232.87
732.87	232.75
733.20	232.63
733.53	232.52
733.86	232.42
734.19	232.29
734.52	232.20
734.85	232.16
735.18	232.03
735.51	231.95
735.84	231.84
736.17	231.77
736.50	231.61
736.83	231.63
737.16	231.54
737.49	231.44
737.82	231.34
738.15	231.26
738.48	231.17
738.81	231.06
739.14	230.95
739.47	230.85
739.80	230.75
740.13	230.67
740.46	230.55
740.79	230.44
741.12	230.36
741.45	230.24
741.78	230.09
742.11	230.04
742.44	229.92
742.77	229.85
743.10	229.74
743.43	229.65
743.75	229.46
744.08	229.53
744.41	229.44
744.74	229.35
745.07	229.25
745.40	229.19
745.73	229.16
746.06	229.09
746.39	229.03
746.71	228.95
747.04	228.86
747.37	228.79
747.70	228.74
748.03	228.67
748.36	228.61
748.68	228.54
749.01	228.44
749.34	228.38
749.67	228.31
750.00	228.25
750.33	228.27
750.65	228.21
750.98	227.99
751.31	227.93
751.64	227.88
751.97	227.87
752.29	227.80
752.62	227.69
752.95	227.62
753.28	227.53
753.60	227.46
753.93	227.42
754.26	227.37
754.59	227.27
754.91	227.20
755.24	227.12
755.57	227.11
755.90	227.05
756.22	226.98
756.55	226.90
756.88	226.82
757.20	226.69
757.53	226.60
757.86	226.54
758.19	226.49
758.51	226.44
758.84	226.33
759.17	226.27
759.49	226.23
759.82	226.23
760.15	226.20
760.47	226.15
760.80	226.07
761.13	226.04
761.45	225.99
761.78	225.95
762.11	225.91
762.43	225.82
762.76	225.77
763.08	225.74
763.41	225.71
763.74	225.67
764.06	225.63
764.39	225.59
764.71	225.55
765.04	225.50
765.37	225.45
765.69	225.41
766.02	225.37
766.34	225.32
766.67	225.24
767.00	225.22
767.32	225.24
767.65	225.27
767.97	225.23
768.30	225.19
768.62	225.16
768.95	225.10
769.27	225.07
769.60	225.04
769.92	224.99
770.25	224.94
770.57	224.89
770.90	224.85
771.22	224.81
771.55	224.78
771.87	224.75
772.20	224.72
772.52	224.78
772.85	224.87
773.17	224.84
773.50	224.80
773.82	224.75
774.15	224.67
774.47	224.57
774.80	224.53
775.12	224.50
775.45	224.47
775.77	224.45
776.09	224.43
776.42	224.41
776.74	224.41
777.07	224.38
777.39	224.36
777.72	224.33
778.04	224.32
778.36	224.28
778.69	224.26
779.01	224.24
779.33	224.12
779.66	223.98
779.98	223.95
780.31	223.93
780.63	223.95
780.95	223.95
781.28	223.93
781.60	223.90
781.92	223.88
782.25	223.86
782.57	223.83
782.89	223.80
783.22	223.78
783.54	223.74
783.86	223.73
784.19	223.71
784.51	223.72
784.83	223.69
785.16	223.67
785.48	223.65
785.80	223.63
786.12	223.62
786.45	223.60
786.77	223.59
787.09	223.57
787.42	223.51
787.74	223.50
788.06	223.49
788.38	223.47
788.71	223.45
789.03	223.44
789.35	223.44
789.67	223.41
789.99	223.41
790.32	223.38
790.64	223.38
790.96	223.46
791.28	223.41
791.61	223.39
791.93	223.38
792.25	223.37
792.57	223.43
792.89	223.40
793.21	223.39
793.54	223.36
793.86	223.34
794.18	223.33
794.50	223.30
794.82	223.28
795.14	223.28
795.47	223.29
795.79	223.27
796.11	223.23
796.43	223.22
796.75	223.21
797.07	223.20
797.39	223.19
797.71	223.09
798.04	223.09
798.36	223.08
798.68	223.07
799.00	223.06
799.32	223.00
799.64	223.01
799.96	223.00
800.28	223.01
800.60	222.99
800.92	222.99
801.24	222.98
801.56	222.97
801.89	222.95
802.21	222.94
802.53	222.91
802.85	222.93
803.17	222.97
803.49	222.93
803.81	222.91
804.13	222.89
804.45	222.87
804.77	222.87
805.09	222.85
805.41	222.83
805.73	222.80
806.05	222.76
806.37	222.74
806.69	222.73
807.01	222.71
807.33	222.71
807.65	222.66
807.97	222.70
808.28	222.68
808.60	222.67
808.92	222.65
809.24	222.71
809.56	222.69
809.88	222.64
810.20	222.64
810.52	222.66
810.84	222.64
811.16	222.62
811.48	222.60
811.80	222.64
812.12	222.63
812.43	222.64
812.75	222.64
813.07	222.63
813.39	222.62
813.71	222.60
814.03	222.58
814.35	222.58
814.67	222.54
814.98	222.52
815.30	222.52
815.62	222.50
815.94	222.42
816.26	222.42
816.58	222.40
816.89	222.40
817.21	222.36
817.53	222.37
817.85	222.37
818.17	222.36
818.48	222.31
818.80	222.32
819.12	222.30
819.44	222.27
819.76	222.26
820.07	222.26
820.39	222.25
820.71	222.26
821.03	222.25
821.34	222.24
821.66	222.25
821.98	222.25
822.30	222.24
822.61	222.30
822.93	222.28
823.25	222.28
823.57	222.27
823.88	222.28
824.20	222.28
824.52	222.29
824.83	222.28
825.15	222.27
825.47	222.26
825.79	222.26
826.10	222.26
826.42	222.26
826.74	222.25
827.05	222.25
827.37	222.25
827.69	222.24
828.00	222.24
828.32	222.24
828.64	222.22
828.95	222.27
829.27	222.24
829.58	222.24
829.90	222.25
830.22	222.25
830.53	222.23
830.85	222.22
831.17	222.19
831.48	222.19
831.80	222.20
832.11	222.19
832.43	222.17
832.75	222.17
833.06	222.23
833.38	222.20
833.69	222.19
834.01	222.19
834.32	222.19
834.64	222.18
834.96	222.17
835.27	222.17
835.59	222.13
835.90	222.11
836.22	222.11
836.53	222.08
836.85	222.06
837.16	222.17
837.48	222.17
837.79	222.20
838.11	222.20
838.42	222.20
838.74	222.20
839.05	222.20
839.37	222.19
839.68	222.13
840.00	222.12
840.31	222.14
840.63	222.12
840.94	222.11
841.26	222.09
841.57	222.09
841.88	222.10
842.20	222.08
842.51	222.06
842.83	222.06
843.14	222.15
843.46	222.15
843.77	222.08
844.08	222.08
844.40	222.04
844.71	222.03
845.03	222.02
845.34	222.00
845.65	222.00
845.97	222.00
846.28	222.00
846.60	222.01
846.91	221.99
847.22	221.98
847.54	222.01
847.85	222.01
848.16	222.00
848.48	221.98
848.79	222.02
849.10	222.03
849.42	222.04
849.73	221.94
850.04	221.93
850.36	221.90
850.67	221.91
850.98	221.91
851.30	221.92
851.61	221.92
851.92	221.92
852.23	221.95
852.55	221.95
852.86	221.95
853.17	221.96
853.49	221.98
853.80	222.00
854.11	222.00
854.42	222.01
854.74	222.00
855.05	222.00
855.36	221.95
855.67	221.95
855.99	221.95
856.30	222.07
856.61	222.07
856.92	222.07
857.23	222.07
857.55	222.06
857.86	222.05
858.17	222.07
858.48	222.05
858.79	222.03
859.11	222.03
859.42	222.03
859.73	222.01
860.04	222.00
860.35	221.97
860.66	221.94
860.98	221.93
861.29	221.95
861.60	221.94
861.91	221.97
862.22	221.96
862.53	221.94
862.84	221.82
863.16	221.84
863.47	221.82
863.78	221.80
864.09	221.81
864.40	221.82
864.71	221.82
865.02	221.83
865.33	221.82
865.64	221.80
865.95	221.81
866.27	221.87
866.58	221.86
866.89	221.87
867.20	221.87
867.51	221.86
867.82	221.85
868.13	221.88
868.44	221.85
868.75	221.87
869.06	221.88
869.37	221.89
869.68	221.87
869.99	221.89
870.30	221.89
870.61	221.90
870.92	221.89
871.23	221.87
871.54	221.89
871.85	221.91
872.16	221.92
872.47	221.91
872.78	221.85
873.09	221.86
873.40	221.85
873.71	221.86
874.02	221.87
874.33	221.86
874.64	221.84
874.95	221.86
875.26	221.83
875.56	221.83
875.87	221.82
876.18	221.81
876.49	221.92
876.80	221.91
877.11	221.89
877.42	221.90
877.73	221.90
878.04	221.88
878.35	221.88
878.66	221.88
878.96	221.88
879.27	221.88
879.58	221.87
879.89	221.87
880.20	221.89
880.51	221.89
880.82	221.89
881.12	221.89
881.43	221.87
881.74	221.85
882.05	221.85
882.36	221.85
882.67	221.86
882.97	221.75
883.28	221.74
883.59	221.73
883.90	221.74
884.21	221.75
884.51	221.74
884.82	221.72
885.13	221.72
885.44	221.72
885.74	221.72
886.05	221.71
886.36	221.71
886.67	221.68
886.98	221.73
887.28	221.73
887.59	221.73
887.90	221.74
888.20	221.73
888.51	221.75
888.82	221.73
889.13	221.73
889.43	221.82
889.74	221.81
890.05	221.81
890.35	221.80
890.66	221.78
890.97	221.77
891.28	221.76
891.58	221.76
891.89	221.76
892.20	221.75
892.50	221.74
892.81	221.73
893.12	221.73
893.42	221.68
893.73	221.68
894.04	221.68
894.34	221.69
894.65	221.69
894.95	221.68
895.26	221.69
895.57	221.73
895.87	221.63
896.18	221.65
896.48	221.65
896.79	221.65
897.10	221.67
897.40	221.68
897.71	221.69
898.01	221.68
898.32	221.69
898.63	221.68
898.93	221.69
899.24	221.69
899.54	221.69
899.85	221.68
900.15	221.67
900.46	221.67
900.76	221.68
901.07	221.68
901.38	221.67
901.68	221.68
901.99	221.63
902.29	221.64
902.60	221.63
902.90	221.62
903.21	221.62
903.51	221.61
903.82	221.63
904.12	221.63
904.43	221.64
904.73	221.63
905.03	221.64
905.34	221.74
905.64	221.73
905.95	221.73
906.25	221.73
906.56	221.73
906.86	221.72
907.17	221.71
907.47	221.72
907.77	221.71
908.08	221.69
908.38	221.70
908.69	221.71
908.99	221.73
909.30	221.74
909.60	221.74
909.90	221.74
910.21	221.71
910.51	221.70
910.81	221.69
911.12	221.70
911.42	221.70
911.73	221.59
912.03	221.60
912.33	221.62
912.64	221.61
912.94	221.61
913.24	221.59
913.55	221.58
913.85	221.57
914.15	221.58
914.46	221.60
914.76	221.58
915.06	221.57
915.37	221.55
915.67	221.54
915.97	221.54
916.27	221.52
916.58	221.52
916.88	221.52
917.18	221.51
917.49	221.58
917.79	221.58
918.09	221.60
918.39	221.62
918.70	221.61
919.00	221.62
919.30	221.66
919.60	221.66
919.91	221.65
920.21	221.66
920.51	221.64
920.81	221.63
921.12	221.65
921.42	221.64
921.72	221.65
922.02	221.66
922.32	221.67
922.63	221.67
922.93	221.73
923.23	221.73
923.53	221.73
923.83	221.66
924.13	221.67
924.44	221.66
924.74	221.67
925.04	221.69
925.34	221.69
925.64	221.65
925.94	221.65
926.24	221.70
926.55	221.70
926.85	221.71
927.15	221.71
927.45	221.70
927.75	221.70
928.05	221.70
928.35	221.69
928.65	221.70
928.95	221.71
929.26	221.66
929.56	221.68
929.86	221.69
930.16	221.68
930.46	221.67
930.76	221.68
931.06	221.63
931.36	221.60
931.66	221.61
931.96	221.62
932.26	221.62
932.56	221.58
932.86	221.59
933.16	221.58
933.46	221.58
933.76	221.56
934.06	221.58
934.36	221.62
934.66	221.61
934.96	221.60
935.26	221.60
935.56	221.61
935.86	221.58
936.16	221.57
936.46	221.56
936.76	221.55
937.06	221.53
937.36	221.54
937.66	221.54
937.96	221.54
938.26	221.51
938.56	221.50
938.86	221.51
939.16	221.53
939.46	221.54
939.76	221.54
940.06	221.54
940.35	221.53
940.65	221.47
940.95	221.48
941.25	221.46
941.55	221.45
941.85	221.44
942.15	221.46
942.45	221.49
942.75	221.49
943.04	221.50
943.34	221.52
943.64	221.51
943.94	221.50
944.24	221.49
944.54	221.51
944.84	221.50
945.13	221.49
945.43	221.47
945.73	221.47
946.03	221.46
946.33	221.45
946.62	221.44
946.92	221.44
947.22	221.45
947.52	221.46
947.82	221.47
948.11	221.46
948.41	221.44
948.71	221.41
949.01	221.41
949.31	221.41
949.60	221.39
949.90	221.41
950.20	221.41
950.50	221.41
950.79	221.40
951.09	221.41
951.39	221.41
951.69	221.40
951.98	221.42
952.28	221.42
952.58	221.42
952.87	221.42
953.17	221.43
953.47	221.42
953.76	221.41
954.06	221.39
954.36	221.38
954.66	221.39
954.95	221.42
955.25	221.42
955.55	221.43
955.84	221.42
956.14	221.43
956.44	221.43
956.73	221.42
957.03	221.43
957.32	221.43
957.62	221.42
957.92	221.44
958.21	221.43
958.51	221.55
958.81	221.56
959.10	221.57
959.40	221.59
959.69	221.60
959.99	221.62
960.29	221.63
960.58	221.62
960.88	221.66
961.17	221.64
961.47	221.65
961.76	221.64
962.06	221.66
962.36	221.64
962.65	221.65
962.95	221.66
963.24	221.65
963.54	221.65
963.83	221.65
964.13	221.65
964.42	221.64
964.72	221.55
965.01	221.55
965.31	221.54
965.60	221.51
965.90	221.58
966.19	221.55
966.49	221.56
966.78	221.56
967.08	221.54
967.37	221.55
967.67	221.52
967.96	221.54
968.26	221.53
968.55	221.55
968.85	221.55
969.14	221.54
969.43	221.54
969.73	221.53
970.02	221.52
970.32	221.52
970.61	221.50
970.91	221.47
971.20	221.46
971.49	221.45
971.79	221.46
972.08	221.38
972.38	221.40
972.67	221.39
972.96	221.41
973.26	221.39
973.55	221.42
973.85	221.42
974.14	221.41
974.43	221.41
974.73	221.39
975.02	221.38
975.31	221.38
975.61	221.38
975.90	221.37
976.19	221.37
976.49	221.37
976.78	221.38
977.07	221.38
977.37	221.39
977.66	221.40
977.95	221.38
978.24	221.40
978.54	221.41
978.83	221.41
979.12	221.40
979.42	221.40
979.71	221.37
980.00	221.37
980.29	221.38
980.59	221.35
980.88	221.38
981.17	221.38
981.46	221.38
981.76	221.38
982.05	221.42
982.34	221.42
982.63	221.42
982.93	221.42
983.22	221.45
983.51	221.45
983.80	221.46
984.09	221.47
984.39	221.46
984.68	221.45
984.97	221.45
985.26	221.45
985.55	221.45
985.85	221.44
986.14	221.46
986.43	221.47
986.72	221.46
987.01	221.43
987.30	221.43
987.59	221.42
987.89	221.43
988.18	221.39
988.47	221.38
988.76	221.37
989.05	221.37
989.34	221.35
989.63	221.38
989.92	221.36
990.22	221.35
990.51	221.35
990.80	221.34
991.09	221.34
991.38	221.36
991.67	221.35
991.96	221.34
992.25	221.34
992.54	221.32
992.83	221.32
993.12	221.32
993.41	221.33
993.70	221.38
993.99	221.39
994.28	221.41
994.58	221.43
994.87	221.42
995.16	221.42
995.45	221.41
995.74	221.37
996.03	221.39
996.32	221.40
996.61	221.43
996.90	221.43
997.19	221.42
997.48	221.42
997.77	221.41
998.06	221.42
998.34	221.41
998.63	221.41
998.92	221.42
999.21	221.44
999.50	221.43
999.79	221.39
1000.08	221.39
1000.37	221.39
1000.66	221.37
1000.95	221.40
1001.24	221.40
1001.53	221.42
1001.82	221.42
1002.11	221.39
1002.40	221.40
1002.68	221.42
1002.97	221.49
1003.26	221.48
1003.55	221.46
1003.84	221.47
1004.13	221.50
1004.42	221.50
1004.71	221.50
1004.99	221.49
1005.28	221.51
1005.57	221.51
1005.86	221.50
1006.15	221.49
1006.44	221.47
1006.72	221.49
1007.01	221.47
1007.30	221.47
1007.59	221.46
1007.88	221.46
1008.17	221.46
1008.45	221.44
1008.74	221.40
1009.03	221.35
1009.32	221.36
1009.60	221.36
1009.89	221.35
1010.18	221.30
1010.47	221.29
1010.76	221.30
1011.04	221.29
1011.33	221.29
1011.62	221.30
1011.91	221.31
1012.19	221.31
1012.48	221.32
1012.77	221.32
1013.05	221.36
1013.34	221.36
1013.63	221.35
1013.92	221.36
1014.20	221.35
1014.49	221.36
1014.78	221.37
1015.06	221.33
1015.35	221.33
1015.64	221.34
1015.92	221.36
1016.21	221.37
1016.50	221.37
1016.78	221.38
1017.07	221.39
1017.36	221.37
1017.64	221.36
1017.93	221.36
1018.22	221.35
1018.50	221.35
1018.79	221.34
1019.08	221.30
1019.36	221.31
1019.65	221.30
1019.93	221.32
1020.22	221.34
1020.51	221.39
1020.79	221.38
1021.08	221.19
1021.36	221.22
1021.65	221.33
1021.94	221.32
1022.22	221.37
1022.51	221.11
1022.79	221.85
1023.08	221.49
1023.36	222.56
1023.65	221.04
>>>>>End Processed Spectral Data<<<<<
