SpectraSuite Data File
++++++++++++++++++++++++++++++++++++
Date: Wed Sep 30 16:43:16 EDT 2015
User: lab3
Dark Spectrum Present: No
Reference Spectrum Present: No
Number of Sampled Component Spectra: 1
Spectrometers: USB2E7196
Integration Time (usec): 36000 (USB2E7196)
Spectra Averaged: 3000 (USB2E7196)
Boxcar Smoothing: 10 (USB2E7196)
Correct for Electrical Dark: No (USB2E7196)
Strobe/Lamp Enabled: No (USB2E7196)
Correct for Detector Non-linearity: No (USB2E7196)
Correct for Stray Light: No (USB2E7196)
Number of Pixels in Processed Spectrum: 2048
>>>>>Begin Processed Spectral Data<<<<<
339.09	0.00
339.48	211.04
339.86	212.41
340.24	213.85
340.63	215.30
341.01	218.18
341.39	217.82
341.78	219.27
342.16	220.50
342.54	220.94
342.93	209.49
343.31	220.08
343.69	220.60
344.07	221.07
344.46	221.48
344.84	221.87
345.22	222.10
345.60	222.35
345.99	222.54
346.37	222.67
346.75	222.77
347.13	222.85
347.52	222.92
347.90	222.99
348.28	223.03
348.66	223.10
349.05	223.10
349.43	223.14
349.81	223.19
350.19	223.25
350.57	223.32
350.96	223.39
351.34	223.49
351.72	223.58
352.10	223.69
352.48	223.77
352.87	223.83
353.25	223.90
353.63	223.96
354.01	224.03
354.39	224.11
354.77	224.18
355.15	224.28
355.54	224.33
355.92	224.37
356.30	224.44
356.68	224.58
357.06	224.65
357.44	224.70
357.82	224.76
358.20	224.87
358.58	224.93
358.97	225.00
359.35	225.08
359.73	225.15
360.11	225.20
360.49	225.25
360.87	225.30
361.25	225.36
361.63	225.44
362.01	225.49
362.39	225.53
362.77	225.58
363.15	225.61
363.53	225.64
363.91	225.68
364.29	225.70
364.67	225.63
365.05	225.65
365.43	225.69
365.81	225.72
366.19	225.73
366.57	225.78
366.95	225.78
367.33	225.76
367.71	225.76
368.09	225.78
368.47	225.78
368.85	225.78
369.23	225.78
369.61	225.73
369.99	225.75
370.37	225.75
370.75	225.81
371.13	225.78
371.51	225.75
371.89	225.73
372.27	225.71
372.65	225.69
373.03	225.66
373.41	225.61
373.78	225.56
374.16	225.47
374.54	225.40
374.92	225.35
375.30	225.31
375.68	225.24
376.06	225.19
376.44	225.13
376.82	225.09
377.19	225.03
377.57	224.98
377.95	224.89
378.33	224.83
378.71	224.69
379.09	224.64
379.47	224.60
379.84	224.54
380.22	224.47
380.60	224.40
380.98	224.35
381.36	224.30
381.73	224.24
382.11	224.21
382.49	224.17
382.87	224.12
383.25	224.07
383.62	224.16
384.00	224.10
384.38	224.06
384.76	224.04
385.13	224.03
385.51	223.98
385.89	223.93
386.27	223.90
386.64	223.87
387.02	223.82
387.40	223.77
387.78	223.74
388.15	223.71
388.53	223.68
388.91	223.65
389.29	223.62
389.66	223.60
390.04	223.57
390.42	223.56
390.79	223.54
391.17	223.51
391.55	223.38
391.92	223.36
392.30	223.36
392.68	223.32
393.05	223.31
393.43	223.31
393.81	223.31
394.18	223.29
394.56	223.29
394.94	223.32
395.31	223.31
395.69	223.35
396.06	223.37
396.44	223.39
396.82	223.40
397.19	223.47
397.57	223.48
397.95	223.52
398.32	223.52
398.70	223.56
399.07	223.61
399.45	223.65
399.82	223.69
400.20	223.73
400.58	223.78
400.95	223.79
401.33	223.87
401.70	224.00
402.08	224.09
402.45	224.16
402.83	224.26
403.20	224.36
403.58	224.44
403.95	224.56
404.33	224.69
404.71	224.82
405.08	225.00
405.46	225.14
405.83	225.30
406.21	225.47
406.58	225.65
406.96	225.84
407.33	226.04
407.70	226.28
408.08	226.60
408.45	226.88
408.83	227.18
409.20	227.46
409.58	227.71
409.95	228.04
410.33	228.42
410.70	228.76
411.08	229.17
411.45	229.60
411.82	230.03
412.20	230.53
412.57	231.12
412.95	231.59
413.32	232.20
413.69	232.81
414.07	233.47
414.44	234.19
414.82	234.92
415.19	235.78
415.56	236.64
415.94	237.55
416.31	238.56
416.68	239.57
417.06	240.75
417.43	241.85
417.81	243.12
418.18	244.42
418.55	245.84
418.93	247.31
419.30	248.86
419.67	250.49
420.04	252.17
420.42	253.93
420.79	255.95
421.16	258.00
421.54	260.08
421.91	262.25
422.28	264.52
422.66	266.95
423.03	269.28
423.40	271.72
423.77	274.34
424.15	277.02
424.52	279.80
424.89	282.82
425.26	285.82
425.64	288.61
426.01	291.74
426.38	294.94
426.75	298.25
427.13	301.63
427.50	305.17
427.87	308.84
428.24	312.55
428.61	316.10
428.99	319.94
429.36	324.15
429.73	328.17
430.10	332.17
430.47	336.28
430.85	340.48
431.22	344.98
431.59	349.58
431.96	354.06
432.33	359.03
432.70	363.74
433.08	369.30
433.45	374.56
433.82	379.72
434.19	385.49
434.56	391.15
434.93	396.60
435.30	402.00
435.68	408.07
436.05	414.01
436.42	419.96
436.79	425.37
437.16	431.21
437.53	437.46
437.90	443.71
438.27	449.80
438.64	456.41
439.01	462.38
439.38	467.84
439.75	473.12
440.13	479.13
440.50	484.84
440.87	489.35
441.24	494.30
441.61	499.78
441.98	503.79
442.35	508.57
442.72	513.47
443.09	518.16
443.46	521.19
443.83	523.43
444.20	525.32
444.57	528.08
444.94	529.74
445.31	531.44
445.68	532.99
446.05	534.15
446.42	534.04
446.79	533.83
447.16	533.67
447.53	533.56
447.90	531.85
448.27	530.26
448.64	527.70
449.01	526.04
449.37	522.32
449.74	518.94
450.11	514.58
450.48	509.78
450.85	504.94
451.22	500.85
451.59	496.84
451.96	493.20
452.33	487.82
452.70	483.05
453.07	477.21
453.43	471.34
453.80	465.67
454.17	460.23
454.54	455.19
454.91	449.47
455.28	444.09
455.65	439.01
456.02	433.60
456.38	429.25
456.75	423.60
457.12	419.06
457.49	414.48
457.86	410.10
458.23	406.27
458.59	402.04
458.96	397.67
459.33	393.83
459.70	389.92
460.07	386.95
460.43	383.42
460.80	380.13
461.17	377.24
461.54	374.11
461.91	371.18
462.27	368.19
462.64	365.76
463.01	362.96
463.38	360.14
463.74	357.57
464.11	355.27
464.48	353.21
464.85	350.99
465.21	349.31
465.58	347.44
465.95	345.28
466.32	343.53
466.68	341.84
467.05	340.14
467.42	338.50
467.78	336.73
468.15	335.09
468.52	333.88
468.88	332.27
469.25	330.81
469.62	329.64
469.98	328.38
470.35	327.24
470.72	326.23
471.08	325.20
471.45	324.34
471.82	323.40
472.18	322.42
472.55	321.78
472.92	321.00
473.28	320.38
473.65	319.76
474.02	319.17
474.38	318.66
474.75	318.38
475.11	317.96
475.48	317.79
475.85	317.63
476.21	317.57
476.58	317.56
476.94	317.74
477.31	317.85
477.67	317.99
478.04	318.25
478.41	318.56
478.77	319.01
479.14	319.34
479.50	319.88
479.87	320.56
480.23	321.24
480.60	321.90
480.96	322.56
481.33	323.48
481.69	324.42
482.06	325.35
482.42	326.24
482.79	327.30
483.15	328.51
483.52	329.87
483.88	331.20
484.25	332.60
484.61	334.06
484.98	335.63
485.34	337.39
485.71	339.20
486.07	341.15
486.44	343.08
486.80	345.24
487.17	347.43
487.53	349.84
487.90	352.36
488.26	355.09
488.62	357.98
488.99	360.88
489.35	363.89
489.72	367.14
490.08	370.57
490.44	374.07
490.81	377.74
491.17	381.51
491.54	385.53
491.90	389.65
492.26	394.08
492.63	398.75
492.99	403.60
493.36	408.59
493.72	413.84
494.08	419.22
494.45	424.91
494.81	430.80
495.17	436.81
495.54	443.15
495.90	449.81
496.26	456.59
496.63	463.62
496.99	470.94
497.35	478.62
497.72	486.57
498.08	494.71
498.44	503.09
498.80	511.99
499.17	521.13
499.53	530.58
499.89	540.28
500.26	550.16
500.62	560.31
500.98	571.12
501.34	582.04
501.71	593.51
502.07	605.19
502.43	617.27
502.79	629.68
503.16	642.52
503.52	655.49
503.88	668.81
504.24	682.57
504.60	696.61
504.97	711.00
505.33	725.80
505.69	741.49
506.05	757.38
506.41	773.30
506.78	789.53
507.14	806.25
507.50	823.50
507.86	841.14
508.22	859.03
508.59	876.95
508.95	895.62
509.31	914.69
509.67	934.44
510.03	954.44
510.39	974.64
510.75	995.03
511.12	1015.73
511.48	1036.77
511.84	1057.96
512.20	1079.43
512.56	1102.04
512.92	1124.78
513.28	1147.23
513.64	1170.03
514.00	1193.27
514.37	1216.76
514.73	1240.28
515.09	1263.66
515.45	1287.43
515.81	1311.77
516.17	1336.17
516.53	1360.27
516.89	1384.49
517.25	1408.86
517.61	1433.42
517.97	1458.21
518.33	1482.81
518.69	1507.60
519.05	1532.63
519.41	1557.76
519.77	1583.20
520.13	1607.88
520.49	1632.74
520.85	1657.82
521.21	1682.76
521.57	1708.28
521.93	1733.11
522.29	1758.75
522.65	1784.18
523.01	1809.42
523.37	1833.85
523.73	1858.97
524.09	1884.32
524.45	1909.54
524.81	1934.30
525.17	1958.91
525.53	1983.15
525.89	2007.33
526.25	2031.68
526.61	2055.48
526.97	2079.59
527.33	2103.60
527.68	2127.43
528.04	2150.54
528.40	2173.46
528.76	2196.60
529.12	2218.72
529.48	2241.31
529.84	2262.08
530.20	2283.30
530.56	2304.23
530.91	2325.37
531.27	2345.95
531.63	2365.87
531.99	2385.23
532.35	2404.46
532.71	2423.86
533.07	2443.73
533.42	2462.10
533.78	2480.87
534.14	2499.62
534.50	2517.53
534.86	2536.02
535.21	2552.76
535.57	2569.33
535.93	2585.19
536.29	2599.75
536.65	2615.14
537.00	2629.43
537.36	2644.40
537.72	2658.33
538.08	2671.98
538.44	2684.51
538.79	2697.24
539.15	2708.18
539.51	2719.01
539.87	2729.21
540.22	2737.31
540.58	2745.66
540.94	2754.55
541.29	2761.95
541.65	2768.41
542.01	2774.38
542.37	2778.49
542.72	2784.49
543.08	2789.93
543.44	2795.24
543.79	2800.02
544.15	2803.82
544.51	2807.50
544.87	2810.21
545.22	2812.60
545.58	2813.93
545.94	2815.74
546.29	2816.10
546.65	2816.54
547.01	2817.16
547.36	2818.00
547.72	2819.09
548.07	2818.59
548.43	2817.51
548.79	2815.78
549.14	2814.01
549.50	2812.83
549.86	2810.67
550.21	2806.29
550.57	2802.41
550.92	2797.08
551.28	2792.24
551.64	2787.30
551.99	2782.72
552.35	2777.78
552.70	2772.35
553.06	2767.58
553.41	2762.24
553.77	2756.29
554.13	2751.19
554.48	2745.07
554.84	2737.43
555.19	2729.86
555.55	2721.62
555.90	2713.95
556.26	2707.32
556.61	2700.11
556.97	2690.71
557.32	2682.50
557.68	2674.37
558.03	2665.63
558.39	2657.70
558.74	2649.83
559.10	2640.93
559.45	2631.65
559.81	2622.44
560.16	2612.70
560.52	2602.55
560.87	2593.45
561.23	2584.01
561.58	2574.14
561.94	2564.09
562.29	2553.40
562.64	2543.22
563.00	2533.54
563.35	2523.71
563.71	2512.77
564.06	2501.48
564.42	2491.16
564.77	2480.41
565.12	2469.72
565.48	2458.72
565.83	2448.34
566.19	2438.13
566.54	2427.30
566.89	2415.70
567.25	2404.33
567.60	2393.69
567.96	2382.64
568.31	2370.23
568.66	2357.82
569.02	2346.35
569.37	2334.68
569.72	2323.57
570.08	2311.73
570.43	2299.29
570.78	2286.47
571.14	2273.72
571.49	2261.60
571.84	2249.68
572.20	2236.42
572.55	2223.76
572.90	2210.92
573.26	2197.25
573.61	2182.99
573.96	2169.01
574.31	2155.34
574.67	2141.80
575.02	2127.73
575.37	2113.34
575.72	2099.26
576.08	2085.58
576.43	2070.87
576.78	2056.18
577.13	2042.30
577.49	2028.58
577.84	2015.26
578.19	2001.16
578.54	1986.61
578.90	1971.54
579.25	1956.27
579.60	1942.47
579.95	1928.23
580.30	1914.09
580.66	1900.14
581.01	1885.68
581.36	1871.75
581.71	1858.38
582.06	1844.50
582.42	1830.83
582.77	1817.80
583.12	1804.28
583.47	1790.92
583.82	1777.69
584.17	1764.34
584.53	1750.86
584.88	1737.35
585.23	1723.50
585.58	1710.15
585.93	1697.12
586.28	1684.98
586.63	1672.60
586.98	1659.43
587.34	1646.52
587.69	1633.16
588.04	1620.05
588.39	1607.63
588.74	1594.58
589.09	1581.33
589.44	1568.10
589.79	1555.36
590.14	1542.54
590.49	1529.92
590.84	1517.17
591.19	1505.00
591.54	1492.39
591.89	1479.61
592.25	1467.13
592.60	1454.28
592.95	1441.97
593.30	1430.03
593.65	1417.88
594.00	1406.03
594.35	1394.88
594.70	1382.85
595.05	1371.77
595.40	1360.57
595.75	1348.81
596.10	1337.90
596.45	1327.25
596.80	1316.96
597.15	1306.46
597.50	1295.89
597.85	1285.57
598.19	1275.45
598.54	1264.83
598.89	1254.90
599.24	1245.21
599.59	1235.33
599.94	1226.48
600.29	1217.49
600.64	1208.25
600.99	1198.42
601.34	1188.99
601.69	1179.06
602.04	1170.29
602.39	1161.42
602.74	1152.78
603.08	1144.38
603.43	1135.45
603.78	1126.37
604.13	1117.43
604.48	1108.44
604.83	1099.77
605.18	1090.99
605.53	1082.11
605.87	1073.27
606.22	1064.71
606.57	1055.93
606.92	1047.17
607.27	1038.26
607.62	1029.50
607.96	1020.95
608.31	1013.42
608.66	1005.50
609.01	997.95
609.36	990.27
609.70	982.36
610.05	974.34
610.40	966.67
610.75	959.07
611.10	951.71
611.44	944.01
611.79	936.60
612.14	928.81
612.49	921.15
612.83	914.01
613.18	906.96
613.53	899.74
613.88	892.63
614.22	886.12
614.57	879.38
614.92	872.64
615.27	865.90
615.61	859.01
615.96	852.36
616.31	845.64
616.65	838.86
617.00	832.27
617.35	825.78
617.70	819.33
618.04	813.01
618.39	806.70
618.74	800.73
619.08	794.57
619.43	788.67
619.78	782.79
620.12	776.68
620.47	770.80
620.82	764.95
621.16	759.41
621.51	753.53
621.85	747.68
622.20	741.86
622.55	736.21
622.89	730.45
623.24	724.74
623.59	719.14
623.93	713.59
624.28	708.23
624.62	702.82
624.97	697.39
625.32	692.07
625.66	686.63
626.01	681.18
626.35	675.86
626.70	670.60
627.04	665.55
627.39	660.56
627.73	655.65
628.08	650.96
628.43	646.10
628.77	641.30
629.12	636.64
629.46	632.18
629.81	627.54
630.15	622.84
630.50	618.29
630.84	613.92
631.19	609.72
631.53	605.53
631.88	601.26
632.22	597.09
632.57	593.13
632.91	589.12
633.26	585.18
633.60	581.34
633.95	577.63
634.29	573.73
634.64	569.80
634.98	565.78
635.32	561.93
635.67	558.25
636.01	554.51
636.36	550.81
636.70	547.25
637.05	543.67
637.39	540.28
637.73	536.74
638.08	533.29
638.42	529.81
638.77	526.21
639.11	522.57
639.45	518.97
639.80	515.38
640.14	511.97
640.49	508.52
640.83	504.96
641.17	501.44
641.52	498.08
641.86	494.73
642.20	491.56
642.55	488.21
642.89	484.95
643.23	481.91
643.58	479.09
643.92	476.13
644.26	473.23
644.61	470.30
644.95	467.39
645.29	464.40
645.64	461.38
645.98	458.51
646.32	455.81
646.66	453.12
647.01	450.40
647.35	447.75
647.69	444.97
648.04	442.35
648.38	439.74
648.72	437.10
649.06	434.53
649.41	432.01
649.75	429.48
650.09	426.98
650.43	424.46
650.78	421.93
651.12	419.38
651.46	416.93
651.80	414.60
652.14	412.32
652.49	410.07
652.83	407.87
653.17	405.66
653.51	403.54
653.85	401.47
654.20	399.33
654.54	397.11
654.88	395.08
655.22	393.10
655.56	391.09
655.90	389.19
656.25	387.30
656.59	385.38
656.93	383.58
657.27	381.80
657.61	379.95
657.95	378.15
658.29	376.35
658.64	374.57
658.98	372.76
659.32	370.99
659.66	369.33
660.00	367.69
660.34	366.08
660.68	364.40
661.02	362.66
661.36	361.05
661.70	359.50
662.05	357.95
662.39	356.34
662.73	354.85
663.07	353.37
663.41	351.92
663.75	350.52
664.09	349.09
664.43	347.60
664.77	346.21
665.11	344.76
665.45	343.40
665.79	342.03
666.13	340.65
666.47	339.26
666.81	337.85
667.15	336.39
667.49	335.03
667.83	333.73
668.17	332.46
668.51	331.20
668.85	329.97
669.19	328.80
669.53	327.58
669.87	326.33
670.21	325.10
670.55	323.89
670.89	322.75
671.23	321.58
671.57	320.42
671.91	319.31
672.25	318.27
672.58	317.21
672.92	316.13
673.26	315.12
673.60	314.13
673.94	313.11
674.28	312.17
674.62	311.22
674.96	310.23
675.30	309.29
675.64	308.34
675.97	307.41
676.31	306.45
676.65	305.51
676.99	304.63
677.33	303.69
677.67	302.80
678.01	301.84
678.34	300.94
678.68	300.12
679.02	299.24
679.36	298.38
679.70	297.53
680.04	296.70
680.37	295.86
680.71	295.05
681.05	294.30
681.39	293.49
681.73	292.66
682.06	291.87
682.40	291.09
682.74	290.33
683.08	289.59
683.42	288.84
683.75	288.16
684.09	287.40
684.43	286.69
684.77	285.97
685.10	285.28
685.44	284.60
685.78	283.89
686.12	283.23
686.45	282.55
686.79	281.86
687.13	281.21
687.46	280.53
687.80	279.87
688.14	279.17
688.48	278.53
688.81	277.90
689.15	277.30
689.49	276.67
689.82	276.05
690.16	275.38
690.50	274.77
690.83	274.14
691.17	273.55
691.51	272.96
691.84	272.39
692.18	271.81
692.52	271.20
692.85	270.61
693.19	270.06
693.52	269.50
693.86	268.96
694.20	268.41
694.53	267.89
694.87	267.34
695.21	266.82
695.54	266.30
695.88	265.77
696.21	265.22
696.55	264.71
696.88	264.20
697.22	263.70
697.56	263.22
697.89	262.67
698.23	262.18
698.56	261.65
698.90	261.18
699.23	260.69
699.57	260.25
699.90	259.79
700.24	259.31
700.58	258.87
700.91	258.44
701.25	258.09
701.58	257.70
701.92	257.32
702.25	256.90
702.59	256.47
702.92	256.08
703.26	255.68
703.59	255.27
703.93	254.95
704.26	254.57
704.60	254.18
704.93	253.83
705.26	253.46
705.60	253.13
705.93	252.74
706.27	252.43
706.60	252.08
706.94	251.76
707.27	251.38
707.61	251.01
707.94	250.64
708.27	250.20
708.61	249.82
708.94	249.46
709.28	249.13
709.61	248.80
709.94	248.49
710.28	248.19
710.61	247.91
710.95	247.53
711.28	247.30
711.61	247.01
711.95	246.75
712.28	246.46
712.61	246.15
712.95	245.94
713.28	245.70
713.61	245.42
713.95	245.12
714.28	244.88
714.61	244.62
714.95	244.36
715.28	244.11
715.61	243.85
715.95	243.62
716.28	243.37
716.61	243.16
716.95	242.91
717.28	242.68
717.61	242.44
717.94	242.22
718.28	241.92
718.61	241.70
718.94	241.45
719.27	241.23
719.61	241.03
719.94	240.79
720.27	240.52
720.60	240.32
720.94	240.12
721.27	239.93
721.60	239.75
721.93	239.56
722.27	239.41
722.60	239.24
722.93	239.04
723.26	238.86
723.59	238.65
723.93	238.49
724.26	238.32
724.59	238.15
724.92	237.98
725.25	237.84
725.59	237.68
725.92	237.53
726.25	237.38
726.58	237.22
726.91	237.05
727.24	236.91
727.57	236.75
727.91	236.59
728.24	236.45
728.57	236.29
728.90	236.17
729.23	235.99
729.56	235.88
729.89	235.74
730.22	235.58
730.55	235.44
730.89	235.30
731.22	235.15
731.55	235.01
731.88	234.87
732.21	234.71
732.54	234.58
732.87	234.45
733.20	234.33
733.53	234.21
733.86	234.10
734.19	233.97
734.52	233.88
734.85	233.83
735.18	233.68
735.51	233.60
735.84	233.48
736.17	233.41
736.50	233.24
736.83	233.26
737.16	233.16
737.49	233.07
737.82	232.97
738.15	232.88
738.48	232.79
738.81	232.69
739.14	232.58
739.47	232.48
739.80	232.37
740.13	232.27
740.46	232.16
740.79	232.05
741.12	231.95
741.45	231.84
741.78	231.69
742.11	231.64
742.44	231.52
742.77	231.44
743.10	231.33
743.43	231.23
743.75	231.03
744.08	231.09
744.41	231.01
744.74	230.91
745.07	230.80
745.40	230.74
745.73	230.70
746.06	230.62
746.39	230.56
746.71	230.48
747.04	230.39
747.37	230.31
747.70	230.26
748.03	230.19
748.36	230.13
748.68	230.05
749.01	229.94
749.34	229.86
749.67	229.79
750.00	229.73
750.33	229.75
750.65	229.69
750.98	229.46
751.31	229.40
751.64	229.33
751.97	229.32
752.29	229.24
752.62	229.13
752.95	229.05
753.28	228.97
753.60	228.90
753.93	228.86
754.26	228.81
754.59	228.71
754.91	228.63
755.24	228.56
755.57	228.55
755.90	228.49
756.22	228.41
756.55	228.34
756.88	228.25
757.20	228.11
757.53	228.03
757.86	227.98
758.19	227.93
758.51	227.87
758.84	227.76
759.17	227.70
759.49	227.65
759.82	227.65
760.15	227.60
760.47	227.55
760.80	227.47
761.13	227.42
761.45	227.37
761.78	227.33
762.11	227.28
762.43	227.18
762.76	227.13
763.08	227.11
763.41	227.07
763.74	227.03
764.06	226.99
764.39	226.95
764.71	226.90
765.04	226.85
765.37	226.79
765.69	226.75
766.02	226.71
766.34	226.67
766.67	226.58
767.00	226.57
767.32	226.58
767.65	226.62
767.97	226.57
768.30	226.54
768.62	226.50
768.95	226.45
769.27	226.42
769.60	226.39
769.92	226.33
770.25	226.28
770.57	226.23
770.90	226.19
771.22	226.14
771.55	226.11
771.87	226.09
772.20	226.05
772.52	226.10
772.85	226.19
773.17	226.16
773.50	226.12
773.82	226.07
774.15	225.98
774.47	225.88
774.80	225.84
775.12	225.81
775.45	225.78
775.77	225.75
776.09	225.73
776.42	225.70
776.74	225.71
777.07	225.67
777.39	225.65
777.72	225.61
778.04	225.60
778.36	225.57
778.69	225.54
779.01	225.52
779.33	225.41
779.66	225.27
779.98	225.24
780.31	225.22
780.63	225.24
780.95	225.24
781.28	225.22
781.60	225.20
781.92	225.17
782.25	225.15
782.57	225.13
782.89	225.10
783.22	225.07
783.54	225.02
783.86	225.01
784.19	224.98
784.51	225.00
784.83	224.97
785.16	224.95
785.48	224.94
785.80	224.91
786.12	224.90
786.45	224.88
786.77	224.87
787.09	224.85
787.42	224.80
787.74	224.79
788.06	224.77
788.38	224.75
788.71	224.72
789.03	224.72
789.35	224.71
789.67	224.68
789.99	224.67
790.32	224.64
790.64	224.64
790.96	224.72
791.28	224.67
791.61	224.64
791.93	224.63
792.25	224.61
792.57	224.67
792.89	224.64
793.21	224.64
793.54	224.61
793.86	224.59
794.18	224.58
794.50	224.54
794.82	224.52
795.14	224.53
795.47	224.54
795.79	224.52
796.11	224.48
796.43	224.47
796.75	224.46
797.07	224.46
797.39	224.44
797.71	224.34
798.04	224.35
798.36	224.35
798.68	224.34
799.00	224.34
799.32	224.28
799.64	224.28
799.96	224.26
800.28	224.27
800.60	224.26
800.92	224.25
801.24	224.24
801.56	224.24
801.89	224.22
802.21	224.21
802.53	224.18
802.85	224.19
803.17	224.23
803.49	224.20
803.81	224.17
804.13	224.15
804.45	224.13
804.77	224.13
805.09	224.11
805.41	224.10
805.73	224.07
806.05	224.03
806.37	224.02
806.69	224.00
807.01	223.98
807.33	223.98
807.65	223.93
807.97	223.97
808.28	223.95
808.60	223.95
808.92	223.92
809.24	223.99
809.56	223.97
809.88	223.92
810.20	223.92
810.52	223.94
810.84	223.92
811.16	223.90
811.48	223.88
811.80	223.92
812.12	223.91
812.43	223.93
812.75	223.92
813.07	223.91
813.39	223.91
813.71	223.89
814.03	223.87
814.35	223.87
814.67	223.83
814.98	223.82
815.30	223.81
815.62	223.78
815.94	223.70
816.26	223.71
816.58	223.69
816.89	223.70
817.21	223.66
817.53	223.67
817.85	223.67
818.17	223.67
818.48	223.62
818.80	223.64
819.12	223.61
819.44	223.59
819.76	223.57
820.07	223.56
820.39	223.56
820.71	223.56
821.03	223.55
821.34	223.53
821.66	223.54
821.98	223.55
822.30	223.54
822.61	223.60
822.93	223.58
823.25	223.58
823.57	223.56
823.88	223.57
824.20	223.56
824.52	223.57
824.83	223.56
825.15	223.55
825.47	223.53
825.79	223.54
826.10	223.53
826.42	223.53
826.74	223.54
827.05	223.53
827.37	223.54
827.69	223.54
828.00	223.54
828.32	223.53
828.64	223.51
828.95	223.57
829.27	223.53
829.58	223.52
829.90	223.54
830.22	223.55
830.53	223.52
830.85	223.51
831.17	223.48
831.48	223.47
831.80	223.48
832.11	223.47
832.43	223.45
832.75	223.45
833.06	223.51
833.38	223.48
833.69	223.48
834.01	223.47
834.32	223.46
834.64	223.44
834.96	223.44
835.27	223.43
835.59	223.39
835.90	223.38
836.22	223.37
836.53	223.34
836.85	223.33
837.16	223.43
837.48	223.44
837.79	223.47
838.11	223.48
838.42	223.47
838.74	223.48
839.05	223.47
839.37	223.46
839.68	223.40
840.00	223.39
840.31	223.41
840.63	223.40
840.94	223.39
841.26	223.38
841.57	223.38
841.88	223.39
842.20	223.38
842.51	223.36
842.83	223.35
843.14	223.45
843.46	223.45
843.77	223.38
844.08	223.37
844.40	223.33
844.71	223.32
845.03	223.31
845.34	223.29
845.65	223.29
845.97	223.29
846.28	223.29
846.60	223.29
846.91	223.27
847.22	223.27
847.54	223.29
847.85	223.29
848.16	223.28
848.48	223.26
848.79	223.30
849.10	223.31
849.42	223.32
849.73	223.22
850.04	223.22
850.36	223.18
850.67	223.20
850.98	223.20
851.30	223.20
851.61	223.19
851.92	223.19
852.23	223.24
852.55	223.24
852.86	223.25
853.17	223.25
853.49	223.26
853.80	223.28
854.11	223.29
854.42	223.30
854.74	223.29
855.05	223.29
855.36	223.24
855.67	223.23
855.99	223.22
856.30	223.34
856.61	223.34
856.92	223.34
857.23	223.34
857.55	223.33
857.86	223.33
858.17	223.35
858.48	223.33
858.79	223.29
859.11	223.30
859.42	223.29
859.73	223.27
860.04	223.27
860.35	223.23
860.66	223.20
860.98	223.19
861.29	223.20
861.60	223.19
861.91	223.21
862.22	223.20
862.53	223.19
862.84	223.07
863.16	223.09
863.47	223.06
863.78	223.05
864.09	223.06
864.40	223.06
864.71	223.06
865.02	223.07
865.33	223.06
865.64	223.03
865.95	223.03
866.27	223.09
866.58	223.08
866.89	223.09
867.20	223.08
867.51	223.07
867.82	223.06
868.13	223.09
868.44	223.06
868.75	223.08
869.06	223.09
869.37	223.10
869.68	223.07
869.99	223.09
870.30	223.09
870.61	223.10
870.92	223.08
871.23	223.07
871.54	223.08
871.85	223.11
872.16	223.12
872.47	223.12
872.78	223.06
873.09	223.07
873.40	223.06
873.71	223.08
874.02	223.08
874.33	223.07
874.64	223.05
874.95	223.07
875.26	223.04
875.56	223.03
875.87	223.03
876.18	223.02
876.49	223.12
876.80	223.11
877.11	223.09
877.42	223.10
877.73	223.10
878.04	223.09
878.35	223.09
878.66	223.09
878.96	223.08
879.27	223.07
879.58	223.06
879.89	223.06
880.20	223.07
880.51	223.07
880.82	223.07
881.12	223.07
881.43	223.05
881.74	223.04
882.05	223.03
882.36	223.03
882.67	223.04
882.97	222.93
883.28	222.92
883.59	222.92
883.90	222.92
884.21	222.93
884.51	222.92
884.82	222.91
885.13	222.91
885.44	222.90
885.74	222.90
886.05	222.90
886.36	222.91
886.67	222.87
886.98	222.93
887.28	222.94
887.59	222.94
887.90	222.95
888.20	222.95
888.51	222.98
888.82	222.96
889.13	222.97
889.43	223.06
889.74	223.06
890.05	223.06
890.35	223.05
890.66	223.03
890.97	223.02
891.28	223.01
891.58	223.01
891.89	223.01
892.20	223.01
892.50	223.00
892.81	223.00
893.12	222.99
893.42	222.94
893.73	222.94
894.04	222.94
894.34	222.95
894.65	222.94
894.95	222.93
895.26	222.94
895.57	222.98
895.87	222.88
896.18	222.90
896.48	222.91
896.79	222.91
897.10	222.92
897.40	222.93
897.71	222.94
898.01	222.93
898.32	222.94
898.63	222.94
898.93	222.95
899.24	222.95
899.54	222.95
899.85	222.95
900.15	222.93
900.46	222.93
900.76	222.94
901.07	222.94
901.38	222.93
901.68	222.95
901.99	222.88
902.29	222.89
902.60	222.88
902.90	222.87
903.21	222.86
903.51	222.86
903.82	222.89
904.12	222.88
904.43	222.89
904.73	222.88
905.03	222.88
905.34	222.98
905.64	222.97
905.95	222.97
906.25	222.97
906.56	222.97
906.86	222.97
907.17	222.96
907.47	222.97
907.77	222.96
908.08	222.94
908.38	222.96
908.69	222.96
908.99	222.98
909.30	222.98
909.60	222.98
909.90	222.99
910.21	222.96
910.51	222.94
910.81	222.94
911.12	222.95
911.42	222.95
911.73	222.85
912.03	222.86
912.33	222.87
912.64	222.86
912.94	222.85
913.24	222.82
913.55	222.82
913.85	222.81
914.15	222.83
914.46	222.84
914.76	222.82
915.06	222.81
915.37	222.79
915.67	222.79
915.97	222.79
916.27	222.77
916.58	222.76
916.88	222.77
917.18	222.76
917.49	222.82
917.79	222.82
918.09	222.83
918.39	222.85
918.70	222.84
919.00	222.85
919.30	222.90
919.60	222.90
919.91	222.89
920.21	222.89
920.51	222.87
920.81	222.87
921.12	222.89
921.42	222.89
921.72	222.90
922.02	222.91
922.32	222.92
922.63	222.93
922.93	222.99
923.23	222.98
923.53	222.97
923.83	222.90
924.13	222.91
924.44	222.90
924.74	222.92
925.04	222.94
925.34	222.94
925.64	222.89
925.94	222.89
926.24	222.95
926.55	222.93
926.85	222.95
927.15	222.95
927.45	222.94
927.75	222.94
928.05	222.94
928.35	222.93
928.65	222.95
928.95	222.96
929.26	222.91
929.56	222.94
929.86	222.95
930.16	222.94
930.46	222.93
930.76	222.94
931.06	222.89
931.36	222.86
931.66	222.88
931.96	222.88
932.26	222.90
932.56	222.86
932.86	222.86
933.16	222.86
933.46	222.84
933.76	222.83
934.06	222.85
934.36	222.88
934.66	222.87
934.96	222.85
935.26	222.85
935.56	222.86
935.86	222.83
936.16	222.81
936.46	222.81
936.76	222.81
937.06	222.79
937.36	222.81
937.66	222.81
937.96	222.80
938.26	222.78
938.56	222.77
938.86	222.77
939.16	222.80
939.46	222.80
939.76	222.82
940.06	222.82
940.35	222.79
940.65	222.75
940.95	222.75
941.25	222.74
941.55	222.72
941.85	222.72
942.15	222.74
942.45	222.77
942.75	222.77
943.04	222.77
943.34	222.79
943.64	222.78
943.94	222.76
944.24	222.76
944.54	222.77
944.84	222.77
945.13	222.75
945.43	222.73
945.73	222.73
946.03	222.72
946.33	222.71
946.62	222.70
946.92	222.69
947.22	222.70
947.52	222.71
947.82	222.73
948.11	222.72
948.41	222.69
948.71	222.65
949.01	222.66
949.31	222.65
949.60	222.64
949.90	222.66
950.20	222.66
950.50	222.67
950.79	222.66
951.09	222.68
951.39	222.68
951.69	222.68
951.98	222.69
952.28	222.70
952.58	222.70
952.87	222.71
953.17	222.72
953.47	222.71
953.76	222.70
954.06	222.67
954.36	222.66
954.66	222.66
954.95	222.70
955.25	222.70
955.55	222.71
955.84	222.69
956.14	222.69
956.44	222.69
956.73	222.68
957.03	222.68
957.32	222.68
957.62	222.67
957.92	222.69
958.21	222.67
958.51	222.79
958.81	222.81
959.10	222.82
959.40	222.84
959.69	222.85
959.99	222.87
960.29	222.88
960.58	222.88
960.88	222.92
961.17	222.91
961.47	222.91
961.76	222.91
962.06	222.93
962.36	222.92
962.65	222.92
962.95	222.93
963.24	222.92
963.54	222.92
963.83	222.93
964.13	222.93
964.42	222.92
964.72	222.83
965.01	222.83
965.31	222.82
965.60	222.78
965.90	222.85
966.19	222.83
966.49	222.83
966.78	222.82
967.08	222.81
967.37	222.81
967.67	222.79
967.96	222.80
968.26	222.80
968.55	222.81
968.85	222.81
969.14	222.81
969.43	222.81
969.73	222.80
970.02	222.79
970.32	222.78
970.61	222.76
970.91	222.73
971.20	222.71
971.49	222.70
971.79	222.72
972.08	222.65
972.38	222.65
972.67	222.64
972.96	222.66
973.26	222.64
973.55	222.67
973.85	222.67
974.14	222.66
974.43	222.66
974.73	222.64
975.02	222.62
975.31	222.62
975.61	222.61
975.90	222.60
976.19	222.59
976.49	222.60
976.78	222.61
977.07	222.62
977.37	222.62
977.66	222.63
977.95	222.61
978.24	222.62
978.54	222.64
978.83	222.63
979.12	222.61
979.42	222.61
979.71	222.59
980.00	222.58
980.29	222.58
980.59	222.56
980.88	222.59
981.17	222.59
981.46	222.60
981.76	222.61
982.05	222.64
982.34	222.65
982.63	222.65
982.93	222.65
983.22	222.67
983.51	222.67
983.80	222.68
984.09	222.69
984.39	222.69
984.68	222.67
984.97	222.68
985.26	222.67
985.55	222.68
985.85	222.66
986.14	222.68
986.43	222.69
986.72	222.69
987.01	222.66
987.30	222.66
987.59	222.65
987.89	222.65
988.18	222.61
988.47	222.61
988.76	222.60
989.05	222.60
989.34	222.58
989.63	222.61
989.92	222.59
990.22	222.58
990.51	222.58
990.80	222.57
991.09	222.58
991.38	222.59
991.67	222.58
991.96	222.57
992.25	222.57
992.54	222.54
992.83	222.54
993.12	222.53
993.41	222.55
993.70	222.59
993.99	222.61
994.28	222.63
994.58	222.64
994.87	222.63
995.16	222.64
995.45	222.63
995.74	222.59
996.03	222.61
996.32	222.62
996.61	222.64
996.90	222.64
997.19	222.64
997.48	222.64
997.77	222.63
998.06	222.64
998.34	222.63
998.63	222.63
998.92	222.64
999.21	222.66
999.50	222.66
999.79	222.62
1000.08	222.62
1000.37	222.62
1000.66	222.61
1000.95	222.63
1001.24	222.63
1001.53	222.64
1001.82	222.65
1002.11	222.62
1002.40	222.63
1002.68	222.65
1002.97	222.72
1003.26	222.71
1003.55	222.70
1003.84	222.71
1004.13	222.74
1004.42	222.74
1004.71	222.74
1004.99	222.73
1005.28	222.75
1005.57	222.75
1005.86	222.73
1006.15	222.72
1006.44	222.70
1006.72	222.72
1007.01	222.70
1007.30	222.70
1007.59	222.69
1007.88	222.69
1008.17	222.70
1008.45	222.68
1008.74	222.63
1009.03	222.58
1009.32	222.58
1009.60	222.58
1009.89	222.57
1010.18	222.53
1010.47	222.52
1010.76	222.52
1011.04	222.52
1011.33	222.52
1011.62	222.52
1011.91	222.54
1012.19	222.54
1012.48	222.55
1012.77	222.54
1013.05	222.58
1013.34	222.59
1013.63	222.58
1013.92	222.59
1014.20	222.58
1014.49	222.59
1014.78	222.60
1015.06	222.56
1015.35	222.57
1015.64	222.57
1015.92	222.59
1016.21	222.60
1016.50	222.60
1016.78	222.62
1017.07	222.63
1017.36	222.61
1017.64	222.60
1017.93	222.60
1018.22	222.59
1018.50	222.59
1018.79	222.59
1019.08	222.54
1019.36	222.54
1019.65	222.53
1019.93	222.56
1020.22	222.57
1020.51	222.62
1020.79	222.61
1021.08	222.45
1021.36	222.40
1021.65	222.60
1021.94	222.42
1022.22	222.52
1022.51	222.40
1022.79	223.01
1023.08	222.73
1023.36	223.79
1023.65	222.28
>>>>>End Processed Spectral Data<<<<<
