SpectraSuite Data File
++++++++++++++++++++++++++++++++++++
Date: Wed Sep 30 15:38:44 EDT 2015
User: lab3
Dark Spectrum Present: No
Reference Spectrum Present: No
Number of Sampled Component Spectra: 1
Spectrometers: USB2E7196
Integration Time (usec): 36000 (USB2E7196)
Spectra Averaged: 1500 (USB2E7196)
Boxcar Smoothing: 10 (USB2E7196)
Correct for Electrical Dark: No (USB2E7196)
Strobe/Lamp Enabled: No (USB2E7196)
Correct for Detector Non-linearity: No (USB2E7196)
Correct for Stray Light: No (USB2E7196)
Number of Pixels in Processed Spectrum: 2048
>>>>>Begin Processed Spectral Data<<<<<
339.09	0.00
339.48	211.41
339.86	212.83
340.24	214.44
340.63	215.73
341.01	218.60
341.39	218.39
341.78	219.82
342.16	221.02
342.54	221.53
342.93	210.01
343.31	220.62
343.69	221.15
344.07	221.63
344.46	222.06
344.84	222.45
345.22	222.70
345.60	222.96
345.99	223.14
346.37	223.28
346.75	223.39
347.13	223.48
347.52	223.54
347.90	223.62
348.28	223.66
348.66	223.72
349.05	223.73
349.43	223.78
349.81	223.84
350.19	223.89
350.57	223.96
350.96	224.05
351.34	224.14
351.72	224.25
352.10	224.35
352.48	224.43
352.87	224.48
353.25	224.54
353.63	224.60
354.01	224.68
354.39	224.76
354.77	224.84
355.15	224.95
355.54	225.01
355.92	225.05
356.30	225.13
356.68	225.26
357.06	225.34
357.44	225.40
357.82	225.46
358.20	225.57
358.58	225.63
358.97	225.69
359.35	225.78
359.73	225.86
360.11	225.91
360.49	225.97
360.87	226.03
361.25	226.10
361.63	226.18
362.01	226.22
362.39	226.25
362.77	226.29
363.15	226.32
363.53	226.35
363.91	226.39
364.29	226.41
364.67	226.33
365.05	226.35
365.43	226.37
365.81	226.40
366.19	226.42
366.57	226.47
366.95	226.47
367.33	226.45
367.71	226.44
368.09	226.46
368.47	226.44
368.85	226.43
369.23	226.44
369.61	226.39
369.99	226.40
370.37	226.40
370.75	226.45
371.13	226.41
371.51	226.37
371.89	226.35
372.27	226.33
372.65	226.30
373.03	226.25
373.41	226.21
373.78	226.16
374.16	226.07
374.54	225.98
374.92	225.93
375.30	225.89
375.68	225.82
376.06	225.77
376.44	225.71
376.82	225.66
377.19	225.61
377.57	225.56
377.95	225.47
378.33	225.41
378.71	225.27
379.09	225.22
379.47	225.18
379.84	225.12
380.22	225.07
380.60	225.00
380.98	224.94
381.36	224.88
381.73	224.81
382.11	224.78
382.49	224.75
382.87	224.68
383.25	224.63
383.62	224.70
384.00	224.64
384.38	224.60
384.76	224.58
385.13	224.56
385.51	224.51
385.89	224.46
386.27	224.43
386.64	224.40
387.02	224.35
387.40	224.30
387.78	224.27
388.15	224.24
388.53	224.21
388.91	224.18
389.29	224.15
389.66	224.14
390.04	224.10
390.42	224.09
390.79	224.07
391.17	224.06
391.55	223.92
391.92	223.90
392.30	223.90
392.68	223.86
393.05	223.85
393.43	223.87
393.81	223.87
394.18	223.85
394.56	223.85
394.94	223.88
395.31	223.88
395.69	223.91
396.06	223.94
396.44	223.96
396.82	223.97
397.19	224.06
397.57	224.08
397.95	224.12
398.32	224.11
398.70	224.16
399.07	224.21
399.45	224.25
399.82	224.29
400.20	224.33
400.58	224.38
400.95	224.39
401.33	224.46
401.70	224.59
402.08	224.68
402.45	224.76
402.83	224.88
403.20	224.98
403.58	225.07
403.95	225.19
404.33	225.32
404.71	225.44
405.08	225.61
405.46	225.75
405.83	225.93
406.21	226.09
406.58	226.29
406.96	226.48
407.33	226.69
407.70	226.95
408.08	227.27
408.45	227.57
408.83	227.87
409.20	228.15
409.58	228.40
409.95	228.75
410.33	229.13
410.70	229.47
411.08	229.89
411.45	230.33
411.82	230.78
412.20	231.29
412.57	231.90
412.95	232.37
413.32	233.00
413.69	233.63
414.07	234.31
414.44	235.04
414.82	235.80
415.19	236.69
415.56	237.58
415.94	238.52
416.31	239.56
416.68	240.61
417.06	241.84
417.43	242.98
417.81	244.30
418.18	245.63
418.55	247.10
418.93	248.62
419.30	250.22
419.67	251.90
420.04	253.65
420.42	255.46
420.79	257.58
421.16	259.71
421.54	261.87
421.91	264.13
422.28	266.48
422.66	269.01
423.03	271.41
423.40	273.94
423.77	276.66
424.15	279.44
424.52	282.34
424.89	285.47
425.26	288.60
425.64	291.50
426.01	294.76
426.38	298.09
426.75	301.55
427.13	305.07
427.50	308.76
427.87	312.62
428.24	316.51
428.61	320.22
428.99	324.23
429.36	328.63
429.73	332.84
430.10	337.05
430.47	341.33
430.85	345.75
431.22	350.45
431.59	355.28
431.96	360.01
432.33	365.24
432.70	370.21
433.08	376.07
433.45	381.60
433.82	387.04
434.19	393.14
434.56	399.12
434.93	404.90
435.30	410.58
435.68	416.97
436.05	423.23
436.42	429.50
436.79	435.23
437.16	441.41
437.53	448.00
437.90	454.58
438.27	461.02
438.64	467.98
439.01	474.29
439.38	480.02
439.75	485.54
440.13	491.84
440.50	497.80
440.87	502.51
441.24	507.70
441.61	513.44
441.98	517.62
442.35	522.59
442.72	527.67
443.09	532.52
443.46	535.63
443.83	537.92
444.20	539.84
444.57	542.63
444.94	544.26
445.31	545.95
445.68	547.46
446.05	548.55
446.42	548.34
446.79	547.97
447.16	547.67
447.53	547.46
447.90	545.55
448.27	543.78
448.64	541.00
449.01	539.15
449.37	535.12
449.74	531.48
450.11	526.78
450.48	521.66
450.85	516.53
451.22	512.16
451.59	507.86
451.96	503.93
452.33	498.25
452.70	493.18
453.07	487.01
453.43	480.83
453.80	474.86
454.17	469.13
454.54	463.86
454.91	457.89
455.28	452.24
455.65	446.93
456.02	441.25
456.38	436.68
456.75	430.77
457.12	426.06
457.49	421.30
457.86	416.75
458.23	412.75
458.59	408.33
458.96	403.80
459.33	399.84
459.70	395.82
460.07	392.73
460.43	389.11
460.80	385.71
461.17	382.73
461.54	379.51
461.91	376.49
462.27	373.42
462.64	370.91
463.01	368.02
463.38	365.11
463.74	362.48
464.11	360.14
464.48	358.02
464.85	355.73
465.21	353.98
465.58	352.05
465.95	349.84
466.32	348.07
466.68	346.34
467.05	344.60
467.42	342.89
467.78	341.08
468.15	339.38
468.52	338.14
468.88	336.50
469.25	334.98
469.62	333.79
469.98	332.50
470.35	331.35
470.72	330.33
471.08	329.26
471.45	328.40
471.82	327.44
472.18	326.45
472.55	325.81
472.92	325.02
473.28	324.40
473.65	323.77
474.02	323.16
474.38	322.64
474.75	322.36
475.11	321.96
475.48	321.81
475.85	321.64
476.21	321.59
476.58	321.59
476.94	321.79
477.31	321.91
477.67	322.06
478.04	322.31
478.41	322.64
478.77	323.12
479.14	323.47
479.50	324.03
479.87	324.73
480.23	325.45
480.60	326.12
480.96	326.83
481.33	327.80
481.69	328.78
482.06	329.77
482.42	330.70
482.79	331.80
483.15	333.07
483.52	334.52
483.88	335.90
484.25	337.37
484.61	338.88
484.98	340.52
485.34	342.36
485.71	344.27
486.07	346.32
486.44	348.32
486.80	350.54
487.17	352.85
487.53	355.38
487.90	358.00
488.26	360.85
488.62	363.86
488.99	366.88
489.35	370.02
489.72	373.42
490.08	376.98
490.44	380.63
490.81	384.43
491.17	388.35
491.54	392.53
491.90	396.83
492.26	401.46
492.63	406.34
492.99	411.38
493.36	416.56
493.72	421.98
494.08	427.60
494.45	433.52
494.81	439.64
495.17	445.87
495.54	452.47
495.90	459.37
496.26	466.41
496.63	473.70
496.99	481.33
497.35	489.30
497.72	497.52
498.08	505.95
498.44	514.62
498.80	523.80
499.17	533.21
499.53	542.95
499.89	552.93
500.26	563.13
500.62	573.57
500.98	584.69
501.34	595.98
501.71	607.74
502.07	619.73
502.43	632.07
502.79	644.80
503.16	657.92
503.52	671.19
503.88	684.83
504.24	698.88
504.60	713.14
504.97	727.75
505.33	742.85
505.69	758.78
506.05	774.97
506.41	791.23
506.78	807.72
507.14	824.69
507.50	842.10
507.86	859.83
508.22	877.88
508.59	895.98
508.95	914.77
509.31	934.02
509.67	954.00
510.03	974.20
510.39	994.50
510.75	1014.97
511.12	1035.67
511.48	1056.64
511.84	1077.88
512.20	1099.43
512.56	1122.06
512.92	1144.64
513.28	1166.96
513.64	1189.56
514.00	1212.59
514.37	1235.98
514.73	1259.36
515.09	1282.51
515.45	1306.03
515.81	1330.06
516.17	1354.12
516.53	1377.86
516.89	1401.63
517.25	1425.55
517.61	1449.62
517.97	1473.89
518.33	1498.12
518.69	1522.63
519.05	1547.24
519.41	1571.77
519.77	1596.58
520.13	1620.51
520.49	1644.80
520.85	1669.29
521.21	1693.49
521.57	1718.16
521.93	1741.94
522.29	1766.36
522.65	1790.70
523.01	1814.82
523.37	1838.07
523.73	1861.98
524.09	1886.15
524.45	1910.15
524.81	1933.58
525.17	1956.88
525.53	1979.81
525.89	2002.48
526.25	2025.17
526.61	2047.23
526.97	2069.67
527.33	2091.90
527.68	2114.09
528.04	2135.58
528.40	2156.64
528.76	2177.94
529.12	2198.25
529.48	2219.22
529.84	2238.34
530.20	2257.81
530.56	2276.90
530.91	2296.32
531.27	2315.12
531.63	2332.97
531.99	2350.36
532.35	2367.70
532.71	2385.13
533.07	2402.98
533.42	2419.46
533.78	2436.30
534.14	2453.23
534.50	2469.23
534.86	2485.83
535.21	2500.54
535.57	2514.79
535.93	2528.66
536.29	2541.15
536.65	2554.44
537.00	2566.84
537.36	2579.82
537.72	2591.77
538.08	2603.53
538.44	2614.26
538.79	2625.09
539.15	2634.26
539.51	2643.08
539.87	2651.04
540.22	2657.00
540.58	2663.21
540.94	2669.84
541.29	2675.05
541.65	2679.47
542.01	2683.50
542.37	2685.78
542.72	2689.83
543.08	2693.31
543.44	2696.46
543.79	2699.48
544.15	2701.26
544.51	2702.78
544.87	2703.55
545.22	2704.27
545.58	2704.02
545.94	2703.83
546.29	2702.32
546.65	2700.91
547.01	2699.74
547.36	2699.12
547.72	2698.86
548.07	2697.24
548.43	2694.85
548.79	2691.71
549.14	2688.51
549.50	2685.84
549.86	2682.12
550.21	2676.71
550.57	2671.78
550.92	2665.60
551.28	2659.69
551.64	2653.88
551.99	2648.30
552.35	2642.58
552.70	2636.00
553.06	2630.07
553.41	2623.80
553.77	2616.92
554.13	2610.97
554.48	2603.96
554.84	2595.45
555.19	2586.86
555.55	2577.60
555.90	2568.95
556.26	2561.26
556.61	2552.92
556.97	2542.69
557.32	2533.84
557.68	2524.71
558.03	2515.43
558.39	2506.86
558.74	2498.17
559.10	2488.65
559.45	2478.46
559.81	2468.38
560.16	2457.98
560.52	2447.26
560.87	2437.39
561.23	2427.20
561.58	2416.80
561.94	2406.37
562.29	2395.25
562.64	2384.60
563.00	2374.30
563.35	2364.16
563.71	2353.01
564.06	2341.98
564.42	2331.61
564.77	2320.76
565.12	2309.91
565.48	2298.60
565.83	2287.96
566.19	2277.55
566.54	2266.35
566.89	2254.83
567.25	2243.60
567.60	2233.15
567.96	2222.20
568.31	2210.15
568.66	2198.09
569.02	2186.78
569.37	2175.31
569.72	2164.44
570.08	2153.04
570.43	2141.12
570.78	2128.66
571.14	2116.55
571.49	2104.63
571.84	2092.80
572.20	2079.89
572.55	2067.71
572.90	2055.31
573.26	2042.14
573.61	2028.45
573.96	2015.28
574.31	2002.17
574.67	1989.02
575.02	1975.38
575.37	1961.56
575.72	1948.13
576.08	1934.81
576.43	1920.62
576.78	1906.66
577.13	1893.27
577.49	1879.88
577.84	1867.05
578.19	1853.52
578.54	1839.59
578.90	1825.33
579.25	1810.89
579.60	1797.65
579.95	1784.10
580.30	1770.83
580.66	1757.59
581.01	1744.11
581.36	1730.82
581.71	1718.35
582.06	1705.36
582.42	1692.71
582.77	1680.26
583.12	1667.26
583.47	1654.87
583.82	1642.49
584.17	1629.88
584.53	1617.24
584.88	1604.79
585.23	1591.74
585.58	1579.41
585.93	1567.23
586.28	1555.74
586.63	1544.14
586.98	1531.79
587.34	1519.69
587.69	1507.14
588.04	1495.13
588.39	1483.40
588.74	1471.18
589.09	1458.74
589.44	1446.25
589.79	1434.12
590.14	1422.25
590.49	1410.58
590.84	1398.75
591.19	1387.36
591.54	1375.52
591.89	1363.72
592.25	1352.23
592.60	1340.49
592.95	1329.03
593.30	1317.98
593.65	1306.78
594.00	1295.97
594.35	1285.69
594.70	1274.54
595.05	1264.08
595.40	1253.37
595.75	1242.45
596.10	1232.50
596.45	1222.67
596.80	1213.22
597.15	1203.58
597.50	1193.77
597.85	1184.26
598.19	1174.80
598.54	1165.15
598.89	1156.17
599.24	1147.24
599.59	1138.12
599.94	1129.99
600.29	1121.67
600.64	1113.18
600.99	1104.07
601.34	1095.28
601.69	1086.27
602.04	1078.28
602.39	1070.32
602.74	1062.46
603.08	1054.77
603.43	1046.63
603.78	1038.41
604.13	1030.32
604.48	1022.13
604.83	1014.20
605.18	1006.23
605.53	998.30
605.87	990.22
606.22	982.40
606.57	974.44
606.92	966.36
607.27	958.22
607.62	950.35
607.96	942.65
608.31	935.98
608.66	928.97
609.01	922.16
609.36	915.21
609.70	908.06
610.05	900.83
610.40	893.89
610.75	886.92
611.10	880.19
611.44	873.21
611.79	866.47
612.14	859.49
612.49	852.64
612.83	846.11
613.18	839.73
613.53	833.27
613.88	826.94
614.22	821.14
614.57	815.05
614.92	808.98
615.27	802.91
615.61	796.64
615.96	790.62
616.31	784.50
616.65	778.32
617.00	772.33
617.35	766.47
617.70	760.67
618.04	755.02
618.39	749.35
618.74	743.97
619.08	738.47
619.43	733.13
619.78	727.73
620.12	722.31
620.47	717.03
620.82	711.80
621.16	706.78
621.51	701.47
621.85	696.19
622.20	690.97
622.55	685.83
622.89	680.58
623.24	675.39
623.59	670.35
623.93	665.45
624.28	660.70
624.62	655.89
624.97	651.04
625.32	646.31
625.66	641.49
626.01	636.64
626.35	631.93
626.70	627.27
627.04	622.87
627.39	618.41
627.73	614.03
628.08	609.81
628.43	605.38
628.77	600.99
629.12	596.80
629.46	592.71
629.81	588.53
630.15	584.35
630.50	580.30
630.84	576.40
631.19	572.56
631.53	568.79
631.88	564.96
632.22	561.20
632.57	557.60
632.91	553.94
633.26	550.36
633.60	546.84
633.95	543.45
634.29	539.85
634.64	536.27
634.98	532.67
635.32	529.18
635.67	525.89
636.01	522.59
636.36	519.25
636.70	516.07
637.05	512.90
637.39	509.83
637.73	506.63
638.08	503.53
638.42	500.42
638.77	497.17
639.11	493.87
639.45	490.67
639.80	487.47
640.14	484.40
640.49	481.31
640.83	478.10
641.17	474.97
641.52	471.97
641.86	468.96
642.20	466.08
642.55	463.06
642.89	460.12
643.23	457.36
643.58	454.84
643.92	452.15
644.26	449.49
644.61	446.84
644.95	444.22
645.29	441.49
645.64	438.78
645.98	436.22
646.32	433.83
646.66	431.38
647.01	428.94
647.35	426.57
647.69	424.12
648.04	421.83
648.38	419.51
648.72	417.17
649.06	414.91
649.41	412.65
649.75	410.40
650.09	408.19
650.43	405.93
650.78	403.66
651.12	401.39
651.46	399.25
651.80	397.16
652.14	395.13
652.49	393.15
652.83	391.23
653.17	389.25
653.51	387.33
653.85	385.47
654.20	383.53
654.54	381.53
654.88	379.69
655.22	377.88
655.56	376.07
655.90	374.33
656.25	372.60
656.59	370.89
656.93	369.27
657.27	367.66
657.61	366.00
657.95	364.39
658.29	362.77
658.64	361.13
658.98	359.51
659.32	357.90
659.66	356.39
660.00	354.88
660.34	353.44
660.68	351.90
661.02	350.31
661.36	348.88
661.70	347.46
662.05	346.04
662.39	344.59
662.73	343.24
663.07	341.94
663.41	340.65
663.75	339.37
664.09	338.09
664.43	336.74
664.77	335.50
665.11	334.19
665.45	332.95
665.79	331.73
666.13	330.49
666.47	329.25
666.81	327.99
667.15	326.67
667.49	325.42
667.83	324.25
668.17	323.12
668.51	321.98
668.85	320.88
669.19	319.85
669.53	318.75
669.87	317.61
670.21	316.50
670.55	315.40
670.89	314.36
671.23	313.30
671.57	312.27
671.91	311.27
672.25	310.32
672.58	309.38
672.92	308.41
673.26	307.52
673.60	306.62
673.94	305.70
674.28	304.87
674.62	304.00
674.96	303.11
675.30	302.28
675.64	301.42
675.97	300.58
676.31	299.70
676.65	298.88
676.99	298.11
677.33	297.28
677.67	296.50
678.01	295.64
678.34	294.84
678.68	294.08
679.02	293.29
679.36	292.52
679.70	291.74
680.04	290.98
680.37	290.21
680.71	289.49
681.05	288.81
681.39	288.08
681.73	287.34
682.06	286.63
682.40	285.93
682.74	285.25
683.08	284.60
683.42	283.95
683.75	283.32
684.09	282.62
684.43	281.97
684.77	281.32
685.10	280.69
685.44	280.08
685.78	279.47
686.12	278.88
686.45	278.27
686.79	277.67
687.13	277.08
687.46	276.47
687.80	275.89
688.14	275.26
688.48	274.70
688.81	274.12
689.15	273.59
689.49	273.02
689.82	272.45
690.16	271.84
690.50	271.27
690.83	270.71
691.17	270.16
691.51	269.62
691.84	269.09
692.18	268.55
692.52	267.98
692.85	267.43
693.19	266.94
693.52	266.44
693.86	265.94
694.20	265.44
694.53	264.98
694.87	264.48
695.21	264.00
695.54	263.52
695.88	263.04
696.21	262.52
696.55	262.06
696.88	261.59
697.22	261.14
697.56	260.68
697.89	260.19
698.23	259.74
698.56	259.28
698.90	258.86
699.23	258.42
699.57	258.02
699.90	257.61
700.24	257.16
700.58	256.75
700.91	256.37
701.25	256.05
701.58	255.68
701.92	255.32
702.25	254.94
702.59	254.55
702.92	254.18
703.26	253.82
703.59	253.45
703.93	253.18
704.26	252.83
704.60	252.48
704.93	252.14
705.26	251.79
705.60	251.48
705.93	251.13
706.27	250.84
706.60	250.53
706.94	250.23
707.27	249.88
707.61	249.54
707.94	249.20
708.27	248.80
708.61	248.45
708.94	248.11
709.28	247.81
709.61	247.52
709.94	247.25
710.28	246.97
710.61	246.71
710.95	246.34
711.28	246.14
711.61	245.87
711.95	245.63
712.28	245.36
712.61	245.08
712.95	244.88
713.28	244.66
713.61	244.40
713.95	244.14
714.28	243.91
714.61	243.66
714.95	243.43
715.28	243.19
715.61	242.96
715.95	242.75
716.28	242.52
716.61	242.32
716.95	242.09
717.28	241.89
717.61	241.66
717.94	241.46
718.28	241.18
718.61	240.97
718.94	240.75
719.27	240.55
719.61	240.37
719.94	240.14
720.27	239.91
720.60	239.71
720.94	239.52
721.27	239.34
721.60	239.19
721.93	239.01
722.27	238.88
722.60	238.71
722.93	238.52
723.26	238.35
723.59	238.15
723.93	237.98
724.26	237.82
724.59	237.66
724.92	237.51
725.25	237.39
725.59	237.23
725.92	237.11
726.25	236.96
726.58	236.82
726.91	236.66
727.24	236.51
727.57	236.37
727.91	236.21
728.24	236.09
728.57	235.93
728.90	235.81
729.23	235.63
729.56	235.54
729.89	235.41
730.22	235.28
730.55	235.15
730.89	235.03
731.22	234.90
731.55	234.77
731.88	234.65
732.21	234.51
732.54	234.39
732.87	234.27
733.20	234.15
733.53	234.04
733.86	233.94
734.19	233.83
734.52	233.74
734.85	233.70
735.18	233.58
735.51	233.50
735.84	233.40
736.17	233.33
736.50	233.18
736.83	233.20
737.16	233.10
737.49	233.01
737.82	232.91
738.15	232.83
738.48	232.74
738.81	232.65
739.14	232.54
739.47	232.45
739.80	232.36
740.13	232.28
740.46	232.17
740.79	232.07
741.12	231.98
741.45	231.87
741.78	231.73
742.11	231.67
742.44	231.57
742.77	231.49
743.10	231.40
743.43	231.32
743.75	231.13
744.08	231.21
744.41	231.13
744.74	231.04
745.07	230.95
745.40	230.89
745.73	230.84
746.06	230.78
746.39	230.72
746.71	230.64
747.04	230.56
747.37	230.49
747.70	230.44
748.03	230.37
748.36	230.32
748.68	230.24
749.01	230.14
749.34	230.06
749.67	230.00
750.00	229.95
750.33	229.96
750.65	229.90
750.98	229.69
751.31	229.63
751.64	229.57
751.97	229.56
752.29	229.49
752.62	229.39
752.95	229.31
753.28	229.24
753.60	229.17
753.93	229.13
754.26	229.08
754.59	229.00
754.91	228.92
755.24	228.85
755.57	228.85
755.90	228.78
756.22	228.72
756.55	228.65
756.88	228.57
757.20	228.44
757.53	228.35
757.86	228.31
758.19	228.25
758.51	228.20
758.84	228.09
759.17	228.03
759.49	227.98
759.82	227.98
760.15	227.94
760.47	227.89
760.80	227.81
761.13	227.77
761.45	227.73
761.78	227.69
762.11	227.66
762.43	227.55
762.76	227.52
763.08	227.49
763.41	227.45
763.74	227.42
764.06	227.37
764.39	227.34
764.71	227.30
765.04	227.24
765.37	227.20
765.69	227.16
766.02	227.11
766.34	227.07
766.67	226.99
767.00	226.97
767.32	226.99
767.65	227.01
767.97	226.96
768.30	226.92
768.62	226.90
768.95	226.84
769.27	226.81
769.60	226.79
769.92	226.73
770.25	226.69
770.57	226.64
770.90	226.61
771.22	226.56
771.55	226.52
771.87	226.50
772.20	226.46
772.52	226.52
772.85	226.62
773.17	226.59
773.50	226.56
773.82	226.52
774.15	226.44
774.47	226.35
774.80	226.32
775.12	226.29
775.45	226.26
775.77	226.23
776.09	226.21
776.42	226.18
776.74	226.18
777.07	226.15
777.39	226.12
777.72	226.09
778.04	226.08
778.36	226.05
778.69	226.03
779.01	226.02
779.33	225.91
779.66	225.77
779.98	225.75
780.31	225.73
780.63	225.75
780.95	225.75
781.28	225.73
781.60	225.70
781.92	225.68
782.25	225.66
782.57	225.65
782.89	225.63
783.22	225.61
783.54	225.57
783.86	225.57
784.19	225.56
784.51	225.57
784.83	225.54
785.16	225.51
785.48	225.50
785.80	225.48
786.12	225.47
786.45	225.46
786.77	225.45
787.09	225.43
787.42	225.37
787.74	225.35
788.06	225.34
788.38	225.32
788.71	225.30
789.03	225.29
789.35	225.28
789.67	225.26
789.99	225.24
790.32	225.21
790.64	225.20
790.96	225.28
791.28	225.23
791.61	225.21
791.93	225.21
792.25	225.19
792.57	225.24
792.89	225.21
793.21	225.20
793.54	225.18
793.86	225.14
794.18	225.14
794.50	225.11
794.82	225.09
795.14	225.09
795.47	225.10
795.79	225.09
796.11	225.06
796.43	225.05
796.75	225.03
797.07	225.02
797.39	225.00
797.71	224.90
798.04	224.88
798.36	224.88
798.68	224.87
799.00	224.87
799.32	224.81
799.64	224.82
799.96	224.79
800.28	224.80
800.60	224.79
800.92	224.79
801.24	224.77
801.56	224.77
801.89	224.76
802.21	224.75
802.53	224.72
802.85	224.73
803.17	224.77
803.49	224.74
803.81	224.74
804.13	224.72
804.45	224.70
804.77	224.70
805.09	224.69
805.41	224.68
805.73	224.65
806.05	224.62
806.37	224.60
806.69	224.60
807.01	224.58
807.33	224.57
807.65	224.53
807.97	224.56
808.28	224.54
808.60	224.53
808.92	224.51
809.24	224.56
809.56	224.53
809.88	224.49
810.20	224.49
810.52	224.50
810.84	224.48
811.16	224.47
811.48	224.45
811.80	224.48
812.12	224.47
812.43	224.48
812.75	224.49
813.07	224.47
813.39	224.46
813.71	224.45
814.03	224.44
814.35	224.44
814.67	224.38
814.98	224.37
815.30	224.36
815.62	224.34
815.94	224.27
816.26	224.27
816.58	224.25
816.89	224.25
817.21	224.21
817.53	224.22
817.85	224.21
818.17	224.21
818.48	224.16
818.80	224.17
819.12	224.15
819.44	224.13
819.76	224.11
820.07	224.11
820.39	224.11
820.71	224.11
821.03	224.11
821.34	224.11
821.66	224.12
821.98	224.13
822.30	224.12
822.61	224.17
822.93	224.15
823.25	224.15
823.57	224.14
823.88	224.16
824.20	224.15
824.52	224.17
824.83	224.15
825.15	224.14
825.47	224.13
825.79	224.15
826.10	224.13
826.42	224.13
826.74	224.13
827.05	224.12
827.37	224.12
827.69	224.11
828.00	224.11
828.32	224.10
828.64	224.09
828.95	224.14
829.27	224.12
829.58	224.12
829.90	224.13
830.22	224.14
830.53	224.11
830.85	224.11
831.17	224.08
831.48	224.09
831.80	224.09
832.11	224.08
832.43	224.04
832.75	224.05
833.06	224.10
833.38	224.08
833.69	224.08
834.01	224.07
834.32	224.07
834.64	224.05
834.96	224.04
835.27	224.05
835.59	224.01
835.90	223.97
836.22	223.96
836.53	223.94
836.85	223.93
837.16	224.02
837.48	224.02
837.79	224.05
838.11	224.06
838.42	224.05
838.74	224.06
839.05	224.06
839.37	224.05
839.68	223.98
840.00	223.97
840.31	223.98
840.63	223.97
840.94	223.96
841.26	223.95
841.57	223.95
841.88	223.94
842.20	223.92
842.51	223.92
842.83	223.91
843.14	224.00
843.46	223.99
843.77	223.93
844.08	223.93
844.40	223.89
844.71	223.87
845.03	223.86
845.34	223.85
845.65	223.83
845.97	223.84
846.28	223.84
846.60	223.84
846.91	223.83
847.22	223.83
847.54	223.85
847.85	223.86
848.16	223.84
848.48	223.81
848.79	223.86
849.10	223.87
849.42	223.87
849.73	223.76
850.04	223.76
850.36	223.72
850.67	223.73
850.98	223.73
851.30	223.73
851.61	223.72
851.92	223.72
852.23	223.75
852.55	223.76
852.86	223.75
853.17	223.76
853.49	223.78
853.80	223.80
854.11	223.80
854.42	223.81
854.74	223.79
855.05	223.80
855.36	223.74
855.67	223.74
855.99	223.75
856.30	223.89
856.61	223.89
856.92	223.89
857.23	223.90
857.55	223.90
857.86	223.89
858.17	223.91
858.48	223.89
858.79	223.87
859.11	223.87
859.42	223.87
859.73	223.87
860.04	223.86
860.35	223.82
860.66	223.80
860.98	223.80
861.29	223.83
861.60	223.82
861.91	223.84
862.22	223.82
862.53	223.79
862.84	223.67
863.16	223.68
863.47	223.67
863.78	223.65
864.09	223.65
864.40	223.66
864.71	223.66
865.02	223.68
865.33	223.67
865.64	223.65
865.95	223.65
866.27	223.71
866.58	223.71
866.89	223.72
867.20	223.72
867.51	223.70
867.82	223.68
868.13	223.71
868.44	223.69
868.75	223.72
869.06	223.72
869.37	223.73
869.68	223.71
869.99	223.73
870.30	223.73
870.61	223.74
870.92	223.73
871.23	223.72
871.54	223.73
871.85	223.76
872.16	223.76
872.47	223.74
872.78	223.68
873.09	223.69
873.40	223.68
873.71	223.68
874.02	223.70
874.33	223.69
874.64	223.66
874.95	223.67
875.26	223.64
875.56	223.65
875.87	223.63
876.18	223.62
876.49	223.73
876.80	223.71
877.11	223.69
877.42	223.69
877.73	223.71
878.04	223.70
878.35	223.69
878.66	223.70
878.96	223.71
879.27	223.71
879.58	223.69
879.89	223.68
880.20	223.72
880.51	223.70
880.82	223.71
881.12	223.70
881.43	223.69
881.74	223.68
882.05	223.67
882.36	223.67
882.67	223.68
882.97	223.56
883.28	223.55
883.59	223.55
883.90	223.56
884.21	223.56
884.51	223.55
884.82	223.52
885.13	223.52
885.44	223.51
885.74	223.51
886.05	223.51
886.36	223.51
886.67	223.46
886.98	223.53
887.28	223.53
887.59	223.53
887.90	223.53
888.20	223.53
888.51	223.55
888.82	223.54
889.13	223.55
889.43	223.64
889.74	223.63
890.05	223.63
890.35	223.62
890.66	223.60
890.97	223.60
891.28	223.59
891.58	223.59
891.89	223.59
892.20	223.58
892.50	223.57
892.81	223.57
893.12	223.57
893.42	223.52
893.73	223.52
894.04	223.51
894.34	223.52
894.65	223.51
894.95	223.50
895.26	223.51
895.57	223.54
895.87	223.43
896.18	223.46
896.48	223.45
896.79	223.45
897.10	223.47
897.40	223.48
897.71	223.49
898.01	223.47
898.32	223.48
898.63	223.49
898.93	223.50
899.24	223.50
899.54	223.50
899.85	223.49
900.15	223.48
900.46	223.49
900.76	223.50
901.07	223.51
901.38	223.51
901.68	223.52
901.99	223.47
902.29	223.49
902.60	223.47
902.90	223.47
903.21	223.47
903.51	223.46
903.82	223.47
904.12	223.48
904.43	223.49
904.73	223.47
905.03	223.47
905.34	223.56
905.64	223.56
905.95	223.56
906.25	223.56
906.56	223.56
906.86	223.56
907.17	223.55
907.47	223.54
907.77	223.54
908.08	223.52
908.38	223.53
908.69	223.54
908.99	223.55
909.30	223.56
909.60	223.55
909.90	223.56
910.21	223.52
910.51	223.51
910.81	223.50
911.12	223.51
911.42	223.51
911.73	223.41
912.03	223.41
912.33	223.43
912.64	223.41
912.94	223.40
913.24	223.39
913.55	223.38
913.85	223.37
914.15	223.39
914.46	223.40
914.76	223.38
915.06	223.37
915.37	223.36
915.67	223.36
915.97	223.37
916.27	223.34
916.58	223.35
916.88	223.34
917.18	223.34
917.49	223.41
917.79	223.41
918.09	223.42
918.39	223.44
918.70	223.43
919.00	223.45
919.30	223.49
919.60	223.48
919.91	223.47
920.21	223.48
920.51	223.45
920.81	223.44
921.12	223.46
921.42	223.45
921.72	223.47
922.02	223.47
922.32	223.48
922.63	223.48
922.93	223.54
923.23	223.54
923.53	223.53
923.83	223.46
924.13	223.47
924.44	223.46
924.74	223.48
925.04	223.50
925.34	223.50
925.64	223.46
925.94	223.45
926.24	223.51
926.55	223.50
926.85	223.51
927.15	223.51
927.45	223.50
927.75	223.50
928.05	223.49
928.35	223.49
928.65	223.49
928.95	223.50
929.26	223.46
929.56	223.47
929.86	223.49
930.16	223.48
930.46	223.47
930.76	223.47
931.06	223.42
931.36	223.40
931.66	223.42
931.96	223.43
932.26	223.44
932.56	223.39
932.86	223.39
933.16	223.39
933.46	223.37
933.76	223.37
934.06	223.39
934.36	223.42
934.66	223.42
934.96	223.40
935.26	223.41
935.56	223.43
935.86	223.40
936.16	223.38
936.46	223.37
936.76	223.37
937.06	223.35
937.36	223.37
937.66	223.37
937.96	223.36
938.26	223.35
938.56	223.34
938.86	223.36
939.16	223.39
939.46	223.40
939.76	223.42
940.06	223.41
940.35	223.40
940.65	223.35
940.95	223.36
941.25	223.33
941.55	223.32
941.85	223.30
942.15	223.33
942.45	223.36
942.75	223.37
943.04	223.37
943.34	223.39
943.64	223.38
943.94	223.36
944.24	223.35
944.54	223.36
944.84	223.36
945.13	223.33
945.43	223.32
945.73	223.32
946.03	223.31
946.33	223.30
946.62	223.30
946.92	223.29
947.22	223.29
947.52	223.32
947.82	223.33
948.11	223.32
948.41	223.29
948.71	223.26
949.01	223.26
949.31	223.25
949.60	223.25
949.90	223.27
950.20	223.28
950.50	223.28
950.79	223.27
951.09	223.29
951.39	223.30
951.69	223.28
951.98	223.30
952.28	223.31
952.58	223.31
952.87	223.31
953.17	223.33
953.47	223.32
953.76	223.31
954.06	223.29
954.36	223.28
954.66	223.27
954.95	223.31
955.25	223.31
955.55	223.32
955.84	223.31
956.14	223.31
956.44	223.31
956.73	223.30
957.03	223.31
957.32	223.30
957.62	223.29
957.92	223.31
958.21	223.29
958.51	223.41
958.81	223.42
959.10	223.43
959.40	223.44
959.69	223.45
959.99	223.47
960.29	223.47
960.58	223.46
960.88	223.50
961.17	223.49
961.47	223.48
961.76	223.47
962.06	223.49
962.36	223.47
962.65	223.47
962.95	223.48
963.24	223.47
963.54	223.46
963.83	223.48
964.13	223.46
964.42	223.46
964.72	223.37
965.01	223.37
965.31	223.36
965.60	223.33
965.90	223.39
966.19	223.37
966.49	223.37
966.78	223.37
967.08	223.37
967.37	223.36
967.67	223.35
967.96	223.37
968.26	223.36
968.55	223.38
968.85	223.38
969.14	223.37
969.43	223.37
969.73	223.36
970.02	223.35
970.32	223.34
970.61	223.32
970.91	223.30
971.20	223.28
971.49	223.28
971.79	223.30
972.08	223.23
972.38	223.24
972.67	223.23
972.96	223.25
973.26	223.23
973.55	223.27
973.85	223.26
974.14	223.25
974.43	223.26
974.73	223.24
975.02	223.24
975.31	223.24
975.61	223.24
975.90	223.24
976.19	223.24
976.49	223.25
976.78	223.26
977.07	223.25
977.37	223.26
977.66	223.28
977.95	223.26
978.24	223.28
978.54	223.30
978.83	223.30
979.12	223.29
979.42	223.30
979.71	223.27
980.00	223.27
980.29	223.27
980.59	223.25
980.88	223.27
981.17	223.27
981.46	223.26
981.76	223.27
982.05	223.30
982.34	223.31
982.63	223.31
982.93	223.31
983.22	223.34
983.51	223.35
983.80	223.35
984.09	223.36
984.39	223.35
984.68	223.34
984.97	223.34
985.26	223.33
985.55	223.34
985.85	223.33
986.14	223.35
986.43	223.37
986.72	223.37
987.01	223.35
987.30	223.36
987.59	223.34
987.89	223.34
988.18	223.31
988.47	223.31
988.76	223.30
989.05	223.29
989.34	223.27
989.63	223.30
989.92	223.29
990.22	223.27
990.51	223.27
990.80	223.26
991.09	223.27
991.38	223.29
991.67	223.27
991.96	223.25
992.25	223.25
992.54	223.23
992.83	223.23
993.12	223.22
993.41	223.25
993.70	223.29
993.99	223.31
994.28	223.33
994.58	223.34
994.87	223.32
995.16	223.33
995.45	223.31
995.74	223.27
996.03	223.28
996.32	223.30
996.61	223.31
996.90	223.31
997.19	223.30
997.48	223.30
997.77	223.29
998.06	223.29
998.34	223.28
998.63	223.28
998.92	223.29
999.21	223.31
999.50	223.29
999.79	223.26
1000.08	223.26
1000.37	223.25
1000.66	223.24
1000.95	223.26
1001.24	223.27
1001.53	223.28
1001.82	223.28
1002.11	223.26
1002.40	223.25
1002.68	223.28
1002.97	223.34
1003.26	223.33
1003.55	223.31
1003.84	223.32
1004.13	223.35
1004.42	223.35
1004.71	223.34
1004.99	223.33
1005.28	223.35
1005.57	223.34
1005.86	223.33
1006.15	223.32
1006.44	223.30
1006.72	223.32
1007.01	223.30
1007.30	223.30
1007.59	223.29
1007.88	223.29
1008.17	223.30
1008.45	223.29
1008.74	223.25
1009.03	223.20
1009.32	223.20
1009.60	223.20
1009.89	223.19
1010.18	223.15
1010.47	223.14
1010.76	223.14
1011.04	223.14
1011.33	223.14
1011.62	223.15
1011.91	223.15
1012.19	223.16
1012.48	223.17
1012.77	223.17
1013.05	223.21
1013.34	223.21
1013.63	223.20
1013.92	223.21
1014.20	223.21
1014.49	223.21
1014.78	223.22
1015.06	223.19
1015.35	223.19
1015.64	223.21
1015.92	223.23
1016.21	223.24
1016.50	223.24
1016.78	223.25
1017.07	223.26
1017.36	223.24
1017.64	223.22
1017.93	223.24
1018.22	223.23
1018.50	223.23
1018.79	223.22
1019.08	223.18
1019.36	223.19
1019.65	223.19
1019.93	223.20
1020.22	223.22
1020.51	223.26
1020.79	223.25
1021.08	223.12
1021.36	223.18
1021.65	223.22
1021.94	223.04
1022.22	223.33
1022.51	223.08
1022.79	223.53
1023.08	223.47
1023.36	224.35
1023.65	222.84
>>>>>End Processed Spectral Data<<<<<
