SpectraSuite Data File
++++++++++++++++++++++++++++++++++++
Date: Thu Oct 01 02:37:33 EDT 2015
User: lab3
Dark Spectrum Present: No
Reference Spectrum Present: No
Number of Sampled Component Spectra: 1
Spectrometers: USB2E7196
Integration Time (usec): 36000 (USB2E7196)
Spectra Averaged: 10000 (USB2E7196)
Boxcar Smoothing: 10 (USB2E7196)
Correct for Electrical Dark: No (USB2E7196)
Strobe/Lamp Enabled: No (USB2E7196)
Correct for Detector Non-linearity: No (USB2E7196)
Correct for Stray Light: No (USB2E7196)
Number of Pixels in Processed Spectrum: 2048
>>>>>Begin Processed Spectral Data<<<<<
339.09	0.00
339.48	209.90
339.86	211.41
340.24	212.70
340.63	214.17
341.01	217.11
341.39	216.86
341.78	218.18
342.16	219.43
342.54	219.87
342.93	208.49
343.31	219.03
343.69	219.57
344.07	220.03
344.46	220.46
344.84	220.84
345.22	221.08
345.60	221.34
345.99	221.53
346.37	221.66
346.75	221.77
347.13	221.85
347.52	221.92
347.90	222.00
348.28	222.04
348.66	222.09
349.05	222.10
349.43	222.15
349.81	222.20
350.19	222.26
350.57	222.32
350.96	222.40
351.34	222.50
351.72	222.59
352.10	222.69
352.48	222.77
352.87	222.82
353.25	222.89
353.63	222.94
354.01	223.01
354.39	223.08
354.77	223.16
355.15	223.26
355.54	223.32
355.92	223.35
356.30	223.42
356.68	223.56
357.06	223.63
357.44	223.68
357.82	223.74
358.20	223.85
358.58	223.91
358.97	223.97
359.35	224.05
359.73	224.13
360.11	224.19
360.49	224.25
360.87	224.30
361.25	224.36
361.63	224.45
362.01	224.49
362.39	224.53
362.77	224.57
363.15	224.60
363.53	224.63
363.91	224.67
364.29	224.69
364.67	224.62
365.05	224.65
365.43	224.67
365.81	224.70
366.19	224.72
366.57	224.77
366.95	224.77
367.33	224.74
367.71	224.74
368.09	224.76
368.47	224.75
368.85	224.74
369.23	224.75
369.61	224.69
369.99	224.71
370.37	224.70
370.75	224.76
371.13	224.73
371.51	224.69
371.89	224.67
372.27	224.64
372.65	224.62
373.03	224.58
373.41	224.54
373.78	224.49
374.16	224.39
374.54	224.32
374.92	224.27
375.30	224.24
375.68	224.17
376.06	224.12
376.44	224.07
376.82	224.03
377.19	223.98
377.57	223.92
377.95	223.84
378.33	223.78
378.71	223.64
379.09	223.59
379.47	223.55
379.84	223.48
380.22	223.43
380.60	223.35
380.98	223.31
381.36	223.25
381.73	223.19
382.11	223.17
382.49	223.12
382.87	223.06
383.25	223.01
383.62	223.09
384.00	223.02
384.38	222.98
384.76	222.95
385.13	222.94
385.51	222.90
385.89	222.85
386.27	222.81
386.64	222.79
387.02	222.74
387.40	222.70
387.78	222.67
388.15	222.65
388.53	222.62
388.91	222.58
389.29	222.55
389.66	222.53
390.04	222.49
390.42	222.48
390.79	222.47
391.17	222.45
391.55	222.31
391.92	222.30
392.30	222.30
392.68	222.26
393.05	222.24
393.43	222.24
393.81	222.24
394.18	222.22
394.56	222.22
394.94	222.25
395.31	222.25
395.69	222.28
396.06	222.30
396.44	222.32
396.82	222.33
397.19	222.41
397.57	222.42
397.95	222.46
398.32	222.46
398.70	222.50
399.07	222.56
399.45	222.60
399.82	222.64
400.20	222.68
400.58	222.73
400.95	222.75
401.33	222.82
401.70	222.96
402.08	223.05
402.45	223.13
402.83	223.23
403.20	223.33
403.58	223.41
403.95	223.54
404.33	223.67
404.71	223.80
405.08	223.98
405.46	224.12
405.83	224.28
406.21	224.45
406.58	224.64
406.96	224.83
407.33	225.04
407.70	225.28
408.08	225.61
408.45	225.90
408.83	226.21
409.20	226.49
409.58	226.74
409.95	227.09
410.33	227.46
410.70	227.81
411.08	228.23
411.45	228.67
411.82	229.12
412.20	229.62
412.57	230.23
412.95	230.70
413.32	231.32
413.69	231.96
414.07	232.64
414.44	233.37
414.82	234.12
415.19	235.00
415.56	235.89
415.94	236.81
416.31	237.85
416.68	238.89
417.06	240.10
417.43	241.23
417.81	242.54
418.18	243.87
418.55	245.32
418.93	246.83
419.30	248.41
419.67	250.09
420.04	251.82
420.42	253.62
420.79	255.71
421.16	257.81
421.54	259.95
421.91	262.19
422.28	264.51
422.66	267.02
423.03	269.40
423.40	271.91
423.77	274.60
424.15	277.35
424.52	280.21
424.89	283.31
425.26	286.39
425.64	289.24
426.01	292.45
426.38	295.73
426.75	299.12
427.13	302.58
427.50	306.20
427.87	309.96
428.24	313.76
428.61	317.38
428.99	321.29
429.36	325.58
429.73	329.69
430.10	333.77
430.47	337.95
430.85	342.24
431.22	346.80
431.59	351.49
431.96	356.06
432.33	361.11
432.70	365.90
433.08	371.58
433.45	376.93
433.82	382.19
434.19	388.07
434.56	393.85
434.93	399.41
435.30	404.91
435.68	411.12
436.05	417.19
436.42	423.25
436.79	428.78
437.16	434.74
437.53	441.13
437.90	447.53
438.27	453.76
438.64	460.54
439.01	466.67
439.38	472.27
439.75	477.69
440.13	483.88
440.50	489.78
440.87	494.43
441.24	499.55
441.61	505.21
441.98	509.36
442.35	514.30
442.72	519.38
443.09	524.25
443.46	527.42
443.83	529.78
444.20	531.80
444.57	534.72
444.94	536.50
445.31	538.34
445.68	539.99
446.05	541.26
446.42	541.22
446.79	541.08
447.16	540.99
447.53	540.94
447.90	539.23
448.27	537.64
448.64	535.04
449.01	533.37
449.37	529.59
449.74	526.15
450.11	521.70
450.48	516.78
450.85	511.82
451.22	507.62
451.59	503.51
451.96	499.77
452.33	494.25
452.70	489.33
453.07	483.31
453.43	477.28
453.80	471.45
454.17	465.83
454.54	460.62
454.91	454.72
455.28	449.16
455.65	443.91
456.02	438.32
456.38	433.82
456.75	427.99
457.12	423.29
457.49	418.55
457.86	414.02
458.23	410.06
458.59	405.67
458.96	401.15
459.33	397.17
459.70	393.09
460.07	389.99
460.43	386.35
460.80	382.93
461.17	379.91
461.54	376.66
461.91	373.62
462.27	370.53
462.64	368.00
463.01	365.10
463.38	362.18
463.74	359.54
464.11	357.18
464.48	355.05
464.85	352.77
465.21	351.02
465.58	349.09
465.95	346.87
466.32	345.09
466.68	343.35
467.05	341.60
467.42	339.92
467.78	338.10
468.15	336.42
468.52	335.18
468.88	333.55
469.25	332.05
469.62	330.86
469.98	329.58
470.35	328.42
470.72	327.38
471.08	326.33
471.45	325.46
471.82	324.51
472.18	323.51
472.55	322.86
472.92	322.06
473.28	321.43
473.65	320.79
474.02	320.18
474.38	319.68
474.75	319.40
475.11	318.99
475.48	318.83
475.85	318.66
476.21	318.61
476.58	318.62
476.94	318.81
477.31	318.93
477.67	319.07
478.04	319.34
478.41	319.68
478.77	320.14
479.14	320.48
479.50	321.03
479.87	321.72
480.23	322.41
480.60	323.09
480.96	323.78
481.33	324.73
481.69	325.69
482.06	326.64
482.42	327.53
482.79	328.61
483.15	329.85
483.52	331.22
483.88	332.55
484.25	333.98
484.61	335.45
484.98	337.05
485.34	338.84
485.71	340.68
486.07	342.65
486.44	344.62
486.80	346.79
487.17	349.02
487.53	351.48
487.90	354.03
488.26	356.79
488.62	359.71
488.99	362.63
489.35	365.69
489.72	368.98
490.08	372.44
490.44	376.00
490.81	379.72
491.17	383.54
491.54	387.61
491.90	391.78
492.26	396.26
492.63	400.99
492.99	405.91
493.36	410.96
493.72	416.27
494.08	421.71
494.45	427.48
494.81	433.45
495.17	439.53
495.54	445.96
495.90	452.71
496.26	459.59
496.63	466.71
496.99	474.11
497.35	481.88
497.72	489.95
498.08	498.18
498.44	506.67
498.80	515.70
499.17	524.97
499.53	534.57
499.89	544.40
500.26	554.40
500.62	564.67
500.98	575.61
501.34	586.71
501.71	598.33
502.07	610.17
502.43	622.41
502.79	635.00
503.16	648.00
503.52	661.18
503.88	674.74
504.24	688.72
504.60	702.99
504.97	717.66
505.33	732.68
505.69	748.61
506.05	764.74
506.41	780.88
506.78	797.34
507.14	814.26
507.50	831.80
507.86	849.71
508.22	867.89
508.59	886.09
508.95	905.02
509.31	924.37
509.67	944.42
510.03	964.70
510.39	985.17
510.75	1005.90
511.12	1026.90
511.48	1048.26
511.84	1069.66
512.20	1091.38
512.56	1114.19
512.92	1137.26
513.28	1160.04
513.64	1183.13
514.00	1206.62
514.37	1230.45
514.73	1254.29
515.09	1277.95
515.45	1302.04
515.81	1326.70
516.17	1351.42
516.53	1375.81
516.89	1400.28
517.25	1424.94
517.61	1449.76
517.97	1474.78
518.33	1499.53
518.69	1524.44
519.05	1549.61
519.41	1574.91
519.77	1600.50
520.13	1625.30
520.49	1650.25
520.85	1675.40
521.21	1700.50
521.57	1726.21
521.93	1751.19
522.29	1777.03
522.65	1802.58
523.01	1827.90
523.37	1852.52
523.73	1877.75
524.09	1903.13
524.45	1928.44
524.81	1953.29
525.17	1978.06
525.53	2002.40
525.89	2026.76
526.25	2051.32
526.61	2075.31
526.97	2099.63
527.33	2123.83
527.68	2147.91
528.04	2171.10
528.40	2194.19
528.76	2217.47
529.12	2239.67
529.48	2262.24
529.84	2282.97
530.20	2304.31
530.56	2325.30
530.91	2346.33
531.27	2366.86
531.63	2386.79
531.99	2406.16
532.35	2425.18
532.71	2444.30
533.07	2464.05
533.42	2482.22
533.78	2500.82
534.14	2519.36
534.50	2537.09
534.86	2555.44
535.21	2571.92
535.57	2588.43
535.93	2604.10
536.29	2618.60
536.65	2633.88
537.00	2648.05
537.36	2662.74
537.72	2676.34
538.08	2689.70
538.44	2701.89
538.79	2714.26
539.15	2725.00
539.51	2735.70
539.87	2746.03
540.22	2754.29
540.58	2762.54
540.94	2771.44
541.29	2778.75
541.65	2785.12
542.01	2790.95
542.37	2794.93
542.72	2800.79
543.08	2806.12
543.44	2811.37
543.79	2815.68
544.15	2819.24
544.51	2822.75
544.87	2825.38
545.22	2827.58
545.58	2828.76
545.94	2830.40
546.29	2830.64
546.65	2831.04
547.01	2831.39
547.36	2831.92
547.72	2832.57
548.07	2831.76
548.43	2830.29
548.79	2828.18
549.14	2826.16
549.50	2824.65
549.86	2822.42
550.21	2817.66
550.57	2813.37
550.92	2807.68
551.28	2802.62
551.64	2797.41
551.99	2792.63
552.35	2787.43
552.70	2781.82
553.06	2776.94
553.41	2771.60
553.77	2765.67
554.13	2760.32
554.48	2754.20
554.84	2746.36
555.19	2738.67
555.55	2730.40
555.90	2722.69
556.26	2716.06
556.61	2708.76
556.97	2699.33
557.32	2690.67
557.68	2682.55
558.03	2673.72
558.39	2665.54
558.74	2657.59
559.10	2648.36
559.45	2638.86
559.81	2629.65
560.16	2619.80
560.52	2609.43
560.87	2600.06
561.23	2590.38
561.58	2580.19
561.94	2569.70
562.29	2558.78
562.64	2548.43
563.00	2538.47
563.35	2528.37
563.71	2517.35
564.06	2505.76
564.42	2495.24
564.77	2484.33
565.12	2473.53
565.48	2462.46
565.83	2452.06
566.19	2441.65
566.54	2430.94
566.89	2419.22
567.25	2407.47
567.60	2396.59
567.96	2385.32
568.31	2372.63
568.66	2359.83
569.02	2348.10
569.37	2336.17
569.72	2324.73
570.08	2312.56
570.43	2299.82
570.78	2286.83
571.14	2273.59
571.49	2261.20
571.84	2249.08
572.20	2235.65
572.55	2222.59
572.90	2209.45
573.26	2195.45
573.61	2180.88
573.96	2166.52
574.31	2152.55
574.67	2138.82
575.02	2124.64
575.37	2110.03
575.72	2095.72
576.08	2082.04
576.43	2067.31
576.78	2052.56
577.13	2038.67
577.49	2024.85
577.84	2011.41
578.19	1997.11
578.54	1982.43
578.90	1967.23
579.25	1951.75
579.60	1937.72
579.95	1923.32
580.30	1908.95
580.66	1894.84
581.01	1880.34
581.36	1866.22
581.71	1852.66
582.06	1838.61
582.42	1824.59
582.77	1811.35
583.12	1797.78
583.47	1784.20
583.82	1770.74
584.17	1757.22
584.53	1743.51
584.88	1729.78
585.23	1715.74
585.58	1702.20
585.93	1689.11
586.28	1676.82
586.63	1664.40
586.98	1651.22
587.34	1638.32
587.69	1624.87
588.04	1611.65
588.39	1599.14
588.74	1586.15
589.09	1572.89
589.44	1559.59
589.79	1546.88
590.14	1533.98
590.49	1521.31
590.84	1508.53
591.19	1496.41
591.54	1483.76
591.89	1470.97
592.25	1458.56
592.60	1445.69
592.95	1433.40
593.30	1421.41
593.65	1409.21
594.00	1397.16
594.35	1385.98
594.70	1373.93
595.05	1362.99
595.40	1351.89
595.75	1340.18
596.10	1329.23
596.45	1318.49
596.80	1308.23
597.15	1297.76
597.50	1287.31
597.85	1277.05
598.19	1266.97
598.54	1256.28
598.89	1246.34
599.24	1236.73
599.59	1226.84
599.94	1218.00
600.29	1209.04
600.64	1199.84
600.99	1190.09
601.34	1180.82
601.69	1170.90
602.04	1162.09
602.39	1153.09
602.74	1144.35
603.08	1135.85
603.43	1126.88
603.78	1117.77
604.13	1108.83
604.48	1099.81
604.83	1091.08
605.18	1082.22
605.53	1073.32
605.87	1064.55
606.22	1056.04
606.57	1047.26
606.92	1038.56
607.27	1029.76
607.62	1021.04
607.96	1012.50
608.31	1004.92
608.66	996.93
609.01	989.37
609.36	981.77
609.70	973.95
610.05	965.95
610.40	958.31
610.75	950.80
611.10	943.57
611.44	935.91
611.79	928.59
612.14	920.89
612.49	913.32
612.83	906.24
613.18	899.22
613.53	892.00
613.88	884.86
614.22	878.31
614.57	871.60
614.92	864.88
615.27	858.17
615.61	851.32
615.96	844.71
616.31	838.01
616.65	831.20
617.00	824.64
617.35	818.22
617.70	811.83
618.04	805.49
618.39	799.19
618.74	793.22
619.08	787.05
619.43	781.16
619.78	775.30
620.12	769.23
620.47	763.33
620.82	757.50
621.16	752.00
621.51	746.16
621.85	740.31
622.20	734.49
622.55	728.85
622.89	723.19
623.24	717.55
623.59	711.99
623.93	706.48
624.28	701.11
624.62	695.73
624.97	690.33
625.32	685.04
625.66	679.62
626.01	674.22
626.35	668.95
626.70	663.69
627.04	658.62
627.39	653.60
627.73	648.70
628.08	644.02
628.43	639.24
628.77	634.51
629.12	629.90
629.46	625.48
629.81	620.90
630.15	616.17
630.50	611.61
630.84	607.24
631.19	603.05
631.53	598.91
631.88	594.64
632.22	590.49
632.57	586.57
632.91	582.61
633.26	578.72
633.60	574.91
633.95	571.19
634.29	567.35
634.64	563.47
634.98	559.49
635.32	555.67
635.67	551.98
636.01	548.24
636.36	544.53
636.70	540.97
637.05	537.40
637.39	534.03
637.73	530.54
638.08	527.10
638.42	523.65
638.77	520.05
639.11	516.48
639.45	512.92
639.80	509.34
640.14	505.95
640.49	502.53
640.83	499.00
641.17	495.51
641.52	492.19
641.86	488.87
642.20	485.70
642.55	482.39
642.89	479.16
643.23	476.12
643.58	473.32
643.92	470.40
644.26	467.52
644.61	464.62
644.95	461.73
645.29	458.80
645.64	455.82
645.98	452.99
646.32	450.31
646.66	447.65
647.01	444.97
647.35	442.33
647.69	439.59
648.04	436.98
648.38	434.41
648.72	431.80
649.06	429.26
649.41	426.77
649.75	424.25
650.09	421.77
650.43	419.29
650.78	416.79
651.12	414.29
651.46	411.87
651.80	409.56
652.14	407.33
652.49	405.09
652.83	402.93
653.17	400.74
653.51	398.62
653.85	396.57
654.20	394.46
654.54	392.26
654.88	390.26
655.22	388.32
655.56	386.34
655.90	384.46
656.25	382.58
656.59	380.70
656.93	378.92
657.27	377.19
657.61	375.35
657.95	373.58
658.29	371.81
658.64	370.07
658.98	368.31
659.32	366.57
659.66	364.94
660.00	363.33
660.34	361.74
660.68	360.11
661.02	358.40
661.36	356.81
661.70	355.29
662.05	353.75
662.39	352.19
662.73	350.72
663.07	349.28
663.41	347.85
663.75	346.46
664.09	345.07
664.43	343.59
664.77	342.22
665.11	340.78
665.45	339.42
665.79	338.06
666.13	336.70
666.47	335.32
666.81	333.91
667.15	332.47
667.49	331.14
667.83	329.85
668.17	328.61
668.51	327.39
668.85	326.18
669.19	325.04
669.53	323.84
669.87	322.61
670.21	321.41
670.55	320.24
670.89	319.12
671.23	317.98
671.57	316.86
671.91	315.78
672.25	314.78
672.58	313.76
672.92	312.70
673.26	311.72
673.60	310.74
673.94	309.75
674.28	308.83
674.62	307.90
674.96	306.93
675.30	306.02
675.64	305.08
675.97	304.16
676.31	303.20
676.65	302.26
676.99	301.39
677.33	300.46
677.67	299.59
678.01	298.62
678.34	297.74
678.68	296.92
679.02	296.06
679.36	295.20
679.70	294.35
680.04	293.54
680.37	292.71
680.71	291.92
681.05	291.17
681.39	290.38
681.73	289.56
682.06	288.77
682.40	288.00
682.74	287.26
683.08	286.54
683.42	285.79
683.75	285.13
684.09	284.37
684.43	283.68
684.77	282.96
685.10	282.30
685.44	281.62
685.78	280.92
686.12	280.27
686.45	279.60
686.79	278.93
687.13	278.29
687.46	277.62
687.80	276.98
688.14	276.28
688.48	275.65
688.81	275.02
689.15	274.44
689.49	273.81
689.82	273.20
690.16	272.54
690.50	271.94
690.83	271.34
691.17	270.76
691.51	270.19
691.84	269.64
692.18	269.07
692.52	268.48
692.85	267.91
693.19	267.39
693.52	266.85
693.86	266.30
694.20	265.77
694.53	265.27
694.87	264.74
695.21	264.25
695.54	263.75
695.88	263.24
696.21	262.70
696.55	262.21
696.88	261.72
697.22	261.24
697.56	260.77
697.89	260.25
698.23	259.76
698.56	259.25
698.90	258.79
699.23	258.31
699.57	257.88
699.90	257.42
700.24	256.94
700.58	256.51
700.91	256.11
701.25	255.78
701.58	255.40
701.92	255.02
702.25	254.62
702.59	254.21
702.92	253.82
703.26	253.44
703.59	253.05
703.93	252.74
704.26	252.39
704.60	252.01
704.93	251.66
705.26	251.31
705.60	250.99
705.93	250.62
706.27	250.31
706.60	250.00
706.94	249.69
707.27	249.33
707.61	248.98
707.94	248.62
708.27	248.19
708.61	247.82
708.94	247.47
709.28	247.15
709.61	246.83
709.94	246.54
710.28	246.24
710.61	245.97
710.95	245.59
711.28	245.37
711.61	245.09
711.95	244.84
712.28	244.56
712.61	244.27
712.95	244.06
713.28	243.84
713.61	243.56
713.95	243.27
714.28	243.04
714.61	242.78
714.95	242.54
715.28	242.30
715.61	242.05
715.95	241.83
716.28	241.59
716.61	241.38
716.95	241.14
717.28	240.92
717.61	240.68
717.94	240.47
718.28	240.17
718.61	239.96
718.94	239.72
719.27	239.51
719.61	239.32
719.94	239.09
720.27	238.83
720.60	238.63
720.94	238.44
721.27	238.25
721.60	238.08
721.93	237.90
722.27	237.75
722.60	237.59
722.93	237.39
723.26	237.22
723.59	237.03
723.93	236.87
724.26	236.71
724.59	236.54
724.92	236.38
725.25	236.25
725.59	236.10
725.92	235.96
726.25	235.81
726.58	235.65
726.91	235.49
727.24	235.36
727.57	235.21
727.91	235.05
728.24	234.92
728.57	234.77
728.90	234.64
729.23	234.46
729.56	234.37
729.89	234.23
730.22	234.09
730.55	233.96
730.89	233.82
731.22	233.68
731.55	233.54
731.88	233.42
732.21	233.27
732.54	233.14
732.87	233.02
733.20	232.90
733.53	232.79
733.86	232.69
734.19	232.56
734.52	232.47
734.85	232.43
735.18	232.30
735.51	232.22
735.84	232.11
736.17	232.04
736.50	231.88
736.83	231.91
737.16	231.81
737.49	231.72
737.82	231.62
738.15	231.54
738.48	231.44
738.81	231.34
739.14	231.23
739.47	231.13
739.80	231.03
740.13	230.94
740.46	230.83
740.79	230.72
741.12	230.63
741.45	230.52
741.78	230.37
742.11	230.31
742.44	230.20
742.77	230.13
743.10	230.02
743.43	229.93
743.75	229.73
744.08	229.80
744.41	229.71
744.74	229.62
745.07	229.51
745.40	229.45
745.73	229.41
746.06	229.34
746.39	229.28
746.71	229.20
747.04	229.11
747.37	229.04
747.70	228.99
748.03	228.91
748.36	228.86
748.68	228.78
749.01	228.68
749.34	228.61
749.67	228.54
750.00	228.49
750.33	228.51
750.65	228.45
750.98	228.24
751.31	228.17
751.64	228.11
751.97	228.11
752.29	228.04
752.62	227.93
752.95	227.85
753.28	227.77
753.60	227.71
753.93	227.66
754.26	227.61
754.59	227.51
754.91	227.44
755.24	227.37
755.57	227.36
755.90	227.29
756.22	227.22
756.55	227.14
756.88	227.06
757.20	226.93
757.53	226.84
757.86	226.79
758.19	226.74
758.51	226.69
758.84	226.58
759.17	226.52
759.49	226.48
759.82	226.48
760.15	226.44
760.47	226.39
760.80	226.32
761.13	226.28
761.45	226.24
761.78	226.19
762.11	226.15
762.43	226.05
762.76	226.01
763.08	225.98
763.41	225.94
763.74	225.90
764.06	225.86
764.39	225.82
764.71	225.77
765.04	225.72
765.37	225.67
765.69	225.62
766.02	225.58
766.34	225.53
766.67	225.45
767.00	225.43
767.32	225.45
767.65	225.48
767.97	225.43
768.30	225.39
768.62	225.36
768.95	225.30
769.27	225.27
769.60	225.25
769.92	225.19
770.25	225.14
770.57	225.09
770.90	225.06
771.22	225.02
771.55	224.99
771.87	224.96
772.20	224.93
772.52	224.98
772.85	225.08
773.17	225.05
773.50	225.01
773.82	224.96
774.15	224.87
774.47	224.78
774.80	224.74
775.12	224.71
775.45	224.68
775.77	224.66
776.09	224.63
776.42	224.61
776.74	224.61
777.07	224.58
777.39	224.56
777.72	224.53
778.04	224.52
778.36	224.48
778.69	224.46
779.01	224.44
779.33	224.33
779.66	224.18
779.98	224.15
780.31	224.14
780.63	224.16
780.95	224.16
781.28	224.14
781.60	224.11
781.92	224.09
782.25	224.07
782.57	224.04
782.89	224.02
783.22	223.99
783.54	223.95
783.86	223.94
784.19	223.91
784.51	223.93
784.83	223.89
785.16	223.87
785.48	223.85
785.80	223.83
786.12	223.82
786.45	223.81
786.77	223.80
787.09	223.77
787.42	223.72
787.74	223.70
788.06	223.69
788.38	223.67
788.71	223.65
789.03	223.64
789.35	223.64
789.67	223.61
789.99	223.60
790.32	223.57
790.64	223.57
790.96	223.66
791.28	223.61
791.61	223.59
791.93	223.58
792.25	223.56
792.57	223.62
792.89	223.59
793.21	223.59
793.54	223.56
793.86	223.54
794.18	223.53
794.50	223.49
794.82	223.48
795.14	223.48
795.47	223.49
795.79	223.48
796.11	223.44
796.43	223.42
796.75	223.41
797.07	223.40
797.39	223.38
797.71	223.28
798.04	223.27
798.36	223.27
798.68	223.26
799.00	223.25
799.32	223.19
799.64	223.19
799.96	223.17
800.28	223.18
800.60	223.17
800.92	223.17
801.24	223.15
801.56	223.15
801.89	223.13
802.21	223.12
802.53	223.08
802.85	223.10
803.17	223.14
803.49	223.11
803.81	223.09
804.13	223.07
804.45	223.05
804.77	223.05
805.09	223.03
805.41	223.01
805.73	222.99
806.05	222.95
806.37	222.93
806.69	222.91
807.01	222.90
807.33	222.89
807.65	222.85
807.97	222.89
808.28	222.87
808.60	222.86
808.92	222.83
809.24	222.89
809.56	222.86
809.88	222.82
810.20	222.82
810.52	222.83
810.84	222.81
811.16	222.80
811.48	222.78
811.80	222.81
812.12	222.80
812.43	222.82
812.75	222.82
813.07	222.81
813.39	222.81
813.71	222.79
814.03	222.77
814.35	222.77
814.67	222.72
814.98	222.70
815.30	222.69
815.62	222.67
815.94	222.60
816.26	222.61
816.58	222.59
816.89	222.59
817.21	222.56
817.53	222.57
817.85	222.57
818.17	222.56
818.48	222.51
818.80	222.53
819.12	222.50
819.44	222.48
819.76	222.46
820.07	222.46
820.39	222.45
820.71	222.46
821.03	222.45
821.34	222.44
821.66	222.45
821.98	222.46
822.30	222.45
822.61	222.51
822.93	222.49
823.25	222.49
823.57	222.47
823.88	222.48
824.20	222.47
824.52	222.48
824.83	222.47
825.15	222.46
825.47	222.45
825.79	222.46
826.10	222.45
826.42	222.45
826.74	222.45
827.05	222.44
827.37	222.44
827.69	222.43
828.00	222.43
828.32	222.43
828.64	222.41
828.95	222.46
829.27	222.43
829.58	222.43
829.90	222.44
830.22	222.44
830.53	222.42
830.85	222.41
831.17	222.38
831.48	222.38
831.80	222.38
832.11	222.37
832.43	222.36
832.75	222.35
833.06	222.41
833.38	222.38
833.69	222.37
834.01	222.37
834.32	222.37
834.64	222.36
834.96	222.36
835.27	222.36
835.59	222.32
835.90	222.30
836.22	222.29
836.53	222.27
836.85	222.25
837.16	222.36
837.48	222.36
837.79	222.40
838.11	222.40
838.42	222.39
838.74	222.40
839.05	222.40
839.37	222.39
839.68	222.32
840.00	222.32
840.31	222.34
840.63	222.32
840.94	222.32
841.26	222.30
841.57	222.30
841.88	222.30
842.20	222.29
842.51	222.27
842.83	222.27
843.14	222.36
843.46	222.36
843.77	222.30
844.08	222.29
844.40	222.25
844.71	222.24
845.03	222.23
845.34	222.22
845.65	222.21
845.97	222.21
846.28	222.22
846.60	222.23
846.91	222.20
847.22	222.20
847.54	222.22
847.85	222.23
848.16	222.22
848.48	222.20
848.79	222.24
849.10	222.25
849.42	222.26
849.73	222.16
850.04	222.16
850.36	222.12
850.67	222.13
850.98	222.14
851.30	222.14
851.61	222.14
851.92	222.14
852.23	222.18
852.55	222.18
852.86	222.18
853.17	222.18
853.49	222.20
853.80	222.22
854.11	222.22
854.42	222.23
854.74	222.22
855.05	222.22
855.36	222.17
855.67	222.17
855.99	222.17
856.30	222.29
856.61	222.29
856.92	222.29
857.23	222.29
857.55	222.28
857.86	222.27
858.17	222.28
858.48	222.26
858.79	222.24
859.11	222.25
859.42	222.24
859.73	222.22
860.04	222.22
860.35	222.19
860.66	222.15
860.98	222.14
861.29	222.16
861.60	222.15
861.91	222.18
862.22	222.16
862.53	222.14
862.84	222.01
863.16	222.03
863.47	222.01
863.78	222.00
864.09	222.01
864.40	222.02
864.71	222.02
865.02	222.03
865.33	222.01
865.64	221.99
865.95	221.99
866.27	222.06
866.58	222.05
866.89	222.06
867.20	222.06
867.51	222.05
867.82	222.04
868.13	222.07
868.44	222.05
868.75	222.07
869.06	222.07
869.37	222.09
869.68	222.06
869.99	222.08
870.30	222.08
870.61	222.09
870.92	222.07
871.23	222.06
871.54	222.07
871.85	222.10
872.16	222.11
872.47	222.11
872.78	222.05
873.09	222.05
873.40	222.05
873.71	222.05
874.02	222.06
874.33	222.05
874.64	222.02
874.95	222.05
875.26	222.03
875.56	222.02
875.87	222.02
876.18	222.02
876.49	222.12
876.80	222.10
877.11	222.08
877.42	222.09
877.73	222.09
878.04	222.07
878.35	222.07
878.66	222.07
878.96	222.07
879.27	222.06
879.58	222.05
879.89	222.05
880.20	222.08
880.51	222.07
880.82	222.08
881.12	222.08
881.43	222.06
881.74	222.05
882.05	222.04
882.36	222.04
882.67	222.05
882.97	221.94
883.28	221.93
883.59	221.93
883.90	221.94
884.21	221.96
884.51	221.95
884.82	221.93
885.13	221.93
885.44	221.93
885.74	221.93
886.05	221.93
886.36	221.93
886.67	221.89
886.98	221.94
887.28	221.95
887.59	221.95
887.90	221.95
888.20	221.95
888.51	221.96
888.82	221.95
889.13	221.96
889.43	222.05
889.74	222.04
890.05	222.04
890.35	222.03
890.66	222.01
890.97	222.00
891.28	221.99
891.58	221.99
891.89	221.99
892.20	221.98
892.50	221.97
892.81	221.96
893.12	221.96
893.42	221.90
893.73	221.90
894.04	221.90
894.34	221.91
894.65	221.91
894.95	221.90
895.26	221.90
895.57	221.95
895.87	221.84
896.18	221.86
896.48	221.87
896.79	221.87
897.10	221.88
897.40	221.89
897.71	221.90
898.01	221.89
898.32	221.90
898.63	221.90
898.93	221.90
899.24	221.91
899.54	221.90
899.85	221.90
900.15	221.89
900.46	221.89
900.76	221.90
901.07	221.89
901.38	221.88
901.68	221.89
901.99	221.84
902.29	221.85
902.60	221.84
902.90	221.83
903.21	221.83
903.51	221.82
903.82	221.83
904.12	221.83
904.43	221.84
904.73	221.83
905.03	221.83
905.34	221.93
905.64	221.93
905.95	221.93
906.25	221.93
906.56	221.92
906.86	221.92
907.17	221.92
907.47	221.92
907.77	221.91
908.08	221.89
908.38	221.89
908.69	221.90
908.99	221.92
909.30	221.92
909.60	221.92
909.90	221.93
910.21	221.90
910.51	221.89
910.81	221.88
911.12	221.89
911.42	221.89
911.73	221.78
912.03	221.79
912.33	221.81
912.64	221.80
912.94	221.79
913.24	221.77
913.55	221.76
913.85	221.75
914.15	221.78
914.46	221.79
914.76	221.78
915.06	221.77
915.37	221.75
915.67	221.74
915.97	221.74
916.27	221.71
916.58	221.72
916.88	221.72
917.18	221.71
917.49	221.78
917.79	221.77
918.09	221.79
918.39	221.81
918.70	221.80
919.00	221.80
919.30	221.85
919.60	221.85
919.91	221.84
920.21	221.84
920.51	221.82
920.81	221.81
921.12	221.83
921.42	221.83
921.72	221.83
922.02	221.84
922.32	221.85
922.63	221.86
922.93	221.91
923.23	221.92
923.53	221.91
923.83	221.84
924.13	221.85
924.44	221.84
924.74	221.85
925.04	221.87
925.34	221.87
925.64	221.83
925.94	221.83
926.24	221.89
926.55	221.88
926.85	221.89
927.15	221.89
927.45	221.89
927.75	221.89
928.05	221.89
928.35	221.88
928.65	221.89
928.95	221.90
929.26	221.85
929.56	221.87
929.86	221.88
930.16	221.87
930.46	221.86
930.76	221.86
931.06	221.81
931.36	221.78
931.66	221.80
931.96	221.82
932.26	221.82
932.56	221.77
932.86	221.78
933.16	221.78
933.46	221.77
933.76	221.76
934.06	221.78
934.36	221.81
934.66	221.81
934.96	221.79
935.26	221.79
935.56	221.81
935.86	221.78
936.16	221.77
936.46	221.76
936.76	221.76
937.06	221.74
937.36	221.75
937.66	221.76
937.96	221.75
938.26	221.72
938.56	221.72
938.86	221.72
939.16	221.74
939.46	221.75
939.76	221.76
940.06	221.76
940.35	221.74
940.65	221.69
940.95	221.70
941.25	221.68
941.55	221.67
941.85	221.66
942.15	221.68
942.45	221.71
942.75	221.71
943.04	221.71
943.34	221.73
943.64	221.72
943.94	221.71
944.24	221.71
944.54	221.72
944.84	221.72
945.13	221.70
945.43	221.68
945.73	221.67
946.03	221.66
946.33	221.65
946.62	221.65
946.92	221.64
947.22	221.65
947.52	221.66
947.82	221.67
948.11	221.66
948.41	221.63
948.71	221.60
949.01	221.61
949.31	221.60
949.60	221.59
949.90	221.61
950.20	221.61
950.50	221.61
950.79	221.60
951.09	221.61
951.39	221.61
951.69	221.60
951.98	221.62
952.28	221.62
952.58	221.62
952.87	221.62
953.17	221.64
953.47	221.62
953.76	221.62
954.06	221.60
954.36	221.59
954.66	221.60
954.95	221.62
955.25	221.63
955.55	221.64
955.84	221.62
956.14	221.62
956.44	221.63
956.73	221.62
957.03	221.62
957.32	221.62
957.62	221.62
957.92	221.64
958.21	221.63
958.51	221.76
958.81	221.77
959.10	221.78
959.40	221.80
959.69	221.81
959.99	221.82
960.29	221.83
960.58	221.82
960.88	221.86
961.17	221.84
961.47	221.85
961.76	221.84
962.06	221.86
962.36	221.84
962.65	221.84
962.95	221.85
963.24	221.84
963.54	221.84
963.83	221.85
964.13	221.84
964.42	221.83
964.72	221.73
965.01	221.73
965.31	221.72
965.60	221.69
965.90	221.76
966.19	221.73
966.49	221.74
966.78	221.73
967.08	221.72
967.37	221.72
967.67	221.70
967.96	221.72
968.26	221.72
968.55	221.73
968.85	221.73
969.14	221.73
969.43	221.72
969.73	221.72
970.02	221.71
970.32	221.70
970.61	221.69
970.91	221.66
971.20	221.65
971.49	221.64
971.79	221.66
972.08	221.58
972.38	221.59
972.67	221.59
972.96	221.61
973.26	221.58
973.55	221.62
973.85	221.62
974.14	221.60
974.43	221.61
974.73	221.59
975.02	221.58
975.31	221.58
975.61	221.58
975.90	221.57
976.19	221.56
976.49	221.57
976.78	221.58
977.07	221.58
977.37	221.59
977.66	221.60
977.95	221.58
978.24	221.60
978.54	221.62
978.83	221.61
979.12	221.60
979.42	221.60
979.71	221.58
980.00	221.58
980.29	221.58
980.59	221.56
980.88	221.59
981.17	221.59
981.46	221.59
981.76	221.60
982.05	221.63
982.34	221.63
982.63	221.63
982.93	221.63
983.22	221.65
983.51	221.66
983.80	221.67
984.09	221.69
984.39	221.68
984.68	221.66
984.97	221.67
985.26	221.66
985.55	221.67
985.85	221.65
986.14	221.66
986.43	221.67
986.72	221.67
987.01	221.63
987.30	221.63
987.59	221.63
987.89	221.63
988.18	221.60
988.47	221.59
988.76	221.58
989.05	221.58
989.34	221.56
989.63	221.58
989.92	221.57
990.22	221.55
990.51	221.55
990.80	221.54
991.09	221.54
991.38	221.56
991.67	221.55
991.96	221.54
992.25	221.55
992.54	221.53
992.83	221.53
993.12	221.53
993.41	221.55
993.70	221.59
993.99	221.61
994.28	221.62
994.58	221.64
994.87	221.63
995.16	221.63
995.45	221.62
995.74	221.59
996.03	221.60
996.32	221.62
996.61	221.64
996.90	221.64
997.19	221.63
997.48	221.63
997.77	221.62
998.06	221.63
998.34	221.61
998.63	221.61
998.92	221.61
999.21	221.62
999.50	221.62
999.79	221.58
1000.08	221.58
1000.37	221.58
1000.66	221.56
1000.95	221.58
1001.24	221.59
1001.53	221.60
1001.82	221.60
1002.11	221.57
1002.40	221.58
1002.68	221.60
1002.97	221.68
1003.26	221.67
1003.55	221.65
1003.84	221.66
1004.13	221.69
1004.42	221.68
1004.71	221.68
1004.99	221.68
1005.28	221.70
1005.57	221.69
1005.86	221.68
1006.15	221.67
1006.44	221.65
1006.72	221.66
1007.01	221.65
1007.30	221.65
1007.59	221.63
1007.88	221.64
1008.17	221.64
1008.45	221.62
1008.74	221.58
1009.03	221.52
1009.32	221.53
1009.60	221.53
1009.89	221.52
1010.18	221.48
1010.47	221.48
1010.76	221.48
1011.04	221.48
1011.33	221.47
1011.62	221.48
1011.91	221.49
1012.19	221.50
1012.48	221.50
1012.77	221.50
1013.05	221.53
1013.34	221.53
1013.63	221.53
1013.92	221.53
1014.20	221.53
1014.49	221.53
1014.78	221.55
1015.06	221.52
1015.35	221.52
1015.64	221.53
1015.92	221.55
1016.21	221.56
1016.50	221.56
1016.78	221.57
1017.07	221.58
1017.36	221.56
1017.64	221.55
1017.93	221.55
1018.22	221.55
1018.50	221.54
1018.79	221.54
1019.08	221.50
1019.36	221.50
1019.65	221.49
1019.93	221.52
1020.22	221.53
1020.51	221.58
1020.79	221.57
1021.08	221.36
1021.36	221.30
1021.65	221.48
1021.94	221.47
1022.22	221.54
1022.51	221.31
1022.79	222.05
1023.08	221.64
1023.36	222.75
1023.65	221.25
>>>>>End Processed Spectral Data<<<<<
