SpectraSuite Data File
++++++++++++++++++++++++++++++++++++
Date: Wed Sep 30 23:02:31 EDT 2015
User: lab3
Dark Spectrum Present: No
Reference Spectrum Present: No
Number of Sampled Component Spectra: 1
Spectrometers: USB2E7196
Integration Time (usec): 36000 (USB2E7196)
Spectra Averaged: 10000 (USB2E7196)
Boxcar Smoothing: 10 (USB2E7196)
Correct for Electrical Dark: No (USB2E7196)
Strobe/Lamp Enabled: No (USB2E7196)
Correct for Detector Non-linearity: No (USB2E7196)
Correct for Stray Light: No (USB2E7196)
Number of Pixels in Processed Spectrum: 2048
>>>>>Begin Processed Spectral Data<<<<<
339.09	0.00
339.48	210.57
339.86	212.08
340.24	213.44
340.63	214.84
341.01	217.74
341.39	217.56
341.78	218.88
342.16	220.12
342.54	220.57
342.93	209.15
343.31	219.72
343.69	220.25
344.07	220.71
344.46	221.14
344.84	221.52
345.22	221.76
345.60	222.02
345.99	222.21
346.37	222.34
346.75	222.45
347.13	222.52
347.52	222.60
347.90	222.68
348.28	222.71
348.66	222.76
349.05	222.77
349.43	222.82
349.81	222.87
350.19	222.93
350.57	222.99
350.96	223.07
351.34	223.16
351.72	223.25
352.10	223.37
352.48	223.44
352.87	223.49
353.25	223.56
353.63	223.62
354.01	223.69
354.39	223.76
354.77	223.84
355.15	223.94
355.54	223.99
355.92	224.02
356.30	224.10
356.68	224.23
357.06	224.31
357.44	224.36
357.82	224.42
358.20	224.53
358.58	224.59
358.97	224.65
359.35	224.73
359.73	224.81
360.11	224.85
360.49	224.91
360.87	224.96
361.25	225.02
361.63	225.10
362.01	225.14
362.39	225.18
362.77	225.22
363.15	225.25
363.53	225.28
363.91	225.32
364.29	225.34
364.67	225.26
365.05	225.28
365.43	225.32
365.81	225.35
366.19	225.36
366.57	225.41
366.95	225.41
367.33	225.39
367.71	225.39
368.09	225.40
368.47	225.40
368.85	225.39
369.23	225.39
369.61	225.34
369.99	225.35
370.37	225.35
370.75	225.41
371.13	225.37
371.51	225.33
371.89	225.31
372.27	225.28
372.65	225.26
373.03	225.22
373.41	225.17
373.78	225.12
374.16	225.03
374.54	224.95
374.92	224.90
375.30	224.86
375.68	224.79
376.06	224.75
376.44	224.69
376.82	224.65
377.19	224.60
377.57	224.54
377.95	224.46
378.33	224.39
378.71	224.25
379.09	224.20
379.47	224.17
379.84	224.10
380.22	224.04
380.60	223.98
380.98	223.93
381.36	223.88
381.73	223.82
382.11	223.79
382.49	223.74
382.87	223.68
383.25	223.64
383.62	223.71
384.00	223.64
384.38	223.60
384.76	223.58
385.13	223.56
385.51	223.52
385.89	223.47
386.27	223.44
386.64	223.42
387.02	223.37
387.40	223.32
387.78	223.30
388.15	223.27
388.53	223.23
388.91	223.20
389.29	223.16
389.66	223.15
390.04	223.11
390.42	223.11
390.79	223.10
391.17	223.08
391.55	222.95
391.92	222.94
392.30	222.94
392.68	222.90
393.05	222.89
393.43	222.88
393.81	222.89
394.18	222.87
394.56	222.87
394.94	222.90
395.31	222.90
395.69	222.94
396.06	222.96
396.44	222.99
396.82	223.00
397.19	223.07
397.57	223.08
397.95	223.12
398.32	223.12
398.70	223.15
399.07	223.21
399.45	223.24
399.82	223.28
400.20	223.31
400.58	223.36
400.95	223.38
401.33	223.45
401.70	223.59
402.08	223.68
402.45	223.76
402.83	223.86
403.20	223.96
403.58	224.04
403.95	224.16
404.33	224.29
404.71	224.42
405.08	224.59
405.46	224.74
405.83	224.89
406.21	225.07
406.58	225.26
406.96	225.44
407.33	225.66
407.70	225.90
408.08	226.23
408.45	226.51
408.83	226.81
409.20	227.10
409.58	227.34
409.95	227.69
410.33	228.06
410.70	228.41
411.08	228.82
411.45	229.26
411.82	229.70
412.20	230.20
412.57	230.80
412.95	231.27
413.32	231.88
413.69	232.51
414.07	233.18
414.44	233.91
414.82	234.65
415.19	235.51
415.56	236.39
415.94	237.31
416.31	238.34
416.68	239.37
417.06	240.56
417.43	241.68
417.81	242.97
418.18	244.29
418.55	245.73
418.93	247.23
419.30	248.79
419.67	250.46
420.04	252.17
420.42	253.95
420.79	256.02
421.16	258.10
421.54	260.23
421.91	262.44
422.28	264.74
422.66	267.22
423.03	269.59
423.40	272.08
423.77	274.74
424.15	277.47
424.52	280.31
424.89	283.39
425.26	286.44
425.64	289.28
426.01	292.47
426.38	295.74
426.75	299.10
427.13	302.55
427.50	306.15
427.87	309.89
428.24	313.68
428.61	317.29
428.99	321.19
429.36	325.47
429.73	329.56
430.10	333.64
430.47	337.81
430.85	342.09
431.22	346.66
431.59	351.35
431.96	355.92
432.33	360.97
432.70	365.77
433.08	371.44
433.45	376.79
433.82	382.05
434.19	387.91
434.56	393.69
434.93	399.25
435.30	404.76
435.68	410.95
436.05	417.01
436.42	423.07
436.79	428.60
437.16	434.55
437.53	440.93
437.90	447.30
438.27	453.53
438.64	460.29
439.01	466.40
439.38	471.96
439.75	477.35
440.13	483.50
440.50	489.35
440.87	493.96
441.24	499.04
441.61	504.64
441.98	508.74
442.35	513.62
442.72	518.63
443.09	523.43
443.46	526.52
443.83	528.81
444.20	530.76
444.57	533.60
444.94	535.30
445.31	537.05
445.68	538.62
446.05	539.80
446.42	539.66
446.79	539.44
447.16	539.26
447.53	539.11
447.90	537.32
448.27	535.65
448.64	532.99
449.01	531.22
449.37	527.39
449.74	523.90
450.11	519.41
450.48	514.44
450.85	509.46
451.22	505.22
451.59	501.08
451.96	497.32
452.33	491.78
452.70	486.85
453.07	480.85
453.43	474.83
453.80	469.01
454.17	463.41
454.54	458.22
454.91	452.35
455.28	446.83
455.65	441.62
456.02	436.08
456.38	431.61
456.75	425.84
457.12	421.19
457.49	416.49
457.86	412.01
458.23	408.09
458.59	403.75
458.96	399.29
459.33	395.35
459.70	391.34
460.07	388.28
460.43	384.68
460.80	381.30
461.17	378.32
461.54	375.11
461.91	372.12
462.27	369.08
462.64	366.59
463.01	363.74
463.38	360.86
463.74	358.25
464.11	355.93
464.48	353.82
464.85	351.57
465.21	349.84
465.58	347.94
465.95	345.74
466.32	343.98
466.68	342.26
467.05	340.53
467.42	338.86
467.78	337.06
468.15	335.40
468.52	334.16
468.88	332.55
469.25	331.07
469.62	329.89
469.98	328.61
470.35	327.47
470.72	326.45
471.08	325.41
471.45	324.55
471.82	323.59
472.18	322.60
472.55	321.96
472.92	321.18
473.28	320.56
473.65	319.92
474.02	319.33
474.38	318.83
474.75	318.56
475.11	318.15
475.48	318.00
475.85	317.84
476.21	317.79
476.58	317.79
476.94	317.98
477.31	318.10
477.67	318.25
478.04	318.51
478.41	318.83
478.77	319.29
479.14	319.62
479.50	320.18
479.87	320.86
480.23	321.55
480.60	322.22
480.96	322.91
481.33	323.87
481.69	324.81
482.06	325.76
482.42	326.65
482.79	327.72
483.15	328.94
483.52	330.31
483.88	331.64
484.25	333.05
484.61	334.52
484.98	336.10
485.34	337.87
485.71	339.71
486.07	341.68
486.44	343.63
486.80	345.80
487.17	348.01
487.53	350.46
487.90	353.00
488.26	355.74
488.62	358.65
488.99	361.55
489.35	364.59
489.72	367.87
490.08	371.32
490.44	374.87
490.81	378.58
491.17	382.39
491.54	386.45
491.90	390.60
492.26	395.08
492.63	399.80
492.99	404.69
493.36	409.72
493.72	415.02
494.08	420.45
494.45	426.19
494.81	432.13
495.17	438.20
495.54	444.61
495.90	451.33
496.26	458.18
496.63	465.27
496.99	472.65
497.35	480.39
497.72	488.42
498.08	496.62
498.44	505.06
498.80	514.06
499.17	523.29
499.53	532.85
499.89	542.64
500.26	552.61
500.62	562.86
500.98	573.77
501.34	584.82
501.71	596.42
502.07	608.23
502.43	620.45
502.79	632.98
503.16	645.93
503.52	659.06
503.88	672.56
504.24	686.52
504.60	700.74
504.97	715.34
505.33	730.33
505.69	746.22
506.05	762.30
506.41	778.38
506.78	794.76
507.14	811.62
507.50	829.09
507.86	846.96
508.22	865.08
508.59	883.23
508.95	902.10
509.31	921.40
509.67	941.38
510.03	961.60
510.39	982.04
510.75	1002.71
511.12	1023.69
511.48	1044.95
511.84	1066.33
512.20	1088.04
512.56	1110.83
512.92	1133.80
513.28	1156.51
513.64	1179.55
514.00	1203.01
514.37	1226.80
514.73	1250.64
515.09	1274.28
515.45	1298.33
515.81	1322.97
516.17	1347.64
516.53	1372.01
516.89	1396.45
517.25	1421.12
517.61	1445.94
517.97	1470.96
518.33	1495.75
518.69	1520.66
519.05	1545.85
519.41	1571.17
519.77	1596.74
520.13	1621.58
520.49	1646.60
520.85	1671.83
521.21	1696.99
521.57	1722.75
521.93	1747.80
522.29	1773.67
522.65	1799.30
523.01	1824.74
523.37	1849.41
523.73	1874.79
524.09	1900.35
524.45	1925.75
524.81	1950.66
525.17	1975.49
525.53	1999.93
525.89	2024.42
526.25	2049.10
526.61	2073.26
526.97	2097.71
527.33	2122.07
527.68	2146.19
528.04	2169.55
528.40	2192.77
528.76	2216.16
529.12	2238.50
529.48	2261.23
529.84	2282.17
530.20	2303.63
530.56	2324.71
530.91	2345.91
531.27	2366.55
531.63	2386.55
531.99	2406.10
532.35	2425.35
532.71	2444.72
533.07	2464.61
533.42	2483.02
533.78	2501.77
534.14	2520.49
534.50	2538.36
534.86	2556.92
535.21	2573.67
535.57	2590.28
535.93	2606.22
536.29	2620.94
536.65	2636.51
537.00	2650.88
537.36	2665.77
537.72	2679.65
538.08	2693.22
538.44	2705.60
538.79	2718.25
539.15	2729.24
539.51	2740.13
539.87	2750.65
540.22	2758.93
540.58	2767.43
540.94	2776.39
541.29	2783.98
541.65	2790.54
542.01	2796.58
542.37	2800.76
542.72	2806.93
543.08	2812.49
543.44	2817.85
543.79	2822.44
544.15	2826.06
544.51	2829.77
544.87	2832.54
545.22	2834.92
545.58	2836.31
545.94	2838.17
546.29	2838.55
546.65	2838.98
547.01	2839.57
547.36	2840.19
547.72	2841.07
548.07	2840.43
548.43	2839.21
548.79	2837.30
549.14	2835.37
549.50	2834.13
549.86	2831.86
550.21	2827.19
550.57	2822.99
550.92	2817.51
551.28	2812.57
551.64	2807.60
551.99	2802.94
552.35	2797.89
552.70	2792.40
553.06	2787.68
553.41	2782.48
553.77	2776.58
554.13	2771.51
554.48	2765.39
554.84	2757.75
555.19	2750.28
555.55	2742.21
555.90	2734.72
556.26	2728.22
556.61	2721.11
556.97	2711.77
557.32	2703.40
557.68	2695.35
558.03	2686.63
558.39	2678.56
558.74	2670.65
559.10	2661.57
559.45	2652.11
559.81	2643.00
560.16	2633.20
560.52	2623.03
560.87	2613.90
561.23	2604.35
561.58	2594.29
561.94	2583.95
562.29	2573.14
562.64	2562.92
563.00	2552.98
563.35	2542.87
563.71	2531.76
564.06	2520.29
564.42	2509.79
564.77	2498.93
565.12	2488.21
565.48	2477.31
565.83	2467.07
566.19	2456.83
566.54	2446.14
566.89	2434.58
567.25	2422.91
567.60	2412.06
567.96	2400.73
568.31	2388.00
568.66	2375.33
569.02	2363.66
569.37	2351.78
569.72	2340.40
570.08	2328.27
570.43	2315.64
570.78	2302.66
571.14	2289.59
571.49	2277.17
571.84	2265.12
572.20	2251.83
572.55	2238.85
572.90	2225.70
573.26	2211.56
573.61	2196.87
573.96	2182.54
574.31	2168.54
574.67	2154.84
575.02	2140.73
575.37	2126.15
575.72	2111.79
576.08	2098.05
576.43	2083.22
576.78	2068.50
577.13	2054.54
577.49	2040.64
577.84	2027.11
578.19	2012.75
578.54	1998.00
578.90	1982.78
579.25	1967.22
579.60	1953.13
579.95	1938.71
580.30	1924.30
580.66	1910.20
581.01	1895.76
581.36	1881.63
581.71	1868.09
582.06	1853.98
582.42	1839.99
582.77	1826.72
583.12	1813.09
583.47	1799.52
583.82	1786.10
584.17	1772.55
584.53	1758.85
584.88	1745.14
585.23	1731.08
585.58	1717.56
585.93	1704.44
586.28	1692.17
586.63	1679.66
586.98	1666.42
587.34	1653.39
587.69	1639.90
588.04	1626.73
588.39	1614.15
588.74	1601.05
589.09	1587.74
589.44	1574.39
589.79	1561.55
590.14	1548.64
590.49	1535.90
590.84	1523.03
591.19	1510.81
591.54	1498.09
591.89	1485.21
592.25	1472.66
592.60	1459.75
592.95	1447.39
593.30	1435.37
593.65	1423.08
594.00	1411.05
594.35	1399.73
594.70	1387.65
595.05	1376.64
595.40	1365.37
595.75	1353.55
596.10	1342.54
596.45	1331.75
596.80	1321.43
597.15	1310.92
597.50	1300.38
597.85	1290.07
598.19	1279.93
598.54	1269.16
598.89	1259.15
599.24	1249.42
599.59	1239.49
599.94	1230.57
600.29	1221.52
600.64	1212.23
600.99	1202.35
601.34	1192.95
601.69	1182.98
602.04	1174.08
602.39	1165.02
602.74	1156.22
603.08	1147.65
603.43	1138.61
603.78	1129.44
604.13	1120.41
604.48	1111.30
604.83	1102.48
605.18	1093.56
605.53	1084.57
605.87	1075.72
606.22	1067.13
606.57	1058.29
606.92	1049.55
607.27	1040.61
607.62	1031.78
607.96	1023.14
608.31	1015.54
608.66	1007.50
609.01	999.88
609.36	992.21
609.70	984.29
610.05	976.22
610.40	968.49
610.75	960.87
611.10	953.52
611.44	945.81
611.79	938.39
612.14	930.57
612.49	922.92
612.83	915.78
613.18	908.67
613.53	901.36
613.88	894.16
614.22	887.56
614.57	880.79
614.92	874.01
615.27	867.23
615.61	860.29
615.96	853.58
616.31	846.80
616.65	839.91
617.00	833.29
617.35	826.82
617.70	820.35
618.04	813.96
618.39	807.57
618.74	801.53
619.08	795.30
619.43	789.33
619.78	783.35
620.12	777.20
620.47	771.23
620.82	765.37
621.16	759.81
621.51	753.89
621.85	747.96
622.20	742.09
622.55	736.42
622.89	730.69
623.24	725.01
623.59	719.40
623.93	713.83
624.28	708.41
624.62	702.95
624.97	697.50
625.32	692.15
625.66	686.67
626.01	681.17
626.35	675.82
626.70	670.50
627.04	665.41
627.39	660.34
627.73	655.39
628.08	650.66
628.43	645.79
628.77	641.00
629.12	636.35
629.46	631.87
629.81	627.19
630.15	622.41
630.50	617.79
630.84	613.38
631.19	609.15
631.53	604.95
631.88	600.65
632.22	596.44
632.57	592.48
632.91	588.47
633.26	584.54
633.60	580.71
633.95	576.98
634.29	573.09
634.64	569.17
634.98	565.14
635.32	561.27
635.67	557.53
636.01	553.75
636.36	550.00
636.70	546.39
637.05	542.79
637.39	539.40
637.73	535.86
638.08	532.37
638.42	528.86
638.77	525.21
639.11	521.56
639.45	517.95
639.80	514.33
640.14	510.92
640.49	507.45
640.83	503.85
641.17	500.32
641.52	496.94
641.86	493.55
642.20	490.36
642.55	487.01
642.89	483.74
643.23	480.66
643.58	477.83
643.92	474.88
644.26	471.95
644.61	468.99
644.95	466.06
645.29	463.07
645.64	460.06
645.98	457.19
646.32	454.50
646.66	451.81
647.01	449.09
647.35	446.41
647.69	443.63
648.04	441.01
648.38	438.40
648.72	435.76
649.06	433.22
649.41	430.68
649.75	428.14
650.09	425.62
650.43	423.12
650.78	420.57
651.12	418.02
651.46	415.59
651.80	413.24
652.14	410.98
652.49	408.73
652.83	406.53
653.17	404.32
653.51	402.17
653.85	400.09
654.20	397.94
654.54	395.72
654.88	393.70
655.22	391.72
655.56	389.71
655.90	387.79
656.25	385.86
656.59	383.96
656.93	382.15
657.27	380.38
657.61	378.51
657.95	376.71
658.29	374.93
658.64	373.16
658.98	371.37
659.32	369.60
659.66	367.95
660.00	366.30
660.34	364.69
660.68	363.03
661.02	361.29
661.36	359.69
661.70	358.14
662.05	356.56
662.39	354.98
662.73	353.49
663.07	352.02
663.41	350.58
663.75	349.16
664.09	347.74
664.43	346.24
664.77	344.84
665.11	343.39
665.45	342.02
665.79	340.64
666.13	339.25
666.47	337.85
666.81	336.43
667.15	334.98
667.49	333.62
667.83	332.31
668.17	331.04
668.51	329.79
668.85	328.57
669.19	327.42
669.53	326.20
669.87	324.96
670.21	323.75
670.55	322.55
670.89	321.42
671.23	320.27
671.57	319.13
671.91	318.04
672.25	317.02
672.58	315.97
672.92	314.90
673.26	313.90
673.60	312.90
673.94	311.89
674.28	310.95
674.62	309.99
674.96	309.00
675.30	308.08
675.64	307.13
675.97	306.19
676.31	305.22
676.65	304.27
676.99	303.38
677.33	302.44
677.67	301.55
678.01	300.58
678.34	299.68
678.68	298.84
679.02	297.97
679.36	297.10
679.70	296.25
680.04	295.42
680.37	294.58
680.71	293.78
681.05	293.02
681.39	292.22
681.73	291.39
682.06	290.60
682.40	289.82
682.74	289.06
683.08	288.33
683.42	287.58
683.75	286.90
684.09	286.15
684.43	285.44
684.77	284.71
685.10	284.04
685.44	283.34
685.78	282.64
686.12	281.98
686.45	281.30
686.79	280.62
687.13	279.97
687.46	279.29
687.80	278.64
688.14	277.94
688.48	277.31
688.81	276.67
689.15	276.08
689.49	275.44
689.82	274.83
690.16	274.16
690.50	273.55
690.83	272.94
691.17	272.34
691.51	271.77
691.84	271.21
692.18	270.62
692.52	270.02
692.85	269.44
693.19	268.91
693.52	268.36
693.86	267.81
694.20	267.27
694.53	266.76
694.87	266.23
695.21	265.72
695.54	265.21
695.88	264.69
696.21	264.13
696.55	263.63
696.88	263.13
697.22	262.65
697.56	262.16
697.89	261.63
698.23	261.13
698.56	260.61
698.90	260.14
699.23	259.66
699.57	259.22
699.90	258.76
700.24	258.27
700.58	257.83
700.91	257.41
701.25	257.07
701.58	256.69
701.92	256.31
702.25	255.89
702.59	255.47
702.92	255.07
703.26	254.68
703.59	254.28
703.93	253.98
704.26	253.61
704.60	253.23
704.93	252.86
705.26	252.50
705.60	252.18
705.93	251.80
706.27	251.49
706.60	251.16
706.94	250.85
707.27	250.47
707.61	250.12
707.94	249.76
708.27	249.32
708.61	248.94
708.94	248.58
709.28	248.25
709.61	247.93
709.94	247.64
710.28	247.34
710.61	247.06
710.95	246.67
711.28	246.45
711.61	246.17
711.95	245.91
712.28	245.62
712.61	245.32
712.95	245.11
713.28	244.88
713.61	244.60
713.95	244.31
714.28	244.07
714.61	243.81
714.95	243.57
715.28	243.32
715.61	243.08
715.95	242.84
716.28	242.60
716.61	242.38
716.95	242.14
717.28	241.91
717.61	241.67
717.94	241.45
718.28	241.16
718.61	240.93
718.94	240.69
719.27	240.49
719.61	240.29
719.94	240.06
720.27	239.80
720.60	239.59
720.94	239.39
721.27	239.21
721.60	239.04
721.93	238.85
722.27	238.70
722.60	238.53
722.93	238.33
723.26	238.17
723.59	237.96
723.93	237.80
724.26	237.63
724.59	237.46
724.92	237.30
725.25	237.17
725.59	237.01
725.92	236.87
726.25	236.71
726.58	236.56
726.91	236.39
727.24	236.26
727.57	236.11
727.91	235.94
728.24	235.80
728.57	235.65
728.90	235.51
729.23	235.34
729.56	235.24
729.89	235.10
730.22	234.95
730.55	234.81
730.89	234.67
731.22	234.53
731.55	234.40
731.88	234.27
732.21	234.12
732.54	233.99
732.87	233.87
733.20	233.75
733.53	233.63
733.86	233.53
734.19	233.40
734.52	233.30
734.85	233.26
735.18	233.13
735.51	233.04
735.84	232.93
736.17	232.85
736.50	232.68
736.83	232.70
737.16	232.60
737.49	232.51
737.82	232.41
738.15	232.32
738.48	232.23
738.81	232.12
739.14	232.00
739.47	231.90
739.80	231.80
740.13	231.71
740.46	231.59
740.79	231.48
741.12	231.39
741.45	231.27
741.78	231.12
742.11	231.06
742.44	230.95
742.77	230.87
743.10	230.76
743.43	230.68
743.75	230.48
744.08	230.55
744.41	230.46
744.74	230.37
745.07	230.26
745.40	230.19
745.73	230.16
746.06	230.09
746.39	230.02
746.71	229.94
747.04	229.85
747.37	229.78
747.70	229.72
748.03	229.65
748.36	229.59
748.68	229.52
749.01	229.42
749.34	229.35
749.67	229.28
750.00	229.23
750.33	229.24
750.65	229.18
750.98	228.96
751.31	228.90
751.64	228.83
751.97	228.83
752.29	228.75
752.62	228.64
752.95	228.57
753.28	228.48
753.60	228.42
753.93	228.38
754.26	228.32
754.59	228.22
754.91	228.15
755.24	228.08
755.57	228.06
755.90	228.00
756.22	227.93
756.55	227.85
756.88	227.77
757.20	227.64
757.53	227.55
757.86	227.49
758.19	227.45
758.51	227.39
758.84	227.28
759.17	227.22
759.49	227.18
759.82	227.18
760.15	227.14
760.47	227.09
760.80	227.01
761.13	226.97
761.45	226.93
761.78	226.88
762.11	226.84
762.43	226.74
762.76	226.70
763.08	226.67
763.41	226.63
763.74	226.60
764.06	226.55
764.39	226.51
764.71	226.47
765.04	226.42
765.37	226.36
765.69	226.32
766.02	226.28
766.34	226.23
766.67	226.15
767.00	226.13
767.32	226.15
767.65	226.18
767.97	226.12
768.30	226.09
768.62	226.06
768.95	226.01
769.27	225.97
769.60	225.94
769.92	225.89
770.25	225.84
770.57	225.78
770.90	225.75
771.22	225.70
771.55	225.67
771.87	225.65
772.20	225.62
772.52	225.67
772.85	225.76
773.17	225.73
773.50	225.69
773.82	225.64
774.15	225.56
774.47	225.46
774.80	225.42
775.12	225.39
775.45	225.36
775.77	225.34
776.09	225.32
776.42	225.29
776.74	225.30
777.07	225.27
777.39	225.25
777.72	225.22
778.04	225.21
778.36	225.17
778.69	225.15
779.01	225.13
779.33	225.01
779.66	224.87
779.98	224.84
780.31	224.83
780.63	224.85
780.95	224.84
781.28	224.82
781.60	224.80
781.92	224.78
782.25	224.75
782.57	224.73
782.89	224.71
783.22	224.68
783.54	224.64
783.86	224.63
784.19	224.60
784.51	224.62
784.83	224.58
785.16	224.56
785.48	224.55
785.80	224.53
786.12	224.52
786.45	224.50
786.77	224.49
787.09	224.47
787.42	224.41
787.74	224.39
788.06	224.38
788.38	224.36
788.71	224.34
789.03	224.33
789.35	224.32
789.67	224.30
789.99	224.29
790.32	224.26
790.64	224.25
790.96	224.34
791.28	224.28
791.61	224.26
791.93	224.26
792.25	224.24
792.57	224.30
792.89	224.27
793.21	224.26
793.54	224.24
793.86	224.22
794.18	224.21
794.50	224.17
794.82	224.16
795.14	224.16
795.47	224.16
795.79	224.15
796.11	224.12
796.43	224.10
796.75	224.09
797.07	224.08
797.39	224.07
797.71	223.97
798.04	223.96
798.36	223.96
798.68	223.95
799.00	223.94
799.32	223.88
799.64	223.89
799.96	223.87
800.28	223.88
800.60	223.87
800.92	223.86
801.24	223.84
801.56	223.84
801.89	223.82
802.21	223.81
802.53	223.79
802.85	223.80
803.17	223.84
803.49	223.81
803.81	223.78
804.13	223.77
804.45	223.74
804.77	223.74
805.09	223.72
805.41	223.71
805.73	223.68
806.05	223.64
806.37	223.62
806.69	223.60
807.01	223.58
807.33	223.58
807.65	223.53
807.97	223.57
808.28	223.55
808.60	223.54
808.92	223.52
809.24	223.57
809.56	223.55
809.88	223.50
810.20	223.50
810.52	223.52
810.84	223.50
811.16	223.48
811.48	223.46
811.80	223.50
812.12	223.48
812.43	223.50
812.75	223.50
813.07	223.49
813.39	223.49
813.71	223.46
814.03	223.45
814.35	223.45
814.67	223.40
814.98	223.39
815.30	223.38
815.62	223.36
815.94	223.28
816.26	223.29
816.58	223.26
816.89	223.27
817.21	223.23
817.53	223.24
817.85	223.24
818.17	223.23
818.48	223.18
818.80	223.20
819.12	223.18
819.44	223.15
819.76	223.14
820.07	223.14
820.39	223.13
820.71	223.13
821.03	223.13
821.34	223.11
821.66	223.12
821.98	223.13
822.30	223.12
822.61	223.18
822.93	223.16
823.25	223.15
823.57	223.13
823.88	223.14
824.20	223.13
824.52	223.15
824.83	223.14
825.15	223.13
825.47	223.11
825.79	223.12
826.10	223.11
826.42	223.11
826.74	223.11
827.05	223.10
827.37	223.10
827.69	223.09
828.00	223.09
828.32	223.09
828.64	223.07
828.95	223.13
829.27	223.09
829.58	223.09
829.90	223.11
830.22	223.12
830.53	223.09
830.85	223.08
831.17	223.05
831.48	223.05
831.80	223.05
832.11	223.04
832.43	223.02
832.75	223.02
833.06	223.07
833.38	223.05
833.69	223.04
834.01	223.04
834.32	223.04
834.64	223.03
834.96	223.02
835.27	223.02
835.59	222.98
835.90	222.96
836.22	222.95
836.53	222.93
836.85	222.91
837.16	223.01
837.48	223.01
837.79	223.05
838.11	223.05
838.42	223.05
838.74	223.05
839.05	223.05
839.37	223.04
839.68	222.98
840.00	222.97
840.31	222.98
840.63	222.97
840.94	222.96
841.26	222.95
841.57	222.95
841.88	222.95
842.20	222.94
842.51	222.92
842.83	222.92
843.14	223.01
843.46	223.01
843.77	222.94
844.08	222.94
844.40	222.90
844.71	222.89
845.03	222.88
845.34	222.87
845.65	222.86
845.97	222.86
846.28	222.87
846.60	222.87
846.91	222.85
847.22	222.85
847.54	222.87
847.85	222.87
848.16	222.86
848.48	222.84
848.79	222.88
849.10	222.89
849.42	222.89
849.73	222.80
850.04	222.79
850.36	222.76
850.67	222.77
850.98	222.77
851.30	222.78
851.61	222.78
851.92	222.78
852.23	222.81
852.55	222.81
852.86	222.82
853.17	222.83
853.49	222.85
853.80	222.87
854.11	222.87
854.42	222.88
854.74	222.87
855.05	222.87
855.36	222.82
855.67	222.82
855.99	222.82
856.30	222.94
856.61	222.94
856.92	222.94
857.23	222.94
857.55	222.93
857.86	222.92
858.17	222.94
858.48	222.92
858.79	222.89
859.11	222.90
859.42	222.89
859.73	222.87
860.04	222.86
860.35	222.83
860.66	222.80
860.98	222.79
861.29	222.81
861.60	222.80
861.91	222.82
862.22	222.81
862.53	222.79
862.84	222.67
863.16	222.69
863.47	222.67
863.78	222.66
864.09	222.67
864.40	222.68
864.71	222.67
865.02	222.69
865.33	222.68
865.64	222.66
865.95	222.66
866.27	222.72
866.58	222.71
866.89	222.72
867.20	222.73
867.51	222.71
867.82	222.70
868.13	222.74
868.44	222.71
868.75	222.73
869.06	222.74
869.37	222.75
869.68	222.72
869.99	222.74
870.30	222.75
870.61	222.75
870.92	222.74
871.23	222.73
871.54	222.74
871.85	222.76
872.16	222.77
872.47	222.76
872.78	222.71
873.09	222.71
873.40	222.70
873.71	222.71
874.02	222.72
874.33	222.71
874.64	222.68
874.95	222.70
875.26	222.67
875.56	222.67
875.87	222.67
876.18	222.66
876.49	222.76
876.80	222.75
877.11	222.73
877.42	222.74
877.73	222.74
878.04	222.72
878.35	222.72
878.66	222.73
878.96	222.72
879.27	222.72
879.58	222.71
879.89	222.71
880.20	222.73
880.51	222.73
880.82	222.73
881.12	222.73
881.43	222.71
881.74	222.70
882.05	222.69
882.36	222.69
882.67	222.70
882.97	222.59
883.28	222.58
883.59	222.58
883.90	222.58
884.21	222.60
884.51	222.59
884.82	222.57
885.13	222.57
885.44	222.57
885.74	222.57
886.05	222.56
886.36	222.56
886.67	222.52
886.98	222.58
887.28	222.58
887.59	222.58
887.90	222.59
888.20	222.58
888.51	222.60
888.82	222.59
889.13	222.59
889.43	222.68
889.74	222.68
890.05	222.67
890.35	222.66
890.66	222.64
890.97	222.63
891.28	222.62
891.58	222.62
891.89	222.62
892.20	222.61
892.50	222.60
892.81	222.59
893.12	222.59
893.42	222.54
893.73	222.54
894.04	222.54
894.34	222.54
894.65	222.54
894.95	222.52
895.26	222.53
895.57	222.57
895.87	222.47
896.18	222.48
896.48	222.49
896.79	222.49
897.10	222.50
897.40	222.51
897.71	222.52
898.01	222.51
898.32	222.52
898.63	222.51
898.93	222.52
899.24	222.53
899.54	222.52
899.85	222.51
900.15	222.51
900.46	222.50
900.76	222.51
901.07	222.51
901.38	222.51
901.68	222.52
901.99	222.46
902.29	222.47
902.60	222.46
902.90	222.45
903.21	222.45
903.51	222.44
903.82	222.46
904.12	222.46
904.43	222.47
904.73	222.46
905.03	222.47
905.34	222.57
905.64	222.56
905.95	222.56
906.25	222.56
906.56	222.56
906.86	222.56
907.17	222.55
907.47	222.55
907.77	222.54
908.08	222.52
908.38	222.53
908.69	222.53
908.99	222.56
909.30	222.56
909.60	222.56
909.90	222.57
910.21	222.53
910.51	222.51
910.81	222.51
911.12	222.52
911.42	222.52
911.73	222.42
912.03	222.42
912.33	222.44
912.64	222.44
912.94	222.42
913.24	222.41
913.55	222.40
913.85	222.39
914.15	222.41
914.46	222.43
914.76	222.42
915.06	222.40
915.37	222.38
915.67	222.37
915.97	222.37
916.27	222.35
916.58	222.36
916.88	222.36
917.18	222.35
917.49	222.41
917.79	222.41
918.09	222.42
918.39	222.45
918.70	222.44
919.00	222.44
919.30	222.49
919.60	222.49
919.91	222.48
920.21	222.49
920.51	222.47
920.81	222.45
921.12	222.47
921.42	222.47
921.72	222.47
922.02	222.48
922.32	222.50
922.63	222.50
922.93	222.56
923.23	222.56
923.53	222.55
923.83	222.49
924.13	222.50
924.44	222.49
924.74	222.51
925.04	222.53
925.34	222.53
925.64	222.48
925.94	222.49
926.24	222.55
926.55	222.53
926.85	222.55
927.15	222.55
927.45	222.55
927.75	222.55
928.05	222.55
928.35	222.54
928.65	222.55
928.95	222.56
929.26	222.51
929.56	222.53
929.86	222.54
930.16	222.53
930.46	222.52
930.76	222.52
931.06	222.47
931.36	222.44
931.66	222.46
931.96	222.48
932.26	222.48
932.56	222.43
932.86	222.44
933.16	222.44
933.46	222.42
933.76	222.41
934.06	222.43
934.36	222.46
934.66	222.46
934.96	222.44
935.26	222.44
935.56	222.45
935.86	222.42
936.16	222.41
936.46	222.40
936.76	222.40
937.06	222.38
937.36	222.39
937.66	222.40
937.96	222.39
938.26	222.36
938.56	222.36
938.86	222.37
939.16	222.39
939.46	222.40
939.76	222.40
940.06	222.41
940.35	222.39
940.65	222.34
940.95	222.34
941.25	222.32
941.55	222.31
941.85	222.30
942.15	222.32
942.45	222.35
942.75	222.35
943.04	222.35
943.34	222.37
943.64	222.36
943.94	222.34
944.24	222.34
944.54	222.34
944.84	222.34
945.13	222.32
945.43	222.30
945.73	222.30
946.03	222.29
946.33	222.27
946.62	222.27
946.92	222.27
947.22	222.27
947.52	222.28
947.82	222.30
948.11	222.29
948.41	222.26
948.71	222.24
949.01	222.25
949.31	222.24
949.60	222.23
949.90	222.24
950.20	222.24
950.50	222.24
950.79	222.23
951.09	222.25
951.39	222.25
951.69	222.24
951.98	222.26
952.28	222.27
952.58	222.26
952.87	222.26
953.17	222.28
953.47	222.26
953.76	222.26
954.06	222.24
954.36	222.23
954.66	222.23
954.95	222.26
955.25	222.27
955.55	222.28
955.84	222.26
956.14	222.27
956.44	222.28
956.73	222.26
957.03	222.27
957.32	222.27
957.62	222.27
957.92	222.30
958.21	222.28
958.51	222.40
958.81	222.42
959.10	222.43
959.40	222.44
959.69	222.45
959.99	222.46
960.29	222.46
960.58	222.47
960.88	222.50
961.17	222.49
961.47	222.50
961.76	222.48
962.06	222.50
962.36	222.49
962.65	222.50
962.95	222.50
963.24	222.49
963.54	222.50
963.83	222.50
964.13	222.49
964.42	222.48
964.72	222.39
965.01	222.39
965.31	222.38
965.60	222.35
965.90	222.42
966.19	222.39
966.49	222.40
966.78	222.39
967.08	222.38
967.37	222.38
967.67	222.36
967.96	222.38
968.26	222.38
968.55	222.39
968.85	222.38
969.14	222.38
969.43	222.38
969.73	222.37
970.02	222.37
970.32	222.36
970.61	222.35
970.91	222.32
971.20	222.30
971.49	222.30
971.79	222.31
972.08	222.24
972.38	222.25
972.67	222.24
972.96	222.26
973.26	222.23
973.55	222.27
973.85	222.26
974.14	222.25
974.43	222.26
974.73	222.24
975.02	222.22
975.31	222.23
975.61	222.23
975.90	222.22
976.19	222.21
976.49	222.21
976.78	222.22
977.07	222.23
977.37	222.23
977.66	222.24
977.95	222.23
978.24	222.24
978.54	222.26
978.83	222.25
979.12	222.24
979.42	222.24
979.71	222.23
980.00	222.22
980.29	222.23
980.59	222.21
980.88	222.24
981.17	222.24
981.46	222.24
981.76	222.24
982.05	222.28
982.34	222.28
982.63	222.28
982.93	222.29
983.22	222.31
983.51	222.31
983.80	222.33
984.09	222.34
984.39	222.33
984.68	222.32
984.97	222.33
985.26	222.32
985.55	222.33
985.85	222.31
986.14	222.33
986.43	222.34
986.72	222.33
987.01	222.30
987.30	222.30
987.59	222.30
987.89	222.30
988.18	222.26
988.47	222.26
988.76	222.25
989.05	222.24
989.34	222.22
989.63	222.24
989.92	222.23
990.22	222.21
990.51	222.21
990.80	222.20
991.09	222.21
991.38	222.22
991.67	222.21
991.96	222.20
992.25	222.20
992.54	222.18
992.83	222.19
993.12	222.18
993.41	222.20
993.70	222.24
993.99	222.26
994.28	222.27
994.58	222.29
994.87	222.28
995.16	222.28
995.45	222.27
995.74	222.24
996.03	222.25
996.32	222.27
996.61	222.29
996.90	222.29
997.19	222.28
997.48	222.28
997.77	222.27
998.06	222.28
998.34	222.26
998.63	222.27
998.92	222.27
999.21	222.29
999.50	222.29
999.79	222.25
1000.08	222.25
1000.37	222.24
1000.66	222.22
1000.95	222.25
1001.24	222.26
1001.53	222.27
1001.82	222.27
1002.11	222.24
1002.40	222.25
1002.68	222.27
1002.97	222.34
1003.26	222.33
1003.55	222.31
1003.84	222.32
1004.13	222.36
1004.42	222.35
1004.71	222.35
1004.99	222.34
1005.28	222.36
1005.57	222.35
1005.86	222.34
1006.15	222.33
1006.44	222.32
1006.72	222.33
1007.01	222.31
1007.30	222.30
1007.59	222.29
1007.88	222.29
1008.17	222.30
1008.45	222.28
1008.74	222.23
1009.03	222.19
1009.32	222.19
1009.60	222.19
1009.89	222.18
1010.18	222.14
1010.47	222.14
1010.76	222.14
1011.04	222.14
1011.33	222.13
1011.62	222.14
1011.91	222.15
1012.19	222.15
1012.48	222.15
1012.77	222.15
1013.05	222.19
1013.34	222.19
1013.63	222.18
1013.92	222.19
1014.20	222.18
1014.49	222.19
1014.78	222.20
1015.06	222.17
1015.35	222.17
1015.64	222.18
1015.92	222.20
1016.21	222.21
1016.50	222.21
1016.78	222.22
1017.07	222.23
1017.36	222.21
1017.64	222.19
1017.93	222.20
1018.22	222.19
1018.50	222.19
1018.79	222.18
1019.08	222.15
1019.36	222.16
1019.65	222.15
1019.93	222.18
1020.22	222.19
1020.51	222.24
1020.79	222.23
1021.08	221.98
1021.36	221.96
1021.65	222.13
1021.94	222.19
1022.22	222.28
1022.51	221.98
1022.79	222.72
1023.08	222.30
1023.36	223.39
1023.65	221.92
>>>>>End Processed Spectral Data<<<<<
