SpectraSuite Data File
++++++++++++++++++++++++++++++++++++
Date: Wed Sep 30 21:18:05 EDT 2015
User: lab3
Dark Spectrum Present: No
Reference Spectrum Present: No
Number of Sampled Component Spectra: 1
Spectrometers: USB2E7196
Integration Time (usec): 36000 (USB2E7196)
Spectra Averaged: 10000 (USB2E7196)
Boxcar Smoothing: 10 (USB2E7196)
Correct for Electrical Dark: No (USB2E7196)
Strobe/Lamp Enabled: No (USB2E7196)
Correct for Detector Non-linearity: No (USB2E7196)
Correct for Stray Light: No (USB2E7196)
Number of Pixels in Processed Spectrum: 2048
>>>>>Begin Processed Spectral Data<<<<<
339.09	0.00
339.48	211.57
339.86	213.06
340.24	214.41
340.63	215.81
341.01	218.77
341.39	218.49
341.78	219.88
342.16	221.05
342.54	221.60
342.93	210.07
343.31	220.69
343.69	221.22
344.07	221.69
344.46	222.11
344.84	222.50
345.22	222.73
345.60	222.99
345.99	223.18
346.37	223.32
346.75	223.42
347.13	223.50
347.52	223.56
347.90	223.64
348.28	223.68
348.66	223.73
349.05	223.73
349.43	223.78
349.81	223.84
350.19	223.89
350.57	223.95
350.96	224.03
351.34	224.13
351.72	224.22
352.10	224.32
352.48	224.40
352.87	224.45
353.25	224.52
353.63	224.58
354.01	224.65
354.39	224.72
354.77	224.80
355.15	224.90
355.54	224.95
355.92	224.98
356.30	225.05
356.68	225.19
357.06	225.26
357.44	225.32
357.82	225.38
358.20	225.48
358.58	225.54
358.97	225.61
359.35	225.69
359.73	225.77
360.11	225.82
360.49	225.87
360.87	225.93
361.25	225.99
361.63	226.06
362.01	226.11
362.39	226.14
362.77	226.19
363.15	226.21
363.53	226.25
363.91	226.29
364.29	226.32
364.67	226.24
365.05	226.27
365.43	226.30
365.81	226.33
366.19	226.35
366.57	226.40
366.95	226.40
367.33	226.38
367.71	226.37
368.09	226.39
368.47	226.38
368.85	226.37
369.23	226.38
369.61	226.33
369.99	226.34
370.37	226.34
370.75	226.40
371.13	226.37
371.51	226.33
371.89	226.31
372.27	226.29
372.65	226.26
373.03	226.22
373.41	226.18
373.78	226.12
374.16	226.03
374.54	225.96
374.92	225.91
375.30	225.86
375.68	225.80
376.06	225.75
376.44	225.70
376.82	225.65
377.19	225.60
377.57	225.55
377.95	225.47
378.33	225.40
378.71	225.26
379.09	225.21
379.47	225.17
379.84	225.11
380.22	225.05
380.60	224.98
380.98	224.93
381.36	224.88
381.73	224.81
382.11	224.79
382.49	224.74
382.87	224.68
383.25	224.63
383.62	224.71
384.00	224.64
384.38	224.60
384.76	224.58
385.13	224.57
385.51	224.53
385.89	224.48
386.27	224.44
386.64	224.42
387.02	224.37
387.40	224.32
387.78	224.29
388.15	224.26
388.53	224.23
388.91	224.20
389.29	224.17
389.66	224.16
390.04	224.12
390.42	224.11
390.79	224.09
391.17	224.08
391.55	223.94
391.92	223.93
392.30	223.93
392.68	223.89
393.05	223.87
393.43	223.87
393.81	223.87
394.18	223.85
394.56	223.85
394.94	223.88
395.31	223.88
395.69	223.92
396.06	223.94
396.44	223.96
396.82	223.97
397.19	224.04
397.57	224.06
397.95	224.10
398.32	224.09
398.70	224.14
399.07	224.19
399.45	224.23
399.82	224.27
400.20	224.30
400.58	224.36
400.95	224.37
401.33	224.44
401.70	224.58
402.08	224.67
402.45	224.74
402.83	224.84
403.20	224.94
403.58	225.02
403.95	225.14
404.33	225.27
404.71	225.40
405.08	225.58
405.46	225.72
405.83	225.88
406.21	226.05
406.58	226.24
406.96	226.42
407.33	226.64
407.70	226.88
408.08	227.19
408.45	227.47
408.83	227.78
409.20	228.06
409.58	228.31
409.95	228.65
410.33	229.02
410.70	229.37
411.08	229.78
411.45	230.21
411.82	230.65
412.20	231.15
412.57	231.75
412.95	232.22
413.32	232.83
413.69	233.45
414.07	234.12
414.44	234.84
414.82	235.58
415.19	236.44
415.56	237.32
415.94	238.24
416.31	239.26
416.68	240.28
417.06	241.47
417.43	242.59
417.81	243.88
418.18	245.19
418.55	246.62
418.93	248.11
419.30	249.66
419.67	251.32
420.04	253.02
420.42	254.79
420.79	256.84
421.16	258.92
421.54	261.03
421.91	263.23
422.28	265.52
422.66	268.00
423.03	270.35
423.40	272.83
423.77	275.48
424.15	278.19
424.52	281.02
424.89	284.09
425.26	287.13
425.64	289.95
426.01	293.13
426.38	296.38
426.75	299.73
427.13	303.16
427.50	306.74
427.87	310.47
428.24	314.23
428.61	317.84
428.99	321.72
429.36	325.98
429.73	330.05
430.10	334.12
430.47	338.27
430.85	342.53
431.22	347.08
431.59	351.76
431.96	356.31
432.33	361.35
432.70	366.12
433.08	371.77
433.45	377.11
433.82	382.35
434.19	388.20
434.56	393.95
434.93	399.50
435.30	404.98
435.68	411.16
436.05	417.20
436.42	423.23
436.79	428.72
437.16	434.65
437.53	441.00
437.90	447.34
438.27	453.54
438.64	460.26
439.01	466.33
439.38	471.87
439.75	477.23
440.13	483.34
440.50	489.15
440.87	493.72
441.24	498.75
441.61	504.31
441.98	508.37
442.35	513.22
442.72	518.18
443.09	522.92
443.46	525.98
443.83	528.24
444.20	530.15
444.57	532.96
444.94	534.63
445.31	536.35
445.68	537.89
446.05	539.03
446.42	538.87
446.79	538.62
447.16	538.41
447.53	538.24
447.90	536.43
448.27	534.74
448.64	532.07
449.01	530.30
449.37	526.47
449.74	522.99
450.11	518.50
450.48	513.57
450.85	508.60
451.22	504.38
451.59	500.25
451.96	496.50
452.33	490.99
452.70	486.08
453.07	480.11
453.43	474.13
453.80	468.34
454.17	462.78
454.54	457.62
454.91	451.79
455.28	446.30
455.65	441.14
456.02	435.63
456.38	431.20
456.75	425.47
457.12	420.85
457.49	416.18
457.86	411.73
458.23	407.83
458.59	403.53
458.96	399.10
459.33	395.19
459.70	391.22
460.07	388.19
460.43	384.62
460.80	381.27
461.17	378.31
461.54	375.13
461.91	372.17
462.27	369.14
462.64	366.67
463.01	363.84
463.38	360.98
463.74	358.39
464.11	356.08
464.48	354.00
464.85	351.77
465.21	350.06
465.58	348.18
465.95	346.00
466.32	344.25
466.68	342.55
467.05	340.84
467.42	339.18
467.78	337.40
468.15	335.75
468.52	334.52
468.88	332.92
469.25	331.44
469.62	330.27
469.98	329.01
470.35	327.88
470.72	326.86
471.08	325.83
471.45	324.97
471.82	324.03
472.18	323.05
472.55	322.41
472.92	321.63
473.28	321.00
473.65	320.37
474.02	319.78
474.38	319.28
474.75	318.99
475.11	318.59
475.48	318.43
475.85	318.27
476.21	318.22
476.58	318.22
476.94	318.41
477.31	318.53
477.67	318.68
478.04	318.94
478.41	319.27
478.77	319.73
479.14	320.06
479.50	320.62
479.87	321.30
480.23	321.97
480.60	322.63
480.96	323.32
481.33	324.26
481.69	325.21
482.06	326.15
482.42	327.04
482.79	328.11
483.15	329.33
483.52	330.70
483.88	332.02
484.25	333.43
484.61	334.89
484.98	336.47
485.34	338.24
485.71	340.07
486.07	342.03
486.44	343.97
486.80	346.13
487.17	348.34
487.53	350.78
487.90	353.31
488.26	356.05
488.62	358.95
488.99	361.85
489.35	364.87
489.72	368.14
490.08	371.58
490.44	375.12
490.81	378.83
491.17	382.62
491.54	386.67
491.90	390.82
492.26	395.28
492.63	399.98
492.99	404.86
493.36	409.87
493.72	415.15
494.08	420.57
494.45	426.28
494.81	432.20
495.17	438.26
495.54	444.65
495.90	451.35
496.26	458.19
496.63	465.26
496.99	472.63
497.35	480.36
497.72	488.37
498.08	496.54
498.44	504.97
498.80	513.95
499.17	523.15
499.53	532.68
499.89	542.44
500.26	552.38
500.62	562.61
500.98	573.49
501.34	584.52
501.71	596.09
502.07	607.88
502.43	620.07
502.79	632.55
503.16	645.48
503.52	658.55
503.88	672.02
504.24	685.94
504.60	700.12
504.97	714.67
505.33	729.62
505.69	745.47
506.05	761.50
506.41	777.53
506.78	793.86
507.14	810.71
507.50	828.12
507.86	845.95
508.22	864.03
508.59	882.14
508.95	900.97
509.31	920.24
509.67	940.18
510.03	960.35
510.39	980.75
510.75	1001.37
511.12	1022.31
511.48	1043.51
511.84	1064.87
512.20	1086.57
512.56	1109.34
512.92	1132.26
513.28	1154.90
513.64	1177.91
514.00	1201.34
514.37	1225.08
514.73	1248.89
515.09	1272.49
515.45	1296.51
515.81	1321.11
516.17	1345.72
516.53	1370.06
516.89	1394.47
517.25	1419.10
517.61	1443.90
517.97	1468.93
518.33	1493.72
518.69	1518.59
519.05	1543.80
519.41	1569.11
519.77	1594.67
520.13	1619.52
520.49	1644.54
520.85	1669.83
521.21	1694.98
521.57	1720.75
521.93	1745.82
522.29	1771.71
522.65	1797.36
523.01	1822.83
523.37	1847.53
523.73	1872.99
524.09	1898.60
524.45	1924.04
524.81	1948.97
525.17	1973.84
525.53	1998.30
525.89	2022.81
526.25	2047.59
526.61	2071.81
526.97	2096.30
527.33	2120.72
527.68	2144.83
528.04	2168.30
528.40	2191.55
528.76	2215.02
529.12	2237.44
529.48	2260.25
529.84	2281.23
530.20	2302.75
530.56	2323.86
530.91	2345.13
531.27	2365.87
531.63	2385.92
531.99	2405.53
532.35	2424.87
532.71	2444.33
533.07	2464.29
533.42	2482.81
533.78	2501.60
534.14	2520.40
534.50	2538.35
534.86	2556.97
535.21	2573.84
535.57	2590.46
535.93	2606.53
536.29	2621.29
536.65	2636.98
537.00	2651.45
537.36	2666.46
537.72	2680.49
538.08	2694.15
538.44	2706.65
538.79	2719.36
539.15	2730.42
539.51	2741.40
539.87	2751.97
540.22	2760.30
540.58	2768.92
540.94	2777.94
541.29	2785.66
541.65	2792.32
542.01	2798.45
542.37	2802.77
542.72	2809.11
543.08	2814.79
543.44	2820.22
543.79	2824.95
544.15	2828.61
544.51	2832.43
544.87	2835.28
545.22	2837.77
545.58	2839.29
545.94	2841.28
546.29	2841.80
546.65	2842.28
547.01	2843.00
547.36	2843.73
547.72	2844.70
548.07	2844.14
548.43	2843.03
548.79	2841.22
549.14	2839.35
549.50	2838.25
549.86	2835.92
550.21	2831.29
550.57	2827.16
550.92	2821.74
551.28	2816.86
551.64	2812.03
551.99	2807.41
552.35	2802.44
552.70	2796.99
553.06	2792.35
553.41	2787.20
553.77	2781.27
554.13	2776.35
554.48	2770.23
554.84	2762.69
555.19	2755.30
555.55	2747.35
555.90	2739.97
556.26	2733.55
556.61	2726.51
556.97	2717.20
557.32	2708.97
557.68	2700.93
558.03	2692.34
558.39	2684.34
558.74	2676.51
559.10	2667.52
559.45	2658.10
559.81	2649.07
560.16	2639.28
560.52	2629.18
560.87	2620.14
561.23	2610.65
561.58	2600.65
561.94	2590.40
562.29	2579.66
562.64	2569.51
563.00	2559.60
563.35	2549.49
563.71	2538.39
564.06	2526.99
564.42	2516.52
564.77	2505.72
565.12	2495.03
565.48	2484.20
565.83	2474.03
566.19	2463.86
566.54	2453.14
566.89	2441.64
567.25	2430.01
567.60	2419.22
567.96	2407.91
568.31	2395.15
568.66	2382.55
569.02	2370.97
569.37	2359.12
569.72	2347.80
570.08	2335.73
570.43	2323.18
570.78	2310.25
571.14	2297.22
571.49	2284.85
571.84	2272.86
572.20	2259.61
572.55	2246.68
572.90	2233.56
573.26	2219.36
573.61	2204.65
573.96	2190.36
574.31	2176.37
574.67	2162.67
575.02	2148.57
575.37	2134.02
575.72	2119.69
576.08	2105.92
576.43	2091.02
576.78	2076.31
577.13	2062.33
577.49	2048.35
577.84	2034.75
578.19	2020.34
578.54	2005.57
578.90	1990.34
579.25	1974.75
579.60	1960.65
579.95	1946.18
580.30	1931.75
580.66	1917.66
581.01	1903.23
581.36	1889.10
581.71	1875.60
582.06	1861.46
582.42	1847.49
582.77	1834.16
583.12	1820.49
583.47	1806.93
583.82	1793.53
584.17	1779.98
584.53	1766.31
584.88	1752.66
585.23	1738.59
585.58	1725.08
585.93	1711.95
586.28	1699.65
586.63	1687.10
586.98	1673.83
587.34	1660.76
587.69	1647.24
588.04	1634.08
588.39	1621.48
588.74	1608.34
589.09	1595.01
589.44	1581.66
589.79	1568.79
590.14	1555.90
590.49	1543.16
590.84	1530.29
591.19	1518.02
591.54	1505.26
591.89	1492.32
592.25	1479.70
592.60	1466.75
592.95	1454.37
593.30	1442.35
593.65	1430.03
594.00	1418.00
594.35	1406.61
594.70	1394.55
595.05	1383.54
595.40	1372.19
595.75	1360.33
596.10	1349.31
596.45	1338.48
596.80	1328.14
597.15	1317.59
597.50	1306.99
597.85	1296.66
598.19	1286.47
598.54	1275.66
598.89	1265.62
599.24	1255.85
599.59	1245.90
599.94	1236.99
600.29	1227.91
600.64	1218.57
600.99	1208.64
601.34	1199.21
601.69	1189.24
602.04	1180.29
602.39	1171.20
602.74	1162.40
603.08	1153.79
603.43	1144.69
603.78	1135.51
604.13	1126.44
604.48	1117.30
604.83	1108.42
605.18	1099.48
605.53	1090.45
605.87	1081.57
606.22	1072.94
606.57	1064.08
606.92	1055.31
607.27	1046.29
607.62	1037.42
607.96	1028.74
608.31	1021.14
608.66	1013.08
609.01	1005.44
609.36	997.75
609.70	989.79
610.05	981.69
610.40	973.94
610.75	966.25
611.10	958.85
611.44	951.11
611.79	943.63
612.14	935.78
612.49	928.12
612.83	920.93
613.18	913.80
613.53	906.45
613.88	899.22
614.22	892.60
614.57	885.80
614.92	878.98
615.27	872.17
615.61	865.20
615.96	858.42
616.31	851.58
616.65	844.64
617.00	837.98
617.35	831.47
617.70	824.98
618.04	818.57
618.39	812.16
618.74	806.08
619.08	799.83
619.43	793.83
619.78	787.80
620.12	781.62
620.47	775.61
620.82	769.74
621.16	764.15
621.51	758.17
621.85	752.22
622.20	746.34
622.55	740.65
622.89	734.89
623.24	729.21
623.59	723.58
623.93	718.01
624.28	712.57
624.62	707.09
624.97	701.61
625.32	696.22
625.66	690.70
626.01	685.15
626.35	679.78
626.70	674.44
627.04	669.34
627.39	664.24
627.73	659.27
628.08	654.50
628.43	649.61
628.77	644.80
629.12	640.13
629.46	635.62
629.81	630.89
630.15	626.08
630.50	621.43
630.84	617.01
631.19	612.75
631.53	608.51
631.88	604.20
632.22	599.96
632.57	595.98
632.91	591.95
633.26	588.01
633.60	584.15
633.95	580.40
634.29	576.48
634.64	572.54
634.98	568.49
635.32	564.59
635.67	560.82
636.01	557.02
636.36	553.24
636.70	549.61
637.05	546.01
637.39	542.59
637.73	539.01
638.08	535.50
638.42	531.95
638.77	528.30
639.11	524.60
639.45	520.97
639.80	517.35
640.14	513.92
640.49	510.43
640.83	506.80
641.17	503.25
641.52	499.85
641.86	496.43
642.20	493.22
642.55	489.85
642.89	486.58
643.23	483.48
643.58	480.65
643.92	477.68
644.26	474.72
644.61	471.75
644.95	468.81
645.29	465.79
645.64	462.76
645.98	459.88
646.32	457.19
646.66	454.48
647.01	451.74
647.35	449.04
647.69	446.23
648.04	443.63
648.38	441.01
648.72	438.35
649.06	435.80
649.41	433.24
649.75	430.67
650.09	428.15
650.43	425.63
650.78	423.06
651.12	420.49
651.46	418.04
651.80	415.69
652.14	413.41
652.49	411.15
652.83	408.94
653.17	406.70
653.51	404.53
653.85	402.44
654.20	400.28
654.54	398.04
654.88	396.02
655.22	394.01
655.56	391.97
655.90	390.04
656.25	388.10
656.59	386.18
656.93	384.37
657.27	382.58
657.61	380.70
657.95	378.89
658.29	377.09
658.64	375.30
658.98	373.51
659.32	371.73
659.66	370.06
660.00	368.40
660.34	366.78
660.68	365.10
661.02	363.36
661.36	361.75
661.70	360.19
662.05	358.60
662.39	357.01
662.73	355.52
663.07	354.04
663.41	352.59
663.75	351.16
664.09	349.71
664.43	348.19
664.77	346.79
665.11	345.32
665.45	343.94
665.79	342.56
666.13	341.16
666.47	339.75
666.81	338.32
667.15	336.86
667.49	335.50
667.83	334.18
668.17	332.91
668.51	331.64
668.85	330.41
669.19	329.26
669.53	328.02
669.87	326.77
670.21	325.55
670.55	324.34
670.89	323.22
671.23	322.06
671.57	320.92
671.91	319.82
672.25	318.79
672.58	317.73
672.92	316.66
673.26	315.65
673.60	314.64
673.94	313.62
674.28	312.67
674.62	311.70
674.96	310.70
675.30	309.77
675.64	308.82
675.97	307.87
676.31	306.89
676.65	305.94
676.99	305.04
677.33	304.11
677.67	303.20
678.01	302.23
678.34	301.32
678.68	300.48
679.02	299.60
679.36	298.73
679.70	297.87
680.04	297.03
680.37	296.19
680.71	295.37
681.05	294.62
681.39	293.81
681.73	292.97
682.06	292.18
682.40	291.39
682.74	290.63
683.08	289.89
683.42	289.15
683.75	288.47
684.09	287.71
684.43	286.98
684.77	286.26
685.10	285.57
685.44	284.87
685.78	284.17
686.12	283.50
686.45	282.82
686.79	282.14
687.13	281.48
687.46	280.80
687.80	280.15
688.14	279.44
688.48	278.81
688.81	278.16
689.15	277.57
689.49	276.93
689.82	276.31
690.16	275.64
690.50	275.02
690.83	274.39
691.17	273.80
691.51	273.22
691.84	272.65
692.18	272.06
692.52	271.46
692.85	270.87
693.19	270.33
693.52	269.77
693.86	269.22
694.20	268.68
694.53	268.16
694.87	267.62
695.21	267.11
695.54	266.59
695.88	266.07
696.21	265.51
696.55	265.01
696.88	264.50
697.22	264.01
697.56	263.52
697.89	262.98
698.23	262.48
698.56	261.96
698.90	261.49
699.23	261.01
699.57	260.56
699.90	260.10
700.24	259.61
700.58	259.16
700.91	258.74
701.25	258.39
701.58	258.01
701.92	257.61
702.25	257.20
702.59	256.78
702.92	256.38
703.26	255.98
703.59	255.58
703.93	255.27
704.26	254.89
704.60	254.51
704.93	254.15
705.26	253.78
705.60	253.46
705.93	253.07
706.27	252.75
706.60	252.42
706.94	252.10
707.27	251.73
707.61	251.37
707.94	251.00
708.27	250.57
708.61	250.19
708.94	249.82
709.28	249.49
709.61	249.16
709.94	248.86
710.28	248.56
710.61	248.28
710.95	247.89
711.28	247.67
711.61	247.38
711.95	247.12
712.28	246.82
712.61	246.52
712.95	246.30
713.28	246.08
713.61	245.80
713.95	245.51
714.28	245.27
714.61	245.01
714.95	244.76
715.28	244.50
715.61	244.26
715.95	244.03
716.28	243.79
716.61	243.58
716.95	243.33
717.28	243.10
717.61	242.86
717.94	242.63
718.28	242.34
718.61	242.11
718.94	241.88
719.27	241.67
719.61	241.47
719.94	241.24
720.27	240.97
720.60	240.77
720.94	240.57
721.27	240.38
721.60	240.21
721.93	240.01
722.27	239.86
722.60	239.69
722.93	239.49
723.26	239.31
723.59	239.10
723.93	238.94
724.26	238.77
724.59	238.60
724.92	238.44
725.25	238.30
725.59	238.14
725.92	238.00
726.25	237.84
726.58	237.68
726.91	237.51
727.24	237.37
727.57	237.22
727.91	237.06
728.24	236.92
728.57	236.76
728.90	236.63
729.23	236.45
729.56	236.35
729.89	236.21
730.22	236.05
730.55	235.92
730.89	235.77
731.22	235.63
731.55	235.49
731.88	235.35
732.21	235.21
732.54	235.08
732.87	234.95
733.20	234.83
733.53	234.71
733.86	234.60
734.19	234.47
734.52	234.37
734.85	234.32
735.18	234.19
735.51	234.11
735.84	233.99
736.17	233.91
736.50	233.74
736.83	233.76
737.16	233.66
737.49	233.56
737.82	233.46
738.15	233.37
738.48	233.27
738.81	233.17
739.14	233.05
739.47	232.95
739.80	232.85
740.13	232.76
740.46	232.65
740.79	232.54
741.12	232.44
741.45	232.33
741.78	232.18
742.11	232.12
742.44	232.00
742.77	231.93
743.10	231.82
743.43	231.73
743.75	231.53
744.08	231.60
744.41	231.51
744.74	231.42
745.07	231.31
745.40	231.24
745.73	231.21
746.06	231.13
746.39	231.07
746.71	230.98
747.04	230.89
747.37	230.82
747.70	230.76
748.03	230.69
748.36	230.63
748.68	230.55
749.01	230.45
749.34	230.38
749.67	230.31
750.00	230.25
750.33	230.26
750.65	230.20
750.98	229.98
751.31	229.92
751.64	229.86
751.97	229.85
752.29	229.77
752.62	229.66
752.95	229.59
753.28	229.51
753.60	229.44
753.93	229.40
754.26	229.34
754.59	229.24
754.91	229.17
755.24	229.09
755.57	229.07
755.90	229.02
756.22	228.95
756.55	228.87
756.88	228.79
757.20	228.66
757.53	228.57
757.86	228.51
758.19	228.46
758.51	228.40
758.84	228.30
759.17	228.24
759.49	228.19
759.82	228.19
760.15	228.15
760.47	228.10
760.80	228.02
761.13	227.99
761.45	227.94
761.78	227.90
762.11	227.86
762.43	227.75
762.76	227.71
763.08	227.67
763.41	227.63
763.74	227.60
764.06	227.55
764.39	227.52
764.71	227.48
765.04	227.42
765.37	227.37
765.69	227.33
766.02	227.29
766.34	227.24
766.67	227.16
767.00	227.14
767.32	227.15
767.65	227.17
767.97	227.12
768.30	227.09
768.62	227.05
768.95	227.00
769.27	226.96
769.60	226.94
769.92	226.88
770.25	226.83
770.57	226.78
770.90	226.74
771.22	226.70
771.55	226.67
771.87	226.64
772.20	226.61
772.52	226.66
772.85	226.75
773.17	226.72
773.50	226.68
773.82	226.63
774.15	226.55
774.47	226.46
774.80	226.42
775.12	226.39
775.45	226.36
775.77	226.34
776.09	226.32
776.42	226.29
776.74	226.30
777.07	226.27
777.39	226.25
777.72	226.22
778.04	226.20
778.36	226.17
778.69	226.14
779.01	226.12
779.33	226.01
779.66	225.87
779.98	225.84
780.31	225.82
780.63	225.85
780.95	225.84
781.28	225.82
781.60	225.79
781.92	225.77
782.25	225.76
782.57	225.73
782.89	225.71
783.22	225.68
783.54	225.64
783.86	225.62
784.19	225.60
784.51	225.61
784.83	225.58
785.16	225.56
785.48	225.55
785.80	225.53
786.12	225.52
786.45	225.50
786.77	225.49
787.09	225.47
787.42	225.41
787.74	225.39
788.06	225.38
788.38	225.36
788.71	225.34
789.03	225.33
789.35	225.33
789.67	225.30
789.99	225.29
790.32	225.27
790.64	225.26
790.96	225.34
791.28	225.29
791.61	225.27
791.93	225.26
792.25	225.24
792.57	225.30
792.89	225.26
793.21	225.26
793.54	225.24
793.86	225.21
794.18	225.21
794.50	225.18
794.82	225.16
795.14	225.16
795.47	225.17
795.79	225.16
796.11	225.12
796.43	225.10
796.75	225.09
797.07	225.08
797.39	225.06
797.71	224.96
798.04	224.96
798.36	224.95
798.68	224.94
799.00	224.94
799.32	224.87
799.64	224.88
799.96	224.86
800.28	224.87
800.60	224.85
800.92	224.85
801.24	224.83
801.56	224.83
801.89	224.81
802.21	224.80
802.53	224.77
802.85	224.78
803.17	224.82
803.49	224.79
803.81	224.77
804.13	224.76
804.45	224.74
804.77	224.73
805.09	224.72
805.41	224.71
805.73	224.68
806.05	224.64
806.37	224.62
806.69	224.60
807.01	224.59
807.33	224.59
807.65	224.54
807.97	224.58
808.28	224.55
808.60	224.54
808.92	224.52
809.24	224.57
809.56	224.55
809.88	224.50
810.20	224.50
810.52	224.52
810.84	224.49
811.16	224.48
811.48	224.46
811.80	224.49
812.12	224.48
812.43	224.49
812.75	224.49
813.07	224.48
813.39	224.48
813.71	224.46
814.03	224.44
814.35	224.45
814.67	224.40
814.98	224.39
815.30	224.38
815.62	224.36
815.94	224.28
816.26	224.29
816.58	224.26
816.89	224.26
817.21	224.23
817.53	224.23
817.85	224.23
818.17	224.22
818.48	224.18
818.80	224.20
819.12	224.17
819.44	224.15
819.76	224.13
820.07	224.13
820.39	224.12
820.71	224.12
821.03	224.12
821.34	224.11
821.66	224.12
821.98	224.13
822.30	224.12
822.61	224.18
822.93	224.16
823.25	224.16
823.57	224.14
823.88	224.15
824.20	224.15
824.52	224.16
824.83	224.15
825.15	224.14
825.47	224.13
825.79	224.13
826.10	224.13
826.42	224.13
826.74	224.13
827.05	224.13
827.37	224.12
827.69	224.11
828.00	224.12
828.32	224.11
828.64	224.09
828.95	224.14
829.27	224.10
829.58	224.10
829.90	224.11
830.22	224.12
830.53	224.10
830.85	224.09
831.17	224.06
831.48	224.06
831.80	224.06
832.11	224.05
832.43	224.03
832.75	224.03
833.06	224.09
833.38	224.06
833.69	224.05
834.01	224.05
834.32	224.04
834.64	224.03
834.96	224.02
835.27	224.01
835.59	223.98
835.90	223.96
836.22	223.96
836.53	223.93
836.85	223.92
837.16	224.02
837.48	224.02
837.79	224.05
838.11	224.05
838.42	224.05
838.74	224.06
839.05	224.05
839.37	224.05
839.68	223.98
840.00	223.98
840.31	223.99
840.63	223.98
840.94	223.97
841.26	223.96
841.57	223.96
841.88	223.97
842.20	223.96
842.51	223.94
842.83	223.93
843.14	224.03
843.46	224.02
843.77	223.96
844.08	223.95
844.40	223.91
844.71	223.90
845.03	223.89
845.34	223.87
845.65	223.86
845.97	223.87
846.28	223.87
846.60	223.87
846.91	223.85
847.22	223.85
847.54	223.87
847.85	223.87
848.16	223.85
848.48	223.83
848.79	223.87
849.10	223.88
849.42	223.88
849.73	223.78
850.04	223.78
850.36	223.74
850.67	223.76
850.98	223.75
851.30	223.76
851.61	223.75
851.92	223.75
852.23	223.78
852.55	223.79
852.86	223.79
853.17	223.79
853.49	223.82
853.80	223.84
854.11	223.84
854.42	223.85
854.74	223.84
855.05	223.84
855.36	223.79
855.67	223.78
855.99	223.78
856.30	223.91
856.61	223.90
856.92	223.91
857.23	223.91
857.55	223.90
857.86	223.89
858.17	223.91
858.48	223.89
858.79	223.87
859.11	223.87
859.42	223.87
859.73	223.85
860.04	223.85
860.35	223.81
860.66	223.78
860.98	223.77
861.29	223.79
861.60	223.78
861.91	223.81
862.22	223.79
862.53	223.77
862.84	223.65
863.16	223.67
863.47	223.66
863.78	223.64
864.09	223.65
864.40	223.66
864.71	223.66
865.02	223.67
865.33	223.66
865.64	223.64
865.95	223.64
866.27	223.70
866.58	223.68
866.89	223.70
867.20	223.70
867.51	223.68
867.82	223.68
868.13	223.71
868.44	223.69
868.75	223.71
869.06	223.72
869.37	223.73
869.68	223.70
869.99	223.72
870.30	223.73
870.61	223.73
870.92	223.72
871.23	223.71
871.54	223.72
871.85	223.74
872.16	223.75
872.47	223.75
872.78	223.69
873.09	223.70
873.40	223.69
873.71	223.69
874.02	223.70
874.33	223.69
874.64	223.67
874.95	223.69
875.26	223.66
875.56	223.66
875.87	223.65
876.18	223.65
876.49	223.75
876.80	223.73
877.11	223.72
877.42	223.72
877.73	223.73
878.04	223.71
878.35	223.71
878.66	223.71
878.96	223.71
879.27	223.71
879.58	223.70
879.89	223.70
880.20	223.72
880.51	223.72
880.82	223.72
881.12	223.72
881.43	223.70
881.74	223.69
882.05	223.69
882.36	223.70
882.67	223.71
882.97	223.59
883.28	223.59
883.59	223.58
883.90	223.59
884.21	223.60
884.51	223.59
884.82	223.57
885.13	223.57
885.44	223.57
885.74	223.57
886.05	223.56
886.36	223.57
886.67	223.53
886.98	223.58
887.28	223.58
887.59	223.58
887.90	223.58
888.20	223.58
888.51	223.60
888.82	223.58
889.13	223.58
889.43	223.67
889.74	223.67
890.05	223.67
890.35	223.66
890.66	223.64
890.97	223.63
891.28	223.62
891.58	223.62
891.89	223.62
892.20	223.61
892.50	223.60
892.81	223.59
893.12	223.59
893.42	223.54
893.73	223.54
894.04	223.54
894.34	223.55
894.65	223.54
894.95	223.53
895.26	223.54
895.57	223.57
895.87	223.47
896.18	223.49
896.48	223.49
896.79	223.49
897.10	223.51
897.40	223.51
897.71	223.52
898.01	223.51
898.32	223.53
898.63	223.52
898.93	223.53
899.24	223.53
899.54	223.53
899.85	223.53
900.15	223.52
900.46	223.52
900.76	223.52
901.07	223.52
901.38	223.52
901.68	223.53
901.99	223.48
902.29	223.49
902.60	223.48
902.90	223.47
903.21	223.47
903.51	223.46
903.82	223.47
904.12	223.47
904.43	223.48
904.73	223.46
905.03	223.47
905.34	223.57
905.64	223.55
905.95	223.55
906.25	223.55
906.56	223.55
906.86	223.55
907.17	223.54
907.47	223.54
907.77	223.53
908.08	223.51
908.38	223.52
908.69	223.52
908.99	223.54
909.30	223.55
909.60	223.55
909.90	223.55
910.21	223.53
910.51	223.51
910.81	223.51
911.12	223.52
911.42	223.52
911.73	223.41
912.03	223.43
912.33	223.45
912.64	223.44
912.94	223.43
913.24	223.42
913.55	223.41
913.85	223.40
914.15	223.42
914.46	223.43
914.76	223.42
915.06	223.42
915.37	223.40
915.67	223.39
915.97	223.39
916.27	223.37
916.58	223.37
916.88	223.37
917.18	223.36
917.49	223.43
917.79	223.42
918.09	223.44
918.39	223.46
918.70	223.45
919.00	223.45
919.30	223.50
919.60	223.49
919.91	223.48
920.21	223.48
920.51	223.46
920.81	223.46
921.12	223.47
921.42	223.46
921.72	223.47
922.02	223.48
922.32	223.49
922.63	223.50
922.93	223.55
923.23	223.56
923.53	223.54
923.83	223.47
924.13	223.48
924.44	223.47
924.74	223.49
925.04	223.51
925.34	223.51
925.64	223.47
925.94	223.47
926.24	223.53
926.55	223.52
926.85	223.54
927.15	223.54
927.45	223.53
927.75	223.54
928.05	223.54
928.35	223.53
928.65	223.54
928.95	223.55
929.26	223.50
929.56	223.52
929.86	223.53
930.16	223.53
930.46	223.53
930.76	223.53
931.06	223.48
931.36	223.45
931.66	223.46
931.96	223.48
932.26	223.48
932.56	223.43
932.86	223.44
933.16	223.44
933.46	223.43
933.76	223.41
934.06	223.43
934.36	223.46
934.66	223.45
934.96	223.44
935.26	223.44
935.56	223.46
935.86	223.43
936.16	223.42
936.46	223.41
936.76	223.40
937.06	223.39
937.36	223.40
937.66	223.40
937.96	223.40
938.26	223.37
938.56	223.36
938.86	223.37
939.16	223.40
939.46	223.40
939.76	223.41
940.06	223.41
940.35	223.39
940.65	223.34
940.95	223.35
941.25	223.32
941.55	223.30
941.85	223.29
942.15	223.32
942.45	223.34
942.75	223.34
943.04	223.35
943.34	223.37
943.64	223.36
943.94	223.34
944.24	223.34
944.54	223.34
944.84	223.34
945.13	223.33
945.43	223.31
945.73	223.30
946.03	223.30
946.33	223.29
946.62	223.28
946.92	223.28
947.22	223.29
947.52	223.30
947.82	223.31
948.11	223.30
948.41	223.27
948.71	223.25
949.01	223.26
949.31	223.25
949.60	223.24
949.90	223.25
950.20	223.25
950.50	223.25
950.79	223.25
951.09	223.26
951.39	223.26
951.69	223.25
951.98	223.27
952.28	223.28
952.58	223.27
952.87	223.27
953.17	223.28
953.47	223.27
953.76	223.27
954.06	223.25
954.36	223.24
954.66	223.24
954.95	223.26
955.25	223.27
955.55	223.28
955.84	223.27
956.14	223.27
956.44	223.28
956.73	223.26
957.03	223.27
957.32	223.27
957.62	223.26
957.92	223.28
958.21	223.27
958.51	223.38
958.81	223.40
959.10	223.41
959.40	223.43
959.69	223.44
959.99	223.45
960.29	223.46
960.58	223.46
960.88	223.49
961.17	223.48
961.47	223.49
961.76	223.48
962.06	223.49
962.36	223.48
962.65	223.48
962.95	223.49
963.24	223.48
963.54	223.48
963.83	223.49
964.13	223.49
964.42	223.47
964.72	223.38
965.01	223.38
965.31	223.38
965.60	223.35
965.90	223.41
966.19	223.38
966.49	223.39
966.78	223.38
967.08	223.37
967.37	223.37
967.67	223.35
967.96	223.36
968.26	223.36
968.55	223.38
968.85	223.37
969.14	223.37
969.43	223.37
969.73	223.35
970.02	223.35
970.32	223.34
970.61	223.32
970.91	223.29
971.20	223.27
971.49	223.26
971.79	223.27
972.08	223.20
972.38	223.21
972.67	223.20
972.96	223.22
973.26	223.20
973.55	223.23
973.85	223.22
974.14	223.21
974.43	223.22
974.73	223.20
975.02	223.19
975.31	223.19
975.61	223.19
975.90	223.18
976.19	223.17
976.49	223.18
976.78	223.19
977.07	223.19
977.37	223.20
977.66	223.22
977.95	223.20
978.24	223.21
978.54	223.23
978.83	223.22
979.12	223.21
979.42	223.22
979.71	223.19
980.00	223.19
980.29	223.20
980.59	223.18
980.88	223.20
981.17	223.21
981.46	223.20
981.76	223.21
982.05	223.24
982.34	223.25
982.63	223.25
982.93	223.25
983.22	223.27
983.51	223.28
983.80	223.29
984.09	223.30
984.39	223.29
984.68	223.28
984.97	223.29
985.26	223.28
985.55	223.29
985.85	223.27
986.14	223.29
986.43	223.30
986.72	223.29
987.01	223.26
987.30	223.26
987.59	223.25
987.89	223.25
988.18	223.22
988.47	223.21
988.76	223.20
989.05	223.20
989.34	223.18
989.63	223.21
989.92	223.19
990.22	223.18
990.51	223.18
990.80	223.17
991.09	223.18
991.38	223.19
991.67	223.18
991.96	223.18
992.25	223.18
992.54	223.16
992.83	223.17
993.12	223.17
993.41	223.18
993.70	223.22
993.99	223.24
994.28	223.26
994.58	223.28
994.87	223.27
995.16	223.27
995.45	223.26
995.74	223.21
996.03	223.23
996.32	223.25
996.61	223.27
996.90	223.27
997.19	223.26
997.48	223.26
997.77	223.25
998.06	223.25
998.34	223.24
998.63	223.24
998.92	223.24
999.21	223.26
999.50	223.25
999.79	223.22
1000.08	223.21
1000.37	223.21
1000.66	223.19
1000.95	223.22
1001.24	223.22
1001.53	223.24
1001.82	223.24
1002.11	223.22
1002.40	223.22
1002.68	223.25
1002.97	223.32
1003.26	223.30
1003.55	223.29
1003.84	223.30
1004.13	223.33
1004.42	223.32
1004.71	223.33
1004.99	223.32
1005.28	223.33
1005.57	223.33
1005.86	223.32
1006.15	223.31
1006.44	223.29
1006.72	223.31
1007.01	223.29
1007.30	223.29
1007.59	223.28
1007.88	223.28
1008.17	223.28
1008.45	223.26
1008.74	223.21
1009.03	223.16
1009.32	223.17
1009.60	223.17
1009.89	223.16
1010.18	223.12
1010.47	223.11
1010.76	223.11
1011.04	223.11
1011.33	223.11
1011.62	223.12
1011.91	223.13
1012.19	223.13
1012.48	223.13
1012.77	223.13
1013.05	223.16
1013.34	223.17
1013.63	223.16
1013.92	223.17
1014.20	223.16
1014.49	223.17
1014.78	223.18
1015.06	223.15
1015.35	223.16
1015.64	223.17
1015.92	223.18
1016.21	223.19
1016.50	223.20
1016.78	223.21
1017.07	223.22
1017.36	223.20
1017.64	223.19
1017.93	223.20
1018.22	223.19
1018.50	223.19
1018.79	223.18
1019.08	223.15
1019.36	223.15
1019.65	223.15
1019.93	223.17
1020.22	223.19
1020.51	223.24
1020.79	223.22
1021.08	222.99
1021.36	223.00
1021.65	223.15
1021.94	223.15
1022.22	223.25
1022.51	223.01
1022.79	223.69
1023.08	223.32
1023.36	224.37
1023.65	222.91
>>>>>End Processed Spectral Data<<<<<
