SpectraSuite Data File
++++++++++++++++++++++++++++++++++++
Date: Thu Oct 01 10:36:46 EDT 2015
User: lab3
Dark Spectrum Present: No
Reference Spectrum Present: No
Number of Sampled Component Spectra: 1
Spectrometers: USB2E7196
Integration Time (usec): 36000 (USB2E7196)
Spectra Averaged: 10000 (USB2E7196)
Boxcar Smoothing: 10 (USB2E7196)
Correct for Electrical Dark: No (USB2E7196)
Strobe/Lamp Enabled: No (USB2E7196)
Correct for Detector Non-linearity: No (USB2E7196)
Correct for Stray Light: No (USB2E7196)
Number of Pixels in Processed Spectrum: 2048
>>>>>Begin Processed Spectral Data<<<<<
339.09	0.00
339.48	211.39
339.86	212.79
340.24	214.21
340.63	215.63
341.01	218.55
341.39	218.31
341.78	219.66
342.16	220.86
342.54	221.33
342.93	209.88
343.31	220.48
343.69	221.02
344.07	221.48
344.46	221.90
344.84	222.29
345.22	222.53
345.60	222.78
345.99	222.97
346.37	223.11
346.75	223.22
347.13	223.30
347.52	223.36
347.90	223.44
348.28	223.48
348.66	223.53
349.05	223.53
349.43	223.58
349.81	223.63
350.19	223.69
350.57	223.75
350.96	223.83
351.34	223.92
351.72	224.01
352.10	224.12
352.48	224.20
352.87	224.25
353.25	224.31
353.63	224.37
354.01	224.44
354.39	224.51
354.77	224.59
355.15	224.69
355.54	224.74
355.92	224.78
356.30	224.85
356.68	224.99
357.06	225.07
357.44	225.12
357.82	225.18
358.20	225.29
358.58	225.35
358.97	225.42
359.35	225.50
359.73	225.58
360.11	225.64
360.49	225.70
360.87	225.75
361.25	225.81
361.63	225.89
362.01	225.94
362.39	225.98
362.77	226.02
363.15	226.05
363.53	226.09
363.91	226.12
364.29	226.15
364.67	226.07
365.05	226.10
365.43	226.13
365.81	226.16
366.19	226.17
366.57	226.22
366.95	226.23
367.33	226.20
367.71	226.19
368.09	226.21
368.47	226.20
368.85	226.20
369.23	226.21
369.61	226.16
369.99	226.17
370.37	226.17
370.75	226.22
371.13	226.19
371.51	226.16
371.89	226.13
372.27	226.11
372.65	226.09
373.03	226.05
373.41	226.01
373.78	225.96
374.16	225.86
374.54	225.78
374.92	225.73
375.30	225.69
375.68	225.63
376.06	225.58
376.44	225.53
376.82	225.48
377.19	225.43
377.57	225.38
377.95	225.29
378.33	225.24
378.71	225.09
379.09	225.04
379.47	225.01
379.84	224.94
380.22	224.88
380.60	224.80
380.98	224.75
381.36	224.70
381.73	224.64
382.11	224.61
382.49	224.57
382.87	224.51
383.25	224.47
383.62	224.54
384.00	224.47
384.38	224.43
384.76	224.41
385.13	224.40
385.51	224.36
385.89	224.31
386.27	224.27
386.64	224.25
387.02	224.20
387.40	224.16
387.78	224.13
388.15	224.10
388.53	224.07
388.91	224.04
389.29	224.01
389.66	223.99
390.04	223.95
390.42	223.95
390.79	223.93
391.17	223.91
391.55	223.78
391.92	223.76
392.30	223.76
392.68	223.72
393.05	223.70
393.43	223.70
393.81	223.70
394.18	223.68
394.56	223.69
394.94	223.71
395.31	223.71
395.69	223.75
396.06	223.78
396.44	223.79
396.82	223.80
397.19	223.88
397.57	223.89
397.95	223.94
398.32	223.93
398.70	223.98
399.07	224.03
399.45	224.07
399.82	224.11
400.20	224.15
400.58	224.20
400.95	224.22
401.33	224.30
401.70	224.43
402.08	224.52
402.45	224.60
402.83	224.71
403.20	224.82
403.58	224.90
403.95	225.02
404.33	225.16
404.71	225.29
405.08	225.47
405.46	225.62
405.83	225.78
406.21	225.96
406.58	226.15
406.96	226.34
407.33	226.56
407.70	226.81
408.08	227.15
408.45	227.44
408.83	227.75
409.20	228.04
409.58	228.31
409.95	228.66
410.33	229.05
410.70	229.41
411.08	229.84
411.45	230.30
411.82	230.76
412.20	231.28
412.57	231.91
412.95	232.40
413.32	233.04
413.69	233.70
414.07	234.40
414.44	235.16
414.82	235.94
415.19	236.85
415.56	237.77
415.94	238.73
416.31	239.81
416.68	240.89
417.06	242.14
417.43	243.31
417.81	244.66
418.18	246.04
418.55	247.54
418.93	249.11
419.30	250.75
419.67	252.50
420.04	254.29
420.42	256.17
420.79	258.33
421.16	260.51
421.54	262.73
421.91	265.05
422.28	267.46
422.66	270.06
423.03	272.54
423.40	275.14
423.77	277.93
424.15	280.78
424.52	283.75
424.89	286.97
425.26	290.18
425.64	293.15
426.01	296.48
426.38	299.89
426.75	303.39
427.13	306.98
427.50	310.72
427.87	314.62
428.24	318.55
428.61	322.32
428.99	326.36
429.36	330.82
429.73	335.07
430.10	339.30
430.47	343.62
430.85	348.07
431.22	352.81
431.59	357.67
431.96	362.41
432.33	367.65
432.70	372.61
433.08	378.48
433.45	384.03
433.82	389.49
434.19	395.59
434.56	401.59
434.93	407.38
435.30	413.09
435.68	419.53
436.05	425.83
436.42	432.13
436.79	437.87
437.16	444.07
437.53	450.71
437.90	457.35
438.27	463.84
438.64	470.89
439.01	477.26
439.38	483.09
439.75	488.73
440.13	495.16
440.50	501.30
440.87	506.15
441.24	511.48
441.61	517.35
441.98	521.67
442.35	526.81
442.72	532.08
443.09	537.13
443.46	540.42
443.83	542.86
444.20	544.93
444.57	547.95
444.94	549.77
445.31	551.65
445.68	553.33
446.05	554.62
446.42	554.53
446.79	554.32
447.16	554.17
447.53	554.05
447.90	552.22
448.27	550.50
448.64	547.74
449.01	545.92
449.37	541.94
449.74	538.31
450.11	533.63
450.48	528.46
450.85	523.25
451.22	518.83
451.59	514.51
451.96	510.58
452.33	504.79
452.70	499.63
453.07	493.34
453.43	487.03
453.80	480.92
454.17	475.05
454.54	469.61
454.91	463.44
455.28	457.64
455.65	452.16
456.02	446.33
456.38	441.63
456.75	435.57
457.12	430.67
457.49	425.73
457.86	421.01
458.23	416.87
458.59	412.29
458.96	407.59
459.33	403.43
459.70	399.21
460.07	395.98
460.43	392.20
460.80	388.65
461.17	385.51
461.54	382.15
461.91	379.00
462.27	375.80
462.64	373.18
463.01	370.19
463.38	367.16
463.74	364.43
464.11	362.00
464.48	359.80
464.85	357.45
465.21	355.64
465.58	353.65
465.95	351.36
466.32	349.53
466.68	347.75
467.05	345.95
467.42	344.22
467.78	342.36
468.15	340.63
468.52	339.36
468.88	337.69
469.25	336.16
469.62	334.94
469.98	333.63
470.35	332.46
470.72	331.41
471.08	330.34
471.45	329.46
471.82	328.48
472.18	327.47
472.55	326.81
472.92	326.01
473.28	325.38
473.65	324.73
474.02	324.12
474.38	323.62
474.75	323.35
475.11	322.94
475.48	322.79
475.85	322.65
476.21	322.61
476.58	322.62
476.94	322.83
477.31	322.97
477.67	323.14
478.04	323.42
478.41	323.78
478.77	324.26
479.14	324.61
479.50	325.19
479.87	325.91
480.23	326.63
480.60	327.32
480.96	328.05
481.33	329.04
481.69	330.03
482.06	331.01
482.42	331.93
482.79	333.03
483.15	334.30
483.52	335.71
483.88	337.08
484.25	338.53
484.61	340.04
484.98	341.67
485.34	343.50
485.71	345.39
486.07	347.41
486.44	349.41
486.80	351.64
487.17	353.92
487.53	356.43
487.90	359.05
488.26	361.88
488.62	364.87
488.99	367.86
489.35	370.98
489.72	374.36
490.08	377.91
490.44	381.56
490.81	385.37
491.17	389.27
491.54	393.44
491.90	397.72
492.26	402.34
492.63	407.19
492.99	412.22
493.36	417.39
493.72	422.83
494.08	428.41
494.45	434.31
494.81	440.41
495.17	446.66
495.54	453.25
495.90	460.15
496.26	467.19
496.63	474.49
496.99	482.08
497.35	490.05
497.72	498.30
498.08	506.71
498.44	515.40
498.80	524.66
499.17	534.13
499.53	543.95
499.89	554.00
500.26	564.23
500.62	574.75
500.98	585.96
501.34	597.34
501.71	609.26
502.07	621.41
502.43	633.96
502.79	646.82
503.16	660.12
503.52	673.61
503.88	687.49
504.24	701.79
504.60	716.36
504.97	731.33
505.33	746.72
505.69	763.04
506.05	779.55
506.41	796.03
506.78	812.84
507.14	830.13
507.50	848.01
507.86	866.30
508.22	884.89
508.59	903.50
508.95	922.81
509.31	942.59
509.67	963.08
510.03	983.76
510.39	1004.69
510.75	1025.85
511.12	1047.31
511.48	1069.04
511.84	1090.89
512.20	1113.09
512.56	1136.41
512.92	1159.83
513.28	1182.96
513.64	1206.46
514.00	1230.39
514.37	1254.63
514.73	1278.92
515.09	1302.99
515.45	1327.51
515.81	1352.58
516.17	1377.64
516.53	1402.39
516.89	1427.19
517.25	1452.21
517.61	1477.39
517.97	1502.78
518.33	1527.91
518.69	1553.13
519.05	1578.63
519.41	1604.28
519.77	1630.16
520.13	1655.20
520.49	1680.47
520.85	1705.99
521.21	1731.37
521.57	1757.30
521.93	1782.53
522.29	1808.56
522.65	1834.34
523.01	1859.87
523.37	1884.61
523.73	1910.05
524.09	1935.70
524.45	1961.21
524.81	1986.18
525.17	2011.06
525.53	2035.46
525.89	2059.88
526.25	2084.54
526.61	2108.70
526.97	2133.06
527.33	2157.39
527.68	2181.46
528.04	2204.75
528.40	2227.83
528.76	2251.10
529.12	2273.31
529.48	2295.89
529.84	2316.59
530.20	2337.86
530.56	2358.74
530.91	2379.70
531.27	2400.15
531.63	2419.85
531.99	2439.08
532.35	2458.00
532.71	2477.02
533.07	2496.54
533.42	2514.61
533.78	2532.97
534.14	2551.34
534.50	2568.89
534.86	2587.02
535.21	2603.32
535.57	2619.41
535.93	2634.96
536.29	2649.22
536.65	2664.38
537.00	2678.34
537.36	2692.85
537.72	2706.31
538.08	2719.31
538.44	2731.22
538.79	2743.32
539.15	2753.81
539.51	2764.18
539.87	2774.18
540.22	2781.96
540.58	2790.02
540.94	2798.45
541.29	2805.51
541.65	2811.50
542.01	2816.97
542.37	2820.60
542.72	2826.28
543.08	2831.39
543.44	2836.19
543.79	2840.29
544.15	2843.29
544.51	2846.41
544.87	2848.56
545.22	2850.40
545.58	2851.36
545.94	2852.75
546.29	2852.63
546.65	2852.50
547.01	2852.62
547.36	2852.71
547.72	2853.02
548.07	2851.85
548.43	2850.07
548.79	2847.60
549.14	2845.10
549.50	2843.43
549.86	2840.59
550.21	2835.41
550.57	2830.67
550.92	2824.64
551.28	2819.19
551.64	2813.84
551.99	2808.68
552.35	2803.18
552.70	2797.18
553.06	2791.93
553.41	2786.21
553.77	2779.88
554.13	2774.44
554.48	2767.79
554.84	2759.66
555.19	2751.74
555.55	2743.28
555.90	2735.42
556.26	2728.52
556.61	2720.99
556.97	2711.15
557.32	2702.34
557.68	2693.83
558.03	2684.75
558.39	2676.37
558.74	2667.99
559.10	2658.47
559.45	2648.53
559.81	2639.02
560.16	2628.79
560.52	2618.25
560.87	2608.73
561.23	2598.72
561.58	2588.18
561.94	2577.43
562.29	2566.21
562.64	2555.63
563.00	2545.29
563.35	2534.82
563.71	2523.38
564.06	2511.57
564.42	2500.71
564.77	2489.55
565.12	2478.48
565.48	2467.24
565.83	2456.57
566.19	2445.99
566.54	2434.85
566.89	2423.00
567.25	2411.03
567.60	2399.88
567.96	2388.25
568.31	2375.16
568.66	2362.20
569.02	2350.27
569.37	2338.06
569.72	2326.38
570.08	2313.98
570.43	2301.08
570.78	2287.81
571.14	2274.40
571.49	2261.71
571.84	2249.35
572.20	2235.76
572.55	2222.50
572.90	2209.09
573.26	2194.64
573.61	2179.69
573.96	2165.23
574.31	2151.04
574.67	2137.06
575.02	2122.70
575.37	2107.85
575.72	2093.27
576.08	2079.27
576.43	2064.23
576.78	2049.40
577.13	2035.33
577.49	2021.15
577.84	2007.39
578.19	1992.83
578.54	1977.95
578.90	1962.60
579.25	1946.94
579.60	1932.67
579.95	1918.03
580.30	1903.45
580.66	1889.24
581.01	1874.68
581.36	1860.36
581.71	1846.68
582.06	1832.43
582.42	1818.35
582.77	1804.94
583.12	1791.18
583.47	1777.56
583.82	1764.06
584.17	1750.43
584.53	1736.61
584.88	1722.89
585.23	1708.71
585.58	1695.11
585.93	1681.94
586.28	1669.59
586.63	1657.01
586.98	1643.77
587.34	1630.74
587.69	1617.22
588.04	1604.07
588.39	1591.48
588.74	1578.40
589.09	1565.09
589.44	1551.79
589.79	1538.95
590.14	1526.10
590.49	1513.45
590.84	1500.63
591.19	1488.42
591.54	1475.70
591.89	1462.87
592.25	1450.37
592.60	1437.57
592.95	1425.29
593.30	1413.32
593.65	1401.07
594.00	1389.13
594.35	1377.84
594.70	1365.89
595.05	1354.98
595.40	1343.74
595.75	1332.00
596.10	1321.11
596.45	1310.41
596.80	1300.20
597.15	1289.79
597.50	1279.32
597.85	1269.09
598.19	1259.02
598.54	1248.38
598.89	1238.51
599.24	1228.90
599.59	1219.11
599.94	1210.33
600.29	1201.39
600.64	1192.19
600.99	1182.41
601.34	1173.10
601.69	1163.31
602.04	1154.49
602.39	1145.53
602.74	1136.83
603.08	1128.35
603.43	1119.40
603.78	1110.38
604.13	1101.44
604.48	1092.47
604.83	1083.75
605.18	1074.94
605.53	1066.07
605.87	1057.34
606.22	1048.84
606.57	1040.11
606.92	1031.49
607.27	1022.66
607.62	1013.98
607.96	1005.48
608.31	998.01
608.66	990.09
609.01	982.56
609.36	975.01
609.70	967.21
610.05	959.26
610.40	951.66
610.75	944.13
611.10	936.87
611.44	929.29
611.79	921.96
612.14	914.27
612.49	906.76
612.83	899.71
613.18	892.69
613.53	885.48
613.88	878.39
614.22	871.86
614.57	865.15
614.92	858.46
615.27	851.80
615.61	844.97
615.96	838.35
616.31	831.68
616.65	824.90
617.00	818.38
617.35	812.02
617.70	805.67
618.04	799.39
618.39	793.10
618.74	787.15
619.08	781.05
619.43	775.17
619.78	769.28
620.12	763.25
620.47	757.40
620.82	751.67
621.16	746.20
621.51	740.38
621.85	734.57
622.20	728.81
622.55	723.23
622.89	717.59
623.24	712.02
623.59	706.49
623.93	701.04
624.28	695.72
624.62	690.36
624.97	685.02
625.32	679.78
625.66	674.40
626.01	669.01
626.35	663.76
626.70	658.57
627.04	653.59
627.39	648.63
627.73	643.80
628.08	639.15
628.43	634.39
628.77	629.68
629.12	625.14
629.46	620.73
629.81	616.13
630.15	611.44
630.50	606.92
630.84	602.63
631.19	598.49
631.53	594.37
631.88	590.16
632.22	586.03
632.57	582.14
632.91	578.20
633.26	574.35
633.60	570.56
633.95	566.87
634.29	563.03
634.64	559.18
634.98	555.25
635.32	551.45
635.67	547.79
636.01	544.09
636.36	540.41
636.70	536.88
637.05	533.39
637.39	530.08
637.73	526.62
638.08	523.21
638.42	519.77
638.77	516.22
639.11	512.65
639.45	509.15
639.80	505.65
640.14	502.31
640.49	498.94
640.83	495.44
641.17	492.02
641.52	488.74
641.86	485.44
642.20	482.32
642.55	479.05
642.89	475.88
643.23	472.89
643.58	470.13
643.92	467.24
644.26	464.38
644.61	461.49
644.95	458.63
645.29	455.72
645.64	452.79
645.98	450.00
646.32	447.39
646.66	444.77
647.01	442.12
647.35	439.51
647.69	436.81
648.04	434.29
648.38	431.77
648.72	429.22
649.06	426.76
649.41	424.28
649.75	421.81
650.09	419.37
650.43	416.95
650.78	414.49
651.12	412.02
651.46	409.66
651.80	407.40
652.14	405.21
652.49	403.03
652.83	400.91
653.17	398.76
653.51	396.66
653.85	394.64
654.20	392.55
654.54	390.41
654.88	388.45
655.22	386.53
655.56	384.57
655.90	382.70
656.25	380.84
656.59	379.00
656.93	377.26
657.27	375.54
657.61	373.72
657.95	371.98
658.29	370.25
658.64	368.54
658.98	366.81
659.32	365.11
659.66	363.50
660.00	361.91
660.34	360.35
660.68	358.74
661.02	357.07
661.36	355.52
661.70	354.01
662.05	352.48
662.39	350.94
662.73	349.50
663.07	348.09
663.41	346.70
663.75	345.33
664.09	343.95
664.43	342.50
664.77	341.15
665.11	339.74
665.45	338.41
665.79	337.08
666.13	335.73
666.47	334.38
666.81	332.99
667.15	331.59
667.49	330.28
667.83	329.02
668.17	327.79
668.51	326.58
668.85	325.39
669.19	324.29
669.53	323.11
669.87	321.91
670.21	320.73
670.55	319.57
670.89	318.48
671.23	317.36
671.57	316.26
671.91	315.21
672.25	314.22
672.58	313.21
672.92	312.17
673.26	311.21
673.60	310.24
673.94	309.27
674.28	308.36
674.62	307.43
674.96	306.47
675.30	305.57
675.64	304.64
675.97	303.74
676.31	302.79
676.65	301.88
676.99	301.02
677.33	300.12
677.67	299.26
678.01	298.32
678.34	297.46
678.68	296.65
679.02	295.80
679.36	294.95
679.70	294.12
680.04	293.32
680.37	292.51
680.71	291.74
681.05	291.01
681.39	290.23
681.73	289.42
682.06	288.66
682.40	287.90
682.74	287.17
683.08	286.47
683.42	285.75
683.75	285.09
684.09	284.35
684.43	283.66
684.77	282.95
685.10	282.30
685.44	281.62
685.78	280.94
686.12	280.30
686.45	279.65
686.79	279.00
687.13	278.36
687.46	277.70
687.80	277.07
688.14	276.39
688.48	275.77
688.81	275.16
689.15	274.59
689.49	273.98
689.82	273.38
690.16	272.73
690.50	272.14
690.83	271.55
691.17	270.98
691.51	270.43
691.84	269.88
692.18	269.31
692.52	268.74
692.85	268.19
693.19	267.67
693.52	267.14
693.86	266.61
694.20	266.09
694.53	265.59
694.87	265.08
695.21	264.60
695.54	264.10
695.88	263.60
696.21	263.07
696.55	262.59
696.88	262.11
697.22	261.64
697.56	261.18
697.89	260.66
698.23	260.19
698.56	259.69
698.90	259.24
699.23	258.78
699.57	258.36
699.90	257.91
700.24	257.45
700.58	257.02
700.91	256.62
701.25	256.30
701.58	255.93
701.92	255.55
702.25	255.15
702.59	254.75
702.92	254.38
703.26	254.00
703.59	253.62
703.93	253.33
704.26	252.97
704.60	252.61
704.93	252.26
705.26	251.92
705.60	251.61
705.93	251.25
706.27	250.95
706.60	250.64
706.94	250.34
707.27	249.98
707.61	249.64
707.94	249.30
708.27	248.89
708.61	248.53
708.94	248.19
709.28	247.88
709.61	247.57
709.94	247.29
710.28	247.00
710.61	246.73
710.95	246.36
711.28	246.15
711.61	245.87
711.95	245.63
712.28	245.36
712.61	245.07
712.95	244.87
713.28	244.66
713.61	244.39
713.95	244.12
714.28	243.90
714.61	243.65
714.95	243.41
715.28	243.17
715.61	242.95
715.95	242.73
716.28	242.51
716.61	242.30
716.95	242.07
717.28	241.86
717.61	241.63
717.94	241.42
718.28	241.14
718.61	240.93
718.94	240.70
719.27	240.50
719.61	240.31
719.94	240.08
720.27	239.83
720.60	239.64
720.94	239.45
721.27	239.27
721.60	239.11
721.93	238.93
722.27	238.79
722.60	238.63
722.93	238.43
723.26	238.27
723.59	238.08
723.93	237.93
724.26	237.78
724.59	237.61
724.92	237.46
725.25	237.34
725.59	237.19
725.92	237.06
726.25	236.91
726.58	236.77
726.91	236.61
727.24	236.48
727.57	236.34
727.91	236.18
728.24	236.05
728.57	235.90
728.90	235.77
729.23	235.60
729.56	235.51
729.89	235.38
730.22	235.24
730.55	235.10
730.89	234.97
731.22	234.83
731.55	234.70
731.88	234.58
732.21	234.43
732.54	234.31
732.87	234.19
733.20	234.08
733.53	233.97
733.86	233.87
734.19	233.74
734.52	233.65
734.85	233.62
735.18	233.49
735.51	233.41
735.84	233.30
736.17	233.23
736.50	233.07
736.83	233.09
737.16	233.00
737.49	232.92
737.82	232.82
738.15	232.74
738.48	232.65
738.81	232.54
739.14	232.44
739.47	232.34
739.80	232.24
740.13	232.16
740.46	232.05
740.79	231.94
741.12	231.86
741.45	231.74
741.78	231.60
742.11	231.55
742.44	231.44
742.77	231.37
743.10	231.27
743.43	231.18
743.75	230.99
744.08	231.06
744.41	230.97
744.74	230.88
745.07	230.78
745.40	230.72
745.73	230.69
746.06	230.62
746.39	230.55
746.71	230.47
747.04	230.39
747.37	230.31
747.70	230.26
748.03	230.19
748.36	230.15
748.68	230.07
749.01	229.97
749.34	229.90
749.67	229.83
750.00	229.78
750.33	229.80
750.65	229.74
750.98	229.53
751.31	229.47
751.64	229.41
751.97	229.41
752.29	229.34
752.62	229.23
752.95	229.15
753.28	229.08
753.60	229.01
753.93	228.97
754.26	228.92
754.59	228.82
754.91	228.75
755.24	228.68
755.57	228.67
755.90	228.61
756.22	228.54
756.55	228.47
756.88	228.38
757.20	228.26
757.53	228.18
757.86	228.12
758.19	228.07
758.51	228.01
758.84	227.91
759.17	227.85
759.49	227.81
759.82	227.81
760.15	227.77
760.47	227.72
760.80	227.65
761.13	227.61
761.45	227.57
761.78	227.53
762.11	227.49
762.43	227.39
762.76	227.35
763.08	227.32
763.41	227.28
763.74	227.24
764.06	227.20
764.39	227.17
764.71	227.13
765.04	227.08
765.37	227.03
765.69	226.99
766.02	226.95
766.34	226.90
766.67	226.82
767.00	226.80
767.32	226.82
767.65	226.84
767.97	226.80
768.30	226.77
768.62	226.73
768.95	226.68
769.27	226.64
769.60	226.62
769.92	226.57
770.25	226.52
770.57	226.47
770.90	226.43
771.22	226.39
771.55	226.36
771.87	226.33
772.20	226.30
772.52	226.35
772.85	226.44
773.17	226.41
773.50	226.37
773.82	226.32
774.15	226.24
774.47	226.15
774.80	226.11
775.12	226.07
775.45	226.04
775.77	226.02
776.09	226.01
776.42	225.97
776.74	225.98
777.07	225.95
777.39	225.93
777.72	225.90
778.04	225.89
778.36	225.85
778.69	225.83
779.01	225.82
779.33	225.71
779.66	225.57
779.98	225.54
780.31	225.53
780.63	225.55
780.95	225.54
781.28	225.52
781.60	225.49
781.92	225.48
782.25	225.46
782.57	225.44
782.89	225.41
783.22	225.39
783.54	225.34
783.86	225.34
784.19	225.31
784.51	225.32
784.83	225.29
785.16	225.27
785.48	225.26
785.80	225.24
786.12	225.23
786.45	225.21
786.77	225.21
787.09	225.18
787.42	225.13
787.74	225.11
788.06	225.10
788.38	225.08
788.71	225.06
789.03	225.05
789.35	225.04
789.67	225.02
789.99	225.01
790.32	224.98
790.64	224.98
790.96	225.06
791.28	225.01
791.61	224.99
791.93	224.99
792.25	224.97
792.57	225.03
792.89	225.00
793.21	224.99
793.54	224.97
793.86	224.94
794.18	224.93
794.50	224.90
794.82	224.89
795.14	224.89
795.47	224.90
795.79	224.88
796.11	224.84
796.43	224.83
796.75	224.82
797.07	224.81
797.39	224.79
797.71	224.70
798.04	224.69
798.36	224.69
798.68	224.67
799.00	224.67
799.32	224.60
799.64	224.61
799.96	224.60
800.28	224.61
800.60	224.60
800.92	224.59
801.24	224.58
801.56	224.58
801.89	224.56
802.21	224.55
802.53	224.52
802.85	224.54
803.17	224.58
803.49	224.54
803.81	224.52
804.13	224.50
804.45	224.48
804.77	224.47
805.09	224.46
805.41	224.44
805.73	224.41
806.05	224.38
806.37	224.36
806.69	224.34
807.01	224.32
807.33	224.32
807.65	224.27
807.97	224.31
808.28	224.29
808.60	224.28
808.92	224.26
809.24	224.32
809.56	224.29
809.88	224.25
810.20	224.25
810.52	224.27
810.84	224.25
811.16	224.24
811.48	224.23
811.80	224.26
812.12	224.25
812.43	224.27
812.75	224.27
813.07	224.25
813.39	224.25
813.71	224.24
814.03	224.22
814.35	224.22
814.67	224.18
814.98	224.16
815.30	224.15
815.62	224.14
815.94	224.06
816.26	224.07
816.58	224.04
816.89	224.05
817.21	224.02
817.53	224.03
817.85	224.03
818.17	224.02
818.48	223.97
818.80	223.99
819.12	223.97
819.44	223.95
819.76	223.93
820.07	223.92
820.39	223.92
820.71	223.92
821.03	223.91
821.34	223.90
821.66	223.91
821.98	223.92
822.30	223.91
822.61	223.97
822.93	223.95
823.25	223.95
823.57	223.93
823.88	223.94
824.20	223.93
824.52	223.95
824.83	223.94
825.15	223.93
825.47	223.91
825.79	223.92
826.10	223.91
826.42	223.91
826.74	223.91
827.05	223.90
827.37	223.90
827.69	223.90
828.00	223.90
828.32	223.89
828.64	223.87
828.95	223.93
829.27	223.89
829.58	223.89
829.90	223.91
830.22	223.92
830.53	223.89
830.85	223.88
831.17	223.85
831.48	223.84
831.80	223.85
832.11	223.84
832.43	223.82
832.75	223.81
833.06	223.88
833.38	223.84
833.69	223.84
834.01	223.84
834.32	223.83
834.64	223.82
834.96	223.82
835.27	223.81
835.59	223.77
835.90	223.76
836.22	223.75
836.53	223.73
836.85	223.71
837.16	223.81
837.48	223.81
837.79	223.84
838.11	223.84
838.42	223.84
838.74	223.85
839.05	223.84
839.37	223.84
839.68	223.77
840.00	223.77
840.31	223.78
840.63	223.77
840.94	223.76
841.26	223.74
841.57	223.74
841.88	223.75
842.20	223.73
842.51	223.71
842.83	223.70
843.14	223.79
843.46	223.79
843.77	223.73
844.08	223.72
844.40	223.69
844.71	223.68
845.03	223.67
845.34	223.65
845.65	223.65
845.97	223.65
846.28	223.65
846.60	223.66
846.91	223.64
847.22	223.63
847.54	223.65
847.85	223.66
848.16	223.64
848.48	223.62
848.79	223.66
849.10	223.67
849.42	223.67
849.73	223.57
850.04	223.57
850.36	223.53
850.67	223.55
850.98	223.55
851.30	223.55
851.61	223.55
851.92	223.55
852.23	223.59
852.55	223.59
852.86	223.59
853.17	223.60
853.49	223.62
853.80	223.63
854.11	223.63
854.42	223.65
854.74	223.64
855.05	223.65
855.36	223.60
855.67	223.60
855.99	223.60
856.30	223.72
856.61	223.71
856.92	223.71
857.23	223.71
857.55	223.70
857.86	223.69
858.17	223.71
858.48	223.69
858.79	223.66
859.11	223.67
859.42	223.66
859.73	223.65
860.04	223.64
860.35	223.61
860.66	223.58
860.98	223.57
861.29	223.59
861.60	223.58
861.91	223.60
862.22	223.58
862.53	223.57
862.84	223.45
863.16	223.47
863.47	223.45
863.78	223.44
864.09	223.45
864.40	223.45
864.71	223.45
865.02	223.46
865.33	223.45
865.64	223.43
865.95	223.44
866.27	223.50
866.58	223.49
866.89	223.50
867.20	223.50
867.51	223.48
867.82	223.48
868.13	223.51
868.44	223.48
868.75	223.50
869.06	223.51
869.37	223.52
869.68	223.49
869.99	223.51
870.30	223.51
870.61	223.52
870.92	223.50
871.23	223.49
871.54	223.50
871.85	223.52
872.16	223.54
872.47	223.52
872.78	223.46
873.09	223.48
873.40	223.47
873.71	223.47
874.02	223.48
874.33	223.47
874.64	223.45
874.95	223.47
875.26	223.45
875.56	223.44
875.87	223.44
876.18	223.44
876.49	223.54
876.80	223.52
877.11	223.50
877.42	223.51
877.73	223.51
878.04	223.50
878.35	223.50
878.66	223.50
878.96	223.50
879.27	223.50
879.58	223.49
879.89	223.48
880.20	223.51
880.51	223.50
880.82	223.51
881.12	223.51
881.43	223.49
881.74	223.48
882.05	223.47
882.36	223.47
882.67	223.48
882.97	223.37
883.28	223.37
883.59	223.37
883.90	223.37
884.21	223.38
884.51	223.38
884.82	223.36
885.13	223.36
885.44	223.36
885.74	223.36
886.05	223.36
886.36	223.36
886.67	223.32
886.98	223.38
887.28	223.38
887.59	223.38
887.90	223.39
888.20	223.39
888.51	223.40
888.82	223.39
889.13	223.39
889.43	223.48
889.74	223.47
890.05	223.47
890.35	223.45
890.66	223.44
890.97	223.42
891.28	223.42
891.58	223.42
891.89	223.41
892.20	223.40
892.50	223.39
892.81	223.39
893.12	223.39
893.42	223.33
893.73	223.33
894.04	223.32
894.34	223.33
894.65	223.32
894.95	223.31
895.26	223.32
895.57	223.35
895.87	223.25
896.18	223.27
896.48	223.27
896.79	223.28
897.10	223.30
897.40	223.30
897.71	223.32
898.01	223.30
898.32	223.32
898.63	223.31
898.93	223.32
899.24	223.33
899.54	223.32
899.85	223.32
900.15	223.31
900.46	223.31
900.76	223.31
901.07	223.32
901.38	223.31
901.68	223.32
901.99	223.27
902.29	223.28
902.60	223.27
902.90	223.26
903.21	223.25
903.51	223.24
903.82	223.26
904.12	223.26
904.43	223.26
904.73	223.26
905.03	223.26
905.34	223.35
905.64	223.34
905.95	223.34
906.25	223.34
906.56	223.34
906.86	223.34
907.17	223.33
907.47	223.33
907.77	223.32
908.08	223.30
908.38	223.31
908.69	223.31
908.99	223.33
909.30	223.34
909.60	223.34
909.90	223.35
910.21	223.31
910.51	223.30
910.81	223.30
911.12	223.30
911.42	223.30
911.73	223.20
912.03	223.21
912.33	223.23
912.64	223.22
912.94	223.21
913.24	223.19
913.55	223.19
913.85	223.18
914.15	223.20
914.46	223.21
914.76	223.21
915.06	223.20
915.37	223.18
915.67	223.17
915.97	223.17
916.27	223.15
916.58	223.15
916.88	223.15
917.18	223.14
917.49	223.21
917.79	223.21
918.09	223.22
918.39	223.25
918.70	223.24
919.00	223.25
919.30	223.30
919.60	223.29
919.91	223.28
920.21	223.29
920.51	223.27
920.81	223.26
921.12	223.27
921.42	223.27
921.72	223.28
922.02	223.28
922.32	223.30
922.63	223.30
922.93	223.36
923.23	223.37
923.53	223.35
923.83	223.29
924.13	223.30
924.44	223.29
924.74	223.30
925.04	223.32
925.34	223.31
925.64	223.27
925.94	223.27
926.24	223.33
926.55	223.32
926.85	223.34
927.15	223.34
927.45	223.33
927.75	223.33
928.05	223.33
928.35	223.32
928.65	223.33
928.95	223.33
929.26	223.28
929.56	223.30
929.86	223.31
930.16	223.31
930.46	223.30
930.76	223.30
931.06	223.26
931.36	223.23
931.66	223.24
931.96	223.26
932.26	223.26
932.56	223.21
932.86	223.22
933.16	223.21
933.46	223.20
933.76	223.19
934.06	223.21
934.36	223.25
934.66	223.24
934.96	223.22
935.26	223.23
935.56	223.24
935.86	223.21
936.16	223.20
936.46	223.19
936.76	223.19
937.06	223.17
937.36	223.18
937.66	223.19
937.96	223.18
938.26	223.16
938.56	223.15
938.86	223.16
939.16	223.18
939.46	223.19
939.76	223.20
940.06	223.20
940.35	223.18
940.65	223.13
940.95	223.15
941.25	223.13
941.55	223.12
941.85	223.11
942.15	223.13
942.45	223.16
942.75	223.16
943.04	223.16
943.34	223.18
943.64	223.18
943.94	223.16
944.24	223.15
944.54	223.16
944.84	223.16
945.13	223.14
945.43	223.13
945.73	223.12
946.03	223.11
946.33	223.10
946.62	223.09
946.92	223.08
947.22	223.08
947.52	223.09
947.82	223.10
948.11	223.09
948.41	223.07
948.71	223.04
949.01	223.05
949.31	223.04
949.60	223.02
949.90	223.04
950.20	223.04
950.50	223.03
950.79	223.03
951.09	223.04
951.39	223.04
951.69	223.03
951.98	223.05
952.28	223.06
952.58	223.06
952.87	223.06
953.17	223.07
953.47	223.06
953.76	223.06
954.06	223.04
954.36	223.02
954.66	223.03
954.95	223.05
955.25	223.06
955.55	223.06
955.84	223.05
956.14	223.05
956.44	223.05
956.73	223.04
957.03	223.05
957.32	223.05
957.62	223.04
957.92	223.06
958.21	223.05
958.51	223.16
958.81	223.18
959.10	223.19
959.40	223.21
959.69	223.22
959.99	223.23
960.29	223.24
960.58	223.24
960.88	223.27
961.17	223.26
961.47	223.27
961.76	223.26
962.06	223.28
962.36	223.27
962.65	223.28
962.95	223.29
963.24	223.28
963.54	223.28
963.83	223.29
964.13	223.28
964.42	223.27
964.72	223.18
965.01	223.18
965.31	223.18
965.60	223.15
965.90	223.22
966.19	223.19
966.49	223.20
966.78	223.20
967.08	223.19
967.37	223.19
967.67	223.17
967.96	223.18
968.26	223.18
968.55	223.19
968.85	223.18
969.14	223.18
969.43	223.18
969.73	223.17
970.02	223.16
970.32	223.15
970.61	223.14
970.91	223.11
971.20	223.09
971.49	223.08
971.79	223.09
972.08	223.02
972.38	223.03
972.67	223.02
972.96	223.03
973.26	223.01
973.55	223.05
973.85	223.04
974.14	223.03
974.43	223.04
974.73	223.02
975.02	223.01
975.31	223.01
975.61	223.01
975.90	223.01
976.19	223.00
976.49	223.01
976.78	223.01
977.07	223.02
977.37	223.02
977.66	223.04
977.95	223.02
978.24	223.03
978.54	223.04
978.83	223.04
979.12	223.03
979.42	223.03
979.71	223.01
980.00	223.01
980.29	223.01
980.59	222.99
980.88	223.02
981.17	223.02
981.46	223.02
981.76	223.02
982.05	223.05
982.34	223.06
982.63	223.06
982.93	223.06
983.22	223.09
983.51	223.09
983.80	223.10
984.09	223.12
984.39	223.11
984.68	223.10
984.97	223.10
985.26	223.10
985.55	223.10
985.85	223.08
986.14	223.10
986.43	223.11
986.72	223.11
987.01	223.07
987.30	223.07
987.59	223.07
987.89	223.07
988.18	223.03
988.47	223.02
988.76	223.01
989.05	223.01
989.34	222.99
989.63	223.02
989.92	223.00
990.22	222.98
990.51	222.98
990.80	222.97
991.09	222.98
991.38	222.99
991.67	222.98
991.96	222.98
992.25	222.97
992.54	222.95
992.83	222.96
993.12	222.95
993.41	222.97
993.70	223.02
993.99	223.03
994.28	223.04
994.58	223.06
994.87	223.05
995.16	223.05
995.45	223.04
995.74	223.00
996.03	223.01
996.32	223.03
996.61	223.05
996.90	223.05
997.19	223.05
997.48	223.04
997.77	223.03
998.06	223.04
998.34	223.03
998.63	223.03
998.92	223.03
999.21	223.05
999.50	223.05
999.79	223.01
1000.08	223.01
1000.37	223.00
1000.66	222.99
1000.95	223.02
1001.24	223.02
1001.53	223.04
1001.82	223.04
1002.11	223.02
1002.40	223.02
1002.68	223.04
1002.97	223.12
1003.26	223.10
1003.55	223.09
1003.84	223.10
1004.13	223.13
1004.42	223.13
1004.71	223.13
1004.99	223.12
1005.28	223.14
1005.57	223.13
1005.86	223.12
1006.15	223.12
1006.44	223.10
1006.72	223.11
1007.01	223.10
1007.30	223.10
1007.59	223.08
1007.88	223.09
1008.17	223.09
1008.45	223.07
1008.74	223.03
1009.03	222.98
1009.32	222.99
1009.60	222.99
1009.89	222.98
1010.18	222.94
1010.47	222.94
1010.76	222.93
1011.04	222.93
1011.33	222.93
1011.62	222.94
1011.91	222.95
1012.19	222.96
1012.48	222.96
1012.77	222.96
1013.05	222.99
1013.34	222.99
1013.63	222.98
1013.92	222.99
1014.20	222.98
1014.49	222.99
1014.78	223.00
1015.06	222.97
1015.35	222.96
1015.64	222.98
1015.92	223.00
1016.21	223.00
1016.50	223.00
1016.78	223.01
1017.07	223.02
1017.36	223.00
1017.64	222.99
1017.93	222.99
1018.22	222.99
1018.50	222.98
1018.79	222.98
1019.08	222.94
1019.36	222.95
1019.65	222.94
1019.93	222.97
1020.22	222.99
1020.51	223.04
1020.79	223.03
1021.08	222.92
1021.36	222.79
1021.65	222.95
1021.94	222.93
1022.22	223.01
1022.51	222.76
1022.79	223.47
1023.08	223.17
1023.36	224.16
1023.65	222.69
>>>>>End Processed Spectral Data<<<<<
