SpectraSuite Data File
++++++++++++++++++++++++++++++++++++
Date: Wed Sep 30 14:57:14 EDT 2015
User: lab3
Dark Spectrum Present: No
Reference Spectrum Present: No
Number of Sampled Component Spectra: 1
Spectrometers: USB2E7196
Integration Time (usec): 36000 (USB2E7196)
Spectra Averaged: 1500 (USB2E7196)
Boxcar Smoothing: 10 (USB2E7196)
Correct for Electrical Dark: No (USB2E7196)
Strobe/Lamp Enabled: No (USB2E7196)
Correct for Detector Non-linearity: No (USB2E7196)
Correct for Stray Light: No (USB2E7196)
Number of Pixels in Processed Spectrum: 2048
>>>>>Begin Processed Spectral Data<<<<<
339.09	0.00
339.48	211.22
339.86	212.65
340.24	214.09
340.63	215.42
341.01	218.30
341.39	218.25
341.78	219.37
342.16	220.76
342.54	221.06
342.93	209.71
343.31	220.31
343.69	220.85
344.07	221.31
344.46	221.74
344.84	222.12
345.22	222.36
345.60	222.60
345.99	222.80
346.37	222.93
346.75	223.04
347.13	223.12
347.52	223.19
347.90	223.28
348.28	223.31
348.66	223.36
349.05	223.36
349.43	223.41
349.81	223.47
350.19	223.53
350.57	223.59
350.96	223.67
351.34	223.76
351.72	223.85
352.10	223.96
352.48	224.03
352.87	224.09
353.25	224.17
353.63	224.23
354.01	224.29
354.39	224.37
354.77	224.45
355.15	224.55
355.54	224.61
355.92	224.65
356.30	224.74
356.68	224.88
357.06	224.95
357.44	225.00
357.82	225.06
358.20	225.17
358.58	225.22
358.97	225.29
359.35	225.37
359.73	225.46
360.11	225.52
360.49	225.58
360.87	225.63
361.25	225.69
361.63	225.78
362.01	225.84
362.39	225.87
362.77	225.92
363.15	225.95
363.53	225.98
363.91	226.01
364.29	226.03
364.67	225.96
365.05	225.98
365.43	226.02
365.81	226.05
366.19	226.07
366.57	226.12
366.95	226.12
367.33	226.10
367.71	226.09
368.09	226.10
368.47	226.09
368.85	226.08
369.23	226.09
369.61	226.03
369.99	226.03
370.37	226.02
370.75	226.07
371.13	226.03
371.51	225.99
371.89	225.96
372.27	225.94
372.65	225.92
373.03	225.87
373.41	225.83
373.78	225.79
374.16	225.69
374.54	225.61
374.92	225.56
375.30	225.52
375.68	225.46
376.06	225.41
376.44	225.35
376.82	225.31
377.19	225.26
377.57	225.21
377.95	225.12
378.33	225.05
378.71	224.92
379.09	224.87
379.47	224.83
379.84	224.76
380.22	224.69
380.60	224.61
380.98	224.57
381.36	224.51
381.73	224.43
382.11	224.40
382.49	224.36
382.87	224.30
383.25	224.24
383.62	224.31
384.00	224.25
384.38	224.21
384.76	224.18
385.13	224.17
385.51	224.14
385.89	224.08
386.27	224.07
386.64	224.04
387.02	223.98
387.40	223.94
387.78	223.90
388.15	223.89
388.53	223.86
388.91	223.84
389.29	223.80
389.66	223.80
390.04	223.76
390.42	223.75
390.79	223.73
391.17	223.71
391.55	223.58
391.92	223.56
392.30	223.56
392.68	223.52
393.05	223.50
393.43	223.49
393.81	223.49
394.18	223.46
394.56	223.47
394.94	223.50
395.31	223.50
395.69	223.55
396.06	223.57
396.44	223.58
396.82	223.58
397.19	223.66
397.57	223.67
397.95	223.71
398.32	223.71
398.70	223.75
399.07	223.81
399.45	223.85
399.82	223.89
400.20	223.92
400.58	223.98
400.95	224.00
401.33	224.08
401.70	224.22
402.08	224.31
402.45	224.38
402.83	224.49
403.20	224.60
403.58	224.68
403.95	224.81
404.33	224.94
404.71	225.07
405.08	225.26
405.46	225.40
405.83	225.56
406.21	225.74
406.58	225.93
406.96	226.12
407.33	226.33
407.70	226.57
408.08	226.91
408.45	227.19
408.83	227.50
409.20	227.79
409.58	228.04
409.95	228.38
410.33	228.76
410.70	229.12
411.08	229.52
411.45	229.96
411.82	230.41
412.20	230.92
412.57	231.52
412.95	232.00
413.32	232.62
413.69	233.26
414.07	233.93
414.44	234.67
414.82	235.42
415.19	236.30
415.56	237.20
415.94	238.12
416.31	239.16
416.68	240.20
417.06	241.42
417.43	242.57
417.81	243.87
418.18	245.21
418.55	246.66
418.93	248.18
419.30	249.77
419.67	251.43
420.04	253.17
420.42	254.98
420.79	257.08
421.16	259.19
421.54	261.34
421.91	263.58
422.28	265.92
422.66	268.43
423.03	270.84
423.40	273.37
423.77	276.08
424.15	278.87
424.52	281.75
424.89	284.86
425.26	287.95
425.64	290.84
426.01	294.09
426.38	297.42
426.75	300.85
427.13	304.37
427.50	308.06
427.87	311.91
428.24	315.78
428.61	319.50
428.99	323.50
429.36	327.89
429.73	332.09
430.10	336.26
430.47	340.54
430.85	344.96
431.22	349.63
431.59	354.43
431.96	359.14
432.33	364.37
432.70	369.32
433.08	375.19
433.45	380.70
433.82	386.14
434.19	392.20
434.56	398.17
434.93	403.92
435.30	409.62
435.68	416.00
436.05	422.23
436.42	428.48
436.79	434.16
437.16	440.35
437.53	446.94
437.90	453.51
438.27	459.95
438.64	466.86
439.01	473.15
439.38	478.91
439.75	484.42
440.13	490.67
440.50	496.60
440.87	501.32
441.24	506.47
441.61	512.11
441.98	516.27
442.35	521.23
442.72	526.27
443.09	531.07
443.46	534.10
443.83	536.36
444.20	538.21
444.57	540.95
444.94	542.53
445.31	544.17
445.68	545.59
446.05	546.61
446.42	546.40
446.79	546.07
447.16	545.76
447.53	545.51
447.90	543.61
448.27	541.81
448.64	538.97
449.01	537.13
449.37	533.17
449.74	529.54
450.11	524.88
450.48	519.80
450.85	514.69
451.22	510.37
451.59	506.06
451.96	502.18
452.33	496.54
452.70	491.48
453.07	485.34
453.43	479.23
453.80	473.28
454.17	467.52
454.54	462.19
454.91	456.21
455.28	450.58
455.65	445.26
456.02	439.62
456.38	435.09
456.75	429.21
457.12	424.50
457.49	419.75
457.86	415.22
458.23	411.20
458.59	406.80
458.96	402.29
459.33	398.38
459.70	394.37
460.07	391.35
460.43	387.76
460.80	384.41
461.17	381.46
461.54	378.28
461.91	375.31
462.27	372.26
462.64	369.79
463.01	366.94
463.38	364.08
463.74	361.50
464.11	359.19
464.48	357.11
464.85	354.85
465.21	353.10
465.58	351.17
465.95	348.98
466.32	347.22
466.68	345.51
467.05	343.76
467.42	342.08
467.78	340.24
468.15	338.56
468.52	337.32
468.88	335.69
469.25	334.20
469.62	333.02
469.98	331.76
470.35	330.63
470.72	329.59
471.08	328.55
471.45	327.69
471.82	326.72
472.18	325.70
472.55	325.06
472.92	324.28
473.28	323.66
473.65	323.01
474.02	322.41
474.38	321.89
474.75	321.61
475.11	321.20
475.48	321.05
475.85	320.89
476.21	320.82
476.58	320.83
476.94	321.03
477.31	321.15
477.67	321.28
478.04	321.52
478.41	321.85
478.77	322.30
479.14	322.62
479.50	323.19
479.87	323.89
480.23	324.58
480.60	325.27
480.96	325.98
481.33	326.95
481.69	327.92
482.06	328.90
482.42	329.83
482.79	330.96
483.15	332.24
483.52	333.67
483.88	335.07
484.25	336.55
484.61	338.07
484.98	339.72
485.34	341.56
485.71	343.47
486.07	345.51
486.44	347.56
486.80	349.82
487.17	352.11
487.53	354.63
487.90	357.24
488.26	360.05
488.62	363.03
488.99	366.07
489.35	369.23
489.72	372.65
490.08	376.20
490.44	379.84
490.81	383.66
491.17	387.60
491.54	391.79
491.90	396.05
492.26	400.61
492.63	405.42
492.99	410.43
493.36	415.62
493.72	421.10
494.08	426.70
494.45	432.60
494.81	438.74
495.17	444.97
495.54	451.60
495.90	458.58
496.26	465.68
496.63	472.95
496.99	480.53
497.35	488.42
497.72	496.61
498.08	505.00
498.44	513.63
498.80	522.77
499.17	532.19
499.53	541.94
499.89	551.96
500.26	562.14
500.62	572.57
500.98	583.60
501.34	594.78
501.71	606.48
502.07	618.39
502.43	630.72
502.79	643.51
503.16	656.63
503.52	669.85
503.88	683.54
504.24	697.62
504.60	711.87
504.97	726.58
505.33	741.65
505.69	757.43
506.05	773.49
506.41	789.75
506.78	806.27
507.14	823.32
507.50	840.68
507.86	858.42
508.22	876.43
508.59	894.56
508.95	913.25
509.31	932.45
509.67	952.44
510.03	972.55
510.39	992.75
510.75	1013.09
511.12	1033.84
511.48	1054.80
511.84	1076.10
512.20	1097.67
512.56	1119.99
512.92	1142.44
513.28	1164.85
513.64	1187.57
514.00	1210.63
514.37	1234.29
514.73	1257.95
515.09	1281.39
515.45	1304.99
515.81	1328.85
516.17	1352.86
516.53	1376.71
516.89	1400.32
517.25	1423.88
517.61	1447.74
517.97	1471.88
518.33	1495.99
518.69	1520.26
519.05	1544.81
519.41	1569.29
519.77	1594.19
520.13	1618.38
520.49	1642.63
520.85	1666.85
521.21	1691.01
521.57	1715.76
521.93	1739.68
522.29	1763.98
522.65	1788.20
523.01	1812.49
523.37	1836.22
523.73	1860.52
524.09	1884.61
524.45	1908.86
524.81	1932.99
525.17	1956.38
525.53	1979.51
525.89	2002.59
526.25	2025.68
526.61	2047.38
526.97	2069.49
527.33	2091.38
527.68	2113.24
528.04	2134.66
528.40	2156.06
528.76	2177.11
529.12	2197.37
529.48	2218.21
529.84	2237.08
530.20	2256.44
530.56	2275.28
530.91	2294.74
531.27	2313.57
531.63	2331.68
531.99	2349.35
532.35	2366.45
532.71	2384.54
533.07	2402.96
533.42	2419.72
533.78	2436.85
534.14	2454.51
534.50	2471.11
534.86	2488.07
535.21	2503.12
535.57	2518.23
535.93	2532.71
536.29	2546.68
536.65	2560.19
537.00	2572.51
537.36	2585.83
537.72	2597.86
538.08	2609.87
538.44	2620.62
538.79	2630.88
539.15	2640.26
539.51	2649.58
539.87	2657.87
540.22	2663.72
540.58	2669.63
540.94	2676.11
541.29	2681.47
541.65	2686.56
542.01	2691.43
542.37	2694.41
542.72	2698.90
543.08	2702.27
543.44	2705.40
543.79	2707.74
544.15	2709.71
544.51	2711.27
544.87	2712.74
545.22	2713.85
545.58	2713.68
545.94	2713.50
546.29	2712.23
546.65	2711.17
547.01	2709.85
547.36	2708.97
547.72	2708.54
548.07	2706.92
548.43	2703.89
548.79	2700.51
549.14	2697.20
549.50	2694.03
549.86	2690.56
550.21	2685.83
550.57	2681.60
550.92	2676.09
551.28	2670.61
551.64	2665.03
551.99	2659.52
552.35	2652.79
552.70	2646.36
553.06	2640.75
553.41	2634.81
553.77	2628.59
554.13	2622.40
554.48	2614.89
554.84	2606.64
555.19	2598.16
555.55	2588.94
555.90	2580.99
556.26	2573.27
556.61	2564.54
556.97	2554.53
557.32	2544.75
557.68	2535.08
558.03	2525.12
558.39	2516.10
558.74	2507.67
559.10	2497.90
559.45	2488.08
559.81	2478.69
560.16	2468.56
560.52	2458.20
560.87	2448.02
561.23	2437.25
561.58	2426.89
561.94	2416.57
562.29	2405.73
562.64	2395.48
563.00	2385.46
563.35	2375.31
563.71	2364.30
564.06	2353.60
564.42	2343.14
564.77	2332.53
565.12	2321.79
565.48	2310.60
565.83	2299.12
566.19	2287.39
566.54	2276.21
566.89	2264.18
567.25	2252.15
567.60	2241.28
567.96	2229.77
568.31	2217.24
568.66	2205.17
569.02	2193.35
569.37	2181.92
569.72	2171.28
570.08	2159.50
570.43	2147.42
570.78	2135.01
571.14	2122.72
571.49	2110.10
571.84	2097.75
572.20	2084.62
572.55	2071.46
572.90	2058.72
573.26	2046.34
573.61	2033.14
573.96	2020.30
574.31	2007.99
574.67	1995.55
575.02	1981.93
575.37	1968.36
575.72	1955.32
576.08	1942.38
576.43	1928.81
576.78	1915.20
577.13	1901.33
577.49	1887.91
577.84	1874.73
578.19	1861.59
578.54	1848.08
578.90	1834.33
579.25	1820.32
579.60	1807.50
579.95	1794.92
580.30	1782.18
580.66	1768.81
581.01	1755.47
581.36	1741.81
581.71	1728.56
582.06	1715.58
582.42	1702.98
582.77	1690.35
583.12	1678.01
583.47	1665.92
583.82	1653.40
584.17	1640.19
584.53	1627.26
584.88	1614.47
585.23	1601.51
585.58	1588.65
585.93	1576.23
586.28	1564.38
586.63	1552.51
586.98	1540.12
587.34	1527.85
587.69	1515.00
588.04	1502.64
588.39	1490.75
588.74	1478.61
589.09	1466.78
589.44	1454.28
589.79	1441.97
590.14	1429.87
590.49	1417.60
590.84	1405.45
591.19	1394.01
591.54	1382.53
591.89	1370.83
592.25	1359.61
592.60	1348.08
592.95	1336.95
593.30	1325.71
593.65	1314.61
594.00	1303.65
594.35	1293.18
594.70	1281.85
595.05	1271.42
595.40	1260.73
595.75	1249.84
596.10	1239.62
596.45	1229.00
596.80	1219.08
597.15	1209.28
597.50	1199.41
597.85	1189.94
598.19	1180.50
598.54	1170.72
598.89	1161.59
599.24	1152.72
599.59	1143.86
599.94	1135.54
600.29	1126.81
600.64	1118.10
600.99	1108.77
601.34	1099.96
601.69	1090.99
602.04	1082.95
602.39	1074.46
602.74	1066.47
603.08	1058.79
603.43	1050.81
603.78	1042.82
604.13	1034.86
604.48	1026.69
604.83	1018.79
605.18	1010.73
605.53	1002.57
605.87	994.47
606.22	986.61
606.57	978.55
606.92	970.28
607.27	962.26
607.62	954.51
607.96	946.85
608.31	940.19
608.66	933.27
609.01	926.30
609.36	919.29
609.70	912.38
610.05	905.27
610.40	898.22
610.75	891.10
611.10	884.39
611.44	877.46
611.79	870.90
612.14	864.22
612.49	857.34
612.83	850.95
613.18	844.71
613.53	838.47
613.88	832.42
614.22	826.63
614.57	820.54
614.92	814.57
615.27	808.68
615.61	802.37
615.96	796.17
616.31	790.20
616.65	784.03
617.00	777.98
617.35	771.97
617.70	766.14
618.04	760.44
618.39	754.61
618.74	749.09
619.08	743.36
619.43	737.77
619.78	732.34
620.12	726.68
620.47	721.24
620.82	715.85
621.16	710.55
621.51	705.08
621.85	699.73
622.20	694.23
622.55	688.82
622.89	683.51
623.24	678.37
623.59	673.30
623.93	668.48
624.28	663.81
624.62	659.16
624.97	654.44
625.32	649.78
625.66	644.93
626.01	640.06
626.35	635.37
626.70	630.65
627.04	626.20
627.39	621.80
627.73	617.39
628.08	613.02
628.43	608.61
628.77	604.30
629.12	600.05
629.46	596.01
629.81	591.87
630.15	587.78
630.50	583.72
630.84	579.70
631.19	575.79
631.53	571.95
631.88	568.06
632.22	564.11
632.57	560.40
632.91	556.76
633.26	553.13
633.60	549.52
633.95	546.03
634.29	542.46
634.64	538.88
634.98	535.21
635.32	531.67
635.67	528.38
636.01	525.10
636.36	521.83
636.70	518.65
637.05	515.52
637.39	512.41
637.73	509.13
638.08	505.96
638.42	502.83
638.77	499.55
639.11	496.22
639.45	493.00
639.80	489.79
640.14	486.72
640.49	483.66
640.83	480.54
641.17	477.49
641.52	474.46
641.86	471.40
642.20	468.51
642.55	465.47
642.89	462.46
643.23	459.57
643.58	456.89
643.92	454.11
644.26	451.41
644.61	448.73
644.95	446.09
645.29	443.36
645.64	440.59
645.98	437.93
646.32	435.38
646.66	432.86
647.01	430.38
647.35	428.02
647.69	425.56
648.04	423.18
648.38	420.77
648.72	418.41
649.06	416.09
649.41	413.80
649.75	411.58
650.09	409.30
650.43	407.06
650.78	404.78
651.12	402.49
651.46	400.25
651.80	398.10
652.14	396.04
652.49	394.03
652.83	392.03
653.17	390.09
653.51	388.23
653.85	386.37
654.20	384.47
654.54	382.44
654.88	380.52
655.22	378.64
655.56	376.80
655.90	375.02
656.25	373.26
656.59	371.50
656.93	369.83
657.27	368.25
657.61	366.55
657.95	364.92
658.29	363.34
658.64	361.80
658.98	360.15
659.32	358.47
659.66	356.89
660.00	355.35
660.34	353.80
660.68	352.24
661.02	350.66
661.36	349.12
661.70	347.65
662.05	346.23
662.39	344.82
662.73	343.48
663.07	342.17
663.41	340.89
663.75	339.60
664.09	338.31
664.43	336.95
664.77	335.66
665.11	334.30
665.45	333.01
665.79	331.71
666.13	330.50
666.47	329.33
666.81	328.10
667.15	326.84
667.49	325.65
667.83	324.47
668.17	323.33
668.51	322.24
668.85	321.15
669.19	320.10
669.53	318.97
669.87	317.77
670.21	316.64
670.55	315.54
670.89	314.52
671.23	313.46
671.57	312.42
671.91	311.45
672.25	310.56
672.58	309.65
672.92	308.71
673.26	307.81
673.60	306.91
673.94	306.02
674.28	305.15
674.62	304.28
674.96	303.37
675.30	302.53
675.64	301.67
675.97	300.81
676.31	299.95
676.65	299.13
676.99	298.41
677.33	297.58
677.67	296.77
678.01	295.91
678.34	295.11
678.68	294.36
679.02	293.57
679.36	292.78
679.70	291.99
680.04	291.21
680.37	290.43
680.71	289.68
681.05	288.98
681.39	288.27
681.73	287.55
682.06	286.87
682.40	286.16
682.74	285.48
683.08	284.84
683.42	284.15
683.75	283.51
684.09	282.81
684.43	282.18
684.77	281.53
685.10	280.91
685.44	280.28
685.78	279.65
686.12	279.05
686.45	278.45
686.79	277.83
687.13	277.23
687.46	276.62
687.80	276.03
688.14	275.40
688.48	274.83
688.81	274.24
689.15	273.69
689.49	273.10
689.82	272.52
690.16	271.88
690.50	271.30
690.83	270.72
691.17	270.15
691.51	269.60
691.84	269.06
692.18	268.51
692.52	267.95
692.85	267.42
693.19	266.92
693.52	266.39
693.86	265.88
694.20	265.36
694.53	264.86
694.87	264.34
695.21	263.83
695.54	263.32
695.88	262.82
696.21	262.29
696.55	261.83
696.88	261.36
697.22	260.91
697.56	260.48
697.89	260.03
698.23	259.59
698.56	259.13
698.90	258.73
699.23	258.30
699.57	257.89
699.90	257.46
700.24	257.01
700.58	256.61
700.91	256.23
701.25	255.91
701.58	255.57
701.92	255.22
702.25	254.84
702.59	254.45
702.92	254.08
703.26	253.72
703.59	253.34
703.93	253.05
704.26	252.71
704.60	252.34
704.93	251.97
705.26	251.61
705.60	251.28
705.93	250.91
706.27	250.61
706.60	250.30
706.94	250.01
707.27	249.67
707.61	249.34
707.94	249.00
708.27	248.60
708.61	248.24
708.94	247.90
709.28	247.60
709.61	247.31
709.94	247.02
710.28	246.75
710.61	246.49
710.95	246.14
711.28	245.92
711.61	245.65
711.95	245.42
712.28	245.14
712.61	244.86
712.95	244.65
713.28	244.43
713.61	244.15
713.95	243.88
714.28	243.64
714.61	243.39
714.95	243.14
715.28	242.89
715.61	242.67
715.95	242.45
716.28	242.23
716.61	242.02
716.95	241.79
717.28	241.58
717.61	241.35
717.94	241.13
718.28	240.86
718.61	240.66
718.94	240.44
719.27	240.25
719.61	240.07
719.94	239.85
720.27	239.61
720.60	239.42
720.94	239.22
721.27	239.04
721.60	238.89
721.93	238.71
722.27	238.57
722.60	238.41
722.93	238.21
723.26	238.04
723.59	237.85
723.93	237.69
724.26	237.53
724.59	237.37
724.92	237.22
725.25	237.09
725.59	236.92
725.92	236.78
726.25	236.64
726.58	236.48
726.91	236.34
727.24	236.21
727.57	236.06
727.91	235.90
728.24	235.78
728.57	235.63
728.90	235.50
729.23	235.32
729.56	235.24
729.89	235.12
730.22	234.99
730.55	234.87
730.89	234.73
731.22	234.61
731.55	234.47
731.88	234.35
732.21	234.20
732.54	234.09
732.87	233.98
733.20	233.87
733.53	233.77
733.86	233.67
734.19	233.56
734.52	233.47
734.85	233.43
735.18	233.31
735.51	233.23
735.84	233.14
736.17	233.08
736.50	232.92
736.83	232.93
737.16	232.83
737.49	232.74
737.82	232.65
738.15	232.58
738.48	232.49
738.81	232.39
739.14	232.30
739.47	232.20
739.80	232.10
740.13	232.02
740.46	231.91
740.79	231.79
741.12	231.69
741.45	231.58
741.78	231.44
742.11	231.37
742.44	231.25
742.77	231.17
743.10	231.07
743.43	230.98
743.75	230.80
744.08	230.87
744.41	230.79
744.74	230.70
745.07	230.58
745.40	230.52
745.73	230.50
746.06	230.42
746.39	230.37
746.71	230.28
747.04	230.20
747.37	230.12
747.70	230.08
748.03	230.02
748.36	229.97
748.68	229.89
749.01	229.79
749.34	229.73
749.67	229.67
750.00	229.62
750.33	229.63
750.65	229.57
750.98	229.36
751.31	229.29
751.64	229.23
751.97	229.22
752.29	229.16
752.62	229.04
752.95	228.97
753.28	228.90
753.60	228.84
753.93	228.80
754.26	228.75
754.59	228.65
754.91	228.58
755.24	228.51
755.57	228.50
755.90	228.45
756.22	228.38
756.55	228.30
756.88	228.23
757.20	228.10
757.53	228.02
757.86	227.96
758.19	227.91
758.51	227.85
758.84	227.75
759.17	227.69
759.49	227.64
759.82	227.64
760.15	227.60
760.47	227.55
760.80	227.47
761.13	227.43
761.45	227.38
761.78	227.33
762.11	227.29
762.43	227.19
762.76	227.14
763.08	227.11
763.41	227.08
763.74	227.04
764.06	226.99
764.39	226.95
764.71	226.92
765.04	226.87
765.37	226.83
765.69	226.78
766.02	226.74
766.34	226.69
766.67	226.62
767.00	226.61
767.32	226.63
767.65	226.66
767.97	226.61
768.30	226.58
768.62	226.55
768.95	226.50
769.27	226.47
769.60	226.45
769.92	226.41
770.25	226.36
770.57	226.31
770.90	226.30
771.22	226.25
771.55	226.21
771.87	226.19
772.20	226.16
772.52	226.22
772.85	226.33
773.17	226.31
773.50	226.26
773.82	226.21
774.15	226.13
774.47	226.03
774.80	226.00
775.12	225.97
775.45	225.95
775.77	225.94
776.09	225.91
776.42	225.89
776.74	225.89
777.07	225.86
777.39	225.83
777.72	225.79
778.04	225.78
778.36	225.76
778.69	225.74
779.01	225.74
779.33	225.62
779.66	225.47
779.98	225.44
780.31	225.44
780.63	225.46
780.95	225.46
781.28	225.43
781.60	225.41
781.92	225.39
782.25	225.36
782.57	225.34
782.89	225.31
783.22	225.28
783.54	225.24
783.86	225.24
784.19	225.21
784.51	225.23
784.83	225.20
785.16	225.18
785.48	225.15
785.80	225.13
786.12	225.12
786.45	225.10
786.77	225.09
787.09	225.06
787.42	225.00
787.74	224.98
788.06	224.97
788.38	224.96
788.71	224.93
789.03	224.92
789.35	224.91
789.67	224.89
789.99	224.88
790.32	224.85
790.64	224.84
790.96	224.93
791.28	224.88
791.61	224.86
791.93	224.85
792.25	224.83
792.57	224.88
792.89	224.84
793.21	224.84
793.54	224.81
793.86	224.78
794.18	224.79
794.50	224.76
794.82	224.74
795.14	224.73
795.47	224.74
795.79	224.73
796.11	224.71
796.43	224.70
796.75	224.68
797.07	224.68
797.39	224.66
797.71	224.56
798.04	224.54
798.36	224.53
798.68	224.52
799.00	224.52
799.32	224.45
799.64	224.47
799.96	224.45
800.28	224.47
800.60	224.46
800.92	224.46
801.24	224.43
801.56	224.44
801.89	224.42
802.21	224.41
802.53	224.37
802.85	224.39
803.17	224.43
803.49	224.41
803.81	224.39
804.13	224.38
804.45	224.35
804.77	224.36
805.09	224.36
805.41	224.34
805.73	224.31
806.05	224.28
806.37	224.26
806.69	224.25
807.01	224.24
807.33	224.24
807.65	224.19
807.97	224.23
808.28	224.21
808.60	224.20
808.92	224.18
809.24	224.25
809.56	224.22
809.88	224.16
810.20	224.16
810.52	224.17
810.84	224.14
811.16	224.14
811.48	224.12
811.80	224.14
812.12	224.14
812.43	224.16
812.75	224.16
813.07	224.15
813.39	224.14
813.71	224.11
814.03	224.09
814.35	224.10
814.67	224.04
814.98	224.03
815.30	224.03
815.62	224.01
815.94	223.94
816.26	223.94
816.58	223.93
816.89	223.93
817.21	223.89
817.53	223.90
817.85	223.90
818.17	223.90
818.48	223.85
818.80	223.87
819.12	223.85
819.44	223.83
819.76	223.81
820.07	223.81
820.39	223.80
820.71	223.80
821.03	223.80
821.34	223.79
821.66	223.80
821.98	223.81
822.30	223.79
822.61	223.85
822.93	223.84
823.25	223.83
823.57	223.82
823.88	223.83
824.20	223.82
824.52	223.83
824.83	223.82
825.15	223.81
825.47	223.80
825.79	223.80
826.10	223.79
826.42	223.78
826.74	223.78
827.05	223.78
827.37	223.78
827.69	223.77
828.00	223.77
828.32	223.75
828.64	223.73
828.95	223.79
829.27	223.75
829.58	223.75
829.90	223.77
830.22	223.77
830.53	223.74
830.85	223.74
831.17	223.71
831.48	223.71
831.80	223.71
832.11	223.70
832.43	223.68
832.75	223.69
833.06	223.74
833.38	223.72
833.69	223.72
834.01	223.72
834.32	223.71
834.64	223.70
834.96	223.71
835.27	223.71
835.59	223.67
835.90	223.65
836.22	223.64
836.53	223.61
836.85	223.60
837.16	223.70
837.48	223.70
837.79	223.73
838.11	223.73
838.42	223.74
838.74	223.74
839.05	223.74
839.37	223.73
839.68	223.67
840.00	223.65
840.31	223.67
840.63	223.65
840.94	223.64
841.26	223.63
841.57	223.62
841.88	223.63
842.20	223.61
842.51	223.59
842.83	223.59
843.14	223.68
843.46	223.67
843.77	223.61
844.08	223.61
844.40	223.57
844.71	223.56
845.03	223.54
845.34	223.52
845.65	223.52
845.97	223.53
846.28	223.53
846.60	223.55
846.91	223.52
847.22	223.52
847.54	223.55
847.85	223.55
848.16	223.54
848.48	223.51
848.79	223.55
849.10	223.57
849.42	223.57
849.73	223.47
850.04	223.48
850.36	223.44
850.67	223.46
850.98	223.47
851.30	223.47
851.61	223.48
851.92	223.48
852.23	223.51
852.55	223.51
852.86	223.51
853.17	223.51
853.49	223.53
853.80	223.54
854.11	223.55
854.42	223.56
854.74	223.55
855.05	223.56
855.36	223.50
855.67	223.50
855.99	223.49
856.30	223.62
856.61	223.61
856.92	223.61
857.23	223.60
857.55	223.59
857.86	223.57
858.17	223.58
858.48	223.56
858.79	223.53
859.11	223.55
859.42	223.53
859.73	223.53
860.04	223.51
860.35	223.48
860.66	223.44
860.98	223.43
861.29	223.46
861.60	223.44
861.91	223.46
862.22	223.45
862.53	223.44
862.84	223.32
863.16	223.35
863.47	223.33
863.78	223.31
864.09	223.32
864.40	223.33
864.71	223.33
865.02	223.35
865.33	223.34
865.64	223.32
865.95	223.32
866.27	223.38
866.58	223.38
866.89	223.40
867.20	223.40
867.51	223.39
867.82	223.38
868.13	223.42
868.44	223.40
868.75	223.42
869.06	223.43
869.37	223.43
869.68	223.40
869.99	223.43
870.30	223.44
870.61	223.44
870.92	223.43
871.23	223.41
871.54	223.42
871.85	223.45
872.16	223.45
872.47	223.44
872.78	223.38
873.09	223.38
873.40	223.36
873.71	223.37
874.02	223.38
874.33	223.36
874.64	223.34
874.95	223.35
875.26	223.33
875.56	223.32
875.87	223.33
876.18	223.32
876.49	223.41
876.80	223.39
877.11	223.37
877.42	223.38
877.73	223.38
878.04	223.36
878.35	223.36
878.66	223.36
878.96	223.36
879.27	223.36
879.58	223.36
879.89	223.36
880.20	223.38
880.51	223.37
880.82	223.37
881.12	223.37
881.43	223.36
881.74	223.34
882.05	223.33
882.36	223.33
882.67	223.34
882.97	223.22
883.28	223.22
883.59	223.22
883.90	223.22
884.21	223.23
884.51	223.22
884.82	223.21
885.13	223.20
885.44	223.19
885.74	223.19
886.05	223.18
886.36	223.18
886.67	223.15
886.98	223.20
887.28	223.21
887.59	223.21
887.90	223.21
888.20	223.21
888.51	223.23
888.82	223.21
889.13	223.22
889.43	223.31
889.74	223.31
890.05	223.32
890.35	223.31
890.66	223.29
890.97	223.28
891.28	223.28
891.58	223.27
891.89	223.27
892.20	223.27
892.50	223.25
892.81	223.24
893.12	223.23
893.42	223.18
893.73	223.17
894.04	223.18
894.34	223.18
894.65	223.18
894.95	223.17
895.26	223.18
895.57	223.22
895.87	223.12
896.18	223.14
896.48	223.14
896.79	223.13
897.10	223.14
897.40	223.15
897.71	223.16
898.01	223.15
898.32	223.17
898.63	223.18
898.93	223.19
899.24	223.20
899.54	223.19
899.85	223.19
900.15	223.19
900.46	223.18
900.76	223.19
901.07	223.18
901.38	223.18
901.68	223.20
901.99	223.15
902.29	223.15
902.60	223.14
902.90	223.14
903.21	223.14
903.51	223.13
903.82	223.16
904.12	223.15
904.43	223.17
904.73	223.16
905.03	223.16
905.34	223.26
905.64	223.25
905.95	223.25
906.25	223.25
906.56	223.25
906.86	223.24
907.17	223.24
907.47	223.25
907.77	223.24
908.08	223.21
908.38	223.21
908.69	223.22
908.99	223.24
909.30	223.25
909.60	223.25
909.90	223.26
910.21	223.23
910.51	223.21
910.81	223.21
911.12	223.22
911.42	223.22
911.73	223.11
912.03	223.13
912.33	223.15
912.64	223.15
912.94	223.14
913.24	223.13
913.55	223.12
913.85	223.12
914.15	223.13
914.46	223.15
914.76	223.14
915.06	223.12
915.37	223.09
915.67	223.08
915.97	223.08
916.27	223.06
916.58	223.06
916.88	223.06
917.18	223.03
917.49	223.10
917.79	223.09
918.09	223.10
918.39	223.12
918.70	223.11
919.00	223.12
919.30	223.17
919.60	223.17
919.91	223.15
920.21	223.15
920.51	223.13
920.81	223.11
921.12	223.13
921.42	223.14
921.72	223.14
922.02	223.15
922.32	223.16
922.63	223.15
922.93	223.21
923.23	223.21
923.53	223.22
923.83	223.14
924.13	223.15
924.44	223.14
924.74	223.16
925.04	223.17
925.34	223.17
925.64	223.12
925.94	223.12
926.24	223.17
926.55	223.16
926.85	223.18
927.15	223.18
927.45	223.18
927.75	223.17
928.05	223.17
928.35	223.16
928.65	223.18
928.95	223.19
929.26	223.13
929.56	223.16
929.86	223.16
930.16	223.15
930.46	223.15
930.76	223.16
931.06	223.10
931.36	223.07
931.66	223.08
931.96	223.09
932.26	223.10
932.56	223.06
932.86	223.06
933.16	223.06
933.46	223.06
933.76	223.04
934.06	223.07
934.36	223.10
934.66	223.10
934.96	223.08
935.26	223.08
935.56	223.11
935.86	223.07
936.16	223.07
936.46	223.07
936.76	223.06
937.06	223.05
937.36	223.06
937.66	223.06
937.96	223.06
938.26	223.04
938.56	223.03
938.86	223.04
939.16	223.07
939.46	223.07
939.76	223.09
940.06	223.08
940.35	223.07
940.65	223.02
940.95	223.03
941.25	223.01
941.55	222.99
941.85	222.99
942.15	223.02
942.45	223.04
942.75	223.03
943.04	223.04
943.34	223.07
943.64	223.07
943.94	223.05
944.24	223.04
944.54	223.06
944.84	223.06
945.13	223.04
945.43	223.03
945.73	223.02
946.03	223.00
946.33	223.00
946.62	222.99
946.92	223.00
947.22	223.00
947.52	223.01
947.82	223.03
948.11	223.02
948.41	223.01
948.71	222.98
949.01	222.98
949.31	222.97
949.60	222.96
949.90	222.98
950.20	222.98
950.50	222.99
950.79	222.98
951.09	222.99
951.39	222.99
951.69	222.99
951.98	223.01
952.28	223.02
952.58	223.02
952.87	223.02
953.17	223.03
953.47	223.01
953.76	223.01
954.06	222.99
954.36	222.98
954.66	222.97
954.95	223.00
955.25	223.01
955.55	223.02
955.84	223.01
956.14	223.01
956.44	223.02
956.73	223.01
957.03	223.01
957.32	223.02
957.62	223.01
957.92	223.01
958.21	223.01
958.51	223.12
958.81	223.14
959.10	223.15
959.40	223.18
959.69	223.20
959.99	223.22
960.29	223.22
960.58	223.21
960.88	223.26
961.17	223.24
961.47	223.24
961.76	223.23
962.06	223.24
962.36	223.22
962.65	223.22
962.95	223.22
963.24	223.22
963.54	223.22
963.83	223.22
964.13	223.22
964.42	223.21
964.72	223.11
965.01	223.11
965.31	223.08
965.60	223.05
965.90	223.10
966.19	223.07
966.49	223.08
966.78	223.07
967.08	223.05
967.37	223.05
967.67	223.04
967.96	223.05
968.26	223.04
968.55	223.06
968.85	223.05
969.14	223.05
969.43	223.05
969.73	223.04
970.02	223.03
970.32	223.02
970.61	223.00
970.91	222.97
971.20	222.97
971.49	222.96
971.79	222.97
972.08	222.89
972.38	222.91
972.67	222.89
972.96	222.92
973.26	222.89
973.55	222.93
973.85	222.92
974.14	222.91
974.43	222.92
974.73	222.90
975.02	222.89
975.31	222.89
975.61	222.89
975.90	222.88
976.19	222.87
976.49	222.89
976.78	222.90
977.07	222.89
977.37	222.91
977.66	222.92
977.95	222.91
978.24	222.92
978.54	222.94
978.83	222.94
979.12	222.93
979.42	222.94
979.71	222.91
980.00	222.92
980.29	222.91
980.59	222.89
980.88	222.91
981.17	222.90
981.46	222.92
981.76	222.92
982.05	222.95
982.34	222.95
982.63	222.94
982.93	222.95
983.22	222.97
983.51	222.96
983.80	222.97
984.09	222.98
984.39	222.98
984.68	222.96
984.97	222.96
985.26	222.95
985.55	222.96
985.85	222.95
986.14	222.96
986.43	222.99
986.72	222.98
987.01	222.96
987.30	222.95
987.59	222.95
987.89	222.94
988.18	222.91
988.47	222.90
988.76	222.90
989.05	222.89
989.34	222.88
989.63	222.89
989.92	222.88
990.22	222.86
990.51	222.85
990.80	222.84
991.09	222.85
991.38	222.86
991.67	222.84
991.96	222.83
992.25	222.83
992.54	222.81
992.83	222.81
993.12	222.81
993.41	222.83
993.70	222.87
993.99	222.89
994.28	222.90
994.58	222.91
994.87	222.90
995.16	222.90
995.45	222.89
995.74	222.85
996.03	222.87
996.32	222.88
996.61	222.91
996.90	222.91
997.19	222.90
997.48	222.89
997.77	222.88
998.06	222.89
998.34	222.88
998.63	222.88
998.92	222.88
999.21	222.89
999.50	222.89
999.79	222.84
1000.08	222.84
1000.37	222.84
1000.66	222.83
1000.95	222.85
1001.24	222.86
1001.53	222.88
1001.82	222.88
1002.11	222.85
1002.40	222.86
1002.68	222.88
1002.97	222.95
1003.26	222.94
1003.55	222.93
1003.84	222.94
1004.13	222.97
1004.42	222.96
1004.71	222.96
1004.99	222.95
1005.28	222.97
1005.57	222.96
1005.86	222.95
1006.15	222.94
1006.44	222.93
1006.72	222.94
1007.01	222.92
1007.30	222.93
1007.59	222.91
1007.88	222.90
1008.17	222.92
1008.45	222.89
1008.74	222.85
1009.03	222.80
1009.32	222.81
1009.60	222.82
1009.89	222.81
1010.18	222.78
1010.47	222.78
1010.76	222.78
1011.04	222.79
1011.33	222.78
1011.62	222.80
1011.91	222.82
1012.19	222.83
1012.48	222.84
1012.77	222.84
1013.05	222.88
1013.34	222.87
1013.63	222.87
1013.92	222.88
1014.20	222.87
1014.49	222.89
1014.78	222.89
1015.06	222.86
1015.35	222.85
1015.64	222.85
1015.92	222.87
1016.21	222.87
1016.50	222.87
1016.78	222.88
1017.07	222.88
1017.36	222.87
1017.64	222.85
1017.93	222.85
1018.22	222.84
1018.50	222.84
1018.79	222.84
1019.08	222.79
1019.36	222.81
1019.65	222.80
1019.93	222.83
1020.22	222.83
1020.51	222.88
1020.79	222.88
1021.08	222.77
1021.36	222.72
1021.65	223.01
1021.94	222.72
1022.22	222.98
1022.51	222.59
1022.79	223.32
1023.08	222.88
1023.36	224.07
1023.65	222.62
>>>>>End Processed Spectral Data<<<<<
