SpectraSuite Data File
++++++++++++++++++++++++++++++++++++
Date: Wed Sep 30 14:27:43 EDT 2015
User: lab3
Dark Spectrum Present: No
Reference Spectrum Present: No
Number of Sampled Component Spectra: 1
Spectrometers: USB2E7196
Integration Time (usec): 36000 (USB2E7196)
Spectra Averaged: 1500 (USB2E7196)
Boxcar Smoothing: 10 (USB2E7196)
Correct for Electrical Dark: No (USB2E7196)
Strobe/Lamp Enabled: No (USB2E7196)
Correct for Detector Non-linearity: No (USB2E7196)
Correct for Stray Light: No (USB2E7196)
Number of Pixels in Processed Spectrum: 2048
>>>>>Begin Processed Spectral Data<<<<<
339.09	0.00
339.48	211.30
339.86	212.75
340.24	214.25
340.63	215.51
341.01	218.54
341.39	218.23
341.78	219.67
342.16	220.86
342.54	221.11
342.93	209.84
343.31	220.44
343.69	220.98
344.07	221.44
344.46	221.87
344.84	222.26
345.22	222.50
345.60	222.75
345.99	222.93
346.37	223.06
346.75	223.18
347.13	223.26
347.52	223.32
347.90	223.39
348.28	223.42
348.66	223.48
349.05	223.46
349.43	223.50
349.81	223.55
350.19	223.60
350.57	223.67
350.96	223.75
351.34	223.84
351.72	223.94
352.10	224.04
352.48	224.11
352.87	224.16
353.25	224.22
353.63	224.28
354.01	224.34
354.39	224.42
354.77	224.49
355.15	224.58
355.54	224.64
355.92	224.66
356.30	224.74
356.68	224.88
357.06	224.96
357.44	225.01
357.82	225.07
358.20	225.19
358.58	225.24
358.97	225.30
359.35	225.38
359.73	225.44
360.11	225.48
360.49	225.53
360.87	225.58
361.25	225.63
361.63	225.72
362.01	225.77
362.39	225.79
362.77	225.83
363.15	225.86
363.53	225.89
363.91	225.93
364.29	225.94
364.67	225.87
365.05	225.88
365.43	225.91
365.81	225.94
366.19	225.94
366.57	225.99
366.95	225.99
367.33	225.96
367.71	225.96
368.09	225.97
368.47	225.97
368.85	225.96
369.23	225.98
369.61	225.91
369.99	225.93
370.37	225.93
370.75	225.98
371.13	225.95
371.51	225.92
371.89	225.89
372.27	225.86
372.65	225.84
373.03	225.80
373.41	225.75
373.78	225.70
374.16	225.61
374.54	225.53
374.92	225.48
375.30	225.44
375.68	225.37
376.06	225.33
376.44	225.28
376.82	225.24
377.19	225.17
377.57	225.12
377.95	225.04
378.33	224.97
378.71	224.83
379.09	224.79
379.47	224.75
379.84	224.69
380.22	224.63
380.60	224.56
380.98	224.51
381.36	224.46
381.73	224.40
382.11	224.37
382.49	224.33
382.87	224.27
383.25	224.23
383.62	224.31
384.00	224.24
384.38	224.18
384.76	224.16
385.13	224.16
385.51	224.12
385.89	224.08
386.27	224.04
386.64	224.02
387.02	223.97
387.40	223.93
387.78	223.91
388.15	223.88
388.53	223.85
388.91	223.83
389.29	223.81
389.66	223.79
390.04	223.76
390.42	223.76
390.79	223.74
391.17	223.71
391.55	223.58
391.92	223.56
392.30	223.56
392.68	223.52
393.05	223.51
393.43	223.51
393.81	223.50
394.18	223.49
394.56	223.49
394.94	223.51
395.31	223.50
395.69	223.53
396.06	223.56
396.44	223.58
396.82	223.59
397.19	223.66
397.57	223.68
397.95	223.72
398.32	223.71
398.70	223.75
399.07	223.81
399.45	223.84
399.82	223.89
400.20	223.94
400.58	223.99
400.95	224.00
401.33	224.07
401.70	224.21
402.08	224.30
402.45	224.38
402.83	224.49
403.20	224.60
403.58	224.69
403.95	224.81
404.33	224.94
404.71	225.06
405.08	225.23
405.46	225.37
405.83	225.52
406.21	225.69
406.58	225.88
406.96	226.07
407.33	226.29
407.70	226.52
408.08	226.86
408.45	227.14
408.83	227.45
409.20	227.72
409.58	227.97
409.95	228.31
410.33	228.69
410.70	229.04
411.08	229.45
411.45	229.89
411.82	230.33
412.20	230.83
412.57	231.45
412.95	231.93
413.32	232.54
413.69	233.18
414.07	233.85
414.44	234.59
414.82	235.34
415.19	236.23
415.56	237.12
415.94	238.03
416.31	239.06
416.68	240.11
417.06	241.32
417.43	242.46
417.81	243.77
418.18	245.09
418.55	246.54
418.93	248.05
419.30	249.61
419.67	251.30
420.04	253.03
420.42	254.83
420.79	256.92
421.16	259.03
421.54	261.17
421.91	263.41
422.28	265.74
422.66	268.24
423.03	270.63
423.40	273.14
423.77	275.86
424.15	278.64
424.52	281.51
424.89	284.61
425.26	287.69
425.64	290.56
426.01	293.79
426.38	297.11
426.75	300.53
427.13	304.05
427.50	307.72
427.87	311.54
428.24	315.40
428.61	319.10
428.99	323.10
429.36	327.45
429.73	331.61
430.10	335.78
430.47	340.04
430.85	344.44
431.22	349.10
431.59	353.88
431.96	358.55
432.33	363.74
432.70	368.69
433.08	374.51
433.45	380.01
433.82	385.41
434.19	391.46
434.56	397.39
434.93	403.11
435.30	408.77
435.68	415.14
436.05	421.35
436.42	427.57
436.79	433.21
437.16	439.37
437.53	445.93
437.90	452.48
438.27	458.88
438.64	465.75
439.01	472.02
439.38	477.73
439.75	483.24
440.13	489.46
440.50	495.37
440.87	500.08
441.24	505.19
441.61	510.83
441.98	514.94
442.35	519.87
442.72	524.90
443.09	529.68
443.46	532.71
443.83	534.98
444.20	536.83
444.57	539.57
444.94	541.16
445.31	542.80
445.68	544.24
446.05	545.28
446.42	545.06
446.79	544.73
447.16	544.46
447.53	544.20
447.90	542.31
448.27	540.54
448.64	537.74
449.01	535.93
449.37	532.00
449.74	528.43
450.11	523.82
450.48	518.76
450.85	513.67
451.22	509.36
451.59	505.08
451.96	501.23
452.33	495.64
452.70	490.63
453.07	484.55
453.43	478.46
453.80	472.55
454.17	466.84
454.54	461.54
454.91	455.58
455.28	449.97
455.65	444.69
456.02	439.07
456.38	434.55
456.75	428.69
457.12	424.00
457.49	419.25
457.86	414.74
458.23	410.76
458.59	406.39
458.96	401.90
459.33	397.98
459.70	393.99
460.07	390.96
460.43	387.37
460.80	384.00
461.17	381.05
461.54	377.89
461.91	374.92
462.27	371.88
462.64	369.41
463.01	366.57
463.38	363.72
463.74	361.13
464.11	358.82
464.48	356.76
464.85	354.51
465.21	352.77
465.58	350.84
465.95	348.65
466.32	346.90
466.68	345.19
467.05	343.45
467.42	341.77
467.78	339.95
468.15	338.27
468.52	337.05
468.88	335.41
469.25	333.92
469.62	332.73
469.98	331.47
470.35	330.34
470.72	329.32
471.08	328.28
471.45	327.43
471.82	326.47
472.18	325.45
472.55	324.80
472.92	324.02
473.28	323.40
473.65	322.76
474.02	322.15
474.38	321.63
474.75	321.36
475.11	320.96
475.48	320.81
475.85	320.65
476.21	320.59
476.58	320.61
476.94	320.81
477.31	320.93
477.67	321.07
478.04	321.33
478.41	321.66
478.77	322.12
479.14	322.42
479.50	322.97
479.87	323.67
480.23	324.37
480.60	325.07
480.96	325.77
481.33	326.74
481.69	327.71
482.06	328.67
482.42	329.60
482.79	330.71
483.15	331.99
483.52	333.41
483.88	334.80
484.25	336.30
484.61	337.82
484.98	339.47
485.34	341.31
485.71	343.22
486.07	345.27
486.44	347.31
486.80	349.58
487.17	351.90
487.53	354.42
487.90	357.03
488.26	359.82
488.62	362.80
488.99	365.82
489.35	368.97
489.72	372.38
490.08	375.93
490.44	379.58
490.81	383.38
491.17	387.30
491.54	391.45
491.90	395.69
492.26	400.24
492.63	405.04
492.99	410.05
493.36	415.20
493.72	420.65
494.08	426.25
494.45	432.13
494.81	438.24
495.17	444.47
495.54	451.08
495.90	458.06
496.26	465.15
496.63	472.42
496.99	480.00
497.35	487.87
497.72	496.04
498.08	504.43
498.44	513.04
498.80	522.19
499.17	531.62
499.53	541.35
499.89	551.36
500.26	561.54
500.62	571.92
500.98	582.95
501.34	594.12
501.71	605.78
502.07	617.69
502.43	630.02
502.79	642.76
503.16	655.83
503.52	669.03
503.88	682.67
504.24	696.75
504.60	711.00
504.97	725.67
505.33	740.73
505.69	756.48
506.05	772.55
506.41	788.77
506.78	805.28
507.14	822.31
507.50	839.64
507.86	857.37
508.22	875.36
508.59	893.49
508.95	912.20
509.31	931.38
509.67	951.30
510.03	971.37
510.39	991.52
510.75	1011.86
511.12	1032.49
511.48	1053.39
511.84	1074.59
512.20	1096.05
512.56	1118.30
512.92	1140.68
513.28	1163.06
513.64	1185.71
514.00	1208.71
514.37	1232.26
514.73	1255.76
515.09	1279.08
515.45	1302.58
515.81	1326.34
516.17	1350.22
516.53	1373.94
516.89	1397.53
517.25	1421.11
517.61	1444.85
517.97	1468.94
518.33	1493.02
518.69	1517.23
519.05	1541.68
519.41	1566.13
519.77	1590.94
520.13	1615.11
520.49	1639.25
520.85	1663.31
521.21	1687.37
521.57	1712.00
521.93	1735.79
522.29	1760.05
522.65	1784.18
523.01	1808.29
523.37	1831.90
523.73	1856.05
524.09	1879.99
524.45	1903.98
524.81	1927.77
525.17	1951.08
525.53	1974.13
525.89	1997.10
526.25	2020.09
526.61	2041.68
526.97	2063.60
527.33	2085.26
527.68	2106.88
528.04	2128.20
528.40	2149.35
528.76	2170.20
529.12	2190.43
529.48	2211.22
529.84	2229.97
530.20	2249.26
530.56	2267.95
530.91	2287.30
531.27	2306.01
531.63	2324.09
531.99	2341.67
532.35	2358.83
532.71	2376.83
533.07	2394.96
533.42	2411.46
533.78	2428.47
534.14	2445.96
534.50	2462.53
534.86	2479.59
535.21	2494.49
535.57	2509.40
535.93	2523.90
536.29	2537.71
536.65	2550.96
537.00	2563.09
537.36	2576.25
537.72	2588.17
538.08	2600.16
538.44	2610.77
538.79	2620.82
539.15	2629.86
539.51	2638.92
539.87	2646.87
540.22	2652.42
540.58	2658.18
540.94	2664.55
541.29	2669.85
541.65	2674.89
542.01	2679.65
542.37	2682.22
542.72	2686.56
543.08	2689.80
543.44	2692.69
543.79	2695.01
544.15	2696.78
544.51	2698.15
544.87	2699.51
545.22	2700.24
545.58	2699.91
545.94	2699.60
546.29	2698.25
546.65	2697.10
547.01	2695.77
547.36	2694.95
547.72	2694.46
548.07	2692.71
548.43	2689.53
548.79	2685.88
549.14	2682.39
549.50	2679.01
549.86	2675.64
550.21	2670.86
550.57	2666.55
550.92	2661.07
551.28	2655.52
551.64	2649.93
551.99	2644.42
552.35	2637.74
552.70	2631.42
553.06	2625.91
553.41	2619.88
553.77	2613.71
554.13	2607.48
554.48	2599.88
554.84	2591.49
555.19	2583.00
555.55	2573.87
555.90	2565.90
556.26	2558.24
556.61	2549.58
556.97	2539.49
557.32	2529.66
557.68	2519.92
558.03	2509.86
558.39	2500.75
558.74	2492.23
559.10	2482.44
559.45	2472.51
559.81	2463.03
560.16	2452.92
560.52	2442.31
560.87	2432.12
561.23	2421.29
561.58	2411.11
561.94	2400.87
562.29	2390.08
562.64	2379.81
563.00	2369.73
563.35	2359.51
563.71	2348.41
564.06	2337.65
564.42	2327.32
564.77	2316.74
565.12	2306.15
565.48	2295.04
565.83	2283.47
566.19	2271.80
566.54	2260.71
566.89	2248.72
567.25	2236.67
567.60	2225.70
567.96	2214.14
568.31	2201.64
568.66	2189.71
569.02	2177.79
569.37	2166.38
569.72	2155.75
570.08	2144.01
570.43	2132.05
570.78	2119.78
571.14	2107.63
571.49	2094.97
571.84	2082.58
572.20	2069.36
572.55	2056.25
572.90	2043.75
573.26	2031.59
573.61	2018.43
573.96	2005.69
574.31	1993.44
574.67	1981.21
575.02	1967.86
575.37	1954.60
575.72	1941.65
576.08	1928.73
576.43	1915.43
576.78	1901.94
577.13	1888.26
577.49	1874.95
577.84	1861.84
578.19	1848.76
578.54	1835.36
578.90	1821.85
579.25	1808.00
579.60	1795.45
579.95	1782.91
580.30	1770.15
580.66	1756.85
581.01	1743.68
581.36	1730.16
581.71	1717.09
582.06	1704.19
582.42	1691.59
582.77	1679.05
583.12	1666.83
583.47	1654.83
583.82	1642.31
584.17	1629.15
584.53	1616.31
584.88	1603.70
585.23	1590.90
585.58	1578.19
585.93	1565.83
586.28	1554.06
586.63	1542.29
586.98	1529.90
587.34	1517.71
587.69	1504.97
588.04	1492.74
588.39	1480.88
588.74	1468.83
589.09	1457.15
589.44	1444.68
589.79	1432.47
590.14	1420.43
590.49	1408.30
590.84	1396.22
591.19	1384.92
591.54	1373.63
591.89	1362.02
592.25	1350.89
592.60	1339.48
592.95	1328.39
593.30	1317.23
593.65	1306.18
594.00	1295.26
594.35	1284.86
594.70	1273.68
595.05	1263.42
595.40	1252.75
595.75	1242.00
596.10	1231.76
596.45	1221.22
596.80	1211.42
597.15	1201.68
597.50	1191.97
597.85	1182.59
598.19	1173.17
598.54	1163.39
598.89	1154.24
599.24	1145.42
599.59	1136.49
599.94	1128.12
600.29	1119.43
600.64	1110.83
600.99	1101.59
601.34	1092.87
601.69	1083.96
602.04	1075.93
602.39	1067.47
602.74	1059.60
603.08	1051.92
603.43	1044.03
603.78	1036.09
604.13	1028.21
604.48	1020.13
604.83	1012.27
605.18	1004.26
605.53	996.14
605.87	988.10
606.22	980.37
606.57	972.36
606.92	964.25
607.27	956.34
607.62	948.69
607.96	941.17
608.31	934.61
608.66	927.79
609.01	920.95
609.36	914.11
609.70	907.27
610.05	900.25
610.40	893.33
610.75	886.28
611.10	879.66
611.44	872.82
611.79	866.31
612.14	859.60
612.49	852.81
612.83	846.55
613.18	840.40
613.53	834.29
613.88	828.29
614.22	822.51
614.57	816.54
614.92	810.67
615.27	804.79
615.61	798.53
615.96	792.36
616.31	786.42
616.65	780.25
617.00	774.24
617.35	768.26
617.70	762.43
618.04	756.75
618.39	750.88
618.74	745.35
619.08	739.68
619.43	734.19
619.78	728.80
620.12	723.20
620.47	717.79
620.82	712.39
621.16	707.08
621.51	701.68
621.85	696.33
622.20	690.87
622.55	685.53
622.89	680.29
623.24	675.19
623.59	670.18
623.93	665.45
624.28	660.83
624.62	656.17
624.97	651.43
625.32	646.78
625.66	641.96
626.01	637.14
626.35	632.44
626.70	627.73
627.04	623.32
627.39	618.93
627.73	614.51
628.08	610.17
628.43	605.84
628.77	601.58
629.12	597.41
629.46	593.37
629.81	589.24
630.15	585.16
630.50	581.18
630.84	577.20
631.19	573.28
631.53	569.47
631.88	565.65
632.22	561.79
632.57	558.20
632.91	554.64
633.26	551.05
633.60	547.48
633.95	544.02
634.29	540.43
634.64	536.91
634.98	533.30
635.32	529.81
635.67	526.54
636.01	523.27
636.36	520.01
636.70	516.88
637.05	513.77
637.39	510.66
637.73	507.38
638.08	504.23
638.42	501.13
638.77	497.89
639.11	494.59
639.45	491.41
639.80	488.19
640.14	485.14
640.49	482.13
640.83	479.06
641.17	476.07
641.52	473.07
641.86	470.04
642.20	467.18
642.55	464.18
642.89	461.20
643.23	458.34
643.58	455.70
643.92	452.93
644.26	450.23
644.61	447.58
644.95	444.96
645.29	442.24
645.64	439.46
645.98	436.79
646.32	434.26
646.66	431.76
647.01	429.30
647.35	426.94
647.69	424.43
648.04	422.05
648.38	419.63
648.72	417.27
649.06	414.95
649.41	412.70
649.75	410.48
650.09	408.21
650.43	406.01
650.78	403.73
651.12	401.46
651.46	399.26
651.80	397.15
652.14	395.09
652.49	393.07
652.83	391.10
653.17	389.17
653.51	387.30
653.85	385.46
654.20	383.57
654.54	381.57
654.88	379.68
655.22	377.82
655.56	376.02
655.90	374.25
656.25	372.51
656.59	370.75
656.93	369.09
657.27	367.52
657.61	365.83
657.95	364.22
658.29	362.67
658.64	361.14
658.98	359.48
659.32	357.81
659.66	356.28
660.00	354.76
660.34	353.24
660.68	351.70
661.02	350.10
661.36	348.58
661.70	347.13
662.05	345.71
662.39	344.32
662.73	342.98
663.07	341.69
663.41	340.42
663.75	339.14
664.09	337.88
664.43	336.52
664.77	335.22
665.11	333.87
665.45	332.57
665.79	331.30
666.13	330.11
666.47	328.96
666.81	327.73
667.15	326.47
667.49	325.29
667.83	324.11
668.17	323.01
668.51	321.91
668.85	320.83
669.19	319.80
669.53	318.65
669.87	317.46
670.21	316.36
670.55	315.26
670.89	314.25
671.23	313.20
671.57	312.17
671.91	311.22
672.25	310.32
672.58	309.41
672.92	308.45
673.26	307.55
673.60	306.64
673.94	305.76
674.28	304.90
674.62	304.03
674.96	303.13
675.30	302.30
675.64	301.46
675.97	300.62
676.31	299.76
676.65	298.95
676.99	298.23
677.33	297.40
677.67	296.61
678.01	295.75
678.34	294.94
678.68	294.21
679.02	293.40
679.36	292.63
679.70	291.83
680.04	291.07
680.37	290.30
680.71	289.57
681.05	288.88
681.39	288.17
681.73	287.46
682.06	286.76
682.40	286.06
682.74	285.39
683.08	284.74
683.42	284.06
683.75	283.43
684.09	282.73
684.43	282.09
684.77	281.43
685.10	280.81
685.44	280.19
685.78	279.57
686.12	279.00
686.45	278.40
686.79	277.78
687.13	277.18
687.46	276.56
687.80	275.96
688.14	275.35
688.48	274.78
688.81	274.19
689.15	273.66
689.49	273.06
689.82	272.48
690.16	271.84
690.50	271.25
690.83	270.68
691.17	270.10
691.51	269.55
691.84	269.03
692.18	268.49
692.52	267.92
692.85	267.36
693.19	266.85
693.52	266.31
693.86	265.80
694.20	265.29
694.53	264.80
694.87	264.29
695.21	263.77
695.54	263.26
695.88	262.75
696.21	262.22
696.55	261.76
696.88	261.28
697.22	260.83
697.56	260.40
697.89	259.95
698.23	259.52
698.56	259.08
698.90	258.67
699.23	258.24
699.57	257.84
699.90	257.44
700.24	257.00
700.58	256.60
700.91	256.24
701.25	255.93
701.58	255.57
701.92	255.22
702.25	254.85
702.59	254.46
702.92	254.10
703.26	253.73
703.59	253.35
703.93	253.08
704.26	252.73
704.60	252.37
704.93	252.00
705.26	251.63
705.60	251.30
705.93	250.93
706.27	250.63
706.60	250.33
706.94	250.04
707.27	249.70
707.61	249.36
707.94	249.02
708.27	248.61
708.61	248.27
708.94	247.94
709.28	247.65
709.61	247.35
709.94	247.08
710.28	246.81
710.61	246.56
710.95	246.20
711.28	246.01
711.61	245.74
711.95	245.51
712.28	245.23
712.61	244.95
712.95	244.75
713.28	244.52
713.61	244.25
713.95	243.95
714.28	243.71
714.61	243.45
714.95	243.19
715.28	242.95
715.61	242.72
715.95	242.50
716.28	242.28
716.61	242.09
716.95	241.85
717.28	241.62
717.61	241.39
717.94	241.18
718.28	240.89
718.61	240.68
718.94	240.46
719.27	240.28
719.61	240.11
719.94	239.88
720.27	239.64
720.60	239.46
720.94	239.28
721.27	239.10
721.60	238.95
721.93	238.78
722.27	238.63
722.60	238.46
722.93	238.26
723.26	238.08
723.59	237.87
723.93	237.72
724.26	237.57
724.59	237.40
724.92	237.24
725.25	237.12
725.59	236.96
725.92	236.83
726.25	236.67
726.58	236.52
726.91	236.36
727.24	236.22
727.57	236.06
727.91	235.91
728.24	235.78
728.57	235.63
728.90	235.51
729.23	235.34
729.56	235.26
729.89	235.13
730.22	235.00
730.55	234.88
730.89	234.75
731.22	234.62
731.55	234.49
731.88	234.37
732.21	234.23
732.54	234.10
732.87	233.99
733.20	233.89
733.53	233.78
733.86	233.68
734.19	233.56
734.52	233.48
734.85	233.44
735.18	233.31
735.51	233.24
735.84	233.13
736.17	233.05
736.50	232.90
736.83	232.92
737.16	232.82
737.49	232.73
737.82	232.63
738.15	232.54
738.48	232.45
738.81	232.34
739.14	232.24
739.47	232.13
739.80	232.02
740.13	231.94
740.46	231.83
740.79	231.72
741.12	231.61
741.45	231.50
741.78	231.36
742.11	231.30
742.44	231.18
742.77	231.11
743.10	231.02
743.43	230.93
743.75	230.75
744.08	230.82
744.41	230.73
744.74	230.64
745.07	230.55
745.40	230.50
745.73	230.47
746.06	230.40
746.39	230.35
746.71	230.28
747.04	230.19
747.37	230.13
747.70	230.08
748.03	230.04
748.36	229.99
748.68	229.91
749.01	229.82
749.34	229.76
749.67	229.70
750.00	229.64
750.33	229.66
750.65	229.60
750.98	229.39
751.31	229.33
751.64	229.28
751.97	229.27
752.29	229.19
752.62	229.08
752.95	229.00
753.28	228.92
753.60	228.86
753.93	228.83
754.26	228.78
754.59	228.68
754.91	228.60
755.24	228.53
755.57	228.52
755.90	228.46
756.22	228.39
756.55	228.32
756.88	228.24
757.20	228.12
757.53	228.04
757.86	227.98
758.19	227.92
758.51	227.87
758.84	227.77
759.17	227.71
759.49	227.67
759.82	227.67
760.15	227.64
760.47	227.59
760.80	227.51
761.13	227.47
761.45	227.42
761.78	227.37
762.11	227.34
762.43	227.24
762.76	227.20
763.08	227.18
763.41	227.14
763.74	227.10
764.06	227.05
764.39	227.01
764.71	226.98
765.04	226.94
765.37	226.89
765.69	226.85
766.02	226.82
766.34	226.77
766.67	226.69
767.00	226.67
767.32	226.69
767.65	226.72
767.97	226.68
768.30	226.66
768.62	226.63
768.95	226.58
769.27	226.55
769.60	226.53
769.92	226.47
770.25	226.42
770.57	226.38
770.90	226.35
771.22	226.30
771.55	226.27
771.87	226.23
772.20	226.21
772.52	226.27
772.85	226.36
773.17	226.34
773.50	226.30
773.82	226.26
774.15	226.18
774.47	226.09
774.80	226.05
775.12	226.02
775.45	225.99
775.77	225.97
776.09	225.95
776.42	225.92
776.74	225.93
777.07	225.90
777.39	225.88
777.72	225.85
778.04	225.84
778.36	225.81
778.69	225.79
779.01	225.77
779.33	225.65
779.66	225.51
779.98	225.48
780.31	225.47
780.63	225.48
780.95	225.48
781.28	225.46
781.60	225.43
781.92	225.41
782.25	225.38
782.57	225.36
782.89	225.33
783.22	225.31
783.54	225.26
783.86	225.25
784.19	225.22
784.51	225.23
784.83	225.20
785.16	225.18
785.48	225.17
785.80	225.14
786.12	225.14
786.45	225.11
786.77	225.10
787.09	225.07
787.42	225.01
787.74	225.00
788.06	224.99
788.38	224.96
788.71	224.93
789.03	224.92
789.35	224.92
789.67	224.89
789.99	224.88
790.32	224.86
790.64	224.85
790.96	224.93
791.28	224.88
791.61	224.87
791.93	224.86
792.25	224.84
792.57	224.89
792.89	224.86
793.21	224.86
793.54	224.83
793.86	224.81
794.18	224.80
794.50	224.76
794.82	224.75
795.14	224.74
795.47	224.76
795.79	224.74
796.11	224.69
796.43	224.69
796.75	224.67
797.07	224.65
797.39	224.63
797.71	224.53
798.04	224.52
798.36	224.52
798.68	224.49
799.00	224.50
799.32	224.44
799.64	224.45
799.96	224.43
800.28	224.44
800.60	224.43
800.92	224.43
801.24	224.42
801.56	224.42
801.89	224.41
802.21	224.40
802.53	224.38
802.85	224.39
803.17	224.43
803.49	224.40
803.81	224.39
804.13	224.38
804.45	224.36
804.77	224.36
805.09	224.35
805.41	224.33
805.73	224.30
806.05	224.27
806.37	224.25
806.69	224.22
807.01	224.21
807.33	224.21
807.65	224.17
807.97	224.20
808.28	224.17
808.60	224.16
808.92	224.14
809.24	224.19
809.56	224.17
809.88	224.13
810.20	224.14
810.52	224.15
810.84	224.13
811.16	224.11
811.48	224.10
811.80	224.13
812.12	224.12
812.43	224.14
812.75	224.14
813.07	224.12
813.39	224.12
813.71	224.10
814.03	224.08
814.35	224.09
814.67	224.04
814.98	224.02
815.30	224.02
815.62	223.99
815.94	223.92
816.26	223.92
816.58	223.90
816.89	223.89
817.21	223.86
817.53	223.87
817.85	223.87
818.17	223.86
818.48	223.81
818.80	223.82
819.12	223.80
819.44	223.77
819.76	223.75
820.07	223.74
820.39	223.74
820.71	223.75
821.03	223.74
821.34	223.73
821.66	223.75
821.98	223.75
822.30	223.76
822.61	223.81
822.93	223.79
823.25	223.80
823.57	223.78
823.88	223.79
824.20	223.79
824.52	223.80
824.83	223.80
825.15	223.78
825.47	223.78
825.79	223.79
826.10	223.78
826.42	223.78
826.74	223.79
827.05	223.78
827.37	223.78
827.69	223.77
828.00	223.77
828.32	223.77
828.64	223.75
828.95	223.80
829.27	223.76
829.58	223.75
829.90	223.76
830.22	223.76
830.53	223.74
830.85	223.72
831.17	223.69
831.48	223.69
831.80	223.69
832.11	223.67
832.43	223.65
832.75	223.64
833.06	223.70
833.38	223.67
833.69	223.66
834.01	223.67
834.32	223.67
834.64	223.66
834.96	223.65
835.27	223.65
835.59	223.61
835.90	223.60
836.22	223.60
836.53	223.57
836.85	223.55
837.16	223.66
837.48	223.66
837.79	223.70
838.11	223.70
838.42	223.69
838.74	223.70
839.05	223.71
839.37	223.70
839.68	223.63
840.00	223.63
840.31	223.64
840.63	223.63
840.94	223.62
841.26	223.60
841.57	223.60
841.88	223.61
842.20	223.59
842.51	223.57
842.83	223.57
843.14	223.66
843.46	223.66
843.77	223.59
844.08	223.58
844.40	223.54
844.71	223.53
845.03	223.52
845.34	223.52
845.65	223.50
845.97	223.51
846.28	223.52
846.60	223.53
846.91	223.51
847.22	223.50
847.54	223.52
847.85	223.52
848.16	223.52
848.48	223.49
848.79	223.54
849.10	223.55
849.42	223.55
849.73	223.46
850.04	223.45
850.36	223.42
850.67	223.44
850.98	223.45
851.30	223.46
851.61	223.45
851.92	223.44
852.23	223.48
852.55	223.48
852.86	223.48
853.17	223.47
853.49	223.48
853.80	223.51
854.11	223.52
854.42	223.53
854.74	223.52
855.05	223.52
855.36	223.47
855.67	223.47
855.99	223.47
856.30	223.60
856.61	223.60
856.92	223.60
857.23	223.60
857.55	223.58
857.86	223.57
858.17	223.59
858.48	223.57
858.79	223.54
859.11	223.54
859.42	223.54
859.73	223.52
860.04	223.53
860.35	223.49
860.66	223.45
860.98	223.45
861.29	223.46
861.60	223.44
861.91	223.46
862.22	223.45
862.53	223.43
862.84	223.31
863.16	223.33
863.47	223.31
863.78	223.30
864.09	223.31
864.40	223.31
864.71	223.31
865.02	223.32
865.33	223.31
865.64	223.28
865.95	223.28
866.27	223.35
866.58	223.34
866.89	223.35
867.20	223.34
867.51	223.32
867.82	223.32
868.13	223.35
868.44	223.32
868.75	223.34
869.06	223.34
869.37	223.35
869.68	223.32
869.99	223.34
870.30	223.34
870.61	223.36
870.92	223.34
871.23	223.32
871.54	223.34
871.85	223.36
872.16	223.38
872.47	223.36
872.78	223.31
873.09	223.31
873.40	223.31
873.71	223.31
874.02	223.34
874.33	223.33
874.64	223.31
874.95	223.33
875.26	223.30
875.56	223.31
875.87	223.30
876.18	223.29
876.49	223.39
876.80	223.38
877.11	223.36
877.42	223.37
877.73	223.38
878.04	223.35
878.35	223.35
878.66	223.35
878.96	223.35
879.27	223.35
879.58	223.34
879.89	223.33
880.20	223.37
880.51	223.35
880.82	223.35
881.12	223.35
881.43	223.34
881.74	223.33
882.05	223.33
882.36	223.34
882.67	223.35
882.97	223.23
883.28	223.22
883.59	223.22
883.90	223.23
884.21	223.24
884.51	223.24
884.82	223.22
885.13	223.22
885.44	223.22
885.74	223.22
886.05	223.21
886.36	223.22
886.67	223.19
886.98	223.24
887.28	223.26
887.59	223.25
887.90	223.26
888.20	223.25
888.51	223.27
888.82	223.24
889.13	223.24
889.43	223.33
889.74	223.34
890.05	223.34
890.35	223.32
890.66	223.31
890.97	223.31
891.28	223.29
891.58	223.29
891.89	223.29
892.20	223.28
892.50	223.27
892.81	223.26
893.12	223.25
893.42	223.20
893.73	223.20
894.04	223.20
894.34	223.20
894.65	223.20
894.95	223.19
895.26	223.20
895.57	223.25
895.87	223.15
896.18	223.17
896.48	223.18
896.79	223.18
897.10	223.19
897.40	223.19
897.71	223.22
898.01	223.20
898.32	223.22
898.63	223.22
898.93	223.23
899.24	223.23
899.54	223.24
899.85	223.23
900.15	223.21
900.46	223.22
900.76	223.23
901.07	223.22
901.38	223.21
901.68	223.22
901.99	223.16
902.29	223.17
902.60	223.15
902.90	223.14
903.21	223.13
903.51	223.12
903.82	223.14
904.12	223.13
904.43	223.14
904.73	223.13
905.03	223.12
905.34	223.22
905.64	223.21
905.95	223.21
906.25	223.21
906.56	223.22
906.86	223.21
907.17	223.19
907.47	223.20
907.77	223.19
908.08	223.17
908.38	223.18
908.69	223.19
908.99	223.20
909.30	223.20
909.60	223.21
909.90	223.21
910.21	223.18
910.51	223.17
910.81	223.16
911.12	223.17
911.42	223.17
911.73	223.06
912.03	223.07
912.33	223.09
912.64	223.09
912.94	223.07
913.24	223.05
913.55	223.04
913.85	223.03
914.15	223.06
914.46	223.07
914.76	223.06
915.06	223.05
915.37	223.02
915.67	223.02
915.97	223.02
916.27	223.01
916.58	223.01
916.88	223.01
917.18	223.00
917.49	223.06
917.79	223.06
918.09	223.07
918.39	223.10
918.70	223.09
919.00	223.09
919.30	223.14
919.60	223.14
919.91	223.13
920.21	223.13
920.51	223.11
920.81	223.10
921.12	223.12
921.42	223.12
921.72	223.12
922.02	223.13
922.32	223.14
922.63	223.14
922.93	223.20
923.23	223.21
923.53	223.20
923.83	223.13
924.13	223.13
924.44	223.14
924.74	223.14
925.04	223.17
925.34	223.17
925.64	223.13
925.94	223.14
926.24	223.20
926.55	223.20
926.85	223.21
927.15	223.22
927.45	223.21
927.75	223.20
928.05	223.21
928.35	223.20
928.65	223.22
928.95	223.22
929.26	223.17
929.56	223.19
929.86	223.20
930.16	223.20
930.46	223.19
930.76	223.19
931.06	223.14
931.36	223.11
931.66	223.12
931.96	223.13
932.26	223.13
932.56	223.09
932.86	223.09
933.16	223.09
933.46	223.09
933.76	223.08
934.06	223.10
934.36	223.14
934.66	223.14
934.96	223.12
935.26	223.13
935.56	223.14
935.86	223.11
936.16	223.10
936.46	223.09
936.76	223.08
937.06	223.06
937.36	223.08
937.66	223.08
937.96	223.08
938.26	223.06
938.56	223.05
938.86	223.06
939.16	223.08
939.46	223.08
939.76	223.09
940.06	223.08
940.35	223.05
940.65	223.00
940.95	223.01
941.25	222.98
941.55	222.97
941.85	222.97
942.15	223.01
942.45	223.03
942.75	223.03
943.04	223.04
943.34	223.07
943.64	223.05
943.94	223.03
944.24	223.03
944.54	223.03
944.84	223.04
945.13	223.03
945.43	223.01
945.73	223.00
946.03	223.00
946.33	222.99
946.62	222.98
946.92	222.98
947.22	222.98
947.52	222.99
947.82	223.01
948.11	222.99
948.41	222.96
948.71	222.94
949.01	222.94
949.31	222.93
949.60	222.91
949.90	222.93
950.20	222.94
950.50	222.92
950.79	222.92
951.09	222.93
951.39	222.93
951.69	222.91
951.98	222.93
952.28	222.94
952.58	222.93
952.87	222.94
953.17	222.95
953.47	222.93
953.76	222.94
954.06	222.92
954.36	222.91
954.66	222.91
954.95	222.93
955.25	222.94
955.55	222.95
955.84	222.94
956.14	222.95
956.44	222.96
956.73	222.95
957.03	222.96
957.32	222.96
957.62	222.96
957.92	222.98
958.21	222.96
958.51	223.07
958.81	223.08
959.10	223.08
959.40	223.11
959.69	223.11
959.99	223.12
960.29	223.12
960.58	223.11
960.88	223.15
961.17	223.13
961.47	223.14
961.76	223.13
962.06	223.14
962.36	223.13
962.65	223.12
962.95	223.12
963.24	223.11
963.54	223.12
963.83	223.12
964.13	223.11
964.42	223.11
964.72	223.02
965.01	223.02
965.31	223.03
965.60	222.99
965.90	223.06
966.19	223.04
966.49	223.05
966.78	223.06
967.08	223.04
967.37	223.05
967.67	223.03
967.96	223.05
968.26	223.05
968.55	223.06
968.85	223.07
969.14	223.07
969.43	223.07
969.73	223.05
970.02	223.05
970.32	223.04
970.61	223.02
970.91	223.00
971.20	222.99
971.49	222.98
971.79	223.00
972.08	222.93
972.38	222.94
972.67	222.93
972.96	222.95
973.26	222.94
973.55	222.97
973.85	222.96
974.14	222.94
974.43	222.96
974.73	222.93
975.02	222.92
975.31	222.93
975.61	222.93
975.90	222.93
976.19	222.92
976.49	222.93
976.78	222.95
977.07	222.94
977.37	222.96
977.66	222.97
977.95	222.94
978.24	222.96
978.54	222.97
978.83	222.96
979.12	222.96
979.42	222.95
979.71	222.93
980.00	222.93
980.29	222.94
980.59	222.92
980.88	222.95
981.17	222.96
981.46	222.95
981.76	222.95
982.05	222.98
982.34	222.98
982.63	222.98
982.93	222.97
983.22	223.00
983.51	223.00
983.80	223.01
984.09	223.03
984.39	223.02
984.68	223.00
984.97	223.01
985.26	223.00
985.55	223.01
985.85	222.99
986.14	223.01
986.43	223.02
986.72	223.01
987.01	222.99
987.30	222.98
987.59	222.97
987.89	222.98
988.18	222.95
988.47	222.95
988.76	222.94
989.05	222.93
989.34	222.91
989.63	222.93
989.92	222.91
990.22	222.91
990.51	222.90
990.80	222.89
991.09	222.90
991.38	222.91
991.67	222.91
991.96	222.90
992.25	222.90
992.54	222.87
992.83	222.87
993.12	222.86
993.41	222.88
993.70	222.92
993.99	222.93
994.28	222.95
994.58	222.96
994.87	222.95
995.16	222.94
995.45	222.94
995.74	222.91
996.03	222.93
996.32	222.95
996.61	222.97
996.90	222.97
997.19	222.96
997.48	222.96
997.77	222.95
998.06	222.95
998.34	222.95
998.63	222.96
998.92	222.96
999.21	222.98
999.50	222.97
999.79	222.93
1000.08	222.94
1000.37	222.94
1000.66	222.92
1000.95	222.96
1001.24	222.97
1001.53	222.99
1001.82	222.98
1002.11	222.96
1002.40	222.96
1002.68	222.99
1002.97	223.07
1003.26	223.06
1003.55	223.05
1003.84	223.06
1004.13	223.10
1004.42	223.09
1004.71	223.09
1004.99	223.10
1005.28	223.12
1005.57	223.12
1005.86	223.10
1006.15	223.09
1006.44	223.08
1006.72	223.09
1007.01	223.07
1007.30	223.08
1007.59	223.06
1007.88	223.07
1008.17	223.07
1008.45	223.05
1008.74	223.02
1009.03	222.96
1009.32	222.97
1009.60	222.97
1009.89	222.95
1010.18	222.91
1010.47	222.90
1010.76	222.90
1011.04	222.90
1011.33	222.89
1011.62	222.90
1011.91	222.91
1012.19	222.91
1012.48	222.91
1012.77	222.91
1013.05	222.95
1013.34	222.94
1013.63	222.93
1013.92	222.94
1014.20	222.93
1014.49	222.93
1014.78	222.94
1015.06	222.91
1015.35	222.90
1015.64	222.90
1015.92	222.93
1016.21	222.93
1016.50	222.95
1016.78	222.95
1017.07	222.95
1017.36	222.93
1017.64	222.92
1017.93	222.93
1018.22	222.92
1018.50	222.91
1018.79	222.90
1019.08	222.86
1019.36	222.87
1019.65	222.86
1019.93	222.89
1020.22	222.90
1020.51	222.96
1020.79	222.94
1021.08	222.76
1021.36	222.68
1021.65	222.84
1021.94	222.73
1022.22	222.96
1022.51	222.71
1022.79	223.40
1023.08	223.05
1023.36	224.18
1023.65	222.59
>>>>>End Processed Spectral Data<<<<<
