SpectraSuite Data File
++++++++++++++++++++++++++++++++++++
Date: Wed Sep 30 14:26:48 EDT 2015
User: lab3
Dark Spectrum Present: No
Reference Spectrum Present: No
Number of Sampled Component Spectra: 1
Spectrometers: USB2E7196
Integration Time (usec): 36000 (USB2E7196)
Spectra Averaged: 1500 (USB2E7196)
Boxcar Smoothing: 10 (USB2E7196)
Correct for Electrical Dark: No (USB2E7196)
Strobe/Lamp Enabled: No (USB2E7196)
Correct for Detector Non-linearity: No (USB2E7196)
Correct for Stray Light: No (USB2E7196)
Number of Pixels in Processed Spectrum: 2048
>>>>>Begin Processed Spectral Data<<<<<
339.09	0.00
339.48	211.28
339.86	212.63
340.24	214.14
340.63	215.46
341.01	218.40
341.39	218.20
341.78	219.41
342.16	220.76
342.54	221.16
342.93	209.77
343.31	220.37
343.69	220.91
344.07	221.37
344.46	221.79
344.84	222.18
345.22	222.42
345.60	222.68
345.99	222.88
346.37	223.01
346.75	223.12
347.13	223.20
347.52	223.26
347.90	223.34
348.28	223.38
348.66	223.42
349.05	223.42
349.43	223.47
349.81	223.52
350.19	223.58
350.57	223.64
350.96	223.72
351.34	223.81
351.72	223.90
352.10	224.01
352.48	224.09
352.87	224.14
353.25	224.20
353.63	224.26
354.01	224.32
354.39	224.40
354.77	224.47
355.15	224.57
355.54	224.62
355.92	224.65
356.30	224.73
356.68	224.87
357.06	224.95
357.44	225.00
357.82	225.06
358.20	225.17
358.58	225.22
358.97	225.28
359.35	225.36
359.73	225.43
360.11	225.48
360.49	225.53
360.87	225.57
361.25	225.63
361.63	225.71
362.01	225.76
362.39	225.79
362.77	225.84
363.15	225.87
363.53	225.91
363.91	225.94
364.29	225.96
364.67	225.88
365.05	225.90
365.43	225.93
365.81	225.97
366.19	225.97
366.57	226.02
366.95	226.03
367.33	226.01
367.71	226.00
368.09	226.03
368.47	226.02
368.85	226.02
369.23	226.03
369.61	225.98
369.99	225.99
370.37	225.99
370.75	226.04
371.13	226.00
371.51	225.96
371.89	225.95
372.27	225.92
372.65	225.90
373.03	225.86
373.41	225.81
373.78	225.76
374.16	225.67
374.54	225.59
374.92	225.53
375.30	225.49
375.68	225.42
376.06	225.37
376.44	225.32
376.82	225.28
377.19	225.23
377.57	225.18
377.95	225.10
378.33	225.04
378.71	224.91
379.09	224.87
379.47	224.84
379.84	224.76
380.22	224.70
380.60	224.63
380.98	224.57
381.36	224.52
381.73	224.46
382.11	224.43
382.49	224.40
382.87	224.33
383.25	224.28
383.62	224.35
384.00	224.28
384.38	224.24
384.76	224.21
385.13	224.20
385.51	224.16
385.89	224.10
386.27	224.05
386.64	224.02
387.02	223.98
387.40	223.92
387.78	223.90
388.15	223.87
388.53	223.84
388.91	223.82
389.29	223.78
389.66	223.77
390.04	223.73
390.42	223.72
390.79	223.71
391.17	223.69
391.55	223.57
391.92	223.57
392.30	223.56
392.68	223.53
393.05	223.51
393.43	223.50
393.81	223.50
394.18	223.49
394.56	223.49
394.94	223.52
395.31	223.52
395.69	223.57
396.06	223.59
396.44	223.60
396.82	223.62
397.19	223.68
397.57	223.69
397.95	223.73
398.32	223.72
398.70	223.76
399.07	223.82
399.45	223.84
399.82	223.88
400.20	223.92
400.58	223.97
400.95	223.98
401.33	224.06
401.70	224.20
402.08	224.29
402.45	224.37
402.83	224.47
403.20	224.57
403.58	224.65
403.95	224.78
404.33	224.92
404.71	225.04
405.08	225.22
405.46	225.36
405.83	225.52
406.21	225.71
406.58	225.90
406.96	226.09
407.33	226.31
407.70	226.55
408.08	226.88
408.45	227.16
408.83	227.47
409.20	227.75
409.58	228.00
409.95	228.33
410.33	228.70
410.70	229.05
411.08	229.46
411.45	229.89
411.82	230.32
412.20	230.82
412.57	231.42
412.95	231.90
413.32	232.53
413.69	233.16
414.07	233.83
414.44	234.56
414.82	235.30
415.19	236.18
415.56	237.08
415.94	238.00
416.31	239.04
416.68	240.07
417.06	241.28
417.43	242.40
417.81	243.71
418.18	245.04
418.55	246.49
418.93	248.01
419.30	249.59
419.67	251.27
420.04	253.00
420.42	254.81
420.79	256.89
421.16	258.99
421.54	261.13
421.91	263.36
422.28	265.68
422.66	268.18
423.03	270.58
423.40	273.09
423.77	275.78
424.15	278.55
424.52	281.43
424.89	284.54
425.26	287.64
425.64	290.51
426.01	293.75
426.38	297.07
426.75	300.48
427.13	303.99
427.50	307.66
427.87	311.47
428.24	315.32
428.61	319.02
428.99	323.00
429.36	327.36
429.73	331.54
430.10	335.72
430.47	339.98
430.85	344.36
431.22	349.01
431.59	353.79
431.96	358.48
432.33	363.67
432.70	368.60
433.08	374.42
433.45	379.89
433.82	385.30
434.19	391.34
434.56	397.27
434.93	403.00
435.30	408.65
435.68	415.00
436.05	421.20
436.42	427.42
436.79	433.07
437.16	439.21
437.53	445.75
437.90	452.30
438.27	458.70
438.64	465.59
439.01	471.85
439.38	477.56
439.75	483.04
440.13	489.25
440.50	495.16
440.87	499.84
441.24	504.99
441.61	510.59
441.98	514.72
442.35	519.64
442.72	524.68
443.09	529.44
443.46	532.48
443.83	534.77
444.20	536.64
444.57	539.39
444.94	540.99
445.31	542.66
445.68	544.08
446.05	545.11
446.42	544.88
446.79	544.57
447.16	544.29
447.53	544.08
447.90	542.17
448.27	540.41
448.64	537.64
449.01	535.81
449.37	531.90
449.74	528.33
450.11	523.71
450.48	518.64
450.85	513.57
451.22	509.27
451.59	504.97
451.96	501.12
452.33	495.52
452.70	490.50
453.07	484.41
453.43	478.32
453.80	472.41
454.17	466.71
454.54	461.42
454.91	455.46
455.28	449.84
455.65	444.58
456.02	438.96
456.38	434.45
456.75	428.59
457.12	423.91
457.49	419.17
457.86	414.66
458.23	410.69
458.59	406.30
458.96	401.82
459.33	397.91
459.70	393.91
460.07	390.89
460.43	387.32
460.80	383.95
461.17	381.03
461.54	377.89
461.91	374.91
462.27	371.89
462.64	369.42
463.01	366.58
463.38	363.73
463.74	361.14
464.11	358.84
464.48	356.77
464.85	354.52
465.21	352.76
465.58	350.86
465.95	348.67
466.32	346.93
466.68	345.22
467.05	343.50
467.42	341.81
467.78	340.00
468.15	338.32
468.52	337.08
468.88	335.44
469.25	333.94
469.62	332.76
469.98	331.49
470.35	330.35
470.72	329.33
471.08	328.29
471.45	327.44
471.82	326.47
472.18	325.46
472.55	324.81
472.92	324.04
473.28	323.42
473.65	322.76
474.02	322.15
474.38	321.64
474.75	321.37
475.11	320.96
475.48	320.80
475.85	320.62
476.21	320.58
476.58	320.59
476.94	320.80
477.31	320.91
477.67	321.04
478.04	321.29
478.41	321.63
478.77	322.07
479.14	322.38
479.50	322.94
479.87	323.63
480.23	324.33
480.60	325.01
480.96	325.72
481.33	326.71
481.69	327.68
482.06	328.63
482.42	329.54
482.79	330.67
483.15	331.96
483.52	333.41
483.88	334.79
484.25	336.26
484.61	337.79
484.98	339.43
485.34	341.28
485.71	343.19
486.07	345.22
486.44	347.27
486.80	349.53
487.17	351.84
487.53	354.35
487.90	356.94
488.26	359.76
488.62	362.75
488.99	365.76
489.35	368.90
489.72	372.32
490.08	375.87
490.44	379.51
490.81	383.33
491.17	387.23
491.54	391.40
491.90	395.64
492.26	400.19
492.63	405.01
492.99	410.03
493.36	415.19
493.72	420.63
494.08	426.23
494.45	432.12
494.81	438.25
495.17	444.46
495.54	451.10
495.90	458.08
496.26	465.15
496.63	472.41
496.99	479.99
497.35	487.86
497.72	496.02
498.08	504.39
498.44	512.98
498.80	522.10
499.17	531.54
499.53	541.27
499.89	551.27
500.26	561.43
500.62	571.81
500.98	582.85
501.34	594.02
501.71	605.68
502.07	617.56
502.43	629.87
502.79	642.62
503.16	655.68
503.52	668.85
503.88	682.50
504.24	696.55
504.60	710.79
504.97	725.47
505.33	740.51
505.69	756.28
506.05	772.35
506.41	788.57
506.78	805.05
507.14	822.09
507.50	839.44
507.86	857.15
508.22	875.15
508.59	893.25
508.95	911.93
509.31	931.11
509.67	951.05
510.03	971.08
510.39	991.24
510.75	1011.59
511.12	1032.27
511.48	1053.15
511.84	1074.35
512.20	1095.78
512.56	1118.05
512.92	1140.45
513.28	1162.83
513.64	1185.47
514.00	1208.47
514.37	1232.00
514.73	1255.48
515.09	1278.81
515.45	1302.33
515.81	1326.11
516.17	1349.99
516.53	1373.74
516.89	1397.30
517.25	1420.84
517.61	1444.59
517.97	1468.67
518.33	1492.72
518.69	1516.94
519.05	1541.39
519.41	1565.84
519.77	1590.69
520.13	1614.80
520.49	1638.90
520.85	1662.97
521.21	1687.05
521.57	1711.68
521.93	1735.47
522.29	1759.72
522.65	1783.80
523.01	1807.90
523.37	1831.43
523.73	1855.60
524.09	1879.52
524.45	1903.48
524.81	1927.24
525.17	1950.58
525.53	1973.60
525.89	1996.53
526.25	2019.45
526.61	2041.02
526.97	2062.98
527.33	2084.61
527.68	2106.25
528.04	2127.58
528.40	2148.74
528.76	2169.53
529.12	2189.72
529.48	2210.49
529.84	2229.21
530.20	2248.50
530.56	2267.16
530.91	2286.55
531.27	2305.26
531.63	2323.33
531.99	2340.91
532.35	2358.10
532.71	2376.06
533.07	2394.17
533.42	2410.70
533.78	2427.67
534.14	2445.16
534.50	2461.66
534.86	2478.73
535.21	2493.57
535.57	2508.41
535.93	2522.82
536.29	2536.64
536.65	2549.91
537.00	2562.01
537.36	2575.16
537.72	2587.07
538.08	2599.04
538.44	2609.59
538.79	2619.58
539.15	2628.60
539.51	2637.66
539.87	2645.62
540.22	2651.17
540.58	2656.91
540.94	2663.26
541.29	2668.59
541.65	2673.64
542.01	2678.39
542.37	2680.97
542.72	2685.33
543.08	2688.62
543.44	2691.52
543.79	2693.83
544.15	2695.60
544.51	2696.98
544.87	2698.35
545.22	2699.08
545.58	2698.71
545.94	2698.44
546.29	2697.09
546.65	2695.95
547.01	2694.61
547.36	2693.74
547.72	2693.23
548.07	2691.46
548.43	2688.24
548.79	2684.57
549.14	2681.04
549.50	2677.60
549.86	2674.24
550.21	2669.45
550.57	2665.11
550.92	2659.65
551.28	2654.12
551.64	2648.49
551.99	2642.97
552.35	2636.24
552.70	2629.88
553.06	2624.37
553.41	2618.31
553.77	2612.19
554.13	2605.94
554.48	2598.36
554.84	2589.89
555.19	2581.40
555.55	2572.29
555.90	2564.41
556.26	2556.76
556.61	2548.05
556.97	2538.04
557.32	2528.16
557.68	2518.44
558.03	2508.39
558.39	2499.31
558.74	2490.78
559.10	2480.99
559.45	2471.10
559.81	2461.63
560.16	2451.57
560.52	2440.95
560.87	2430.76
561.23	2419.93
561.58	2409.73
561.94	2399.45
562.29	2388.71
562.64	2378.47
563.00	2368.38
563.35	2358.12
563.71	2347.01
564.06	2336.27
564.42	2325.89
564.77	2315.30
565.12	2304.72
565.48	2293.62
565.83	2282.03
566.19	2270.36
566.54	2259.25
566.89	2247.25
567.25	2235.17
567.60	2224.20
567.96	2212.67
568.31	2200.15
568.66	2188.19
569.02	2176.31
569.37	2164.92
569.72	2154.32
570.08	2142.60
570.43	2130.65
570.78	2118.39
571.14	2106.25
571.49	2093.62
571.84	2081.27
572.20	2068.08
572.55	2054.97
572.90	2042.48
573.26	2030.28
573.61	2017.13
573.96	2004.42
574.31	1992.11
574.67	1979.91
575.02	1966.59
575.37	1953.34
575.72	1940.43
576.08	1927.51
576.43	1914.18
576.78	1900.73
577.13	1887.01
577.49	1873.72
577.84	1860.64
578.19	1847.54
578.54	1834.15
578.90	1820.65
579.25	1806.82
579.60	1794.26
579.95	1781.71
580.30	1768.96
580.66	1755.69
581.01	1742.54
581.36	1729.06
581.71	1716.10
582.06	1703.21
582.42	1690.57
582.77	1678.06
583.12	1665.81
583.47	1653.81
583.82	1641.31
584.17	1628.14
584.53	1615.34
584.88	1602.70
585.23	1589.87
585.58	1577.20
585.93	1564.85
586.28	1553.10
586.63	1541.31
586.98	1528.92
587.34	1516.72
587.69	1503.95
588.04	1491.75
588.39	1479.91
588.74	1467.84
589.09	1456.12
589.44	1443.68
589.79	1431.47
590.14	1419.45
590.49	1407.32
590.84	1395.28
591.19	1383.95
591.54	1372.67
591.89	1361.07
592.25	1349.97
592.60	1338.58
592.95	1327.49
593.30	1316.33
593.65	1305.30
594.00	1294.40
594.35	1284.04
594.70	1272.91
595.05	1262.67
595.40	1251.96
595.75	1241.18
596.10	1230.99
596.45	1220.48
596.80	1210.68
597.15	1201.00
597.50	1191.26
597.85	1181.93
598.19	1172.53
598.54	1162.76
598.89	1153.63
599.24	1144.84
599.59	1135.90
599.94	1127.54
600.29	1118.89
600.64	1110.31
600.99	1101.08
601.34	1092.37
601.69	1083.46
602.04	1075.41
602.39	1066.97
602.74	1059.15
603.08	1051.50
603.43	1043.59
603.78	1035.60
604.13	1027.71
604.48	1019.62
604.83	1011.78
605.18	1003.76
605.53	995.63
605.87	987.64
606.22	979.91
606.57	971.91
606.92	963.81
607.27	955.89
607.62	948.24
607.96	940.71
608.31	934.16
608.66	927.36
609.01	920.50
609.36	913.66
609.70	906.80
610.05	899.80
610.40	892.86
610.75	885.82
611.10	879.27
611.44	872.45
611.79	865.96
612.14	859.27
612.49	852.49
612.83	846.24
613.18	840.09
613.53	833.98
613.88	827.98
614.22	822.23
614.57	816.27
614.92	810.39
615.27	804.55
615.61	798.26
615.96	792.08
616.31	786.16
616.65	780.00
617.00	774.00
617.35	768.02
617.70	762.19
618.04	756.51
618.39	750.62
618.74	745.07
619.08	739.41
619.43	733.91
619.78	728.49
620.12	722.89
620.47	717.50
620.82	712.10
621.16	706.82
621.51	701.40
621.85	696.06
622.20	690.63
622.55	685.27
622.89	680.04
623.24	674.97
623.59	669.96
623.93	665.22
624.28	660.58
624.62	655.94
624.97	651.22
625.32	646.57
625.66	641.74
626.01	636.94
626.35	632.25
626.70	627.55
627.04	623.15
627.39	618.74
627.73	614.31
628.08	609.97
628.43	605.62
628.77	601.37
629.12	597.16
629.46	593.09
629.81	588.94
630.15	584.87
630.50	580.86
630.84	576.88
631.19	572.99
631.53	569.22
631.88	565.39
632.22	561.53
632.57	557.94
632.91	554.37
633.26	550.79
633.60	547.21
633.95	543.74
634.29	540.19
634.64	536.68
634.98	533.08
635.32	529.60
635.67	526.37
636.01	523.11
636.36	519.83
636.70	516.70
637.05	513.62
637.39	510.52
637.73	507.26
638.08	504.12
638.42	501.01
638.77	497.76
639.11	494.45
639.45	491.28
639.80	488.08
640.14	485.05
640.49	482.04
640.83	478.98
641.17	475.98
641.52	472.98
641.86	469.94
642.20	467.07
642.55	464.07
642.89	461.09
643.23	458.24
643.58	455.61
643.92	452.87
644.26	450.15
644.61	447.50
644.95	444.87
645.29	442.14
645.64	439.35
645.98	436.69
646.32	434.18
646.66	431.67
647.01	429.19
647.35	426.85
647.69	424.37
648.04	421.99
648.38	419.58
648.72	417.22
649.06	414.90
649.41	412.64
649.75	410.40
650.09	408.12
650.43	405.90
650.78	403.64
651.12	401.38
651.46	399.18
651.80	397.07
652.14	395.01
652.49	393.00
652.83	391.04
653.17	389.09
653.51	387.22
653.85	385.39
654.20	383.50
654.54	381.47
654.88	379.57
655.22	377.72
655.56	375.91
655.90	374.15
656.25	372.42
656.59	370.66
656.93	369.02
657.27	367.46
657.61	365.78
657.95	364.16
658.29	362.60
658.64	361.05
658.98	359.40
659.32	357.75
659.66	356.22
660.00	354.69
660.34	353.18
660.68	351.64
661.02	350.04
661.36	348.51
661.70	347.06
662.05	345.64
662.39	344.25
662.73	342.92
663.07	341.63
663.41	340.37
663.75	339.09
664.09	337.82
664.43	336.45
664.77	335.16
665.11	333.81
665.45	332.51
665.79	331.25
666.13	330.05
666.47	328.88
666.81	327.66
667.15	326.40
667.49	325.21
667.83	324.05
668.17	322.94
668.51	321.86
668.85	320.79
669.19	319.75
669.53	318.61
669.87	317.42
670.21	316.30
670.55	315.19
670.89	314.19
671.23	313.13
671.57	312.12
671.91	311.18
672.25	310.28
672.58	309.39
672.92	308.44
673.26	307.55
673.60	306.64
673.94	305.75
674.28	304.92
674.62	304.05
674.96	303.16
675.30	302.33
675.64	301.48
675.97	300.63
676.31	299.76
676.65	298.95
676.99	298.25
677.33	297.41
677.67	296.62
678.01	295.75
678.34	294.95
678.68	294.20
679.02	293.41
679.36	292.62
679.70	291.81
680.04	291.04
680.37	290.28
680.71	289.55
681.05	288.86
681.39	288.14
681.73	287.42
682.06	286.71
682.40	286.02
682.74	285.36
683.08	284.71
683.42	284.04
683.75	283.42
684.09	282.70
684.43	282.06
684.77	281.42
685.10	280.81
685.44	280.18
685.78	279.56
686.12	278.98
686.45	278.38
686.79	277.77
687.13	277.18
687.46	276.55
687.80	275.95
688.14	275.32
688.48	274.75
688.81	274.16
689.15	273.63
689.49	273.04
689.82	272.44
690.16	271.80
690.50	271.23
690.83	270.64
691.17	270.08
691.51	269.54
691.84	269.01
692.18	268.47
692.52	267.92
692.85	267.38
693.19	266.86
693.52	266.34
693.86	265.81
694.20	265.31
694.53	264.81
694.87	264.29
695.21	263.79
695.54	263.28
695.88	262.76
696.21	262.23
696.55	261.76
696.88	261.29
697.22	260.84
697.56	260.40
697.89	259.95
698.23	259.52
698.56	259.08
698.90	258.66
699.23	258.22
699.57	257.81
699.90	257.40
700.24	256.95
700.58	256.55
700.91	256.18
701.25	255.87
701.58	255.53
701.92	255.18
702.25	254.81
702.59	254.42
702.92	254.07
703.26	253.71
703.59	253.34
703.93	253.06
704.26	252.72
704.60	252.36
704.93	251.99
705.26	251.62
705.60	251.29
705.93	250.91
706.27	250.63
706.60	250.34
706.94	250.04
707.27	249.70
707.61	249.36
707.94	249.04
708.27	248.64
708.61	248.28
708.94	247.95
709.28	247.65
709.61	247.35
709.94	247.08
710.28	246.82
710.61	246.57
710.95	246.21
711.28	246.00
711.61	245.72
711.95	245.49
712.28	245.23
712.61	244.96
712.95	244.75
713.28	244.51
713.61	244.23
713.95	243.94
714.28	243.70
714.61	243.45
714.95	243.20
715.28	242.95
715.61	242.73
715.95	242.51
716.28	242.28
716.61	242.09
716.95	241.85
717.28	241.63
717.61	241.40
717.94	241.19
718.28	240.92
718.61	240.73
718.94	240.51
719.27	240.32
719.61	240.13
719.94	239.92
720.27	239.68
720.60	239.50
720.94	239.31
721.27	239.13
721.60	238.98
721.93	238.81
722.27	238.67
722.60	238.49
722.93	238.29
723.26	238.12
723.59	237.92
723.93	237.76
724.26	237.60
724.59	237.43
724.92	237.28
725.25	237.14
725.59	236.97
725.92	236.84
726.25	236.69
726.58	236.54
726.91	236.39
727.24	236.26
727.57	236.10
727.91	235.95
728.24	235.83
728.57	235.67
728.90	235.53
729.23	235.36
729.56	235.28
729.89	235.16
730.22	235.03
730.55	234.90
730.89	234.78
731.22	234.65
731.55	234.52
731.88	234.41
732.21	234.26
732.54	234.15
732.87	234.03
733.20	233.92
733.53	233.80
733.86	233.71
734.19	233.58
734.52	233.50
734.85	233.47
735.18	233.34
735.51	233.28
735.84	233.19
736.17	233.11
736.50	232.96
736.83	232.96
737.16	232.86
737.49	232.78
737.82	232.67
738.15	232.59
738.48	232.51
738.81	232.40
739.14	232.29
739.47	232.19
739.80	232.08
740.13	231.99
740.46	231.88
740.79	231.77
741.12	231.67
741.45	231.56
741.78	231.40
742.11	231.34
742.44	231.23
742.77	231.14
743.10	231.04
743.43	230.94
743.75	230.76
744.08	230.82
744.41	230.73
744.74	230.64
745.07	230.54
745.40	230.48
745.73	230.45
746.06	230.38
746.39	230.33
746.71	230.25
747.04	230.17
747.37	230.09
747.70	230.04
748.03	229.98
748.36	229.94
748.68	229.87
749.01	229.78
749.34	229.70
749.67	229.65
750.00	229.59
750.33	229.61
750.65	229.56
750.98	229.35
751.31	229.30
751.64	229.25
751.97	229.24
752.29	229.17
752.62	229.06
752.95	229.00
753.28	228.92
753.60	228.86
753.93	228.82
754.26	228.78
754.59	228.69
754.91	228.63
755.24	228.55
755.57	228.54
755.90	228.48
756.22	228.42
756.55	228.35
756.88	228.28
757.20	228.15
757.53	228.06
757.86	228.00
758.19	227.95
758.51	227.90
758.84	227.80
759.17	227.74
759.49	227.70
759.82	227.70
760.15	227.67
760.47	227.63
760.80	227.55
761.13	227.51
761.45	227.47
761.78	227.42
762.11	227.38
762.43	227.28
762.76	227.22
763.08	227.19
763.41	227.15
763.74	227.10
764.06	227.05
764.39	227.01
764.71	226.98
765.04	226.92
765.37	226.86
765.69	226.82
766.02	226.79
766.34	226.73
766.67	226.66
767.00	226.63
767.32	226.64
767.65	226.68
767.97	226.64
768.30	226.60
768.62	226.56
768.95	226.51
769.27	226.49
769.60	226.48
769.92	226.43
770.25	226.38
770.57	226.34
770.90	226.30
771.22	226.27
771.55	226.23
771.87	226.20
772.20	226.17
772.52	226.23
772.85	226.31
773.17	226.29
773.50	226.25
773.82	226.20
774.15	226.12
774.47	226.02
774.80	225.99
775.12	225.96
775.45	225.94
775.77	225.92
776.09	225.90
776.42	225.87
776.74	225.87
777.07	225.84
777.39	225.83
777.72	225.80
778.04	225.78
778.36	225.76
778.69	225.74
779.01	225.74
779.33	225.62
779.66	225.47
779.98	225.44
780.31	225.42
780.63	225.44
780.95	225.43
781.28	225.41
781.60	225.39
781.92	225.36
782.25	225.34
782.57	225.32
782.89	225.29
783.22	225.25
783.54	225.22
783.86	225.20
784.19	225.18
784.51	225.19
784.83	225.16
785.16	225.14
785.48	225.13
785.80	225.11
786.12	225.10
786.45	225.10
786.77	225.09
787.09	225.07
787.42	225.01
787.74	225.00
788.06	224.99
788.38	224.97
788.71	224.95
789.03	224.93
789.35	224.93
789.67	224.90
789.99	224.89
790.32	224.86
790.64	224.87
790.96	224.95
791.28	224.90
791.61	224.89
791.93	224.87
792.25	224.84
792.57	224.89
792.89	224.86
793.21	224.84
793.54	224.81
793.86	224.79
794.18	224.78
794.50	224.74
794.82	224.72
795.14	224.72
795.47	224.72
795.79	224.71
796.11	224.68
796.43	224.66
796.75	224.64
797.07	224.64
797.39	224.61
797.71	224.51
798.04	224.50
798.36	224.48
798.68	224.47
799.00	224.47
799.32	224.41
799.64	224.41
799.96	224.40
800.28	224.41
800.60	224.39
800.92	224.39
801.24	224.38
801.56	224.38
801.89	224.35
802.21	224.34
802.53	224.32
802.85	224.33
803.17	224.37
803.49	224.34
803.81	224.32
804.13	224.30
804.45	224.28
804.77	224.28
805.09	224.27
805.41	224.25
805.73	224.22
806.05	224.18
806.37	224.18
806.69	224.16
807.01	224.13
807.33	224.13
807.65	224.08
807.97	224.12
808.28	224.10
808.60	224.10
808.92	224.08
809.24	224.13
809.56	224.11
809.88	224.06
810.20	224.07
810.52	224.10
810.84	224.09
811.16	224.07
811.48	224.06
811.80	224.10
812.12	224.09
812.43	224.11
812.75	224.11
813.07	224.10
813.39	224.10
813.71	224.09
814.03	224.08
814.35	224.09
814.67	224.04
814.98	224.03
815.30	224.02
815.62	224.00
815.94	223.94
816.26	223.94
816.58	223.92
816.89	223.91
817.21	223.88
817.53	223.87
817.85	223.88
818.17	223.88
818.48	223.82
818.80	223.84
819.12	223.82
819.44	223.80
819.76	223.77
820.07	223.76
820.39	223.76
820.71	223.76
821.03	223.76
821.34	223.75
821.66	223.77
821.98	223.77
822.30	223.77
822.61	223.83
822.93	223.80
823.25	223.80
823.57	223.78
823.88	223.79
824.20	223.79
824.52	223.81
824.83	223.80
825.15	223.79
825.47	223.78
825.79	223.78
826.10	223.77
826.42	223.77
826.74	223.78
827.05	223.77
827.37	223.77
827.69	223.75
828.00	223.75
828.32	223.74
828.64	223.73
828.95	223.78
829.27	223.75
829.58	223.75
829.90	223.77
830.22	223.77
830.53	223.76
830.85	223.74
831.17	223.70
831.48	223.70
831.80	223.71
832.11	223.71
832.43	223.70
832.75	223.69
833.06	223.75
833.38	223.72
833.69	223.71
834.01	223.72
834.32	223.71
834.64	223.70
834.96	223.70
835.27	223.70
835.59	223.66
835.90	223.65
836.22	223.65
836.53	223.62
836.85	223.61
837.16	223.70
837.48	223.70
837.79	223.73
838.11	223.73
838.42	223.71
838.74	223.72
839.05	223.71
839.37	223.71
839.68	223.65
840.00	223.64
840.31	223.65
840.63	223.64
840.94	223.63
841.26	223.61
841.57	223.61
841.88	223.61
842.20	223.59
842.51	223.57
842.83	223.57
843.14	223.66
843.46	223.65
843.77	223.60
844.08	223.59
844.40	223.56
844.71	223.56
845.03	223.54
845.34	223.53
845.65	223.52
845.97	223.51
846.28	223.52
846.60	223.53
846.91	223.51
847.22	223.51
847.54	223.53
847.85	223.54
848.16	223.53
848.48	223.50
848.79	223.54
849.10	223.56
849.42	223.57
849.73	223.47
850.04	223.47
850.36	223.43
850.67	223.46
850.98	223.46
851.30	223.46
851.61	223.46
851.92	223.46
852.23	223.49
852.55	223.50
852.86	223.50
853.17	223.51
853.49	223.52
853.80	223.54
854.11	223.55
854.42	223.56
854.74	223.55
855.05	223.55
855.36	223.50
855.67	223.49
855.99	223.49
856.30	223.60
856.61	223.60
856.92	223.61
857.23	223.60
857.55	223.60
857.86	223.59
858.17	223.60
858.48	223.59
858.79	223.57
859.11	223.57
859.42	223.56
859.73	223.54
860.04	223.54
860.35	223.50
860.66	223.47
860.98	223.46
861.29	223.47
861.60	223.46
861.91	223.48
862.22	223.47
862.53	223.45
862.84	223.33
863.16	223.35
863.47	223.32
863.78	223.31
864.09	223.32
864.40	223.32
864.71	223.32
865.02	223.33
865.33	223.31
865.64	223.29
865.95	223.29
866.27	223.35
866.58	223.33
866.89	223.34
867.20	223.33
867.51	223.31
867.82	223.31
868.13	223.35
868.44	223.31
868.75	223.32
869.06	223.32
869.37	223.34
869.68	223.32
869.99	223.34
870.30	223.34
870.61	223.34
870.92	223.34
871.23	223.33
871.54	223.33
871.85	223.36
872.16	223.36
872.47	223.36
872.78	223.30
873.09	223.32
873.40	223.31
873.71	223.32
874.02	223.33
874.33	223.32
874.64	223.28
874.95	223.31
875.26	223.29
875.56	223.29
875.87	223.28
876.18	223.27
876.49	223.36
876.80	223.35
877.11	223.33
877.42	223.33
877.73	223.32
878.04	223.30
878.35	223.29
878.66	223.29
878.96	223.29
879.27	223.28
879.58	223.27
879.89	223.27
880.20	223.30
880.51	223.28
880.82	223.29
881.12	223.29
881.43	223.26
881.74	223.25
882.05	223.24
882.36	223.25
882.67	223.26
882.97	223.15
883.28	223.15
883.59	223.15
883.90	223.16
884.21	223.19
884.51	223.19
884.82	223.18
885.13	223.19
885.44	223.19
885.74	223.18
886.05	223.17
886.36	223.17
886.67	223.14
886.98	223.20
887.28	223.20
887.59	223.21
887.90	223.22
888.20	223.22
888.51	223.26
888.82	223.24
889.13	223.26
889.43	223.35
889.74	223.34
890.05	223.35
890.35	223.34
890.66	223.31
890.97	223.30
891.28	223.30
891.58	223.30
891.89	223.30
892.20	223.29
892.50	223.29
892.81	223.29
893.12	223.29
893.42	223.24
893.73	223.26
894.04	223.25
894.34	223.26
894.65	223.26
894.95	223.25
895.26	223.24
895.57	223.28
895.87	223.17
896.18	223.20
896.48	223.20
896.79	223.20
897.10	223.22
897.40	223.22
897.71	223.23
898.01	223.23
898.32	223.25
898.63	223.25
898.93	223.25
899.24	223.25
899.54	223.25
899.85	223.25
900.15	223.23
900.46	223.23
900.76	223.24
901.07	223.23
901.38	223.22
901.68	223.24
901.99	223.19
902.29	223.20
902.60	223.19
902.90	223.18
903.21	223.17
903.51	223.16
903.82	223.19
904.12	223.18
904.43	223.19
904.73	223.17
905.03	223.18
905.34	223.27
905.64	223.26
905.95	223.26
906.25	223.26
906.56	223.26
906.86	223.26
907.17	223.24
907.47	223.25
907.77	223.24
908.08	223.21
908.38	223.22
908.69	223.22
908.99	223.23
909.30	223.24
909.60	223.24
909.90	223.24
910.21	223.22
910.51	223.21
910.81	223.21
911.12	223.22
911.42	223.22
911.73	223.11
912.03	223.12
912.33	223.14
912.64	223.14
912.94	223.12
913.24	223.10
913.55	223.10
913.85	223.10
914.15	223.11
914.46	223.13
914.76	223.12
915.06	223.11
915.37	223.09
915.67	223.08
915.97	223.08
916.27	223.05
916.58	223.05
916.88	223.05
917.18	223.03
917.49	223.09
917.79	223.09
918.09	223.10
918.39	223.12
918.70	223.10
919.00	223.10
919.30	223.16
919.60	223.15
919.91	223.14
920.21	223.14
920.51	223.13
920.81	223.12
921.12	223.14
921.42	223.12
921.72	223.12
922.02	223.14
922.32	223.16
922.63	223.16
922.93	223.22
923.23	223.22
923.53	223.21
923.83	223.14
924.13	223.15
924.44	223.15
924.74	223.17
925.04	223.19
925.34	223.19
925.64	223.15
925.94	223.15
926.24	223.20
926.55	223.20
926.85	223.21
927.15	223.20
927.45	223.20
927.75	223.20
928.05	223.21
928.35	223.19
928.65	223.20
928.95	223.21
929.26	223.16
929.56	223.18
929.86	223.19
930.16	223.18
930.46	223.16
930.76	223.16
931.06	223.11
931.36	223.08
931.66	223.10
931.96	223.11
932.26	223.12
932.56	223.07
932.86	223.07
933.16	223.08
933.46	223.06
933.76	223.05
934.06	223.08
934.36	223.11
934.66	223.11
934.96	223.09
935.26	223.09
935.56	223.10
935.86	223.08
936.16	223.06
936.46	223.06
936.76	223.05
937.06	223.03
937.36	223.04
937.66	223.05
937.96	223.04
938.26	223.02
938.56	223.00
938.86	223.01
939.16	223.03
939.46	223.03
939.76	223.05
940.06	223.04
940.35	223.02
940.65	222.97
940.95	222.98
941.25	222.96
941.55	222.95
941.85	222.93
942.15	222.95
942.45	222.99
942.75	223.00
943.04	223.01
943.34	223.04
943.64	223.03
943.94	223.02
944.24	223.02
944.54	223.02
944.84	223.01
945.13	223.00
945.43	222.98
945.73	222.98
946.03	222.96
946.33	222.95
946.62	222.93
946.92	222.93
947.22	222.94
947.52	222.95
947.82	222.96
948.11	222.95
948.41	222.94
948.71	222.91
949.01	222.91
949.31	222.90
949.60	222.88
949.90	222.89
950.20	222.89
950.50	222.88
950.79	222.89
951.09	222.90
951.39	222.91
951.69	222.89
951.98	222.92
952.28	222.94
952.58	222.94
952.87	222.95
953.17	222.96
953.47	222.95
953.76	222.94
954.06	222.92
954.36	222.91
954.66	222.91
954.95	222.94
955.25	222.95
955.55	222.95
955.84	222.94
956.14	222.94
956.44	222.96
956.73	222.94
957.03	222.95
957.32	222.96
957.62	222.95
957.92	222.97
958.21	222.96
958.51	223.06
958.81	223.08
959.10	223.09
959.40	223.13
959.69	223.13
959.99	223.14
960.29	223.15
960.58	223.14
960.88	223.19
961.17	223.17
961.47	223.18
961.76	223.18
962.06	223.20
962.36	223.19
962.65	223.20
962.95	223.21
963.24	223.19
963.54	223.18
963.83	223.19
964.13	223.18
964.42	223.16
964.72	223.08
965.01	223.08
965.31	223.06
965.60	223.03
965.90	223.09
966.19	223.07
966.49	223.08
966.78	223.08
967.08	223.06
967.37	223.06
967.67	223.03
967.96	223.05
968.26	223.04
968.55	223.05
968.85	223.04
969.14	223.04
969.43	223.05
969.73	223.04
970.02	223.04
970.32	223.04
970.61	223.02
970.91	222.99
971.20	222.97
971.49	222.97
971.79	222.99
972.08	222.91
972.38	222.92
972.67	222.92
972.96	222.94
973.26	222.92
973.55	222.96
973.85	222.96
974.14	222.95
974.43	222.96
974.73	222.93
975.02	222.92
975.31	222.92
975.61	222.93
975.90	222.92
976.19	222.91
976.49	222.91
976.78	222.92
977.07	222.93
977.37	222.94
977.66	222.94
977.95	222.91
978.24	222.92
978.54	222.94
978.83	222.93
979.12	222.91
979.42	222.92
979.71	222.89
980.00	222.89
980.29	222.89
980.59	222.87
980.88	222.90
981.17	222.89
981.46	222.89
981.76	222.88
982.05	222.91
982.34	222.91
982.63	222.92
982.93	222.93
983.22	222.95
983.51	222.96
983.80	222.97
984.09	222.99
984.39	222.99
984.68	222.97
984.97	222.98
985.26	222.97
985.55	222.98
985.85	222.97
986.14	222.99
986.43	223.00
986.72	222.99
987.01	222.96
987.30	222.96
987.59	222.95
987.89	222.95
988.18	222.92
988.47	222.91
988.76	222.90
989.05	222.89
989.34	222.86
989.63	222.90
989.92	222.88
990.22	222.87
990.51	222.86
990.80	222.85
991.09	222.86
991.38	222.88
991.67	222.86
991.96	222.85
992.25	222.85
992.54	222.83
992.83	222.83
993.12	222.83
993.41	222.85
993.70	222.90
993.99	222.92
994.28	222.94
994.58	222.95
994.87	222.94
995.16	222.94
995.45	222.94
995.74	222.89
996.03	222.91
996.32	222.92
996.61	222.94
996.90	222.93
997.19	222.92
997.48	222.92
997.77	222.90
998.06	222.91
998.34	222.90
998.63	222.90
998.92	222.90
999.21	222.92
999.50	222.91
999.79	222.86
1000.08	222.86
1000.37	222.86
1000.66	222.85
1000.95	222.88
1001.24	222.89
1001.53	222.91
1001.82	222.91
1002.11	222.88
1002.40	222.90
1002.68	222.92
1002.97	223.00
1003.26	222.99
1003.55	222.98
1003.84	223.00
1004.13	223.04
1004.42	223.04
1004.71	223.04
1004.99	223.03
1005.28	223.06
1005.57	223.06
1005.86	223.05
1006.15	223.04
1006.44	223.03
1006.72	223.05
1007.01	223.03
1007.30	223.02
1007.59	223.01
1007.88	223.01
1008.17	223.02
1008.45	223.00
1008.74	222.96
1009.03	222.91
1009.32	222.91
1009.60	222.90
1009.89	222.89
1010.18	222.85
1010.47	222.84
1010.76	222.84
1011.04	222.84
1011.33	222.84
1011.62	222.84
1011.91	222.85
1012.19	222.87
1012.48	222.87
1012.77	222.86
1013.05	222.89
1013.34	222.88
1013.63	222.88
1013.92	222.89
1014.20	222.88
1014.49	222.89
1014.78	222.90
1015.06	222.87
1015.35	222.86
1015.64	222.88
1015.92	222.90
1016.21	222.90
1016.50	222.91
1016.78	222.91
1017.07	222.91
1017.36	222.90
1017.64	222.88
1017.93	222.89
1018.22	222.87
1018.50	222.87
1018.79	222.87
1019.08	222.84
1019.36	222.85
1019.65	222.84
1019.93	222.87
1020.22	222.88
1020.51	222.92
1020.79	222.90
1021.08	222.74
1021.36	222.72
1021.65	222.79
1021.94	222.84
1022.22	222.96
1022.51	222.69
1022.79	223.39
1023.08	222.94
1023.36	224.05
1023.65	222.51
>>>>>End Processed Spectral Data<<<<<
