SpectraSuite Data File
++++++++++++++++++++++++++++++++++++
Date: Wed Sep 30 20:16:38 EDT 2015
User: lab3
Dark Spectrum Present: No
Reference Spectrum Present: No
Number of Sampled Component Spectra: 1
Spectrometers: USB2E7196
Integration Time (usec): 36000 (USB2E7196)
Spectra Averaged: 10000 (USB2E7196)
Boxcar Smoothing: 10 (USB2E7196)
Correct for Electrical Dark: No (USB2E7196)
Strobe/Lamp Enabled: No (USB2E7196)
Correct for Detector Non-linearity: No (USB2E7196)
Correct for Stray Light: No (USB2E7196)
Number of Pixels in Processed Spectrum: 2048
>>>>>Begin Processed Spectral Data<<<<<
339.09	0.00
339.48	210.97
339.86	212.39
340.24	213.82
340.63	215.24
341.01	218.10
341.39	217.96
341.78	219.26
342.16	220.46
342.54	220.90
342.93	209.49
343.31	220.07
343.69	220.61
344.07	221.08
344.46	221.50
344.84	221.89
345.22	222.12
345.60	222.38
345.99	222.57
346.37	222.71
346.75	222.82
347.13	222.89
347.52	222.96
347.90	223.04
348.28	223.08
348.66	223.13
349.05	223.13
349.43	223.18
349.81	223.24
350.19	223.29
350.57	223.36
350.96	223.44
351.34	223.53
351.72	223.62
352.10	223.72
352.48	223.80
352.87	223.85
353.25	223.92
353.63	223.98
354.01	224.04
354.39	224.11
354.77	224.19
355.15	224.28
355.54	224.34
355.92	224.37
356.30	224.45
356.68	224.59
357.06	224.66
357.44	224.71
357.82	224.77
358.20	224.88
358.58	224.94
358.97	225.00
359.35	225.08
359.73	225.16
360.11	225.21
360.49	225.27
360.87	225.32
361.25	225.38
361.63	225.46
362.01	225.52
362.39	225.55
362.77	225.60
363.15	225.62
363.53	225.66
363.91	225.69
364.29	225.71
364.67	225.64
365.05	225.66
365.43	225.69
365.81	225.72
366.19	225.74
366.57	225.79
366.95	225.79
367.33	225.77
367.71	225.76
368.09	225.78
368.47	225.78
368.85	225.77
369.23	225.78
369.61	225.73
369.99	225.74
370.37	225.74
370.75	225.79
371.13	225.76
371.51	225.72
371.89	225.70
372.27	225.68
372.65	225.66
373.03	225.62
373.41	225.58
373.78	225.53
374.16	225.44
374.54	225.36
374.92	225.31
375.30	225.27
375.68	225.20
376.06	225.16
376.44	225.10
376.82	225.05
377.19	225.00
377.57	224.95
377.95	224.86
378.33	224.80
378.71	224.66
379.09	224.61
379.47	224.58
379.84	224.52
380.22	224.45
380.60	224.38
380.98	224.33
381.36	224.28
381.73	224.22
382.11	224.19
382.49	224.14
382.87	224.08
383.25	224.03
383.62	224.11
384.00	224.04
384.38	224.00
384.76	223.98
385.13	223.96
385.51	223.92
385.89	223.87
386.27	223.84
386.64	223.81
387.02	223.77
387.40	223.72
387.78	223.69
388.15	223.67
388.53	223.64
388.91	223.61
389.29	223.57
389.66	223.56
390.04	223.52
390.42	223.52
390.79	223.50
391.17	223.49
391.55	223.36
391.92	223.35
392.30	223.34
392.68	223.31
393.05	223.29
393.43	223.29
393.81	223.29
394.18	223.27
394.56	223.27
394.94	223.30
395.31	223.29
395.69	223.33
396.06	223.36
396.44	223.38
396.82	223.39
397.19	223.46
397.57	223.47
397.95	223.51
398.32	223.51
398.70	223.54
399.07	223.60
399.45	223.63
399.82	223.67
400.20	223.70
400.58	223.76
400.95	223.77
401.33	223.84
401.70	223.97
402.08	224.07
402.45	224.14
402.83	224.24
403.20	224.34
403.58	224.42
403.95	224.54
404.33	224.66
404.71	224.79
405.08	224.96
405.46	225.10
405.83	225.26
406.21	225.43
406.58	225.62
406.96	225.80
407.33	226.01
407.70	226.24
408.08	226.57
408.45	226.85
408.83	227.15
409.20	227.43
409.58	227.67
409.95	228.00
410.33	228.37
410.70	228.72
411.08	229.13
411.45	229.56
411.82	230.00
412.20	230.49
412.57	231.09
412.95	231.55
413.32	232.16
413.69	232.78
414.07	233.44
414.44	234.16
414.82	234.89
415.19	235.75
415.56	236.63
415.94	237.53
416.31	238.55
416.68	239.56
417.06	240.75
417.43	241.86
417.81	243.13
418.18	244.44
418.55	245.86
418.93	247.33
419.30	248.87
419.67	250.52
420.04	252.20
420.42	253.96
420.79	256.01
421.16	258.07
421.54	260.16
421.91	262.36
422.28	264.63
422.66	267.08
423.03	269.41
423.40	271.87
423.77	274.50
424.15	277.19
424.52	279.99
424.89	283.02
425.26	286.05
425.64	288.84
426.01	291.99
426.38	295.21
426.75	298.53
427.13	301.93
427.50	305.48
427.87	309.17
428.24	312.90
428.61	316.46
428.99	320.30
429.36	324.51
429.73	328.54
430.10	332.56
430.47	336.67
430.85	340.89
431.22	345.39
431.59	350.02
431.96	354.51
432.33	359.50
432.70	364.22
433.08	369.81
433.45	375.09
433.82	380.28
434.19	386.06
434.56	391.74
434.93	397.22
435.30	402.64
435.68	408.75
436.05	414.72
436.42	420.69
436.79	426.13
437.16	431.98
437.53	438.27
437.90	444.55
438.27	450.67
438.64	457.32
439.01	463.33
439.38	468.82
439.75	474.12
440.13	480.17
440.50	485.92
440.87	490.46
441.24	495.44
441.61	500.95
441.98	504.98
442.35	509.79
442.72	514.73
443.09	519.45
443.46	522.49
443.83	524.76
444.20	526.67
444.57	529.47
444.94	531.15
445.31	532.88
445.68	534.44
446.05	535.63
446.42	535.51
446.79	535.31
447.16	535.15
447.53	535.04
447.90	533.30
448.27	531.68
448.64	529.08
449.01	527.39
449.37	523.64
449.74	520.23
450.11	515.85
450.48	510.99
450.85	506.11
451.22	501.96
451.59	497.91
451.96	494.22
452.33	488.81
452.70	484.00
453.07	478.11
453.43	472.19
453.80	466.47
454.17	460.98
454.54	455.89
454.91	450.12
455.28	444.69
455.65	439.57
456.02	434.12
456.38	429.73
456.75	424.05
457.12	419.48
457.49	414.85
457.86	410.44
458.23	406.58
458.59	402.31
458.96	397.92
459.33	394.05
459.70	390.10
460.07	387.09
460.43	383.53
460.80	380.21
461.17	377.28
461.54	374.12
461.91	371.17
462.27	368.16
462.64	365.71
463.01	362.88
463.38	360.04
463.74	357.47
464.11	355.17
464.48	353.10
464.85	350.88
465.21	349.18
465.58	347.31
465.95	345.13
466.32	343.39
466.68	341.69
467.05	339.99
467.42	338.34
467.78	336.56
468.15	334.92
468.52	333.69
468.88	332.09
469.25	330.63
469.62	329.46
469.98	328.21
470.35	327.08
470.72	326.07
471.08	325.04
471.45	324.18
471.82	323.24
472.18	322.26
472.55	321.63
472.92	320.84
473.28	320.22
473.65	319.59
474.02	318.99
474.38	318.50
474.75	318.21
475.11	317.81
475.48	317.65
475.85	317.48
476.21	317.43
476.58	317.44
476.94	317.62
477.31	317.73
477.67	317.87
478.04	318.12
478.41	318.45
478.77	318.90
479.14	319.23
479.50	319.77
479.87	320.44
480.23	321.12
480.60	321.77
480.96	322.45
481.33	323.39
481.69	324.32
482.06	325.26
482.42	326.15
482.79	327.20
483.15	328.42
483.52	329.78
483.88	331.10
484.25	332.49
484.61	333.95
484.98	335.52
485.34	337.28
485.71	339.10
486.07	341.04
486.44	342.97
486.80	345.12
487.17	347.33
487.53	349.74
487.90	352.26
488.26	354.99
488.62	357.86
488.99	360.74
489.35	363.75
489.72	367.00
490.08	370.41
490.44	373.93
490.81	377.60
491.17	381.37
491.54	385.39
491.90	389.51
492.26	393.94
492.63	398.60
492.99	403.45
493.36	408.44
493.72	413.69
494.08	419.07
494.45	424.75
494.81	430.64
495.17	436.66
495.54	443.01
495.90	449.66
496.26	456.46
496.63	463.50
496.99	470.81
497.35	478.48
497.72	486.45
498.08	494.57
498.44	502.95
498.80	511.88
499.17	521.03
499.53	530.52
499.89	540.23
500.26	550.11
500.62	560.27
500.98	571.08
501.34	582.03
501.71	593.53
502.07	605.23
502.43	617.33
502.79	629.77
503.16	642.62
503.52	655.65
503.88	669.04
504.24	682.86
504.60	696.97
504.97	711.46
505.33	726.32
505.69	742.07
506.05	758.02
506.41	773.95
506.78	790.23
507.14	806.95
507.50	824.29
507.86	842.03
508.22	860.02
508.59	878.03
508.95	896.77
509.31	915.92
509.67	935.78
510.03	955.85
510.39	976.13
510.75	996.64
511.12	1017.45
511.48	1038.58
511.84	1059.83
512.20	1081.40
512.56	1104.03
512.92	1126.88
513.28	1149.47
513.64	1172.39
514.00	1195.72
514.37	1219.35
514.73	1243.05
515.09	1266.56
515.45	1290.47
515.81	1314.96
516.17	1339.50
516.53	1363.74
516.89	1388.08
517.25	1412.60
517.61	1437.30
517.97	1462.24
518.33	1486.92
518.69	1511.72
519.05	1536.81
519.41	1562.01
519.77	1587.49
520.13	1612.25
520.49	1637.17
520.85	1662.32
521.21	1687.39
521.57	1713.09
521.93	1738.09
522.29	1763.90
522.65	1789.45
523.01	1814.86
523.37	1839.55
523.73	1864.90
524.09	1890.40
524.45	1915.77
524.81	1940.67
525.17	1965.50
525.53	1989.94
525.89	2014.43
526.25	2039.15
526.61	2063.31
526.97	2087.78
527.33	2112.16
527.68	2136.33
528.04	2159.70
528.40	2182.95
528.76	2206.38
529.12	2228.78
529.48	2251.55
529.84	2272.55
530.20	2294.11
530.56	2315.27
530.91	2336.54
531.27	2357.30
531.63	2377.45
531.99	2397.12
532.35	2416.45
532.71	2435.90
533.07	2455.92
533.42	2474.40
533.78	2493.26
534.14	2512.10
534.50	2530.09
534.86	2548.75
535.21	2565.59
535.57	2582.37
535.93	2598.42
536.29	2613.26
536.65	2628.93
537.00	2643.45
537.36	2658.48
537.72	2672.51
538.08	2686.25
538.44	2698.79
538.79	2711.57
539.15	2722.67
539.51	2733.72
539.87	2744.40
540.22	2752.90
540.58	2761.55
540.94	2770.75
541.29	2778.48
541.65	2785.22
542.01	2791.43
542.37	2795.78
542.72	2802.14
543.08	2807.86
543.44	2813.42
543.79	2818.17
544.15	2822.03
544.51	2825.92
544.87	2828.90
545.22	2831.45
545.58	2832.98
545.94	2835.01
546.29	2835.57
546.65	2836.21
547.01	2836.93
547.36	2837.77
547.72	2838.80
548.07	2838.33
548.43	2837.22
548.79	2835.48
549.14	2833.78
549.50	2832.67
549.86	2830.62
550.21	2826.11
550.57	2822.09
550.92	2816.72
551.28	2811.94
551.64	2807.06
551.99	2802.56
552.35	2797.63
552.70	2792.29
553.06	2787.71
553.41	2782.61
553.77	2776.86
554.13	2771.90
554.48	2765.97
554.84	2758.44
555.19	2751.06
555.55	2743.08
555.90	2735.69
556.26	2729.29
556.61	2722.25
556.97	2713.02
557.32	2704.71
557.68	2696.80
558.03	2688.22
558.39	2680.29
558.74	2672.57
559.10	2663.62
559.45	2654.30
559.81	2645.33
560.16	2635.63
560.52	2625.52
560.87	2616.46
561.23	2607.03
561.58	2597.06
561.94	2586.85
562.29	2576.14
562.64	2566.01
563.00	2556.21
563.35	2546.22
563.71	2535.30
564.06	2523.91
564.42	2513.55
564.77	2502.81
565.12	2492.18
565.48	2481.32
565.83	2471.14
566.19	2460.97
566.54	2450.36
566.89	2438.85
567.25	2427.24
567.60	2416.52
567.96	2405.31
568.31	2392.68
568.66	2380.06
569.02	2368.48
569.37	2356.67
569.72	2345.38
570.08	2333.36
570.43	2320.82
570.78	2307.94
571.14	2294.90
571.49	2282.59
571.84	2270.61
572.20	2257.34
572.55	2244.42
572.90	2231.37
573.26	2217.38
573.61	2202.78
573.96	2188.51
574.31	2174.59
574.67	2160.95
575.02	2146.88
575.37	2132.38
575.72	2118.13
576.08	2104.47
576.43	2089.73
576.78	2075.02
577.13	2061.11
577.49	2047.28
577.84	2033.81
578.19	2019.51
578.54	2004.81
578.90	1989.61
579.25	1974.12
579.60	1960.11
579.95	1945.72
580.30	1931.36
580.66	1917.28
581.01	1902.81
581.36	1888.72
581.71	1875.21
582.06	1861.15
582.42	1847.13
582.77	1833.85
583.12	1820.23
583.47	1806.65
583.82	1793.23
584.17	1779.69
584.53	1766.04
584.88	1752.33
585.23	1738.28
585.58	1724.75
585.93	1711.64
586.28	1699.35
586.63	1686.85
586.98	1673.62
587.34	1660.61
587.69	1647.11
588.04	1633.86
588.39	1621.32
588.74	1608.23
589.09	1594.89
589.44	1581.54
589.79	1568.74
590.14	1555.84
590.49	1543.10
590.84	1530.24
591.19	1518.01
591.54	1505.28
591.89	1492.37
592.25	1479.81
592.60	1466.85
592.95	1454.46
593.30	1442.40
593.65	1430.10
594.00	1418.03
594.35	1406.71
594.70	1394.61
595.05	1383.58
595.40	1372.34
595.75	1360.51
596.10	1349.45
596.45	1338.62
596.80	1328.25
597.15	1317.68
597.50	1307.07
597.85	1296.71
598.19	1286.53
598.54	1275.73
598.89	1265.67
599.24	1255.91
599.59	1245.92
599.94	1236.98
600.29	1227.91
600.64	1218.60
600.99	1208.71
601.34	1199.30
601.69	1189.28
602.04	1180.34
602.39	1171.24
602.74	1162.40
603.08	1153.80
603.43	1144.72
603.78	1135.51
604.13	1126.45
604.48	1117.32
604.83	1108.46
605.18	1099.52
605.53	1090.50
605.87	1081.62
606.22	1073.01
606.57	1064.14
606.92	1055.35
607.27	1046.38
607.62	1037.52
607.96	1028.83
608.31	1021.18
608.66	1013.09
609.01	1005.44
609.36	997.73
609.70	989.80
610.05	981.69
610.40	973.93
610.75	966.28
611.10	958.92
611.44	951.17
611.79	943.73
612.14	935.89
612.49	928.21
612.83	921.02
613.18	913.89
613.53	906.54
613.88	899.29
614.22	892.66
614.57	885.86
614.92	879.03
615.27	872.22
615.61	865.25
615.96	858.51
616.31	851.68
616.65	844.75
617.00	838.09
617.35	831.56
617.70	825.06
618.04	818.64
618.39	812.22
618.74	806.14
619.08	799.86
619.43	793.87
619.78	787.89
620.12	781.71
620.47	775.71
620.82	769.79
621.16	764.21
621.51	758.25
621.85	752.29
622.20	746.38
622.55	740.69
622.89	734.93
623.24	729.22
623.59	723.60
623.93	718.00
624.28	712.54
624.62	707.07
624.97	701.58
625.32	696.21
625.66	690.68
626.01	685.16
626.35	679.81
626.70	674.47
627.04	669.33
627.39	664.22
627.73	659.23
628.08	654.47
628.43	649.59
628.77	644.78
629.12	640.12
629.46	635.63
629.81	630.93
630.15	626.12
630.50	621.48
630.84	617.03
631.19	612.78
631.53	608.55
631.88	604.21
632.22	599.98
632.57	596.00
632.91	591.97
633.26	588.02
633.60	584.15
633.95	580.39
634.29	576.48
634.64	572.53
634.98	568.48
635.32	564.58
635.67	560.81
636.01	557.00
636.36	553.22
636.70	549.59
637.05	545.96
637.39	542.53
637.73	538.95
638.08	535.44
638.42	531.90
638.77	528.23
639.11	524.56
639.45	520.93
639.80	517.28
640.14	513.84
640.49	510.36
640.83	506.74
641.17	503.17
641.52	499.77
641.86	496.37
642.20	493.16
642.55	489.79
642.89	486.50
643.23	483.41
643.58	480.56
643.92	477.58
644.26	474.64
644.61	471.68
644.95	468.73
645.29	465.72
645.64	462.69
645.98	459.80
646.32	457.09
646.66	454.38
647.01	451.64
647.35	448.94
647.69	446.13
648.04	443.48
648.38	440.85
648.72	438.19
649.06	435.60
649.41	433.04
649.75	430.47
650.09	427.93
650.43	425.40
650.78	422.84
651.12	420.27
651.46	417.80
651.80	415.44
652.14	413.15
652.49	410.87
652.83	408.65
653.17	406.42
653.51	404.26
653.85	402.16
654.20	400.00
654.54	397.76
654.88	395.71
655.22	393.72
655.56	391.69
655.90	389.76
656.25	387.83
656.59	385.90
656.93	384.08
657.27	382.31
657.61	380.42
657.95	378.61
658.29	376.80
658.64	375.02
658.98	373.22
659.32	371.45
659.66	369.78
660.00	368.12
660.34	366.50
660.68	364.80
661.02	363.06
661.36	361.43
661.70	359.87
662.05	358.29
662.39	356.71
662.73	355.21
663.07	353.73
663.41	352.27
663.75	350.84
664.09	349.42
664.43	347.90
664.77	346.50
665.11	345.03
665.45	343.65
665.79	342.25
666.13	340.86
666.47	339.44
666.81	338.01
667.15	336.55
667.49	335.18
667.83	333.87
668.17	332.59
668.51	331.34
668.85	330.10
669.19	328.94
669.53	327.70
669.87	326.44
670.21	325.22
670.55	324.01
670.89	322.87
671.23	321.70
671.57	320.55
671.91	319.45
672.25	318.42
672.58	317.37
672.92	316.29
673.26	315.27
673.60	314.28
673.94	313.25
674.28	312.30
674.62	311.34
674.96	310.34
675.30	309.41
675.64	308.44
675.97	307.50
676.31	306.52
676.65	305.56
676.99	304.67
677.33	303.72
677.67	302.82
678.01	301.84
678.34	300.94
678.68	300.09
679.02	299.21
679.36	298.34
679.70	297.47
680.04	296.64
680.37	295.79
680.71	294.97
681.05	294.21
681.39	293.41
681.73	292.57
682.06	291.77
682.40	290.98
682.74	290.22
683.08	289.47
683.42	288.71
683.75	288.03
684.09	287.27
684.43	286.55
684.77	285.82
685.10	285.15
685.44	284.44
685.78	283.74
686.12	283.07
686.45	282.39
686.79	281.71
687.13	281.05
687.46	280.36
687.80	279.70
688.14	279.00
688.48	278.35
688.81	277.71
689.15	277.11
689.49	276.47
689.82	275.85
690.16	275.18
690.50	274.57
690.83	273.95
691.17	273.36
691.51	272.78
691.84	272.21
692.18	271.62
692.52	271.02
692.85	270.43
693.19	269.89
693.52	269.34
693.86	268.78
694.20	268.23
694.53	267.71
694.87	267.18
695.21	266.67
695.54	266.15
695.88	265.63
696.21	265.07
696.55	264.57
696.88	264.06
697.22	263.58
697.56	263.09
697.89	262.54
698.23	262.04
698.56	261.52
698.90	261.04
699.23	260.55
699.57	260.11
699.90	259.65
700.24	259.16
700.58	258.71
700.91	258.29
701.25	257.94
701.58	257.56
701.92	257.16
702.25	256.74
702.59	256.32
702.92	255.92
703.26	255.52
703.59	255.12
703.93	254.80
704.26	254.42
704.60	254.05
704.93	253.69
705.26	253.32
705.60	252.99
705.93	252.61
706.27	252.29
706.60	251.96
706.94	251.64
707.27	251.26
707.61	250.90
707.94	250.54
708.27	250.10
708.61	249.71
708.94	249.35
709.28	249.02
709.61	248.69
709.94	248.39
710.28	248.09
710.61	247.80
710.95	247.42
711.28	247.19
711.61	246.90
711.95	246.64
712.28	246.35
712.61	246.05
712.95	245.83
713.28	245.61
713.61	245.32
713.95	245.03
714.28	244.79
714.61	244.53
714.95	244.28
715.28	244.02
715.61	243.77
715.95	243.54
716.28	243.30
716.61	243.08
716.95	242.83
717.28	242.60
717.61	242.36
717.94	242.13
718.28	241.84
718.61	241.61
718.94	241.37
719.27	241.15
719.61	240.96
719.94	240.72
720.27	240.45
720.60	240.24
720.94	240.04
721.27	239.85
721.60	239.68
721.93	239.49
722.27	239.33
722.60	239.16
722.93	238.96
723.26	238.79
723.59	238.58
723.93	238.41
724.26	238.25
724.59	238.08
724.92	237.91
725.25	237.78
725.59	237.61
725.92	237.47
726.25	237.31
726.58	237.15
726.91	236.98
727.24	236.84
727.57	236.69
727.91	236.52
728.24	236.38
728.57	236.22
728.90	236.08
729.23	235.90
729.56	235.80
729.89	235.66
730.22	235.51
730.55	235.37
730.89	235.22
731.22	235.08
731.55	234.94
731.88	234.80
732.21	234.65
732.54	234.52
732.87	234.39
733.20	234.28
733.53	234.16
733.86	234.05
734.19	233.91
734.52	233.82
734.85	233.77
735.18	233.64
735.51	233.56
735.84	233.44
736.17	233.36
736.50	233.20
736.83	233.21
737.16	233.11
737.49	233.02
737.82	232.92
738.15	232.84
738.48	232.74
738.81	232.64
739.14	232.53
739.47	232.42
739.80	232.32
740.13	232.23
740.46	232.11
740.79	232.00
741.12	231.90
741.45	231.79
741.78	231.64
742.11	231.58
742.44	231.46
742.77	231.38
743.10	231.28
743.43	231.18
743.75	230.98
744.08	231.05
744.41	230.95
744.74	230.86
745.07	230.75
745.40	230.69
745.73	230.65
746.06	230.58
746.39	230.51
746.71	230.43
747.04	230.34
747.37	230.26
747.70	230.21
748.03	230.14
748.36	230.09
748.68	230.01
749.01	229.90
749.34	229.83
749.67	229.76
750.00	229.71
750.33	229.72
750.65	229.66
750.98	229.44
751.31	229.38
751.64	229.32
751.97	229.31
752.29	229.23
752.62	229.12
752.95	229.04
753.28	228.96
753.60	228.90
753.93	228.86
754.26	228.80
754.59	228.70
754.91	228.62
755.24	228.54
755.57	228.53
755.90	228.47
756.22	228.40
756.55	228.32
756.88	228.23
757.20	228.10
757.53	228.01
757.86	227.96
758.19	227.91
758.51	227.85
758.84	227.74
759.17	227.68
759.49	227.63
759.82	227.64
760.15	227.59
760.47	227.54
760.80	227.46
761.13	227.43
761.45	227.38
761.78	227.34
762.11	227.29
762.43	227.19
762.76	227.15
763.08	227.11
763.41	227.08
763.74	227.04
764.06	227.00
764.39	226.95
764.71	226.91
765.04	226.85
765.37	226.80
765.69	226.76
766.02	226.71
766.34	226.66
766.67	226.58
767.00	226.56
767.32	226.58
767.65	226.60
767.97	226.55
768.30	226.52
768.62	226.48
768.95	226.43
769.27	226.39
769.60	226.36
769.92	226.31
770.25	226.26
770.57	226.21
770.90	226.17
771.22	226.13
771.55	226.10
771.87	226.07
772.20	226.04
772.52	226.09
772.85	226.19
773.17	226.16
773.50	226.11
773.82	226.06
774.15	225.98
774.47	225.88
774.80	225.84
775.12	225.81
775.45	225.78
775.77	225.76
776.09	225.74
776.42	225.71
776.74	225.72
777.07	225.68
777.39	225.66
777.72	225.63
778.04	225.62
778.36	225.58
778.69	225.55
779.01	225.54
779.33	225.42
779.66	225.28
779.98	225.25
780.31	225.23
780.63	225.25
780.95	225.25
781.28	225.22
781.60	225.19
781.92	225.17
782.25	225.14
782.57	225.12
782.89	225.09
783.22	225.06
783.54	225.02
783.86	225.01
784.19	224.98
784.51	225.00
784.83	224.96
785.16	224.94
785.48	224.92
785.80	224.91
786.12	224.90
786.45	224.88
786.77	224.87
787.09	224.85
787.42	224.79
787.74	224.78
788.06	224.76
788.38	224.75
788.71	224.73
789.03	224.72
789.35	224.72
789.67	224.69
789.99	224.68
790.32	224.65
790.64	224.65
790.96	224.73
791.28	224.68
791.61	224.66
791.93	224.65
792.25	224.63
792.57	224.68
792.89	224.65
793.21	224.65
793.54	224.62
793.86	224.60
794.18	224.59
794.50	224.56
794.82	224.55
795.14	224.54
795.47	224.55
795.79	224.53
796.11	224.49
796.43	224.48
796.75	224.47
797.07	224.46
797.39	224.44
797.71	224.34
798.04	224.34
798.36	224.33
798.68	224.32
799.00	224.32
799.32	224.25
799.64	224.26
799.96	224.24
800.28	224.25
800.60	224.24
800.92	224.24
801.24	224.22
801.56	224.22
801.89	224.20
802.21	224.20
802.53	224.17
802.85	224.18
803.17	224.22
803.49	224.20
803.81	224.18
804.13	224.17
804.45	224.15
804.77	224.14
805.09	224.14
805.41	224.12
805.73	224.09
806.05	224.05
806.37	224.03
806.69	224.02
807.01	224.00
807.33	223.99
807.65	223.95
807.97	223.98
808.28	223.96
808.60	223.95
808.92	223.93
809.24	223.98
809.56	223.96
809.88	223.91
810.20	223.91
810.52	223.92
810.84	223.90
811.16	223.88
811.48	223.87
811.80	223.90
812.12	223.89
812.43	223.90
812.75	223.91
813.07	223.89
813.39	223.89
813.71	223.87
814.03	223.85
814.35	223.86
814.67	223.81
814.98	223.79
815.30	223.78
815.62	223.76
815.94	223.68
816.26	223.69
816.58	223.66
816.89	223.66
817.21	223.63
817.53	223.64
817.85	223.64
818.17	223.64
818.48	223.59
818.80	223.60
819.12	223.57
819.44	223.55
819.76	223.54
820.07	223.53
820.39	223.52
820.71	223.52
821.03	223.52
821.34	223.51
821.66	223.52
821.98	223.52
822.30	223.51
822.61	223.57
822.93	223.55
823.25	223.55
823.57	223.53
823.88	223.54
824.20	223.53
824.52	223.54
824.83	223.53
825.15	223.52
825.47	223.50
825.79	223.50
826.10	223.49
826.42	223.49
826.74	223.49
827.05	223.49
827.37	223.49
827.69	223.48
828.00	223.48
828.32	223.48
828.64	223.46
828.95	223.52
829.27	223.48
829.58	223.48
829.90	223.50
830.22	223.50
830.53	223.48
830.85	223.46
831.17	223.44
831.48	223.43
831.80	223.43
832.11	223.42
832.43	223.41
832.75	223.40
833.06	223.46
833.38	223.43
833.69	223.42
834.01	223.42
834.32	223.42
834.64	223.40
834.96	223.40
835.27	223.40
835.59	223.36
835.90	223.34
836.22	223.33
836.53	223.31
836.85	223.30
837.16	223.40
837.48	223.40
837.79	223.43
838.11	223.43
838.42	223.43
838.74	223.44
839.05	223.43
839.37	223.42
839.68	223.36
840.00	223.36
840.31	223.37
840.63	223.36
840.94	223.34
841.26	223.33
841.57	223.32
841.88	223.33
842.20	223.32
842.51	223.30
842.83	223.30
843.14	223.39
843.46	223.38
843.77	223.32
844.08	223.31
844.40	223.28
844.71	223.27
845.03	223.26
845.34	223.25
845.65	223.24
845.97	223.24
846.28	223.24
846.60	223.25
846.91	223.23
847.22	223.22
847.54	223.25
847.85	223.25
848.16	223.24
848.48	223.22
848.79	223.26
849.10	223.27
849.42	223.27
849.73	223.18
850.04	223.18
850.36	223.14
850.67	223.16
850.98	223.16
851.30	223.17
851.61	223.16
851.92	223.16
852.23	223.20
852.55	223.20
852.86	223.20
853.17	223.21
853.49	223.23
853.80	223.25
854.11	223.25
854.42	223.26
854.74	223.26
855.05	223.26
855.36	223.21
855.67	223.21
855.99	223.21
856.30	223.33
856.61	223.32
856.92	223.33
857.23	223.33
857.55	223.31
857.86	223.30
858.17	223.32
858.48	223.30
858.79	223.28
859.11	223.29
859.42	223.28
859.73	223.27
860.04	223.26
860.35	223.24
860.66	223.21
860.98	223.20
861.29	223.21
861.60	223.21
861.91	223.23
862.22	223.22
862.53	223.20
862.84	223.08
863.16	223.10
863.47	223.09
863.78	223.07
864.09	223.08
864.40	223.09
864.71	223.09
865.02	223.10
865.33	223.09
865.64	223.07
865.95	223.07
866.27	223.14
866.58	223.13
866.89	223.14
867.20	223.14
867.51	223.12
867.82	223.11
868.13	223.14
868.44	223.12
868.75	223.14
869.06	223.14
869.37	223.15
869.68	223.13
869.99	223.15
870.30	223.15
870.61	223.16
870.92	223.15
871.23	223.13
871.54	223.15
871.85	223.17
872.16	223.19
872.47	223.17
872.78	223.11
873.09	223.12
873.40	223.11
873.71	223.12
874.02	223.13
874.33	223.12
874.64	223.10
874.95	223.12
875.26	223.09
875.56	223.09
875.87	223.09
876.18	223.08
876.49	223.17
876.80	223.16
877.11	223.14
877.42	223.14
877.73	223.15
878.04	223.13
878.35	223.12
878.66	223.12
878.96	223.12
879.27	223.11
879.58	223.11
879.89	223.10
880.20	223.13
880.51	223.12
880.82	223.12
881.12	223.12
881.43	223.10
881.74	223.09
882.05	223.09
882.36	223.09
882.67	223.10
882.97	222.99
883.28	222.98
883.59	222.98
883.90	222.99
884.21	223.00
884.51	223.00
884.82	222.98
885.13	222.98
885.44	222.98
885.74	222.98
886.05	222.97
886.36	222.97
886.67	222.93
886.98	222.99
887.28	222.99
887.59	222.99
887.90	222.99
888.20	222.99
888.51	223.00
888.82	222.99
889.13	222.99
889.43	223.08
889.74	223.07
890.05	223.07
890.35	223.06
890.66	223.04
890.97	223.03
891.28	223.02
891.58	223.02
891.89	223.02
892.20	223.00
892.50	222.99
892.81	222.98
893.12	222.98
893.42	222.93
893.73	222.93
894.04	222.93
894.34	222.93
894.65	222.92
894.95	222.91
895.26	222.92
895.57	222.96
895.87	222.86
896.18	222.87
896.48	222.88
896.79	222.88
897.10	222.89
897.40	222.90
897.71	222.90
898.01	222.90
898.32	222.91
898.63	222.90
898.93	222.91
899.24	222.91
899.54	222.91
899.85	222.90
900.15	222.89
900.46	222.89
900.76	222.90
901.07	222.91
901.38	222.90
901.68	222.91
901.99	222.86
902.29	222.87
902.60	222.86
902.90	222.85
903.21	222.85
903.51	222.84
903.82	222.86
904.12	222.86
904.43	222.87
904.73	222.86
905.03	222.87
905.34	222.97
905.64	222.96
905.95	222.96
906.25	222.96
906.56	222.96
906.86	222.96
907.17	222.95
907.47	222.95
907.77	222.94
908.08	222.92
908.38	222.93
908.69	222.93
908.99	222.95
909.30	222.95
909.60	222.95
909.90	222.96
910.21	222.93
910.51	222.91
910.81	222.91
911.12	222.92
911.42	222.92
911.73	222.81
912.03	222.82
912.33	222.85
912.64	222.84
912.94	222.83
913.24	222.81
913.55	222.80
913.85	222.79
914.15	222.82
914.46	222.83
914.76	222.82
915.06	222.81
915.37	222.80
915.67	222.79
915.97	222.79
916.27	222.77
916.58	222.77
916.88	222.77
917.18	222.76
917.49	222.83
917.79	222.82
918.09	222.84
918.39	222.86
918.70	222.85
919.00	222.86
919.30	222.91
919.60	222.91
919.91	222.90
920.21	222.90
920.51	222.88
920.81	222.88
921.12	222.89
921.42	222.89
921.72	222.90
922.02	222.90
922.32	222.92
922.63	222.92
922.93	222.98
923.23	222.98
923.53	222.97
923.83	222.90
924.13	222.91
924.44	222.91
924.74	222.92
925.04	222.94
925.34	222.94
925.64	222.89
925.94	222.89
926.24	222.95
926.55	222.94
926.85	222.95
927.15	222.95
927.45	222.95
927.75	222.95
928.05	222.95
928.35	222.94
928.65	222.95
928.95	222.96
929.26	222.91
929.56	222.92
929.86	222.93
930.16	222.93
930.46	222.91
930.76	222.92
931.06	222.87
931.36	222.84
931.66	222.85
931.96	222.86
932.26	222.87
932.56	222.82
932.86	222.83
933.16	222.83
933.46	222.82
933.76	222.80
934.06	222.82
934.36	222.85
934.66	222.85
934.96	222.83
935.26	222.83
935.56	222.85
935.86	222.82
936.16	222.81
936.46	222.80
936.76	222.80
937.06	222.78
937.36	222.79
937.66	222.79
937.96	222.78
938.26	222.76
938.56	222.75
938.86	222.75
939.16	222.78
939.46	222.78
939.76	222.79
940.06	222.79
940.35	222.77
940.65	222.72
940.95	222.73
941.25	222.71
941.55	222.69
941.85	222.69
942.15	222.71
942.45	222.74
942.75	222.74
943.04	222.74
943.34	222.76
943.64	222.76
943.94	222.74
944.24	222.74
944.54	222.75
944.84	222.75
945.13	222.74
945.43	222.72
945.73	222.71
946.03	222.70
946.33	222.69
946.62	222.68
946.92	222.68
947.22	222.69
947.52	222.70
947.82	222.71
948.11	222.70
948.41	222.67
948.71	222.64
949.01	222.64
949.31	222.64
949.60	222.63
949.90	222.64
950.20	222.64
950.50	222.64
950.79	222.63
951.09	222.65
951.39	222.65
951.69	222.63
951.98	222.65
952.28	222.66
952.58	222.66
952.87	222.66
953.17	222.67
953.47	222.66
953.76	222.66
954.06	222.64
954.36	222.63
954.66	222.63
954.95	222.66
955.25	222.66
955.55	222.67
955.84	222.65
956.14	222.66
956.44	222.66
956.73	222.65
957.03	222.65
957.32	222.65
957.62	222.65
957.92	222.67
958.21	222.65
958.51	222.77
958.81	222.78
959.10	222.79
959.40	222.81
959.69	222.82
959.99	222.83
960.29	222.84
960.58	222.83
960.88	222.87
961.17	222.86
961.47	222.86
961.76	222.85
962.06	222.87
962.36	222.86
962.65	222.86
962.95	222.87
963.24	222.86
963.54	222.86
963.83	222.87
964.13	222.86
964.42	222.86
964.72	222.76
965.01	222.77
965.31	222.76
965.60	222.73
965.90	222.79
966.19	222.77
966.49	222.77
966.78	222.77
967.08	222.77
967.37	222.77
967.67	222.75
967.96	222.77
968.26	222.77
968.55	222.78
968.85	222.77
969.14	222.77
969.43	222.77
969.73	222.76
970.02	222.76
970.32	222.75
970.61	222.74
970.91	222.71
971.20	222.69
971.49	222.68
971.79	222.70
972.08	222.63
972.38	222.64
972.67	222.63
972.96	222.65
973.26	222.62
973.55	222.66
973.85	222.65
974.14	222.64
974.43	222.65
974.73	222.63
975.02	222.62
975.31	222.63
975.61	222.63
975.90	222.62
976.19	222.61
976.49	222.62
976.78	222.64
977.07	222.64
977.37	222.64
977.66	222.66
977.95	222.64
978.24	222.65
978.54	222.67
978.83	222.66
979.12	222.65
979.42	222.65
979.71	222.63
980.00	222.63
980.29	222.64
980.59	222.62
980.88	222.65
981.17	222.64
981.46	222.65
981.76	222.65
982.05	222.68
982.34	222.69
982.63	222.68
982.93	222.68
983.22	222.71
983.51	222.71
983.80	222.72
984.09	222.74
984.39	222.73
984.68	222.72
984.97	222.72
985.26	222.71
985.55	222.72
985.85	222.70
986.14	222.72
986.43	222.73
986.72	222.73
987.01	222.69
987.30	222.70
987.59	222.69
987.89	222.69
988.18	222.66
988.47	222.65
988.76	222.64
989.05	222.63
989.34	222.62
989.63	222.64
989.92	222.62
990.22	222.61
990.51	222.61
990.80	222.60
991.09	222.61
991.38	222.62
991.67	222.61
991.96	222.59
992.25	222.59
992.54	222.57
992.83	222.58
993.12	222.57
993.41	222.59
993.70	222.63
993.99	222.64
994.28	222.65
994.58	222.67
994.87	222.66
995.16	222.66
995.45	222.65
995.74	222.62
996.03	222.63
996.32	222.65
996.61	222.67
996.90	222.66
997.19	222.65
997.48	222.65
997.77	222.65
998.06	222.65
998.34	222.64
998.63	222.64
998.92	222.65
999.21	222.66
999.50	222.65
999.79	222.62
1000.08	222.61
1000.37	222.61
1000.66	222.60
1000.95	222.63
1001.24	222.63
1001.53	222.64
1001.82	222.64
1002.11	222.62
1002.40	222.63
1002.68	222.64
1002.97	222.72
1003.26	222.71
1003.55	222.69
1003.84	222.71
1004.13	222.74
1004.42	222.74
1004.71	222.74
1004.99	222.73
1005.28	222.75
1005.57	222.74
1005.86	222.73
1006.15	222.73
1006.44	222.71
1006.72	222.72
1007.01	222.70
1007.30	222.71
1007.59	222.69
1007.88	222.69
1008.17	222.69
1008.45	222.67
1008.74	222.63
1009.03	222.58
1009.32	222.58
1009.60	222.58
1009.89	222.57
1010.18	222.53
1010.47	222.53
1010.76	222.53
1011.04	222.53
1011.33	222.52
1011.62	222.53
1011.91	222.54
1012.19	222.54
1012.48	222.55
1012.77	222.54
1013.05	222.58
1013.34	222.58
1013.63	222.58
1013.92	222.59
1014.20	222.58
1014.49	222.59
1014.78	222.60
1015.06	222.57
1015.35	222.57
1015.64	222.59
1015.92	222.61
1016.21	222.61
1016.50	222.62
1016.78	222.63
1017.07	222.64
1017.36	222.62
1017.64	222.60
1017.93	222.61
1018.22	222.60
1018.50	222.59
1018.79	222.59
1019.08	222.55
1019.36	222.56
1019.65	222.55
1019.93	222.58
1020.22	222.59
1020.51	222.64
1020.79	222.63
1021.08	222.42
1021.36	222.40
1021.65	222.55
1021.94	222.53
1022.22	222.64
1022.51	222.39
1022.79	223.09
1023.08	222.74
1023.36	223.81
1023.65	222.32
>>>>>End Processed Spectral Data<<<<<
