SpectraSuite Data File
++++++++++++++++++++++++++++++++++++
Date: Thu Oct 01 10:12:12 EDT 2015
User: lab3
Dark Spectrum Present: No
Reference Spectrum Present: No
Number of Sampled Component Spectra: 1
Spectrometers: USB2E7196
Integration Time (usec): 36000 (USB2E7196)
Spectra Averaged: 10000 (USB2E7196)
Boxcar Smoothing: 10 (USB2E7196)
Correct for Electrical Dark: No (USB2E7196)
Strobe/Lamp Enabled: No (USB2E7196)
Correct for Detector Non-linearity: No (USB2E7196)
Correct for Stray Light: No (USB2E7196)
Number of Pixels in Processed Spectrum: 2048
>>>>>Begin Processed Spectral Data<<<<<
339.09	0.00
339.48	210.34
339.86	211.76
340.24	213.08
340.63	214.57
341.01	217.49
341.39	217.25
341.78	218.61
342.16	219.80
342.54	220.30
342.93	208.87
343.31	219.42
343.69	219.96
344.07	220.42
344.46	220.85
344.84	221.24
345.22	221.48
345.60	221.73
345.99	221.92
346.37	222.06
346.75	222.16
347.13	222.24
347.52	222.31
347.90	222.39
348.28	222.43
348.66	222.49
349.05	222.49
349.43	222.54
349.81	222.60
350.19	222.65
350.57	222.72
350.96	222.80
351.34	222.90
351.72	222.99
352.10	223.10
352.48	223.17
352.87	223.23
353.25	223.29
353.63	223.36
354.01	223.42
354.39	223.50
354.77	223.58
355.15	223.67
355.54	223.72
355.92	223.76
356.30	223.83
356.68	223.97
357.06	224.04
357.44	224.09
357.82	224.16
358.20	224.26
358.58	224.32
358.97	224.38
359.35	224.46
359.73	224.54
360.11	224.59
360.49	224.65
360.87	224.69
361.25	224.76
361.63	224.84
362.01	224.89
362.39	224.92
362.77	224.97
363.15	224.99
363.53	225.03
363.91	225.06
364.29	225.09
364.67	225.01
365.05	225.04
365.43	225.07
365.81	225.10
366.19	225.11
366.57	225.16
366.95	225.17
367.33	225.14
367.71	225.14
368.09	225.15
368.47	225.15
368.85	225.14
369.23	225.14
369.61	225.09
369.99	225.11
370.37	225.10
370.75	225.16
371.13	225.13
371.51	225.09
371.89	225.07
372.27	225.04
372.65	225.02
373.03	224.98
373.41	224.93
373.78	224.88
374.16	224.79
374.54	224.71
374.92	224.66
375.30	224.62
375.68	224.56
376.06	224.52
376.44	224.46
376.82	224.42
377.19	224.37
377.57	224.32
377.95	224.23
378.33	224.17
378.71	224.03
379.09	223.98
379.47	223.94
379.84	223.88
380.22	223.82
380.60	223.74
380.98	223.69
381.36	223.64
381.73	223.58
382.11	223.55
382.49	223.50
382.87	223.44
383.25	223.39
383.62	223.47
384.00	223.40
384.38	223.36
384.76	223.33
385.13	223.32
385.51	223.28
385.89	223.23
386.27	223.20
386.64	223.17
387.02	223.13
387.40	223.08
387.78	223.05
388.15	223.02
388.53	222.99
388.91	222.96
389.29	222.93
389.66	222.92
390.04	222.88
390.42	222.88
390.79	222.86
391.17	222.84
391.55	222.71
391.92	222.70
392.30	222.70
392.68	222.66
393.05	222.64
393.43	222.64
393.81	222.64
394.18	222.62
394.56	222.62
394.94	222.65
395.31	222.65
395.69	222.69
396.06	222.72
396.44	222.74
396.82	222.75
397.19	222.83
397.57	222.84
397.95	222.88
398.32	222.87
398.70	222.92
399.07	222.98
399.45	223.01
399.82	223.06
400.20	223.09
400.58	223.14
400.95	223.16
401.33	223.24
401.70	223.38
402.08	223.47
402.45	223.55
402.83	223.66
403.20	223.76
403.58	223.85
403.95	223.98
404.33	224.11
404.71	224.24
405.08	224.43
405.46	224.57
405.83	224.74
406.21	224.92
406.58	225.11
406.96	225.30
407.33	225.52
407.70	225.77
408.08	226.11
408.45	226.40
408.83	226.71
409.20	227.00
409.58	227.26
409.95	227.62
410.33	228.00
410.70	228.36
411.08	228.79
411.45	229.24
411.82	229.69
412.20	230.21
412.57	230.83
412.95	231.32
413.32	231.96
413.69	232.61
414.07	233.30
414.44	234.07
414.82	234.84
415.19	235.74
415.56	236.66
415.94	237.61
416.31	238.68
416.68	239.76
417.06	241.00
417.43	242.17
417.81	243.52
418.18	244.89
418.55	246.39
418.93	247.95
419.30	249.58
419.67	251.32
420.04	253.10
420.42	254.96
420.79	257.12
421.16	259.29
421.54	261.50
421.91	263.81
422.28	266.21
422.66	268.80
423.03	271.26
423.40	273.84
423.77	276.62
424.15	279.46
424.52	282.40
424.89	285.60
425.26	288.78
425.64	291.72
426.01	295.04
426.38	298.43
426.75	301.91
427.13	305.48
427.50	309.21
427.87	313.08
428.24	316.99
428.61	320.73
428.99	324.75
429.36	329.17
429.73	333.39
430.10	337.60
430.47	341.89
430.85	346.30
431.22	351.00
431.59	355.83
431.96	360.53
432.33	365.74
432.70	370.66
433.08	376.50
433.45	382.01
433.82	387.43
434.19	393.48
434.56	399.43
434.93	405.16
435.30	410.83
435.68	417.22
436.05	423.47
436.42	429.73
436.79	435.43
437.16	441.58
437.53	448.18
437.90	454.77
438.27	461.21
438.64	468.22
439.01	474.57
439.38	480.37
439.75	485.97
440.13	492.37
440.50	498.49
440.87	503.31
441.24	508.61
441.61	514.47
441.98	518.77
442.35	523.89
442.72	529.15
443.09	534.19
443.46	537.47
443.83	539.93
444.20	542.02
444.57	545.04
444.94	546.89
445.31	548.80
445.68	550.51
446.05	551.83
446.42	551.78
446.79	551.62
447.16	551.50
447.53	551.43
447.90	549.65
448.27	547.99
448.64	545.29
449.01	543.52
449.37	539.59
449.74	536.03
450.11	531.41
450.48	526.30
450.85	521.16
451.22	516.80
451.59	512.53
451.96	508.64
452.33	502.92
452.70	497.81
453.07	491.57
453.43	485.32
453.80	479.25
454.17	473.42
454.54	468.02
454.91	461.90
455.28	456.14
455.65	450.70
456.02	444.89
456.38	440.22
456.75	434.19
457.12	429.32
457.49	424.40
457.86	419.70
458.23	415.58
458.59	411.04
458.96	406.35
459.33	402.21
459.70	398.00
460.07	394.79
460.43	391.01
460.80	387.47
461.17	384.35
461.54	380.98
461.91	377.85
462.27	374.65
462.64	372.03
463.01	369.05
463.38	366.02
463.74	363.30
464.11	360.87
464.48	358.68
464.85	356.33
465.21	354.53
465.58	352.55
465.95	350.26
466.32	348.43
466.68	346.64
467.05	344.85
467.42	343.12
467.78	341.25
468.15	339.53
468.52	338.26
468.88	336.59
469.25	335.06
469.62	333.85
469.98	332.53
470.35	331.35
470.72	330.30
471.08	329.23
471.45	328.35
471.82	327.37
472.18	326.35
472.55	325.70
472.92	324.89
473.28	324.25
473.65	323.60
474.02	322.99
474.38	322.49
474.75	322.21
475.11	321.80
475.48	321.65
475.85	321.49
476.21	321.45
476.58	321.46
476.94	321.66
477.31	321.80
477.67	321.97
478.04	322.24
478.41	322.60
478.77	323.07
479.14	323.42
479.50	324.00
479.87	324.71
480.23	325.42
480.60	326.11
480.96	326.83
481.33	327.81
481.69	328.79
482.06	329.76
482.42	330.67
482.79	331.78
483.15	333.04
483.52	334.45
483.88	335.82
484.25	337.26
484.61	338.77
484.98	340.39
485.34	342.21
485.71	344.09
486.07	346.11
486.44	348.11
486.80	350.33
487.17	352.60
487.53	355.11
487.90	357.71
488.26	360.53
488.62	363.51
488.99	366.49
489.35	369.60
489.72	372.97
490.08	376.51
490.44	380.14
490.81	383.93
491.17	387.81
491.54	391.97
491.90	396.22
492.26	400.82
492.63	405.65
492.99	410.67
493.36	415.81
493.72	421.23
494.08	426.78
494.45	432.65
494.81	438.74
495.17	444.95
495.54	451.51
495.90	458.39
496.26	465.41
496.63	472.67
496.99	480.22
497.35	488.15
497.72	496.37
498.08	504.75
498.44	513.40
498.80	522.62
499.17	532.05
499.53	541.84
499.89	551.86
500.26	562.05
500.62	572.53
500.98	583.69
501.34	595.02
501.71	606.89
502.07	618.98
502.43	631.46
502.79	644.29
503.16	657.54
503.52	670.97
503.88	684.79
504.24	699.04
504.60	713.57
504.97	728.50
505.33	743.82
505.69	760.07
506.05	776.53
506.41	792.98
506.78	809.73
507.14	826.95
507.50	844.81
507.86	863.02
508.22	881.55
508.59	900.09
508.95	919.34
509.31	939.03
509.67	959.44
510.03	980.07
510.39	1000.90
510.75	1021.97
511.12	1043.34
511.48	1065.03
511.84	1086.80
512.20	1108.89
512.56	1132.10
512.92	1155.50
513.28	1178.61
513.64	1202.02
514.00	1225.86
514.37	1250.04
514.73	1274.25
515.09	1298.23
515.45	1322.66
515.81	1347.64
516.17	1372.68
516.53	1397.39
516.89	1422.13
517.25	1447.05
517.61	1472.18
517.97	1497.48
518.33	1522.54
518.69	1547.71
519.05	1573.14
519.41	1598.71
519.77	1624.52
520.13	1649.53
520.49	1674.71
520.85	1700.10
521.21	1725.40
521.57	1751.28
521.93	1776.42
522.29	1802.41
522.65	1828.11
523.01	1853.58
523.37	1878.29
523.73	1903.63
524.09	1929.13
524.45	1954.58
524.81	1979.53
525.17	2004.37
525.53	2028.76
525.89	2053.15
526.25	2077.74
526.61	2101.81
526.97	2126.14
527.33	2150.41
527.68	2174.50
528.04	2197.72
528.40	2220.77
528.76	2244.02
529.12	2266.19
529.48	2288.75
529.84	2309.42
530.20	2330.68
530.56	2351.59
530.91	2372.55
531.27	2392.99
531.63	2412.79
531.99	2432.02
532.35	2450.91
532.71	2469.87
533.07	2489.43
533.42	2507.42
533.78	2525.83
534.14	2544.22
534.50	2561.77
534.86	2579.89
535.21	2596.13
535.57	2612.33
535.93	2627.79
536.29	2642.05
536.65	2657.16
537.00	2671.10
537.36	2685.60
537.72	2699.01
538.08	2712.07
538.44	2723.97
538.79	2736.06
539.15	2746.48
539.51	2756.87
539.87	2766.93
540.22	2774.85
540.58	2782.88
540.94	2791.46
541.29	2798.46
541.65	2804.48
542.01	2809.99
542.37	2813.64
542.72	2819.23
543.08	2824.30
543.44	2829.21
543.79	2833.27
544.15	2836.45
544.51	2839.60
544.87	2841.83
545.22	2843.67
545.58	2844.58
545.94	2845.95
546.29	2845.83
546.65	2845.83
547.01	2845.92
547.36	2846.08
547.72	2846.39
548.07	2845.23
548.43	2843.44
548.79	2841.00
549.14	2838.59
549.50	2836.82
549.86	2834.21
550.21	2829.12
550.57	2824.46
550.92	2818.43
551.28	2813.04
551.64	2807.54
551.99	2802.46
552.35	2796.96
552.70	2791.01
553.06	2785.77
553.41	2780.10
553.77	2773.92
554.13	2768.42
554.48	2761.94
554.84	2753.83
555.19	2745.87
555.55	2737.36
555.90	2729.42
556.26	2722.51
556.61	2714.98
556.97	2705.22
557.32	2696.33
557.68	2687.90
558.03	2678.82
558.39	2670.46
558.74	2662.20
559.10	2652.69
559.45	2642.83
559.81	2633.36
560.16	2623.21
560.52	2612.62
560.87	2603.05
561.23	2593.04
561.58	2582.51
561.94	2571.76
562.29	2560.52
562.64	2549.94
563.00	2539.70
563.35	2529.32
563.71	2518.05
564.06	2506.19
564.42	2495.41
564.77	2484.26
565.12	2473.25
565.48	2461.95
565.83	2451.27
566.19	2440.62
566.54	2429.61
566.89	2417.72
567.25	2405.78
567.60	2394.67
567.96	2383.15
568.31	2370.19
568.66	2357.19
569.02	2345.27
569.37	2333.10
569.72	2321.44
570.08	2309.07
570.43	2296.13
570.78	2282.93
571.14	2269.48
571.49	2256.88
571.84	2244.56
572.20	2230.94
572.55	2217.69
572.90	2204.36
573.26	2190.08
573.61	2175.28
573.96	2160.79
574.31	2146.67
574.67	2132.73
575.02	2118.37
575.37	2103.58
575.72	2089.07
576.08	2075.17
576.43	2060.26
576.78	2045.41
577.13	2031.42
577.49	2017.37
577.84	2003.74
578.19	1989.26
578.54	1974.46
578.90	1959.12
579.25	1943.52
579.60	1929.33
579.95	1914.76
580.30	1900.22
580.66	1886.03
581.01	1871.46
581.36	1857.18
581.71	1843.49
582.06	1829.33
582.42	1815.21
582.77	1801.88
583.12	1788.20
583.47	1774.57
583.82	1761.04
584.17	1747.42
584.53	1733.58
584.88	1719.82
585.23	1705.69
585.58	1692.08
585.93	1678.92
586.28	1666.62
586.63	1654.10
586.98	1640.89
587.34	1627.93
587.69	1614.46
588.04	1601.22
588.39	1588.65
588.74	1575.65
589.09	1562.34
589.44	1549.01
589.79	1536.27
590.14	1523.37
590.49	1510.71
590.84	1497.90
591.19	1485.76
591.54	1473.08
591.89	1460.30
592.25	1447.85
592.60	1435.04
592.95	1422.76
593.30	1410.76
593.65	1398.53
594.00	1386.52
594.35	1375.32
594.70	1363.31
595.05	1352.38
595.40	1341.27
595.75	1329.58
596.10	1318.66
596.45	1307.96
596.80	1297.73
597.15	1287.29
597.50	1276.85
597.85	1266.61
598.19	1256.56
598.54	1245.91
598.89	1236.03
599.24	1226.47
599.59	1216.66
599.94	1207.86
600.29	1198.94
600.64	1189.79
600.99	1180.07
601.34	1170.82
601.69	1160.97
602.04	1152.20
602.39	1143.24
602.74	1134.51
603.08	1126.06
603.43	1117.11
603.78	1108.08
604.13	1099.20
604.48	1090.23
604.83	1081.54
605.18	1072.76
605.53	1063.89
605.87	1055.17
606.22	1046.70
606.57	1037.96
606.92	1029.33
607.27	1020.59
607.62	1011.94
607.96	1003.44
608.31	995.95
608.66	988.01
609.01	980.50
609.36	972.94
609.70	965.17
610.05	957.24
610.40	949.65
610.75	942.19
611.10	934.98
611.44	927.39
611.79	920.11
612.14	912.46
612.49	904.95
612.83	897.93
613.18	890.94
613.53	883.75
613.88	876.65
614.22	870.13
614.57	863.42
614.92	856.72
615.27	850.05
615.61	843.24
615.96	836.67
616.31	830.01
616.65	823.25
617.00	816.73
617.35	810.37
617.70	804.01
618.04	797.73
618.39	791.47
618.74	785.53
619.08	779.42
619.43	773.57
619.78	767.74
620.12	761.71
620.47	755.86
620.82	750.11
621.16	744.65
621.51	738.87
621.85	733.06
622.20	727.32
622.55	721.74
622.89	716.11
623.24	710.52
623.59	705.01
623.93	699.57
624.28	694.25
624.62	688.92
624.97	683.57
625.32	678.34
625.66	672.97
626.01	667.60
626.35	662.37
626.70	657.17
627.04	652.16
627.39	647.21
627.73	642.37
628.08	637.73
628.43	632.98
628.77	628.28
629.12	623.72
629.46	619.33
629.81	614.77
630.15	610.10
630.50	605.58
630.84	601.25
631.19	597.10
631.53	593.00
631.88	588.79
632.22	584.67
632.57	580.79
632.91	576.85
633.26	573.00
633.60	569.21
633.95	565.51
634.29	561.69
634.64	557.84
634.98	553.91
635.32	550.14
635.67	546.48
636.01	542.79
636.36	539.13
636.70	535.61
637.05	532.09
637.39	528.77
637.73	525.33
638.08	521.94
638.42	518.52
638.77	514.97
639.11	511.43
639.45	507.93
639.80	504.41
640.14	501.09
640.49	497.72
640.83	494.24
641.17	490.82
641.52	487.55
641.86	484.27
642.20	481.14
642.55	477.87
642.89	474.70
643.23	471.72
643.58	468.95
643.92	466.08
644.26	463.23
644.61	460.37
644.95	457.52
645.29	454.62
645.64	451.69
645.98	448.90
646.32	446.27
646.66	443.65
647.01	441.00
647.35	438.40
647.69	435.70
648.04	433.16
648.38	430.65
648.72	428.09
649.06	425.61
649.41	423.15
649.75	420.68
650.09	418.24
650.43	415.81
650.78	413.35
651.12	410.89
651.46	408.52
651.80	406.24
652.14	404.03
652.49	401.84
652.83	399.72
653.17	397.57
653.51	395.49
653.85	393.46
654.20	391.39
654.54	389.23
654.88	387.26
655.22	385.34
655.56	383.39
655.90	381.52
656.25	379.67
656.59	377.83
656.93	376.08
657.27	374.37
657.61	372.56
657.95	370.81
658.29	369.07
658.64	367.37
658.98	365.65
659.32	363.95
659.66	362.35
660.00	360.76
660.34	359.20
660.68	357.59
661.02	355.93
661.36	354.36
661.70	352.87
662.05	351.36
662.39	349.83
662.73	348.39
663.07	346.98
663.41	345.59
663.75	344.21
664.09	342.85
664.43	341.41
664.77	340.06
665.11	338.65
665.45	337.32
665.79	335.99
666.13	334.64
666.47	333.29
666.81	331.91
667.15	330.50
667.49	329.20
667.83	327.94
668.17	326.72
668.51	325.52
668.85	324.33
669.19	323.22
669.53	322.04
669.87	320.83
670.21	319.65
670.55	318.48
670.89	317.39
671.23	316.27
671.57	315.16
671.91	314.11
672.25	313.12
672.58	312.12
672.92	311.07
673.26	310.11
673.60	309.15
673.94	308.18
674.28	307.26
674.62	306.34
674.96	305.38
675.30	304.47
675.64	303.55
675.97	302.65
676.31	301.70
676.65	300.78
676.99	299.93
677.33	299.02
677.67	298.15
678.01	297.21
678.34	296.35
678.68	295.54
679.02	294.69
679.36	293.85
679.70	293.02
680.04	292.22
680.37	291.40
680.71	290.63
681.05	289.90
681.39	289.12
681.73	288.31
682.06	287.54
682.40	286.78
682.74	286.05
683.08	285.35
683.42	284.62
683.75	283.96
684.09	283.23
684.43	282.54
684.77	281.84
685.10	281.19
685.44	280.52
685.78	279.84
686.12	279.19
686.45	278.54
686.79	277.88
687.13	277.25
687.46	276.59
687.80	275.96
688.14	275.27
688.48	274.66
688.81	274.05
689.15	273.48
689.49	272.87
689.82	272.27
690.16	271.62
690.50	271.03
690.83	270.45
691.17	269.88
691.51	269.32
691.84	268.79
692.18	268.22
692.52	267.64
692.85	267.08
693.19	266.57
693.52	266.03
693.86	265.51
694.20	264.98
694.53	264.49
694.87	263.97
695.21	263.49
695.54	263.00
695.88	262.50
696.21	261.97
696.55	261.49
696.88	261.01
697.22	260.54
697.56	260.09
697.89	259.57
698.23	259.09
698.56	258.59
698.90	258.15
699.23	257.69
699.57	257.26
699.90	256.82
700.24	256.36
700.58	255.94
700.91	255.54
701.25	255.22
701.58	254.86
701.92	254.49
702.25	254.10
702.59	253.70
702.92	253.32
703.26	252.94
703.59	252.57
703.93	252.28
704.26	251.93
704.60	251.56
704.93	251.22
705.26	250.88
705.60	250.57
705.93	250.20
706.27	249.91
706.60	249.60
706.94	249.30
707.27	248.94
707.61	248.61
707.94	248.26
708.27	247.85
708.61	247.48
708.94	247.14
709.28	246.83
709.61	246.52
709.94	246.23
710.28	245.95
710.61	245.68
710.95	245.31
711.28	245.10
711.61	244.83
711.95	244.59
712.28	244.31
712.61	244.03
712.95	243.83
713.28	243.62
713.61	243.35
713.95	243.08
714.28	242.86
714.61	242.61
714.95	242.37
715.28	242.13
715.61	241.90
715.95	241.69
716.28	241.46
716.61	241.26
716.95	241.03
717.28	240.81
717.61	240.59
717.94	240.38
718.28	240.10
718.61	239.88
718.94	239.65
719.27	239.45
719.61	239.27
719.94	239.04
720.27	238.79
720.60	238.59
720.94	238.40
721.27	238.22
721.60	238.06
721.93	237.88
722.27	237.74
722.60	237.58
722.93	237.39
723.26	237.22
723.59	237.03
723.93	236.87
724.26	236.72
724.59	236.56
724.92	236.40
725.25	236.28
725.59	236.12
725.92	235.99
726.25	235.85
726.58	235.70
726.91	235.55
727.24	235.42
727.57	235.28
727.91	235.13
728.24	235.00
728.57	234.85
728.90	234.72
729.23	234.55
729.56	234.46
729.89	234.33
730.22	234.19
730.55	234.06
730.89	233.93
731.22	233.79
731.55	233.66
731.88	233.53
732.21	233.39
732.54	233.27
732.87	233.15
733.20	233.04
733.53	232.92
733.86	232.82
734.19	232.69
734.52	232.60
734.85	232.56
735.18	232.44
735.51	232.36
735.84	232.25
736.17	232.18
736.50	232.02
736.83	232.04
737.16	231.95
737.49	231.86
737.82	231.76
738.15	231.68
738.48	231.59
738.81	231.49
739.14	231.38
739.47	231.28
739.80	231.18
740.13	231.10
740.46	230.99
740.79	230.88
741.12	230.80
741.45	230.69
741.78	230.54
742.11	230.48
742.44	230.37
742.77	230.30
743.10	230.20
743.43	230.11
743.75	229.92
744.08	229.99
744.41	229.90
744.74	229.82
745.07	229.71
745.40	229.65
745.73	229.62
746.06	229.55
746.39	229.50
746.71	229.41
747.04	229.33
747.37	229.26
747.70	229.20
748.03	229.14
748.36	229.09
748.68	229.01
749.01	228.92
749.34	228.85
749.67	228.78
750.00	228.73
750.33	228.75
750.65	228.69
750.98	228.47
751.31	228.41
751.64	228.36
751.97	228.36
752.29	228.29
752.62	228.18
752.95	228.10
753.28	228.03
753.60	227.96
753.93	227.93
754.26	227.88
754.59	227.78
754.91	227.71
755.24	227.63
755.57	227.62
755.90	227.56
756.22	227.49
756.55	227.42
756.88	227.33
757.20	227.20
757.53	227.12
757.86	227.06
758.19	227.01
758.51	226.96
758.84	226.85
759.17	226.79
759.49	226.75
759.82	226.75
760.15	226.71
760.47	226.67
760.80	226.59
761.13	226.55
761.45	226.51
761.78	226.47
762.11	226.42
762.43	226.33
762.76	226.29
763.08	226.25
763.41	226.22
763.74	226.18
764.06	226.14
764.39	226.10
764.71	226.06
765.04	226.01
765.37	225.95
765.69	225.91
766.02	225.87
766.34	225.83
766.67	225.75
767.00	225.73
767.32	225.74
767.65	225.77
767.97	225.72
768.30	225.69
768.62	225.65
768.95	225.60
769.27	225.57
769.60	225.55
769.92	225.50
770.25	225.44
770.57	225.39
770.90	225.36
771.22	225.32
771.55	225.29
771.87	225.26
772.20	225.23
772.52	225.29
772.85	225.38
773.17	225.35
773.50	225.32
773.82	225.27
774.15	225.19
774.47	225.09
774.80	225.05
775.12	225.02
775.45	224.99
775.77	224.97
776.09	224.95
776.42	224.92
776.74	224.93
777.07	224.90
777.39	224.88
777.72	224.85
778.04	224.84
778.36	224.81
778.69	224.79
779.01	224.77
779.33	224.66
779.66	224.52
779.98	224.49
780.31	224.47
780.63	224.49
780.95	224.49
781.28	224.47
781.60	224.44
781.92	224.43
782.25	224.41
782.57	224.39
782.89	224.37
783.22	224.34
783.54	224.29
783.86	224.29
784.19	224.26
784.51	224.27
784.83	224.24
785.16	224.22
785.48	224.20
785.80	224.19
786.12	224.18
786.45	224.16
786.77	224.15
787.09	224.13
787.42	224.07
787.74	224.05
788.06	224.04
788.38	224.03
788.71	224.01
789.03	223.99
789.35	223.99
789.67	223.96
789.99	223.96
790.32	223.93
790.64	223.93
790.96	224.02
791.28	223.96
791.61	223.94
791.93	223.94
792.25	223.92
792.57	223.97
792.89	223.95
793.21	223.94
793.54	223.92
793.86	223.89
794.18	223.88
794.50	223.85
794.82	223.84
795.14	223.84
795.47	223.84
795.79	223.83
796.11	223.79
796.43	223.78
796.75	223.77
797.07	223.77
797.39	223.74
797.71	223.64
798.04	223.64
798.36	223.64
798.68	223.62
799.00	223.62
799.32	223.56
799.64	223.56
799.96	223.55
800.28	223.56
800.60	223.55
800.92	223.54
801.24	223.53
801.56	223.53
801.89	223.51
802.21	223.50
802.53	223.47
802.85	223.49
803.17	223.53
803.49	223.50
803.81	223.48
804.13	223.46
804.45	223.44
804.77	223.44
805.09	223.43
805.41	223.41
805.73	223.39
806.05	223.35
806.37	223.34
806.69	223.32
807.01	223.30
807.33	223.30
807.65	223.25
807.97	223.29
808.28	223.27
808.60	223.26
808.92	223.24
809.24	223.30
809.56	223.27
809.88	223.22
810.20	223.22
810.52	223.23
810.84	223.22
811.16	223.20
811.48	223.19
811.80	223.21
812.12	223.21
812.43	223.22
812.75	223.22
813.07	223.20
813.39	223.20
813.71	223.18
814.03	223.16
814.35	223.16
814.67	223.12
814.98	223.10
815.30	223.09
815.62	223.07
815.94	223.00
816.26	223.00
816.58	222.98
816.89	222.98
817.21	222.95
817.53	222.96
817.85	222.96
818.17	222.95
818.48	222.90
818.80	222.92
819.12	222.89
819.44	222.87
819.76	222.86
820.07	222.85
820.39	222.84
820.71	222.85
821.03	222.84
821.34	222.83
821.66	222.84
821.98	222.85
822.30	222.84
822.61	222.90
822.93	222.88
823.25	222.87
823.57	222.85
823.88	222.86
824.20	222.85
824.52	222.86
824.83	222.86
825.15	222.84
825.47	222.83
825.79	222.83
826.10	222.82
826.42	222.82
826.74	222.82
827.05	222.82
827.37	222.81
827.69	222.80
828.00	222.81
828.32	222.80
828.64	222.78
828.95	222.84
829.27	222.80
829.58	222.80
829.90	222.81
830.22	222.81
830.53	222.79
830.85	222.77
831.17	222.75
831.48	222.74
831.80	222.74
832.11	222.74
832.43	222.72
832.75	222.72
833.06	222.78
833.38	222.74
833.69	222.74
834.01	222.74
834.32	222.73
834.64	222.72
834.96	222.71
835.27	222.71
835.59	222.66
835.90	222.65
836.22	222.64
836.53	222.62
836.85	222.60
837.16	222.71
837.48	222.71
837.79	222.75
838.11	222.75
838.42	222.74
838.74	222.75
839.05	222.75
839.37	222.74
839.68	222.67
840.00	222.67
840.31	222.68
840.63	222.68
840.94	222.67
841.26	222.66
841.57	222.65
841.88	222.66
842.20	222.65
842.51	222.63
842.83	222.63
843.14	222.72
843.46	222.72
843.77	222.65
844.08	222.65
844.40	222.61
844.71	222.60
845.03	222.59
845.34	222.58
845.65	222.57
845.97	222.57
846.28	222.57
846.60	222.58
846.91	222.57
847.22	222.56
847.54	222.58
847.85	222.59
848.16	222.58
848.48	222.56
848.79	222.60
849.10	222.61
849.42	222.61
849.73	222.51
850.04	222.51
850.36	222.47
850.67	222.49
850.98	222.50
851.30	222.50
851.61	222.50
851.92	222.50
852.23	222.53
852.55	222.54
852.86	222.54
853.17	222.55
853.49	222.57
853.80	222.59
854.11	222.59
854.42	222.60
854.74	222.59
855.05	222.59
855.36	222.54
855.67	222.54
855.99	222.54
856.30	222.67
856.61	222.66
856.92	222.67
857.23	222.67
857.55	222.66
857.86	222.65
858.17	222.66
858.48	222.65
858.79	222.62
859.11	222.63
859.42	222.62
859.73	222.60
860.04	222.59
860.35	222.56
860.66	222.53
860.98	222.52
861.29	222.54
861.60	222.53
861.91	222.55
862.22	222.54
862.53	222.52
862.84	222.40
863.16	222.42
863.47	222.40
863.78	222.38
864.09	222.39
864.40	222.40
864.71	222.40
865.02	222.41
865.33	222.40
865.64	222.37
865.95	222.37
866.27	222.44
866.58	222.43
866.89	222.44
867.20	222.45
867.51	222.43
867.82	222.42
868.13	222.46
868.44	222.43
868.75	222.45
869.06	222.46
869.37	222.47
869.68	222.44
869.99	222.46
870.30	222.47
870.61	222.48
870.92	222.46
871.23	222.45
871.54	222.46
871.85	222.49
872.16	222.50
872.47	222.50
872.78	222.43
873.09	222.44
873.40	222.43
873.71	222.43
874.02	222.44
874.33	222.43
874.64	222.41
874.95	222.43
875.26	222.40
875.56	222.40
875.87	222.40
876.18	222.39
876.49	222.49
876.80	222.48
877.11	222.46
877.42	222.46
877.73	222.47
878.04	222.45
878.35	222.44
878.66	222.44
878.96	222.45
879.27	222.45
879.58	222.44
879.89	222.44
880.20	222.47
880.51	222.46
880.82	222.46
881.12	222.46
881.43	222.44
881.74	222.43
882.05	222.42
882.36	222.42
882.67	222.43
882.97	222.32
883.28	222.31
883.59	222.31
883.90	222.32
884.21	222.33
884.51	222.32
884.82	222.31
885.13	222.30
885.44	222.30
885.74	222.30
886.05	222.29
886.36	222.29
886.67	222.25
886.98	222.31
887.28	222.31
887.59	222.31
887.90	222.31
888.20	222.31
888.51	222.32
888.82	222.30
889.13	222.30
889.43	222.39
889.74	222.39
890.05	222.39
890.35	222.38
890.66	222.36
890.97	222.35
891.28	222.34
891.58	222.34
891.89	222.33
892.20	222.32
892.50	222.31
892.81	222.30
893.12	222.30
893.42	222.25
893.73	222.25
894.04	222.24
894.34	222.25
894.65	222.25
894.95	222.25
895.26	222.25
895.57	222.30
895.87	222.20
896.18	222.21
896.48	222.22
896.79	222.22
897.10	222.23
897.40	222.23
897.71	222.25
898.01	222.24
898.32	222.25
898.63	222.25
898.93	222.26
899.24	222.26
899.54	222.26
899.85	222.25
900.15	222.25
900.46	222.25
900.76	222.25
901.07	222.25
901.38	222.24
901.68	222.26
901.99	222.20
902.29	222.21
902.60	222.20
902.90	222.19
903.21	222.19
903.51	222.18
903.82	222.20
904.12	222.20
904.43	222.20
904.73	222.19
905.03	222.20
905.34	222.30
905.64	222.29
905.95	222.29
906.25	222.28
906.56	222.28
906.86	222.28
907.17	222.27
907.47	222.27
907.77	222.26
908.08	222.24
908.38	222.24
908.69	222.25
908.99	222.27
909.30	222.27
909.60	222.27
909.90	222.28
910.21	222.25
910.51	222.24
910.81	222.23
911.12	222.24
911.42	222.24
911.73	222.13
912.03	222.14
912.33	222.16
912.64	222.16
912.94	222.15
913.24	222.14
913.55	222.12
913.85	222.12
914.15	222.14
914.46	222.15
914.76	222.14
915.06	222.14
915.37	222.11
915.67	222.10
915.97	222.11
916.27	222.08
916.58	222.09
916.88	222.08
917.18	222.07
917.49	222.13
917.79	222.13
918.09	222.15
918.39	222.17
918.70	222.16
919.00	222.16
919.30	222.21
919.60	222.21
919.91	222.20
920.21	222.20
920.51	222.18
920.81	222.17
921.12	222.19
921.42	222.18
921.72	222.19
922.02	222.20
922.32	222.21
922.63	222.22
922.93	222.28
923.23	222.28
923.53	222.28
923.83	222.21
924.13	222.22
924.44	222.22
924.74	222.23
925.04	222.25
925.34	222.24
925.64	222.20
925.94	222.20
926.24	222.25
926.55	222.25
926.85	222.26
927.15	222.26
927.45	222.26
927.75	222.26
928.05	222.25
928.35	222.24
928.65	222.26
928.95	222.27
929.26	222.22
929.56	222.24
929.86	222.25
930.16	222.24
930.46	222.23
930.76	222.23
931.06	222.18
931.36	222.15
931.66	222.17
931.96	222.19
932.26	222.19
932.56	222.15
932.86	222.15
933.16	222.15
933.46	222.14
933.76	222.12
934.06	222.14
934.36	222.18
934.66	222.18
934.96	222.16
935.26	222.17
935.56	222.18
935.86	222.15
936.16	222.13
936.46	222.13
936.76	222.12
937.06	222.10
937.36	222.12
937.66	222.12
937.96	222.11
938.26	222.09
938.56	222.08
938.86	222.09
939.16	222.10
939.46	222.11
939.76	222.12
940.06	222.12
940.35	222.10
940.65	222.05
940.95	222.06
941.25	222.04
941.55	222.02
941.85	222.02
942.15	222.04
942.45	222.07
942.75	222.06
943.04	222.07
943.34	222.09
943.64	222.08
943.94	222.07
944.24	222.08
944.54	222.09
944.84	222.09
945.13	222.08
945.43	222.06
945.73	222.06
946.03	222.05
946.33	222.04
946.62	222.03
946.92	222.03
947.22	222.04
947.52	222.05
947.82	222.06
948.11	222.05
948.41	222.02
948.71	221.99
949.01	222.00
949.31	221.99
949.60	221.98
949.90	222.00
950.20	221.99
950.50	221.99
950.79	221.97
951.09	221.99
951.39	221.99
951.69	221.98
951.98	222.00
952.28	222.00
952.58	222.00
952.87	222.00
953.17	222.01
953.47	222.00
953.76	222.00
954.06	221.98
954.36	221.97
954.66	221.97
954.95	222.00
955.25	222.00
955.55	222.01
955.84	222.00
956.14	222.00
956.44	222.00
956.73	221.99
957.03	222.00
957.32	221.99
957.62	221.99
957.92	222.01
958.21	222.00
958.51	222.12
958.81	222.13
959.10	222.15
959.40	222.16
959.69	222.17
959.99	222.19
960.29	222.19
960.58	222.19
960.88	222.22
961.17	222.21
961.47	222.21
961.76	222.20
962.06	222.22
962.36	222.21
962.65	222.21
962.95	222.22
963.24	222.21
963.54	222.21
963.83	222.22
964.13	222.21
964.42	222.20
964.72	222.11
965.01	222.11
965.31	222.10
965.60	222.07
965.90	222.13
966.19	222.10
966.49	222.11
966.78	222.10
967.08	222.09
967.37	222.09
967.67	222.07
967.96	222.09
968.26	222.08
968.55	222.10
968.85	222.10
969.14	222.09
969.43	222.10
969.73	222.08
970.02	222.08
970.32	222.07
970.61	222.05
970.91	222.03
971.20	222.01
971.49	222.00
971.79	222.01
972.08	221.94
972.38	221.95
972.67	221.94
972.96	221.96
973.26	221.94
973.55	221.97
973.85	221.96
974.14	221.96
974.43	221.96
974.73	221.94
975.02	221.93
975.31	221.93
975.61	221.93
975.90	221.92
976.19	221.91
976.49	221.92
976.78	221.93
977.07	221.93
977.37	221.94
977.66	221.95
977.95	221.94
978.24	221.96
978.54	221.98
978.83	221.97
979.12	221.97
979.42	221.97
979.71	221.95
980.00	221.95
980.29	221.95
980.59	221.93
980.88	221.96
981.17	221.96
981.46	221.96
981.76	221.96
982.05	222.00
982.34	222.01
982.63	222.00
982.93	222.00
983.22	222.03
983.51	222.04
983.80	222.05
984.09	222.06
984.39	222.05
984.68	222.03
984.97	222.04
985.26	222.03
985.55	222.04
985.85	222.02
986.14	222.04
986.43	222.06
986.72	222.05
987.01	222.02
987.30	222.01
987.59	222.01
987.89	222.01
988.18	221.98
988.47	221.97
988.76	221.96
989.05	221.95
989.34	221.94
989.63	221.96
989.92	221.95
990.22	221.93
990.51	221.93
990.80	221.92
991.09	221.93
991.38	221.94
991.67	221.93
991.96	221.92
992.25	221.92
992.54	221.90
992.83	221.90
993.12	221.90
993.41	221.92
993.70	221.96
993.99	221.97
994.28	221.99
994.58	222.01
994.87	222.00
995.16	222.00
995.45	221.99
995.74	221.95
996.03	221.96
996.32	221.98
996.61	222.00
996.90	222.01
997.19	222.00
997.48	222.00
997.77	221.99
998.06	222.00
998.34	221.99
998.63	221.99
998.92	222.00
999.21	222.01
999.50	222.01
999.79	221.97
1000.08	221.97
1000.37	221.97
1000.66	221.95
1000.95	221.98
1001.24	221.98
1001.53	222.00
1001.82	222.00
1002.11	221.98
1002.40	221.99
1002.68	222.01
1002.97	222.08
1003.26	222.07
1003.55	222.05
1003.84	222.06
1004.13	222.09
1004.42	222.08
1004.71	222.08
1004.99	222.07
1005.28	222.10
1005.57	222.09
1005.86	222.08
1006.15	222.07
1006.44	222.05
1006.72	222.06
1007.01	222.05
1007.30	222.05
1007.59	222.03
1007.88	222.03
1008.17	222.04
1008.45	222.02
1008.74	221.98
1009.03	221.93
1009.32	221.93
1009.60	221.93
1009.89	221.92
1010.18	221.88
1010.47	221.88
1010.76	221.88
1011.04	221.88
1011.33	221.87
1011.62	221.88
1011.91	221.89
1012.19	221.90
1012.48	221.90
1012.77	221.90
1013.05	221.94
1013.34	221.93
1013.63	221.93
1013.92	221.94
1014.20	221.92
1014.49	221.93
1014.78	221.94
1015.06	221.91
1015.35	221.91
1015.64	221.92
1015.92	221.94
1016.21	221.94
1016.50	221.95
1016.78	221.96
1017.07	221.96
1017.36	221.95
1017.64	221.93
1017.93	221.94
1018.22	221.93
1018.50	221.92
1018.79	221.92
1019.08	221.89
1019.36	221.89
1019.65	221.89
1019.93	221.91
1020.22	221.92
1020.51	221.98
1020.79	221.96
1021.08	221.76
1021.36	221.76
1021.65	221.94
1021.94	221.86
1022.22	221.96
1022.51	221.75
1022.79	222.38
1023.08	222.05
1023.36	223.21
1023.65	221.67
>>>>>End Processed Spectral Data<<<<<
