SpectraSuite Data File
++++++++++++++++++++++++++++++++++++
Date: Wed Sep 30 21:54:57 EDT 2015
User: lab3
Dark Spectrum Present: No
Reference Spectrum Present: No
Number of Sampled Component Spectra: 1
Spectrometers: USB2E7196
Integration Time (usec): 36000 (USB2E7196)
Spectra Averaged: 10000 (USB2E7196)
Boxcar Smoothing: 10 (USB2E7196)
Correct for Electrical Dark: No (USB2E7196)
Strobe/Lamp Enabled: No (USB2E7196)
Correct for Detector Non-linearity: No (USB2E7196)
Correct for Stray Light: No (USB2E7196)
Number of Pixels in Processed Spectrum: 2048
>>>>>Begin Processed Spectral Data<<<<<
339.09	0.00
339.48	210.70
339.86	212.24
340.24	213.55
340.63	214.96
341.01	217.92
341.39	217.64
341.78	219.03
342.16	220.22
342.54	220.72
342.93	209.26
343.31	219.84
343.69	220.37
344.07	220.83
344.46	221.25
344.84	221.64
345.22	221.88
345.60	222.13
345.99	222.32
346.37	222.45
346.75	222.56
347.13	222.63
347.52	222.70
347.90	222.78
348.28	222.82
348.66	222.87
349.05	222.87
349.43	222.92
349.81	222.98
350.19	223.03
350.57	223.10
350.96	223.18
351.34	223.27
351.72	223.36
352.10	223.47
352.48	223.54
352.87	223.60
353.25	223.66
353.63	223.72
354.01	223.79
354.39	223.86
354.77	223.94
355.15	224.04
355.54	224.10
355.92	224.13
356.30	224.20
356.68	224.34
357.06	224.42
357.44	224.47
357.82	224.53
358.20	224.64
358.58	224.71
358.97	224.77
359.35	224.85
359.73	224.93
360.11	224.99
360.49	225.04
360.87	225.09
361.25	225.16
361.63	225.24
362.01	225.29
362.39	225.33
362.77	225.37
363.15	225.40
363.53	225.44
363.91	225.48
364.29	225.50
364.67	225.43
365.05	225.45
365.43	225.48
365.81	225.51
366.19	225.53
366.57	225.58
366.95	225.58
367.33	225.56
367.71	225.55
368.09	225.57
368.47	225.57
368.85	225.56
369.23	225.56
369.61	225.51
369.99	225.52
370.37	225.51
370.75	225.57
371.13	225.54
371.51	225.50
371.89	225.48
372.27	225.45
372.65	225.43
373.03	225.39
373.41	225.34
373.78	225.29
374.16	225.20
374.54	225.12
374.92	225.07
375.30	225.02
375.68	224.96
376.06	224.91
376.44	224.86
376.82	224.81
377.19	224.76
377.57	224.71
377.95	224.63
378.33	224.57
378.71	224.43
379.09	224.38
379.47	224.34
379.84	224.27
380.22	224.21
380.60	224.14
380.98	224.09
381.36	224.04
381.73	223.98
382.11	223.95
382.49	223.90
382.87	223.84
383.25	223.80
383.62	223.87
384.00	223.80
384.38	223.76
384.76	223.74
385.13	223.72
385.51	223.68
385.89	223.63
386.27	223.60
386.64	223.58
387.02	223.53
387.40	223.49
387.78	223.46
388.15	223.43
388.53	223.40
388.91	223.37
389.29	223.34
389.66	223.33
390.04	223.29
390.42	223.28
390.79	223.27
391.17	223.25
391.55	223.12
391.92	223.10
392.30	223.10
392.68	223.06
393.05	223.04
393.43	223.04
393.81	223.04
394.18	223.02
394.56	223.02
394.94	223.04
395.31	223.04
395.69	223.08
396.06	223.10
396.44	223.12
396.82	223.13
397.19	223.20
397.57	223.21
397.95	223.25
398.32	223.24
398.70	223.28
399.07	223.34
399.45	223.37
399.82	223.41
400.20	223.45
400.58	223.50
400.95	223.52
401.33	223.60
401.70	223.73
402.08	223.82
402.45	223.90
402.83	224.00
403.20	224.10
403.58	224.18
403.95	224.30
404.33	224.43
404.71	224.56
405.08	224.74
405.46	224.88
405.83	225.04
406.21	225.21
406.58	225.40
406.96	225.58
407.33	225.79
407.70	226.03
408.08	226.36
408.45	226.64
408.83	226.94
409.20	227.22
409.58	227.46
409.95	227.80
410.33	228.17
410.70	228.51
411.08	228.93
411.45	229.36
411.82	229.80
412.20	230.30
412.57	230.89
412.95	231.36
413.32	231.97
413.69	232.59
414.07	233.26
414.44	233.98
414.82	234.72
415.19	235.59
415.56	236.46
415.94	237.37
416.31	238.39
416.68	239.41
417.06	240.61
417.43	241.72
417.81	243.01
418.18	244.32
418.55	245.75
418.93	247.23
419.30	248.79
419.67	250.44
420.04	252.14
420.42	253.91
420.79	255.97
421.16	258.04
421.54	260.15
421.91	262.35
422.28	264.63
422.66	267.09
423.03	269.44
423.40	271.91
423.77	274.56
424.15	277.26
424.52	280.08
424.89	283.13
425.26	286.16
425.64	288.97
426.01	292.13
426.38	295.37
426.75	298.70
427.13	302.11
427.50	305.68
427.87	309.39
428.24	313.13
428.61	316.70
428.99	320.56
429.36	324.80
429.73	328.85
430.10	332.89
430.47	337.02
430.85	341.25
431.22	345.76
431.59	350.40
431.96	354.91
432.33	359.91
432.70	364.65
433.08	370.25
433.45	375.54
433.82	380.74
434.19	386.54
434.56	392.25
434.93	397.75
435.30	403.19
435.68	409.32
436.05	415.31
436.42	421.29
436.79	426.74
437.16	432.62
437.53	438.92
437.90	445.21
438.27	451.36
438.64	458.03
439.01	464.07
439.38	469.58
439.75	474.91
440.13	480.99
440.50	486.78
440.87	491.34
441.24	496.35
441.61	501.89
441.98	505.96
442.35	510.79
442.72	515.76
443.09	520.51
443.46	523.59
443.83	525.87
444.20	527.82
444.57	530.65
444.94	532.35
445.31	534.12
445.68	535.70
446.05	536.90
446.42	536.81
446.79	536.62
447.16	536.47
447.53	536.38
447.90	534.65
448.27	533.03
448.64	530.45
449.01	528.76
449.37	525.01
449.74	521.60
450.11	517.20
450.48	512.34
450.85	507.44
451.22	503.30
451.59	499.24
451.96	495.54
452.33	490.11
452.70	485.28
453.07	479.37
453.43	473.43
453.80	467.69
454.17	462.18
454.54	457.07
454.91	451.27
455.28	445.82
455.65	440.68
456.02	435.21
456.38	430.79
456.75	425.09
457.12	420.48
457.49	415.83
457.86	411.39
458.23	407.50
458.59	403.21
458.96	398.78
459.33	394.88
459.70	390.91
460.07	387.88
460.43	384.30
460.80	380.95
461.17	378.00
461.54	374.81
461.91	371.83
462.27	368.80
462.64	366.32
463.01	363.49
463.38	360.62
463.74	358.03
464.11	355.71
464.48	353.62
464.85	351.39
465.21	349.68
465.58	347.80
465.95	345.61
466.32	343.86
466.68	342.15
467.05	340.44
467.42	338.78
467.78	336.99
468.15	335.34
468.52	334.11
468.88	332.51
469.25	331.03
469.62	329.86
469.98	328.59
470.35	327.46
470.72	326.44
471.08	325.40
471.45	324.54
471.82	323.60
472.18	322.62
472.55	321.97
472.92	321.18
473.28	320.56
473.65	319.92
474.02	319.32
474.38	318.82
474.75	318.54
475.11	318.13
475.48	317.97
475.85	317.80
476.21	317.75
476.58	317.75
476.94	317.94
477.31	318.06
477.67	318.21
478.04	318.46
478.41	318.79
478.77	319.25
479.14	319.58
479.50	320.12
479.87	320.80
480.23	321.48
480.60	322.14
480.96	322.83
481.33	323.77
481.69	324.71
482.06	325.65
482.42	326.54
482.79	327.61
483.15	328.82
483.52	330.19
483.88	331.51
484.25	332.91
484.61	334.38
484.98	335.95
485.34	337.72
485.71	339.54
486.07	341.49
486.44	343.43
486.80	345.59
487.17	347.80
487.53	350.22
487.90	352.75
488.26	355.49
488.62	358.37
488.99	361.26
489.35	364.29
489.72	367.54
490.08	370.97
490.44	374.49
490.81	378.17
491.17	381.95
491.54	385.98
491.90	390.12
492.26	394.57
492.63	399.25
492.99	404.13
493.36	409.13
493.72	414.39
494.08	419.79
494.45	425.48
494.81	431.40
495.17	437.43
495.54	443.79
495.90	450.47
496.26	457.28
496.63	464.34
496.99	471.67
497.35	479.36
497.72	487.34
498.08	495.49
498.44	503.89
498.80	512.84
499.17	522.01
499.53	531.51
499.89	541.24
500.26	551.14
500.62	561.31
500.98	572.15
501.34	583.13
501.71	594.65
502.07	606.38
502.43	618.50
502.79	630.97
503.16	643.85
503.52	656.90
503.88	670.33
504.24	684.18
504.60	698.33
504.97	712.86
505.33	727.75
505.69	743.54
506.05	759.51
506.41	775.48
506.78	791.79
507.14	808.57
507.50	825.94
507.86	843.70
508.22	861.72
508.59	879.75
508.95	898.51
509.31	917.69
509.67	937.58
510.03	957.69
510.39	977.98
510.75	998.52
511.12	1019.34
511.48	1040.52
511.84	1061.78
512.20	1083.35
512.56	1105.99
512.92	1128.89
513.28	1151.50
513.64	1174.43
514.00	1197.78
514.37	1221.44
514.73	1245.13
515.09	1268.65
515.45	1292.59
515.81	1317.10
516.17	1341.66
516.53	1365.92
516.89	1390.26
517.25	1414.76
517.61	1439.47
517.97	1464.41
518.33	1489.08
518.69	1513.88
519.05	1538.95
519.41	1564.17
519.77	1589.64
520.13	1614.38
520.49	1639.27
520.85	1664.38
521.21	1689.43
521.57	1715.08
521.93	1740.03
522.29	1765.82
522.65	1791.34
523.01	1816.69
523.37	1841.31
523.73	1866.57
524.09	1891.99
524.45	1917.34
524.81	1942.22
525.17	1966.99
525.53	1991.36
525.89	2015.79
526.25	2040.43
526.61	2064.52
526.97	2088.91
527.33	2113.23
527.68	2137.33
528.04	2160.62
528.40	2183.80
528.76	2207.16
529.12	2229.48
529.48	2252.17
529.84	2273.05
530.20	2294.52
530.56	2315.61
530.91	2336.81
531.27	2357.50
531.63	2377.57
531.99	2397.10
532.35	2416.30
532.71	2435.62
533.07	2455.55
533.42	2473.91
533.78	2492.69
534.14	2511.42
534.50	2529.28
534.86	2547.82
535.21	2564.54
535.57	2581.20
535.93	2597.12
536.29	2611.83
536.65	2627.37
537.00	2641.79
537.36	2656.71
537.72	2670.59
538.08	2684.22
538.44	2696.64
538.79	2709.26
539.15	2720.21
539.51	2731.12
539.87	2741.69
540.22	2750.12
540.58	2758.65
540.94	2767.76
541.29	2775.35
541.65	2781.97
542.01	2788.07
542.37	2792.32
542.72	2798.53
543.08	2804.13
543.44	2809.59
543.79	2814.22
544.15	2817.97
544.51	2821.70
544.87	2824.57
545.22	2827.01
545.58	2828.39
545.94	2830.29
546.29	2830.74
546.65	2831.34
547.01	2831.95
547.36	2832.69
547.72	2833.59
548.07	2833.01
548.43	2831.79
548.79	2829.95
549.14	2828.16
549.50	2826.94
549.86	2824.82
550.21	2820.23
550.57	2816.13
550.92	2810.66
551.28	2805.80
551.64	2800.82
551.99	2796.26
552.35	2791.28
552.70	2785.84
553.06	2781.21
553.41	2776.05
553.77	2770.29
554.13	2765.21
554.48	2759.24
554.84	2751.64
555.19	2744.18
555.55	2736.11
555.90	2728.63
556.26	2722.13
556.61	2714.99
556.97	2705.70
557.32	2697.30
557.68	2689.35
558.03	2680.71
558.39	2672.72
558.74	2664.96
559.10	2655.96
559.45	2646.63
559.81	2637.60
560.16	2627.89
560.52	2617.69
560.87	2608.54
561.23	2599.01
561.58	2589.01
561.94	2578.76
562.29	2567.98
562.64	2557.80
563.00	2547.98
563.35	2537.99
563.71	2527.10
564.06	2515.68
564.42	2505.30
564.77	2494.53
565.12	2483.88
565.48	2472.97
565.83	2462.75
566.19	2452.50
566.54	2441.88
566.89	2430.30
567.25	2418.68
567.60	2407.93
567.96	2396.75
568.31	2384.12
568.66	2371.46
569.02	2359.86
569.37	2348.01
569.72	2336.69
570.08	2324.66
570.43	2312.11
570.78	2299.21
571.14	2286.11
571.49	2273.81
571.84	2261.80
572.20	2248.49
572.55	2235.53
572.90	2222.47
573.26	2208.50
573.61	2193.96
573.96	2179.68
574.31	2165.78
574.67	2152.12
575.02	2138.03
575.37	2123.50
575.72	2109.29
576.08	2095.67
576.43	2080.97
576.78	2066.31
577.13	2052.43
577.49	2038.63
577.84	2025.17
578.19	2010.88
578.54	1996.22
578.90	1981.04
579.25	1965.59
579.60	1951.60
579.95	1937.22
580.30	1922.89
580.66	1908.83
581.01	1894.36
581.36	1880.30
581.71	1866.79
582.06	1852.77
582.42	1838.76
582.77	1825.54
583.12	1811.94
583.47	1798.38
583.82	1784.95
584.17	1771.43
584.53	1757.77
584.88	1744.09
585.23	1730.05
585.58	1716.54
585.93	1703.43
586.28	1691.16
586.63	1678.69
586.98	1665.51
587.34	1652.57
587.69	1639.12
588.04	1625.85
588.39	1613.32
588.74	1600.27
589.09	1586.95
589.44	1573.63
589.79	1560.90
590.14	1548.00
590.49	1535.28
590.84	1522.45
591.19	1510.28
591.54	1497.58
591.89	1484.73
592.25	1472.21
592.60	1459.30
592.95	1446.97
593.30	1434.94
593.65	1422.69
594.00	1410.62
594.35	1399.34
594.70	1387.25
595.05	1376.25
595.40	1365.10
595.75	1353.30
596.10	1342.30
596.45	1331.53
596.80	1321.20
597.15	1310.64
597.50	1300.11
597.85	1289.79
598.19	1279.65
598.54	1268.90
598.89	1258.89
599.24	1249.19
599.59	1239.25
599.94	1230.34
600.29	1221.31
600.64	1212.04
600.99	1202.20
601.34	1192.85
601.69	1182.88
602.04	1174.01
602.39	1164.94
602.74	1156.15
603.08	1147.60
603.43	1138.54
603.78	1129.36
604.13	1120.35
604.48	1111.27
604.83	1102.46
605.18	1093.56
605.53	1084.60
605.87	1075.75
606.22	1067.18
606.57	1058.35
606.92	1049.60
607.27	1040.70
607.62	1031.89
607.96	1023.28
608.31	1015.65
608.66	1007.60
609.01	999.99
609.36	992.32
609.70	984.42
610.05	976.35
610.40	968.66
610.75	961.07
611.10	953.76
611.44	946.04
611.79	938.64
612.14	930.85
612.49	923.21
612.83	916.05
613.18	908.97
613.53	901.68
613.88	894.46
614.22	887.86
614.57	881.09
614.92	874.29
615.27	867.51
615.61	860.59
615.96	853.90
616.31	847.13
616.65	840.24
617.00	833.62
617.35	827.14
617.70	820.67
618.04	814.28
618.39	807.91
618.74	801.88
619.08	795.66
619.43	789.71
619.78	783.77
620.12	777.63
620.47	771.66
620.82	765.77
621.16	760.22
621.51	754.30
621.85	748.38
622.20	742.51
622.55	736.85
622.89	731.13
623.24	725.44
623.59	719.84
623.93	714.27
624.28	708.85
624.62	703.41
624.97	697.95
625.32	692.61
625.66	687.13
626.01	681.64
626.35	676.30
626.70	670.99
627.04	665.89
627.39	660.82
627.73	655.86
628.08	651.14
628.43	646.29
628.77	641.51
629.12	636.88
629.46	632.42
629.81	627.75
630.15	622.97
630.50	618.35
630.84	613.93
631.19	609.70
631.53	605.50
631.88	601.19
632.22	596.99
632.57	593.03
632.91	589.02
633.26	585.10
633.60	581.26
633.95	577.52
634.29	573.63
634.64	569.70
634.98	565.68
635.32	561.80
635.67	558.06
636.01	554.27
636.36	550.50
636.70	546.89
637.05	543.28
637.39	539.87
637.73	536.33
638.08	532.85
638.42	529.34
638.77	525.69
639.11	522.04
639.45	518.43
639.80	514.81
640.14	511.39
640.49	507.93
640.83	504.34
641.17	500.79
641.52	497.43
641.86	494.05
642.20	490.85
642.55	487.51
642.89	484.24
643.23	481.18
643.58	478.35
643.92	475.39
644.26	472.47
644.61	469.54
644.95	466.61
645.29	463.63
645.64	460.62
645.98	457.75
646.32	455.05
646.66	452.37
647.01	449.64
647.35	446.96
647.69	444.17
648.04	441.52
648.38	438.92
648.72	436.27
649.06	433.70
649.41	431.15
649.75	428.60
650.09	426.07
650.43	423.55
650.78	421.01
651.12	418.47
651.46	416.03
651.80	413.67
652.14	411.40
652.49	409.14
652.83	406.93
653.17	404.71
653.51	402.56
653.85	400.47
654.20	398.33
654.54	396.10
654.88	394.06
655.22	392.10
655.56	390.08
655.90	388.16
656.25	386.25
656.59	384.34
656.93	382.53
657.27	380.77
657.61	378.91
657.95	377.10
658.29	375.29
658.64	373.52
658.98	371.73
659.32	369.97
659.66	368.31
660.00	366.67
660.34	365.06
660.68	363.39
661.02	361.66
661.36	360.04
661.70	358.49
662.05	356.92
662.39	355.34
662.73	353.86
663.07	352.40
663.41	350.95
663.75	349.54
664.09	348.12
664.43	346.62
664.77	345.22
665.11	343.76
665.45	342.39
665.79	341.01
666.13	339.62
666.47	338.22
666.81	336.80
667.15	335.34
667.49	333.99
667.83	332.68
668.17	331.41
668.51	330.17
668.85	328.94
669.19	327.79
669.53	326.56
669.87	325.31
670.21	324.10
670.55	322.90
670.89	321.77
671.23	320.61
671.57	319.46
671.91	318.38
672.25	317.35
672.58	316.31
672.92	315.24
673.26	314.24
673.60	313.24
673.94	312.23
674.28	311.28
674.62	310.33
674.96	309.34
675.30	308.41
675.64	307.46
675.97	306.52
676.31	305.55
676.65	304.60
676.99	303.71
677.33	302.77
677.67	301.88
678.01	300.91
678.34	300.01
678.68	299.17
679.02	298.30
679.36	297.43
679.70	296.58
680.04	295.75
680.37	294.91
680.71	294.10
681.05	293.34
681.39	292.55
681.73	291.71
682.06	290.91
682.40	290.13
682.74	289.38
683.08	288.64
683.42	287.88
683.75	287.20
684.09	286.44
684.43	285.74
684.77	285.01
685.10	284.34
685.44	283.64
685.78	282.94
686.12	282.28
686.45	281.60
686.79	280.92
687.13	280.27
687.46	279.59
687.80	278.94
688.14	278.24
688.48	277.60
688.81	276.96
689.15	276.38
689.49	275.75
689.82	275.13
690.16	274.47
690.50	273.86
690.83	273.25
691.17	272.66
691.51	272.09
691.84	271.54
692.18	270.94
692.52	270.34
692.85	269.76
693.19	269.22
693.52	268.67
693.86	268.11
694.20	267.57
694.53	267.05
694.87	266.52
695.21	266.02
695.54	265.51
695.88	264.99
696.21	264.44
696.55	263.93
696.88	263.43
697.22	262.95
697.56	262.46
697.89	261.92
698.23	261.42
698.56	260.90
698.90	260.43
699.23	259.94
699.57	259.50
699.90	259.05
700.24	258.56
700.58	258.12
700.91	257.71
701.25	257.37
701.58	256.98
701.92	256.60
702.25	256.19
702.59	255.76
702.92	255.36
703.26	254.97
703.59	254.57
703.93	254.26
704.26	253.89
704.60	253.51
704.93	253.15
705.26	252.78
705.60	252.46
705.93	252.08
706.27	251.76
706.60	251.44
706.94	251.12
707.27	250.75
707.61	250.40
707.94	250.03
708.27	249.60
708.61	249.21
708.94	248.85
709.28	248.52
709.61	248.20
709.94	247.89
710.28	247.60
710.61	247.31
710.95	246.94
711.28	246.71
711.61	246.42
711.95	246.17
712.28	245.88
712.61	245.58
712.95	245.37
713.28	245.15
713.61	244.87
713.95	244.58
714.28	244.34
714.61	244.08
714.95	243.83
715.28	243.58
715.61	243.33
715.95	243.11
716.28	242.86
716.61	242.65
716.95	242.41
717.28	242.18
717.61	241.94
717.94	241.72
718.28	241.42
718.61	241.19
718.94	240.95
719.27	240.74
719.61	240.54
719.94	240.30
720.27	240.03
720.60	239.82
720.94	239.62
721.27	239.43
721.60	239.25
721.93	239.07
722.27	238.91
722.60	238.74
722.93	238.54
723.26	238.37
723.59	238.16
723.93	238.00
724.26	237.83
724.59	237.65
724.92	237.49
725.25	237.36
725.59	237.20
725.92	237.06
726.25	236.90
726.58	236.75
726.91	236.59
727.24	236.45
727.57	236.30
727.91	236.14
728.24	236.00
728.57	235.85
728.90	235.71
729.23	235.53
729.56	235.43
729.89	235.30
730.22	235.15
730.55	235.01
730.89	234.86
731.22	234.72
731.55	234.59
731.88	234.46
732.21	234.31
732.54	234.17
732.87	234.05
733.20	233.93
733.53	233.81
733.86	233.70
734.19	233.57
734.52	233.47
734.85	233.43
735.18	233.29
735.51	233.21
735.84	233.09
736.17	233.01
736.50	232.85
736.83	232.87
737.16	232.77
737.49	232.67
737.82	232.57
738.15	232.49
738.48	232.40
738.81	232.29
739.14	232.18
739.47	232.08
739.80	231.97
740.13	231.88
740.46	231.77
740.79	231.66
741.12	231.57
741.45	231.46
741.78	231.31
742.11	231.25
742.44	231.14
742.77	231.06
743.10	230.95
743.43	230.86
743.75	230.67
744.08	230.74
744.41	230.64
744.74	230.55
745.07	230.45
745.40	230.39
745.73	230.35
746.06	230.28
746.39	230.21
746.71	230.13
747.04	230.04
747.37	229.96
747.70	229.91
748.03	229.83
748.36	229.78
748.68	229.70
749.01	229.60
749.34	229.53
749.67	229.46
750.00	229.40
750.33	229.41
750.65	229.35
750.98	229.13
751.31	229.07
751.64	229.00
751.97	228.99
752.29	228.91
752.62	228.80
752.95	228.72
753.28	228.64
753.60	228.57
753.93	228.53
754.26	228.47
754.59	228.37
754.91	228.29
755.24	228.22
755.57	228.20
755.90	228.14
756.22	228.07
756.55	227.99
756.88	227.90
757.20	227.77
757.53	227.68
757.86	227.62
758.19	227.57
758.51	227.52
758.84	227.41
759.17	227.35
759.49	227.30
759.82	227.30
760.15	227.26
760.47	227.21
760.80	227.14
761.13	227.10
761.45	227.06
761.78	227.02
762.11	226.98
762.43	226.87
762.76	226.82
763.08	226.80
763.41	226.76
763.74	226.72
764.06	226.67
764.39	226.64
764.71	226.59
765.04	226.54
765.37	226.49
765.69	226.45
766.02	226.40
766.34	226.36
766.67	226.28
767.00	226.25
767.32	226.27
767.65	226.29
767.97	226.25
768.30	226.21
768.62	226.17
768.95	226.12
769.27	226.09
769.60	226.07
769.92	226.01
770.25	225.96
770.57	225.91
770.90	225.87
771.22	225.83
771.55	225.79
771.87	225.77
772.20	225.74
772.52	225.79
772.85	225.89
773.17	225.86
773.50	225.82
773.82	225.78
774.15	225.70
774.47	225.60
774.80	225.56
775.12	225.53
775.45	225.50
775.77	225.48
776.09	225.46
776.42	225.43
776.74	225.44
777.07	225.41
777.39	225.39
777.72	225.36
778.04	225.35
778.36	225.32
778.69	225.29
779.01	225.28
779.33	225.17
779.66	225.02
779.98	224.99
780.31	224.98
780.63	225.00
780.95	225.00
781.28	224.98
781.60	224.95
781.92	224.93
782.25	224.92
782.57	224.89
782.89	224.87
783.22	224.84
783.54	224.80
783.86	224.79
784.19	224.76
784.51	224.78
784.83	224.75
785.16	224.73
785.48	224.72
785.80	224.69
786.12	224.68
786.45	224.67
786.77	224.65
787.09	224.63
787.42	224.57
787.74	224.56
788.06	224.55
788.38	224.53
788.71	224.51
789.03	224.50
789.35	224.49
789.67	224.47
789.99	224.46
790.32	224.43
790.64	224.42
790.96	224.51
791.28	224.46
791.61	224.44
791.93	224.43
792.25	224.40
792.57	224.46
792.89	224.43
793.21	224.42
793.54	224.40
793.86	224.37
794.18	224.37
794.50	224.33
794.82	224.32
795.14	224.32
795.47	224.32
795.79	224.31
796.11	224.28
796.43	224.26
796.75	224.25
797.07	224.24
797.39	224.22
797.71	224.13
798.04	224.12
798.36	224.12
798.68	224.10
799.00	224.10
799.32	224.04
799.64	224.05
799.96	224.03
800.28	224.04
800.60	224.03
800.92	224.02
801.24	224.00
801.56	224.00
801.89	223.98
802.21	223.97
802.53	223.94
802.85	223.95
803.17	223.99
803.49	223.96
803.81	223.94
804.13	223.92
804.45	223.90
804.77	223.89
805.09	223.88
805.41	223.86
805.73	223.84
806.05	223.80
806.37	223.78
806.69	223.76
807.01	223.74
807.33	223.75
807.65	223.70
807.97	223.74
808.28	223.71
808.60	223.71
808.92	223.68
809.24	223.74
809.56	223.71
809.88	223.67
810.20	223.67
810.52	223.69
810.84	223.67
811.16	223.65
811.48	223.64
811.80	223.67
812.12	223.66
812.43	223.67
812.75	223.67
813.07	223.65
813.39	223.65
813.71	223.63
814.03	223.61
814.35	223.61
814.67	223.56
814.98	223.55
815.30	223.54
815.62	223.52
815.94	223.45
816.26	223.45
816.58	223.43
816.89	223.43
817.21	223.40
817.53	223.40
817.85	223.40
818.17	223.39
818.48	223.34
818.80	223.36
819.12	223.34
819.44	223.31
819.76	223.30
820.07	223.30
820.39	223.29
820.71	223.29
821.03	223.29
821.34	223.28
821.66	223.29
821.98	223.29
822.30	223.29
822.61	223.35
822.93	223.32
823.25	223.32
823.57	223.30
823.88	223.31
824.20	223.31
824.52	223.32
824.83	223.31
825.15	223.30
825.47	223.28
825.79	223.29
826.10	223.28
826.42	223.28
826.74	223.28
827.05	223.27
827.37	223.27
827.69	223.26
828.00	223.26
828.32	223.25
828.64	223.24
828.95	223.29
829.27	223.25
829.58	223.25
829.90	223.26
830.22	223.27
830.53	223.25
830.85	223.23
831.17	223.20
831.48	223.20
831.80	223.20
832.11	223.19
832.43	223.17
832.75	223.17
833.06	223.23
833.38	223.21
833.69	223.20
834.01	223.20
834.32	223.19
834.64	223.18
834.96	223.18
835.27	223.18
835.59	223.14
835.90	223.12
836.22	223.11
836.53	223.09
836.85	223.08
837.16	223.18
837.48	223.18
837.79	223.22
838.11	223.22
838.42	223.21
838.74	223.22
839.05	223.22
839.37	223.21
839.68	223.14
840.00	223.13
840.31	223.14
840.63	223.13
840.94	223.12
841.26	223.11
841.57	223.10
841.88	223.10
842.20	223.09
842.51	223.06
842.83	223.06
843.14	223.15
843.46	223.15
843.77	223.09
844.08	223.09
844.40	223.05
844.71	223.04
845.03	223.02
845.34	223.01
845.65	223.00
845.97	223.01
846.28	223.02
846.60	223.02
846.91	223.00
847.22	223.00
847.54	223.02
847.85	223.03
848.16	223.02
848.48	223.00
848.79	223.04
849.10	223.05
849.42	223.06
849.73	222.96
850.04	222.96
850.36	222.91
850.67	222.93
850.98	222.94
851.30	222.94
851.61	222.94
851.92	222.94
852.23	222.97
852.55	222.97
852.86	222.97
853.17	222.98
853.49	223.00
853.80	223.01
854.11	223.02
854.42	223.03
854.74	223.02
855.05	223.02
855.36	222.97
855.67	222.97
855.99	222.97
856.30	223.09
856.61	223.08
856.92	223.08
857.23	223.08
857.55	223.07
857.86	223.05
858.17	223.07
858.48	223.05
858.79	223.02
859.11	223.03
859.42	223.02
859.73	223.01
860.04	223.00
860.35	222.97
860.66	222.94
860.98	222.93
861.29	222.94
861.60	222.94
861.91	222.96
862.22	222.94
862.53	222.93
862.84	222.81
863.16	222.83
863.47	222.81
863.78	222.79
864.09	222.80
864.40	222.80
864.71	222.80
865.02	222.81
865.33	222.80
865.64	222.78
865.95	222.78
866.27	222.84
866.58	222.82
866.89	222.84
867.20	222.84
867.51	222.82
867.82	222.81
868.13	222.84
868.44	222.82
868.75	222.83
869.06	222.84
869.37	222.85
869.68	222.82
869.99	222.84
870.30	222.85
870.61	222.86
870.92	222.85
871.23	222.83
871.54	222.85
871.85	222.88
872.16	222.89
872.47	222.88
872.78	222.82
873.09	222.83
873.40	222.81
873.71	222.82
874.02	222.83
874.33	222.82
874.64	222.80
874.95	222.82
875.26	222.80
875.56	222.79
875.87	222.79
876.18	222.78
876.49	222.88
876.80	222.87
877.11	222.85
877.42	222.85
877.73	222.86
878.04	222.84
878.35	222.83
878.66	222.83
878.96	222.83
879.27	222.83
879.58	222.82
879.89	222.82
880.20	222.84
880.51	222.84
880.82	222.84
881.12	222.84
881.43	222.82
881.74	222.81
882.05	222.80
882.36	222.80
882.67	222.81
882.97	222.70
883.28	222.69
883.59	222.69
883.90	222.70
884.21	222.72
884.51	222.71
884.82	222.69
885.13	222.69
885.44	222.69
885.74	222.69
886.05	222.69
886.36	222.69
886.67	222.65
886.98	222.71
887.28	222.72
887.59	222.71
887.90	222.72
888.20	222.72
888.51	222.74
888.82	222.73
889.13	222.73
889.43	222.82
889.74	222.82
890.05	222.82
890.35	222.81
890.66	222.79
890.97	222.78
891.28	222.77
891.58	222.77
891.89	222.77
892.20	222.76
892.50	222.75
892.81	222.74
893.12	222.74
893.42	222.69
893.73	222.69
894.04	222.69
894.34	222.70
894.65	222.69
894.95	222.68
895.26	222.69
895.57	222.73
895.87	222.63
896.18	222.65
896.48	222.65
896.79	222.65
897.10	222.67
897.40	222.67
897.71	222.68
898.01	222.68
898.32	222.69
898.63	222.69
898.93	222.69
899.24	222.70
899.54	222.69
899.85	222.69
900.15	222.68
900.46	222.68
900.76	222.69
901.07	222.69
901.38	222.68
901.68	222.69
901.99	222.64
902.29	222.65
902.60	222.64
902.90	222.63
903.21	222.62
903.51	222.62
903.82	222.64
904.12	222.64
904.43	222.64
904.73	222.63
905.03	222.64
905.34	222.73
905.64	222.73
905.95	222.73
906.25	222.73
906.56	222.72
906.86	222.72
907.17	222.71
907.47	222.72
907.77	222.71
908.08	222.68
908.38	222.69
908.69	222.69
908.99	222.71
909.30	222.71
909.60	222.71
909.90	222.72
910.21	222.69
910.51	222.67
910.81	222.67
911.12	222.68
911.42	222.68
911.73	222.57
912.03	222.58
912.33	222.60
912.64	222.59
912.94	222.57
913.24	222.56
913.55	222.55
913.85	222.55
914.15	222.57
914.46	222.58
914.76	222.57
915.06	222.57
915.37	222.55
915.67	222.54
915.97	222.54
916.27	222.52
916.58	222.52
916.88	222.52
917.18	222.51
917.49	222.58
917.79	222.57
918.09	222.58
918.39	222.60
918.70	222.59
919.00	222.60
919.30	222.65
919.60	222.64
919.91	222.63
920.21	222.64
920.51	222.61
920.81	222.60
921.12	222.62
921.42	222.61
921.72	222.62
922.02	222.63
922.32	222.64
922.63	222.64
922.93	222.70
923.23	222.71
923.53	222.70
923.83	222.63
924.13	222.64
924.44	222.64
924.74	222.65
925.04	222.67
925.34	222.67
925.64	222.62
925.94	222.63
926.24	222.68
926.55	222.67
926.85	222.69
927.15	222.68
927.45	222.68
927.75	222.68
928.05	222.68
928.35	222.67
928.65	222.68
928.95	222.69
929.26	222.64
929.56	222.66
929.86	222.67
930.16	222.66
930.46	222.65
930.76	222.66
931.06	222.61
931.36	222.58
931.66	222.60
931.96	222.61
932.26	222.62
932.56	222.57
932.86	222.58
933.16	222.57
933.46	222.56
933.76	222.55
934.06	222.57
934.36	222.60
934.66	222.60
934.96	222.58
935.26	222.58
935.56	222.60
935.86	222.57
936.16	222.55
936.46	222.54
936.76	222.53
937.06	222.51
937.36	222.53
937.66	222.53
937.96	222.52
938.26	222.50
938.56	222.49
938.86	222.50
939.16	222.52
939.46	222.53
939.76	222.53
940.06	222.53
940.35	222.52
940.65	222.46
940.95	222.48
941.25	222.46
941.55	222.44
941.85	222.43
942.15	222.46
942.45	222.48
942.75	222.49
943.04	222.49
943.34	222.51
943.64	222.50
943.94	222.49
944.24	222.49
944.54	222.50
944.84	222.50
945.13	222.48
945.43	222.46
945.73	222.46
946.03	222.45
946.33	222.45
946.62	222.43
946.92	222.43
947.22	222.44
947.52	222.44
947.82	222.46
948.11	222.44
948.41	222.42
948.71	222.39
949.01	222.39
949.31	222.38
949.60	222.38
949.90	222.39
950.20	222.39
950.50	222.38
950.79	222.38
951.09	222.39
951.39	222.39
951.69	222.38
951.98	222.40
952.28	222.41
952.58	222.40
952.87	222.41
953.17	222.42
953.47	222.41
953.76	222.41
954.06	222.39
954.36	222.38
954.66	222.38
954.95	222.41
955.25	222.42
955.55	222.43
955.84	222.41
956.14	222.41
956.44	222.42
956.73	222.40
957.03	222.41
957.32	222.41
957.62	222.40
957.92	222.43
958.21	222.41
958.51	222.53
958.81	222.55
959.10	222.55
959.40	222.57
959.69	222.58
959.99	222.59
960.29	222.60
960.58	222.60
960.88	222.63
961.17	222.62
961.47	222.63
961.76	222.62
962.06	222.64
962.36	222.62
962.65	222.63
962.95	222.64
963.24	222.63
963.54	222.63
963.83	222.64
964.13	222.63
964.42	222.62
964.72	222.53
965.01	222.53
965.31	222.53
965.60	222.50
965.90	222.57
966.19	222.54
966.49	222.55
966.78	222.54
967.08	222.54
967.37	222.54
967.67	222.51
967.96	222.53
968.26	222.53
968.55	222.54
968.85	222.54
969.14	222.53
969.43	222.53
969.73	222.52
970.02	222.51
970.32	222.51
970.61	222.50
970.91	222.46
971.20	222.45
971.49	222.44
971.79	222.45
972.08	222.38
972.38	222.39
972.67	222.38
972.96	222.40
973.26	222.37
973.55	222.40
973.85	222.40
974.14	222.39
974.43	222.39
974.73	222.37
975.02	222.36
975.31	222.37
975.61	222.36
975.90	222.35
976.19	222.35
976.49	222.35
976.78	222.36
977.07	222.37
977.37	222.37
977.66	222.38
977.95	222.36
978.24	222.37
978.54	222.39
978.83	222.38
979.12	222.37
979.42	222.38
979.71	222.36
980.00	222.36
980.29	222.37
980.59	222.35
980.88	222.38
981.17	222.38
981.46	222.38
981.76	222.38
982.05	222.42
982.34	222.43
982.63	222.42
982.93	222.42
983.22	222.44
983.51	222.45
983.80	222.46
984.09	222.48
984.39	222.48
984.68	222.46
984.97	222.47
985.26	222.46
985.55	222.47
985.85	222.45
986.14	222.47
986.43	222.48
986.72	222.47
987.01	222.44
987.30	222.45
987.59	222.44
987.89	222.44
988.18	222.40
988.47	222.40
988.76	222.39
989.05	222.38
989.34	222.37
989.63	222.39
989.92	222.37
990.22	222.35
990.51	222.35
990.80	222.34
991.09	222.35
991.38	222.36
991.67	222.35
991.96	222.34
992.25	222.34
992.54	222.32
992.83	222.32
993.12	222.32
993.41	222.33
993.70	222.38
993.99	222.39
994.28	222.41
994.58	222.42
994.87	222.42
995.16	222.42
995.45	222.41
995.74	222.37
996.03	222.39
996.32	222.41
996.61	222.43
996.90	222.42
997.19	222.42
997.48	222.41
997.77	222.40
998.06	222.41
998.34	222.40
998.63	222.40
998.92	222.40
999.21	222.42
999.50	222.42
999.79	222.39
1000.08	222.38
1000.37	222.38
1000.66	222.36
1000.95	222.39
1001.24	222.40
1001.53	222.41
1001.82	222.40
1002.11	222.38
1002.40	222.39
1002.68	222.41
1002.97	222.48
1003.26	222.47
1003.55	222.46
1003.84	222.47
1004.13	222.50
1004.42	222.50
1004.71	222.50
1004.99	222.49
1005.28	222.51
1005.57	222.50
1005.86	222.49
1006.15	222.47
1006.44	222.45
1006.72	222.47
1007.01	222.45
1007.30	222.45
1007.59	222.44
1007.88	222.44
1008.17	222.44
1008.45	222.42
1008.74	222.37
1009.03	222.32
1009.32	222.33
1009.60	222.33
1009.89	222.32
1010.18	222.27
1010.47	222.27
1010.76	222.27
1011.04	222.27
1011.33	222.27
1011.62	222.27
1011.91	222.29
1012.19	222.29
1012.48	222.30
1012.77	222.30
1013.05	222.34
1013.34	222.33
1013.63	222.33
1013.92	222.34
1014.20	222.33
1014.49	222.34
1014.78	222.35
1015.06	222.32
1015.35	222.32
1015.64	222.33
1015.92	222.35
1016.21	222.36
1016.50	222.36
1016.78	222.37
1017.07	222.37
1017.36	222.36
1017.64	222.34
1017.93	222.35
1018.22	222.34
1018.50	222.34
1018.79	222.33
1019.08	222.29
1019.36	222.29
1019.65	222.29
1019.93	222.31
1020.22	222.33
1020.51	222.38
1020.79	222.37
1021.08	222.19
1021.36	222.14
1021.65	222.32
1021.94	222.24
1022.22	222.36
1022.51	222.18
1022.79	222.82
1023.08	222.50
1023.36	223.56
1023.65	222.12
>>>>>End Processed Spectral Data<<<<<
