SpectraSuite Data File
++++++++++++++++++++++++++++++++++++
Date: Wed Sep 30 17:16:27 EDT 2015
User: lab3
Dark Spectrum Present: No
Reference Spectrum Present: No
Number of Sampled Component Spectra: 1
Spectrometers: USB2E7196
Integration Time (usec): 36000 (USB2E7196)
Spectra Averaged: 3000 (USB2E7196)
Boxcar Smoothing: 10 (USB2E7196)
Correct for Electrical Dark: No (USB2E7196)
Strobe/Lamp Enabled: No (USB2E7196)
Correct for Detector Non-linearity: No (USB2E7196)
Correct for Stray Light: No (USB2E7196)
Number of Pixels in Processed Spectrum: 2048
>>>>>Begin Processed Spectral Data<<<<<
339.09	0.00
339.48	210.33
339.86	211.64
340.24	213.14
340.63	214.60
341.01	217.45
341.39	217.14
341.78	218.50
342.16	219.75
342.54	220.23
342.93	208.79
343.31	219.34
343.69	219.86
344.07	220.33
344.46	220.74
344.84	221.12
345.22	221.35
345.60	221.61
345.99	221.80
346.37	221.93
346.75	222.03
347.13	222.10
347.52	222.17
347.90	222.25
348.28	222.28
348.66	222.33
349.05	222.33
349.43	222.38
349.81	222.43
350.19	222.48
350.57	222.54
350.96	222.62
351.34	222.71
351.72	222.80
352.10	222.90
352.48	222.97
352.87	223.02
353.25	223.08
353.63	223.13
354.01	223.19
354.39	223.27
354.77	223.34
355.15	223.44
355.54	223.48
355.92	223.52
356.30	223.59
356.68	223.73
357.06	223.81
357.44	223.86
357.82	223.91
358.20	224.02
358.58	224.07
358.97	224.14
359.35	224.22
359.73	224.30
360.11	224.36
360.49	224.42
360.87	224.48
361.25	224.55
361.63	224.63
362.01	224.68
362.39	224.71
362.77	224.76
363.15	224.78
363.53	224.83
363.91	224.86
364.29	224.88
364.67	224.81
365.05	224.83
365.43	224.87
365.81	224.90
366.19	224.92
366.57	224.97
366.95	224.98
367.33	224.95
367.71	224.94
368.09	224.96
368.47	224.96
368.85	224.95
369.23	224.96
369.61	224.91
369.99	224.92
370.37	224.93
370.75	224.99
371.13	224.96
371.51	224.93
371.89	224.91
372.27	224.88
372.65	224.87
373.03	224.83
373.41	224.78
373.78	224.74
374.16	224.65
374.54	224.57
374.92	224.52
375.30	224.49
375.68	224.42
376.06	224.38
376.44	224.33
376.82	224.28
377.19	224.24
377.57	224.19
377.95	224.11
378.33	224.05
378.71	223.90
379.09	223.85
379.47	223.82
379.84	223.76
380.22	223.70
380.60	223.62
380.98	223.58
381.36	223.53
381.73	223.46
382.11	223.43
382.49	223.39
382.87	223.33
383.25	223.28
383.62	223.36
384.00	223.29
384.38	223.25
384.76	223.23
385.13	223.21
385.51	223.17
385.89	223.11
386.27	223.08
386.64	223.06
387.02	223.00
387.40	222.95
387.78	222.92
388.15	222.90
388.53	222.87
388.91	222.83
389.29	222.79
389.66	222.79
390.04	222.75
390.42	222.74
390.79	222.72
391.17	222.70
391.55	222.57
391.92	222.55
392.30	222.55
392.68	222.51
393.05	222.49
393.43	222.49
393.81	222.49
394.18	222.47
394.56	222.47
394.94	222.50
395.31	222.50
395.69	222.53
396.06	222.56
396.44	222.58
396.82	222.60
397.19	222.67
397.57	222.67
397.95	222.71
398.32	222.70
398.70	222.75
399.07	222.81
399.45	222.84
399.82	222.88
400.20	222.92
400.58	222.98
400.95	222.99
401.33	223.07
401.70	223.20
402.08	223.29
402.45	223.37
402.83	223.47
403.20	223.56
403.58	223.64
403.95	223.76
404.33	223.89
404.71	224.01
405.08	224.19
405.46	224.33
405.83	224.49
406.21	224.65
406.58	224.83
406.96	225.01
407.33	225.22
407.70	225.45
408.08	225.78
408.45	226.06
408.83	226.36
409.20	226.63
409.58	226.87
409.95	227.21
410.33	227.58
410.70	227.92
411.08	228.32
411.45	228.75
411.82	229.18
412.20	229.68
412.57	230.27
412.95	230.72
413.32	231.33
413.69	231.95
414.07	232.61
414.44	233.32
414.82	234.06
415.19	234.92
415.56	235.78
415.94	236.67
416.31	237.68
416.68	238.69
417.06	239.86
417.43	240.96
417.81	242.22
418.18	243.52
418.55	244.93
418.93	246.39
419.30	247.92
419.67	249.55
420.04	251.22
420.42	252.96
420.79	254.98
421.16	257.03
421.54	259.11
421.91	261.27
422.28	263.52
422.66	265.94
423.03	268.26
423.40	270.68
423.77	273.29
424.15	275.95
424.52	278.72
424.89	281.73
425.26	284.72
425.64	287.49
426.01	290.61
426.38	293.79
426.75	297.10
427.13	300.48
427.50	304.00
427.87	307.67
428.24	311.38
428.61	314.92
428.99	318.73
429.36	322.92
429.73	326.93
430.10	330.92
430.47	335.01
430.85	339.20
431.22	343.67
431.59	348.27
431.96	352.75
432.33	357.70
432.70	362.40
433.08	367.95
433.45	373.19
433.82	378.34
434.19	384.10
434.56	389.74
434.93	395.18
435.30	400.55
435.68	406.60
436.05	412.53
436.42	418.46
436.79	423.86
437.16	429.69
437.53	435.94
437.90	442.17
438.27	448.24
438.64	454.85
439.01	460.83
439.38	466.27
439.75	471.52
440.13	477.53
440.50	483.22
440.87	487.72
441.24	492.66
441.61	498.13
441.98	502.12
442.35	506.87
442.72	511.76
443.09	516.44
443.46	519.47
443.83	521.70
444.20	523.59
444.57	526.36
444.94	528.00
445.31	529.72
445.68	531.26
446.05	532.42
446.42	532.31
446.79	532.08
447.16	531.91
447.53	531.80
447.90	530.08
448.27	528.48
448.64	525.92
449.01	524.25
449.37	520.54
449.74	517.17
450.11	512.82
450.48	508.01
450.85	503.18
451.22	499.08
451.59	495.07
451.96	491.42
452.33	486.06
452.70	481.29
453.07	475.44
453.43	469.58
453.80	463.93
454.17	458.48
454.54	453.44
454.91	447.74
455.28	442.36
455.65	437.30
456.02	431.91
456.38	427.57
456.75	421.94
457.12	417.41
457.49	412.83
457.86	408.46
458.23	404.65
458.59	400.43
458.96	396.07
459.33	392.23
459.70	388.33
460.07	385.34
460.43	381.83
460.80	378.54
461.17	375.65
461.54	372.53
461.91	369.60
462.27	366.62
462.64	364.19
463.01	361.40
463.38	358.59
463.74	356.02
464.11	353.75
464.48	351.69
464.85	349.48
465.21	347.79
465.58	345.93
465.95	343.76
466.32	342.02
466.68	340.34
467.05	338.65
467.42	337.00
467.78	335.24
468.15	333.60
468.52	332.39
468.88	330.80
469.25	329.33
469.62	328.17
469.98	326.91
470.35	325.79
470.72	324.78
471.08	323.74
471.45	322.88
471.82	321.94
472.18	320.97
472.55	320.33
472.92	319.54
473.28	318.93
473.65	318.31
474.02	317.71
474.38	317.22
474.75	316.94
475.11	316.54
475.48	316.38
475.85	316.22
476.21	316.15
476.58	316.14
476.94	316.31
477.31	316.41
477.67	316.55
478.04	316.79
478.41	317.11
478.77	317.56
479.14	317.89
479.50	318.41
479.87	319.08
480.23	319.76
480.60	320.41
480.96	321.08
481.33	322.00
481.69	322.93
482.06	323.86
482.42	324.73
482.79	325.79
483.15	327.00
483.52	328.35
483.88	329.67
484.25	331.08
484.61	332.53
484.98	334.09
485.34	335.84
485.71	337.66
486.07	339.59
486.44	341.51
486.80	343.65
487.17	345.85
487.53	348.27
487.90	350.78
488.26	353.49
488.62	356.37
488.99	359.24
489.35	362.24
489.72	365.47
490.08	368.88
490.44	372.37
490.81	376.01
491.17	379.77
491.54	383.77
491.90	387.87
492.26	392.28
492.63	396.93
492.99	401.78
493.36	406.74
493.72	411.98
494.08	417.35
494.45	423.03
494.81	428.89
495.17	434.87
495.54	441.19
495.90	447.83
496.26	454.61
496.63	461.62
496.99	468.90
497.35	476.56
497.72	484.50
498.08	492.61
498.44	500.96
498.80	509.84
499.17	518.94
499.53	528.38
499.89	538.05
500.26	547.90
500.62	558.01
500.98	568.80
501.34	579.72
501.71	591.15
502.07	602.80
502.43	614.86
502.79	627.28
503.16	640.08
503.52	653.07
503.88	666.35
504.24	680.10
504.60	694.13
504.97	708.51
505.33	723.28
505.69	738.96
506.05	754.85
506.41	770.77
506.78	786.99
507.14	803.69
507.50	820.96
507.86	838.61
508.22	856.53
508.59	874.46
508.95	893.13
509.31	912.24
509.67	932.00
510.03	952.01
510.39	972.25
510.75	992.69
511.12	1013.37
511.48	1034.45
511.84	1055.66
512.20	1077.19
512.56	1099.85
512.92	1122.68
513.28	1145.22
513.64	1168.08
514.00	1191.39
514.37	1215.01
514.73	1238.64
515.09	1262.11
515.45	1285.96
515.81	1310.39
516.17	1334.93
516.53	1359.16
516.89	1383.49
517.25	1407.98
517.61	1432.69
517.97	1457.58
518.33	1482.31
518.69	1507.29
519.05	1532.49
519.41	1557.80
519.77	1583.38
520.13	1608.22
520.49	1633.25
520.85	1658.49
521.21	1683.62
521.57	1709.31
521.93	1734.35
522.29	1760.19
522.65	1785.81
523.01	1811.27
523.37	1835.95
523.73	1861.28
524.09	1886.83
524.45	1912.24
524.81	1937.25
525.17	1962.09
525.53	1986.61
525.89	2011.02
526.25	2035.60
526.61	2059.62
526.97	2084.00
527.33	2108.27
527.68	2132.41
528.04	2155.79
528.40	2179.02
528.76	2202.47
529.12	2224.86
529.48	2247.73
529.84	2268.80
530.20	2290.34
530.56	2311.61
530.91	2333.00
531.27	2353.85
531.63	2374.08
531.99	2393.79
532.35	2413.32
532.71	2433.01
533.07	2453.25
533.42	2471.94
533.78	2491.10
534.14	2510.17
534.50	2528.40
534.86	2547.23
535.21	2564.28
535.57	2581.22
535.93	2597.33
536.29	2612.27
536.65	2627.98
537.00	2642.60
537.36	2657.84
537.72	2672.06
538.08	2686.04
538.44	2698.90
538.79	2711.97
539.15	2723.26
539.51	2734.42
539.87	2744.98
540.22	2753.46
540.58	2762.06
540.94	2771.31
541.29	2778.97
541.65	2785.78
542.01	2792.06
542.37	2796.47
542.72	2802.69
543.08	2808.39
543.44	2814.04
543.79	2818.96
544.15	2823.09
544.51	2827.04
544.87	2830.04
545.22	2832.72
545.58	2834.28
545.94	2836.30
546.29	2836.90
546.65	2837.64
547.01	2838.44
547.36	2839.47
547.72	2840.78
548.07	2840.56
548.43	2839.70
548.79	2838.15
549.14	2836.57
549.50	2835.55
549.86	2833.68
550.21	2829.54
550.57	2825.87
550.92	2820.69
551.28	2816.12
551.64	2811.33
551.99	2806.95
552.35	2802.20
552.70	2796.91
553.06	2792.27
553.41	2787.14
553.77	2781.42
554.13	2776.41
554.48	2770.52
554.84	2763.02
555.19	2755.51
555.55	2747.36
555.90	2739.74
556.26	2733.24
556.61	2726.15
556.97	2716.89
557.32	2708.71
557.68	2700.70
558.03	2692.01
558.39	2684.17
558.74	2676.37
559.10	2667.49
559.45	2658.25
559.81	2649.08
560.16	2639.44
560.52	2629.39
560.87	2620.33
561.23	2610.90
561.58	2601.02
561.94	2591.00
562.29	2580.35
562.64	2570.27
563.00	2560.59
563.35	2550.79
563.71	2539.88
564.06	2528.59
564.42	2518.29
564.77	2507.53
565.12	2496.86
565.48	2485.84
565.83	2475.44
566.19	2465.22
566.54	2454.49
566.89	2442.86
567.25	2431.46
567.60	2420.80
567.96	2409.68
568.31	2397.23
568.66	2384.71
569.02	2373.21
569.37	2361.47
569.72	2350.34
570.08	2338.38
570.43	2325.83
570.78	2312.96
571.14	2300.13
571.49	2287.92
571.84	2275.93
572.20	2262.56
572.55	2249.81
572.90	2236.90
573.26	2223.19
573.61	2208.84
573.96	2194.73
574.31	2180.95
574.67	2167.35
575.02	2153.19
575.37	2138.69
575.72	2124.50
576.08	2110.76
576.43	2095.94
576.78	2081.12
577.13	2067.09
577.49	2053.29
577.84	2039.91
578.19	2025.71
578.54	2011.02
578.90	1995.81
579.25	1980.39
579.60	1966.48
579.95	1952.11
580.30	1937.82
580.66	1923.72
581.01	1909.09
581.36	1894.97
581.71	1881.46
582.06	1867.44
582.42	1853.58
582.77	1840.44
583.12	1826.81
583.47	1813.31
583.82	1799.94
584.17	1786.41
584.53	1772.78
584.88	1759.11
585.23	1745.08
585.58	1731.60
585.93	1718.45
586.28	1706.15
586.63	1693.64
586.98	1680.33
587.34	1667.26
587.69	1653.75
588.04	1640.48
588.39	1627.90
588.74	1614.72
589.09	1601.33
589.44	1587.90
589.79	1575.02
590.14	1561.99
590.49	1549.22
590.84	1536.32
591.19	1524.01
591.54	1511.26
591.89	1498.29
592.25	1485.69
592.60	1472.69
592.95	1460.21
593.30	1448.10
593.65	1435.80
594.00	1423.77
594.35	1412.49
594.70	1400.28
595.05	1389.06
595.40	1377.71
595.75	1365.83
596.10	1354.76
596.45	1343.95
596.80	1333.54
597.15	1322.89
597.50	1312.23
597.85	1301.75
598.19	1291.48
598.54	1280.68
598.89	1270.60
599.24	1260.81
599.59	1250.75
599.94	1241.75
600.29	1232.62
600.64	1223.28
600.99	1213.30
601.34	1203.76
601.69	1193.69
602.04	1184.80
602.39	1175.78
602.74	1167.00
603.08	1158.46
603.43	1149.41
603.78	1140.17
604.13	1131.09
604.48	1121.95
604.83	1113.12
605.18	1104.18
605.53	1095.18
605.87	1086.23
606.22	1077.56
606.57	1068.63
606.92	1059.74
607.27	1050.72
607.62	1041.81
607.96	1033.13
608.31	1025.50
608.66	1017.44
609.01	1009.76
609.36	1001.96
609.70	993.94
610.05	985.77
610.40	977.94
610.75	970.26
611.10	962.80
611.44	954.99
611.79	947.49
612.14	939.58
612.49	931.83
612.83	924.56
613.18	917.39
613.53	910.06
613.88	902.82
614.22	896.21
614.57	889.36
614.92	882.52
615.27	875.67
615.61	868.64
615.96	861.89
616.31	855.04
616.65	848.13
617.00	841.46
617.35	834.87
617.70	828.32
618.04	821.88
618.39	815.46
618.74	809.37
619.08	803.10
619.43	797.09
619.78	791.10
620.12	784.91
620.47	778.94
620.82	772.97
621.16	767.36
621.51	761.39
621.85	755.42
622.20	749.47
622.55	743.70
622.89	737.85
623.24	732.02
623.59	726.35
623.93	720.70
624.28	715.22
624.62	709.74
624.97	704.21
625.32	698.79
625.66	693.27
626.01	687.74
626.35	682.34
626.70	676.99
627.04	671.81
627.39	666.71
627.73	661.68
628.08	656.92
628.43	651.95
628.77	647.06
629.12	642.34
629.46	637.82
629.81	633.13
630.15	628.37
630.50	623.74
630.84	619.28
631.19	615.00
631.53	610.75
631.88	606.41
632.22	602.17
632.57	598.15
632.91	594.06
633.26	590.06
633.60	586.17
633.95	582.39
634.29	578.48
634.64	574.49
634.98	570.41
635.32	566.48
635.67	562.74
636.01	558.95
636.36	555.17
636.70	551.53
637.05	547.88
637.39	544.42
637.73	540.82
638.08	537.31
638.42	533.78
638.77	530.10
639.11	526.41
639.45	522.75
639.80	519.09
640.14	515.62
640.49	512.10
640.83	508.48
641.17	504.89
641.52	501.48
641.86	498.08
642.20	494.83
642.55	491.45
642.89	488.13
643.23	485.03
643.58	482.18
643.92	479.18
644.26	476.23
644.61	473.26
644.95	470.30
645.29	467.26
645.64	464.19
645.98	461.28
646.32	458.55
646.66	455.83
647.01	453.07
647.35	450.37
647.69	447.57
648.04	444.90
648.38	442.26
648.72	439.57
649.06	436.95
649.41	434.39
649.75	431.81
650.09	429.27
650.43	426.70
650.78	424.12
651.12	421.53
651.46	419.03
651.80	416.65
652.14	414.34
652.49	412.06
652.83	409.84
653.17	407.59
653.51	405.40
653.85	403.29
654.20	401.11
654.54	398.84
654.88	396.77
655.22	394.75
655.56	392.71
655.90	390.76
656.25	388.83
656.59	386.87
656.93	385.03
657.27	383.25
657.61	381.36
657.95	379.53
658.29	377.70
658.64	375.90
658.98	374.07
659.32	372.28
659.66	370.59
660.00	368.91
660.34	367.27
660.68	365.57
661.02	363.81
661.36	362.18
661.70	360.61
662.05	359.02
662.39	357.41
662.73	355.89
663.07	354.39
663.41	352.93
663.75	351.50
664.09	350.06
664.43	348.55
664.77	347.13
665.11	345.66
665.45	344.26
665.79	342.87
666.13	341.47
666.47	340.05
666.81	338.61
667.15	337.15
667.49	335.76
667.83	334.44
668.17	333.15
668.51	331.88
668.85	330.65
669.19	329.47
669.53	328.24
669.87	326.96
670.21	325.72
670.55	324.49
670.89	323.32
671.23	322.13
671.57	320.95
671.91	319.83
672.25	318.76
672.58	317.70
672.92	316.60
673.26	315.57
673.60	314.56
673.94	313.52
674.28	312.56
674.62	311.58
674.96	310.57
675.30	309.62
675.64	308.66
675.97	307.69
676.31	306.71
676.65	305.75
676.99	304.86
677.33	303.90
677.67	303.00
678.01	302.03
678.34	301.12
678.68	300.27
679.02	299.38
679.36	298.51
679.70	297.63
680.04	296.79
680.37	295.93
680.71	295.11
681.05	294.34
681.39	293.53
681.73	292.70
682.06	291.90
682.40	291.10
682.74	290.33
683.08	289.58
683.42	288.81
683.75	288.12
684.09	287.34
684.43	286.62
684.77	285.88
685.10	285.21
685.44	284.52
685.78	283.80
686.12	283.13
686.45	282.44
686.79	281.76
687.13	281.10
687.46	280.41
687.80	279.75
688.14	279.04
688.48	278.39
688.81	277.74
689.15	277.14
689.49	276.49
689.82	275.86
690.16	275.19
690.50	274.57
690.83	273.96
691.17	273.35
691.51	272.76
691.84	272.19
692.18	271.59
692.52	270.97
692.85	270.38
693.19	269.83
693.52	269.26
693.86	268.70
694.20	268.15
694.53	267.62
694.87	267.06
695.21	266.55
695.54	266.03
695.88	265.49
696.21	264.92
696.55	264.41
696.88	263.89
697.22	263.39
697.56	262.89
697.89	262.34
698.23	261.84
698.56	261.31
698.90	260.82
699.23	260.32
699.57	259.87
699.90	259.40
700.24	258.91
700.58	258.45
700.91	258.04
701.25	257.69
701.58	257.29
701.92	256.90
702.25	256.48
702.59	256.05
702.92	255.65
703.26	255.25
703.59	254.85
703.93	254.53
704.26	254.15
704.60	253.75
704.93	253.38
705.26	253.00
705.60	252.67
705.93	252.28
706.27	251.97
706.60	251.64
706.94	251.32
707.27	250.93
707.61	250.57
707.94	250.19
708.27	249.74
708.61	249.35
708.94	248.98
709.28	248.63
709.61	248.30
709.94	247.99
710.28	247.69
710.61	247.40
710.95	247.01
711.28	246.78
711.61	246.49
711.95	246.22
712.28	245.92
712.61	245.62
712.95	245.39
713.28	245.16
713.61	244.86
713.95	244.56
714.28	244.32
714.61	244.05
714.95	243.80
715.28	243.53
715.61	243.29
715.95	243.05
716.28	242.81
716.61	242.59
716.95	242.34
717.28	242.11
717.61	241.85
717.94	241.62
718.28	241.32
718.61	241.10
718.94	240.86
719.27	240.65
719.61	240.44
719.94	240.21
720.27	239.94
720.60	239.72
720.94	239.52
721.27	239.33
721.60	239.15
721.93	238.95
722.27	238.80
722.60	238.63
722.93	238.42
723.26	238.23
723.59	238.01
723.93	237.85
724.26	237.68
724.59	237.50
724.92	237.33
725.25	237.20
725.59	237.03
725.92	236.89
726.25	236.73
726.58	236.57
726.91	236.39
727.24	236.26
727.57	236.11
727.91	235.93
728.24	235.79
728.57	235.63
728.90	235.49
729.23	235.31
729.56	235.21
729.89	235.07
730.22	234.92
730.55	234.79
730.89	234.64
731.22	234.48
731.55	234.34
731.88	234.22
732.21	234.06
732.54	233.91
732.87	233.79
733.20	233.67
733.53	233.55
733.86	233.45
734.19	233.31
734.52	233.21
734.85	233.17
735.18	233.02
735.51	232.93
735.84	232.81
736.17	232.72
736.50	232.56
736.83	232.57
737.16	232.47
737.49	232.38
737.82	232.28
738.15	232.19
738.48	232.10
738.81	231.98
739.14	231.87
739.47	231.76
739.80	231.65
740.13	231.55
740.46	231.43
740.79	231.32
741.12	231.22
741.45	231.11
741.78	230.96
742.11	230.91
742.44	230.79
742.77	230.71
743.10	230.60
743.43	230.51
743.75	230.30
744.08	230.37
744.41	230.27
744.74	230.17
745.07	230.06
745.40	229.99
745.73	229.95
746.06	229.88
746.39	229.82
746.71	229.72
747.04	229.63
747.37	229.56
747.70	229.50
748.03	229.43
748.36	229.36
748.68	229.28
749.01	229.17
749.34	229.10
749.67	229.02
750.00	228.97
750.33	228.98
750.65	228.92
750.98	228.70
751.31	228.64
751.64	228.58
751.97	228.58
752.29	228.50
752.62	228.38
752.95	228.31
753.28	228.22
753.60	228.16
753.93	228.12
754.26	228.05
754.59	227.95
754.91	227.87
755.24	227.80
755.57	227.79
755.90	227.73
756.22	227.65
756.55	227.57
756.88	227.49
757.20	227.36
757.53	227.27
757.86	227.20
758.19	227.15
758.51	227.09
758.84	226.98
759.17	226.92
759.49	226.88
759.82	226.87
760.15	226.84
760.47	226.79
760.80	226.71
761.13	226.67
761.45	226.63
761.78	226.59
762.11	226.54
762.43	226.44
762.76	226.39
763.08	226.37
763.41	226.33
763.74	226.29
764.06	226.24
764.39	226.21
764.71	226.16
765.04	226.10
765.37	226.05
765.69	226.02
766.02	225.98
766.34	225.92
766.67	225.84
767.00	225.81
767.32	225.83
767.65	225.85
767.97	225.81
768.30	225.78
768.62	225.74
768.95	225.68
769.27	225.65
769.60	225.63
769.92	225.57
770.25	225.51
770.57	225.47
770.90	225.43
771.22	225.39
771.55	225.35
771.87	225.33
772.20	225.30
772.52	225.36
772.85	225.45
773.17	225.42
773.50	225.38
773.82	225.33
774.15	225.25
774.47	225.16
774.80	225.11
775.12	225.08
775.45	225.04
775.77	225.02
776.09	224.99
776.42	224.97
776.74	224.98
777.07	224.95
777.39	224.93
777.72	224.89
778.04	224.88
778.36	224.85
778.69	224.82
779.01	224.80
779.33	224.68
779.66	224.53
779.98	224.50
780.31	224.48
780.63	224.50
780.95	224.50
781.28	224.47
781.60	224.45
781.92	224.43
782.25	224.40
782.57	224.38
782.89	224.35
783.22	224.33
783.54	224.28
783.86	224.27
784.19	224.25
784.51	224.26
784.83	224.23
785.16	224.21
785.48	224.19
785.80	224.17
786.12	224.16
786.45	224.15
786.77	224.14
787.09	224.12
787.42	224.06
787.74	224.05
788.06	224.04
788.38	224.02
788.71	223.99
789.03	223.98
789.35	223.98
789.67	223.95
789.99	223.94
790.32	223.92
790.64	223.91
790.96	223.99
791.28	223.94
791.61	223.92
791.93	223.91
792.25	223.89
792.57	223.95
792.89	223.92
793.21	223.91
793.54	223.88
793.86	223.86
794.18	223.86
794.50	223.82
794.82	223.81
795.14	223.82
795.47	223.83
795.79	223.81
796.11	223.78
796.43	223.77
796.75	223.76
797.07	223.75
797.39	223.73
797.71	223.63
798.04	223.63
798.36	223.63
798.68	223.61
799.00	223.61
799.32	223.55
799.64	223.55
799.96	223.54
800.28	223.54
800.60	223.53
800.92	223.53
801.24	223.51
801.56	223.51
801.89	223.48
802.21	223.47
802.53	223.44
802.85	223.45
803.17	223.48
803.49	223.45
803.81	223.43
804.13	223.42
804.45	223.39
804.77	223.39
805.09	223.38
805.41	223.36
805.73	223.33
806.05	223.29
806.37	223.27
806.69	223.26
807.01	223.24
807.33	223.23
807.65	223.18
807.97	223.22
808.28	223.20
808.60	223.19
808.92	223.16
809.24	223.22
809.56	223.19
809.88	223.15
810.20	223.15
810.52	223.16
810.84	223.13
811.16	223.12
811.48	223.11
811.80	223.13
812.12	223.12
812.43	223.14
812.75	223.13
813.07	223.11
813.39	223.11
813.71	223.08
814.03	223.07
814.35	223.07
814.67	223.02
814.98	223.01
815.30	223.00
815.62	222.99
815.94	222.91
816.26	222.92
816.58	222.90
816.89	222.90
817.21	222.86
817.53	222.87
817.85	222.87
818.17	222.86
818.48	222.81
818.80	222.83
819.12	222.80
819.44	222.79
819.76	222.78
820.07	222.77
820.39	222.76
820.71	222.76
821.03	222.76
821.34	222.74
821.66	222.75
821.98	222.76
822.30	222.75
822.61	222.81
822.93	222.78
823.25	222.78
823.57	222.76
823.88	222.77
824.20	222.76
824.52	222.77
824.83	222.76
825.15	222.75
825.47	222.73
825.79	222.73
826.10	222.73
826.42	222.72
826.74	222.73
827.05	222.73
827.37	222.73
827.69	222.72
828.00	222.72
828.32	222.71
828.64	222.69
828.95	222.74
829.27	222.71
829.58	222.71
829.90	222.72
830.22	222.72
830.53	222.71
830.85	222.70
831.17	222.67
831.48	222.67
831.80	222.68
832.11	222.67
832.43	222.65
832.75	222.65
833.06	222.71
833.38	222.68
833.69	222.67
834.01	222.68
834.32	222.67
834.64	222.66
834.96	222.66
835.27	222.66
835.59	222.63
835.90	222.62
836.22	222.61
836.53	222.60
836.85	222.58
837.16	222.68
837.48	222.68
837.79	222.71
838.11	222.72
838.42	222.70
838.74	222.71
839.05	222.71
839.37	222.70
839.68	222.64
840.00	222.64
840.31	222.66
840.63	222.64
840.94	222.63
841.26	222.61
841.57	222.60
841.88	222.61
842.20	222.59
842.51	222.57
842.83	222.56
843.14	222.66
843.46	222.66
843.77	222.59
844.08	222.58
844.40	222.55
844.71	222.54
845.03	222.53
845.34	222.52
845.65	222.51
845.97	222.50
846.28	222.51
846.60	222.51
846.91	222.48
847.22	222.48
847.54	222.51
847.85	222.51
848.16	222.51
848.48	222.49
848.79	222.54
849.10	222.55
849.42	222.55
849.73	222.45
850.04	222.45
850.36	222.42
850.67	222.44
850.98	222.43
851.30	222.44
851.61	222.45
851.92	222.44
852.23	222.47
852.55	222.48
852.86	222.48
853.17	222.48
853.49	222.50
853.80	222.51
854.11	222.52
854.42	222.53
854.74	222.51
855.05	222.51
855.36	222.45
855.67	222.45
855.99	222.45
856.30	222.58
856.61	222.57
856.92	222.57
857.23	222.57
857.55	222.55
857.86	222.54
858.17	222.55
858.48	222.53
858.79	222.51
859.11	222.52
859.42	222.50
859.73	222.48
860.04	222.48
860.35	222.45
860.66	222.42
860.98	222.41
861.29	222.42
861.60	222.41
861.91	222.43
862.22	222.42
862.53	222.40
862.84	222.27
863.16	222.29
863.47	222.27
863.78	222.25
864.09	222.27
864.40	222.28
864.71	222.28
865.02	222.29
865.33	222.27
865.64	222.25
865.95	222.26
866.27	222.32
866.58	222.31
866.89	222.32
867.20	222.32
867.51	222.30
867.82	222.30
868.13	222.33
868.44	222.31
868.75	222.33
869.06	222.33
869.37	222.34
869.68	222.32
869.99	222.33
870.30	222.34
870.61	222.35
870.92	222.33
871.23	222.32
871.54	222.33
871.85	222.35
872.16	222.36
872.47	222.35
872.78	222.29
873.09	222.31
873.40	222.30
873.71	222.31
874.02	222.32
874.33	222.31
874.64	222.28
874.95	222.30
875.26	222.28
875.56	222.27
875.87	222.26
876.18	222.26
876.49	222.37
876.80	222.35
877.11	222.33
877.42	222.34
877.73	222.34
878.04	222.33
878.35	222.33
878.66	222.33
878.96	222.33
879.27	222.32
879.58	222.31
879.89	222.30
880.20	222.33
880.51	222.32
880.82	222.32
881.12	222.33
881.43	222.31
881.74	222.30
882.05	222.30
882.36	222.31
882.67	222.31
882.97	222.20
883.28	222.20
883.59	222.19
883.90	222.20
884.21	222.21
884.51	222.20
884.82	222.18
885.13	222.19
885.44	222.19
885.74	222.19
886.05	222.20
886.36	222.20
886.67	222.16
886.98	222.21
887.28	222.21
887.59	222.21
887.90	222.22
888.20	222.22
888.51	222.23
888.82	222.21
889.13	222.22
889.43	222.30
889.74	222.29
890.05	222.29
890.35	222.28
890.66	222.26
890.97	222.25
891.28	222.25
891.58	222.23
891.89	222.23
892.20	222.22
892.50	222.20
892.81	222.20
893.12	222.19
893.42	222.14
893.73	222.14
894.04	222.13
894.34	222.14
894.65	222.14
894.95	222.12
895.26	222.13
895.57	222.17
895.87	222.08
896.18	222.10
896.48	222.11
896.79	222.10
897.10	222.11
897.40	222.12
897.71	222.13
898.01	222.12
898.32	222.14
898.63	222.14
898.93	222.15
899.24	222.16
899.54	222.16
899.85	222.15
900.15	222.14
900.46	222.14
900.76	222.14
901.07	222.15
901.38	222.15
901.68	222.16
901.99	222.11
902.29	222.12
902.60	222.11
902.90	222.10
903.21	222.10
903.51	222.09
903.82	222.11
904.12	222.11
904.43	222.12
904.73	222.11
905.03	222.11
905.34	222.21
905.64	222.20
905.95	222.20
906.25	222.20
906.56	222.21
906.86	222.20
907.17	222.20
907.47	222.20
907.77	222.19
908.08	222.17
908.38	222.17
908.69	222.17
908.99	222.19
909.30	222.19
909.60	222.19
909.90	222.20
910.21	222.17
910.51	222.15
910.81	222.15
911.12	222.16
911.42	222.16
911.73	222.06
912.03	222.06
912.33	222.08
912.64	222.08
912.94	222.07
913.24	222.05
913.55	222.04
913.85	222.04
914.15	222.06
914.46	222.08
914.76	222.07
915.06	222.06
915.37	222.05
915.67	222.04
915.97	222.04
916.27	222.02
916.58	222.03
916.88	222.02
917.18	222.01
917.49	222.09
917.79	222.08
918.09	222.10
918.39	222.12
918.70	222.11
919.00	222.12
919.30	222.16
919.60	222.17
919.91	222.16
920.21	222.16
920.51	222.14
920.81	222.13
921.12	222.15
921.42	222.15
921.72	222.14
922.02	222.15
922.32	222.16
922.63	222.17
922.93	222.22
923.23	222.23
923.53	222.22
923.83	222.15
924.13	222.15
924.44	222.15
924.74	222.17
925.04	222.19
925.34	222.18
925.64	222.14
925.94	222.14
926.24	222.19
926.55	222.18
926.85	222.19
927.15	222.19
927.45	222.18
927.75	222.18
928.05	222.18
928.35	222.16
928.65	222.17
928.95	222.17
929.26	222.12
929.56	222.14
929.86	222.14
930.16	222.13
930.46	222.12
930.76	222.13
931.06	222.07
931.36	222.04
931.66	222.05
931.96	222.06
932.26	222.06
932.56	222.02
932.86	222.02
933.16	222.02
933.46	222.01
933.76	222.00
934.06	222.02
934.36	222.06
934.66	222.06
934.96	222.04
935.26	222.04
935.56	222.06
935.86	222.03
936.16	222.02
936.46	222.02
936.76	222.01
937.06	222.00
937.36	222.01
937.66	222.01
937.96	222.00
938.26	221.98
938.56	221.97
938.86	221.97
939.16	221.99
939.46	222.00
939.76	222.01
940.06	222.01
940.35	221.99
940.65	221.94
940.95	221.94
941.25	221.92
941.55	221.91
941.85	221.90
942.15	221.93
942.45	221.95
942.75	221.96
943.04	221.96
943.34	221.98
943.64	221.97
943.94	221.95
944.24	221.96
944.54	221.97
944.84	221.97
945.13	221.95
945.43	221.93
945.73	221.92
946.03	221.91
946.33	221.90
946.62	221.89
946.92	221.89
947.22	221.90
947.52	221.91
947.82	221.92
948.11	221.91
948.41	221.89
948.71	221.86
949.01	221.86
949.31	221.85
949.60	221.83
949.90	221.85
950.20	221.84
950.50	221.83
950.79	221.83
951.09	221.84
951.39	221.84
951.69	221.83
951.98	221.85
952.28	221.86
952.58	221.86
952.87	221.87
953.17	221.88
953.47	221.86
953.76	221.86
954.06	221.84
954.36	221.83
954.66	221.83
954.95	221.86
955.25	221.87
955.55	221.88
955.84	221.87
956.14	221.88
956.44	221.90
956.73	221.89
957.03	221.90
957.32	221.90
957.62	221.90
957.92	221.92
958.21	221.90
958.51	222.02
958.81	222.04
959.10	222.05
959.40	222.08
959.69	222.08
959.99	222.10
960.29	222.10
960.58	222.10
960.88	222.13
961.17	222.12
961.47	222.13
961.76	222.11
962.06	222.13
962.36	222.11
962.65	222.10
962.95	222.10
963.24	222.09
963.54	222.09
963.83	222.10
964.13	222.09
964.42	222.09
964.72	222.00
965.01	222.00
965.31	221.99
965.60	221.96
965.90	222.02
966.19	221.99
966.49	222.00
966.78	222.00
967.08	221.99
967.37	222.00
967.67	221.97
967.96	222.00
968.26	221.99
968.55	222.01
968.85	222.01
969.14	222.01
969.43	222.01
969.73	222.00
970.02	221.99
970.32	221.99
970.61	221.96
970.91	221.94
971.20	221.92
971.49	221.92
971.79	221.93
972.08	221.85
972.38	221.87
972.67	221.86
972.96	221.88
973.26	221.86
973.55	221.88
973.85	221.88
974.14	221.87
974.43	221.88
974.73	221.86
975.02	221.85
975.31	221.85
975.61	221.85
975.90	221.84
976.19	221.84
976.49	221.84
976.78	221.86
977.07	221.85
977.37	221.86
977.66	221.87
977.95	221.86
978.24	221.87
978.54	221.88
978.83	221.88
979.12	221.86
979.42	221.87
979.71	221.85
980.00	221.84
980.29	221.85
980.59	221.83
980.88	221.86
981.17	221.86
981.46	221.85
981.76	221.86
982.05	221.89
982.34	221.90
982.63	221.90
982.93	221.90
983.22	221.93
983.51	221.94
983.80	221.95
984.09	221.96
984.39	221.95
984.68	221.94
984.97	221.94
985.26	221.94
985.55	221.95
985.85	221.93
986.14	221.94
986.43	221.95
986.72	221.94
987.01	221.91
987.30	221.91
987.59	221.91
987.89	221.90
988.18	221.87
988.47	221.85
988.76	221.84
989.05	221.83
989.34	221.81
989.63	221.84
989.92	221.82
990.22	221.80
990.51	221.80
990.80	221.78
991.09	221.80
991.38	221.82
991.67	221.80
991.96	221.80
992.25	221.80
992.54	221.78
992.83	221.78
993.12	221.79
993.41	221.81
993.70	221.85
993.99	221.87
994.28	221.88
994.58	221.90
994.87	221.89
995.16	221.89
995.45	221.88
995.74	221.84
996.03	221.85
996.32	221.86
996.61	221.88
996.90	221.89
997.19	221.88
997.48	221.88
997.77	221.87
998.06	221.87
998.34	221.86
998.63	221.87
998.92	221.87
999.21	221.88
999.50	221.87
999.79	221.84
1000.08	221.83
1000.37	221.83
1000.66	221.82
1000.95	221.85
1001.24	221.87
1001.53	221.88
1001.82	221.89
1002.11	221.87
1002.40	221.88
1002.68	221.90
1002.97	221.97
1003.26	221.96
1003.55	221.94
1003.84	221.95
1004.13	221.99
1004.42	221.98
1004.71	221.99
1004.99	221.99
1005.28	222.01
1005.57	222.01
1005.86	221.99
1006.15	221.98
1006.44	221.97
1006.72	221.99
1007.01	221.96
1007.30	221.96
1007.59	221.94
1007.88	221.93
1008.17	221.94
1008.45	221.91
1008.74	221.87
1009.03	221.83
1009.32	221.83
1009.60	221.83
1009.89	221.83
1010.18	221.78
1010.47	221.77
1010.76	221.77
1011.04	221.76
1011.33	221.75
1011.62	221.76
1011.91	221.77
1012.19	221.77
1012.48	221.77
1012.77	221.77
1013.05	221.80
1013.34	221.80
1013.63	221.80
1013.92	221.81
1014.20	221.81
1014.49	221.81
1014.78	221.82
1015.06	221.79
1015.35	221.79
1015.64	221.80
1015.92	221.82
1016.21	221.82
1016.50	221.83
1016.78	221.84
1017.07	221.85
1017.36	221.83
1017.64	221.81
1017.93	221.82
1018.22	221.81
1018.50	221.81
1018.79	221.81
1019.08	221.77
1019.36	221.78
1019.65	221.77
1019.93	221.80
1020.22	221.81
1020.51	221.87
1020.79	221.85
1021.08	221.65
1021.36	221.63
1021.65	221.89
1021.94	221.61
1022.22	222.02
1022.51	221.54
1022.79	222.23
1023.08	222.02
1023.36	223.04
1023.65	221.49
>>>>>End Processed Spectral Data<<<<<
