SpectraSuite Data File
++++++++++++++++++++++++++++++++++++
Date: Thu Oct 01 03:02:08 EDT 2015
User: lab3
Dark Spectrum Present: No
Reference Spectrum Present: No
Number of Sampled Component Spectra: 1
Spectrometers: USB2E7196
Integration Time (usec): 36000 (USB2E7196)
Spectra Averaged: 10000 (USB2E7196)
Boxcar Smoothing: 10 (USB2E7196)
Correct for Electrical Dark: No (USB2E7196)
Strobe/Lamp Enabled: No (USB2E7196)
Correct for Detector Non-linearity: No (USB2E7196)
Correct for Stray Light: No (USB2E7196)
Number of Pixels in Processed Spectrum: 2048
>>>>>Begin Processed Spectral Data<<<<<
339.09	0.00
339.48	209.61
339.86	211.09
340.24	212.49
340.63	213.88
341.01	216.80
341.39	216.60
341.78	217.95
342.16	219.15
342.54	219.60
342.93	208.23
343.31	218.75
343.69	219.29
344.07	219.75
344.46	220.18
344.84	220.57
345.22	220.80
345.60	221.06
345.99	221.25
346.37	221.39
346.75	221.49
347.13	221.56
347.52	221.63
347.90	221.71
348.28	221.75
348.66	221.80
349.05	221.80
349.43	221.85
349.81	221.91
350.19	221.96
350.57	222.03
350.96	222.11
351.34	222.20
351.72	222.30
352.10	222.40
352.48	222.47
352.87	222.53
353.25	222.60
353.63	222.66
354.01	222.72
354.39	222.80
354.77	222.88
355.15	222.98
355.54	223.03
355.92	223.07
356.30	223.15
356.68	223.28
357.06	223.36
357.44	223.41
357.82	223.47
358.20	223.58
358.58	223.64
358.97	223.71
359.35	223.79
359.73	223.87
360.11	223.92
360.49	223.98
360.87	224.03
361.25	224.09
361.63	224.17
362.01	224.22
362.39	224.25
362.77	224.30
363.15	224.32
363.53	224.35
363.91	224.39
364.29	224.41
364.67	224.33
365.05	224.35
365.43	224.38
365.81	224.42
366.19	224.43
366.57	224.47
366.95	224.47
367.33	224.45
367.71	224.44
368.09	224.46
368.47	224.45
368.85	224.44
369.23	224.45
369.61	224.40
369.99	224.41
370.37	224.40
370.75	224.46
371.13	224.43
371.51	224.39
371.89	224.36
372.27	224.34
372.65	224.31
373.03	224.27
373.41	224.23
373.78	224.18
374.16	224.08
374.54	224.00
374.92	223.95
375.30	223.91
375.68	223.84
376.06	223.79
376.44	223.74
376.82	223.69
377.19	223.65
377.57	223.59
377.95	223.51
378.33	223.45
378.71	223.30
379.09	223.25
379.47	223.22
379.84	223.16
380.22	223.09
380.60	223.02
380.98	222.97
381.36	222.92
381.73	222.86
382.11	222.84
382.49	222.79
382.87	222.73
383.25	222.69
383.62	222.76
384.00	222.70
384.38	222.65
384.76	222.63
385.13	222.61
385.51	222.57
385.89	222.52
386.27	222.49
386.64	222.47
387.02	222.42
387.40	222.37
387.78	222.35
388.15	222.32
388.53	222.28
388.91	222.25
389.29	222.22
389.66	222.21
390.04	222.17
390.42	222.16
390.79	222.15
391.17	222.13
391.55	221.99
391.92	221.98
392.30	221.98
392.68	221.94
393.05	221.92
393.43	221.92
393.81	221.92
394.18	221.90
394.56	221.90
394.94	221.93
395.31	221.93
395.69	221.97
396.06	221.99
396.44	222.01
396.82	222.02
397.19	222.10
397.57	222.11
397.95	222.15
398.32	222.15
398.70	222.19
399.07	222.25
399.45	222.28
399.82	222.32
400.20	222.36
400.58	222.41
400.95	222.43
401.33	222.50
401.70	222.64
402.08	222.73
402.45	222.81
402.83	222.91
403.20	223.02
403.58	223.10
403.95	223.22
404.33	223.35
404.71	223.48
405.08	223.66
405.46	223.80
405.83	223.96
406.21	224.13
406.58	224.32
406.96	224.51
407.33	224.73
407.70	224.97
408.08	225.30
408.45	225.59
408.83	225.90
409.20	226.18
409.58	226.43
409.95	226.77
410.33	227.15
410.70	227.51
411.08	227.92
411.45	228.36
411.82	228.81
412.20	229.32
412.57	229.93
412.95	230.40
413.32	231.02
413.69	231.66
414.07	232.33
414.44	233.07
414.82	233.82
415.19	234.70
415.56	235.59
415.94	236.52
416.31	237.56
416.68	238.60
417.06	239.81
417.43	240.94
417.81	242.25
418.18	243.58
418.55	245.04
418.93	246.55
419.30	248.13
419.67	249.81
420.04	251.54
420.42	253.34
420.79	255.44
421.16	257.55
421.54	259.69
421.91	261.93
422.28	264.26
422.66	266.77
423.03	269.16
423.40	271.68
423.77	274.37
424.15	277.12
424.52	279.99
424.89	283.10
425.26	286.19
425.64	289.05
426.01	292.27
426.38	295.57
426.75	298.96
427.13	302.43
427.50	306.06
427.87	309.83
428.24	313.64
428.61	317.27
428.99	321.19
429.36	325.50
429.73	329.61
430.10	333.72
430.47	337.90
430.85	342.21
431.22	346.79
431.59	351.50
431.96	356.08
432.33	361.15
432.70	365.96
433.08	371.65
433.45	377.02
433.82	382.30
434.19	388.19
434.56	393.98
434.93	399.57
435.30	405.10
435.68	411.32
436.05	417.41
436.42	423.49
436.79	429.04
437.16	435.02
437.53	441.44
437.90	447.85
438.27	454.10
438.64	460.90
439.01	467.05
439.38	472.68
439.75	478.11
440.13	484.32
440.50	490.24
440.87	494.92
441.24	500.05
441.61	505.73
441.98	509.90
442.35	514.85
442.72	519.95
443.09	524.82
443.46	527.99
443.83	530.36
444.20	532.37
444.57	535.30
444.94	537.08
445.31	538.92
445.68	540.58
446.05	541.85
446.42	541.79
446.79	541.63
447.16	541.52
447.53	541.46
447.90	539.72
448.27	538.11
448.64	535.49
449.01	533.79
449.37	529.98
449.74	526.52
450.11	522.05
450.48	517.09
450.85	512.11
451.22	507.88
451.59	503.75
451.96	500.00
452.33	494.45
452.70	489.50
453.07	483.46
453.43	477.40
453.80	471.54
454.17	465.90
454.54	460.67
454.91	454.76
455.28	449.17
455.65	443.90
456.02	438.29
456.38	433.77
456.75	427.93
457.12	423.22
457.49	418.47
457.86	413.92
458.23	409.95
458.59	405.55
458.96	401.01
459.33	397.01
459.70	392.94
460.07	389.83
460.43	386.18
460.80	382.76
461.17	379.74
461.54	376.48
461.91	373.43
462.27	370.33
462.64	367.80
463.01	364.91
463.38	361.99
463.74	359.34
464.11	356.98
464.48	354.85
464.85	352.56
465.21	350.81
465.58	348.89
465.95	346.65
466.32	344.86
466.68	343.12
467.05	341.37
467.42	339.68
467.78	337.86
468.15	336.17
468.52	334.92
468.88	333.28
469.25	331.78
469.62	330.60
469.98	329.30
470.35	328.15
470.72	327.11
471.08	326.06
471.45	325.18
471.82	324.22
472.18	323.23
472.55	322.58
472.92	321.77
473.28	321.15
473.65	320.50
474.02	319.90
474.38	319.40
474.75	319.13
475.11	318.71
475.48	318.56
475.85	318.39
476.21	318.34
476.58	318.35
476.94	318.54
477.31	318.66
477.67	318.82
478.04	319.08
478.41	319.41
478.77	319.87
479.14	320.21
479.50	320.76
479.87	321.45
480.23	322.15
480.60	322.82
480.96	323.52
481.33	324.48
481.69	325.44
482.06	326.39
482.42	327.29
482.79	328.37
483.15	329.61
483.52	330.99
483.88	332.33
484.25	333.76
484.61	335.23
484.98	336.83
485.34	338.61
485.71	340.47
486.07	342.45
486.44	344.41
486.80	346.60
487.17	348.83
487.53	351.29
487.90	353.84
488.26	356.61
488.62	359.53
488.99	362.45
489.35	365.51
489.72	368.81
490.08	372.28
490.44	375.84
490.81	379.56
491.17	383.38
491.54	387.45
491.90	391.63
492.26	396.13
492.63	400.87
492.99	405.79
493.36	410.85
493.72	416.17
494.08	421.62
494.45	427.38
494.81	433.36
495.17	439.46
495.54	445.91
495.90	452.66
496.26	459.56
496.63	466.69
496.99	474.09
497.35	481.87
497.72	489.95
498.08	498.20
498.44	506.69
498.80	515.74
499.17	525.02
499.53	534.64
499.89	544.48
500.26	554.49
500.62	564.79
500.98	575.74
501.34	586.86
501.71	598.52
502.07	610.39
502.43	622.64
502.79	635.25
503.16	648.26
503.52	661.46
503.88	675.04
504.24	689.04
504.60	703.34
504.97	718.02
505.33	733.07
505.69	749.02
506.05	765.19
506.41	781.36
506.78	797.83
507.14	814.78
507.50	832.35
507.86	850.28
508.22	868.49
508.59	886.72
508.95	905.67
509.31	925.03
509.67	945.10
510.03	965.42
510.39	985.92
510.75	1006.68
511.12	1027.71
511.48	1049.10
511.84	1070.54
512.20	1092.28
512.56	1115.13
512.92	1138.23
513.28	1161.06
513.64	1184.17
514.00	1207.70
514.37	1231.58
514.73	1255.46
515.09	1279.14
515.45	1303.26
515.81	1327.95
516.17	1352.71
516.53	1377.13
516.89	1401.62
517.25	1426.29
517.61	1451.14
517.97	1476.20
518.33	1500.99
518.69	1525.95
519.05	1551.14
519.41	1576.48
519.77	1602.09
520.13	1626.92
520.49	1651.90
520.85	1677.07
521.21	1702.20
521.57	1727.92
521.93	1752.91
522.29	1778.77
522.65	1804.35
523.01	1829.71
523.37	1854.35
523.73	1879.59
524.09	1904.99
524.45	1930.34
524.81	1955.22
525.17	1979.99
525.53	2004.34
525.89	2028.72
526.25	2053.28
526.61	2077.28
526.97	2101.60
527.33	2125.83
527.68	2149.93
528.04	2173.14
528.40	2196.23
528.76	2219.50
529.12	2241.72
529.48	2264.32
529.84	2285.07
530.20	2306.41
530.56	2327.43
530.91	2348.48
531.27	2369.02
531.63	2388.95
531.99	2408.34
532.35	2427.37
532.71	2446.49
533.07	2466.27
533.42	2484.42
533.78	2503.04
534.14	2521.59
534.50	2539.31
534.86	2557.66
535.21	2574.15
535.57	2590.65
535.93	2606.31
536.29	2620.83
536.65	2636.12
537.00	2650.28
537.36	2664.97
537.72	2678.57
538.08	2691.90
538.44	2704.06
538.79	2716.42
539.15	2727.17
539.51	2737.84
539.87	2748.16
540.22	2756.40
540.58	2764.61
540.94	2773.52
541.29	2780.82
541.65	2787.17
542.01	2793.02
542.37	2796.96
542.72	2802.78
543.08	2808.11
543.44	2813.34
543.79	2817.65
544.15	2821.19
544.51	2824.68
544.87	2827.28
545.22	2829.44
545.58	2830.59
545.94	2832.20
546.29	2832.39
546.65	2832.76
547.01	2833.08
547.36	2833.57
547.72	2834.20
548.07	2833.40
548.43	2831.91
548.79	2829.80
549.14	2827.75
549.50	2826.19
549.86	2823.96
550.21	2819.18
550.57	2814.84
550.92	2809.15
551.28	2804.07
551.64	2798.82
551.99	2794.01
552.35	2788.81
552.70	2783.17
553.06	2778.26
553.41	2772.92
553.77	2767.02
554.13	2761.68
554.48	2755.57
554.84	2747.72
555.19	2740.01
555.55	2731.72
555.90	2723.98
556.26	2717.31
556.61	2709.99
556.97	2700.57
557.32	2691.88
557.68	2683.76
558.03	2674.88
558.39	2666.67
558.74	2658.70
559.10	2649.45
559.45	2639.93
559.81	2630.67
560.16	2620.82
560.52	2610.44
560.87	2601.07
561.23	2591.38
561.58	2581.18
561.94	2570.68
562.29	2559.75
562.64	2549.41
563.00	2539.40
563.35	2529.28
563.71	2518.23
564.06	2506.61
564.42	2496.06
564.77	2485.13
565.12	2474.33
565.48	2463.28
565.83	2452.88
566.19	2442.45
566.54	2431.77
566.89	2420.04
567.25	2408.31
567.60	2397.41
567.96	2386.11
568.31	2373.40
568.66	2360.55
569.02	2348.78
569.37	2336.82
569.72	2325.36
570.08	2313.14
570.43	2300.42
570.78	2287.44
571.14	2274.21
571.49	2261.79
571.84	2249.65
572.20	2236.21
572.55	2223.14
572.90	2209.96
573.26	2195.95
573.61	2181.33
573.96	2166.94
574.31	2152.96
574.67	2139.22
575.02	2125.02
575.37	2110.40
575.72	2096.06
576.08	2082.37
576.43	2067.63
576.78	2052.88
577.13	2038.97
577.49	2025.16
577.84	2011.69
578.19	1997.36
578.54	1982.65
578.90	1967.45
579.25	1951.97
579.60	1937.92
579.95	1923.51
580.30	1909.12
580.66	1895.00
581.01	1880.50
581.36	1866.34
581.71	1852.77
582.06	1838.71
582.42	1824.68
582.77	1811.44
583.12	1797.88
583.47	1784.29
583.82	1770.82
584.17	1757.27
584.53	1743.52
584.88	1729.78
585.23	1715.73
585.58	1702.20
585.93	1689.09
586.28	1676.80
586.63	1664.36
586.98	1651.17
587.34	1638.25
587.69	1624.81
588.04	1611.58
588.39	1599.06
588.74	1586.06
589.09	1572.77
589.44	1559.43
589.79	1546.70
590.14	1533.81
590.49	1521.11
590.84	1508.31
591.19	1496.19
591.54	1483.55
591.89	1470.77
592.25	1458.36
592.60	1445.49
592.95	1433.19
593.30	1421.18
593.65	1408.95
594.00	1396.93
594.35	1385.74
594.70	1373.68
595.05	1362.72
595.40	1351.62
595.75	1339.91
596.10	1328.96
596.45	1318.24
596.80	1307.98
597.15	1297.50
597.50	1287.04
597.85	1276.76
598.19	1266.68
598.54	1255.98
598.89	1246.03
599.24	1236.42
599.59	1226.52
599.94	1217.67
600.29	1208.70
600.64	1199.53
600.99	1189.78
601.34	1180.49
601.69	1170.57
602.04	1161.75
602.39	1152.74
602.74	1143.99
603.08	1135.49
603.43	1126.52
603.78	1117.41
604.13	1108.47
604.48	1099.45
604.83	1090.71
605.18	1081.86
605.53	1072.97
605.87	1064.18
606.22	1055.69
606.57	1046.90
606.92	1038.22
607.27	1029.42
607.62	1020.69
607.96	1012.13
608.31	1004.56
608.66	996.57
609.01	989.02
609.36	981.41
609.70	973.60
610.05	965.60
610.40	957.94
610.75	950.43
611.10	943.19
611.44	935.55
611.79	928.24
612.14	920.53
612.49	912.95
612.83	905.87
613.18	898.86
613.53	891.63
613.88	884.47
614.22	877.92
614.57	871.20
614.92	864.47
615.27	857.77
615.61	850.92
615.96	844.31
616.31	837.60
616.65	830.79
617.00	824.24
617.35	817.81
617.70	811.42
618.04	805.08
618.39	798.77
618.74	792.80
619.08	786.62
619.43	780.73
619.78	774.87
620.12	768.80
620.47	762.90
620.82	757.06
621.16	751.58
621.51	745.73
621.85	739.88
622.20	734.06
622.55	728.43
622.89	722.76
623.24	717.12
623.59	711.58
623.93	706.07
624.28	700.69
624.62	695.32
624.97	689.92
625.32	684.64
625.66	679.23
626.01	673.81
626.35	668.54
626.70	663.30
627.04	658.22
627.39	653.21
627.73	648.30
628.08	643.63
628.43	638.83
628.77	634.10
629.12	629.48
629.46	625.07
629.81	620.48
630.15	615.76
630.50	611.20
630.84	606.81
631.19	602.62
631.53	598.49
631.88	594.21
632.22	590.06
632.57	586.13
632.91	582.16
633.26	578.27
633.60	574.46
633.95	570.74
634.29	566.90
634.64	563.01
634.98	559.04
635.32	555.21
635.67	551.53
636.01	547.79
636.36	544.08
636.70	540.52
637.05	536.94
637.39	533.57
637.73	530.07
638.08	526.64
638.42	523.19
638.77	519.59
639.11	516.02
639.45	512.46
639.80	508.89
640.14	505.51
640.49	502.09
640.83	498.57
641.17	495.07
641.52	491.75
641.86	488.43
642.20	485.27
642.55	481.96
642.89	478.73
643.23	475.70
643.58	472.91
643.92	469.99
644.26	467.10
644.61	464.20
644.95	461.32
645.29	458.38
645.64	455.41
645.98	452.57
646.32	449.89
646.66	447.23
647.01	444.55
647.35	441.91
647.69	439.17
648.04	436.56
648.38	433.99
648.72	431.38
649.06	428.84
649.41	426.34
649.75	423.83
650.09	421.34
650.43	418.86
650.78	416.36
651.12	413.86
651.46	411.44
651.80	409.13
652.14	406.89
652.49	404.66
652.83	402.49
653.17	400.30
653.51	398.19
653.85	396.14
654.20	394.03
654.54	391.84
654.88	389.84
655.22	387.89
655.56	385.92
655.90	384.03
656.25	382.16
656.59	380.28
656.93	378.50
657.27	376.77
657.61	374.94
657.95	373.16
658.29	371.39
658.64	369.66
658.98	367.90
659.32	366.17
659.66	364.54
660.00	362.92
660.34	361.33
660.68	359.69
661.02	357.99
661.36	356.40
661.70	354.87
662.05	353.34
662.39	351.78
662.73	350.32
663.07	348.87
663.41	347.45
663.75	346.06
664.09	344.67
664.43	343.20
664.77	341.82
665.11	340.39
665.45	339.03
665.79	337.68
666.13	336.31
666.47	334.92
666.81	333.52
667.15	332.09
667.49	330.76
667.83	329.47
668.17	328.22
668.51	327.00
668.85	325.80
669.19	324.66
669.53	323.46
669.87	322.23
670.21	321.03
670.55	319.85
670.89	318.74
671.23	317.60
671.57	316.47
671.91	315.40
672.25	314.40
672.58	313.38
672.92	312.33
673.26	311.34
673.60	310.37
673.94	309.38
674.28	308.45
674.62	307.51
674.96	306.54
675.30	305.63
675.64	304.70
675.97	303.77
676.31	302.82
676.65	301.88
676.99	301.01
677.33	300.08
677.67	299.21
678.01	298.25
678.34	297.36
678.68	296.54
679.02	295.67
679.36	294.82
679.70	293.97
680.04	293.16
680.37	292.34
680.71	291.54
681.05	290.80
681.39	290.01
681.73	289.19
682.06	288.41
682.40	287.64
682.74	286.89
683.08	286.17
683.42	285.43
683.75	284.76
684.09	284.01
684.43	283.31
684.77	282.59
685.10	281.93
685.44	281.25
685.78	280.56
686.12	279.91
686.45	279.24
686.79	278.56
687.13	277.92
687.46	277.25
687.80	276.60
688.14	275.91
688.48	275.28
688.81	274.65
689.15	274.08
689.49	273.45
689.82	272.85
690.16	272.19
690.50	271.59
690.83	271.00
691.17	270.42
691.51	269.85
691.84	269.31
692.18	268.72
692.52	268.14
692.85	267.57
693.19	267.04
693.52	266.50
693.86	265.97
694.20	265.44
694.53	264.94
694.87	264.41
695.21	263.92
695.54	263.42
695.88	262.91
696.21	262.37
696.55	261.87
696.88	261.38
697.22	260.91
697.56	260.43
697.89	259.90
698.23	259.41
698.56	258.90
698.90	258.44
699.23	257.97
699.57	257.53
699.90	257.08
700.24	256.61
700.58	256.17
700.91	255.76
701.25	255.43
701.58	255.06
701.92	254.69
702.25	254.29
702.59	253.87
702.92	253.49
703.26	253.11
703.59	252.72
703.93	252.42
704.26	252.06
704.60	251.69
704.93	251.34
705.26	250.98
705.60	250.67
705.93	250.29
706.27	249.99
706.60	249.67
706.94	249.37
707.27	249.01
707.61	248.66
707.94	248.31
708.27	247.88
708.61	247.50
708.94	247.15
709.28	246.83
709.61	246.51
709.94	246.21
710.28	245.91
710.61	245.64
710.95	245.26
711.28	245.04
711.61	244.76
711.95	244.50
712.28	244.22
712.61	243.93
712.95	243.72
713.28	243.51
713.61	243.23
713.95	242.95
714.28	242.71
714.61	242.46
714.95	242.21
715.28	241.97
715.61	241.73
715.95	241.50
716.28	241.27
716.61	241.06
716.95	240.83
717.28	240.61
717.61	240.38
717.94	240.16
718.28	239.87
718.61	239.65
718.94	239.42
719.27	239.21
719.61	239.02
719.94	238.79
720.27	238.53
720.60	238.33
720.94	238.13
721.27	237.95
721.60	237.79
721.93	237.61
722.27	237.46
722.60	237.30
722.93	237.10
723.26	236.94
723.59	236.74
723.93	236.58
724.26	236.42
724.59	236.25
724.92	236.10
725.25	235.97
725.59	235.81
725.92	235.68
726.25	235.53
726.58	235.37
726.91	235.21
727.24	235.08
727.57	234.93
727.91	234.77
728.24	234.64
728.57	234.48
728.90	234.35
729.23	234.18
729.56	234.08
729.89	233.95
730.22	233.80
730.55	233.67
730.89	233.53
731.22	233.39
731.55	233.26
731.88	233.13
732.21	232.99
732.54	232.86
732.87	232.74
733.20	232.63
733.53	232.51
733.86	232.41
734.19	232.27
734.52	232.18
734.85	232.15
735.18	232.01
735.51	231.93
735.84	231.82
736.17	231.75
736.50	231.59
736.83	231.61
737.16	231.51
737.49	231.42
737.82	231.32
738.15	231.23
738.48	231.14
738.81	231.04
739.14	230.93
739.47	230.83
739.80	230.72
740.13	230.64
740.46	230.53
740.79	230.43
741.12	230.34
741.45	230.23
741.78	230.08
742.11	230.02
742.44	229.90
742.77	229.83
743.10	229.72
743.43	229.63
743.75	229.43
744.08	229.51
744.41	229.42
744.74	229.32
745.07	229.22
745.40	229.15
745.73	229.12
746.06	229.04
746.39	228.99
746.71	228.90
747.04	228.82
747.37	228.74
747.70	228.69
748.03	228.62
748.36	228.57
748.68	228.50
749.01	228.39
749.34	228.32
749.67	228.26
750.00	228.20
750.33	228.22
750.65	228.16
750.98	227.94
751.31	227.88
751.64	227.82
751.97	227.82
752.29	227.75
752.62	227.63
752.95	227.56
753.28	227.48
753.60	227.41
753.93	227.37
754.26	227.31
754.59	227.21
754.91	227.14
755.24	227.06
755.57	227.04
755.90	226.98
756.22	226.91
756.55	226.83
756.88	226.75
757.20	226.61
757.53	226.53
757.86	226.47
758.19	226.42
758.51	226.37
758.84	226.26
759.17	226.19
759.49	226.15
759.82	226.15
760.15	226.12
760.47	226.07
760.80	225.99
761.13	225.95
761.45	225.91
761.78	225.87
762.11	225.82
762.43	225.72
762.76	225.68
763.08	225.65
763.41	225.61
763.74	225.58
764.06	225.54
764.39	225.50
764.71	225.46
765.04	225.41
765.37	225.36
765.69	225.32
766.02	225.28
766.34	225.23
766.67	225.15
767.00	225.13
767.32	225.15
767.65	225.18
767.97	225.13
768.30	225.10
768.62	225.06
768.95	225.01
769.27	224.97
769.60	224.95
769.92	224.89
770.25	224.84
770.57	224.79
770.90	224.75
771.22	224.71
771.55	224.68
771.87	224.65
772.20	224.62
772.52	224.68
772.85	224.77
773.17	224.75
773.50	224.71
773.82	224.66
774.15	224.58
774.47	224.48
774.80	224.44
775.12	224.41
775.45	224.38
775.77	224.36
776.09	224.34
776.42	224.31
776.74	224.32
777.07	224.29
777.39	224.27
777.72	224.23
778.04	224.23
778.36	224.19
778.69	224.17
779.01	224.16
779.33	224.04
779.66	223.89
779.98	223.86
780.31	223.85
780.63	223.87
780.95	223.87
781.28	223.85
781.60	223.82
781.92	223.80
782.25	223.78
782.57	223.76
782.89	223.73
783.22	223.71
783.54	223.67
783.86	223.66
784.19	223.63
784.51	223.65
784.83	223.62
785.16	223.59
785.48	223.58
785.80	223.55
786.12	223.55
786.45	223.53
786.77	223.52
787.09	223.49
787.42	223.43
787.74	223.42
788.06	223.41
788.38	223.39
788.71	223.37
789.03	223.35
789.35	223.35
789.67	223.32
789.99	223.31
790.32	223.28
790.64	223.28
790.96	223.37
791.28	223.32
791.61	223.30
791.93	223.29
792.25	223.27
792.57	223.33
792.89	223.29
793.21	223.29
793.54	223.26
793.86	223.24
794.18	223.23
794.50	223.20
794.82	223.18
795.14	223.18
795.47	223.19
795.79	223.18
796.11	223.14
796.43	223.13
796.75	223.12
797.07	223.11
797.39	223.09
797.71	222.99
798.04	222.99
798.36	222.98
798.68	222.97
799.00	222.97
799.32	222.91
799.64	222.92
799.96	222.90
800.28	222.92
800.60	222.90
800.92	222.90
801.24	222.88
801.56	222.88
801.89	222.86
802.21	222.85
802.53	222.83
802.85	222.84
803.17	222.88
803.49	222.84
803.81	222.82
804.13	222.81
804.45	222.79
804.77	222.78
805.09	222.77
805.41	222.75
805.73	222.72
806.05	222.69
806.37	222.67
806.69	222.65
807.01	222.63
807.33	222.63
807.65	222.58
807.97	222.62
808.28	222.60
808.60	222.59
808.92	222.57
809.24	222.62
809.56	222.60
809.88	222.55
810.20	222.55
810.52	222.56
810.84	222.53
811.16	222.51
811.48	222.50
811.80	222.53
812.12	222.52
812.43	222.54
812.75	222.54
813.07	222.52
813.39	222.53
813.71	222.51
814.03	222.50
814.35	222.50
814.67	222.45
814.98	222.44
815.30	222.43
815.62	222.40
815.94	222.33
816.26	222.34
816.58	222.31
816.89	222.32
817.21	222.29
817.53	222.30
817.85	222.30
818.17	222.29
818.48	222.24
818.80	222.25
819.12	222.23
819.44	222.21
819.76	222.19
820.07	222.18
820.39	222.17
820.71	222.17
821.03	222.17
821.34	222.16
821.66	222.16
821.98	222.17
822.30	222.17
822.61	222.23
822.93	222.21
823.25	222.21
823.57	222.19
823.88	222.21
824.20	222.20
824.52	222.21
824.83	222.21
825.15	222.20
825.47	222.19
825.79	222.20
826.10	222.19
826.42	222.18
826.74	222.18
827.05	222.17
827.37	222.17
827.69	222.16
828.00	222.17
828.32	222.16
828.64	222.14
828.95	222.19
829.27	222.16
829.58	222.16
829.90	222.17
830.22	222.17
830.53	222.15
830.85	222.13
831.17	222.10
831.48	222.10
831.80	222.10
832.11	222.09
832.43	222.07
832.75	222.07
833.06	222.13
833.38	222.10
833.69	222.09
834.01	222.09
834.32	222.08
834.64	222.07
834.96	222.07
835.27	222.06
835.59	222.02
835.90	222.01
836.22	222.00
836.53	221.97
836.85	221.96
837.16	222.06
837.48	222.06
837.79	222.10
838.11	222.10
838.42	222.09
838.74	222.10
839.05	222.10
839.37	222.09
839.68	222.02
840.00	222.02
840.31	222.04
840.63	222.03
840.94	222.02
841.26	222.01
841.57	222.00
841.88	222.01
842.20	221.99
842.51	221.97
842.83	221.97
843.14	222.06
843.46	222.06
843.77	221.99
844.08	221.99
844.40	221.95
844.71	221.94
845.03	221.92
845.34	221.91
845.65	221.91
845.97	221.91
846.28	221.92
846.60	221.92
846.91	221.90
847.22	221.89
847.54	221.92
847.85	221.92
848.16	221.91
848.48	221.89
848.79	221.93
849.10	221.94
849.42	221.95
849.73	221.85
850.04	221.85
850.36	221.81
850.67	221.83
850.98	221.83
851.30	221.84
851.61	221.83
851.92	221.83
852.23	221.86
852.55	221.86
852.86	221.86
853.17	221.87
853.49	221.90
853.80	221.92
854.11	221.92
854.42	221.94
854.74	221.93
855.05	221.94
855.36	221.88
855.67	221.88
855.99	221.88
856.30	222.01
856.61	222.01
856.92	222.01
857.23	222.01
857.55	222.00
857.86	221.99
858.17	222.01
858.48	221.99
858.79	221.97
859.11	221.98
859.42	221.97
859.73	221.95
860.04	221.95
860.35	221.91
860.66	221.88
860.98	221.88
861.29	221.89
861.60	221.88
861.91	221.90
862.22	221.89
862.53	221.87
862.84	221.75
863.16	221.77
863.47	221.75
863.78	221.74
864.09	221.75
864.40	221.76
864.71	221.76
865.02	221.77
865.33	221.75
865.64	221.73
865.95	221.73
866.27	221.80
866.58	221.78
866.89	221.79
867.20	221.79
867.51	221.78
867.82	221.77
868.13	221.81
868.44	221.78
868.75	221.80
869.06	221.80
869.37	221.81
869.68	221.79
869.99	221.81
870.30	221.82
870.61	221.82
870.92	221.81
871.23	221.80
871.54	221.81
871.85	221.83
872.16	221.84
872.47	221.84
872.78	221.78
873.09	221.79
873.40	221.78
873.71	221.78
874.02	221.79
874.33	221.78
874.64	221.75
874.95	221.76
875.26	221.74
875.56	221.74
875.87	221.73
876.18	221.72
876.49	221.82
876.80	221.81
877.11	221.79
877.42	221.80
877.73	221.80
878.04	221.78
878.35	221.78
878.66	221.78
878.96	221.78
879.27	221.77
879.58	221.77
879.89	221.76
880.20	221.79
880.51	221.78
880.82	221.79
881.12	221.79
881.43	221.77
881.74	221.75
882.05	221.75
882.36	221.76
882.67	221.77
882.97	221.65
883.28	221.64
883.59	221.64
883.90	221.64
884.21	221.66
884.51	221.66
884.82	221.64
885.13	221.64
885.44	221.63
885.74	221.64
886.05	221.63
886.36	221.63
886.67	221.59
886.98	221.64
887.28	221.65
887.59	221.64
887.90	221.65
888.20	221.65
888.51	221.67
888.82	221.65
889.13	221.65
889.43	221.74
889.74	221.73
890.05	221.73
890.35	221.72
890.66	221.70
890.97	221.69
891.28	221.68
891.58	221.68
891.89	221.68
892.20	221.67
892.50	221.66
892.81	221.65
893.12	221.65
893.42	221.59
893.73	221.60
894.04	221.60
894.34	221.60
894.65	221.60
894.95	221.59
895.26	221.59
895.57	221.64
895.87	221.53
896.18	221.55
896.48	221.55
896.79	221.55
897.10	221.56
897.40	221.57
897.71	221.58
898.01	221.57
898.32	221.58
898.63	221.58
898.93	221.59
899.24	221.59
899.54	221.59
899.85	221.58
900.15	221.58
900.46	221.57
900.76	221.58
901.07	221.58
901.38	221.57
901.68	221.59
901.99	221.53
902.29	221.54
902.60	221.53
902.90	221.52
903.21	221.52
903.51	221.51
903.82	221.53
904.12	221.53
904.43	221.54
904.73	221.53
905.03	221.54
905.34	221.63
905.64	221.63
905.95	221.63
906.25	221.63
906.56	221.63
906.86	221.63
907.17	221.62
907.47	221.62
907.77	221.61
908.08	221.59
908.38	221.59
908.69	221.60
908.99	221.62
909.30	221.62
909.60	221.63
909.90	221.63
910.21	221.60
910.51	221.59
910.81	221.58
911.12	221.59
911.42	221.59
911.73	221.48
912.03	221.49
912.33	221.51
912.64	221.50
912.94	221.48
913.24	221.46
913.55	221.46
913.85	221.45
914.15	221.47
914.46	221.48
914.76	221.47
915.06	221.47
915.37	221.45
915.67	221.44
915.97	221.44
916.27	221.41
916.58	221.42
916.88	221.42
917.18	221.41
917.49	221.48
917.79	221.48
918.09	221.49
918.39	221.52
918.70	221.51
919.00	221.51
919.30	221.57
919.60	221.56
919.91	221.55
920.21	221.56
920.51	221.53
920.81	221.52
921.12	221.54
921.42	221.53
921.72	221.54
922.02	221.55
922.32	221.56
922.63	221.57
922.93	221.63
923.23	221.64
923.53	221.63
923.83	221.56
924.13	221.56
924.44	221.56
924.74	221.58
925.04	221.60
925.34	221.59
925.64	221.55
925.94	221.55
926.24	221.61
926.55	221.60
926.85	221.61
927.15	221.61
927.45	221.61
927.75	221.61
928.05	221.61
928.35	221.60
928.65	221.61
928.95	221.62
929.26	221.56
929.56	221.58
929.86	221.59
930.16	221.58
930.46	221.57
930.76	221.57
931.06	221.53
931.36	221.49
931.66	221.51
931.96	221.52
932.26	221.53
932.56	221.48
932.86	221.49
933.16	221.49
933.46	221.48
933.76	221.47
934.06	221.48
934.36	221.52
934.66	221.51
934.96	221.50
935.26	221.50
935.56	221.51
935.86	221.49
936.16	221.47
936.46	221.46
936.76	221.46
937.06	221.45
937.36	221.46
937.66	221.47
937.96	221.46
938.26	221.44
938.56	221.43
938.86	221.44
939.16	221.46
939.46	221.47
939.76	221.48
940.06	221.48
940.35	221.46
940.65	221.40
940.95	221.41
941.25	221.39
941.55	221.38
941.85	221.37
942.15	221.39
942.45	221.42
942.75	221.42
943.04	221.42
943.34	221.44
943.64	221.43
943.94	221.41
944.24	221.41
944.54	221.42
944.84	221.42
945.13	221.40
945.43	221.39
945.73	221.38
946.03	221.37
946.33	221.36
946.62	221.35
946.92	221.35
947.22	221.36
947.52	221.37
947.82	221.38
948.11	221.37
948.41	221.34
948.71	221.31
949.01	221.32
949.31	221.31
949.60	221.30
949.90	221.31
950.20	221.30
950.50	221.30
950.79	221.29
951.09	221.31
951.39	221.30
951.69	221.29
951.98	221.31
952.28	221.31
952.58	221.31
952.87	221.32
953.17	221.33
953.47	221.32
953.76	221.31
954.06	221.29
954.36	221.29
954.66	221.29
954.95	221.32
955.25	221.32
955.55	221.33
955.84	221.32
956.14	221.33
956.44	221.34
956.73	221.33
957.03	221.33
957.32	221.33
957.62	221.32
957.92	221.35
958.21	221.33
958.51	221.46
958.81	221.47
959.10	221.48
959.40	221.50
959.69	221.51
959.99	221.52
960.29	221.53
960.58	221.52
960.88	221.56
961.17	221.55
961.47	221.56
961.76	221.55
962.06	221.57
962.36	221.55
962.65	221.55
962.95	221.56
963.24	221.55
963.54	221.56
963.83	221.57
964.13	221.56
964.42	221.54
964.72	221.45
965.01	221.45
965.31	221.44
965.60	221.42
965.90	221.48
966.19	221.45
966.49	221.46
966.78	221.46
967.08	221.45
967.37	221.44
967.67	221.42
967.96	221.44
968.26	221.44
968.55	221.45
968.85	221.45
969.14	221.45
969.43	221.44
969.73	221.43
970.02	221.43
970.32	221.42
970.61	221.41
970.91	221.38
971.20	221.37
971.49	221.36
971.79	221.37
972.08	221.30
972.38	221.32
972.67	221.30
972.96	221.32
973.26	221.30
973.55	221.33
973.85	221.33
974.14	221.32
974.43	221.33
974.73	221.31
975.02	221.30
975.31	221.30
975.61	221.30
975.90	221.29
976.19	221.28
976.49	221.29
976.78	221.29
977.07	221.29
977.37	221.30
977.66	221.31
977.95	221.29
978.24	221.30
978.54	221.32
978.83	221.31
979.12	221.30
979.42	221.30
979.71	221.28
980.00	221.28
980.29	221.28
980.59	221.26
980.88	221.29
981.17	221.28
981.46	221.28
981.76	221.28
982.05	221.32
982.34	221.33
982.63	221.33
982.93	221.33
983.22	221.36
983.51	221.36
983.80	221.37
984.09	221.39
984.39	221.38
984.68	221.36
984.97	221.37
985.26	221.37
985.55	221.37
985.85	221.35
986.14	221.37
986.43	221.39
986.72	221.38
987.01	221.35
987.30	221.35
987.59	221.34
987.89	221.34
988.18	221.31
988.47	221.30
988.76	221.29
989.05	221.27
989.34	221.26
989.63	221.28
989.92	221.27
990.22	221.26
990.51	221.26
990.80	221.25
991.09	221.25
991.38	221.27
991.67	221.26
991.96	221.25
992.25	221.25
992.54	221.23
992.83	221.24
993.12	221.23
993.41	221.25
993.70	221.30
993.99	221.32
994.28	221.33
994.58	221.35
994.87	221.33
995.16	221.33
995.45	221.32
995.74	221.29
996.03	221.29
996.32	221.31
996.61	221.33
996.90	221.33
997.19	221.32
997.48	221.32
997.77	221.31
998.06	221.31
998.34	221.31
998.63	221.31
998.92	221.31
999.21	221.33
999.50	221.32
999.79	221.29
1000.08	221.28
1000.37	221.29
1000.66	221.27
1000.95	221.30
1001.24	221.30
1001.53	221.32
1001.82	221.32
1002.11	221.30
1002.40	221.30
1002.68	221.32
1002.97	221.39
1003.26	221.38
1003.55	221.37
1003.84	221.38
1004.13	221.41
1004.42	221.41
1004.71	221.41
1004.99	221.40
1005.28	221.42
1005.57	221.41
1005.86	221.40
1006.15	221.39
1006.44	221.37
1006.72	221.39
1007.01	221.37
1007.30	221.37
1007.59	221.36
1007.88	221.36
1008.17	221.36
1008.45	221.34
1008.74	221.30
1009.03	221.25
1009.32	221.25
1009.60	221.25
1009.89	221.25
1010.18	221.20
1010.47	221.19
1010.76	221.20
1011.04	221.20
1011.33	221.19
1011.62	221.20
1011.91	221.21
1012.19	221.21
1012.48	221.22
1012.77	221.21
1013.05	221.25
1013.34	221.25
1013.63	221.25
1013.92	221.26
1014.20	221.25
1014.49	221.26
1014.78	221.27
1015.06	221.24
1015.35	221.24
1015.64	221.25
1015.92	221.27
1016.21	221.28
1016.50	221.29
1016.78	221.29
1017.07	221.30
1017.36	221.28
1017.64	221.27
1017.93	221.28
1018.22	221.27
1018.50	221.27
1018.79	221.26
1019.08	221.23
1019.36	221.23
1019.65	221.23
1019.93	221.25
1020.22	221.27
1020.51	221.32
1020.79	221.31
1021.08	221.08
1021.36	221.10
1021.65	221.24
1021.94	221.25
1022.22	221.35
1022.51	221.05
1022.79	221.76
1023.08	221.39
1023.36	222.49
1023.65	221.02
>>>>>End Processed Spectral Data<<<<<
