SpectraSuite Data File
++++++++++++++++++++++++++++++++++++
Date: Wed Sep 30 15:36:53 EDT 2015
User: lab3
Dark Spectrum Present: No
Reference Spectrum Present: No
Number of Sampled Component Spectra: 1
Spectrometers: USB2E7196
Integration Time (usec): 36000 (USB2E7196)
Spectra Averaged: 1500 (USB2E7196)
Boxcar Smoothing: 10 (USB2E7196)
Correct for Electrical Dark: No (USB2E7196)
Strobe/Lamp Enabled: No (USB2E7196)
Correct for Detector Non-linearity: No (USB2E7196)
Correct for Stray Light: No (USB2E7196)
Number of Pixels in Processed Spectrum: 2048
>>>>>Begin Processed Spectral Data<<<<<
339.09	0.00
339.48	211.46
339.86	212.93
340.24	214.35
340.63	215.68
341.01	218.79
341.39	218.44
341.78	219.78
342.16	220.98
342.54	221.38
342.93	210.00
343.31	220.62
343.69	221.16
344.07	221.62
344.46	222.05
344.84	222.45
345.22	222.68
345.60	222.95
345.99	223.15
346.37	223.28
346.75	223.40
347.13	223.47
347.52	223.55
347.90	223.64
348.28	223.67
348.66	223.73
349.05	223.73
349.43	223.78
349.81	223.84
350.19	223.89
350.57	223.95
350.96	224.02
351.34	224.11
351.72	224.20
352.10	224.31
352.48	224.38
352.87	224.42
353.25	224.49
353.63	224.54
354.01	224.60
354.39	224.68
354.77	224.74
355.15	224.85
355.54	224.90
355.92	224.92
356.30	225.00
356.68	225.14
357.06	225.21
357.44	225.25
357.82	225.32
358.20	225.43
358.58	225.49
358.97	225.56
359.35	225.64
359.73	225.72
360.11	225.77
360.49	225.83
360.87	225.88
361.25	225.94
361.63	226.02
362.01	226.07
362.39	226.10
362.77	226.15
363.15	226.17
363.53	226.21
363.91	226.26
364.29	226.28
364.67	226.19
365.05	226.22
365.43	226.25
365.81	226.27
366.19	226.29
366.57	226.34
366.95	226.34
367.33	226.32
367.71	226.31
368.09	226.33
368.47	226.32
368.85	226.32
369.23	226.33
369.61	226.28
369.99	226.29
370.37	226.28
370.75	226.33
371.13	226.29
371.51	226.25
371.89	226.22
372.27	226.19
372.65	226.17
373.03	226.13
373.41	226.08
373.78	226.03
374.16	225.93
374.54	225.84
374.92	225.78
375.30	225.74
375.68	225.67
376.06	225.63
376.44	225.56
376.82	225.51
377.19	225.46
377.57	225.40
377.95	225.30
378.33	225.24
378.71	225.11
379.09	225.06
379.47	225.02
379.84	224.95
380.22	224.90
380.60	224.83
380.98	224.78
381.36	224.73
381.73	224.66
382.11	224.64
382.49	224.60
382.87	224.54
383.25	224.49
383.62	224.56
384.00	224.50
384.38	224.46
384.76	224.44
385.13	224.42
385.51	224.39
385.89	224.35
386.27	224.31
386.64	224.28
387.02	224.23
387.40	224.18
387.78	224.15
388.15	224.13
388.53	224.08
388.91	224.06
389.29	224.03
389.66	224.02
390.04	223.97
390.42	223.96
390.79	223.94
391.17	223.93
391.55	223.79
391.92	223.78
392.30	223.78
392.68	223.74
393.05	223.73
393.43	223.72
393.81	223.73
394.18	223.71
394.56	223.72
394.94	223.75
395.31	223.75
395.69	223.79
396.06	223.81
396.44	223.84
396.82	223.85
397.19	223.93
397.57	223.95
397.95	223.99
398.32	224.00
398.70	224.04
399.07	224.09
399.45	224.12
399.82	224.16
400.20	224.19
400.58	224.25
400.95	224.27
401.33	224.35
401.70	224.48
402.08	224.57
402.45	224.64
402.83	224.74
403.20	224.85
403.58	224.93
403.95	225.05
404.33	225.18
404.71	225.31
405.08	225.47
405.46	225.62
405.83	225.77
406.21	225.93
406.58	226.13
406.96	226.31
407.33	226.53
407.70	226.78
408.08	227.11
408.45	227.39
408.83	227.70
409.20	227.97
409.58	228.23
409.95	228.58
410.33	228.95
410.70	229.32
411.08	229.73
411.45	230.18
411.82	230.62
412.20	231.13
412.57	231.74
412.95	232.23
413.32	232.85
413.69	233.50
414.07	234.19
414.44	234.93
414.82	235.68
415.19	236.56
415.56	237.46
415.94	238.38
416.31	239.42
416.68	240.47
417.06	241.68
417.43	242.82
417.81	244.14
418.18	245.48
418.55	246.93
418.93	248.44
419.30	250.03
419.67	251.72
420.04	253.46
420.42	255.27
420.79	257.37
421.16	259.49
421.54	261.64
421.91	263.88
422.28	266.23
422.66	268.77
423.03	271.18
423.40	273.72
423.77	276.44
424.15	279.22
424.52	282.11
424.89	285.27
425.26	288.40
425.64	291.31
426.01	294.56
426.38	297.90
426.75	301.35
427.13	304.89
427.50	308.59
427.87	312.44
428.24	316.33
428.61	320.05
428.99	324.07
429.36	328.49
429.73	332.71
430.10	336.91
430.47	341.20
430.85	345.62
431.22	350.34
431.59	355.18
431.96	359.91
432.33	365.15
432.70	370.10
433.08	375.96
433.45	381.48
433.82	386.93
434.19	393.02
434.56	399.01
434.93	404.78
435.30	410.47
435.68	416.87
436.05	423.13
436.42	429.42
436.79	435.12
437.16	441.30
437.53	447.89
437.90	454.47
438.27	460.90
438.64	467.86
439.01	474.16
439.38	479.90
439.75	485.44
440.13	491.73
440.50	497.71
440.87	502.44
441.24	507.63
441.61	513.36
441.98	517.55
442.35	522.52
442.72	527.58
443.09	532.43
443.46	535.55
443.83	537.84
444.20	539.74
444.57	542.56
444.94	544.18
445.31	545.88
445.68	547.38
446.05	548.47
446.42	548.24
446.79	547.88
447.16	547.58
447.53	547.33
447.90	545.42
448.27	543.66
448.64	540.85
449.01	538.99
449.37	534.96
449.74	531.28
450.11	526.61
450.48	521.49
450.85	516.34
451.22	511.96
451.59	507.63
451.96	503.71
452.33	498.02
452.70	492.96
453.07	486.78
453.43	480.60
453.80	474.63
454.17	468.89
454.54	463.59
454.91	457.60
455.28	451.98
455.65	446.66
456.02	440.96
456.38	436.40
456.75	430.51
457.12	425.80
457.49	421.04
457.86	416.49
458.23	412.49
458.59	408.09
458.96	403.57
459.33	399.60
459.70	395.57
460.07	392.50
460.43	388.87
460.80	385.47
461.17	382.49
461.54	379.28
461.91	376.26
462.27	373.20
462.64	370.70
463.01	367.80
463.38	364.89
463.74	362.26
464.11	359.91
464.48	357.79
464.85	355.49
465.21	353.75
465.58	351.80
465.95	349.59
466.32	347.82
466.68	346.08
467.05	344.33
467.42	342.64
467.78	340.82
468.15	339.13
468.52	337.90
468.88	336.26
469.25	334.75
469.62	333.56
469.98	332.27
470.35	331.13
470.72	330.10
471.08	329.04
471.45	328.18
471.82	327.22
472.18	326.23
472.55	325.59
472.92	324.79
473.28	324.20
473.65	323.56
474.02	322.95
474.38	322.45
474.75	322.18
475.11	321.76
475.48	321.61
475.85	321.45
476.21	321.39
476.58	321.39
476.94	321.61
477.31	321.72
477.67	321.86
478.04	322.13
478.41	322.47
478.77	322.95
479.14	323.30
479.50	323.87
479.87	324.58
480.23	325.29
480.60	325.98
480.96	326.68
481.33	327.65
481.69	328.63
482.06	329.60
482.42	330.52
482.79	331.63
483.15	332.91
483.52	334.34
483.88	335.72
484.25	337.17
484.61	338.68
484.98	340.31
485.34	342.15
485.71	344.07
486.07	346.11
486.44	348.12
486.80	350.36
487.17	352.66
487.53	355.19
487.90	357.82
488.26	360.67
488.62	363.67
488.99	366.69
489.35	369.83
489.72	373.24
490.08	376.81
490.44	380.46
490.81	384.28
491.17	388.20
491.54	392.39
491.90	396.69
492.26	401.33
492.63	406.20
492.99	411.24
493.36	416.39
493.72	421.82
494.08	427.43
494.45	433.33
494.81	439.47
495.17	445.70
495.54	452.29
495.90	459.20
496.26	466.27
496.63	473.57
496.99	481.20
497.35	489.18
497.72	497.41
498.08	505.86
498.44	514.51
498.80	523.69
499.17	533.09
499.53	542.84
499.89	552.80
500.26	563.00
500.62	573.46
500.98	584.59
501.34	595.84
501.71	607.61
502.07	619.60
502.43	631.95
502.79	644.67
503.16	657.78
503.52	671.05
503.88	684.64
504.24	698.72
504.60	712.98
504.97	727.61
505.33	742.68
505.69	758.58
506.05	774.78
506.41	791.02
506.78	807.51
507.14	824.49
507.50	841.89
507.86	859.61
508.22	877.66
508.59	895.78
508.95	914.57
509.31	933.83
509.67	953.81
510.03	974.00
510.39	994.34
510.75	1014.81
511.12	1035.53
511.48	1056.51
511.84	1077.70
512.20	1099.21
512.56	1121.77
512.92	1144.33
513.28	1166.63
513.64	1189.24
514.00	1212.31
514.37	1235.72
514.73	1259.08
515.09	1282.23
515.45	1305.72
515.81	1329.77
516.17	1353.77
516.53	1377.54
516.89	1401.32
517.25	1425.24
517.61	1449.28
517.97	1473.49
518.33	1497.74
518.69	1522.20
519.05	1546.83
519.41	1571.39
519.77	1596.23
520.13	1620.22
520.49	1644.53
520.85	1669.05
521.21	1693.29
521.57	1717.93
521.93	1741.69
522.29	1766.10
522.65	1790.43
523.01	1814.60
523.37	1837.84
523.73	1861.80
524.09	1885.92
524.45	1909.89
524.81	1933.33
525.17	1956.64
525.53	1979.58
525.89	2002.21
526.25	2024.91
526.61	2046.98
526.97	2069.39
527.33	2091.59
527.68	2113.77
528.04	2135.22
528.40	2156.25
528.76	2177.50
529.12	2197.77
529.48	2218.75
529.84	2237.89
530.20	2257.36
530.56	2276.42
530.91	2295.83
531.27	2314.63
531.63	2332.52
531.99	2349.90
532.35	2367.22
532.71	2384.64
533.07	2402.49
533.42	2418.98
533.78	2435.90
534.14	2452.89
534.50	2468.90
534.86	2485.51
535.21	2500.24
535.57	2514.48
535.93	2528.36
536.29	2540.85
536.65	2554.21
537.00	2566.59
537.36	2579.58
537.72	2591.54
538.08	2603.30
538.44	2614.04
538.79	2624.91
539.15	2634.08
539.51	2642.94
539.87	2650.93
540.22	2656.95
540.58	2663.20
540.94	2669.82
541.29	2674.98
541.65	2679.36
542.01	2683.40
542.37	2685.65
542.72	2689.70
543.08	2693.26
543.44	2696.41
543.79	2699.46
544.15	2701.15
544.51	2702.68
544.87	2703.49
545.22	2704.23
545.58	2704.02
545.94	2703.84
546.29	2702.31
546.65	2700.87
547.01	2699.71
547.36	2699.03
547.72	2698.68
548.07	2697.01
548.43	2694.64
548.79	2691.51
549.14	2688.26
549.50	2685.56
549.86	2681.88
550.21	2676.46
550.57	2671.46
550.92	2665.32
551.28	2659.43
551.64	2653.65
551.99	2648.09
552.35	2642.36
552.70	2635.80
553.06	2629.84
553.41	2623.57
553.77	2616.66
554.13	2610.74
554.48	2603.73
554.84	2595.30
555.19	2586.72
555.55	2577.48
555.90	2568.86
556.26	2561.19
556.61	2552.89
556.97	2542.74
557.32	2533.87
557.68	2524.75
558.03	2515.49
558.39	2506.91
558.74	2498.19
559.10	2488.70
559.45	2478.49
559.81	2468.37
560.16	2457.90
560.52	2447.23
560.87	2437.38
561.23	2427.18
561.58	2416.75
561.94	2406.28
562.29	2395.16
562.64	2384.55
563.00	2374.23
563.35	2364.06
563.71	2352.86
564.06	2341.84
564.42	2331.43
564.77	2320.60
565.12	2309.77
565.48	2298.49
565.83	2287.89
566.19	2277.46
566.54	2266.25
566.89	2254.71
567.25	2243.50
567.60	2233.13
567.96	2222.12
568.31	2210.00
568.66	2197.97
569.02	2186.67
569.37	2175.24
569.72	2164.33
570.08	2152.92
570.43	2141.01
570.78	2128.54
571.14	2116.45
571.49	2104.55
571.84	2092.70
572.20	2079.82
572.55	2067.59
572.90	2055.16
573.26	2041.96
573.61	2028.29
573.96	2015.14
574.31	2002.05
574.67	1988.89
575.02	1975.23
575.37	1961.47
575.72	1948.07
576.08	1934.76
576.43	1920.53
576.78	1906.55
577.13	1893.18
577.49	1879.78
577.84	1866.95
578.19	1853.42
578.54	1839.48
578.90	1825.22
579.25	1810.79
579.60	1797.55
579.95	1784.04
580.30	1770.79
580.66	1757.52
581.01	1744.06
581.36	1730.78
581.71	1718.31
582.06	1705.37
582.42	1692.72
582.77	1680.23
583.12	1667.22
583.47	1654.80
583.82	1642.47
584.17	1629.85
584.53	1617.19
584.88	1604.73
585.23	1591.71
585.58	1579.36
585.93	1567.21
586.28	1555.70
586.63	1544.10
586.98	1531.72
587.34	1519.63
587.69	1507.08
588.04	1495.10
588.39	1483.35
588.74	1471.10
589.09	1458.65
589.44	1446.13
589.79	1434.01
590.14	1422.13
590.49	1410.47
590.84	1398.66
591.19	1387.27
591.54	1375.44
591.89	1363.65
592.25	1352.21
592.60	1340.47
592.95	1329.06
593.30	1317.99
593.65	1306.81
594.00	1296.01
594.35	1285.74
594.70	1274.59
595.05	1264.15
595.40	1253.39
595.75	1242.51
596.10	1232.58
596.45	1222.76
596.80	1213.30
597.15	1203.65
597.50	1193.85
597.85	1184.35
598.19	1174.90
598.54	1165.23
598.89	1156.24
599.24	1147.30
599.59	1138.15
599.94	1130.00
600.29	1121.65
600.64	1113.17
600.99	1104.02
601.34	1095.21
601.69	1086.21
602.04	1078.18
602.39	1070.20
602.74	1062.38
603.08	1054.68
603.43	1046.55
603.78	1038.34
604.13	1030.28
604.48	1022.07
604.83	1014.16
605.18	1006.16
605.53	998.22
605.87	990.20
606.22	982.38
606.57	974.45
606.92	966.38
607.27	958.23
607.62	950.38
607.96	942.68
608.31	936.02
608.66	929.01
609.01	922.17
609.36	915.23
609.70	908.06
610.05	900.84
610.40	893.89
610.75	886.90
611.10	880.17
611.44	873.14
611.79	866.40
612.14	859.40
612.49	852.56
612.83	846.04
613.18	839.62
613.53	833.17
613.88	826.83
614.22	821.03
614.57	814.97
614.92	808.88
615.27	802.84
615.61	796.56
615.96	790.52
616.31	784.40
616.65	778.24
617.00	772.25
617.35	766.34
617.70	760.52
618.04	754.86
618.39	749.20
618.74	743.86
619.08	738.40
619.43	733.06
619.78	727.69
620.12	722.25
620.47	716.97
620.82	711.73
621.16	706.71
621.51	701.41
621.85	696.13
622.20	690.90
622.55	685.76
622.89	680.51
623.24	675.33
623.59	670.32
623.93	665.42
624.28	660.68
624.62	655.88
624.97	651.06
625.32	646.36
625.66	641.54
626.01	636.68
626.35	631.94
626.70	627.29
627.04	622.86
627.39	618.43
627.73	614.04
628.08	609.84
628.43	605.41
628.77	601.01
629.12	596.82
629.46	592.76
629.81	588.56
630.15	584.39
630.50	580.35
630.84	576.43
631.19	572.58
631.53	568.83
631.88	565.04
632.22	561.25
632.57	557.64
632.91	553.94
633.26	550.36
633.60	546.85
633.95	543.46
634.29	539.87
634.64	536.25
634.98	532.64
635.32	529.14
635.67	525.87
636.01	522.56
636.36	519.22
636.70	516.03
637.05	512.85
637.39	509.78
637.73	506.56
638.08	503.47
638.42	500.36
638.77	497.09
639.11	493.78
639.45	490.57
639.80	487.38
640.14	484.34
640.49	481.23
640.83	478.02
641.17	474.89
641.52	471.90
641.86	468.90
642.20	466.05
642.55	463.03
642.89	460.09
643.23	457.33
643.58	454.81
643.92	452.14
644.26	449.48
644.61	446.83
644.95	444.21
645.29	441.48
645.64	438.77
645.98	436.22
646.32	433.82
646.66	431.37
647.01	428.93
647.35	426.56
647.69	424.11
648.04	421.82
648.38	419.48
648.72	417.11
649.06	414.85
649.41	412.61
649.75	410.37
650.09	408.16
650.43	405.91
650.78	403.63
651.12	401.36
651.46	399.22
651.80	397.13
652.14	395.11
652.49	393.13
652.83	391.21
653.17	389.23
653.51	387.33
653.85	385.47
654.20	383.52
654.54	381.52
654.88	379.70
655.22	377.87
655.56	376.06
655.90	374.34
656.25	372.61
656.59	370.87
656.93	369.26
657.27	367.66
657.61	366.00
657.95	364.38
658.29	362.76
658.64	361.12
658.98	359.50
659.32	357.88
659.66	356.37
660.00	354.86
660.34	353.41
660.68	351.87
661.02	350.31
661.36	348.85
661.70	347.44
662.05	345.99
662.39	344.57
662.73	343.24
663.07	341.93
663.41	340.64
663.75	339.36
664.09	338.06
664.43	336.69
664.77	335.44
665.11	334.13
665.45	332.88
665.79	331.65
666.13	330.41
666.47	329.18
666.81	327.91
667.15	326.60
667.49	325.35
667.83	324.19
668.17	323.06
668.51	321.92
668.85	320.83
669.19	319.81
669.53	318.70
669.87	317.56
670.21	316.45
670.55	315.33
670.89	314.32
671.23	313.26
671.57	312.22
671.91	311.23
672.25	310.28
672.58	309.35
672.92	308.39
673.26	307.51
673.60	306.60
673.94	305.69
674.28	304.84
674.62	304.00
674.96	303.10
675.30	302.26
675.64	301.41
675.97	300.58
676.31	299.70
676.65	298.88
676.99	298.11
677.33	297.29
677.67	296.50
678.01	295.64
678.34	294.83
678.68	294.09
679.02	293.29
679.36	292.52
679.70	291.74
680.04	290.98
680.37	290.21
680.71	289.49
681.05	288.79
681.39	288.06
681.73	287.31
682.06	286.60
682.40	285.90
682.74	285.21
683.08	284.55
683.42	283.87
683.75	283.26
684.09	282.56
684.43	281.90
684.77	281.26
685.10	280.64
685.44	280.02
685.78	279.39
686.12	278.80
686.45	278.19
686.79	277.58
687.13	276.99
687.46	276.36
687.80	275.77
688.14	275.15
688.48	274.59
688.81	274.00
689.15	273.47
689.49	272.89
689.82	272.32
690.16	271.71
690.50	271.15
690.83	270.59
691.17	270.04
691.51	269.50
691.84	268.96
692.18	268.43
692.52	267.85
692.85	267.32
693.19	266.83
693.52	266.32
693.86	265.82
694.20	265.32
694.53	264.85
694.87	264.35
695.21	263.87
695.54	263.37
695.88	262.89
696.21	262.36
696.55	261.89
696.88	261.43
697.22	260.98
697.56	260.53
697.89	260.04
698.23	259.60
698.56	259.12
698.90	258.70
699.23	258.26
699.57	257.87
699.90	257.45
700.24	257.01
700.58	256.60
700.91	256.22
701.25	255.90
701.58	255.55
701.92	255.20
702.25	254.83
702.59	254.43
702.92	254.06
703.26	253.71
703.59	253.34
703.93	253.06
704.26	252.71
704.60	252.35
704.93	252.01
705.26	251.65
705.60	251.35
705.93	250.99
706.27	250.70
706.60	250.39
706.94	250.10
707.27	249.74
707.61	249.42
707.94	249.07
708.27	248.67
708.61	248.30
708.94	247.96
709.28	247.66
709.61	247.36
709.94	247.09
710.28	246.81
710.61	246.55
710.95	246.19
711.28	245.99
711.61	245.71
711.95	245.47
712.28	245.21
712.61	244.93
712.95	244.73
713.28	244.51
713.61	244.24
713.95	243.98
714.28	243.75
714.61	243.50
714.95	243.27
715.28	243.03
715.61	242.79
715.95	242.58
716.28	242.35
716.61	242.16
716.95	241.93
717.28	241.72
717.61	241.51
717.94	241.31
718.28	241.03
718.61	240.82
718.94	240.60
719.27	240.40
719.61	240.22
719.94	240.00
720.27	239.76
720.60	239.57
720.94	239.37
721.27	239.19
721.60	239.03
721.93	238.85
722.27	238.71
722.60	238.56
722.93	238.36
723.26	238.20
723.59	238.00
723.93	237.84
724.26	237.67
724.59	237.51
724.92	237.36
725.25	237.24
725.59	237.09
725.92	236.95
726.25	236.79
726.58	236.64
726.91	236.48
727.24	236.36
727.57	236.22
727.91	236.05
728.24	235.93
728.57	235.77
728.90	235.65
729.23	235.48
729.56	235.39
729.89	235.27
730.22	235.13
730.55	235.01
730.89	234.89
731.22	234.76
731.55	234.63
731.88	234.50
732.21	234.35
732.54	234.23
732.87	234.11
733.20	234.02
733.53	233.91
733.86	233.81
734.19	233.68
734.52	233.59
734.85	233.56
735.18	233.43
735.51	233.37
735.84	233.26
736.17	233.19
736.50	233.04
736.83	233.05
737.16	232.96
737.49	232.87
737.82	232.77
738.15	232.69
738.48	232.60
738.81	232.51
739.14	232.41
739.47	232.31
739.80	232.22
740.13	232.12
740.46	232.02
740.79	231.92
741.12	231.83
741.45	231.72
741.78	231.57
742.11	231.52
742.44	231.40
742.77	231.33
743.10	231.23
743.43	231.15
743.75	230.97
744.08	231.05
744.41	230.95
744.74	230.87
745.07	230.78
745.40	230.72
745.73	230.68
746.06	230.61
746.39	230.55
746.71	230.47
747.04	230.38
747.37	230.30
747.70	230.25
748.03	230.18
748.36	230.13
748.68	230.06
749.01	229.96
749.34	229.90
749.67	229.84
750.00	229.77
750.33	229.79
750.65	229.74
750.98	229.52
751.31	229.45
751.64	229.40
751.97	229.38
752.29	229.31
752.62	229.21
752.95	229.14
753.28	229.07
753.60	229.00
753.93	228.98
754.26	228.93
754.59	228.83
754.91	228.77
755.24	228.70
755.57	228.68
755.90	228.63
756.22	228.58
756.55	228.50
756.88	228.43
757.20	228.30
757.53	228.21
757.86	228.16
758.19	228.13
758.51	228.08
758.84	227.98
759.17	227.91
759.49	227.86
759.82	227.86
760.15	227.83
760.47	227.78
760.80	227.70
761.13	227.67
761.45	227.64
761.78	227.60
762.11	227.56
762.43	227.46
762.76	227.41
763.08	227.37
763.41	227.33
763.74	227.30
764.06	227.26
764.39	227.22
764.71	227.18
765.04	227.13
765.37	227.07
765.69	227.04
766.02	227.00
766.34	226.96
766.67	226.88
767.00	226.86
767.32	226.87
767.65	226.90
767.97	226.85
768.30	226.82
768.62	226.77
768.95	226.71
769.27	226.68
769.60	226.66
769.92	226.61
770.25	226.57
770.57	226.52
770.90	226.48
771.22	226.44
771.55	226.41
771.87	226.37
772.20	226.35
772.52	226.40
772.85	226.49
773.17	226.47
773.50	226.43
773.82	226.39
774.15	226.31
774.47	226.22
774.80	226.17
775.12	226.14
775.45	226.12
775.77	226.11
776.09	226.08
776.42	226.05
776.74	226.05
777.07	226.01
777.39	226.00
777.72	225.97
778.04	225.95
778.36	225.93
778.69	225.91
779.01	225.89
779.33	225.78
779.66	225.63
779.98	225.60
780.31	225.58
780.63	225.60
780.95	225.61
781.28	225.58
781.60	225.55
781.92	225.54
782.25	225.51
782.57	225.49
782.89	225.47
783.22	225.44
783.54	225.41
783.86	225.40
784.19	225.36
784.51	225.38
784.83	225.34
785.16	225.31
785.48	225.31
785.80	225.29
786.12	225.29
786.45	225.28
786.77	225.28
787.09	225.26
787.42	225.21
787.74	225.19
788.06	225.18
788.38	225.16
788.71	225.14
789.03	225.13
789.35	225.12
789.67	225.10
789.99	225.08
790.32	225.06
790.64	225.06
790.96	225.15
791.28	225.10
791.61	225.09
791.93	225.09
792.25	225.06
792.57	225.13
792.89	225.09
793.21	225.09
793.54	225.06
793.86	225.03
794.18	225.03
794.50	224.99
794.82	224.98
795.14	224.99
795.47	225.00
795.79	224.99
796.11	224.96
796.43	224.95
796.75	224.94
797.07	224.93
797.39	224.91
797.71	224.81
798.04	224.81
798.36	224.80
798.68	224.79
799.00	224.79
799.32	224.72
799.64	224.73
799.96	224.71
800.28	224.72
800.60	224.71
800.92	224.70
801.24	224.68
801.56	224.68
801.89	224.65
802.21	224.65
802.53	224.63
802.85	224.65
803.17	224.69
803.49	224.66
803.81	224.64
804.13	224.63
804.45	224.60
804.77	224.60
805.09	224.58
805.41	224.56
805.73	224.53
806.05	224.50
806.37	224.48
806.69	224.46
807.01	224.44
807.33	224.44
807.65	224.40
807.97	224.43
808.28	224.40
808.60	224.40
808.92	224.36
809.24	224.41
809.56	224.38
809.88	224.33
810.20	224.33
810.52	224.34
810.84	224.32
811.16	224.30
811.48	224.29
811.80	224.32
812.12	224.32
812.43	224.34
812.75	224.34
813.07	224.31
813.39	224.31
813.71	224.30
814.03	224.29
814.35	224.29
814.67	224.25
814.98	224.25
815.30	224.25
815.62	224.24
815.94	224.16
816.26	224.18
816.58	224.16
816.89	224.16
817.21	224.13
817.53	224.13
817.85	224.13
818.17	224.12
818.48	224.08
818.80	224.09
819.12	224.06
819.44	224.05
819.76	224.03
820.07	224.02
820.39	224.01
820.71	224.00
821.03	224.00
821.34	223.99
821.66	223.99
821.98	223.99
822.30	223.99
822.61	224.05
822.93	224.03
823.25	224.02
823.57	224.00
823.88	224.02
824.20	224.02
824.52	224.03
824.83	224.02
825.15	224.01
825.47	223.99
825.79	224.00
826.10	223.99
826.42	223.99
826.74	223.99
827.05	223.99
827.37	223.99
827.69	223.99
828.00	223.98
828.32	223.97
828.64	223.95
828.95	224.01
829.27	223.97
829.58	223.96
829.90	223.97
830.22	223.97
830.53	223.94
830.85	223.92
831.17	223.89
831.48	223.89
831.80	223.89
832.11	223.88
832.43	223.87
832.75	223.86
833.06	223.92
833.38	223.89
833.69	223.89
834.01	223.89
834.32	223.89
834.64	223.88
834.96	223.88
835.27	223.88
835.59	223.83
835.90	223.82
836.22	223.82
836.53	223.80
836.85	223.79
837.16	223.90
837.48	223.90
837.79	223.93
838.11	223.93
838.42	223.92
838.74	223.93
839.05	223.92
839.37	223.91
839.68	223.85
840.00	223.84
840.31	223.84
840.63	223.82
840.94	223.81
841.26	223.80
841.57	223.79
841.88	223.79
842.20	223.77
842.51	223.76
842.83	223.75
843.14	223.85
843.46	223.84
843.77	223.77
844.08	223.77
844.40	223.74
844.71	223.74
845.03	223.73
845.34	223.72
845.65	223.73
845.97	223.72
846.28	223.72
846.60	223.73
846.91	223.72
847.22	223.72
847.54	223.74
847.85	223.74
848.16	223.74
848.48	223.73
848.79	223.77
849.10	223.78
849.42	223.78
849.73	223.68
850.04	223.68
850.36	223.65
850.67	223.66
850.98	223.66
851.30	223.67
851.61	223.67
851.92	223.67
852.23	223.68
852.55	223.69
852.86	223.70
853.17	223.72
853.49	223.74
853.80	223.77
854.11	223.78
854.42	223.80
854.74	223.79
855.05	223.79
855.36	223.73
855.67	223.74
855.99	223.74
856.30	223.86
856.61	223.86
856.92	223.87
857.23	223.87
857.55	223.85
857.86	223.83
858.17	223.85
858.48	223.84
858.79	223.82
859.11	223.83
859.42	223.82
859.73	223.81
860.04	223.80
860.35	223.75
860.66	223.72
860.98	223.71
861.29	223.72
861.60	223.71
861.91	223.74
862.22	223.72
862.53	223.70
862.84	223.59
863.16	223.61
863.47	223.60
863.78	223.58
864.09	223.59
864.40	223.60
864.71	223.59
865.02	223.61
865.33	223.60
865.64	223.57
865.95	223.57
866.27	223.64
866.58	223.63
866.89	223.64
867.20	223.64
867.51	223.63
867.82	223.62
868.13	223.64
868.44	223.62
868.75	223.62
869.06	223.63
869.37	223.63
869.68	223.60
869.99	223.61
870.30	223.62
870.61	223.61
870.92	223.59
871.23	223.59
871.54	223.60
871.85	223.62
872.16	223.64
872.47	223.63
872.78	223.56
873.09	223.58
873.40	223.57
873.71	223.57
874.02	223.58
874.33	223.57
874.64	223.55
874.95	223.57
875.26	223.55
875.56	223.56
875.87	223.56
876.18	223.55
876.49	223.66
876.80	223.64
877.11	223.63
877.42	223.64
877.73	223.63
878.04	223.62
878.35	223.62
878.66	223.61
878.96	223.61
879.27	223.61
879.58	223.60
879.89	223.59
880.20	223.62
880.51	223.61
880.82	223.61
881.12	223.61
881.43	223.58
881.74	223.58
882.05	223.56
882.36	223.58
882.67	223.58
882.97	223.47
883.28	223.46
883.59	223.45
883.90	223.46
884.21	223.48
884.51	223.47
884.82	223.46
885.13	223.44
885.44	223.44
885.74	223.44
886.05	223.43
886.36	223.44
886.67	223.40
886.98	223.44
887.28	223.44
887.59	223.45
887.90	223.45
888.20	223.45
888.51	223.48
888.82	223.45
889.13	223.46
889.43	223.55
889.74	223.53
890.05	223.55
890.35	223.53
890.66	223.50
890.97	223.49
891.28	223.47
891.58	223.48
891.89	223.48
892.20	223.46
892.50	223.46
892.81	223.45
893.12	223.45
893.42	223.40
893.73	223.40
894.04	223.40
894.34	223.41
894.65	223.41
894.95	223.39
895.26	223.41
895.57	223.44
895.87	223.34
896.18	223.37
896.48	223.37
896.79	223.37
897.10	223.40
897.40	223.40
897.71	223.41
898.01	223.41
898.32	223.41
898.63	223.41
898.93	223.41
899.24	223.41
899.54	223.41
899.85	223.40
900.15	223.40
900.46	223.39
900.76	223.39
901.07	223.39
901.38	223.38
901.68	223.39
901.99	223.34
902.29	223.34
902.60	223.34
902.90	223.34
903.21	223.33
903.51	223.31
903.82	223.34
904.12	223.33
904.43	223.34
904.73	223.33
905.03	223.34
905.34	223.44
905.64	223.44
905.95	223.45
906.25	223.46
906.56	223.45
906.86	223.46
907.17	223.45
907.47	223.46
907.77	223.45
908.08	223.42
908.38	223.43
908.69	223.44
908.99	223.45
909.30	223.45
909.60	223.46
909.90	223.47
910.21	223.44
910.51	223.42
910.81	223.43
911.12	223.43
911.42	223.44
911.73	223.33
912.03	223.34
912.33	223.36
912.64	223.34
912.94	223.33
913.24	223.31
913.55	223.30
913.85	223.29
914.15	223.32
914.46	223.33
914.76	223.32
915.06	223.31
915.37	223.29
915.67	223.27
915.97	223.28
916.27	223.25
916.58	223.25
916.88	223.25
917.18	223.23
917.49	223.30
917.79	223.29
918.09	223.31
918.39	223.34
918.70	223.33
919.00	223.33
919.30	223.39
919.60	223.39
919.91	223.38
920.21	223.38
920.51	223.37
920.81	223.36
921.12	223.37
921.42	223.36
921.72	223.37
922.02	223.38
922.32	223.39
922.63	223.40
922.93	223.46
923.23	223.47
923.53	223.46
923.83	223.40
924.13	223.40
924.44	223.39
924.74	223.40
925.04	223.42
925.34	223.42
925.64	223.38
925.94	223.37
926.24	223.44
926.55	223.43
926.85	223.45
927.15	223.43
927.45	223.43
927.75	223.44
928.05	223.45
928.35	223.44
928.65	223.45
928.95	223.45
929.26	223.40
929.56	223.43
929.86	223.44
930.16	223.42
930.46	223.41
930.76	223.41
931.06	223.37
931.36	223.34
931.66	223.36
931.96	223.37
932.26	223.38
932.56	223.33
932.86	223.34
933.16	223.34
933.46	223.33
933.76	223.32
934.06	223.34
934.36	223.37
934.66	223.37
934.96	223.34
935.26	223.35
935.56	223.37
935.86	223.33
936.16	223.32
936.46	223.32
936.76	223.32
937.06	223.31
937.36	223.32
937.66	223.33
937.96	223.31
938.26	223.30
938.56	223.29
938.86	223.30
939.16	223.32
939.46	223.32
939.76	223.34
940.06	223.34
940.35	223.33
940.65	223.28
940.95	223.29
941.25	223.27
941.55	223.25
941.85	223.24
942.15	223.27
942.45	223.29
942.75	223.29
943.04	223.30
943.34	223.32
943.64	223.31
943.94	223.29
944.24	223.29
944.54	223.30
944.84	223.30
945.13	223.28
945.43	223.26
945.73	223.25
946.03	223.24
946.33	223.23
946.62	223.22
946.92	223.22
947.22	223.21
947.52	223.23
947.82	223.24
948.11	223.24
948.41	223.22
948.71	223.19
949.01	223.19
949.31	223.18
949.60	223.16
949.90	223.19
950.20	223.19
950.50	223.18
950.79	223.18
951.09	223.20
951.39	223.19
951.69	223.18
951.98	223.20
952.28	223.21
952.58	223.20
952.87	223.20
953.17	223.21
953.47	223.20
953.76	223.20
954.06	223.18
954.36	223.16
954.66	223.16
954.95	223.20
955.25	223.20
955.55	223.21
955.84	223.19
956.14	223.19
956.44	223.20
956.73	223.18
957.03	223.19
957.32	223.19
957.62	223.20
957.92	223.22
958.21	223.20
958.51	223.32
958.81	223.34
959.10	223.35
959.40	223.37
959.69	223.38
959.99	223.39
960.29	223.40
960.58	223.39
960.88	223.43
961.17	223.41
961.47	223.43
961.76	223.42
962.06	223.43
962.36	223.42
962.65	223.42
962.95	223.44
963.24	223.42
963.54	223.41
963.83	223.42
964.13	223.41
964.42	223.41
964.72	223.32
965.01	223.32
965.31	223.31
965.60	223.28
965.90	223.35
966.19	223.32
966.49	223.33
966.78	223.33
967.08	223.31
967.37	223.31
967.67	223.29
967.96	223.32
968.26	223.31
968.55	223.32
968.85	223.32
969.14	223.31
969.43	223.31
969.73	223.31
970.02	223.30
970.32	223.29
970.61	223.26
970.91	223.24
971.20	223.22
971.49	223.21
971.79	223.23
972.08	223.16
972.38	223.17
972.67	223.17
972.96	223.19
973.26	223.17
973.55	223.20
973.85	223.19
974.14	223.18
974.43	223.19
974.73	223.17
975.02	223.16
975.31	223.16
975.61	223.16
975.90	223.15
976.19	223.14
976.49	223.16
976.78	223.17
977.07	223.17
977.37	223.18
977.66	223.19
977.95	223.17
978.24	223.17
978.54	223.19
978.83	223.18
979.12	223.18
979.42	223.18
979.71	223.15
980.00	223.15
980.29	223.15
980.59	223.14
980.88	223.16
981.17	223.16
981.46	223.16
981.76	223.17
982.05	223.21
982.34	223.21
982.63	223.20
982.93	223.20
983.22	223.23
983.51	223.22
983.80	223.24
984.09	223.25
984.39	223.25
984.68	223.23
984.97	223.24
985.26	223.23
985.55	223.24
985.85	223.22
986.14	223.24
986.43	223.25
986.72	223.23
987.01	223.20
987.30	223.20
987.59	223.19
987.89	223.18
988.18	223.15
988.47	223.14
988.76	223.14
989.05	223.12
989.34	223.11
989.63	223.13
989.92	223.10
990.22	223.09
990.51	223.08
990.80	223.07
991.09	223.08
991.38	223.09
991.67	223.08
991.96	223.07
992.25	223.07
992.54	223.06
992.83	223.07
993.12	223.07
993.41	223.08
993.70	223.13
993.99	223.15
994.28	223.17
994.58	223.18
994.87	223.17
995.16	223.18
995.45	223.16
995.74	223.13
996.03	223.14
996.32	223.17
996.61	223.19
996.90	223.19
997.19	223.19
997.48	223.18
997.77	223.17
998.06	223.18
998.34	223.17
998.63	223.16
998.92	223.16
999.21	223.18
999.50	223.17
999.79	223.15
1000.08	223.14
1000.37	223.14
1000.66	223.13
1000.95	223.16
1001.24	223.16
1001.53	223.18
1001.82	223.18
1002.11	223.16
1002.40	223.17
1002.68	223.19
1002.97	223.26
1003.26	223.24
1003.55	223.23
1003.84	223.24
1004.13	223.27
1004.42	223.27
1004.71	223.27
1004.99	223.27
1005.28	223.29
1005.57	223.28
1005.86	223.27
1006.15	223.26
1006.44	223.25
1006.72	223.26
1007.01	223.25
1007.30	223.25
1007.59	223.23
1007.88	223.24
1008.17	223.25
1008.45	223.22
1008.74	223.18
1009.03	223.14
1009.32	223.14
1009.60	223.14
1009.89	223.14
1010.18	223.09
1010.47	223.09
1010.76	223.08
1011.04	223.07
1011.33	223.07
1011.62	223.07
1011.91	223.07
1012.19	223.08
1012.48	223.08
1012.77	223.07
1013.05	223.10
1013.34	223.10
1013.63	223.09
1013.92	223.09
1014.20	223.09
1014.49	223.09
1014.78	223.11
1015.06	223.07
1015.35	223.07
1015.64	223.08
1015.92	223.10
1016.21	223.11
1016.50	223.11
1016.78	223.12
1017.07	223.13
1017.36	223.12
1017.64	223.11
1017.93	223.11
1018.22	223.09
1018.50	223.09
1018.79	223.09
1019.08	223.04
1019.36	223.05
1019.65	223.05
1019.93	223.08
1020.22	223.10
1020.51	223.14
1020.79	223.12
1021.08	222.93
1021.36	222.85
1021.65	223.08
1021.94	223.03
1022.22	223.19
1022.51	222.94
1022.79	223.61
1023.08	223.23
1023.36	224.30
1023.65	222.76
>>>>>End Processed Spectral Data<<<<<
