SpectraSuite Data File
++++++++++++++++++++++++++++++++++++
Date: Thu Oct 01 07:50:53 EDT 2015
User: lab3
Dark Spectrum Present: No
Reference Spectrum Present: No
Number of Sampled Component Spectra: 1
Spectrometers: USB2E7196
Integration Time (usec): 36000 (USB2E7196)
Spectra Averaged: 10000 (USB2E7196)
Boxcar Smoothing: 10 (USB2E7196)
Correct for Electrical Dark: No (USB2E7196)
Strobe/Lamp Enabled: No (USB2E7196)
Correct for Detector Non-linearity: No (USB2E7196)
Correct for Stray Light: No (USB2E7196)
Number of Pixels in Processed Spectrum: 2048
>>>>>Begin Processed Spectral Data<<<<<
339.09	0.00
339.48	209.74
339.86	211.25
340.24	212.59
340.63	214.05
341.01	216.99
341.39	216.73
341.78	218.04
342.16	219.29
342.54	219.71
342.93	208.37
343.31	218.90
343.69	219.44
344.07	219.90
344.46	220.33
344.84	220.71
345.22	220.95
345.60	221.21
345.99	221.40
346.37	221.54
346.75	221.65
347.13	221.72
347.52	221.79
347.90	221.88
348.28	221.91
348.66	221.97
349.05	221.97
349.43	222.02
349.81	222.08
350.19	222.13
350.57	222.20
350.96	222.28
351.34	222.37
351.72	222.46
352.10	222.57
352.48	222.64
352.87	222.70
353.25	222.76
353.63	222.82
354.01	222.88
354.39	222.96
354.77	223.04
355.15	223.14
355.54	223.19
355.92	223.22
356.30	223.29
356.68	223.43
357.06	223.51
357.44	223.55
357.82	223.61
358.20	223.72
358.58	223.78
358.97	223.84
359.35	223.92
359.73	224.00
360.11	224.06
360.49	224.12
360.87	224.17
361.25	224.23
361.63	224.31
362.01	224.36
362.39	224.39
362.77	224.43
363.15	224.46
363.53	224.49
363.91	224.53
364.29	224.55
364.67	224.48
365.05	224.50
365.43	224.53
365.81	224.56
366.19	224.58
366.57	224.63
366.95	224.63
367.33	224.61
367.71	224.60
368.09	224.61
368.47	224.60
368.85	224.59
369.23	224.60
369.61	224.55
369.99	224.56
370.37	224.56
370.75	224.61
371.13	224.59
371.51	224.55
371.89	224.53
372.27	224.50
372.65	224.48
373.03	224.44
373.41	224.39
373.78	224.34
374.16	224.25
374.54	224.17
374.92	224.12
375.30	224.08
375.68	224.02
376.06	223.97
376.44	223.92
376.82	223.88
377.19	223.83
377.57	223.77
377.95	223.69
378.33	223.63
378.71	223.49
379.09	223.44
379.47	223.40
379.84	223.34
380.22	223.28
380.60	223.21
380.98	223.16
381.36	223.11
381.73	223.04
382.11	223.01
382.49	222.97
382.87	222.91
383.25	222.86
383.62	222.93
384.00	222.87
384.38	222.82
384.76	222.80
385.13	222.79
385.51	222.75
385.89	222.69
386.27	222.66
386.64	222.63
387.02	222.59
387.40	222.54
387.78	222.52
388.15	222.49
388.53	222.46
388.91	222.43
389.29	222.39
389.66	222.39
390.04	222.35
390.42	222.34
390.79	222.33
391.17	222.31
391.55	222.18
391.92	222.16
392.30	222.16
392.68	222.12
393.05	222.10
393.43	222.10
393.81	222.10
394.18	222.09
394.56	222.09
394.94	222.11
395.31	222.11
395.69	222.15
396.06	222.17
396.44	222.19
396.82	222.21
397.19	222.28
397.57	222.29
397.95	222.33
398.32	222.33
398.70	222.37
399.07	222.43
399.45	222.47
399.82	222.51
400.20	222.54
400.58	222.60
400.95	222.61
401.33	222.69
401.70	222.82
402.08	222.91
402.45	222.99
402.83	223.09
403.20	223.20
403.58	223.28
403.95	223.41
404.33	223.54
404.71	223.66
405.08	223.85
405.46	223.99
405.83	224.16
406.21	224.33
406.58	224.53
406.96	224.72
407.33	224.93
407.70	225.18
408.08	225.52
408.45	225.81
408.83	226.12
409.20	226.41
409.58	226.67
409.95	227.03
410.33	227.41
410.70	227.77
411.08	228.19
411.45	228.64
411.82	229.09
412.20	229.61
412.57	230.23
412.95	230.71
413.32	231.35
413.69	232.00
414.07	232.69
414.44	233.43
414.82	234.20
415.19	235.10
415.56	236.01
415.94	236.95
416.31	238.01
416.68	239.07
417.06	240.30
417.43	241.46
417.81	242.79
418.18	244.15
418.55	245.63
418.93	247.18
419.30	248.79
419.67	250.51
420.04	252.27
420.42	254.11
420.79	256.24
421.16	258.39
421.54	260.57
421.91	262.86
422.28	265.23
422.66	267.79
423.03	270.22
423.40	272.78
423.77	275.52
424.15	278.32
424.52	281.24
424.89	284.40
425.26	287.54
425.64	290.45
426.01	293.73
426.38	297.08
426.75	300.52
427.13	304.05
427.50	307.73
427.87	311.55
428.24	315.42
428.61	319.11
428.99	323.09
429.36	327.46
429.73	331.63
430.10	335.79
430.47	340.03
430.85	344.40
431.22	349.05
431.59	353.82
431.96	358.46
432.33	363.60
432.70	368.47
433.08	374.24
433.45	379.68
433.82	385.03
434.19	391.01
434.56	396.89
434.93	402.55
435.30	408.15
435.68	414.46
436.05	420.63
436.42	426.81
436.79	432.43
437.16	438.50
437.53	445.01
437.90	451.52
438.27	457.88
438.64	464.79
439.01	471.05
439.38	476.77
439.75	482.30
440.13	488.62
440.50	494.64
440.87	499.41
441.24	504.63
441.61	510.42
441.98	514.67
442.35	519.72
442.72	524.93
443.09	529.91
443.46	533.17
443.83	535.61
444.20	537.68
444.57	540.68
444.94	542.52
445.31	544.41
445.68	546.12
446.05	547.44
446.42	547.41
446.79	547.27
447.16	547.19
447.53	547.15
447.90	545.42
448.27	543.81
448.64	541.19
449.01	539.48
449.37	535.62
449.74	532.12
450.11	527.59
450.48	522.57
450.85	517.52
451.22	513.23
451.59	509.04
451.96	505.24
452.33	499.60
452.70	494.58
453.07	488.43
453.43	482.27
453.80	476.30
454.17	470.56
454.54	465.24
454.91	459.20
455.28	453.51
455.65	448.15
456.02	442.42
456.38	437.80
456.75	431.84
457.12	427.03
457.49	422.18
457.86	417.54
458.23	413.47
458.59	408.97
458.96	404.35
459.33	400.25
459.70	396.08
460.07	392.91
460.43	389.18
460.80	385.68
461.17	382.59
461.54	379.26
461.91	376.14
462.27	372.98
462.64	370.39
463.01	367.43
463.38	364.45
463.74	361.75
464.11	359.34
464.48	357.17
464.85	354.85
465.21	353.07
465.58	351.10
465.95	348.83
466.32	347.01
466.68	345.24
467.05	343.47
467.42	341.76
467.78	339.91
468.15	338.20
468.52	336.93
468.88	335.28
469.25	333.76
469.62	332.56
469.98	331.25
470.35	330.09
470.72	329.04
471.08	327.97
471.45	327.09
471.82	326.12
472.18	325.11
472.55	324.45
472.92	323.65
473.28	323.02
473.65	322.37
474.02	321.75
474.38	321.25
474.75	320.98
475.11	320.56
475.48	320.40
475.85	320.25
476.21	320.20
476.58	320.21
476.94	320.40
477.31	320.53
477.67	320.69
478.04	320.96
478.41	321.31
478.77	321.78
479.14	322.12
479.50	322.69
479.87	323.40
480.23	324.11
480.60	324.79
480.96	325.49
481.33	326.47
481.69	327.45
482.06	328.42
482.42	329.32
482.79	330.41
483.15	331.67
483.52	333.06
483.88	334.42
484.25	335.86
484.61	337.35
484.98	338.97
485.34	340.77
485.71	342.64
486.07	344.64
486.44	346.63
486.80	348.84
487.17	351.09
487.53	353.58
487.90	356.16
488.26	358.96
488.62	361.90
488.99	364.86
489.35	367.94
489.72	371.28
490.08	374.79
490.44	378.39
490.81	382.15
491.17	386.01
491.54	390.13
491.90	394.35
492.26	398.89
492.63	403.69
492.99	408.67
493.36	413.78
493.72	419.16
494.08	424.67
494.45	430.50
494.81	436.54
495.17	442.71
495.54	449.22
495.90	456.05
496.26	463.03
496.63	470.23
496.99	477.73
497.35	485.59
497.72	493.76
498.08	502.08
498.44	510.67
498.80	519.81
499.17	529.19
499.53	538.91
499.89	548.86
500.26	558.98
500.62	569.38
500.98	580.46
501.34	591.69
501.71	603.47
502.07	615.46
502.43	627.84
502.79	640.59
503.16	653.73
503.52	667.07
503.88	680.79
504.24	694.93
504.60	709.37
504.97	724.21
505.33	739.41
505.69	755.53
506.05	771.87
506.41	788.21
506.78	804.86
507.14	821.98
507.50	839.71
507.86	857.81
508.22	876.19
508.59	894.59
508.95	913.71
509.31	933.26
509.67	953.54
510.03	974.04
510.39	994.73
510.75	1015.67
511.12	1036.90
511.48	1058.47
511.84	1080.11
512.20	1102.04
512.56	1125.09
512.92	1148.37
513.28	1171.38
513.64	1194.66
514.00	1218.36
514.37	1242.41
514.73	1266.45
515.09	1290.31
515.45	1314.60
515.81	1339.46
516.17	1364.39
516.53	1388.97
516.89	1413.61
517.25	1438.41
517.61	1463.42
517.97	1488.62
518.33	1513.52
518.69	1538.59
519.05	1563.89
519.41	1589.32
519.77	1615.05
520.13	1639.95
520.49	1665.01
520.85	1690.27
521.21	1715.47
521.57	1741.27
521.93	1766.31
522.29	1792.24
522.65	1817.86
523.01	1843.27
523.37	1867.93
523.73	1893.17
524.09	1918.58
524.45	1943.94
524.81	1968.85
525.17	1993.65
525.53	2017.97
525.89	2042.33
526.25	2066.86
526.61	2090.86
526.97	2115.15
527.33	2139.35
527.68	2163.45
528.04	2186.62
528.40	2209.68
528.76	2232.90
529.12	2255.04
529.48	2277.57
529.84	2298.21
530.20	2319.50
530.56	2340.42
530.91	2361.37
531.27	2381.84
531.63	2401.66
531.99	2420.93
532.35	2439.78
532.71	2458.74
533.07	2478.38
533.42	2496.40
533.78	2514.88
534.14	2533.30
534.50	2550.90
534.86	2569.08
535.21	2585.37
535.57	2601.70
535.93	2617.17
536.29	2631.49
536.65	2646.61
537.00	2660.61
537.36	2675.15
537.72	2688.55
538.08	2701.68
538.44	2713.64
538.79	2725.80
539.15	2736.32
539.51	2746.79
539.87	2756.95
540.22	2765.02
540.58	2773.05
540.94	2781.76
541.29	2788.84
541.65	2794.97
542.01	2800.57
542.37	2804.29
542.72	2809.89
543.08	2815.00
543.44	2820.03
543.79	2824.14
544.15	2827.48
544.51	2830.72
544.87	2833.11
545.22	2835.05
545.58	2836.05
545.94	2837.48
546.29	2837.46
546.65	2837.62
547.01	2837.74
547.36	2838.02
547.72	2838.41
548.07	2837.36
548.43	2835.64
548.79	2833.27
549.14	2831.00
549.50	2829.26
549.86	2826.85
550.21	2821.88
550.57	2817.34
550.92	2811.40
551.28	2806.10
551.64	2800.64
551.99	2795.66
552.35	2790.24
552.70	2784.41
553.06	2779.26
553.41	2773.70
553.77	2767.62
554.13	2762.11
554.48	2755.83
554.84	2747.78
555.19	2739.87
555.55	2731.42
555.90	2723.52
556.26	2716.68
556.61	2709.19
556.97	2699.56
557.32	2690.68
557.68	2682.40
558.03	2673.40
558.39	2665.10
558.74	2656.99
559.10	2647.57
559.45	2637.85
559.81	2628.46
560.16	2618.45
560.52	2607.92
560.87	2598.37
561.23	2588.49
561.58	2578.09
561.94	2567.41
562.29	2556.27
562.64	2545.78
563.00	2535.64
563.35	2525.40
563.71	2514.27
564.06	2502.50
564.42	2491.83
564.77	2480.76
565.12	2469.83
565.48	2458.60
565.83	2448.01
566.19	2437.42
566.54	2426.56
566.89	2414.70
567.25	2402.84
567.60	2391.80
567.96	2380.38
568.31	2367.57
568.66	2354.60
569.02	2342.72
569.37	2330.64
569.72	2319.05
570.08	2306.74
570.43	2293.88
570.78	2280.76
571.14	2267.39
571.49	2254.88
571.84	2242.62
572.20	2229.04
572.55	2215.84
572.90	2202.59
573.26	2188.49
573.61	2173.81
573.96	2159.35
574.31	2145.30
574.67	2131.44
575.02	2117.16
575.37	2102.44
575.72	2088.03
576.08	2074.23
576.43	2059.43
576.78	2044.62
577.13	2030.70
577.49	2016.80
577.84	2003.26
578.19	1988.87
578.54	1974.12
578.90	1958.83
579.25	1943.30
579.60	1929.21
579.95	1914.73
580.30	1900.25
580.66	1886.07
581.01	1871.51
581.36	1857.29
581.71	1843.65
582.06	1829.53
582.42	1815.44
582.77	1802.15
583.12	1788.54
583.47	1774.92
583.82	1761.43
584.17	1747.83
584.53	1734.05
584.88	1720.28
585.23	1706.21
585.58	1692.63
585.93	1679.50
586.28	1667.20
586.63	1654.75
586.98	1641.57
587.34	1628.66
587.69	1615.22
588.04	1601.97
588.39	1589.45
588.74	1576.49
589.09	1563.21
589.44	1549.90
589.79	1537.20
590.14	1524.29
590.49	1511.64
590.84	1498.87
591.19	1486.76
591.54	1474.14
591.89	1461.38
592.25	1448.99
592.60	1436.17
592.95	1423.89
593.30	1411.89
593.65	1399.70
594.00	1387.67
594.35	1376.50
594.70	1364.46
595.05	1353.54
595.40	1342.50
595.75	1330.81
596.10	1319.90
596.45	1309.19
596.80	1298.98
597.15	1288.54
597.50	1278.14
597.85	1267.89
598.19	1257.84
598.54	1247.19
598.89	1237.29
599.24	1227.72
599.59	1217.89
599.94	1209.07
600.29	1200.16
600.64	1191.02
600.99	1181.32
601.34	1172.08
601.69	1162.24
602.04	1153.47
602.39	1144.50
602.74	1135.77
603.08	1127.32
603.43	1118.36
603.78	1109.32
604.13	1100.42
604.48	1091.44
604.83	1082.72
605.18	1073.92
605.53	1065.06
605.87	1056.35
606.22	1047.88
606.57	1039.14
606.92	1030.49
607.27	1021.75
607.62	1013.09
607.96	1004.60
608.31	997.07
608.66	989.12
609.01	981.60
609.36	974.04
609.70	966.27
610.05	958.32
610.40	950.72
610.75	943.27
611.10	936.08
611.44	928.49
611.79	921.21
612.14	913.57
612.49	906.05
612.83	899.02
613.18	892.03
613.53	884.85
613.88	877.75
614.22	871.23
614.57	864.54
614.92	857.84
615.27	851.19
615.61	844.38
615.96	837.80
616.31	831.15
616.65	824.38
617.00	817.86
617.35	811.48
617.70	805.13
618.04	798.83
618.39	792.56
618.74	786.62
619.08	780.51
619.43	774.65
619.78	768.84
620.12	762.81
620.47	756.96
620.82	751.17
621.16	745.70
621.51	739.90
621.85	734.10
622.20	728.33
622.55	722.74
622.89	717.12
623.24	711.52
623.59	706.01
623.93	700.55
624.28	695.22
624.62	689.88
624.97	684.52
625.32	679.29
625.66	673.92
626.01	668.56
626.35	663.31
626.70	658.11
627.04	653.09
627.39	648.12
627.73	643.26
628.08	638.63
628.43	633.88
628.77	629.18
629.12	624.60
629.46	620.21
629.81	615.66
630.15	610.98
630.50	606.47
630.84	602.13
631.19	597.98
631.53	593.88
631.88	589.65
632.22	585.52
632.57	581.64
632.91	577.71
633.26	573.86
633.60	570.08
633.95	566.38
634.29	562.55
634.64	558.69
634.98	554.74
635.32	550.96
635.67	547.31
636.01	543.61
636.36	539.96
636.70	536.43
637.05	532.89
637.39	529.56
637.73	526.11
638.08	522.71
638.42	519.29
638.77	515.72
639.11	512.19
639.45	508.68
639.80	505.14
640.14	501.80
640.49	498.41
640.83	494.94
641.17	491.48
641.52	488.21
641.86	484.93
642.20	481.80
642.55	478.53
642.89	475.33
643.23	472.34
643.58	469.56
643.92	466.67
644.26	463.82
644.61	460.95
644.95	458.09
645.29	455.18
645.64	452.25
645.98	449.44
646.32	446.79
646.66	444.17
647.01	441.51
647.35	438.91
647.69	436.20
648.04	433.62
648.38	431.10
648.72	428.52
649.06	426.02
649.41	423.55
649.75	421.07
650.09	418.62
650.43	416.17
650.78	413.71
651.12	411.24
651.46	408.86
651.80	406.57
652.14	404.37
652.49	402.16
652.83	400.02
653.17	397.86
653.51	395.77
653.85	393.74
654.20	391.66
654.54	389.49
654.88	387.50
655.22	385.60
655.56	383.65
655.90	381.78
656.25	379.93
656.59	378.09
656.93	376.33
657.27	374.62
657.61	372.80
657.95	371.05
658.29	369.31
658.64	367.60
658.98	365.86
659.32	364.16
659.66	362.55
660.00	360.96
660.34	359.40
660.68	357.78
661.02	356.10
661.36	354.52
661.70	353.02
662.05	351.51
662.39	349.97
662.73	348.52
663.07	347.11
663.41	345.70
663.75	344.32
664.09	342.95
664.43	341.50
664.77	340.15
665.11	338.73
665.45	337.39
665.79	336.05
666.13	334.70
666.47	333.34
666.81	331.96
667.15	330.54
667.49	329.22
667.83	327.96
668.17	326.74
668.51	325.54
668.85	324.35
669.19	323.23
669.53	322.04
669.87	320.83
670.21	319.64
670.55	318.48
670.89	317.38
671.23	316.26
671.57	315.15
671.91	314.10
672.25	313.10
672.58	312.10
672.92	311.06
673.26	310.09
673.60	309.12
673.94	308.15
674.28	307.24
674.62	306.31
674.96	305.36
675.30	304.45
675.64	303.52
675.97	302.61
676.31	301.66
676.65	300.74
676.99	299.88
677.33	298.96
677.67	298.10
678.01	297.15
678.34	296.28
678.68	295.46
679.02	294.61
679.36	293.77
679.70	292.93
680.04	292.13
680.37	291.31
680.71	290.52
681.05	289.78
681.39	289.00
681.73	288.19
682.06	287.42
682.40	286.65
682.74	285.92
683.08	285.21
683.42	284.47
683.75	283.81
684.09	283.07
684.43	282.39
684.77	281.68
685.10	281.03
685.44	280.36
685.78	279.67
686.12	279.02
686.45	278.37
686.79	277.71
687.13	277.08
687.46	276.42
687.80	275.78
688.14	275.10
688.48	274.48
688.81	273.86
689.15	273.29
689.49	272.69
689.82	272.09
690.16	271.45
690.50	270.86
690.83	270.27
691.17	269.70
691.51	269.14
691.84	268.60
692.18	268.03
692.52	267.45
692.85	266.89
693.19	266.37
693.52	265.85
693.86	265.31
694.20	264.79
694.53	264.30
694.87	263.79
695.21	263.30
695.54	262.81
695.88	262.31
696.21	261.78
696.55	261.29
696.88	260.81
697.22	260.34
697.56	259.88
697.89	259.36
698.23	258.87
698.56	258.37
698.90	257.92
699.23	257.46
699.57	257.02
699.90	256.59
700.24	256.12
700.58	255.69
700.91	255.29
701.25	254.96
701.58	254.60
701.92	254.22
702.25	253.83
702.59	253.42
702.92	253.04
703.26	252.67
703.59	252.29
703.93	252.00
704.26	251.64
704.60	251.27
704.93	250.93
705.26	250.58
705.60	250.26
705.93	249.90
706.27	249.60
706.60	249.29
706.94	248.99
707.27	248.64
707.61	248.30
707.94	247.95
708.27	247.53
708.61	247.17
708.94	246.82
709.28	246.51
709.61	246.19
709.94	245.90
710.28	245.61
710.61	245.34
710.95	244.97
711.28	244.76
711.61	244.48
711.95	244.23
712.28	243.95
712.61	243.67
712.95	243.47
713.28	243.25
713.61	242.98
713.95	242.70
714.28	242.47
714.61	242.22
714.95	241.98
715.28	241.73
715.61	241.50
715.95	241.28
716.28	241.04
716.61	240.84
716.95	240.61
717.28	240.39
717.61	240.17
717.94	239.95
718.28	239.66
718.61	239.45
718.94	239.22
719.27	239.02
719.61	238.83
719.94	238.61
720.27	238.36
720.60	238.16
720.94	237.97
721.27	237.79
721.60	237.62
721.93	237.44
722.27	237.30
722.60	237.14
722.93	236.95
723.26	236.78
723.59	236.59
723.93	236.44
724.26	236.28
724.59	236.11
724.92	235.96
725.25	235.84
725.59	235.68
725.92	235.55
726.25	235.41
726.58	235.26
726.91	235.10
727.24	234.97
727.57	234.83
727.91	234.67
728.24	234.55
728.57	234.40
728.90	234.28
729.23	234.11
729.56	234.02
729.89	233.89
730.22	233.74
730.55	233.61
730.89	233.48
731.22	233.34
731.55	233.21
731.88	233.09
732.21	232.94
732.54	232.82
732.87	232.70
733.20	232.59
733.53	232.47
733.86	232.37
734.19	232.24
734.52	232.15
734.85	232.12
735.18	231.99
735.51	231.91
735.84	231.80
736.17	231.73
736.50	231.57
736.83	231.59
737.16	231.50
737.49	231.41
737.82	231.31
738.15	231.24
738.48	231.14
738.81	231.04
739.14	230.94
739.47	230.84
739.80	230.74
740.13	230.65
740.46	230.54
740.79	230.43
741.12	230.35
741.45	230.23
741.78	230.09
742.11	230.04
742.44	229.92
742.77	229.85
743.10	229.75
743.43	229.65
743.75	229.46
744.08	229.53
744.41	229.44
744.74	229.36
745.07	229.25
745.40	229.19
745.73	229.15
746.06	229.08
746.39	229.02
746.71	228.94
747.04	228.86
747.37	228.79
747.70	228.73
748.03	228.66
748.36	228.61
748.68	228.54
749.01	228.43
749.34	228.37
749.67	228.30
750.00	228.25
750.33	228.27
750.65	228.21
750.98	227.99
751.31	227.93
751.64	227.87
751.97	227.87
752.29	227.79
752.62	227.68
752.95	227.61
753.28	227.53
753.60	227.46
753.93	227.42
754.26	227.37
754.59	227.28
754.91	227.20
755.24	227.13
755.57	227.11
755.90	227.06
756.22	226.99
756.55	226.92
756.88	226.84
757.20	226.71
757.53	226.62
757.86	226.56
758.19	226.51
758.51	226.46
758.84	226.35
759.17	226.29
759.49	226.25
759.82	226.25
760.15	226.22
760.47	226.17
760.80	226.09
761.13	226.06
761.45	226.02
761.78	225.97
762.11	225.93
762.43	225.83
762.76	225.79
763.08	225.76
763.41	225.72
763.74	225.68
764.06	225.64
764.39	225.61
764.71	225.56
765.04	225.51
765.37	225.46
765.69	225.42
766.02	225.38
766.34	225.33
766.67	225.25
767.00	225.22
767.32	225.25
767.65	225.27
767.97	225.22
768.30	225.19
768.62	225.16
768.95	225.11
769.27	225.07
769.60	225.05
769.92	224.99
770.25	224.94
770.57	224.89
770.90	224.85
771.22	224.81
771.55	224.78
771.87	224.76
772.20	224.73
772.52	224.78
772.85	224.88
773.17	224.85
773.50	224.82
773.82	224.77
774.15	224.68
774.47	224.59
774.80	224.55
775.12	224.52
775.45	224.49
775.77	224.47
776.09	224.45
776.42	224.42
776.74	224.43
777.07	224.40
777.39	224.38
777.72	224.34
778.04	224.33
778.36	224.29
778.69	224.27
779.01	224.26
779.33	224.15
779.66	224.00
779.98	223.97
780.31	223.96
780.63	223.98
780.95	223.98
781.28	223.96
781.60	223.93
781.92	223.91
782.25	223.89
782.57	223.87
782.89	223.85
783.22	223.82
783.54	223.78
783.86	223.77
784.19	223.74
784.51	223.76
784.83	223.72
785.16	223.71
785.48	223.69
785.80	223.67
786.12	223.66
786.45	223.64
786.77	223.63
787.09	223.61
787.42	223.55
787.74	223.54
788.06	223.53
788.38	223.51
788.71	223.49
789.03	223.47
789.35	223.47
789.67	223.44
789.99	223.43
790.32	223.41
790.64	223.40
790.96	223.48
791.28	223.44
791.61	223.42
791.93	223.41
792.25	223.39
792.57	223.45
792.89	223.42
793.21	223.41
793.54	223.38
793.86	223.36
794.18	223.35
794.50	223.32
794.82	223.30
795.14	223.30
795.47	223.31
795.79	223.29
796.11	223.26
796.43	223.24
796.75	223.23
797.07	223.22
797.39	223.20
797.71	223.10
798.04	223.10
798.36	223.09
798.68	223.08
799.00	223.07
799.32	223.01
799.64	223.02
799.96	223.00
800.28	223.01
800.60	223.00
800.92	223.00
801.24	222.98
801.56	222.98
801.89	222.96
802.21	222.96
802.53	222.93
802.85	222.94
803.17	222.99
803.49	222.96
803.81	222.94
804.13	222.92
804.45	222.90
804.77	222.90
805.09	222.89
805.41	222.87
805.73	222.85
806.05	222.81
806.37	222.79
806.69	222.77
807.01	222.76
807.33	222.75
807.65	222.71
807.97	222.74
808.28	222.72
808.60	222.71
808.92	222.69
809.24	222.75
809.56	222.72
809.88	222.68
810.20	222.68
810.52	222.70
810.84	222.68
811.16	222.66
811.48	222.65
811.80	222.67
812.12	222.67
812.43	222.69
812.75	222.69
813.07	222.68
813.39	222.68
813.71	222.65
814.03	222.64
814.35	222.65
814.67	222.60
814.98	222.58
815.30	222.58
815.62	222.56
815.94	222.48
816.26	222.49
816.58	222.46
816.89	222.47
817.21	222.43
817.53	222.44
817.85	222.44
818.17	222.43
818.48	222.39
818.80	222.41
819.12	222.38
819.44	222.36
819.76	222.34
820.07	222.34
820.39	222.33
820.71	222.34
821.03	222.33
821.34	222.32
821.66	222.33
821.98	222.34
822.30	222.33
822.61	222.39
822.93	222.37
823.25	222.37
823.57	222.36
823.88	222.37
824.20	222.36
824.52	222.37
824.83	222.36
825.15	222.35
825.47	222.33
825.79	222.34
826.10	222.33
826.42	222.33
826.74	222.33
827.05	222.33
827.37	222.33
827.69	222.32
828.00	222.32
828.32	222.31
828.64	222.29
828.95	222.34
829.27	222.30
829.58	222.30
829.90	222.31
830.22	222.32
830.53	222.30
830.85	222.28
831.17	222.26
831.48	222.26
831.80	222.26
832.11	222.25
832.43	222.22
832.75	222.22
833.06	222.28
833.38	222.25
833.69	222.24
834.01	222.24
834.32	222.24
834.64	222.23
834.96	222.23
835.27	222.23
835.59	222.18
835.90	222.17
836.22	222.16
836.53	222.14
836.85	222.12
837.16	222.22
837.48	222.22
837.79	222.25
838.11	222.25
838.42	222.24
838.74	222.25
839.05	222.24
839.37	222.24
839.68	222.17
840.00	222.16
840.31	222.18
840.63	222.16
840.94	222.15
841.26	222.14
841.57	222.13
841.88	222.14
842.20	222.13
842.51	222.11
842.83	222.10
843.14	222.20
843.46	222.20
843.77	222.13
844.08	222.13
844.40	222.10
844.71	222.09
845.03	222.08
845.34	222.07
845.65	222.07
845.97	222.07
846.28	222.08
846.60	222.08
846.91	222.06
847.22	222.05
847.54	222.07
847.85	222.08
848.16	222.07
848.48	222.05
848.79	222.09
849.10	222.10
849.42	222.10
849.73	222.00
850.04	222.00
850.36	221.96
850.67	221.98
850.98	221.98
851.30	221.99
851.61	221.98
851.92	221.98
852.23	222.01
852.55	222.01
852.86	222.01
853.17	222.02
853.49	222.05
853.80	222.06
854.11	222.06
854.42	222.07
854.74	222.06
855.05	222.07
855.36	222.01
855.67	222.01
855.99	222.01
856.30	222.13
856.61	222.13
856.92	222.14
857.23	222.14
857.55	222.13
857.86	222.12
858.17	222.13
858.48	222.12
858.79	222.09
859.11	222.10
859.42	222.09
859.73	222.08
860.04	222.07
860.35	222.05
860.66	222.02
860.98	222.02
861.29	222.03
861.60	222.02
861.91	222.05
862.22	222.03
862.53	222.02
862.84	221.89
863.16	221.91
863.47	221.90
863.78	221.88
864.09	221.89
864.40	221.89
864.71	221.88
865.02	221.89
865.33	221.88
865.64	221.86
865.95	221.86
866.27	221.93
866.58	221.92
866.89	221.93
867.20	221.93
867.51	221.91
867.82	221.90
868.13	221.93
868.44	221.90
868.75	221.92
869.06	221.93
869.37	221.94
869.68	221.91
869.99	221.93
870.30	221.94
870.61	221.94
870.92	221.93
871.23	221.92
871.54	221.94
871.85	221.97
872.16	221.97
872.47	221.96
872.78	221.90
873.09	221.91
873.40	221.90
873.71	221.90
874.02	221.91
874.33	221.90
874.64	221.88
874.95	221.90
875.26	221.88
875.56	221.87
875.87	221.86
876.18	221.85
876.49	221.95
876.80	221.94
877.11	221.92
877.42	221.92
877.73	221.93
878.04	221.91
878.35	221.90
878.66	221.90
878.96	221.90
879.27	221.90
879.58	221.89
879.89	221.89
880.20	221.91
880.51	221.91
880.82	221.91
881.12	221.92
881.43	221.89
881.74	221.88
882.05	221.88
882.36	221.88
882.67	221.89
882.97	221.78
883.28	221.77
883.59	221.77
883.90	221.77
884.21	221.78
884.51	221.78
884.82	221.76
885.13	221.76
885.44	221.76
885.74	221.76
886.05	221.75
886.36	221.75
886.67	221.71
886.98	221.76
887.28	221.77
887.59	221.76
887.90	221.77
888.20	221.76
888.51	221.79
888.82	221.77
889.13	221.78
889.43	221.87
889.74	221.86
890.05	221.86
890.35	221.85
890.66	221.83
890.97	221.82
891.28	221.81
891.58	221.81
891.89	221.81
892.20	221.80
892.50	221.79
892.81	221.78
893.12	221.78
893.42	221.73
893.73	221.73
894.04	221.72
894.34	221.73
894.65	221.73
894.95	221.72
895.26	221.72
895.57	221.76
895.87	221.66
896.18	221.68
896.48	221.68
896.79	221.68
897.10	221.70
897.40	221.71
897.71	221.72
898.01	221.71
898.32	221.72
898.63	221.73
898.93	221.73
899.24	221.74
899.54	221.73
899.85	221.73
900.15	221.72
900.46	221.72
900.76	221.73
901.07	221.73
901.38	221.73
901.68	221.73
901.99	221.68
902.29	221.68
902.60	221.67
902.90	221.66
903.21	221.66
903.51	221.65
903.82	221.67
904.12	221.67
904.43	221.68
904.73	221.67
905.03	221.68
905.34	221.77
905.64	221.76
905.95	221.77
906.25	221.77
906.56	221.77
906.86	221.76
907.17	221.76
907.47	221.76
907.77	221.75
908.08	221.73
908.38	221.74
908.69	221.74
908.99	221.76
909.30	221.77
909.60	221.77
909.90	221.77
910.21	221.74
910.51	221.72
910.81	221.72
911.12	221.73
911.42	221.73
911.73	221.62
912.03	221.63
912.33	221.65
912.64	221.64
912.94	221.63
913.24	221.61
913.55	221.60
913.85	221.60
914.15	221.62
914.46	221.63
914.76	221.62
915.06	221.62
915.37	221.60
915.67	221.59
915.97	221.59
916.27	221.57
916.58	221.58
916.88	221.58
917.18	221.57
917.49	221.64
917.79	221.63
918.09	221.65
918.39	221.68
918.70	221.67
919.00	221.67
919.30	221.73
919.60	221.72
919.91	221.71
920.21	221.72
920.51	221.70
920.81	221.69
921.12	221.71
921.42	221.71
921.72	221.71
922.02	221.72
922.32	221.73
922.63	221.73
922.93	221.79
923.23	221.79
923.53	221.78
923.83	221.71
924.13	221.72
924.44	221.72
924.74	221.73
925.04	221.75
925.34	221.75
925.64	221.71
925.94	221.71
926.24	221.77
926.55	221.75
926.85	221.76
927.15	221.76
927.45	221.76
927.75	221.76
928.05	221.76
928.35	221.76
928.65	221.77
928.95	221.78
929.26	221.73
929.56	221.74
929.86	221.76
930.16	221.75
930.46	221.74
930.76	221.74
931.06	221.70
931.36	221.67
931.66	221.68
931.96	221.69
932.26	221.69
932.56	221.64
932.86	221.65
933.16	221.65
933.46	221.64
933.76	221.62
934.06	221.64
934.36	221.68
934.66	221.67
934.96	221.66
935.26	221.66
935.56	221.68
935.86	221.65
936.16	221.63
936.46	221.62
936.76	221.62
937.06	221.61
937.36	221.62
937.66	221.62
937.96	221.61
938.26	221.59
938.56	221.59
938.86	221.60
939.16	221.62
939.46	221.62
939.76	221.63
940.06	221.63
940.35	221.61
940.65	221.56
940.95	221.57
941.25	221.55
941.55	221.53
941.85	221.53
942.15	221.55
942.45	221.58
942.75	221.58
943.04	221.58
943.34	221.60
943.64	221.59
943.94	221.58
944.24	221.58
944.54	221.59
944.84	221.59
945.13	221.57
945.43	221.55
945.73	221.55
946.03	221.54
946.33	221.53
946.62	221.52
946.92	221.52
947.22	221.52
947.52	221.53
947.82	221.54
948.11	221.53
948.41	221.50
948.71	221.48
949.01	221.48
949.31	221.47
949.60	221.46
949.90	221.48
950.20	221.47
950.50	221.47
950.79	221.46
951.09	221.48
951.39	221.48
951.69	221.47
951.98	221.49
952.28	221.50
952.58	221.49
952.87	221.49
953.17	221.51
953.47	221.50
953.76	221.49
954.06	221.47
954.36	221.46
954.66	221.47
954.95	221.49
955.25	221.50
955.55	221.51
955.84	221.49
956.14	221.50
956.44	221.50
956.73	221.49
957.03	221.50
957.32	221.49
957.62	221.49
957.92	221.51
958.21	221.50
958.51	221.62
958.81	221.63
959.10	221.64
959.40	221.66
959.69	221.67
959.99	221.69
960.29	221.69
960.58	221.69
960.88	221.73
961.17	221.71
961.47	221.72
961.76	221.71
962.06	221.73
962.36	221.72
962.65	221.72
962.95	221.73
963.24	221.72
963.54	221.72
963.83	221.73
964.13	221.72
964.42	221.71
964.72	221.62
965.01	221.62
965.31	221.61
965.60	221.58
965.90	221.65
966.19	221.62
966.49	221.62
966.78	221.62
967.08	221.61
967.37	221.61
967.67	221.59
967.96	221.60
968.26	221.60
968.55	221.61
968.85	221.61
969.14	221.61
969.43	221.61
969.73	221.59
970.02	221.58
970.32	221.58
970.61	221.56
970.91	221.53
971.20	221.52
971.49	221.51
971.79	221.52
972.08	221.44
972.38	221.45
972.67	221.45
972.96	221.46
973.26	221.44
973.55	221.47
973.85	221.47
974.14	221.46
974.43	221.46
974.73	221.44
975.02	221.43
975.31	221.44
975.61	221.44
975.90	221.43
976.19	221.42
976.49	221.43
976.78	221.43
977.07	221.43
977.37	221.44
977.66	221.45
977.95	221.43
978.24	221.45
978.54	221.47
978.83	221.46
979.12	221.45
979.42	221.45
979.71	221.43
980.00	221.42
980.29	221.43
980.59	221.41
980.88	221.43
981.17	221.43
981.46	221.43
981.76	221.43
982.05	221.46
982.34	221.47
982.63	221.47
982.93	221.47
983.22	221.49
983.51	221.50
983.80	221.52
984.09	221.53
984.39	221.52
984.68	221.50
984.97	221.51
985.26	221.51
985.55	221.52
985.85	221.50
986.14	221.51
986.43	221.52
986.72	221.52
987.01	221.49
987.30	221.49
987.59	221.48
987.89	221.49
988.18	221.46
988.47	221.44
988.76	221.43
989.05	221.42
989.34	221.41
989.63	221.43
989.92	221.41
990.22	221.40
990.51	221.40
990.80	221.39
991.09	221.40
991.38	221.41
991.67	221.40
991.96	221.39
992.25	221.40
992.54	221.38
992.83	221.38
993.12	221.38
993.41	221.40
993.70	221.44
993.99	221.46
994.28	221.47
994.58	221.49
994.87	221.48
995.16	221.48
995.45	221.47
995.74	221.43
996.03	221.45
996.32	221.47
996.61	221.49
996.90	221.49
997.19	221.48
997.48	221.48
997.77	221.46
998.06	221.47
998.34	221.46
998.63	221.46
998.92	221.46
999.21	221.47
999.50	221.47
999.79	221.43
1000.08	221.43
1000.37	221.43
1000.66	221.41
1000.95	221.44
1001.24	221.44
1001.53	221.46
1001.82	221.46
1002.11	221.44
1002.40	221.44
1002.68	221.46
1002.97	221.53
1003.26	221.52
1003.55	221.51
1003.84	221.52
1004.13	221.55
1004.42	221.54
1004.71	221.54
1004.99	221.54
1005.28	221.56
1005.57	221.55
1005.86	221.54
1006.15	221.53
1006.44	221.51
1006.72	221.53
1007.01	221.51
1007.30	221.51
1007.59	221.50
1007.88	221.50
1008.17	221.51
1008.45	221.48
1008.74	221.44
1009.03	221.40
1009.32	221.39
1009.60	221.40
1009.89	221.39
1010.18	221.35
1010.47	221.34
1010.76	221.34
1011.04	221.33
1011.33	221.33
1011.62	221.34
1011.91	221.34
1012.19	221.35
1012.48	221.35
1012.77	221.35
1013.05	221.39
1013.34	221.39
1013.63	221.38
1013.92	221.39
1014.20	221.39
1014.49	221.39
1014.78	221.41
1015.06	221.38
1015.35	221.38
1015.64	221.39
1015.92	221.41
1016.21	221.42
1016.50	221.42
1016.78	221.44
1017.07	221.45
1017.36	221.43
1017.64	221.42
1017.93	221.43
1018.22	221.42
1018.50	221.42
1018.79	221.42
1019.08	221.38
1019.36	221.38
1019.65	221.37
1019.93	221.40
1020.22	221.41
1020.51	221.47
1020.79	221.45
1021.08	221.22
1021.36	221.25
1021.65	221.36
1021.94	221.34
1022.22	221.46
1022.51	221.18
1022.79	221.96
1023.08	221.52
1023.36	222.64
1023.65	221.17
>>>>>End Processed Spectral Data<<<<<
