SpectraSuite Data File
++++++++++++++++++++++++++++++++++++
Date: Thu Oct 01 09:41:29 EDT 2015
User: lab3
Dark Spectrum Present: No
Reference Spectrum Present: No
Number of Sampled Component Spectra: 1
Spectrometers: USB2E7196
Integration Time (usec): 36000 (USB2E7196)
Spectra Averaged: 10000 (USB2E7196)
Boxcar Smoothing: 10 (USB2E7196)
Correct for Electrical Dark: No (USB2E7196)
Strobe/Lamp Enabled: No (USB2E7196)
Correct for Detector Non-linearity: No (USB2E7196)
Correct for Stray Light: No (USB2E7196)
Number of Pixels in Processed Spectrum: 2048
>>>>>Begin Processed Spectral Data<<<<<
339.09	0.00
339.48	210.23
339.86	211.79
340.24	213.10
340.63	214.56
341.01	217.54
341.39	217.17
341.78	218.57
342.16	219.78
342.54	220.24
342.93	208.85
343.31	219.40
343.69	219.94
344.07	220.40
344.46	220.83
344.84	221.22
345.22	221.45
345.60	221.71
345.99	221.91
346.37	222.05
346.75	222.16
347.13	222.24
347.52	222.31
347.90	222.39
348.28	222.43
348.66	222.49
349.05	222.49
349.43	222.55
349.81	222.61
350.19	222.66
350.57	222.73
350.96	222.81
351.34	222.91
351.72	223.01
352.10	223.11
352.48	223.19
352.87	223.24
353.25	223.31
353.63	223.37
354.01	223.43
354.39	223.51
354.77	223.59
355.15	223.69
355.54	223.74
355.92	223.77
356.30	223.85
356.68	223.98
357.06	224.06
357.44	224.11
357.82	224.17
358.20	224.28
358.58	224.34
358.97	224.40
359.35	224.48
359.73	224.57
360.11	224.62
360.49	224.68
360.87	224.73
361.25	224.79
361.63	224.87
362.01	224.92
362.39	224.95
362.77	225.00
363.15	225.03
363.53	225.06
363.91	225.10
364.29	225.12
364.67	225.04
365.05	225.07
365.43	225.10
365.81	225.12
366.19	225.14
366.57	225.19
366.95	225.19
367.33	225.16
367.71	225.16
368.09	225.17
368.47	225.16
368.85	225.15
369.23	225.16
369.61	225.11
369.99	225.12
370.37	225.11
370.75	225.17
371.13	225.14
371.51	225.10
371.89	225.08
372.27	225.05
372.65	225.03
373.03	224.99
373.41	224.94
373.78	224.90
374.16	224.80
374.54	224.72
374.92	224.67
375.30	224.63
375.68	224.56
376.06	224.51
376.44	224.46
376.82	224.42
377.19	224.37
377.57	224.31
377.95	224.22
378.33	224.16
378.71	224.02
379.09	223.97
379.47	223.93
379.84	223.86
380.22	223.80
380.60	223.73
380.98	223.68
381.36	223.63
381.73	223.57
382.11	223.54
382.49	223.49
382.87	223.43
383.25	223.39
383.62	223.46
384.00	223.39
384.38	223.35
384.76	223.32
385.13	223.31
385.51	223.27
385.89	223.22
386.27	223.18
386.64	223.17
387.02	223.12
387.40	223.07
387.78	223.04
388.15	223.02
388.53	222.99
388.91	222.95
389.29	222.92
389.66	222.91
390.04	222.87
390.42	222.87
390.79	222.85
391.17	222.83
391.55	222.70
391.92	222.69
392.30	222.69
392.68	222.65
393.05	222.63
393.43	222.63
393.81	222.63
394.18	222.61
394.56	222.61
394.94	222.64
395.31	222.64
395.69	222.68
396.06	222.71
396.44	222.73
396.82	222.74
397.19	222.82
397.57	222.83
397.95	222.87
398.32	222.87
398.70	222.92
399.07	222.98
399.45	223.01
399.82	223.06
400.20	223.10
400.58	223.16
400.95	223.17
401.33	223.25
401.70	223.39
402.08	223.48
402.45	223.56
402.83	223.66
403.20	223.77
403.58	223.85
403.95	223.97
404.33	224.11
404.71	224.24
405.08	224.42
405.46	224.56
405.83	224.73
406.21	224.90
406.58	225.10
406.96	225.29
407.33	225.51
407.70	225.75
408.08	226.09
408.45	226.38
408.83	226.70
409.20	226.99
409.58	227.25
409.95	227.61
410.33	227.99
410.70	228.36
411.08	228.79
411.45	229.24
411.82	229.70
412.20	230.21
412.57	230.83
412.95	231.32
413.32	231.96
413.69	232.62
414.07	233.31
414.44	234.06
414.82	234.83
415.19	235.74
415.56	236.65
415.94	237.60
416.31	238.67
416.68	239.74
417.06	240.98
417.43	242.14
417.81	243.49
418.18	244.85
418.55	246.34
418.93	247.89
419.30	249.52
419.67	251.25
420.04	253.03
420.42	254.89
420.79	257.03
421.16	259.20
421.54	261.40
421.91	263.70
422.28	266.09
422.66	268.66
423.03	271.11
423.40	273.70
423.77	276.46
424.15	279.29
424.52	282.23
424.89	285.41
425.26	288.58
425.64	291.51
426.01	294.81
426.38	298.19
426.75	301.65
427.13	305.20
427.50	308.91
427.87	312.76
428.24	316.65
428.61	320.37
428.99	324.37
429.36	328.77
429.73	332.97
430.10	337.15
430.47	341.42
430.85	345.81
431.22	350.48
431.59	355.28
431.96	359.95
432.33	365.12
432.70	370.02
433.08	375.81
433.45	381.29
433.82	386.67
434.19	392.68
434.56	398.60
434.93	404.30
435.30	409.93
435.68	416.28
436.05	422.49
436.42	428.70
436.79	434.37
437.16	440.47
437.53	447.02
437.90	453.57
438.27	459.97
438.64	466.93
439.01	473.23
439.38	478.99
439.75	484.56
440.13	490.92
440.50	496.99
440.87	501.79
441.24	507.06
441.61	512.88
441.98	517.16
442.35	522.25
442.72	527.49
443.09	532.51
443.46	535.79
443.83	538.24
444.20	540.33
444.57	543.34
444.94	545.20
445.31	547.12
445.68	548.85
446.05	550.19
446.42	550.17
446.79	550.04
447.16	549.96
447.53	549.91
447.90	548.18
448.27	546.55
448.64	543.89
449.01	542.17
449.37	538.30
449.74	534.79
450.11	530.22
450.48	525.17
450.85	520.09
451.22	515.78
451.59	511.56
451.96	507.72
452.33	502.05
452.70	496.99
453.07	490.79
453.43	484.59
453.80	478.57
454.17	472.79
454.54	467.42
454.91	461.34
455.28	455.61
455.65	450.20
456.02	444.43
456.38	439.79
456.75	433.79
457.12	428.94
457.49	424.04
457.86	419.37
458.23	415.27
458.59	410.73
458.96	406.06
459.33	401.94
459.70	397.75
460.07	394.55
460.43	390.79
460.80	387.27
461.17	384.15
461.54	380.79
461.91	377.66
462.27	374.47
462.64	371.86
463.01	368.89
463.38	365.88
463.74	363.16
464.11	360.73
464.48	358.54
464.85	356.20
465.21	354.41
465.58	352.43
465.95	350.15
466.32	348.32
466.68	346.54
467.05	344.76
467.42	343.03
467.78	341.17
468.15	339.45
468.52	338.17
468.88	336.51
469.25	334.98
469.62	333.77
469.98	332.46
470.35	331.30
470.72	330.25
471.08	329.19
471.45	328.30
471.82	327.33
472.18	326.31
472.55	325.66
472.92	324.84
473.28	324.21
473.65	323.56
474.02	322.94
474.38	322.43
474.75	322.16
475.11	321.74
475.48	321.59
475.85	321.44
476.21	321.39
476.58	321.40
476.94	321.60
477.31	321.73
477.67	321.89
478.04	322.17
478.41	322.52
478.77	322.99
479.14	323.34
479.50	323.91
479.87	324.62
480.23	325.33
480.60	326.02
480.96	326.73
481.33	327.71
481.69	328.69
482.06	329.66
482.42	330.58
482.79	331.67
483.15	332.93
483.52	334.34
483.88	335.70
484.25	337.15
484.61	338.66
484.98	340.27
485.34	342.08
485.71	343.97
486.07	345.98
486.44	347.98
486.80	350.20
487.17	352.46
487.53	354.96
487.90	357.56
488.26	360.37
488.62	363.33
488.99	366.30
489.35	369.41
489.72	372.76
490.08	376.29
490.44	379.91
490.81	383.69
491.17	387.58
491.54	391.71
491.90	395.96
492.26	400.53
492.63	405.34
492.99	410.35
493.36	415.47
493.72	420.87
494.08	426.41
494.45	432.26
494.81	438.33
495.17	444.53
495.54	451.08
495.90	457.94
496.26	464.93
496.63	472.17
496.99	479.70
497.35	487.60
497.72	495.80
498.08	504.16
498.44	512.78
498.80	521.97
499.17	531.38
499.53	541.15
499.89	551.13
500.26	561.29
500.62	571.74
500.98	582.86
501.34	594.15
501.71	605.99
502.07	618.03
502.43	630.48
502.79	643.27
503.16	656.47
503.52	669.87
503.88	683.66
504.24	697.85
504.60	712.35
504.97	727.23
505.33	742.50
505.69	758.70
506.05	775.10
506.41	791.49
506.78	808.20
507.14	825.38
507.50	843.18
507.86	861.35
508.22	879.81
508.59	898.30
508.95	917.48
509.31	937.11
509.67	957.46
510.03	978.01
510.39	998.77
510.75	1019.79
511.12	1041.09
511.48	1062.73
511.84	1084.44
512.20	1106.47
512.56	1129.61
512.92	1152.95
513.28	1176.00
513.64	1199.35
514.00	1223.11
514.37	1247.21
514.73	1271.32
515.09	1295.25
515.45	1319.62
515.81	1344.53
516.17	1369.49
516.53	1394.13
516.89	1418.81
517.25	1443.67
517.61	1468.73
517.97	1493.99
518.33	1518.97
518.69	1544.10
519.05	1569.46
519.41	1594.96
519.77	1620.72
520.13	1645.66
520.49	1670.77
520.85	1696.08
521.21	1721.33
521.57	1747.15
521.93	1772.24
522.29	1798.18
522.65	1823.82
523.01	1849.23
523.37	1873.91
523.73	1899.17
524.09	1924.63
524.45	1950.02
524.81	1974.94
525.17	1999.74
525.53	2024.07
525.89	2048.41
526.25	2072.94
526.61	2096.93
526.97	2121.21
527.33	2145.41
527.68	2169.49
528.04	2192.69
528.40	2215.73
528.76	2238.94
529.12	2261.10
529.48	2283.62
529.84	2304.24
530.20	2325.48
530.56	2346.36
530.91	2367.28
531.27	2387.73
531.63	2407.50
531.99	2426.70
532.35	2445.50
532.71	2464.43
533.07	2483.96
533.42	2501.94
533.78	2520.36
534.14	2538.74
534.50	2556.26
534.86	2574.38
535.21	2590.59
535.57	2606.75
535.93	2622.19
536.29	2636.42
536.65	2651.48
537.00	2665.44
537.36	2679.95
537.72	2693.34
538.08	2706.38
538.44	2718.28
538.79	2730.37
539.15	2740.79
539.51	2751.20
539.87	2761.27
540.22	2769.24
540.58	2777.23
540.94	2785.84
541.29	2792.82
541.65	2798.85
542.01	2804.40
542.37	2808.05
542.72	2813.62
543.08	2818.71
543.44	2823.65
543.79	2827.73
544.15	2830.95
544.51	2834.09
544.87	2836.34
545.22	2838.19
545.58	2839.14
545.94	2840.52
546.29	2840.42
546.65	2840.49
547.01	2840.56
547.36	2840.75
547.72	2841.08
548.07	2839.97
548.43	2838.18
548.79	2835.76
549.14	2833.39
549.50	2831.62
549.86	2829.06
550.21	2824.04
550.57	2819.41
550.92	2813.37
551.28	2807.98
551.64	2802.50
551.99	2797.44
552.35	2791.98
552.70	2786.06
553.06	2780.86
553.41	2775.19
553.77	2769.04
554.13	2763.50
554.48	2757.10
554.84	2749.02
555.19	2741.05
555.55	2732.55
555.90	2724.63
556.26	2717.73
556.61	2710.20
556.97	2700.45
557.32	2691.56
557.68	2683.16
558.03	2674.11
558.39	2665.79
558.74	2657.58
559.10	2648.09
559.45	2638.29
559.81	2628.83
560.16	2618.72
560.52	2608.14
560.87	2598.56
561.23	2588.60
561.58	2578.12
561.94	2567.39
562.29	2556.17
562.64	2545.62
563.00	2535.42
563.35	2525.12
563.71	2513.93
564.06	2502.11
564.42	2491.38
564.77	2480.27
565.12	2469.27
565.48	2457.98
565.83	2447.32
566.19	2436.70
566.54	2425.72
566.89	2413.84
567.25	2401.93
567.60	2390.84
567.96	2379.37
568.31	2366.47
568.66	2353.48
569.02	2341.58
569.37	2329.42
569.72	2317.80
570.08	2305.47
570.43	2292.59
570.78	2279.38
571.14	2265.94
571.49	2253.38
571.84	2241.09
572.20	2227.47
572.55	2214.26
572.90	2200.98
573.26	2186.79
573.61	2172.06
573.96	2157.59
574.31	2143.52
574.67	2129.62
575.02	2115.30
575.37	2100.52
575.72	2086.06
576.08	2072.21
576.43	2057.33
576.78	2042.52
577.13	2028.56
577.49	2014.57
577.84	2000.96
578.19	1986.53
578.54	1971.77
578.90	1956.46
579.25	1940.90
579.60	1926.76
579.95	1912.23
580.30	1897.72
580.66	1883.55
581.01	1868.98
581.36	1854.75
581.71	1841.08
582.06	1826.92
582.42	1812.83
582.77	1799.55
583.12	1785.91
583.47	1772.30
583.82	1758.83
584.17	1745.25
584.53	1731.46
584.88	1717.71
585.23	1703.61
585.58	1690.02
585.93	1676.87
586.28	1664.58
586.63	1652.10
586.98	1638.91
587.34	1625.97
587.69	1612.52
588.04	1599.29
588.39	1586.75
588.74	1573.77
589.09	1560.48
589.44	1547.20
589.79	1534.49
590.14	1521.59
590.49	1508.95
590.84	1496.17
591.19	1484.05
591.54	1471.40
591.89	1458.64
592.25	1446.22
592.60	1433.43
592.95	1421.18
593.30	1409.19
593.65	1397.00
594.00	1385.00
594.35	1373.83
594.70	1361.85
595.05	1350.96
595.40	1339.88
595.75	1328.21
596.10	1317.32
596.45	1306.64
596.80	1296.43
597.15	1286.02
597.50	1275.62
597.85	1265.37
598.19	1255.35
598.54	1244.70
598.89	1234.83
599.24	1225.28
599.59	1215.50
599.94	1206.72
600.29	1197.82
600.64	1188.70
600.99	1179.01
601.34	1169.78
601.69	1159.94
602.04	1151.17
602.39	1142.21
602.74	1133.51
603.08	1125.05
603.43	1116.10
603.78	1107.08
604.13	1098.19
604.48	1089.23
604.83	1080.54
605.18	1071.77
605.53	1062.93
605.87	1054.24
606.22	1045.78
606.57	1037.05
606.92	1028.42
607.27	1019.69
607.62	1011.04
607.96	1002.56
608.31	995.05
608.66	987.13
609.01	979.63
609.36	972.08
609.70	964.33
610.05	956.40
610.40	948.82
610.75	941.38
611.10	934.20
611.44	926.62
611.79	919.35
612.14	911.71
612.49	904.21
612.83	897.19
613.18	890.20
613.53	883.02
613.88	875.94
614.22	869.42
614.57	862.73
614.92	856.03
615.27	849.39
615.61	842.59
615.96	836.02
616.31	829.38
616.65	822.63
617.00	816.13
617.35	809.77
617.70	803.43
618.04	797.15
618.39	790.88
618.74	784.97
619.08	778.87
619.43	773.04
619.78	767.22
620.12	761.20
620.47	755.36
620.82	749.62
621.16	744.16
621.51	738.38
621.85	732.59
622.20	726.83
622.55	721.26
622.89	715.64
623.24	710.06
623.59	704.55
623.93	699.10
624.28	693.79
624.62	688.46
624.97	683.12
625.32	677.90
625.66	672.55
626.01	667.20
626.35	661.97
626.70	656.78
627.04	651.77
627.39	646.82
627.73	641.99
628.08	637.36
628.43	632.62
628.77	627.94
629.12	623.39
629.46	619.01
629.81	614.46
630.15	609.80
630.50	605.30
630.84	600.99
631.19	596.84
631.53	592.74
631.88	588.53
632.22	584.42
632.57	580.54
632.91	576.61
633.26	572.77
633.60	569.00
633.95	565.30
634.29	561.49
634.64	557.63
634.98	553.70
635.32	549.93
635.67	546.29
636.01	542.59
636.36	538.93
636.70	535.41
637.05	531.89
637.39	528.58
637.73	525.14
638.08	521.75
638.42	518.34
638.77	514.79
639.11	511.27
639.45	507.78
639.80	504.26
640.14	500.94
640.49	497.57
640.83	494.10
641.17	490.68
641.52	487.43
641.86	484.16
642.20	481.04
642.55	477.79
642.89	474.61
643.23	471.64
643.58	468.88
643.92	466.01
644.26	463.17
644.61	460.31
644.95	457.46
645.29	454.57
645.64	451.64
645.98	448.85
646.32	446.22
646.66	443.60
647.01	440.96
647.35	438.36
647.69	435.66
648.04	433.10
648.38	430.59
648.72	428.03
649.06	425.54
649.41	423.08
649.75	420.61
650.09	418.16
650.43	415.73
650.78	413.27
651.12	410.81
651.46	408.44
651.80	406.16
652.14	403.96
652.49	401.77
652.83	399.64
653.17	397.48
653.51	395.40
653.85	393.38
654.20	391.30
654.54	389.14
654.88	387.17
655.22	385.27
655.56	383.32
655.90	381.45
656.25	379.61
656.59	377.77
656.93	376.02
657.27	374.32
657.61	372.51
657.95	370.76
658.29	369.02
658.64	367.32
658.98	365.60
659.32	363.90
659.66	362.31
660.00	360.72
660.34	359.17
660.68	357.56
661.02	355.89
661.36	354.32
661.70	352.84
662.05	351.33
662.39	349.80
662.73	348.36
663.07	346.95
663.41	345.55
663.75	344.18
664.09	342.81
664.43	341.36
664.77	340.02
665.11	338.61
665.45	337.28
665.79	335.94
666.13	334.60
666.47	333.24
666.81	331.85
667.15	330.44
667.49	329.13
667.83	327.87
668.17	326.65
668.51	325.47
668.85	324.28
669.19	323.16
669.53	321.98
669.87	320.77
670.21	319.59
670.55	318.43
670.89	317.35
671.23	316.23
671.57	315.12
671.91	314.07
672.25	313.08
672.58	312.08
672.92	311.04
673.26	310.08
673.60	309.12
673.94	308.16
674.28	307.25
674.62	306.33
674.96	305.37
675.30	304.48
675.64	303.55
675.97	302.64
676.31	301.70
676.65	300.78
676.99	299.93
677.33	299.03
677.67	298.16
678.01	297.22
678.34	296.36
678.68	295.55
679.02	294.70
679.36	293.86
679.70	293.04
680.04	292.24
680.37	291.43
680.71	290.65
681.05	289.92
681.39	289.14
681.73	288.33
682.06	287.56
682.40	286.80
682.74	286.07
683.08	285.36
683.42	284.63
683.75	283.98
684.09	283.24
684.43	282.55
684.77	281.85
685.10	281.20
685.44	280.53
685.78	279.85
686.12	279.22
686.45	278.56
686.79	277.90
687.13	277.27
687.46	276.61
687.80	275.98
688.14	275.30
688.48	274.69
688.81	274.07
689.15	273.50
689.49	272.89
689.82	272.30
690.16	271.65
690.50	271.07
690.83	270.48
691.17	269.91
691.51	269.36
691.84	268.82
692.18	268.25
692.52	267.67
692.85	267.11
693.19	266.60
693.52	266.06
693.86	265.54
694.20	265.01
694.53	264.52
694.87	264.01
695.21	263.52
695.54	263.03
695.88	262.54
696.21	262.01
696.55	261.53
696.88	261.04
697.22	260.58
697.56	260.12
697.89	259.60
698.23	259.12
698.56	258.63
698.90	258.18
699.23	257.72
699.57	257.29
699.90	256.86
700.24	256.39
700.58	255.97
700.91	255.57
701.25	255.25
701.58	254.88
701.92	254.51
702.25	254.12
702.59	253.72
702.92	253.34
703.26	252.96
703.59	252.59
703.93	252.30
704.26	251.94
704.60	251.58
704.93	251.24
705.26	250.89
705.60	250.58
705.93	250.21
706.27	249.92
706.60	249.61
706.94	249.31
707.27	248.96
707.61	248.63
707.94	248.28
708.27	247.86
708.61	247.50
708.94	247.15
709.28	246.84
709.61	246.53
709.94	246.25
710.28	245.96
710.61	245.69
710.95	245.32
711.28	245.11
711.61	244.84
711.95	244.59
712.28	244.32
712.61	244.04
712.95	243.84
713.28	243.62
713.61	243.36
713.95	243.08
714.28	242.85
714.61	242.60
714.95	242.37
715.28	242.12
715.61	241.89
715.95	241.68
716.28	241.44
716.61	241.25
716.95	241.01
717.28	240.80
717.61	240.58
717.94	240.36
718.28	240.07
718.61	239.87
718.94	239.64
719.27	239.44
719.61	239.26
719.94	239.04
720.27	238.78
720.60	238.59
720.94	238.40
721.27	238.22
721.60	238.06
721.93	237.88
722.27	237.75
722.60	237.59
722.93	237.40
723.26	237.23
723.59	237.04
723.93	236.89
724.26	236.73
724.59	236.57
724.92	236.42
725.25	236.29
725.59	236.14
725.92	236.01
726.25	235.86
726.58	235.72
726.91	235.56
727.24	235.43
727.57	235.28
727.91	235.13
728.24	235.00
728.57	234.85
728.90	234.73
729.23	234.56
729.56	234.47
729.89	234.34
730.22	234.20
730.55	234.07
730.89	233.93
731.22	233.80
731.55	233.67
731.88	233.55
732.21	233.41
732.54	233.28
732.87	233.16
733.20	233.05
733.53	232.94
733.86	232.84
734.19	232.71
734.52	232.62
734.85	232.58
735.18	232.45
735.51	232.37
735.84	232.26
736.17	232.19
736.50	232.03
736.83	232.05
737.16	231.96
737.49	231.88
737.82	231.78
738.15	231.70
738.48	231.61
738.81	231.50
739.14	231.40
739.47	231.30
739.80	231.21
740.13	231.12
740.46	231.01
740.79	230.90
741.12	230.82
741.45	230.71
741.78	230.56
742.11	230.51
742.44	230.39
742.77	230.32
743.10	230.23
743.43	230.14
743.75	229.94
744.08	230.02
744.41	229.93
744.74	229.84
745.07	229.73
745.40	229.67
745.73	229.64
746.06	229.57
746.39	229.51
746.71	229.44
747.04	229.35
747.37	229.28
747.70	229.23
748.03	229.16
748.36	229.11
748.68	229.04
749.01	228.94
749.34	228.88
749.67	228.81
750.00	228.76
750.33	228.77
750.65	228.72
750.98	228.50
751.31	228.44
751.64	228.39
751.97	228.38
752.29	228.31
752.62	228.20
752.95	228.13
753.28	228.05
753.60	227.98
753.93	227.95
754.26	227.90
754.59	227.80
754.91	227.73
755.24	227.65
755.57	227.64
755.90	227.58
756.22	227.51
756.55	227.43
756.88	227.34
757.20	227.21
757.53	227.12
757.86	227.07
758.19	227.02
758.51	226.97
758.84	226.87
759.17	226.80
759.49	226.76
759.82	226.76
760.15	226.73
760.47	226.68
760.80	226.60
761.13	226.56
761.45	226.52
761.78	226.48
762.11	226.44
762.43	226.35
762.76	226.30
763.08	226.28
763.41	226.24
763.74	226.21
764.06	226.17
764.39	226.13
764.71	226.09
765.04	226.03
765.37	225.98
765.69	225.94
766.02	225.90
766.34	225.85
766.67	225.77
767.00	225.75
767.32	225.77
767.65	225.79
767.97	225.74
768.30	225.71
768.62	225.67
768.95	225.62
769.27	225.58
769.60	225.57
769.92	225.51
770.25	225.46
770.57	225.41
770.90	225.38
771.22	225.33
771.55	225.30
771.87	225.28
772.20	225.25
772.52	225.30
772.85	225.40
773.17	225.37
773.50	225.33
773.82	225.28
774.15	225.20
774.47	225.11
774.80	225.06
775.12	225.03
775.45	225.00
775.77	224.98
776.09	224.96
776.42	224.93
776.74	224.93
777.07	224.90
777.39	224.88
777.72	224.85
778.04	224.84
778.36	224.81
778.69	224.79
779.01	224.77
779.33	224.66
779.66	224.51
779.98	224.49
780.31	224.47
780.63	224.49
780.95	224.50
781.28	224.47
781.60	224.45
781.92	224.43
782.25	224.42
782.57	224.40
782.89	224.37
783.22	224.34
783.54	224.30
783.86	224.29
784.19	224.26
784.51	224.28
784.83	224.24
785.16	224.22
785.48	224.20
785.80	224.18
786.12	224.18
786.45	224.16
786.77	224.15
787.09	224.13
787.42	224.07
787.74	224.05
788.06	224.04
788.38	224.03
788.71	224.00
789.03	223.99
789.35	223.99
789.67	223.96
789.99	223.96
790.32	223.93
790.64	223.93
790.96	224.02
791.28	223.96
791.61	223.94
791.93	223.94
792.25	223.92
792.57	223.98
792.89	223.94
793.21	223.94
793.54	223.92
793.86	223.89
794.18	223.88
794.50	223.85
794.82	223.83
795.14	223.84
795.47	223.84
795.79	223.83
796.11	223.79
796.43	223.78
796.75	223.77
797.07	223.77
797.39	223.75
797.71	223.65
798.04	223.65
798.36	223.65
798.68	223.63
799.00	223.63
799.32	223.57
799.64	223.58
799.96	223.56
800.28	223.57
800.60	223.56
800.92	223.55
801.24	223.54
801.56	223.54
801.89	223.51
802.21	223.51
802.53	223.48
802.85	223.49
803.17	223.53
803.49	223.50
803.81	223.48
804.13	223.46
804.45	223.44
804.77	223.44
805.09	223.43
805.41	223.41
805.73	223.38
806.05	223.35
806.37	223.33
806.69	223.31
807.01	223.29
807.33	223.29
807.65	223.25
807.97	223.29
808.28	223.26
808.60	223.25
808.92	223.22
809.24	223.28
809.56	223.25
809.88	223.21
810.20	223.21
810.52	223.22
810.84	223.20
811.16	223.19
811.48	223.17
811.80	223.20
812.12	223.19
812.43	223.20
812.75	223.20
813.07	223.19
813.39	223.19
813.71	223.17
814.03	223.16
814.35	223.16
814.67	223.11
814.98	223.10
815.30	223.09
815.62	223.07
815.94	222.99
816.26	223.00
816.58	222.98
816.89	222.98
817.21	222.94
817.53	222.95
817.85	222.95
818.17	222.94
818.48	222.89
818.80	222.90
819.12	222.88
819.44	222.86
819.76	222.84
820.07	222.84
820.39	222.83
820.71	222.84
821.03	222.83
821.34	222.82
821.66	222.83
821.98	222.84
822.30	222.83
822.61	222.89
822.93	222.86
823.25	222.86
823.57	222.84
823.88	222.85
824.20	222.85
824.52	222.86
824.83	222.86
825.15	222.84
825.47	222.83
825.79	222.84
826.10	222.83
826.42	222.83
826.74	222.83
827.05	222.82
827.37	222.82
827.69	222.81
828.00	222.81
828.32	222.81
828.64	222.79
828.95	222.85
829.27	222.82
829.58	222.82
829.90	222.83
830.22	222.84
830.53	222.82
830.85	222.80
831.17	222.78
831.48	222.77
831.80	222.78
832.11	222.77
832.43	222.75
832.75	222.75
833.06	222.81
833.38	222.78
833.69	222.77
834.01	222.77
834.32	222.77
834.64	222.75
834.96	222.75
835.27	222.74
835.59	222.70
835.90	222.69
836.22	222.68
836.53	222.65
836.85	222.64
837.16	222.74
837.48	222.74
837.79	222.77
838.11	222.77
838.42	222.76
838.74	222.77
839.05	222.76
839.37	222.76
839.68	222.69
840.00	222.69
840.31	222.70
840.63	222.68
840.94	222.68
841.26	222.66
841.57	222.66
841.88	222.67
842.20	222.65
842.51	222.63
842.83	222.63
843.14	222.72
843.46	222.72
843.77	222.66
844.08	222.65
844.40	222.62
844.71	222.61
845.03	222.60
845.34	222.59
845.65	222.58
845.97	222.59
846.28	222.59
846.60	222.60
846.91	222.58
847.22	222.58
847.54	222.60
847.85	222.60
848.16	222.60
848.48	222.57
848.79	222.61
849.10	222.62
849.42	222.63
849.73	222.53
850.04	222.53
850.36	222.49
850.67	222.51
850.98	222.51
851.30	222.52
851.61	222.51
851.92	222.51
852.23	222.54
852.55	222.55
852.86	222.55
853.17	222.56
853.49	222.58
853.80	222.60
854.11	222.60
854.42	222.61
854.74	222.60
855.05	222.61
855.36	222.55
855.67	222.55
855.99	222.56
856.30	222.68
856.61	222.67
856.92	222.67
857.23	222.67
857.55	222.66
857.86	222.65
858.17	222.67
858.48	222.65
858.79	222.63
859.11	222.63
859.42	222.63
859.73	222.61
860.04	222.60
860.35	222.57
860.66	222.54
860.98	222.54
861.29	222.55
861.60	222.54
861.91	222.57
862.22	222.55
862.53	222.53
862.84	222.41
863.16	222.43
863.47	222.41
863.78	222.40
864.09	222.41
864.40	222.42
864.71	222.41
865.02	222.43
865.33	222.41
865.64	222.39
865.95	222.39
866.27	222.45
866.58	222.44
866.89	222.46
867.20	222.46
867.51	222.44
867.82	222.43
868.13	222.46
868.44	222.44
868.75	222.46
869.06	222.47
869.37	222.48
869.68	222.45
869.99	222.47
870.30	222.48
870.61	222.48
870.92	222.47
871.23	222.46
871.54	222.47
871.85	222.49
872.16	222.51
872.47	222.50
872.78	222.44
873.09	222.45
873.40	222.44
873.71	222.45
874.02	222.46
874.33	222.45
874.64	222.42
874.95	222.44
875.26	222.42
875.56	222.41
875.87	222.41
876.18	222.40
876.49	222.50
876.80	222.49
877.11	222.47
877.42	222.47
877.73	222.48
878.04	222.46
878.35	222.46
878.66	222.46
878.96	222.45
879.27	222.45
879.58	222.44
879.89	222.43
880.20	222.46
880.51	222.46
880.82	222.46
881.12	222.46
881.43	222.44
881.74	222.43
882.05	222.42
882.36	222.42
882.67	222.43
882.97	222.31
883.28	222.30
883.59	222.30
883.90	222.32
884.21	222.33
884.51	222.32
884.82	222.30
885.13	222.30
885.44	222.30
885.74	222.30
886.05	222.30
886.36	222.30
886.67	222.26
886.98	222.31
887.28	222.32
887.59	222.32
887.90	222.32
888.20	222.32
888.51	222.34
888.82	222.33
889.13	222.33
889.43	222.42
889.74	222.42
890.05	222.42
890.35	222.40
890.66	222.38
890.97	222.38
891.28	222.37
891.58	222.37
891.89	222.37
892.20	222.36
892.50	222.34
892.81	222.34
893.12	222.34
893.42	222.28
893.73	222.28
894.04	222.28
894.34	222.29
894.65	222.28
894.95	222.27
895.26	222.27
895.57	222.31
895.87	222.21
896.18	222.23
896.48	222.23
896.79	222.23
897.10	222.24
897.40	222.25
897.71	222.26
898.01	222.25
898.32	222.26
898.63	222.25
898.93	222.26
899.24	222.26
899.54	222.26
899.85	222.26
900.15	222.25
900.46	222.25
900.76	222.25
901.07	222.25
901.38	222.25
901.68	222.26
901.99	222.20
902.29	222.21
902.60	222.20
902.90	222.19
903.21	222.19
903.51	222.18
903.82	222.20
904.12	222.19
904.43	222.20
904.73	222.19
905.03	222.20
905.34	222.29
905.64	222.28
905.95	222.29
906.25	222.29
906.56	222.28
906.86	222.28
907.17	222.27
907.47	222.28
907.77	222.27
908.08	222.24
908.38	222.25
908.69	222.25
908.99	222.27
909.30	222.28
909.60	222.28
909.90	222.28
910.21	222.25
910.51	222.24
910.81	222.23
911.12	222.24
911.42	222.24
911.73	222.13
912.03	222.14
912.33	222.16
912.64	222.15
912.94	222.14
913.24	222.12
913.55	222.12
913.85	222.11
914.15	222.13
914.46	222.15
914.76	222.14
915.06	222.13
915.37	222.11
915.67	222.10
915.97	222.10
916.27	222.09
916.58	222.09
916.88	222.09
917.18	222.08
917.49	222.15
917.79	222.15
918.09	222.17
918.39	222.19
918.70	222.18
919.00	222.19
919.30	222.23
919.60	222.23
919.91	222.22
920.21	222.23
920.51	222.20
920.81	222.19
921.12	222.21
921.42	222.21
921.72	222.21
922.02	222.22
922.32	222.23
922.63	222.23
922.93	222.28
923.23	222.29
923.53	222.28
923.83	222.21
924.13	222.22
924.44	222.21
924.74	222.23
925.04	222.25
925.34	222.24
925.64	222.20
925.94	222.20
926.24	222.26
926.55	222.25
926.85	222.26
927.15	222.26
927.45	222.26
927.75	222.25
928.05	222.25
928.35	222.25
928.65	222.26
928.95	222.27
929.26	222.22
929.56	222.24
929.86	222.25
930.16	222.24
930.46	222.24
930.76	222.24
931.06	222.19
931.36	222.16
931.66	222.18
931.96	222.20
932.26	222.20
932.56	222.16
932.86	222.16
933.16	222.16
933.46	222.15
933.76	222.14
934.06	222.17
934.36	222.20
934.66	222.19
934.96	222.18
935.26	222.18
935.56	222.20
935.86	222.17
936.16	222.15
936.46	222.14
936.76	222.14
937.06	222.12
937.36	222.13
937.66	222.13
937.96	222.12
938.26	222.10
938.56	222.09
938.86	222.10
939.16	222.13
939.46	222.13
939.76	222.14
940.06	222.14
940.35	222.11
940.65	222.07
940.95	222.07
941.25	222.05
941.55	222.04
941.85	222.03
942.15	222.06
942.45	222.09
942.75	222.08
943.04	222.09
943.34	222.11
943.64	222.10
943.94	222.09
944.24	222.09
944.54	222.09
944.84	222.09
945.13	222.07
945.43	222.05
945.73	222.04
946.03	222.03
946.33	222.02
946.62	222.01
946.92	222.00
947.22	222.01
947.52	222.02
947.82	222.03
948.11	222.02
948.41	222.00
948.71	221.97
949.01	221.98
949.31	221.96
949.60	221.95
949.90	221.97
950.20	221.96
950.50	221.96
950.79	221.95
951.09	221.97
951.39	221.97
951.69	221.96
951.98	221.98
952.28	221.99
952.58	221.98
952.87	221.98
953.17	222.00
953.47	221.99
953.76	221.98
954.06	221.96
954.36	221.95
954.66	221.95
954.95	221.98
955.25	221.98
955.55	221.99
955.84	221.97
956.14	221.98
956.44	221.98
956.73	221.97
957.03	221.97
957.32	221.97
957.62	221.97
957.92	221.99
958.21	221.98
958.51	222.10
958.81	222.12
959.10	222.13
959.40	222.15
959.69	222.16
959.99	222.17
960.29	222.17
960.58	222.17
960.88	222.21
961.17	222.19
961.47	222.21
961.76	222.19
962.06	222.21
962.36	222.20
962.65	222.21
962.95	222.21
963.24	222.20
963.54	222.20
963.83	222.21
964.13	222.20
964.42	222.19
964.72	222.09
965.01	222.09
965.31	222.08
965.60	222.05
965.90	222.12
966.19	222.09
966.49	222.10
966.78	222.10
967.08	222.09
967.37	222.09
967.67	222.07
967.96	222.10
968.26	222.09
968.55	222.10
968.85	222.10
969.14	222.10
969.43	222.10
969.73	222.09
970.02	222.08
970.32	222.08
970.61	222.06
970.91	222.03
971.20	222.02
971.49	222.01
971.79	222.02
972.08	221.95
972.38	221.96
972.67	221.95
972.96	221.96
973.26	221.94
973.55	221.97
973.85	221.97
974.14	221.96
974.43	221.96
974.73	221.94
975.02	221.93
975.31	221.94
975.61	221.94
975.90	221.93
976.19	221.92
976.49	221.93
976.78	221.94
977.07	221.94
977.37	221.95
977.66	221.96
977.95	221.95
978.24	221.96
978.54	221.98
978.83	221.98
979.12	221.97
979.42	221.97
979.71	221.95
980.00	221.94
980.29	221.95
980.59	221.93
980.88	221.96
981.17	221.95
981.46	221.95
981.76	221.95
982.05	221.98
982.34	221.99
982.63	221.99
982.93	221.99
983.22	222.02
983.51	222.02
983.80	222.04
984.09	222.05
984.39	222.04
984.68	222.03
984.97	222.03
985.26	222.03
985.55	222.04
985.85	222.02
986.14	222.03
986.43	222.04
986.72	222.04
987.01	222.01
987.30	222.01
987.59	222.00
987.89	222.01
988.18	221.98
988.47	221.97
988.76	221.96
989.05	221.95
989.34	221.94
989.63	221.96
989.92	221.95
990.22	221.94
990.51	221.93
990.80	221.92
991.09	221.93
991.38	221.95
991.67	221.93
991.96	221.92
992.25	221.92
992.54	221.91
992.83	221.91
993.12	221.91
993.41	221.92
993.70	221.97
993.99	221.98
994.28	221.99
994.58	222.01
994.87	222.00
995.16	222.00
995.45	221.99
995.74	221.95
996.03	221.96
996.32	221.98
996.61	222.00
996.90	222.00
997.19	221.99
997.48	221.99
997.77	221.98
998.06	221.99
998.34	221.97
998.63	221.97
998.92	221.98
999.21	221.99
999.50	221.99
999.79	221.96
1000.08	221.95
1000.37	221.95
1000.66	221.93
1000.95	221.96
1001.24	221.96
1001.53	221.98
1001.82	221.98
1002.11	221.95
1002.40	221.96
1002.68	221.97
1002.97	222.04
1003.26	222.03
1003.55	222.02
1003.84	222.03
1004.13	222.06
1004.42	222.06
1004.71	222.06
1004.99	222.06
1005.28	222.08
1005.57	222.07
1005.86	222.06
1006.15	222.05
1006.44	222.03
1006.72	222.05
1007.01	222.03
1007.30	222.03
1007.59	222.02
1007.88	222.02
1008.17	222.02
1008.45	222.01
1008.74	221.97
1009.03	221.92
1009.32	221.93
1009.60	221.93
1009.89	221.92
1010.18	221.87
1010.47	221.87
1010.76	221.87
1011.04	221.87
1011.33	221.86
1011.62	221.87
1011.91	221.88
1012.19	221.88
1012.48	221.89
1012.77	221.88
1013.05	221.92
1013.34	221.92
1013.63	221.92
1013.92	221.93
1014.20	221.92
1014.49	221.93
1014.78	221.93
1015.06	221.90
1015.35	221.90
1015.64	221.91
1015.92	221.93
1016.21	221.94
1016.50	221.93
1016.78	221.95
1017.07	221.95
1017.36	221.94
1017.64	221.92
1017.93	221.93
1018.22	221.93
1018.50	221.93
1018.79	221.93
1019.08	221.89
1019.36	221.89
1019.65	221.88
1019.93	221.91
1020.22	221.92
1020.51	221.98
1020.79	221.96
1021.08	221.83
1021.36	221.76
1021.65	221.91
1021.94	221.78
1022.22	222.00
1022.51	221.66
1022.79	222.46
1023.08	222.12
1023.36	223.15
1023.65	221.67
>>>>>End Processed Spectral Data<<<<<
