SpectraSuite Data File
++++++++++++++++++++++++++++++++++++
Date: Wed Sep 30 14:52:37 EDT 2015
User: lab3
Dark Spectrum Present: No
Reference Spectrum Present: No
Number of Sampled Component Spectra: 1
Spectrometers: USB2E7196
Integration Time (usec): 36000 (USB2E7196)
Spectra Averaged: 1500 (USB2E7196)
Boxcar Smoothing: 10 (USB2E7196)
Correct for Electrical Dark: No (USB2E7196)
Strobe/Lamp Enabled: No (USB2E7196)
Correct for Detector Non-linearity: No (USB2E7196)
Correct for Stray Light: No (USB2E7196)
Number of Pixels in Processed Spectrum: 2048
>>>>>Begin Processed Spectral Data<<<<<
339.09	0.00
339.48	211.38
339.86	212.78
340.24	214.22
340.63	215.62
341.01	218.39
341.39	218.30
341.78	219.57
342.16	220.71
342.54	221.12
342.93	209.78
343.31	220.38
343.69	220.91
344.07	221.37
344.46	221.79
344.84	222.17
345.22	222.41
345.60	222.66
345.99	222.85
346.37	222.99
346.75	223.09
347.13	223.16
347.52	223.22
347.90	223.30
348.28	223.33
348.66	223.39
349.05	223.40
349.43	223.44
349.81	223.49
350.19	223.54
350.57	223.59
350.96	223.67
351.34	223.77
351.72	223.85
352.10	223.95
352.48	224.03
352.87	224.07
353.25	224.14
353.63	224.20
354.01	224.26
354.39	224.34
354.77	224.42
355.15	224.53
355.54	224.59
355.92	224.62
356.30	224.70
356.68	224.84
357.06	224.92
357.44	224.98
357.82	225.04
358.20	225.15
358.58	225.22
358.97	225.28
359.35	225.36
359.73	225.45
360.11	225.50
360.49	225.56
360.87	225.60
361.25	225.67
361.63	225.75
362.01	225.80
362.39	225.82
362.77	225.86
363.15	225.90
363.53	225.93
363.91	225.97
364.29	225.99
364.67	225.90
365.05	225.93
365.43	225.96
365.81	225.99
366.19	226.01
366.57	226.05
366.95	226.06
367.33	226.04
367.71	226.03
368.09	226.05
368.47	226.04
368.85	226.04
369.23	226.05
369.61	226.00
369.99	226.01
370.37	226.01
370.75	226.06
371.13	226.02
371.51	225.99
371.89	225.97
372.27	225.96
372.65	225.93
373.03	225.89
373.41	225.85
373.78	225.80
374.16	225.71
374.54	225.63
374.92	225.58
375.30	225.53
375.68	225.47
376.06	225.42
376.44	225.36
376.82	225.32
377.19	225.27
377.57	225.21
377.95	225.13
378.33	225.07
378.71	224.94
379.09	224.88
379.47	224.84
379.84	224.77
380.22	224.70
380.60	224.63
380.98	224.57
381.36	224.53
381.73	224.47
382.11	224.44
382.49	224.41
382.87	224.34
383.25	224.30
383.62	224.37
384.00	224.31
384.38	224.27
384.76	224.25
385.13	224.24
385.51	224.20
385.89	224.16
386.27	224.12
386.64	224.10
387.02	224.05
387.40	224.00
387.78	223.97
388.15	223.94
388.53	223.92
388.91	223.89
389.29	223.85
389.66	223.83
390.04	223.80
390.42	223.79
390.79	223.77
391.17	223.75
391.55	223.62
391.92	223.60
392.30	223.60
392.68	223.56
393.05	223.55
393.43	223.54
393.81	223.54
394.18	223.51
394.56	223.51
394.94	223.54
395.31	223.53
395.69	223.57
396.06	223.59
396.44	223.61
396.82	223.63
397.19	223.70
397.57	223.72
397.95	223.75
398.32	223.75
398.70	223.81
399.07	223.87
399.45	223.90
399.82	223.94
400.20	223.97
400.58	224.02
400.95	224.03
401.33	224.11
401.70	224.24
402.08	224.34
402.45	224.42
402.83	224.53
403.20	224.63
403.58	224.71
403.95	224.84
404.33	224.97
404.71	225.09
405.08	225.27
405.46	225.42
405.83	225.57
406.21	225.74
406.58	225.93
406.96	226.10
407.33	226.32
407.70	226.56
408.08	226.89
408.45	227.18
408.83	227.49
409.20	227.76
409.58	228.02
409.95	228.36
410.33	228.74
410.70	229.09
411.08	229.51
411.45	229.95
411.82	230.39
412.20	230.90
412.57	231.49
412.95	231.97
413.32	232.58
413.69	233.21
414.07	233.90
414.44	234.63
414.82	235.38
415.19	236.26
415.56	237.16
415.94	238.07
416.31	239.11
416.68	240.16
417.06	241.37
417.43	242.51
417.81	243.82
418.18	245.14
418.55	246.59
418.93	248.11
419.30	249.69
419.67	251.37
420.04	253.11
420.42	254.93
420.79	257.02
421.16	259.14
421.54	261.28
421.91	263.52
422.28	265.86
422.66	268.38
423.03	270.79
423.40	273.31
423.77	276.01
424.15	278.79
424.52	281.67
424.89	284.78
425.26	287.87
425.64	290.76
426.01	294.01
426.38	297.33
426.75	300.75
427.13	304.28
427.50	307.96
427.87	311.80
428.24	315.67
428.61	319.39
428.99	323.39
429.36	327.78
429.73	331.96
430.10	336.15
430.47	340.42
430.85	344.81
431.22	349.49
431.59	354.30
431.96	359.00
432.33	364.23
432.70	369.19
433.08	375.03
433.45	380.53
433.82	385.95
434.19	392.02
434.56	397.98
434.93	403.73
435.30	409.41
435.68	415.77
436.05	422.00
436.42	428.24
436.79	433.92
437.16	440.08
437.53	446.66
437.90	453.21
438.27	459.64
438.64	466.56
439.01	472.84
439.38	478.58
439.75	484.08
440.13	490.31
440.50	496.24
440.87	500.95
441.24	506.10
441.61	511.76
441.98	515.87
442.35	520.82
442.72	525.87
443.09	530.66
443.46	533.73
443.83	536.01
444.20	537.90
444.57	540.66
444.94	542.24
445.31	543.90
445.68	545.33
446.05	546.36
446.42	546.15
446.79	545.83
447.16	545.51
447.53	545.30
447.90	543.40
448.27	541.63
448.64	538.83
449.01	536.99
449.37	533.07
449.74	529.47
450.11	524.84
450.48	519.75
450.85	514.66
451.22	510.33
451.59	506.01
451.96	502.12
452.33	496.49
452.70	491.45
453.07	485.33
453.43	479.22
453.80	473.28
454.17	467.55
454.54	462.22
454.91	456.26
455.28	450.61
455.65	445.30
456.02	439.65
456.38	435.11
456.75	429.23
457.12	424.51
457.49	419.76
457.86	415.21
458.23	411.21
458.59	406.80
458.96	402.29
459.33	398.37
459.70	394.36
460.07	391.32
460.43	387.74
460.80	384.37
461.17	381.42
461.54	378.26
461.91	375.28
462.27	372.24
462.64	369.78
463.01	366.94
463.38	364.09
463.74	361.49
464.11	359.19
464.48	357.12
464.85	354.87
465.21	353.12
465.58	351.21
465.95	349.01
466.32	347.26
466.68	345.54
467.05	343.80
467.42	342.12
467.78	340.30
468.15	338.62
468.52	337.40
468.88	335.74
469.25	334.24
469.62	333.06
469.98	331.78
470.35	330.65
470.72	329.62
471.08	328.57
471.45	327.71
471.82	326.74
472.18	325.72
472.55	325.07
472.92	324.30
473.28	323.69
473.65	323.03
474.02	322.43
474.38	321.91
474.75	321.63
475.11	321.22
475.48	321.06
475.85	320.89
476.21	320.84
476.58	320.85
476.94	321.06
477.31	321.17
477.67	321.32
478.04	321.56
478.41	321.87
478.77	322.32
479.14	322.64
479.50	323.20
479.87	323.89
480.23	324.59
480.60	325.27
480.96	325.98
481.33	326.96
481.69	327.92
482.06	328.89
482.42	329.82
482.79	330.92
483.15	332.20
483.52	333.64
483.88	335.01
484.25	336.49
484.61	338.01
484.98	339.64
485.34	341.48
485.71	343.40
486.07	345.46
486.44	347.50
486.80	349.76
487.17	352.05
487.53	354.58
487.90	357.19
488.26	360.00
488.62	362.97
488.99	365.99
489.35	369.15
489.72	372.56
490.08	376.12
490.44	379.78
490.81	383.61
491.17	387.53
491.54	391.71
491.90	395.96
492.26	400.52
492.63	405.31
492.99	410.32
493.36	415.49
493.72	420.94
494.08	426.55
494.45	432.45
494.81	438.60
495.17	444.82
495.54	451.45
495.90	458.43
496.26	465.53
496.63	472.80
496.99	480.37
497.35	488.22
497.72	496.40
498.08	504.80
498.44	513.40
498.80	522.53
499.17	531.96
499.53	541.71
499.89	551.72
500.26	561.90
500.62	572.32
500.98	583.37
501.34	594.55
501.71	606.23
502.07	618.14
502.43	630.46
502.79	643.23
503.16	656.34
503.52	669.56
503.88	683.22
504.24	697.28
504.60	711.56
504.97	726.30
505.33	741.35
505.69	757.13
506.05	773.20
506.41	789.47
506.78	805.98
507.14	823.03
507.50	840.41
507.86	858.19
508.22	876.21
508.59	894.30
508.95	913.00
509.31	932.18
509.67	952.13
510.03	972.21
510.39	992.39
510.75	1012.76
511.12	1033.45
511.48	1054.39
511.84	1075.63
512.20	1097.09
512.56	1119.42
512.92	1141.86
513.28	1164.28
513.64	1186.96
514.00	1210.03
514.37	1233.69
514.73	1257.30
515.09	1280.70
515.45	1304.31
515.81	1328.15
516.17	1352.13
516.53	1376.02
516.89	1399.65
517.25	1423.24
517.61	1447.05
517.97	1471.15
518.33	1495.28
518.69	1519.57
519.05	1544.17
519.41	1568.69
519.77	1593.62
520.13	1617.78
520.49	1642.03
520.85	1666.18
521.21	1690.35
521.57	1715.02
521.93	1738.91
522.29	1763.21
522.65	1787.45
523.01	1811.70
523.37	1835.40
523.73	1859.68
524.09	1883.72
524.45	1907.91
524.81	1931.96
525.17	1955.44
525.53	1978.68
525.89	2001.84
526.25	2024.94
526.61	2046.71
526.97	2068.83
527.33	2090.69
527.68	2112.50
528.04	2133.91
528.40	2155.28
528.76	2176.26
529.12	2196.60
529.48	2217.59
529.84	2236.49
530.20	2255.87
530.56	2274.71
530.91	2294.16
531.27	2313.05
531.63	2331.21
531.99	2348.87
532.35	2366.05
532.71	2384.10
533.07	2402.49
533.42	2419.10
533.78	2436.25
534.14	2453.80
534.50	2470.52
534.86	2487.73
535.21	2502.96
535.57	2518.07
535.93	2532.65
536.29	2546.71
536.65	2560.25
537.00	2572.50
537.36	2585.82
537.72	2597.85
538.08	2609.98
538.44	2620.82
538.79	2631.11
539.15	2640.43
539.51	2649.75
539.87	2658.03
540.22	2663.88
540.58	2669.76
540.94	2676.39
541.29	2681.82
541.65	2687.01
542.01	2691.97
542.37	2694.86
542.72	2699.18
543.08	2702.66
543.44	2705.82
543.79	2708.26
544.15	2710.37
544.51	2711.98
544.87	2713.54
545.22	2714.65
545.58	2714.42
545.94	2714.25
546.29	2712.86
546.65	2711.86
547.01	2710.60
547.36	2709.81
547.72	2709.50
548.07	2707.91
548.43	2704.80
548.79	2701.41
549.14	2698.01
549.50	2694.76
549.86	2691.38
550.21	2686.81
550.57	2682.59
550.92	2677.17
551.28	2671.72
551.64	2666.05
551.99	2660.68
552.35	2654.09
552.70	2647.71
553.06	2642.19
553.41	2636.27
553.77	2630.27
554.13	2624.19
554.48	2616.79
554.84	2608.49
555.19	2599.97
555.55	2590.84
555.90	2582.92
556.26	2575.20
556.61	2566.61
556.97	2556.61
557.32	2546.79
557.68	2537.12
558.03	2526.98
558.39	2517.78
558.74	2509.31
559.10	2499.51
559.45	2489.53
559.81	2480.02
560.16	2469.96
560.52	2459.54
560.87	2449.38
561.23	2438.62
561.58	2428.27
561.94	2417.93
562.29	2407.15
562.64	2396.84
563.00	2386.82
563.35	2376.60
563.71	2365.57
564.06	2354.88
564.42	2344.38
564.77	2333.79
565.12	2323.03
565.48	2312.02
565.83	2300.62
566.19	2288.82
566.54	2277.68
566.89	2265.70
567.25	2253.71
567.60	2242.69
567.96	2231.16
568.31	2218.62
568.66	2206.47
569.02	2194.55
569.37	2183.08
569.72	2172.42
570.08	2160.74
570.43	2148.65
570.78	2136.38
571.14	2124.09
571.49	2111.44
571.84	2099.11
572.20	2085.91
572.55	2072.76
572.90	2060.12
573.26	2047.83
573.61	2034.72
573.96	2021.91
574.31	2009.53
574.67	1997.09
575.02	1983.65
575.37	1970.20
575.72	1957.18
576.08	1944.23
576.43	1930.75
576.78	1917.26
577.13	1903.42
577.49	1890.02
577.84	1876.78
578.19	1863.60
578.54	1850.11
578.90	1836.34
579.25	1822.34
579.60	1809.57
579.95	1797.00
580.30	1784.16
580.66	1770.75
581.01	1757.39
581.36	1743.71
581.71	1730.50
582.06	1717.49
582.42	1704.77
582.77	1692.09
583.12	1679.69
583.47	1667.60
583.82	1655.06
584.17	1641.77
584.53	1628.80
584.88	1616.01
585.23	1603.12
585.58	1590.24
585.93	1577.84
586.28	1566.01
586.63	1554.15
586.98	1541.71
587.34	1529.43
587.69	1516.58
588.04	1504.17
588.39	1492.23
588.74	1480.06
589.09	1468.27
589.44	1455.76
589.79	1443.43
590.14	1431.26
590.49	1419.06
590.84	1406.92
591.19	1395.48
591.54	1384.02
591.89	1372.33
592.25	1361.12
592.60	1349.56
592.95	1338.41
593.30	1327.12
593.65	1315.95
594.00	1304.90
594.35	1294.35
594.70	1283.03
595.05	1272.60
595.40	1261.90
595.75	1251.05
596.10	1240.84
596.45	1230.21
596.80	1220.31
597.15	1210.54
597.50	1200.65
597.85	1191.16
598.19	1181.69
598.54	1171.81
598.89	1162.64
599.24	1153.72
599.59	1144.76
599.94	1136.37
600.29	1127.64
600.64	1118.98
600.99	1109.65
601.34	1100.86
601.69	1091.90
602.04	1083.81
602.39	1075.33
602.74	1067.34
603.08	1059.62
603.43	1051.62
603.78	1043.58
604.13	1035.56
604.48	1027.37
604.83	1019.51
605.18	1011.45
605.53	1003.27
605.87	995.14
606.22	987.29
606.57	979.21
606.92	971.00
607.27	962.97
607.62	955.18
607.96	947.48
608.31	940.81
608.66	933.88
609.01	926.95
609.36	919.98
609.70	913.04
610.05	905.94
610.40	898.95
610.75	891.82
611.10	885.12
611.44	878.23
611.79	871.65
612.14	864.93
612.49	858.08
612.83	851.69
613.18	845.47
613.53	839.31
613.88	833.26
614.22	827.43
614.57	821.42
614.92	815.50
615.27	809.66
615.61	803.39
615.96	797.21
616.31	791.21
616.65	785.04
617.00	778.95
617.35	772.93
617.70	767.00
618.04	761.25
618.39	755.38
618.74	749.79
619.08	744.04
619.43	738.44
619.78	732.97
620.12	727.32
620.47	721.88
620.82	716.42
621.16	711.08
621.51	705.62
621.85	700.23
622.20	694.73
622.55	689.30
622.89	683.98
623.24	678.82
623.59	673.72
623.93	668.91
624.28	664.24
624.62	659.58
624.97	654.84
625.32	650.18
625.66	645.32
626.01	640.44
626.35	635.75
626.70	631.02
627.04	626.60
627.39	622.17
627.73	617.73
628.08	613.35
628.43	608.98
628.77	604.67
629.12	600.44
629.46	596.36
629.81	592.20
630.15	588.07
630.50	584.03
630.84	580.04
631.19	576.11
631.53	572.28
631.88	568.40
632.22	564.48
632.57	560.79
632.91	557.17
633.26	553.56
633.60	549.93
633.95	546.43
634.29	542.80
634.64	539.25
634.98	535.60
635.32	532.06
635.67	528.76
636.01	525.47
636.36	522.17
636.70	519.01
637.05	515.86
637.39	512.78
637.73	509.48
638.08	506.28
638.42	503.14
638.77	499.88
639.11	496.55
639.45	493.33
639.80	490.12
640.14	487.03
640.49	484.00
640.83	480.91
641.17	477.87
641.52	474.84
641.86	471.75
642.20	468.86
642.55	465.84
642.89	462.84
643.23	459.97
643.58	457.28
643.92	454.49
644.26	451.77
644.61	449.07
644.95	446.42
645.29	443.69
645.64	440.91
645.98	438.23
646.32	435.67
646.66	433.15
647.01	430.67
647.35	428.32
647.69	425.85
648.04	423.46
648.38	421.05
648.72	418.68
649.06	416.38
649.41	414.09
649.75	411.88
650.09	409.58
650.43	407.33
650.78	405.07
651.12	402.78
651.46	400.58
651.80	398.44
652.14	396.38
652.49	394.35
652.83	392.35
653.17	390.39
653.51	388.51
653.85	386.65
654.20	384.73
654.54	382.70
654.88	380.77
655.22	378.91
655.56	377.07
655.90	375.30
656.25	373.55
656.59	371.78
656.93	370.09
657.27	368.52
657.61	366.82
657.95	365.17
658.29	363.59
658.64	362.02
658.98	360.36
659.32	358.69
659.66	357.14
660.00	355.60
660.34	354.07
660.68	352.53
661.02	350.95
661.36	349.42
661.70	347.95
662.05	346.52
662.39	345.11
662.73	343.77
663.07	342.46
663.41	341.17
663.75	339.86
664.09	338.57
664.43	337.21
664.77	335.91
665.11	334.54
665.45	333.25
665.79	331.96
666.13	330.74
666.47	329.57
666.81	328.33
667.15	327.06
667.49	325.87
667.83	324.69
668.17	323.55
668.51	322.45
668.85	321.36
669.19	320.30
669.53	319.15
669.87	317.95
670.21	316.82
670.55	315.72
670.89	314.70
671.23	313.65
671.57	312.61
671.91	311.66
672.25	310.76
672.58	309.84
672.92	308.88
673.26	307.98
673.60	307.06
673.94	306.16
674.28	305.30
674.62	304.41
674.96	303.51
675.30	302.68
675.64	301.82
675.97	300.97
676.31	300.10
676.65	299.29
676.99	298.57
677.33	297.73
677.67	296.92
678.01	296.07
678.34	295.26
678.68	294.50
679.02	293.70
679.36	292.90
679.70	292.11
680.04	291.34
680.37	290.56
680.71	289.84
681.05	289.14
681.39	288.42
681.73	287.71
682.06	287.01
682.40	286.30
682.74	285.62
683.08	284.97
683.42	284.30
683.75	283.66
684.09	282.95
684.43	282.31
684.77	281.66
685.10	281.04
685.44	280.41
685.78	279.79
686.12	279.19
686.45	278.59
686.79	277.97
687.13	277.38
687.46	276.76
687.80	276.15
688.14	275.53
688.48	274.95
688.81	274.35
689.15	273.80
689.49	273.21
689.82	272.63
690.16	271.99
690.50	271.40
690.83	270.82
691.17	270.25
691.51	269.71
691.84	269.17
692.18	268.62
692.52	268.06
692.85	267.52
693.19	267.02
693.52	266.49
693.86	265.96
694.20	265.45
694.53	264.96
694.87	264.44
695.21	263.93
695.54	263.43
695.88	262.92
696.21	262.39
696.55	261.92
696.88	261.44
697.22	260.99
697.56	260.56
697.89	260.10
698.23	259.68
698.56	259.24
698.90	258.81
699.23	258.38
699.57	257.99
699.90	257.57
700.24	257.12
700.58	256.72
700.91	256.35
701.25	256.04
701.58	255.69
701.92	255.35
702.25	254.98
702.59	254.60
702.92	254.25
703.26	253.88
703.59	253.51
703.93	253.23
704.26	252.90
704.60	252.53
704.93	252.15
705.26	251.78
705.60	251.45
705.93	251.09
706.27	250.79
706.60	250.47
706.94	250.18
707.27	249.84
707.61	249.50
707.94	249.16
708.27	248.76
708.61	248.40
708.94	248.06
709.28	247.76
709.61	247.46
709.94	247.18
710.28	246.91
710.61	246.66
710.95	246.29
711.28	246.08
711.61	245.80
711.95	245.58
712.28	245.32
712.61	245.03
712.95	244.82
713.28	244.59
713.61	244.31
713.95	244.02
714.28	243.79
714.61	243.54
714.95	243.29
715.28	243.04
715.61	242.82
715.95	242.60
716.28	242.37
716.61	242.17
716.95	241.93
717.28	241.72
717.61	241.49
717.94	241.27
718.28	240.99
718.61	240.80
718.94	240.57
719.27	240.37
719.61	240.20
719.94	239.97
720.27	239.74
720.60	239.55
720.94	239.36
721.27	239.17
721.60	239.02
721.93	238.85
722.27	238.70
722.60	238.53
722.93	238.34
723.26	238.16
723.59	237.96
723.93	237.81
724.26	237.63
724.59	237.47
724.92	237.32
725.25	237.18
725.59	237.02
725.92	236.89
726.25	236.74
726.58	236.59
726.91	236.44
727.24	236.30
727.57	236.17
727.91	236.01
728.24	235.88
728.57	235.73
728.90	235.59
729.23	235.43
729.56	235.34
729.89	235.21
730.22	235.08
730.55	234.96
730.89	234.83
731.22	234.69
731.55	234.56
731.88	234.44
732.21	234.31
732.54	234.18
732.87	234.05
733.20	233.95
733.53	233.83
733.86	233.73
734.19	233.60
734.52	233.52
734.85	233.49
735.18	233.36
735.51	233.29
735.84	233.20
736.17	233.12
736.50	232.97
736.83	232.99
737.16	232.89
737.49	232.79
737.82	232.69
738.15	232.61
738.48	232.52
738.81	232.42
739.14	232.31
739.47	232.22
739.80	232.14
740.13	232.05
740.46	231.93
740.79	231.82
741.12	231.72
741.45	231.61
741.78	231.46
742.11	231.39
742.44	231.27
742.77	231.19
743.10	231.09
743.43	231.00
743.75	230.81
744.08	230.88
744.41	230.80
744.74	230.72
745.07	230.61
745.40	230.55
745.73	230.52
746.06	230.44
746.39	230.38
746.71	230.30
747.04	230.21
747.37	230.15
747.70	230.09
748.03	230.04
748.36	229.99
748.68	229.92
749.01	229.83
749.34	229.77
749.67	229.70
750.00	229.65
750.33	229.66
750.65	229.60
750.98	229.39
751.31	229.33
751.64	229.28
751.97	229.27
752.29	229.20
752.62	229.08
752.95	229.01
753.28	228.94
753.60	228.87
753.93	228.83
754.26	228.79
754.59	228.70
754.91	228.62
755.24	228.55
755.57	228.54
755.90	228.49
756.22	228.41
756.55	228.34
756.88	228.26
757.20	228.13
757.53	228.04
757.86	227.98
758.19	227.93
758.51	227.87
758.84	227.77
759.17	227.71
759.49	227.66
759.82	227.67
760.15	227.62
760.47	227.58
760.80	227.50
761.13	227.46
761.45	227.42
761.78	227.38
762.11	227.33
762.43	227.23
762.76	227.18
763.08	227.15
763.41	227.11
763.74	227.07
764.06	227.03
764.39	226.99
764.71	226.95
765.04	226.91
765.37	226.85
765.69	226.81
766.02	226.77
766.34	226.72
766.67	226.65
767.00	226.63
767.32	226.64
767.65	226.67
767.97	226.62
768.30	226.59
768.62	226.56
768.95	226.50
769.27	226.46
769.60	226.44
769.92	226.39
770.25	226.35
770.57	226.30
770.90	226.28
771.22	226.24
771.55	226.21
771.87	226.19
772.20	226.16
772.52	226.21
772.85	226.31
773.17	226.30
773.50	226.25
773.82	226.21
774.15	226.14
774.47	226.05
774.80	226.00
775.12	225.98
775.45	225.95
775.77	225.93
776.09	225.91
776.42	225.88
776.74	225.89
777.07	225.86
777.39	225.84
777.72	225.81
778.04	225.80
778.36	225.77
778.69	225.73
779.01	225.71
779.33	225.59
779.66	225.46
779.98	225.42
780.31	225.40
780.63	225.42
780.95	225.40
781.28	225.38
781.60	225.36
781.92	225.33
782.25	225.31
782.57	225.28
782.89	225.26
783.22	225.22
783.54	225.18
783.86	225.17
784.19	225.15
784.51	225.16
784.83	225.12
785.16	225.11
785.48	225.11
785.80	225.10
786.12	225.09
786.45	225.08
786.77	225.08
787.09	225.06
787.42	225.01
787.74	225.00
788.06	224.99
788.38	224.97
788.71	224.95
789.03	224.94
789.35	224.94
789.67	224.91
789.99	224.91
790.32	224.88
790.64	224.87
790.96	224.96
791.28	224.90
791.61	224.88
791.93	224.87
792.25	224.85
792.57	224.91
792.89	224.88
793.21	224.87
793.54	224.84
793.86	224.82
794.18	224.80
794.50	224.76
794.82	224.74
795.14	224.73
795.47	224.74
795.79	224.73
796.11	224.69
796.43	224.67
796.75	224.66
797.07	224.67
797.39	224.64
797.71	224.55
798.04	224.54
798.36	224.53
798.68	224.51
799.00	224.49
799.32	224.43
799.64	224.43
799.96	224.43
800.28	224.44
800.60	224.44
800.92	224.43
801.24	224.43
801.56	224.44
801.89	224.42
802.21	224.42
802.53	224.39
802.85	224.40
803.17	224.44
803.49	224.41
803.81	224.39
804.13	224.37
804.45	224.35
804.77	224.35
805.09	224.34
805.41	224.33
805.73	224.31
806.05	224.26
806.37	224.25
806.69	224.22
807.01	224.19
807.33	224.19
807.65	224.14
807.97	224.18
808.28	224.16
808.60	224.15
808.92	224.12
809.24	224.18
809.56	224.14
809.88	224.10
810.20	224.11
810.52	224.11
810.84	224.09
811.16	224.08
811.48	224.07
811.80	224.10
812.12	224.09
812.43	224.10
812.75	224.10
813.07	224.09
813.39	224.09
813.71	224.08
814.03	224.06
814.35	224.07
814.67	224.02
814.98	224.01
815.30	224.00
815.62	223.99
815.94	223.91
816.26	223.92
816.58	223.90
816.89	223.90
817.21	223.87
817.53	223.88
817.85	223.88
818.17	223.87
818.48	223.82
818.80	223.84
819.12	223.82
819.44	223.80
819.76	223.77
820.07	223.77
820.39	223.76
820.71	223.76
821.03	223.76
821.34	223.74
821.66	223.75
821.98	223.76
822.30	223.76
822.61	223.82
822.93	223.80
823.25	223.79
823.57	223.78
823.88	223.78
824.20	223.78
824.52	223.78
824.83	223.78
825.15	223.77
825.47	223.76
825.79	223.77
826.10	223.76
826.42	223.76
826.74	223.77
827.05	223.77
827.37	223.77
827.69	223.75
828.00	223.76
828.32	223.75
828.64	223.73
828.95	223.78
829.27	223.75
829.58	223.74
829.90	223.75
830.22	223.75
830.53	223.75
830.85	223.73
831.17	223.70
831.48	223.70
831.80	223.70
832.11	223.70
832.43	223.68
832.75	223.68
833.06	223.74
833.38	223.70
833.69	223.69
834.01	223.70
834.32	223.69
834.64	223.68
834.96	223.67
835.27	223.67
835.59	223.63
835.90	223.62
836.22	223.61
836.53	223.60
836.85	223.58
837.16	223.68
837.48	223.67
837.79	223.71
838.11	223.71
838.42	223.71
838.74	223.71
839.05	223.70
839.37	223.69
839.68	223.63
840.00	223.63
840.31	223.64
840.63	223.63
840.94	223.63
841.26	223.61
841.57	223.61
841.88	223.61
842.20	223.60
842.51	223.58
842.83	223.58
843.14	223.67
843.46	223.68
843.77	223.62
844.08	223.62
844.40	223.57
844.71	223.55
845.03	223.54
845.34	223.53
845.65	223.53
845.97	223.53
846.28	223.53
846.60	223.54
846.91	223.52
847.22	223.51
847.54	223.53
847.85	223.54
848.16	223.53
848.48	223.50
848.79	223.54
849.10	223.56
849.42	223.56
849.73	223.46
850.04	223.45
850.36	223.41
850.67	223.43
850.98	223.43
851.30	223.46
851.61	223.46
851.92	223.45
852.23	223.48
852.55	223.48
852.86	223.49
853.17	223.49
853.49	223.51
853.80	223.53
854.11	223.54
854.42	223.54
854.74	223.53
855.05	223.54
855.36	223.48
855.67	223.48
855.99	223.47
856.30	223.60
856.61	223.59
856.92	223.60
857.23	223.60
857.55	223.59
857.86	223.58
858.17	223.59
858.48	223.57
858.79	223.54
859.11	223.55
859.42	223.54
859.73	223.53
860.04	223.52
860.35	223.50
860.66	223.46
860.98	223.46
861.29	223.47
861.60	223.46
861.91	223.49
862.22	223.47
862.53	223.45
862.84	223.33
863.16	223.36
863.47	223.34
863.78	223.32
864.09	223.32
864.40	223.32
864.71	223.32
865.02	223.34
865.33	223.33
865.64	223.30
865.95	223.31
866.27	223.37
866.58	223.36
866.89	223.37
867.20	223.36
867.51	223.34
867.82	223.33
868.13	223.36
868.44	223.34
868.75	223.35
869.06	223.36
869.37	223.37
869.68	223.35
869.99	223.37
870.30	223.37
870.61	223.38
870.92	223.37
871.23	223.35
871.54	223.36
871.85	223.38
872.16	223.38
872.47	223.36
872.78	223.32
873.09	223.33
873.40	223.32
873.71	223.33
874.02	223.33
874.33	223.33
874.64	223.31
874.95	223.33
875.26	223.31
875.56	223.30
875.87	223.30
876.18	223.29
876.49	223.38
876.80	223.38
877.11	223.36
877.42	223.36
877.73	223.37
878.04	223.35
878.35	223.36
878.66	223.37
878.96	223.38
879.27	223.37
879.58	223.36
879.89	223.36
880.20	223.40
880.51	223.40
880.82	223.41
881.12	223.41
881.43	223.39
881.74	223.38
882.05	223.38
882.36	223.38
882.67	223.39
882.97	223.29
883.28	223.28
883.59	223.28
883.90	223.29
884.21	223.30
884.51	223.30
884.82	223.29
885.13	223.29
885.44	223.28
885.74	223.29
886.05	223.28
886.36	223.28
886.67	223.24
886.98	223.29
887.28	223.28
887.59	223.28
887.90	223.29
888.20	223.28
888.51	223.29
888.82	223.28
889.13	223.29
889.43	223.36
889.74	223.36
890.05	223.37
890.35	223.35
890.66	223.32
890.97	223.32
891.28	223.30
891.58	223.30
891.89	223.30
892.20	223.28
892.50	223.27
892.81	223.25
893.12	223.26
893.42	223.20
893.73	223.20
894.04	223.19
894.34	223.19
894.65	223.18
894.95	223.18
895.26	223.18
895.57	223.22
895.87	223.12
896.18	223.14
896.48	223.15
896.79	223.15
897.10	223.16
897.40	223.17
897.71	223.19
898.01	223.17
898.32	223.18
898.63	223.18
898.93	223.18
899.24	223.20
899.54	223.19
899.85	223.19
900.15	223.19
900.46	223.20
900.76	223.20
901.07	223.20
901.38	223.19
901.68	223.21
901.99	223.16
902.29	223.17
902.60	223.16
902.90	223.15
903.21	223.15
903.51	223.14
903.82	223.16
904.12	223.15
904.43	223.16
904.73	223.15
905.03	223.16
905.34	223.27
905.64	223.26
905.95	223.26
906.25	223.25
906.56	223.25
906.86	223.24
907.17	223.23
907.47	223.24
907.77	223.22
908.08	223.20
908.38	223.20
908.69	223.20
908.99	223.21
909.30	223.22
909.60	223.22
909.90	223.23
910.21	223.21
910.51	223.20
910.81	223.20
911.12	223.21
911.42	223.21
911.73	223.09
912.03	223.10
912.33	223.13
912.64	223.11
912.94	223.11
913.24	223.10
913.55	223.09
913.85	223.08
914.15	223.12
914.46	223.13
914.76	223.12
915.06	223.11
915.37	223.10
915.67	223.09
915.97	223.09
916.27	223.06
916.58	223.07
916.88	223.06
917.18	223.04
917.49	223.10
917.79	223.10
918.09	223.12
918.39	223.14
918.70	223.13
919.00	223.14
919.30	223.19
919.60	223.19
919.91	223.18
920.21	223.19
920.51	223.16
920.81	223.16
921.12	223.18
921.42	223.17
921.72	223.17
922.02	223.18
922.32	223.20
922.63	223.20
922.93	223.25
923.23	223.26
923.53	223.25
923.83	223.18
924.13	223.18
924.44	223.17
924.74	223.19
925.04	223.21
925.34	223.20
925.64	223.16
925.94	223.16
926.24	223.22
926.55	223.20
926.85	223.23
927.15	223.23
927.45	223.22
927.75	223.22
928.05	223.22
928.35	223.21
928.65	223.21
928.95	223.23
929.26	223.17
929.56	223.19
929.86	223.20
930.16	223.20
930.46	223.19
930.76	223.20
931.06	223.15
931.36	223.13
931.66	223.14
931.96	223.16
932.26	223.17
932.56	223.12
932.86	223.12
933.16	223.12
933.46	223.11
933.76	223.10
934.06	223.11
934.36	223.15
934.66	223.15
934.96	223.14
935.26	223.14
935.56	223.15
935.86	223.12
936.16	223.12
936.46	223.11
936.76	223.10
937.06	223.09
937.36	223.10
937.66	223.09
937.96	223.09
938.26	223.06
938.56	223.05
938.86	223.06
939.16	223.07
939.46	223.08
939.76	223.09
940.06	223.09
940.35	223.07
940.65	223.02
940.95	223.03
941.25	223.01
941.55	223.01
941.85	223.00
942.15	223.03
942.45	223.05
942.75	223.05
943.04	223.06
943.34	223.09
943.64	223.08
943.94	223.07
944.24	223.07
944.54	223.08
944.84	223.07
945.13	223.06
945.43	223.04
945.73	223.03
946.03	223.03
946.33	223.02
946.62	223.01
946.92	223.00
947.22	223.01
947.52	223.02
947.82	223.03
948.11	223.02
948.41	222.99
948.71	222.97
949.01	222.98
949.31	222.96
949.60	222.96
949.90	222.97
950.20	222.97
950.50	222.97
950.79	222.96
951.09	222.99
951.39	222.99
951.69	222.99
951.98	223.00
952.28	223.02
952.58	223.01
952.87	223.03
953.17	223.04
953.47	223.04
953.76	223.04
954.06	223.02
954.36	223.01
954.66	223.02
954.95	223.05
955.25	223.05
955.55	223.06
955.84	223.04
956.14	223.04
956.44	223.04
956.73	223.03
957.03	223.05
957.32	223.04
957.62	223.04
957.92	223.06
958.21	223.06
958.51	223.17
958.81	223.19
959.10	223.18
959.40	223.21
959.69	223.20
959.99	223.21
960.29	223.21
960.58	223.20
960.88	223.23
961.17	223.21
961.47	223.22
961.76	223.20
962.06	223.21
962.36	223.20
962.65	223.21
962.95	223.21
963.24	223.20
963.54	223.19
963.83	223.19
964.13	223.17
964.42	223.15
964.72	223.07
965.01	223.07
965.31	223.07
965.60	223.03
965.90	223.10
966.19	223.07
966.49	223.08
966.78	223.07
967.08	223.05
967.37	223.05
967.67	223.02
967.96	223.04
968.26	223.05
968.55	223.06
968.85	223.05
969.14	223.04
969.43	223.03
969.73	223.02
970.02	223.01
970.32	223.01
970.61	223.00
970.91	222.96
971.20	222.94
971.49	222.93
971.79	222.95
972.08	222.88
972.38	222.89
972.67	222.89
972.96	222.91
973.26	222.89
973.55	222.91
973.85	222.91
974.14	222.89
974.43	222.89
974.73	222.88
975.02	222.87
975.31	222.87
975.61	222.88
975.90	222.87
976.19	222.86
976.49	222.86
976.78	222.86
977.07	222.86
977.37	222.87
977.66	222.88
977.95	222.85
978.24	222.87
978.54	222.88
978.83	222.87
979.12	222.86
979.42	222.86
979.71	222.85
980.00	222.85
980.29	222.85
980.59	222.83
980.88	222.86
981.17	222.86
981.46	222.86
981.76	222.86
982.05	222.90
982.34	222.90
982.63	222.91
982.93	222.91
983.22	222.93
983.51	222.94
983.80	222.96
984.09	222.98
984.39	222.97
984.68	222.96
984.97	222.97
985.26	222.97
985.55	222.98
985.85	222.95
986.14	222.97
986.43	222.98
986.72	222.98
987.01	222.95
987.30	222.95
987.59	222.96
987.89	222.96
988.18	222.93
988.47	222.92
988.76	222.91
989.05	222.90
989.34	222.87
989.63	222.90
989.92	222.89
990.22	222.87
990.51	222.86
990.80	222.85
991.09	222.85
991.38	222.86
991.67	222.86
991.96	222.85
992.25	222.85
992.54	222.84
992.83	222.83
993.12	222.83
993.41	222.84
993.70	222.87
993.99	222.88
994.28	222.91
994.58	222.93
994.87	222.92
995.16	222.92
995.45	222.93
995.74	222.89
996.03	222.91
996.32	222.93
996.61	222.97
996.90	222.98
997.19	222.97
997.48	222.97
997.77	222.96
998.06	222.97
998.34	222.96
998.63	222.97
998.92	222.98
999.21	223.01
999.50	223.00
999.79	222.97
1000.08	222.97
1000.37	222.97
1000.66	222.96
1000.95	222.99
1001.24	223.00
1001.53	223.01
1001.82	223.01
1002.11	222.98
1002.40	222.98
1002.68	223.00
1002.97	223.07
1003.26	223.06
1003.55	223.05
1003.84	223.06
1004.13	223.10
1004.42	223.09
1004.71	223.08
1004.99	223.07
1005.28	223.08
1005.57	223.08
1005.86	223.07
1006.15	223.06
1006.44	223.05
1006.72	223.05
1007.01	223.03
1007.30	223.03
1007.59	223.00
1007.88	223.00
1008.17	223.01
1008.45	222.98
1008.74	222.94
1009.03	222.89
1009.32	222.89
1009.60	222.89
1009.89	222.88
1010.18	222.83
1010.47	222.83
1010.76	222.83
1011.04	222.82
1011.33	222.82
1011.62	222.83
1011.91	222.83
1012.19	222.82
1012.48	222.83
1012.77	222.82
1013.05	222.86
1013.34	222.86
1013.63	222.86
1013.92	222.86
1014.20	222.86
1014.49	222.86
1014.78	222.86
1015.06	222.82
1015.35	222.83
1015.64	222.85
1015.92	222.86
1016.21	222.87
1016.50	222.87
1016.78	222.89
1017.07	222.90
1017.36	222.88
1017.64	222.86
1017.93	222.87
1018.22	222.87
1018.50	222.85
1018.79	222.84
1019.08	222.80
1019.36	222.81
1019.65	222.80
1019.93	222.83
1020.22	222.84
1020.51	222.89
1020.79	222.88
1021.08	222.66
1021.36	222.63
1021.65	222.61
1021.94	222.74
1022.22	222.90
1022.51	222.66
1022.79	223.34
1023.08	223.01
1023.36	223.98
1023.65	222.60
>>>>>End Processed Spectral Data<<<<<
