SpectraSuite Data File
++++++++++++++++++++++++++++++++++++
Date: Thu Oct 01 01:05:24 EDT 2015
User: lab3
Dark Spectrum Present: No
Reference Spectrum Present: No
Number of Sampled Component Spectra: 1
Spectrometers: USB2E7196
Integration Time (usec): 36000 (USB2E7196)
Spectra Averaged: 10000 (USB2E7196)
Boxcar Smoothing: 10 (USB2E7196)
Correct for Electrical Dark: No (USB2E7196)
Strobe/Lamp Enabled: No (USB2E7196)
Correct for Detector Non-linearity: No (USB2E7196)
Correct for Stray Light: No (USB2E7196)
Number of Pixels in Processed Spectrum: 2048
>>>>>Begin Processed Spectral Data<<<<<
339.09	0.00
339.48	210.38
339.86	211.81
340.24	213.14
340.63	214.62
341.01	217.55
341.39	217.33
341.78	218.64
342.16	219.82
342.54	220.35
342.93	208.94
343.31	219.49
343.69	220.03
344.07	220.50
344.46	220.93
344.84	221.32
345.22	221.56
345.60	221.82
345.99	222.01
346.37	222.15
346.75	222.26
347.13	222.34
347.52	222.41
347.90	222.49
348.28	222.53
348.66	222.58
349.05	222.58
349.43	222.64
349.81	222.69
350.19	222.75
350.57	222.81
350.96	222.90
351.34	222.99
351.72	223.08
352.10	223.19
352.48	223.27
352.87	223.32
353.25	223.39
353.63	223.45
354.01	223.52
354.39	223.60
354.77	223.67
355.15	223.78
355.54	223.83
355.92	223.87
356.30	223.94
356.68	224.08
357.06	224.15
357.44	224.20
357.82	224.26
358.20	224.37
358.58	224.43
358.97	224.49
359.35	224.57
359.73	224.65
360.11	224.70
360.49	224.76
360.87	224.81
361.25	224.87
361.63	224.95
362.01	225.00
362.39	225.03
362.77	225.08
363.15	225.10
363.53	225.13
363.91	225.17
364.29	225.19
364.67	225.12
365.05	225.14
365.43	225.18
365.81	225.21
366.19	225.22
366.57	225.27
366.95	225.27
367.33	225.25
367.71	225.24
368.09	225.26
368.47	225.25
368.85	225.24
369.23	225.25
369.61	225.20
369.99	225.21
370.37	225.20
370.75	225.26
371.13	225.23
371.51	225.18
371.89	225.16
372.27	225.13
372.65	225.11
373.03	225.06
373.41	225.01
373.78	224.96
374.16	224.87
374.54	224.79
374.92	224.74
375.30	224.70
375.68	224.63
376.06	224.58
376.44	224.53
376.82	224.48
377.19	224.43
377.57	224.38
377.95	224.29
378.33	224.23
378.71	224.09
379.09	224.04
379.47	224.01
379.84	223.94
380.22	223.88
380.60	223.81
380.98	223.76
381.36	223.70
381.73	223.64
382.11	223.61
382.49	223.57
382.87	223.51
383.25	223.46
383.62	223.54
384.00	223.47
384.38	223.43
384.76	223.41
385.13	223.40
385.51	223.36
385.89	223.31
386.27	223.27
386.64	223.25
387.02	223.20
387.40	223.16
387.78	223.14
388.15	223.11
388.53	223.08
388.91	223.05
389.29	223.02
389.66	223.01
390.04	222.97
390.42	222.97
390.79	222.95
391.17	222.93
391.55	222.80
391.92	222.79
392.30	222.79
392.68	222.75
393.05	222.73
393.43	222.73
393.81	222.74
394.18	222.72
394.56	222.71
394.94	222.74
395.31	222.74
395.69	222.78
396.06	222.80
396.44	222.82
396.82	222.84
397.19	222.91
397.57	222.92
397.95	222.96
398.32	222.96
398.70	223.00
399.07	223.06
399.45	223.09
399.82	223.13
400.20	223.16
400.58	223.22
400.95	223.23
401.33	223.31
401.70	223.44
402.08	223.54
402.45	223.61
402.83	223.71
403.20	223.81
403.58	223.89
403.95	224.02
404.33	224.14
404.71	224.27
405.08	224.45
405.46	224.59
405.83	224.75
406.21	224.92
406.58	225.11
406.96	225.29
407.33	225.51
407.70	225.75
408.08	226.08
408.45	226.36
408.83	226.66
409.20	226.94
409.58	227.19
409.95	227.54
410.33	227.92
410.70	228.26
411.08	228.68
411.45	229.12
411.82	229.56
412.20	230.06
412.57	230.67
412.95	231.14
413.32	231.75
413.69	232.39
414.07	233.06
414.44	233.80
414.82	234.55
415.19	235.42
415.56	236.32
415.94	237.24
416.31	238.27
416.68	239.31
417.06	240.52
417.43	241.65
417.81	242.95
418.18	244.28
418.55	245.73
418.93	247.24
419.30	248.82
419.67	250.50
420.04	252.22
420.42	254.03
420.79	256.11
421.16	258.21
421.54	260.35
421.91	262.58
422.28	264.90
422.66	267.41
423.03	269.79
423.40	272.29
423.77	274.98
424.15	277.73
424.52	280.59
424.89	283.68
425.26	286.77
425.64	289.62
426.01	292.84
426.38	296.13
426.75	299.52
427.13	302.99
427.50	306.61
427.87	310.39
428.24	314.19
428.61	317.83
428.99	321.75
429.36	326.06
429.73	330.17
430.10	334.27
430.47	338.45
430.85	342.76
431.22	347.35
431.59	352.07
431.96	356.67
432.33	361.76
432.70	366.57
433.08	372.27
433.45	377.66
433.82	382.95
434.19	388.85
434.56	394.65
434.93	400.25
435.30	405.78
435.68	412.02
436.05	418.11
436.42	424.20
436.79	429.76
437.16	435.75
437.53	442.18
437.90	448.60
438.27	454.87
438.64	461.67
439.01	467.82
439.38	473.44
439.75	478.87
440.13	485.07
440.50	490.98
440.87	495.63
441.24	500.74
441.61	506.39
441.98	510.53
442.35	515.46
442.72	520.52
443.09	525.36
443.46	528.49
443.83	530.81
444.20	532.79
444.57	535.68
444.94	537.41
445.31	539.19
445.68	540.79
446.05	542.00
446.42	541.89
446.79	541.67
447.16	541.50
447.53	541.37
447.90	539.59
448.27	537.92
448.64	535.25
449.01	533.50
449.37	529.65
449.74	526.15
450.11	521.64
450.48	516.66
450.85	511.65
451.22	507.39
451.59	503.23
451.96	499.44
452.33	493.87
452.70	488.91
453.07	482.87
453.43	476.80
453.80	470.94
454.17	465.30
454.54	460.06
454.91	454.15
455.28	448.57
455.65	443.32
456.02	437.72
456.38	433.21
456.75	427.39
457.12	422.68
457.49	417.94
457.86	413.41
458.23	409.44
458.59	405.07
458.96	400.56
459.33	396.58
459.70	392.53
460.07	389.45
460.43	385.81
460.80	382.40
461.17	379.39
461.54	376.15
461.91	373.13
462.27	370.06
462.64	367.54
463.01	364.66
463.38	361.75
463.74	359.13
464.11	356.79
464.48	354.66
464.85	352.40
465.21	350.66
465.58	348.75
465.95	346.53
466.32	344.75
466.68	343.02
467.05	341.28
467.42	339.61
467.78	337.80
468.15	336.13
468.52	334.88
468.88	333.25
469.25	331.76
469.62	330.57
469.98	329.29
470.35	328.14
470.72	327.11
471.08	326.07
471.45	325.20
471.82	324.25
472.18	323.26
472.55	322.61
472.92	321.82
473.28	321.19
473.65	320.56
474.02	319.95
474.38	319.46
474.75	319.18
475.11	318.77
475.48	318.62
475.85	318.46
476.21	318.41
476.58	318.42
476.94	318.61
477.31	318.73
477.67	318.88
478.04	319.14
478.41	319.48
478.77	319.95
479.14	320.28
479.50	320.84
479.87	321.53
480.23	322.23
480.60	322.90
480.96	323.60
481.33	324.56
481.69	325.52
482.06	326.47
482.42	327.37
482.79	328.44
483.15	329.67
483.52	331.05
483.88	332.39
484.25	333.80
484.61	335.28
484.98	336.88
485.34	338.66
485.71	340.51
486.07	342.48
486.44	344.43
486.80	346.62
487.17	348.84
487.53	351.30
487.90	353.85
488.26	356.61
488.62	359.52
488.99	362.44
489.35	365.49
489.72	368.79
490.08	372.25
490.44	375.82
490.81	379.54
491.17	383.36
491.54	387.43
491.90	391.61
492.26	396.11
492.63	400.84
492.99	405.76
493.36	410.80
493.72	416.12
494.08	421.58
494.45	427.34
494.81	433.30
495.17	439.39
495.54	445.83
495.90	452.58
496.26	459.47
496.63	466.60
496.99	474.00
497.35	481.77
497.72	489.85
498.08	498.07
498.44	506.56
498.80	515.60
499.17	524.87
499.53	534.47
499.89	544.31
500.26	554.32
500.62	564.61
500.98	575.57
501.34	586.67
501.71	598.33
502.07	610.19
502.43	622.46
502.79	635.06
503.16	648.06
503.52	661.25
503.88	674.82
504.24	688.82
504.60	703.10
504.97	717.76
505.33	732.81
505.69	748.77
506.05	764.93
506.41	781.08
506.78	797.54
507.14	814.48
507.50	832.01
507.86	849.95
508.22	868.16
508.59	886.38
508.95	905.33
509.31	924.71
509.67	944.78
510.03	965.07
510.39	985.59
510.75	1006.34
511.12	1027.39
511.48	1048.74
511.84	1070.21
512.20	1091.99
512.56	1114.87
512.92	1137.92
513.28	1160.69
513.64	1183.81
514.00	1207.34
514.37	1231.21
514.73	1255.11
515.09	1278.81
515.45	1302.95
515.81	1327.65
516.17	1352.41
516.53	1376.84
516.89	1401.35
517.25	1426.06
517.61	1450.94
517.97	1476.02
518.33	1500.86
518.69	1525.82
519.05	1551.06
519.41	1576.42
519.77	1602.05
520.13	1626.92
520.49	1651.97
520.85	1677.24
521.21	1702.43
521.57	1728.20
521.93	1753.28
522.29	1779.18
522.65	1804.82
523.01	1830.25
523.37	1854.94
523.73	1880.31
524.09	1905.87
524.45	1931.25
524.81	1956.15
525.17	1980.99
525.53	2005.41
525.89	2029.86
526.25	2054.51
526.61	2078.65
526.97	2103.06
527.33	2127.39
527.68	2151.49
528.04	2174.83
528.40	2198.00
528.76	2221.36
529.12	2243.66
529.48	2266.34
529.84	2287.22
530.20	2308.63
530.56	2329.68
530.91	2350.79
531.27	2371.35
531.63	2391.28
531.99	2410.75
532.35	2429.93
532.71	2449.20
533.07	2469.03
533.42	2487.34
533.78	2506.00
534.14	2524.65
534.50	2542.43
534.86	2560.90
535.21	2577.57
535.57	2594.08
535.93	2609.91
536.29	2624.52
536.65	2639.99
537.00	2654.26
537.36	2669.05
537.72	2682.83
538.08	2696.27
538.44	2708.55
538.79	2721.10
539.15	2731.99
539.51	2742.78
539.87	2753.19
540.22	2761.41
540.58	2769.80
540.94	2778.68
541.29	2786.17
541.65	2792.61
542.01	2798.56
542.37	2802.60
542.72	2808.64
543.08	2814.12
543.44	2819.38
543.79	2823.85
544.15	2827.37
544.51	2830.96
544.87	2833.60
545.22	2835.89
545.58	2837.16
545.94	2838.92
546.29	2839.21
546.65	2839.55
547.01	2840.02
547.36	2840.55
547.72	2841.29
548.07	2840.57
548.43	2839.24
548.79	2837.21
549.14	2835.17
549.50	2833.80
549.86	2831.44
550.21	2826.67
550.57	2822.37
550.92	2816.80
551.28	2811.79
551.64	2806.74
551.99	2801.99
552.35	2796.87
552.70	2791.27
553.06	2786.45
553.41	2781.16
553.77	2775.19
554.13	2770.01
554.48	2763.86
554.84	2756.12
555.19	2748.57
555.55	2740.42
555.90	2732.85
556.26	2726.29
556.61	2719.09
556.97	2709.67
557.32	2701.22
557.68	2693.10
558.03	2684.30
558.39	2676.12
558.74	2668.11
559.10	2658.94
559.45	2649.41
559.81	2640.23
560.16	2630.35
560.52	2620.12
560.87	2610.91
561.23	2601.29
561.58	2591.15
561.94	2580.69
562.29	2569.82
562.64	2559.51
563.00	2549.48
563.35	2539.29
563.71	2528.13
564.06	2516.58
564.42	2506.04
564.77	2495.13
565.12	2484.34
565.48	2473.39
565.83	2463.09
566.19	2452.78
566.54	2442.03
566.89	2430.42
567.25	2418.69
567.60	2407.81
567.96	2396.44
568.31	2383.66
568.66	2370.92
569.02	2359.21
569.37	2347.28
569.72	2335.85
570.08	2323.69
570.43	2311.00
570.78	2297.98
571.14	2284.84
571.49	2272.40
571.84	2260.28
572.20	2246.93
572.55	2233.90
572.90	2220.71
573.26	2206.53
573.61	2191.82
573.96	2177.45
574.31	2163.41
574.67	2149.66
575.02	2135.49
575.37	2120.87
575.72	2106.47
576.08	2092.69
576.43	2077.83
576.78	2063.10
577.13	2049.14
577.49	2035.18
577.84	2021.64
578.19	2007.28
578.54	1992.51
578.90	1977.27
579.25	1961.70
579.60	1947.58
579.95	1933.14
580.30	1918.70
580.66	1904.58
581.01	1890.12
581.36	1875.95
581.71	1862.39
582.06	1848.28
582.42	1834.31
582.77	1821.02
583.12	1807.39
583.47	1793.81
583.82	1780.39
584.17	1766.83
584.53	1753.09
584.88	1739.40
585.23	1725.32
585.58	1711.78
585.93	1698.66
586.28	1686.37
586.63	1673.87
586.98	1660.64
587.34	1647.62
587.69	1634.15
588.04	1620.99
588.39	1608.44
588.74	1595.36
589.09	1582.05
589.44	1568.71
589.79	1555.85
590.14	1542.94
590.49	1530.23
590.84	1517.36
591.19	1505.16
591.54	1492.45
591.89	1479.60
592.25	1467.09
592.60	1454.20
592.95	1441.87
593.30	1429.86
593.65	1417.59
594.00	1405.59
594.35	1394.30
594.70	1382.24
595.05	1371.25
595.40	1360.01
595.75	1348.21
596.10	1337.23
596.45	1326.46
596.80	1316.18
597.15	1305.70
597.50	1295.21
597.85	1284.92
598.19	1274.82
598.54	1264.07
598.89	1254.09
599.24	1244.39
599.59	1234.48
599.94	1225.59
600.29	1216.58
600.64	1207.33
600.99	1197.48
601.34	1188.11
601.69	1178.18
602.04	1169.29
602.39	1160.26
602.74	1151.48
603.08	1142.94
603.43	1133.94
603.78	1124.81
604.13	1115.81
604.48	1106.73
604.83	1097.92
605.18	1089.05
605.53	1080.07
605.87	1071.26
606.22	1062.69
606.57	1053.89
606.92	1045.16
607.27	1036.25
607.62	1027.46
607.96	1018.84
608.31	1011.27
608.66	1003.25
609.01	995.65
609.36	988.02
609.70	980.13
610.05	972.10
610.40	964.41
610.75	956.81
611.10	949.49
611.44	941.80
611.79	934.42
612.14	926.63
612.49	919.03
612.83	911.93
613.18	904.85
613.53	897.56
613.88	890.37
614.22	883.80
614.57	877.07
614.92	870.31
615.27	863.57
615.61	856.67
615.96	849.99
616.31	843.22
616.65	836.36
617.00	829.77
617.35	823.31
617.70	816.87
618.04	810.50
618.39	804.14
618.74	798.12
619.08	791.92
619.43	785.98
619.78	780.02
620.12	773.88
620.47	767.95
620.82	762.11
621.16	756.59
621.51	750.69
621.85	744.78
622.20	738.93
622.55	733.28
622.89	727.57
623.24	721.91
623.59	716.33
623.93	710.78
624.28	705.38
624.62	699.96
624.97	694.52
625.32	689.20
625.66	683.74
626.01	678.26
626.35	672.93
626.70	667.64
627.04	662.57
627.39	657.53
627.73	652.60
628.08	647.89
628.43	643.05
628.77	638.28
629.12	633.64
629.46	629.18
629.81	624.53
630.15	619.77
630.50	615.17
630.84	610.77
631.19	606.57
631.53	602.39
631.88	598.10
632.22	593.91
632.57	589.97
632.91	585.98
633.26	582.07
633.60	578.25
633.95	574.53
634.29	570.64
634.64	566.74
634.98	562.73
635.32	558.88
635.67	555.15
636.01	551.38
636.36	547.65
636.70	544.05
637.05	540.47
637.39	537.10
637.73	533.57
638.08	530.11
638.42	526.61
638.77	523.00
639.11	519.36
639.45	515.77
639.80	512.18
640.14	508.78
640.49	505.33
640.83	501.75
641.17	498.23
641.52	494.87
641.86	491.51
642.20	488.33
642.55	485.00
642.89	481.76
643.23	478.70
643.58	475.89
643.92	472.95
644.26	470.03
644.61	467.10
644.95	464.19
645.29	461.21
645.64	458.22
645.98	455.36
646.32	452.69
646.66	450.01
647.01	447.31
647.35	444.65
647.69	441.88
648.04	439.29
648.38	436.70
648.72	434.08
649.06	431.54
649.41	429.02
649.75	426.49
650.09	424.00
650.43	421.50
650.78	418.98
651.12	416.44
651.46	414.02
651.80	411.69
652.14	409.44
652.49	407.20
652.83	405.02
653.17	402.83
653.51	400.68
653.85	398.61
654.20	396.48
654.54	394.27
654.88	392.26
655.22	390.29
655.56	388.29
655.90	386.39
656.25	384.48
656.59	382.59
656.93	380.79
657.27	379.04
657.61	377.18
657.95	375.39
658.29	373.61
658.64	371.86
658.98	370.09
659.32	368.34
659.66	366.69
660.00	365.06
660.34	363.45
660.68	361.80
661.02	360.09
661.36	358.49
661.70	356.96
662.05	355.39
662.39	353.82
662.73	352.35
663.07	350.89
663.41	349.46
663.75	348.05
664.09	346.64
664.43	345.15
664.77	343.77
665.11	342.32
665.45	340.96
665.79	339.59
666.13	338.21
666.47	336.82
666.81	335.41
667.15	333.96
667.49	332.62
667.83	331.32
668.17	330.06
668.51	328.82
668.85	327.60
669.19	326.46
669.53	325.25
669.87	324.01
670.21	322.80
670.55	321.60
670.89	320.49
671.23	319.34
671.57	318.21
671.91	317.12
672.25	316.11
672.58	315.07
672.92	314.01
673.26	313.02
673.60	312.03
673.94	311.03
674.28	310.09
674.62	309.14
674.96	308.15
675.30	307.23
675.64	306.29
675.97	305.36
676.31	304.39
676.65	303.45
676.99	302.57
677.33	301.64
677.67	300.75
678.01	299.78
678.34	298.90
678.68	298.06
679.02	297.19
679.36	296.33
679.70	295.48
680.04	294.65
680.37	293.82
680.71	293.03
681.05	292.27
681.39	291.47
681.73	290.65
682.06	289.86
682.40	289.08
682.74	288.32
683.08	287.60
683.42	286.85
683.75	286.18
684.09	285.43
684.43	284.72
684.77	284.00
685.10	283.33
685.44	282.64
685.78	281.94
686.12	281.28
686.45	280.60
686.79	279.93
687.13	279.28
687.46	278.60
687.80	277.95
688.14	277.26
688.48	276.63
688.81	276.00
689.15	275.42
689.49	274.80
689.82	274.18
690.16	273.52
690.50	272.92
690.83	272.31
691.17	271.72
691.51	271.15
691.84	270.60
692.18	270.02
692.52	269.43
692.85	268.85
693.19	268.32
693.52	267.78
693.86	267.23
694.20	266.70
694.53	266.19
694.87	265.66
695.21	265.16
695.54	264.66
695.88	264.14
696.21	263.59
696.55	263.09
696.88	262.59
697.22	262.11
697.56	261.63
697.89	261.10
698.23	260.61
698.56	260.10
698.90	259.64
699.23	259.16
699.57	258.72
699.90	258.26
700.24	257.78
700.58	257.34
700.91	256.93
701.25	256.59
701.58	256.22
701.92	255.83
702.25	255.42
702.59	255.00
702.92	254.61
703.26	254.22
703.59	253.83
703.93	253.53
704.26	253.16
704.60	252.79
704.93	252.43
705.26	252.07
705.60	251.75
705.93	251.38
706.27	251.07
706.60	250.75
706.94	250.44
707.27	250.07
707.61	249.72
707.94	249.36
708.27	248.93
708.61	248.55
708.94	248.20
709.28	247.87
709.61	247.55
709.94	247.25
710.28	246.96
710.61	246.68
710.95	246.30
711.28	246.08
711.61	245.79
711.95	245.53
712.28	245.25
712.61	244.95
712.95	244.74
713.28	244.51
713.61	244.23
713.95	243.95
714.28	243.71
714.61	243.45
714.95	243.21
715.28	242.96
715.61	242.72
715.95	242.49
716.28	242.25
716.61	242.04
716.95	241.81
717.28	241.58
717.61	241.35
717.94	241.13
718.28	240.83
718.61	240.61
718.94	240.38
719.27	240.17
719.61	239.97
719.94	239.74
720.27	239.48
720.60	239.28
720.94	239.08
721.27	238.89
721.60	238.73
721.93	238.55
722.27	238.40
722.60	238.23
722.93	238.03
723.26	237.86
723.59	237.66
723.93	237.50
724.26	237.33
724.59	237.16
724.92	237.01
725.25	236.88
725.59	236.72
725.92	236.59
726.25	236.44
726.58	236.28
726.91	236.12
727.24	235.99
727.57	235.84
727.91	235.68
728.24	235.54
728.57	235.38
728.90	235.25
729.23	235.08
729.56	234.99
729.89	234.85
730.22	234.70
730.55	234.57
730.89	234.42
731.22	234.28
731.55	234.15
731.88	234.02
732.21	233.87
732.54	233.74
732.87	233.62
733.20	233.50
733.53	233.39
733.86	233.28
734.19	233.15
734.52	233.05
734.85	233.02
735.18	232.88
735.51	232.80
735.84	232.69
736.17	232.61
736.50	232.45
736.83	232.46
737.16	232.36
737.49	232.27
737.82	232.17
738.15	232.09
738.48	231.99
738.81	231.89
739.14	231.78
739.47	231.68
739.80	231.58
740.13	231.49
740.46	231.38
740.79	231.26
741.12	231.17
741.45	231.06
741.78	230.91
742.11	230.85
742.44	230.74
742.77	230.66
743.10	230.56
743.43	230.47
743.75	230.27
744.08	230.35
744.41	230.25
744.74	230.16
745.07	230.05
745.40	229.98
745.73	229.94
746.06	229.86
746.39	229.80
746.71	229.72
747.04	229.64
747.37	229.56
747.70	229.51
748.03	229.44
748.36	229.38
748.68	229.31
749.01	229.20
749.34	229.14
749.67	229.07
750.00	229.01
750.33	229.03
750.65	228.97
750.98	228.75
751.31	228.69
751.64	228.63
751.97	228.63
752.29	228.55
752.62	228.44
752.95	228.37
753.28	228.29
753.60	228.22
753.93	228.18
754.26	228.12
754.59	228.03
754.91	227.95
755.24	227.88
755.57	227.86
755.90	227.80
756.22	227.73
756.55	227.65
756.88	227.57
757.20	227.44
757.53	227.35
757.86	227.29
758.19	227.25
758.51	227.19
758.84	227.08
759.17	227.02
759.49	226.98
759.82	226.98
760.15	226.94
760.47	226.89
760.80	226.82
761.13	226.78
761.45	226.74
761.78	226.70
762.11	226.65
762.43	226.55
762.76	226.50
763.08	226.47
763.41	226.43
763.74	226.40
764.06	226.35
764.39	226.31
764.71	226.27
765.04	226.21
765.37	226.17
765.69	226.13
766.02	226.09
766.34	226.04
766.67	225.96
767.00	225.94
767.32	225.96
767.65	225.99
767.97	225.94
768.30	225.91
768.62	225.87
768.95	225.82
769.27	225.78
769.60	225.76
769.92	225.71
770.25	225.66
770.57	225.60
770.90	225.57
771.22	225.53
771.55	225.49
771.87	225.47
772.20	225.43
772.52	225.48
772.85	225.58
773.17	225.55
773.50	225.51
773.82	225.46
774.15	225.37
774.47	225.28
774.80	225.24
775.12	225.21
775.45	225.18
775.77	225.16
776.09	225.14
776.42	225.12
776.74	225.12
777.07	225.09
777.39	225.07
777.72	225.03
778.04	225.02
778.36	224.99
778.69	224.96
779.01	224.95
779.33	224.83
779.66	224.69
779.98	224.66
780.31	224.65
780.63	224.67
780.95	224.67
781.28	224.64
781.60	224.62
781.92	224.59
782.25	224.57
782.57	224.55
782.89	224.52
783.22	224.49
783.54	224.45
783.86	224.44
784.19	224.42
784.51	224.43
784.83	224.40
785.16	224.38
785.48	224.36
785.80	224.34
786.12	224.33
786.45	224.31
786.77	224.30
787.09	224.27
787.42	224.21
787.74	224.20
788.06	224.19
788.38	224.17
788.71	224.14
789.03	224.13
789.35	224.13
789.67	224.10
789.99	224.09
790.32	224.06
790.64	224.06
790.96	224.15
791.28	224.10
791.61	224.08
791.93	224.07
792.25	224.05
792.57	224.11
792.89	224.09
793.21	224.08
793.54	224.06
793.86	224.03
794.18	224.02
794.50	223.99
794.82	223.97
795.14	223.98
795.47	223.98
795.79	223.97
796.11	223.93
796.43	223.92
796.75	223.91
797.07	223.91
797.39	223.88
797.71	223.78
798.04	223.78
798.36	223.77
798.68	223.76
799.00	223.76
799.32	223.69
799.64	223.70
799.96	223.68
800.28	223.69
800.60	223.68
800.92	223.68
801.24	223.66
801.56	223.66
801.89	223.64
802.21	223.63
802.53	223.60
802.85	223.62
803.17	223.66
803.49	223.63
803.81	223.60
804.13	223.59
804.45	223.56
804.77	223.56
805.09	223.54
805.41	223.53
805.73	223.50
806.05	223.46
806.37	223.44
806.69	223.42
807.01	223.40
807.33	223.39
807.65	223.35
807.97	223.39
808.28	223.36
808.60	223.35
808.92	223.33
809.24	223.38
809.56	223.35
809.88	223.31
810.20	223.31
810.52	223.33
810.84	223.30
811.16	223.29
811.48	223.28
811.80	223.31
812.12	223.30
812.43	223.32
812.75	223.32
813.07	223.30
813.39	223.30
813.71	223.28
814.03	223.27
814.35	223.27
814.67	223.22
814.98	223.21
815.30	223.20
815.62	223.18
815.94	223.11
816.26	223.12
816.58	223.10
816.89	223.10
817.21	223.07
817.53	223.07
817.85	223.07
818.17	223.06
818.48	223.01
818.80	223.03
819.12	223.00
819.44	222.98
819.76	222.97
820.07	222.96
820.39	222.95
820.71	222.96
821.03	222.95
821.34	222.94
821.66	222.95
821.98	222.96
822.30	222.96
822.61	223.02
822.93	222.99
823.25	222.99
823.57	222.97
823.88	222.98
824.20	222.97
824.52	222.99
824.83	222.98
825.15	222.97
825.47	222.96
825.79	222.97
826.10	222.96
826.42	222.95
826.74	222.96
827.05	222.95
827.37	222.95
827.69	222.94
828.00	222.94
828.32	222.93
828.64	222.91
828.95	222.97
829.27	222.93
829.58	222.93
829.90	222.95
830.22	222.95
830.53	222.94
830.85	222.92
831.17	222.89
831.48	222.89
831.80	222.89
832.11	222.88
832.43	222.86
832.75	222.86
833.06	222.92
833.38	222.89
833.69	222.88
834.01	222.88
834.32	222.88
834.64	222.86
834.96	222.86
835.27	222.86
835.59	222.82
835.90	222.80
836.22	222.79
836.53	222.77
836.85	222.75
837.16	222.85
837.48	222.85
837.79	222.89
838.11	222.89
838.42	222.88
838.74	222.90
839.05	222.89
839.37	222.89
839.68	222.82
840.00	222.82
840.31	222.83
840.63	222.82
840.94	222.81
841.26	222.80
841.57	222.80
841.88	222.80
842.20	222.79
842.51	222.77
842.83	222.77
843.14	222.86
843.46	222.85
843.77	222.79
844.08	222.78
844.40	222.75
844.71	222.74
845.03	222.72
845.34	222.71
845.65	222.70
845.97	222.70
846.28	222.71
846.60	222.71
846.91	222.69
847.22	222.68
847.54	222.71
847.85	222.71
848.16	222.70
848.48	222.68
848.79	222.71
849.10	222.72
849.42	222.73
849.73	222.63
850.04	222.62
850.36	222.58
850.67	222.60
850.98	222.60
851.30	222.61
851.61	222.60
851.92	222.60
852.23	222.64
852.55	222.64
852.86	222.64
853.17	222.64
853.49	222.66
853.80	222.69
854.11	222.69
854.42	222.70
854.74	222.69
855.05	222.70
855.36	222.64
855.67	222.65
855.99	222.65
856.30	222.77
856.61	222.77
856.92	222.78
857.23	222.78
857.55	222.76
857.86	222.75
858.17	222.77
858.48	222.75
858.79	222.72
859.11	222.73
859.42	222.72
859.73	222.70
860.04	222.70
860.35	222.67
860.66	222.64
860.98	222.63
861.29	222.65
861.60	222.63
861.91	222.66
862.22	222.64
862.53	222.62
862.84	222.49
863.16	222.51
863.47	222.49
863.78	222.47
864.09	222.48
864.40	222.49
864.71	222.49
865.02	222.50
865.33	222.49
865.64	222.47
865.95	222.47
866.27	222.53
866.58	222.52
866.89	222.54
867.20	222.53
867.51	222.52
867.82	222.51
868.13	222.55
868.44	222.52
868.75	222.54
869.06	222.55
869.37	222.56
869.68	222.54
869.99	222.56
870.30	222.56
870.61	222.57
870.92	222.55
871.23	222.54
871.54	222.56
871.85	222.58
872.16	222.59
872.47	222.58
872.78	222.52
873.09	222.53
873.40	222.52
873.71	222.53
874.02	222.54
874.33	222.52
874.64	222.50
874.95	222.51
875.26	222.49
875.56	222.48
875.87	222.48
876.18	222.47
876.49	222.57
876.80	222.56
877.11	222.54
877.42	222.54
877.73	222.55
878.04	222.53
878.35	222.53
878.66	222.53
878.96	222.53
879.27	222.52
879.58	222.51
879.89	222.51
880.20	222.53
880.51	222.53
880.82	222.53
881.12	222.54
881.43	222.52
881.74	222.51
882.05	222.51
882.36	222.51
882.67	222.52
882.97	222.41
883.28	222.40
883.59	222.40
883.90	222.41
884.21	222.42
884.51	222.42
884.82	222.40
885.13	222.40
885.44	222.40
885.74	222.40
886.05	222.40
886.36	222.40
886.67	222.36
886.98	222.41
887.28	222.42
887.59	222.42
887.90	222.42
888.20	222.42
888.51	222.44
888.82	222.42
889.13	222.43
889.43	222.52
889.74	222.51
890.05	222.51
890.35	222.50
890.66	222.48
890.97	222.47
891.28	222.46
891.58	222.46
891.89	222.46
892.20	222.44
892.50	222.43
892.81	222.43
893.12	222.43
893.42	222.37
893.73	222.37
894.04	222.37
894.34	222.38
894.65	222.37
894.95	222.36
895.26	222.37
895.57	222.41
895.87	222.30
896.18	222.32
896.48	222.33
896.79	222.33
897.10	222.34
897.40	222.35
897.71	222.36
898.01	222.35
898.32	222.36
898.63	222.36
898.93	222.37
899.24	222.37
899.54	222.36
899.85	222.36
900.15	222.35
900.46	222.36
900.76	222.36
901.07	222.36
901.38	222.36
901.68	222.37
901.99	222.31
902.29	222.32
902.60	222.31
902.90	222.30
903.21	222.30
903.51	222.29
903.82	222.31
904.12	222.31
904.43	222.31
904.73	222.30
905.03	222.31
905.34	222.41
905.64	222.40
905.95	222.40
906.25	222.39
906.56	222.39
906.86	222.38
907.17	222.37
907.47	222.38
907.77	222.37
908.08	222.35
908.38	222.35
908.69	222.36
908.99	222.38
909.30	222.38
909.60	222.38
909.90	222.39
910.21	222.36
910.51	222.34
910.81	222.34
911.12	222.35
911.42	222.35
911.73	222.24
912.03	222.24
912.33	222.27
912.64	222.26
912.94	222.25
913.24	222.23
913.55	222.22
913.85	222.21
914.15	222.24
914.46	222.25
914.76	222.24
915.06	222.23
915.37	222.21
915.67	222.20
915.97	222.20
916.27	222.18
916.58	222.18
916.88	222.18
917.18	222.17
917.49	222.24
917.79	222.23
918.09	222.25
918.39	222.28
918.70	222.27
919.00	222.27
919.30	222.32
919.60	222.32
919.91	222.31
920.21	222.31
920.51	222.29
920.81	222.28
921.12	222.30
921.42	222.30
921.72	222.31
922.02	222.31
922.32	222.33
922.63	222.33
922.93	222.39
923.23	222.40
923.53	222.39
923.83	222.32
924.13	222.33
924.44	222.33
924.74	222.34
925.04	222.36
925.34	222.36
925.64	222.31
925.94	222.31
926.24	222.37
926.55	222.36
926.85	222.38
927.15	222.38
927.45	222.37
927.75	222.38
928.05	222.37
928.35	222.37
928.65	222.38
928.95	222.38
929.26	222.33
929.56	222.35
929.86	222.36
930.16	222.36
930.46	222.35
930.76	222.35
931.06	222.30
931.36	222.28
931.66	222.29
931.96	222.31
932.26	222.31
932.56	222.27
932.86	222.28
933.16	222.28
933.46	222.27
933.76	222.25
934.06	222.27
934.36	222.30
934.66	222.30
934.96	222.28
935.26	222.29
935.56	222.30
935.86	222.27
936.16	222.26
936.46	222.25
936.76	222.24
937.06	222.22
937.36	222.23
937.66	222.23
937.96	222.23
938.26	222.20
938.56	222.20
938.86	222.20
939.16	222.22
939.46	222.23
939.76	222.24
940.06	222.24
940.35	222.22
940.65	222.17
940.95	222.18
941.25	222.16
941.55	222.14
941.85	222.13
942.15	222.16
942.45	222.18
942.75	222.18
943.04	222.19
943.34	222.21
943.64	222.20
943.94	222.19
944.24	222.19
944.54	222.20
944.84	222.19
945.13	222.18
945.43	222.16
945.73	222.15
946.03	222.14
946.33	222.13
946.62	222.12
946.92	222.12
947.22	222.12
947.52	222.13
947.82	222.14
948.11	222.13
948.41	222.11
948.71	222.08
949.01	222.09
949.31	222.08
949.60	222.06
949.90	222.08
950.20	222.08
950.50	222.07
950.79	222.06
951.09	222.08
951.39	222.08
951.69	222.07
951.98	222.09
952.28	222.09
952.58	222.10
952.87	222.10
953.17	222.12
953.47	222.11
953.76	222.10
954.06	222.09
954.36	222.08
954.66	222.08
954.95	222.11
955.25	222.11
955.55	222.12
955.84	222.11
956.14	222.11
956.44	222.12
956.73	222.10
957.03	222.11
957.32	222.11
957.62	222.10
957.92	222.13
958.21	222.11
958.51	222.23
958.81	222.24
959.10	222.25
959.40	222.27
959.69	222.27
959.99	222.29
960.29	222.29
960.58	222.29
960.88	222.32
961.17	222.31
961.47	222.31
961.76	222.31
962.06	222.33
962.36	222.31
962.65	222.32
962.95	222.33
963.24	222.32
963.54	222.32
963.83	222.33
964.13	222.33
964.42	222.32
964.72	222.22
965.01	222.22
965.31	222.22
965.60	222.19
965.90	222.25
966.19	222.23
966.49	222.24
966.78	222.24
967.08	222.23
967.37	222.23
967.67	222.21
967.96	222.23
968.26	222.23
968.55	222.24
968.85	222.24
969.14	222.23
969.43	222.24
969.73	222.23
970.02	222.22
970.32	222.22
970.61	222.20
970.91	222.18
971.20	222.16
971.49	222.15
971.79	222.16
972.08	222.10
972.38	222.11
972.67	222.10
972.96	222.11
973.26	222.09
973.55	222.12
973.85	222.11
974.14	222.10
974.43	222.10
974.73	222.08
975.02	222.07
975.31	222.07
975.61	222.07
975.90	222.06
976.19	222.06
976.49	222.06
976.78	222.08
977.07	222.08
977.37	222.08
977.66	222.10
977.95	222.08
978.24	222.09
978.54	222.10
978.83	222.10
979.12	222.09
979.42	222.10
979.71	222.07
980.00	222.08
980.29	222.08
980.59	222.06
980.88	222.09
981.17	222.09
981.46	222.09
981.76	222.09
982.05	222.12
982.34	222.12
982.63	222.12
982.93	222.12
983.22	222.14
983.51	222.15
983.80	222.16
984.09	222.18
984.39	222.17
984.68	222.15
984.97	222.16
985.26	222.15
985.55	222.16
985.85	222.14
986.14	222.16
986.43	222.17
986.72	222.16
987.01	222.13
987.30	222.13
987.59	222.12
987.89	222.13
988.18	222.09
988.47	222.09
988.76	222.07
989.05	222.07
989.34	222.05
989.63	222.07
989.92	222.06
990.22	222.04
990.51	222.04
990.80	222.03
991.09	222.04
991.38	222.05
991.67	222.03
991.96	222.03
992.25	222.03
992.54	222.01
992.83	222.01
993.12	222.01
993.41	222.03
993.70	222.07
993.99	222.09
994.28	222.11
994.58	222.12
994.87	222.11
995.16	222.11
995.45	222.10
995.74	222.06
996.03	222.07
996.32	222.09
996.61	222.11
996.90	222.11
997.19	222.10
997.48	222.10
997.77	222.10
998.06	222.10
998.34	222.09
998.63	222.09
998.92	222.10
999.21	222.11
999.50	222.11
999.79	222.07
1000.08	222.07
1000.37	222.07
1000.66	222.05
1000.95	222.08
1001.24	222.08
1001.53	222.10
1001.82	222.09
1002.11	222.07
1002.40	222.08
1002.68	222.09
1002.97	222.17
1003.26	222.16
1003.55	222.14
1003.84	222.15
1004.13	222.18
1004.42	222.17
1004.71	222.17
1004.99	222.16
1005.28	222.18
1005.57	222.17
1005.86	222.16
1006.15	222.15
1006.44	222.14
1006.72	222.16
1007.01	222.14
1007.30	222.14
1007.59	222.13
1007.88	222.13
1008.17	222.13
1008.45	222.11
1008.74	222.07
1009.03	222.02
1009.32	222.03
1009.60	222.03
1009.89	222.02
1010.18	221.98
1010.47	221.97
1010.76	221.97
1011.04	221.97
1011.33	221.97
1011.62	221.97
1011.91	221.98
1012.19	221.99
1012.48	221.99
1012.77	221.98
1013.05	222.02
1013.34	222.02
1013.63	222.01
1013.92	222.02
1014.20	222.02
1014.49	222.02
1014.78	222.03
1015.06	222.00
1015.35	222.00
1015.64	222.01
1015.92	222.03
1016.21	222.03
1016.50	222.04
1016.78	222.05
1017.07	222.05
1017.36	222.04
1017.64	222.02
1017.93	222.03
1018.22	222.02
1018.50	222.02
1018.79	222.01
1019.08	221.98
1019.36	221.98
1019.65	221.97
1019.93	222.00
1020.22	222.01
1020.51	222.07
1020.79	222.05
1021.08	221.87
1021.36	221.88
1021.65	221.98
1021.94	222.01
1022.22	222.09
1022.51	221.85
1022.79	222.54
1023.08	222.07
1023.36	223.30
1023.65	221.74
>>>>>End Processed Spectral Data<<<<<
