SpectraSuite Data File
++++++++++++++++++++++++++++++++++++
Date: Wed Sep 30 14:24:57 EDT 2015
User: lab3
Dark Spectrum Present: No
Reference Spectrum Present: No
Number of Sampled Component Spectra: 1
Spectrometers: USB2E7196
Integration Time (usec): 36000 (USB2E7196)
Spectra Averaged: 1500 (USB2E7196)
Boxcar Smoothing: 10 (USB2E7196)
Correct for Electrical Dark: No (USB2E7196)
Strobe/Lamp Enabled: No (USB2E7196)
Correct for Detector Non-linearity: No (USB2E7196)
Correct for Stray Light: No (USB2E7196)
Number of Pixels in Processed Spectrum: 2048
>>>>>Begin Processed Spectral Data<<<<<
339.09	0.00
339.48	211.22
339.86	212.47
340.24	213.99
340.63	215.39
341.01	218.48
341.39	218.14
341.78	219.46
342.16	220.72
342.54	221.20
342.93	209.67
343.31	220.25
343.69	220.80
344.07	221.26
344.46	221.68
344.84	222.07
345.22	222.30
345.60	222.55
345.99	222.74
346.37	222.88
346.75	222.98
347.13	223.04
347.52	223.11
347.90	223.19
348.28	223.23
348.66	223.28
349.05	223.28
349.43	223.33
349.81	223.38
350.19	223.43
350.57	223.50
350.96	223.57
351.34	223.67
351.72	223.75
352.10	223.86
352.48	223.93
352.87	223.98
353.25	224.04
353.63	224.09
354.01	224.15
354.39	224.22
354.77	224.29
355.15	224.40
355.54	224.45
355.92	224.48
356.30	224.56
356.68	224.69
357.06	224.77
357.44	224.82
357.82	224.87
358.20	224.98
358.58	225.04
358.97	225.11
359.35	225.18
359.73	225.26
360.11	225.30
360.49	225.36
360.87	225.42
361.25	225.47
361.63	225.55
362.01	225.61
362.39	225.63
362.77	225.68
363.15	225.71
363.53	225.74
363.91	225.76
364.29	225.79
364.67	225.71
365.05	225.74
365.43	225.77
365.81	225.80
366.19	225.82
366.57	225.86
366.95	225.85
367.33	225.83
367.71	225.82
368.09	225.84
368.47	225.82
368.85	225.80
369.23	225.81
369.61	225.76
369.99	225.77
370.37	225.76
370.75	225.81
371.13	225.78
371.51	225.73
371.89	225.71
372.27	225.67
372.65	225.64
373.03	225.60
373.41	225.55
373.78	225.50
374.16	225.40
374.54	225.33
374.92	225.28
375.30	225.25
375.68	225.19
376.06	225.14
376.44	225.09
376.82	225.05
377.19	224.98
377.57	224.94
377.95	224.85
378.33	224.80
378.71	224.65
379.09	224.61
379.47	224.58
379.84	224.52
380.22	224.47
380.60	224.40
380.98	224.35
381.36	224.31
381.73	224.25
382.11	224.23
382.49	224.18
382.87	224.13
383.25	224.07
383.62	224.15
384.00	224.09
384.38	224.05
384.76	224.04
385.13	224.04
385.51	224.00
385.89	223.95
386.27	223.91
386.64	223.89
387.02	223.83
387.40	223.78
387.78	223.75
388.15	223.73
388.53	223.69
388.91	223.67
389.29	223.63
389.66	223.61
390.04	223.58
390.42	223.57
390.79	223.55
391.17	223.53
391.55	223.39
391.92	223.38
392.30	223.37
392.68	223.33
393.05	223.30
393.43	223.30
393.81	223.30
394.18	223.28
394.56	223.29
394.94	223.32
395.31	223.33
395.69	223.37
396.06	223.39
396.44	223.41
396.82	223.42
397.19	223.50
397.57	223.51
397.95	223.54
398.32	223.54
398.70	223.58
399.07	223.64
399.45	223.67
399.82	223.71
400.20	223.75
400.58	223.80
400.95	223.82
401.33	223.89
401.70	224.03
402.08	224.11
402.45	224.18
402.83	224.28
403.20	224.38
403.58	224.46
403.95	224.59
404.33	224.71
404.71	224.83
405.08	225.01
405.46	225.16
405.83	225.33
406.21	225.50
406.58	225.70
406.96	225.89
407.33	226.10
407.70	226.34
408.08	226.65
408.45	226.94
408.83	227.24
409.20	227.52
409.58	227.78
409.95	228.13
410.33	228.51
410.70	228.87
411.08	229.28
411.45	229.73
411.82	230.17
412.20	230.69
412.57	231.29
412.95	231.77
413.32	232.39
413.69	233.02
414.07	233.69
414.44	234.42
414.82	235.16
415.19	236.04
415.56	236.93
415.94	237.85
416.31	238.89
416.68	239.94
417.06	241.16
417.43	242.28
417.81	243.59
418.18	244.92
418.55	246.36
418.93	247.86
419.30	249.43
419.67	251.11
420.04	252.82
420.42	254.63
420.79	256.70
421.16	258.81
421.54	260.94
421.91	263.18
422.28	265.51
422.66	268.02
423.03	270.41
423.40	272.93
423.77	275.63
424.15	278.41
424.52	281.28
424.89	284.38
425.26	287.47
425.64	290.33
426.01	293.55
426.38	296.86
426.75	300.27
427.13	303.76
427.50	307.43
427.87	311.25
428.24	315.10
428.61	318.80
428.99	322.78
429.36	327.14
429.73	331.31
430.10	335.46
430.47	339.71
430.85	344.09
431.22	348.75
431.59	353.52
431.96	358.18
432.33	363.36
432.70	368.28
433.08	374.10
433.45	379.59
433.82	384.99
434.19	391.03
434.56	396.96
434.93	402.69
435.30	408.34
435.68	414.67
436.05	420.86
436.42	427.05
436.79	432.69
437.16	438.82
437.53	445.35
437.90	451.89
438.27	458.27
438.64	465.15
439.01	471.38
439.38	477.11
439.75	482.58
440.13	488.80
440.50	494.72
440.87	499.41
441.24	504.53
441.61	510.15
441.98	514.26
442.35	519.19
442.72	524.21
443.09	528.98
443.46	532.03
443.83	534.31
444.20	536.19
444.57	538.94
444.94	540.52
445.31	542.19
445.68	543.62
446.05	544.65
446.42	544.46
446.79	544.17
447.16	543.89
447.53	543.66
447.90	541.78
448.27	540.00
448.64	537.22
449.01	535.41
449.37	531.50
449.74	527.93
450.11	523.32
450.48	518.27
450.85	513.19
451.22	508.91
451.59	504.64
451.96	500.80
452.33	495.21
452.70	490.20
453.07	484.11
453.43	478.03
453.80	472.14
454.17	466.45
454.54	461.13
454.91	455.19
455.28	449.59
455.65	444.31
456.02	438.70
456.38	434.18
456.75	428.32
457.12	423.62
457.49	418.91
457.86	414.39
458.23	410.43
458.59	406.05
458.96	401.55
459.33	397.64
459.70	393.64
460.07	390.62
460.43	387.06
460.80	383.71
461.17	380.79
461.54	377.62
461.91	374.64
462.27	371.62
462.64	369.14
463.01	366.31
463.38	363.45
463.74	360.86
464.11	358.56
464.48	356.49
464.85	354.25
465.21	352.49
465.58	350.59
465.95	348.39
466.32	346.66
466.68	344.96
467.05	343.21
467.42	341.53
467.78	339.71
468.15	338.03
468.52	336.79
468.88	335.16
469.25	333.66
469.62	332.47
469.98	331.21
470.35	330.08
470.72	329.06
471.08	328.03
471.45	327.19
471.82	326.21
472.18	325.19
472.55	324.57
472.92	323.79
473.28	323.16
473.65	322.52
474.02	321.91
474.38	321.39
474.75	321.12
475.11	320.71
475.48	320.55
475.85	320.38
476.21	320.35
476.58	320.35
476.94	320.56
477.31	320.69
477.67	320.82
478.04	321.09
478.41	321.41
478.77	321.87
479.14	322.17
479.50	322.74
479.87	323.44
480.23	324.13
480.60	324.82
480.96	325.53
481.33	326.50
481.69	327.47
482.06	328.43
482.42	329.36
482.79	330.47
483.15	331.75
483.52	333.20
483.88	334.57
484.25	336.05
484.61	337.58
484.98	339.22
485.34	341.06
485.71	342.97
486.07	345.02
486.44	347.06
486.80	349.34
487.17	351.63
487.53	354.15
487.90	356.75
488.26	359.55
488.62	362.52
488.99	365.53
489.35	368.67
489.72	372.09
490.08	375.64
490.44	379.28
490.81	383.10
491.17	386.99
491.54	391.15
491.90	395.39
492.26	399.92
492.63	404.72
492.99	409.72
493.36	414.87
493.72	420.31
494.08	425.89
494.45	431.77
494.81	437.89
495.17	444.11
495.54	450.73
495.90	457.70
496.26	464.79
496.63	472.04
496.99	479.60
497.35	487.47
497.72	495.63
498.08	504.01
498.44	512.60
498.80	521.73
499.17	531.15
499.53	540.88
499.89	550.87
500.26	561.04
500.62	571.42
500.98	582.46
501.34	593.61
501.71	605.29
502.07	617.18
502.43	629.47
502.79	642.19
503.16	655.26
503.52	668.43
503.88	682.07
504.24	696.12
504.60	710.36
504.97	725.03
505.33	740.05
505.69	755.78
506.05	771.82
506.41	788.02
506.78	804.51
507.14	821.50
507.50	838.87
507.86	856.57
508.22	874.54
508.59	892.60
508.95	911.27
509.31	930.41
509.67	950.28
510.03	970.35
510.39	990.48
510.75	1010.78
511.12	1031.40
511.48	1052.25
511.84	1073.40
512.20	1094.80
512.56	1117.02
512.92	1139.41
513.28	1161.76
513.64	1184.39
514.00	1207.37
514.37	1230.88
514.73	1254.33
515.09	1277.59
515.45	1301.07
515.81	1324.80
516.17	1348.67
516.53	1372.39
516.89	1395.92
517.25	1419.46
517.61	1443.14
517.97	1467.17
518.33	1491.21
518.69	1515.39
519.05	1539.83
519.41	1564.26
519.77	1589.07
520.13	1613.16
520.49	1637.21
520.85	1661.26
521.21	1685.32
521.57	1709.95
521.93	1733.71
522.29	1757.92
522.65	1781.99
523.01	1806.05
523.37	1829.58
523.73	1853.72
524.09	1877.62
524.45	1901.54
524.81	1925.29
525.17	1948.60
525.53	1971.64
525.89	1994.56
526.25	2017.51
526.61	2039.04
526.97	2060.93
527.33	2082.53
527.68	2104.13
528.04	2125.40
528.40	2146.57
528.76	2167.29
529.12	2187.42
529.48	2208.15
529.84	2226.86
530.20	2246.12
530.56	2264.78
530.91	2284.12
531.27	2302.81
531.63	2320.83
531.99	2338.40
532.35	2355.54
532.71	2373.47
533.07	2391.54
533.42	2407.98
533.78	2424.89
534.14	2442.34
534.50	2458.88
534.86	2475.89
535.21	2490.74
535.57	2505.57
535.93	2519.95
536.29	2533.79
536.65	2547.02
537.00	2559.13
537.36	2572.25
537.72	2584.10
538.08	2595.97
538.44	2606.54
538.79	2616.50
539.15	2625.52
539.51	2634.56
539.87	2642.47
540.22	2647.95
540.58	2653.65
540.94	2660.04
541.29	2665.31
541.65	2670.29
542.01	2674.97
542.37	2677.61
542.72	2681.93
543.08	2685.19
543.44	2688.05
543.79	2690.31
544.15	2692.09
544.51	2693.44
544.87	2694.76
545.22	2695.50
545.58	2695.25
545.94	2694.94
546.29	2693.53
546.65	2692.33
547.01	2690.98
547.36	2690.15
547.72	2689.70
548.07	2687.94
548.43	2684.67
548.79	2681.10
549.14	2677.62
549.50	2674.28
549.86	2670.83
550.21	2666.06
550.57	2661.74
550.92	2656.30
551.28	2650.78
551.64	2645.15
551.99	2639.63
552.35	2632.93
552.70	2626.59
553.06	2620.98
553.41	2614.90
553.77	2608.75
554.13	2602.58
554.48	2594.97
554.84	2586.50
555.19	2577.97
555.55	2568.84
555.90	2560.90
556.26	2553.17
556.61	2544.45
556.97	2534.36
557.32	2524.52
557.68	2514.80
558.03	2504.73
558.39	2495.58
558.74	2487.07
559.10	2477.28
559.45	2467.33
559.81	2457.86
560.16	2447.78
560.52	2437.24
560.87	2427.06
561.23	2416.25
561.58	2406.01
561.94	2395.71
562.29	2385.00
562.64	2374.82
563.00	2364.78
563.35	2354.61
563.71	2343.53
564.06	2332.79
564.42	2322.40
564.77	2311.81
565.12	2301.20
565.48	2290.15
565.83	2278.61
566.19	2266.90
566.54	2255.81
566.89	2243.87
567.25	2231.89
567.60	2220.95
567.96	2209.41
568.31	2196.96
568.66	2185.03
569.02	2173.18
569.37	2161.84
569.72	2151.22
570.08	2139.47
570.43	2127.51
570.78	2115.23
571.14	2103.09
571.49	2090.49
571.84	2078.20
572.20	2065.00
572.55	2051.92
572.90	2039.46
573.26	2027.31
573.61	2014.21
573.96	2001.47
574.31	1989.17
574.67	1976.94
575.02	1963.62
575.37	1950.37
575.72	1937.48
576.08	1924.57
576.43	1911.28
576.78	1897.85
577.13	1884.16
577.49	1870.87
577.84	1857.79
578.19	1844.70
578.54	1831.36
578.90	1817.87
579.25	1804.07
579.60	1791.54
579.95	1779.02
580.30	1766.27
580.66	1753.02
581.01	1739.88
581.36	1726.42
581.71	1713.45
582.06	1700.58
582.42	1687.97
582.77	1675.47
583.12	1663.23
583.47	1651.30
583.82	1638.81
584.17	1625.65
584.53	1612.87
584.88	1600.28
585.23	1587.49
585.58	1574.87
585.93	1562.53
586.28	1550.81
586.63	1539.03
586.98	1526.70
587.34	1514.55
587.69	1501.83
588.04	1489.60
588.39	1477.79
588.74	1465.77
589.09	1454.09
589.44	1441.67
589.79	1429.53
590.14	1417.50
590.49	1405.40
590.84	1393.34
591.19	1382.06
591.54	1370.78
591.89	1359.22
592.25	1348.13
592.60	1336.75
592.95	1325.67
593.30	1314.55
593.65	1303.53
594.00	1292.64
594.35	1282.25
594.70	1271.10
595.05	1260.86
595.40	1250.22
595.75	1239.44
596.10	1229.27
596.45	1218.76
596.80	1208.97
597.15	1199.23
597.50	1189.55
597.85	1180.21
598.19	1170.84
598.54	1161.07
598.89	1151.96
599.24	1143.14
599.59	1134.22
599.94	1125.90
600.29	1117.26
600.64	1108.68
600.99	1099.48
601.34	1090.76
601.69	1081.88
602.04	1073.85
602.39	1065.42
602.74	1057.58
603.08	1049.94
603.43	1042.07
603.78	1034.12
604.13	1026.25
604.48	1018.22
604.83	1010.39
605.18	1002.37
605.53	994.25
605.87	986.29
606.22	978.57
606.57	970.60
606.92	962.50
607.27	954.60
607.62	946.97
607.96	939.46
608.31	932.90
608.66	926.09
609.01	919.28
609.36	912.44
609.70	905.63
610.05	898.66
610.40	891.75
610.75	884.71
611.10	878.16
611.44	871.35
611.79	864.85
612.14	858.16
612.49	851.38
612.83	845.16
613.18	839.00
613.53	832.90
613.88	826.92
614.22	821.17
614.57	815.22
614.92	809.35
615.27	803.48
615.61	797.22
615.96	791.09
616.31	785.16
616.65	779.02
617.00	773.00
617.35	767.04
617.70	761.23
618.04	755.55
618.39	749.68
618.74	744.14
619.08	738.48
619.43	733.00
619.78	727.63
620.12	722.05
620.47	716.65
620.82	711.26
621.16	705.97
621.51	700.57
621.85	695.25
622.20	689.83
622.55	684.50
622.89	679.27
623.24	674.22
623.59	669.24
623.93	664.49
624.28	659.88
624.62	655.23
624.97	650.51
625.32	645.88
625.66	641.05
626.01	636.26
626.35	631.57
626.70	626.87
627.04	622.45
627.39	618.04
627.73	613.65
628.08	609.32
628.43	604.98
628.77	600.73
629.12	596.55
629.46	592.51
629.81	588.39
630.15	584.32
630.50	580.32
630.84	576.34
631.19	572.44
631.53	568.67
631.88	564.85
632.22	560.98
632.57	557.39
632.91	553.81
633.26	550.24
633.60	546.68
633.95	543.22
634.29	539.66
634.64	536.15
634.98	532.54
635.32	529.06
635.67	525.82
636.01	522.55
636.36	519.28
636.70	516.16
637.05	513.06
637.39	509.98
637.73	506.71
638.08	503.55
638.42	500.46
638.77	497.20
639.11	493.91
639.45	490.75
639.80	487.54
640.14	484.52
640.49	481.51
640.83	478.45
641.17	475.47
641.52	472.48
641.86	469.43
642.20	466.57
642.55	463.56
642.89	460.58
643.23	457.74
643.58	455.10
643.92	452.35
644.26	449.63
644.61	446.95
644.95	444.35
645.29	441.63
645.64	438.85
645.98	436.19
646.32	433.66
646.66	431.14
647.01	428.67
647.35	426.32
647.69	423.85
648.04	421.48
648.38	419.07
648.72	416.71
649.06	414.42
649.41	412.17
649.75	409.96
650.09	407.71
650.43	405.50
650.78	403.23
651.12	400.97
651.46	398.79
651.80	396.71
652.14	394.64
652.49	392.64
652.83	390.68
653.17	388.75
653.51	386.88
653.85	385.06
654.20	383.18
654.54	381.17
654.88	379.26
655.22	377.41
655.56	375.61
655.90	373.84
656.25	372.10
656.59	370.35
656.93	368.71
657.27	367.13
657.61	365.45
657.95	363.83
658.29	362.27
658.64	360.73
658.98	359.07
659.32	357.41
659.66	355.86
660.00	354.34
660.34	352.82
660.68	351.31
661.02	349.71
661.36	348.19
661.70	346.74
662.05	345.33
662.39	343.93
662.73	342.59
663.07	341.31
663.41	340.03
663.75	338.77
664.09	337.49
664.43	336.12
664.77	334.83
665.11	333.47
665.45	332.18
665.79	330.91
666.13	329.73
666.47	328.56
666.81	327.35
667.15	326.10
667.49	324.91
667.83	323.75
668.17	322.63
668.51	321.54
668.85	320.47
669.19	319.42
669.53	318.28
669.87	317.09
670.21	315.98
670.55	314.89
670.89	313.87
671.23	312.81
671.57	311.80
671.91	310.86
672.25	309.96
672.58	309.06
672.92	308.11
673.26	307.21
673.60	306.32
673.94	305.42
674.28	304.57
674.62	303.70
674.96	302.80
675.30	301.98
675.64	301.13
675.97	300.28
676.31	299.43
676.65	298.63
676.99	297.92
677.33	297.09
677.67	296.30
678.01	295.44
678.34	294.65
678.68	293.89
679.02	293.10
679.36	292.33
679.70	291.54
680.04	290.77
680.37	290.00
680.71	289.27
681.05	288.57
681.39	287.86
681.73	287.15
682.06	286.45
682.40	285.74
682.74	285.08
683.08	284.43
683.42	283.76
683.75	283.13
684.09	282.42
684.43	281.79
684.77	281.13
685.10	280.52
685.44	279.89
685.78	279.28
686.12	278.69
686.45	278.09
686.79	277.47
687.13	276.89
687.46	276.27
687.80	275.67
688.14	275.07
688.48	274.49
688.81	273.92
689.15	273.38
689.49	272.80
689.82	272.22
690.16	271.58
690.50	271.00
690.83	270.44
691.17	269.86
691.51	269.30
691.84	268.79
692.18	268.23
692.52	267.67
692.85	267.14
693.19	266.62
693.52	266.10
693.86	265.59
694.20	265.08
694.53	264.59
694.87	264.09
695.21	263.57
695.54	263.08
695.88	262.56
696.21	262.05
696.55	261.57
696.88	261.10
697.22	260.65
697.56	260.22
697.89	259.76
698.23	259.34
698.56	258.90
698.90	258.50
699.23	258.07
699.57	257.68
699.90	257.26
700.24	256.83
700.58	256.43
700.91	256.07
701.25	255.76
701.58	255.41
701.92	255.05
702.25	254.67
702.59	254.28
702.92	253.92
703.26	253.55
703.59	253.18
703.93	252.91
704.26	252.57
704.60	252.21
704.93	251.84
705.26	251.47
705.60	251.15
705.93	250.77
706.27	250.48
706.60	250.17
706.94	249.87
707.27	249.53
707.61	249.20
707.94	248.85
708.27	248.45
708.61	248.09
708.94	247.77
709.28	247.47
709.61	247.19
709.94	246.91
710.28	246.65
710.61	246.39
710.95	246.03
711.28	245.81
711.61	245.54
711.95	245.31
712.28	245.04
712.61	244.75
712.95	244.56
713.28	244.33
713.61	244.05
713.95	243.77
714.28	243.54
714.61	243.27
714.95	243.03
715.28	242.79
715.61	242.55
715.95	242.34
716.28	242.12
716.61	241.92
716.95	241.68
717.28	241.46
717.61	241.24
717.94	241.02
718.28	240.76
718.61	240.56
718.94	240.34
719.27	240.15
719.61	239.97
719.94	239.75
720.27	239.50
720.60	239.31
720.94	239.12
721.27	238.94
721.60	238.79
721.93	238.62
722.27	238.48
722.60	238.30
722.93	238.10
723.26	237.93
723.59	237.73
723.93	237.58
724.26	237.43
724.59	237.27
724.92	237.11
725.25	236.97
725.59	236.81
725.92	236.68
726.25	236.54
726.58	236.39
726.91	236.24
727.24	236.11
727.57	235.96
727.91	235.80
728.24	235.67
728.57	235.52
728.90	235.38
729.23	235.21
729.56	235.13
729.89	235.00
730.22	234.85
730.55	234.72
730.89	234.59
731.22	234.45
731.55	234.31
731.88	234.18
732.21	234.04
732.54	233.92
732.87	233.80
733.20	233.70
733.53	233.59
733.86	233.49
734.19	233.35
734.52	233.27
734.85	233.23
735.18	233.11
735.51	233.03
735.84	232.93
736.17	232.86
736.50	232.70
736.83	232.72
737.16	232.63
737.49	232.55
737.82	232.44
738.15	232.37
738.48	232.27
738.81	232.18
739.14	232.08
739.47	231.98
739.80	231.87
740.13	231.79
740.46	231.68
740.79	231.56
741.12	231.46
741.45	231.34
741.78	231.20
742.11	231.14
742.44	231.03
742.77	230.95
743.10	230.84
743.43	230.76
743.75	230.57
744.08	230.64
744.41	230.55
744.74	230.47
745.07	230.36
745.40	230.31
745.73	230.27
746.06	230.19
746.39	230.14
746.71	230.06
747.04	229.97
747.37	229.90
747.70	229.85
748.03	229.80
748.36	229.76
748.68	229.69
749.01	229.59
749.34	229.53
749.67	229.48
750.00	229.43
750.33	229.44
750.65	229.40
750.98	229.20
751.31	229.14
751.64	229.09
751.97	229.09
752.29	229.01
752.62	228.91
752.95	228.85
753.28	228.77
753.60	228.71
753.93	228.68
754.26	228.64
754.59	228.55
754.91	228.48
755.24	228.41
755.57	228.40
755.90	228.35
756.22	228.28
756.55	228.21
756.88	228.13
757.20	228.02
757.53	227.93
757.86	227.87
758.19	227.82
758.51	227.75
758.84	227.65
759.17	227.60
759.49	227.56
759.82	227.56
760.15	227.52
760.47	227.47
760.80	227.40
761.13	227.36
761.45	227.31
761.78	227.27
762.11	227.23
762.43	227.13
762.76	227.08
763.08	227.05
763.41	227.01
763.74	226.98
764.06	226.93
764.39	226.89
764.71	226.85
765.04	226.81
765.37	226.77
765.69	226.74
766.02	226.70
766.34	226.65
766.67	226.57
767.00	226.54
767.32	226.56
767.65	226.58
767.97	226.53
768.30	226.50
768.62	226.48
768.95	226.43
769.27	226.39
769.60	226.37
769.92	226.32
770.25	226.27
770.57	226.21
770.90	226.17
771.22	226.13
771.55	226.09
771.87	226.07
772.20	226.03
772.52	226.08
772.85	226.18
773.17	226.14
773.50	226.11
773.82	226.07
774.15	225.98
774.47	225.88
774.80	225.85
775.12	225.83
775.45	225.79
775.77	225.77
776.09	225.76
776.42	225.73
776.74	225.74
777.07	225.71
777.39	225.69
777.72	225.66
778.04	225.65
778.36	225.63
778.69	225.59
779.01	225.58
779.33	225.46
779.66	225.32
779.98	225.30
780.31	225.28
780.63	225.30
780.95	225.31
781.28	225.30
781.60	225.26
781.92	225.23
782.25	225.22
782.57	225.19
782.89	225.17
783.22	225.13
783.54	225.09
783.86	225.08
784.19	225.06
784.51	225.07
784.83	225.04
785.16	225.01
785.48	225.00
785.80	224.98
786.12	224.97
786.45	224.95
786.77	224.94
787.09	224.92
787.42	224.85
787.74	224.83
788.06	224.82
788.38	224.81
788.71	224.79
789.03	224.77
789.35	224.77
789.67	224.74
789.99	224.73
790.32	224.72
790.64	224.72
790.96	224.79
791.28	224.74
791.61	224.72
791.93	224.72
792.25	224.70
792.57	224.76
792.89	224.74
793.21	224.74
793.54	224.70
793.86	224.68
794.18	224.66
794.50	224.63
794.82	224.62
795.14	224.61
795.47	224.62
795.79	224.61
796.11	224.58
796.43	224.58
796.75	224.56
797.07	224.55
797.39	224.53
797.71	224.43
798.04	224.43
798.36	224.43
798.68	224.41
799.00	224.40
799.32	224.34
799.64	224.35
799.96	224.34
800.28	224.35
800.60	224.32
800.92	224.32
801.24	224.30
801.56	224.29
801.89	224.27
802.21	224.27
802.53	224.23
802.85	224.24
803.17	224.28
803.49	224.25
803.81	224.23
804.13	224.20
804.45	224.17
804.77	224.17
805.09	224.15
805.41	224.14
805.73	224.11
806.05	224.07
806.37	224.05
806.69	224.03
807.01	224.02
807.33	224.02
807.65	223.97
807.97	224.01
808.28	223.99
808.60	223.98
808.92	223.96
809.24	224.01
809.56	223.99
809.88	223.94
810.20	223.95
810.52	223.96
810.84	223.95
811.16	223.94
811.48	223.91
811.80	223.94
812.12	223.93
812.43	223.94
812.75	223.95
813.07	223.93
813.39	223.93
813.71	223.90
814.03	223.89
814.35	223.90
814.67	223.85
814.98	223.84
815.30	223.83
815.62	223.81
815.94	223.74
816.26	223.74
816.58	223.72
816.89	223.70
817.21	223.68
817.53	223.68
817.85	223.68
818.17	223.68
818.48	223.63
818.80	223.65
819.12	223.62
819.44	223.60
819.76	223.59
820.07	223.58
820.39	223.57
820.71	223.58
821.03	223.58
821.34	223.56
821.66	223.57
821.98	223.58
822.30	223.57
822.61	223.63
822.93	223.61
823.25	223.61
823.57	223.61
823.88	223.62
824.20	223.62
824.52	223.64
824.83	223.63
825.15	223.61
825.47	223.60
825.79	223.60
826.10	223.59
826.42	223.59
826.74	223.59
827.05	223.59
827.37	223.59
827.69	223.58
828.00	223.59
828.32	223.59
828.64	223.57
828.95	223.63
829.27	223.59
829.58	223.59
829.90	223.60
830.22	223.61
830.53	223.59
830.85	223.58
831.17	223.54
831.48	223.54
831.80	223.56
832.11	223.55
832.43	223.53
832.75	223.52
833.06	223.58
833.38	223.55
833.69	223.53
834.01	223.53
834.32	223.52
834.64	223.50
834.96	223.50
835.27	223.50
835.59	223.45
835.90	223.44
836.22	223.44
836.53	223.41
836.85	223.39
837.16	223.50
837.48	223.49
837.79	223.53
838.11	223.53
838.42	223.53
838.74	223.53
839.05	223.53
839.37	223.52
839.68	223.46
840.00	223.46
840.31	223.48
840.63	223.46
840.94	223.45
841.26	223.43
841.57	223.43
841.88	223.43
842.20	223.42
842.51	223.39
842.83	223.39
843.14	223.48
843.46	223.48
843.77	223.40
844.08	223.39
844.40	223.35
844.71	223.34
845.03	223.33
845.34	223.32
845.65	223.32
845.97	223.33
846.28	223.33
846.60	223.33
846.91	223.32
847.22	223.32
847.54	223.35
847.85	223.36
848.16	223.35
848.48	223.33
848.79	223.37
849.10	223.38
849.42	223.39
849.73	223.29
850.04	223.29
850.36	223.26
850.67	223.27
850.98	223.27
851.30	223.27
851.61	223.26
851.92	223.26
852.23	223.29
852.55	223.29
852.86	223.29
853.17	223.30
853.49	223.32
853.80	223.34
854.11	223.33
854.42	223.35
854.74	223.33
855.05	223.33
855.36	223.28
855.67	223.28
855.99	223.26
856.30	223.38
856.61	223.37
856.92	223.38
857.23	223.38
857.55	223.37
857.86	223.37
858.17	223.39
858.48	223.37
858.79	223.34
859.11	223.34
859.42	223.33
859.73	223.32
860.04	223.31
860.35	223.28
860.66	223.25
860.98	223.24
861.29	223.26
861.60	223.25
861.91	223.27
862.22	223.25
862.53	223.24
862.84	223.13
863.16	223.15
863.47	223.13
863.78	223.11
864.09	223.12
864.40	223.13
864.71	223.12
865.02	223.14
865.33	223.13
865.64	223.12
865.95	223.12
866.27	223.18
866.58	223.18
866.89	223.19
867.20	223.19
867.51	223.17
867.82	223.17
868.13	223.20
868.44	223.18
868.75	223.20
869.06	223.21
869.37	223.22
869.68	223.20
869.99	223.23
870.30	223.23
870.61	223.24
870.92	223.22
871.23	223.22
871.54	223.23
871.85	223.26
872.16	223.26
872.47	223.25
872.78	223.19
873.09	223.20
873.40	223.18
873.71	223.19
874.02	223.20
874.33	223.18
874.64	223.15
874.95	223.18
875.26	223.15
875.56	223.15
875.87	223.13
876.18	223.12
876.49	223.22
876.80	223.22
877.11	223.20
877.42	223.20
877.73	223.19
878.04	223.18
878.35	223.18
878.66	223.18
878.96	223.18
879.27	223.18
879.58	223.17
879.89	223.17
880.20	223.20
880.51	223.19
880.82	223.21
881.12	223.21
881.43	223.18
881.74	223.17
882.05	223.17
882.36	223.17
882.67	223.19
882.97	223.07
883.28	223.06
883.59	223.07
883.90	223.09
884.21	223.11
884.51	223.10
884.82	223.08
885.13	223.09
885.44	223.09
885.74	223.10
886.05	223.10
886.36	223.10
886.67	223.06
886.98	223.11
887.28	223.12
887.59	223.13
887.90	223.13
888.20	223.13
888.51	223.15
888.82	223.13
889.13	223.13
889.43	223.23
889.74	223.22
890.05	223.21
890.35	223.20
890.66	223.17
890.97	223.15
891.28	223.15
891.58	223.15
891.89	223.15
892.20	223.14
892.50	223.12
892.81	223.12
893.12	223.12
893.42	223.06
893.73	223.06
894.04	223.07
894.34	223.07
894.65	223.08
894.95	223.07
895.26	223.07
895.57	223.11
895.87	222.99
896.18	223.02
896.48	223.02
896.79	223.01
897.10	223.03
897.40	223.04
897.71	223.05
898.01	223.04
898.32	223.04
898.63	223.04
898.93	223.04
899.24	223.05
899.54	223.05
899.85	223.05
900.15	223.05
900.46	223.03
900.76	223.04
901.07	223.04
901.38	223.03
901.68	223.05
901.99	223.00
902.29	223.01
902.60	222.99
902.90	222.99
903.21	222.99
903.51	222.97
903.82	222.99
904.12	222.99
904.43	222.99
904.73	222.99
905.03	223.00
905.34	223.10
905.64	223.09
905.95	223.08
906.25	223.08
906.56	223.08
906.86	223.09
907.17	223.07
907.47	223.08
907.77	223.07
908.08	223.04
908.38	223.05
908.69	223.07
908.99	223.08
909.30	223.09
909.60	223.09
909.90	223.10
910.21	223.07
910.51	223.06
910.81	223.07
911.12	223.07
911.42	223.06
911.73	222.96
912.03	222.97
912.33	222.99
912.64	222.98
912.94	222.97
913.24	222.95
913.55	222.94
913.85	222.95
914.15	222.96
914.46	222.97
914.76	222.96
915.06	222.95
915.37	222.93
915.67	222.92
915.97	222.92
916.27	222.89
916.58	222.90
916.88	222.90
917.18	222.88
917.49	222.95
917.79	222.94
918.09	222.95
918.39	222.97
918.70	222.96
919.00	222.97
919.30	223.02
919.60	223.01
919.91	223.00
920.21	223.00
920.51	222.98
920.81	222.97
921.12	222.98
921.42	222.97
921.72	222.99
922.02	223.00
922.32	223.01
922.63	223.00
922.93	223.05
923.23	223.05
923.53	223.05
923.83	222.98
924.13	223.00
924.44	223.00
924.74	223.02
925.04	223.03
925.34	223.03
925.64	222.98
925.94	222.99
926.24	223.05
926.55	223.04
926.85	223.05
927.15	223.05
927.45	223.06
927.75	223.05
928.05	223.04
928.35	223.04
928.65	223.05
928.95	223.07
929.26	223.03
929.56	223.05
929.86	223.05
930.16	223.05
930.46	223.04
930.76	223.05
931.06	223.00
931.36	222.98
931.66	222.99
931.96	223.00
932.26	223.01
932.56	222.96
932.86	222.98
933.16	222.97
933.46	222.95
933.76	222.94
934.06	222.96
934.36	223.00
934.66	222.99
934.96	222.97
935.26	222.97
935.56	222.99
935.86	222.95
936.16	222.93
936.46	222.92
936.76	222.91
937.06	222.89
937.36	222.89
937.66	222.89
937.96	222.89
938.26	222.86
938.56	222.85
938.86	222.85
939.16	222.86
939.46	222.88
939.76	222.88
940.06	222.89
940.35	222.87
940.65	222.81
940.95	222.81
941.25	222.80
941.55	222.78
941.85	222.76
942.15	222.79
942.45	222.82
942.75	222.82
943.04	222.82
943.34	222.84
943.64	222.83
943.94	222.82
944.24	222.82
944.54	222.84
944.84	222.84
945.13	222.84
945.43	222.82
945.73	222.81
946.03	222.80
946.33	222.78
946.62	222.77
946.92	222.78
947.22	222.79
947.52	222.79
947.82	222.81
948.11	222.80
948.41	222.77
948.71	222.75
949.01	222.75
949.31	222.74
949.60	222.73
949.90	222.74
950.20	222.73
950.50	222.72
950.79	222.70
951.09	222.71
951.39	222.71
951.69	222.70
951.98	222.71
952.28	222.72
952.58	222.73
952.87	222.74
953.17	222.75
953.47	222.73
953.76	222.74
954.06	222.72
954.36	222.71
954.66	222.72
954.95	222.75
955.25	222.76
955.55	222.77
955.84	222.76
956.14	222.76
956.44	222.77
956.73	222.77
957.03	222.78
957.32	222.77
957.62	222.76
957.92	222.77
958.21	222.77
958.51	222.89
958.81	222.90
959.10	222.91
959.40	222.93
959.69	222.94
959.99	222.95
960.29	222.95
960.58	222.95
960.88	222.98
961.17	222.97
961.47	222.98
961.76	222.97
962.06	222.98
962.36	222.97
962.65	222.98
962.95	222.98
963.24	222.98
963.54	222.99
963.83	223.00
964.13	222.99
964.42	222.98
964.72	222.89
965.01	222.88
965.31	222.88
965.60	222.85
965.90	222.91
966.19	222.88
966.49	222.89
966.78	222.89
967.08	222.87
967.37	222.87
967.67	222.85
967.96	222.87
968.26	222.87
968.55	222.88
968.85	222.88
969.14	222.88
969.43	222.88
969.73	222.87
970.02	222.87
970.32	222.87
970.61	222.85
970.91	222.82
971.20	222.81
971.49	222.80
971.79	222.81
972.08	222.74
972.38	222.74
972.67	222.74
972.96	222.75
973.26	222.74
973.55	222.77
973.85	222.77
974.14	222.75
974.43	222.75
974.73	222.73
975.02	222.73
975.31	222.73
975.61	222.73
975.90	222.72
976.19	222.70
976.49	222.71
976.78	222.71
977.07	222.72
977.37	222.72
977.66	222.73
977.95	222.71
978.24	222.73
978.54	222.76
978.83	222.75
979.12	222.74
979.42	222.74
979.71	222.71
980.00	222.71
980.29	222.73
980.59	222.70
980.88	222.73
981.17	222.72
981.46	222.72
981.76	222.71
982.05	222.75
982.34	222.75
982.63	222.76
982.93	222.76
983.22	222.79
983.51	222.79
983.80	222.81
984.09	222.83
984.39	222.83
984.68	222.81
984.97	222.81
985.26	222.81
985.55	222.81
985.85	222.80
986.14	222.81
986.43	222.81
986.72	222.81
987.01	222.78
987.30	222.78
987.59	222.77
987.89	222.78
988.18	222.75
988.47	222.74
988.76	222.72
989.05	222.71
989.34	222.70
989.63	222.74
989.92	222.71
990.22	222.70
990.51	222.70
990.80	222.69
991.09	222.70
991.38	222.71
991.67	222.70
991.96	222.69
992.25	222.69
992.54	222.69
992.83	222.68
993.12	222.69
993.41	222.71
993.70	222.75
993.99	222.77
994.28	222.79
994.58	222.80
994.87	222.80
995.16	222.80
995.45	222.78
995.74	222.74
996.03	222.77
996.32	222.79
996.61	222.81
996.90	222.82
997.19	222.81
997.48	222.81
997.77	222.79
998.06	222.81
998.34	222.80
998.63	222.80
998.92	222.81
999.21	222.82
999.50	222.82
999.79	222.78
1000.08	222.77
1000.37	222.77
1000.66	222.75
1000.95	222.78
1001.24	222.78
1001.53	222.79
1001.82	222.79
1002.11	222.77
1002.40	222.77
1002.68	222.79
1002.97	222.84
1003.26	222.83
1003.55	222.81
1003.84	222.83
1004.13	222.86
1004.42	222.85
1004.71	222.85
1004.99	222.83
1005.28	222.86
1005.57	222.86
1005.86	222.86
1006.15	222.86
1006.44	222.84
1006.72	222.86
1007.01	222.84
1007.30	222.85
1007.59	222.83
1007.88	222.83
1008.17	222.84
1008.45	222.82
1008.74	222.76
1009.03	222.73
1009.32	222.73
1009.60	222.73
1009.89	222.72
1010.18	222.67
1010.47	222.67
1010.76	222.67
1011.04	222.68
1011.33	222.67
1011.62	222.67
1011.91	222.68
1012.19	222.68
1012.48	222.70
1012.77	222.69
1013.05	222.72
1013.34	222.72
1013.63	222.72
1013.92	222.72
1014.20	222.71
1014.49	222.71
1014.78	222.73
1015.06	222.69
1015.35	222.69
1015.64	222.70
1015.92	222.72
1016.21	222.73
1016.50	222.72
1016.78	222.72
1017.07	222.73
1017.36	222.71
1017.64	222.69
1017.93	222.70
1018.22	222.69
1018.50	222.68
1018.79	222.68
1019.08	222.65
1019.36	222.66
1019.65	222.65
1019.93	222.68
1020.22	222.69
1020.51	222.76
1020.79	222.74
1021.08	222.63
1021.36	222.55
1021.65	222.68
1021.94	222.74
1022.22	222.75
1022.51	222.49
1022.79	223.25
1023.08	222.89
1023.36	224.00
1023.65	222.50
>>>>>End Processed Spectral Data<<<<<
