SpectraSuite Data File
++++++++++++++++++++++++++++++++++++
Date: Wed Sep 30 18:46:56 EDT 2015
User: lab3
Dark Spectrum Present: No
Reference Spectrum Present: No
Number of Sampled Component Spectra: 1
Spectrometers: USB2E7196
Integration Time (usec): 36000 (USB2E7196)
Spectra Averaged: 3000 (USB2E7196)
Boxcar Smoothing: 10 (USB2E7196)
Correct for Electrical Dark: No (USB2E7196)
Strobe/Lamp Enabled: No (USB2E7196)
Correct for Detector Non-linearity: No (USB2E7196)
Correct for Stray Light: No (USB2E7196)
Number of Pixels in Processed Spectrum: 2048
>>>>>Begin Processed Spectral Data<<<<<
339.09	0.00
339.48	210.23
339.86	211.73
340.24	213.25
340.63	214.58
341.01	217.57
341.39	217.32
341.78	218.65
342.16	219.91
342.54	220.35
342.93	208.89
343.31	219.45
343.69	220.00
344.07	220.46
344.46	220.88
344.84	221.28
345.22	221.51
345.60	221.77
345.99	221.96
346.37	222.10
346.75	222.21
347.13	222.29
347.52	222.36
347.90	222.44
348.28	222.47
348.66	222.53
349.05	222.53
349.43	222.58
349.81	222.64
350.19	222.71
350.57	222.77
350.96	222.86
351.34	222.95
351.72	223.05
352.10	223.17
352.48	223.24
352.87	223.29
353.25	223.35
353.63	223.41
354.01	223.47
354.39	223.55
354.77	223.62
355.15	223.72
355.54	223.78
355.92	223.81
356.30	223.89
356.68	224.02
357.06	224.10
357.44	224.15
357.82	224.21
358.20	224.32
358.58	224.38
358.97	224.44
359.35	224.53
359.73	224.60
360.11	224.65
360.49	224.70
360.87	224.75
361.25	224.81
361.63	224.88
362.01	224.94
362.39	224.97
362.77	225.02
363.15	225.05
363.53	225.07
363.91	225.11
364.29	225.14
364.67	225.06
365.05	225.08
365.43	225.12
365.81	225.14
366.19	225.15
366.57	225.20
366.95	225.20
367.33	225.17
367.71	225.16
368.09	225.18
368.47	225.18
368.85	225.16
369.23	225.17
369.61	225.12
369.99	225.13
370.37	225.12
370.75	225.17
371.13	225.14
371.51	225.10
371.89	225.08
372.27	225.05
372.65	225.03
373.03	224.98
373.41	224.93
373.78	224.88
374.16	224.79
374.54	224.70
374.92	224.65
375.30	224.60
375.68	224.54
376.06	224.49
376.44	224.44
376.82	224.39
377.19	224.35
377.57	224.30
377.95	224.21
378.33	224.15
378.71	224.01
379.09	223.96
379.47	223.92
379.84	223.85
380.22	223.79
380.60	223.72
380.98	223.67
381.36	223.63
381.73	223.57
382.11	223.54
382.49	223.50
382.87	223.44
383.25	223.40
383.62	223.48
384.00	223.40
384.38	223.36
384.76	223.34
385.13	223.32
385.51	223.29
385.89	223.24
386.27	223.20
386.64	223.18
387.02	223.14
387.40	223.10
387.78	223.08
388.15	223.05
388.53	223.01
388.91	222.98
389.29	222.95
389.66	222.94
390.04	222.90
390.42	222.89
390.79	222.87
391.17	222.85
391.55	222.72
391.92	222.71
392.30	222.71
392.68	222.67
393.05	222.65
393.43	222.64
393.81	222.65
394.18	222.63
394.56	222.62
394.94	222.64
395.31	222.63
395.69	222.66
396.06	222.68
396.44	222.70
396.82	222.71
397.19	222.78
397.57	222.80
397.95	222.83
398.32	222.82
398.70	222.87
399.07	222.92
399.45	222.95
399.82	222.99
400.20	223.03
400.58	223.07
400.95	223.09
401.33	223.17
401.70	223.30
402.08	223.39
402.45	223.47
402.83	223.58
403.20	223.68
403.58	223.76
403.95	223.88
404.33	224.01
404.71	224.13
405.08	224.31
405.46	224.45
405.83	224.60
406.21	224.77
406.58	224.95
406.96	225.13
407.33	225.34
407.70	225.57
408.08	225.90
408.45	226.18
408.83	226.47
409.20	226.75
409.58	226.99
409.95	227.33
410.33	227.69
410.70	228.04
411.08	228.45
411.45	228.87
411.82	229.31
412.20	229.80
412.57	230.39
412.95	230.85
413.32	231.45
413.69	232.07
414.07	232.73
414.44	233.45
414.82	234.18
415.19	235.04
415.56	235.92
415.94	236.81
416.31	237.83
416.68	238.84
417.06	240.02
417.43	241.12
417.81	242.40
418.18	243.70
418.55	245.11
418.93	246.58
419.30	248.13
419.67	249.77
420.04	251.45
420.42	253.21
420.79	255.25
421.16	257.32
421.54	259.41
421.91	261.59
422.28	263.86
422.66	266.31
423.03	268.65
423.40	271.10
423.77	273.74
424.15	276.44
424.52	279.25
424.89	282.28
425.26	285.31
425.64	288.11
426.01	291.27
426.38	294.50
426.75	297.84
427.13	301.26
427.50	304.83
427.87	308.54
428.24	312.29
428.61	315.87
428.99	319.74
429.36	323.99
429.73	328.07
430.10	332.12
430.47	336.27
430.85	340.52
431.22	345.05
431.59	349.72
431.96	354.25
432.33	359.28
432.70	364.06
433.08	369.70
433.45	375.03
433.82	380.26
434.19	386.11
434.56	391.86
434.93	397.39
435.30	402.87
435.68	409.02
436.05	415.04
436.42	421.08
436.79	426.58
437.16	432.51
437.53	438.85
437.90	445.18
438.27	451.36
438.64	458.07
439.01	464.14
439.38	469.68
439.75	475.02
440.13	481.10
440.50	486.87
440.87	491.43
441.24	496.42
441.61	501.95
441.98	506.00
442.35	510.79
442.72	515.72
443.09	520.42
443.46	523.45
443.83	525.67
444.20	527.54
444.57	530.28
444.94	531.89
445.31	533.55
445.68	535.03
446.05	536.12
446.42	535.91
446.79	535.61
447.16	535.34
447.53	535.13
447.90	533.29
448.27	531.57
448.64	528.88
449.01	527.09
449.37	523.24
449.74	519.71
450.11	515.22
450.48	510.26
450.85	505.28
451.22	501.04
451.59	496.90
451.96	493.15
452.33	487.64
452.70	482.74
453.07	476.78
453.43	470.81
453.80	465.03
454.17	459.49
454.54	454.34
454.91	448.54
455.28	443.08
455.65	437.93
456.02	432.45
456.38	428.04
456.75	422.34
457.12	417.75
457.49	413.13
457.86	408.70
458.23	404.83
458.59	400.58
458.96	396.18
459.33	392.31
459.70	388.37
460.07	385.37
460.43	381.83
460.80	378.52
461.17	375.61
461.54	372.47
461.91	369.53
462.27	366.53
462.64	364.09
463.01	361.30
463.38	358.48
463.74	355.91
464.11	353.62
464.48	351.55
464.85	349.34
465.21	347.64
465.58	345.78
465.95	343.61
466.32	341.87
466.68	340.18
467.05	338.48
467.42	336.83
467.78	335.05
468.15	333.41
468.52	332.19
468.88	330.58
469.25	329.12
469.62	327.95
469.98	326.69
470.35	325.57
470.72	324.55
471.08	323.51
471.45	322.65
471.82	321.71
472.18	320.74
472.55	320.11
472.92	319.33
473.28	318.71
473.65	318.08
474.02	317.49
474.38	317.00
474.75	316.73
475.11	316.32
475.48	316.18
475.85	316.02
476.21	315.97
476.58	315.97
476.94	316.16
477.31	316.27
477.67	316.41
478.04	316.66
478.41	316.98
478.77	317.43
479.14	317.76
479.50	318.29
479.87	318.96
480.23	319.64
480.60	320.28
480.96	320.96
481.33	321.91
481.69	322.84
482.06	323.77
482.42	324.65
482.79	325.71
483.15	326.91
483.52	328.27
483.88	329.59
484.25	330.99
484.61	332.45
484.98	334.02
485.34	335.77
485.71	337.60
486.07	339.54
486.44	341.47
486.80	343.62
487.17	345.82
487.53	348.24
487.90	350.76
488.26	353.50
488.62	356.38
488.99	359.25
489.35	362.27
489.72	365.53
490.08	368.94
490.44	372.45
490.81	376.12
491.17	379.89
491.54	383.92
491.90	388.04
492.26	392.47
492.63	397.15
492.99	402.02
493.36	407.02
493.72	412.28
494.08	417.69
494.45	423.39
494.81	429.31
495.17	435.34
495.54	441.70
495.90	448.39
496.26	455.20
496.63	462.26
496.99	469.60
497.35	477.30
497.72	485.29
498.08	493.46
498.44	501.87
498.80	510.83
499.17	520.00
499.53	529.51
499.89	539.25
500.26	549.18
500.62	559.36
500.98	570.21
501.34	581.21
501.71	592.71
502.07	604.46
502.43	616.61
502.79	629.10
503.16	642.00
503.52	655.08
503.88	668.50
504.24	682.37
504.60	696.53
504.97	711.04
505.33	725.96
505.69	741.74
506.05	757.77
506.41	773.82
506.78	790.17
507.14	807.01
507.50	824.42
507.86	842.20
508.22	860.25
508.59	878.34
508.95	897.14
509.31	916.39
509.67	936.32
510.03	956.48
510.39	976.85
510.75	997.45
511.12	1018.32
511.48	1039.55
511.84	1060.90
512.20	1082.56
512.56	1105.35
512.92	1128.36
513.28	1151.09
513.64	1174.11
514.00	1197.57
514.37	1221.35
514.73	1245.14
515.09	1268.80
515.45	1292.84
515.81	1317.46
516.17	1342.19
516.53	1366.59
516.89	1391.11
517.25	1415.77
517.61	1440.64
517.97	1465.72
518.33	1490.61
518.69	1515.71
519.05	1541.07
519.41	1566.56
519.77	1592.31
520.13	1617.30
520.49	1642.45
520.85	1667.81
521.21	1693.10
521.57	1719.00
521.93	1744.21
522.29	1770.23
522.65	1796.00
523.01	1821.60
523.37	1846.47
523.73	1871.99
524.09	1897.70
524.45	1923.29
524.81	1948.48
525.17	1973.52
525.53	1998.18
525.89	2022.80
526.25	2047.59
526.61	2071.82
526.97	2096.35
527.33	2120.83
527.68	2145.19
528.04	2168.74
528.40	2192.15
528.76	2215.78
529.12	2238.34
529.48	2261.37
529.84	2282.57
530.20	2304.31
530.56	2325.74
530.91	2347.23
531.27	2368.21
531.63	2388.57
531.99	2408.39
532.35	2427.98
532.71	2447.74
533.07	2468.10
533.42	2486.88
533.78	2506.08
534.14	2525.20
534.50	2543.56
534.86	2562.49
535.21	2579.66
535.57	2596.75
535.93	2613.01
536.29	2628.06
536.65	2643.87
537.00	2658.52
537.36	2673.83
537.72	2688.08
538.08	2702.10
538.44	2714.98
538.79	2728.05
539.15	2739.43
539.51	2750.70
539.87	2761.43
540.22	2770.00
540.58	2778.67
540.94	2787.99
541.29	2795.75
541.65	2802.64
542.01	2808.98
542.37	2813.42
542.72	2819.68
543.08	2825.39
543.44	2831.08
543.79	2836.00
544.15	2840.13
544.51	2844.17
544.87	2847.28
545.22	2849.94
545.58	2851.52
545.94	2853.63
546.29	2854.27
546.65	2855.03
547.01	2855.88
547.36	2856.94
547.72	2858.29
548.07	2858.08
548.43	2857.17
548.79	2855.64
549.14	2854.06
549.50	2852.99
549.86	2851.18
550.21	2846.94
550.57	2843.25
550.92	2838.04
551.28	2833.43
551.64	2828.63
551.99	2824.27
552.35	2819.48
552.70	2814.25
553.06	2809.70
553.41	2804.54
553.77	2798.82
554.13	2793.83
554.48	2787.94
554.84	2780.34
555.19	2772.83
555.55	2764.70
555.90	2757.13
556.26	2750.68
556.61	2743.64
556.97	2734.42
557.32	2726.16
557.68	2718.16
558.03	2709.44
558.39	2701.51
558.74	2693.74
559.10	2684.81
559.45	2675.53
559.81	2666.35
560.16	2656.66
560.52	2646.52
560.87	2637.41
561.23	2628.00
561.58	2618.05
561.94	2607.89
562.29	2597.22
562.64	2587.07
563.00	2577.31
563.35	2567.42
563.71	2556.49
564.06	2545.05
564.42	2534.67
564.77	2523.84
565.12	2513.12
565.48	2502.09
565.83	2491.70
566.19	2481.40
566.54	2470.66
566.89	2458.95
567.25	2447.42
567.60	2436.70
567.96	2425.51
568.31	2413.05
568.66	2400.40
569.02	2388.79
569.37	2377.01
569.72	2365.78
570.08	2353.69
570.43	2340.99
570.78	2328.01
571.14	2315.00
571.49	2302.74
571.84	2290.71
572.20	2277.27
572.55	2264.37
572.90	2251.37
573.26	2237.57
573.61	2223.07
573.96	2208.83
574.31	2194.93
574.67	2181.23
575.02	2167.00
575.37	2152.41
575.72	2138.10
576.08	2124.34
576.43	2109.48
576.78	2094.59
577.13	2080.49
577.49	2066.67
577.84	2053.27
578.19	2039.05
578.54	2024.29
578.90	2008.94
579.25	1993.36
579.60	1979.37
579.95	1964.96
580.30	1950.56
580.66	1936.33
581.01	1921.66
581.36	1907.43
581.71	1893.81
582.06	1879.70
582.42	1865.72
582.77	1852.44
583.12	1838.72
583.47	1825.05
583.82	1811.53
584.17	1797.84
584.53	1784.07
584.88	1770.24
585.23	1756.13
585.58	1742.51
585.93	1729.24
586.28	1716.87
586.63	1704.31
586.98	1690.87
587.34	1677.75
587.69	1664.13
588.04	1650.72
588.39	1638.03
588.74	1624.79
589.09	1611.30
589.44	1597.80
589.79	1584.83
590.14	1571.71
590.49	1558.81
590.84	1545.80
591.19	1533.42
591.54	1520.63
591.89	1507.65
592.25	1494.97
592.60	1481.83
592.95	1469.24
593.30	1457.02
593.65	1444.63
594.00	1432.43
594.35	1421.05
594.70	1408.72
595.05	1397.41
595.40	1386.05
595.75	1374.06
596.10	1362.89
596.45	1351.96
596.80	1341.47
597.15	1330.73
597.50	1320.01
597.85	1309.47
598.19	1299.17
598.54	1288.30
598.89	1278.09
599.24	1268.21
599.59	1258.08
599.94	1249.00
600.29	1239.83
600.64	1230.42
600.99	1220.37
601.34	1210.82
601.69	1200.67
602.04	1191.70
602.39	1182.61
602.74	1173.75
603.08	1165.17
603.43	1156.06
603.78	1146.75
604.13	1137.60
604.48	1128.37
604.83	1119.44
605.18	1110.42
605.53	1101.31
605.87	1092.28
606.22	1083.56
606.57	1074.56
606.92	1065.60
607.27	1056.55
607.62	1047.56
607.96	1038.77
608.31	1031.06
608.66	1022.90
609.01	1015.18
609.36	1007.32
609.70	999.23
610.05	991.01
610.40	983.11
610.75	975.37
611.10	967.88
611.44	959.98
611.79	952.44
612.14	944.50
612.49	936.69
612.83	929.38
613.18	922.17
613.53	914.78
613.88	907.46
614.22	900.81
614.57	893.92
614.92	887.02
615.27	880.15
615.61	873.07
615.96	866.28
616.31	859.37
616.65	852.42
617.00	845.70
617.35	839.05
617.70	832.45
618.04	825.95
618.39	819.47
618.74	813.34
619.08	807.01
619.43	800.95
619.78	794.91
620.12	788.67
620.47	782.62
620.82	776.61
621.16	770.94
621.51	764.89
621.85	758.88
622.20	752.89
622.55	747.07
622.89	741.18
623.24	735.32
623.59	729.60
623.93	723.90
624.28	718.37
624.62	712.83
624.97	707.26
625.32	701.80
625.66	696.23
626.01	690.65
626.35	685.19
626.70	679.79
627.04	674.58
627.39	669.44
627.73	664.36
628.08	659.56
628.43	654.58
628.77	649.68
629.12	644.90
629.46	640.36
629.81	635.65
630.15	630.83
630.50	626.15
630.84	621.65
631.19	617.33
631.53	613.04
631.88	608.66
632.22	604.38
632.57	600.32
632.91	596.21
633.26	592.20
633.60	588.29
633.95	584.49
634.29	580.52
634.64	576.51
634.98	572.40
635.32	568.44
635.67	564.66
636.01	560.82
636.36	557.02
636.70	553.35
637.05	549.66
637.39	546.17
637.73	542.56
638.08	539.03
638.42	535.48
638.77	531.78
639.11	528.08
639.45	524.40
639.80	520.71
640.14	517.21
640.49	513.65
640.83	510.01
641.17	506.39
641.52	502.97
641.86	499.55
642.20	496.29
642.55	492.88
642.89	489.54
643.23	486.41
643.58	483.53
643.92	480.52
644.26	477.56
644.61	474.56
644.95	471.57
645.29	468.50
645.64	465.41
645.98	462.48
646.32	459.73
646.66	456.98
647.01	454.21
647.35	451.50
647.69	448.69
648.04	445.99
648.38	443.32
648.72	440.60
649.06	437.96
649.41	435.38
649.75	432.78
650.09	430.22
650.43	427.64
650.78	425.04
651.12	422.42
651.46	419.92
651.80	417.52
652.14	415.20
652.49	412.90
652.83	410.66
653.17	408.40
653.51	406.21
653.85	404.09
654.20	401.91
654.54	399.63
654.88	397.55
655.22	395.53
655.56	393.49
655.90	391.55
656.25	389.61
656.59	387.66
656.93	385.80
657.27	384.01
657.61	382.11
657.95	380.26
658.29	378.43
658.64	376.61
658.98	374.76
659.32	372.97
659.66	371.26
660.00	369.58
660.34	367.92
660.68	366.21
661.02	364.43
661.36	362.77
661.70	361.18
662.05	359.57
662.39	357.96
662.73	356.42
663.07	354.90
663.41	353.41
663.75	351.97
664.09	350.53
664.43	348.99
664.77	347.57
665.11	346.10
665.45	344.69
665.79	343.29
666.13	341.89
666.47	340.46
666.81	339.00
667.15	337.52
667.49	336.13
667.83	334.80
668.17	333.51
668.51	332.23
668.85	330.98
669.19	329.79
669.53	328.54
669.87	327.26
670.21	326.01
670.55	324.79
670.89	323.62
671.23	322.43
671.57	321.24
671.91	320.12
672.25	319.05
672.58	317.99
672.92	316.89
673.26	315.87
673.60	314.85
673.94	313.83
674.28	312.86
674.62	311.88
674.96	310.87
675.30	309.90
675.64	308.94
675.97	307.98
676.31	306.99
676.65	306.02
676.99	305.13
677.33	304.18
677.67	303.27
678.01	302.28
678.34	301.36
678.68	300.51
679.02	299.62
679.36	298.74
679.70	297.87
680.04	297.02
680.37	296.16
680.71	295.33
681.05	294.56
681.39	293.74
681.73	292.89
682.06	292.08
682.40	291.29
682.74	290.51
683.08	289.76
683.42	288.99
683.75	288.29
684.09	287.52
684.43	286.80
684.77	286.06
685.10	285.38
685.44	284.67
685.78	283.96
686.12	283.29
686.45	282.60
686.79	281.91
687.13	281.24
687.46	280.54
687.80	279.87
688.14	279.16
688.48	278.51
688.81	277.86
689.15	277.26
689.49	276.61
689.82	275.98
690.16	275.30
690.50	274.68
690.83	274.06
691.17	273.45
691.51	272.86
691.84	272.29
692.18	271.69
692.52	271.07
692.85	270.49
693.19	269.93
693.52	269.36
693.86	268.80
694.20	268.25
694.53	267.73
694.87	267.18
695.21	266.66
695.54	266.14
695.88	265.61
696.21	265.04
696.55	264.53
696.88	264.01
697.22	263.52
697.56	263.03
697.89	262.48
698.23	261.97
698.56	261.45
698.90	260.96
699.23	260.47
699.57	260.01
699.90	259.54
700.24	259.05
700.58	258.59
700.91	258.16
701.25	257.81
701.58	257.42
701.92	257.03
702.25	256.61
702.59	256.17
702.92	255.77
703.26	255.36
703.59	254.96
703.93	254.64
704.26	254.25
704.60	253.86
704.93	253.49
705.26	253.10
705.60	252.77
705.93	252.37
706.27	252.05
706.60	251.72
706.94	251.41
707.27	251.03
707.61	250.66
707.94	250.30
708.27	249.85
708.61	249.46
708.94	249.09
709.28	248.75
709.61	248.42
709.94	248.11
710.28	247.81
710.61	247.52
710.95	247.14
711.28	246.91
711.61	246.61
711.95	246.35
712.28	246.06
712.61	245.76
712.95	245.55
713.28	245.31
713.61	245.02
713.95	244.72
714.28	244.48
714.61	244.20
714.95	243.94
715.28	243.68
715.61	243.42
715.95	243.19
716.28	242.94
716.61	242.73
716.95	242.48
717.28	242.24
717.61	242.00
717.94	241.77
718.28	241.46
718.61	241.24
718.94	240.99
719.27	240.77
719.61	240.57
719.94	240.33
720.27	240.06
720.60	239.85
720.94	239.64
721.27	239.45
721.60	239.28
721.93	239.08
722.27	238.94
722.60	238.76
722.93	238.55
723.26	238.37
723.59	238.16
723.93	237.99
724.26	237.81
724.59	237.63
724.92	237.47
725.25	237.32
725.59	237.14
725.92	237.00
726.25	236.84
726.58	236.68
726.91	236.50
727.24	236.36
727.57	236.21
727.91	236.04
728.24	235.90
728.57	235.74
728.90	235.61
729.23	235.42
729.56	235.32
729.89	235.18
730.22	235.03
730.55	234.90
730.89	234.75
731.22	234.61
731.55	234.48
731.88	234.35
732.21	234.20
732.54	234.08
732.87	233.95
733.20	233.83
733.53	233.71
733.86	233.60
734.19	233.47
734.52	233.36
734.85	233.32
735.18	233.17
735.51	233.08
735.84	232.96
736.17	232.88
736.50	232.72
736.83	232.73
737.16	232.63
737.49	232.53
737.82	232.43
738.15	232.34
738.48	232.24
738.81	232.12
739.14	232.02
739.47	231.91
739.80	231.80
740.13	231.70
740.46	231.58
740.79	231.47
741.12	231.37
741.45	231.25
741.78	231.10
742.11	231.04
742.44	230.92
742.77	230.84
743.10	230.73
743.43	230.64
743.75	230.44
744.08	230.51
744.41	230.41
744.74	230.32
745.07	230.20
745.40	230.14
745.73	230.10
746.06	230.02
746.39	229.95
746.71	229.87
747.04	229.78
747.37	229.71
747.70	229.66
748.03	229.58
748.36	229.53
748.68	229.45
749.01	229.35
749.34	229.28
749.67	229.20
750.00	229.14
750.33	229.16
750.65	229.10
750.98	228.87
751.31	228.80
751.64	228.74
751.97	228.74
752.29	228.67
752.62	228.55
752.95	228.47
753.28	228.39
753.60	228.33
753.93	228.29
754.26	228.23
754.59	228.13
754.91	228.06
755.24	227.98
755.57	227.96
755.90	227.89
756.22	227.82
756.55	227.75
756.88	227.66
757.20	227.52
757.53	227.44
757.86	227.38
758.19	227.34
758.51	227.27
758.84	227.16
759.17	227.09
759.49	227.05
759.82	227.05
760.15	227.02
760.47	226.96
760.80	226.88
761.13	226.84
761.45	226.79
761.78	226.75
762.11	226.71
762.43	226.60
762.76	226.56
763.08	226.53
763.41	226.48
763.74	226.45
764.06	226.40
764.39	226.36
764.71	226.31
765.04	226.25
765.37	226.20
765.69	226.16
766.02	226.12
766.34	226.06
766.67	225.97
767.00	225.94
767.32	225.96
767.65	225.99
767.97	225.94
768.30	225.90
768.62	225.86
768.95	225.80
769.27	225.77
769.60	225.75
769.92	225.69
770.25	225.64
770.57	225.59
770.90	225.54
771.22	225.50
771.55	225.47
771.87	225.44
772.20	225.41
772.52	225.46
772.85	225.55
773.17	225.52
773.50	225.48
773.82	225.43
774.15	225.34
774.47	225.24
774.80	225.20
775.12	225.16
775.45	225.14
775.77	225.11
776.09	225.09
776.42	225.06
776.74	225.06
777.07	225.03
777.39	225.01
777.72	224.98
778.04	224.97
778.36	224.94
778.69	224.91
779.01	224.90
779.33	224.78
779.66	224.64
779.98	224.61
780.31	224.60
780.63	224.62
780.95	224.62
781.28	224.59
781.60	224.57
781.92	224.55
782.25	224.52
782.57	224.50
782.89	224.47
783.22	224.45
783.54	224.40
783.86	224.39
784.19	224.37
784.51	224.38
784.83	224.34
785.16	224.32
785.48	224.30
785.80	224.28
786.12	224.27
786.45	224.25
786.77	224.24
787.09	224.21
787.42	224.16
787.74	224.14
788.06	224.14
788.38	224.12
788.71	224.09
789.03	224.08
789.35	224.09
789.67	224.06
789.99	224.05
790.32	224.02
790.64	224.02
790.96	224.10
791.28	224.05
791.61	224.03
791.93	224.02
792.25	224.00
792.57	224.06
792.89	224.03
793.21	224.03
793.54	224.00
793.86	223.97
794.18	223.96
794.50	223.93
794.82	223.91
795.14	223.91
795.47	223.92
795.79	223.91
796.11	223.87
796.43	223.86
796.75	223.84
797.07	223.84
797.39	223.82
797.71	223.72
798.04	223.72
798.36	223.72
798.68	223.70
799.00	223.70
799.32	223.64
799.64	223.65
799.96	223.63
800.28	223.64
800.60	223.63
800.92	223.63
801.24	223.61
801.56	223.61
801.89	223.59
802.21	223.58
802.53	223.55
802.85	223.56
803.17	223.60
803.49	223.58
803.81	223.56
804.13	223.54
804.45	223.52
804.77	223.51
805.09	223.49
805.41	223.47
805.73	223.44
806.05	223.40
806.37	223.38
806.69	223.35
807.01	223.33
807.33	223.33
807.65	223.28
807.97	223.31
808.28	223.30
808.60	223.29
808.92	223.27
809.24	223.32
809.56	223.30
809.88	223.25
810.20	223.24
810.52	223.25
810.84	223.23
811.16	223.22
811.48	223.20
811.80	223.24
812.12	223.23
812.43	223.25
812.75	223.25
813.07	223.24
813.39	223.24
813.71	223.22
814.03	223.20
814.35	223.20
814.67	223.16
814.98	223.15
815.30	223.14
815.62	223.12
815.94	223.04
816.26	223.04
816.58	223.01
816.89	223.02
817.21	222.99
817.53	222.99
817.85	222.99
818.17	222.98
818.48	222.93
818.80	222.95
819.12	222.92
819.44	222.90
819.76	222.88
820.07	222.87
820.39	222.87
820.71	222.87
821.03	222.86
821.34	222.84
821.66	222.85
821.98	222.86
822.30	222.85
822.61	222.91
822.93	222.88
823.25	222.88
823.57	222.86
823.88	222.87
824.20	222.86
824.52	222.87
824.83	222.86
825.15	222.85
825.47	222.83
825.79	222.84
826.10	222.83
826.42	222.82
826.74	222.83
827.05	222.83
827.37	222.83
827.69	222.83
828.00	222.84
828.32	222.83
828.64	222.81
828.95	222.86
829.27	222.83
829.58	222.83
829.90	222.84
830.22	222.85
830.53	222.83
830.85	222.81
831.17	222.78
831.48	222.79
831.80	222.79
832.11	222.78
832.43	222.76
832.75	222.76
833.06	222.82
833.38	222.78
833.69	222.77
834.01	222.77
834.32	222.76
834.64	222.74
834.96	222.74
835.27	222.74
835.59	222.70
835.90	222.68
836.22	222.67
836.53	222.64
836.85	222.63
837.16	222.73
837.48	222.73
837.79	222.77
838.11	222.77
838.42	222.77
838.74	222.77
839.05	222.77
839.37	222.76
839.68	222.69
840.00	222.69
840.31	222.71
840.63	222.70
840.94	222.68
841.26	222.67
841.57	222.66
841.88	222.67
842.20	222.66
842.51	222.65
842.83	222.65
843.14	222.75
843.46	222.74
843.77	222.68
844.08	222.67
844.40	222.63
844.71	222.62
845.03	222.61
845.34	222.60
845.65	222.60
845.97	222.60
846.28	222.61
846.60	222.61
846.91	222.59
847.22	222.58
847.54	222.61
847.85	222.63
848.16	222.62
848.48	222.59
848.79	222.62
849.10	222.64
849.42	222.64
849.73	222.54
850.04	222.54
850.36	222.51
850.67	222.53
850.98	222.54
851.30	222.55
851.61	222.55
851.92	222.55
852.23	222.58
852.55	222.58
852.86	222.58
853.17	222.59
853.49	222.61
853.80	222.63
854.11	222.63
854.42	222.63
854.74	222.62
855.05	222.62
855.36	222.57
855.67	222.57
855.99	222.57
856.30	222.70
856.61	222.69
856.92	222.69
857.23	222.69
857.55	222.68
857.86	222.66
858.17	222.68
858.48	222.66
858.79	222.64
859.11	222.64
859.42	222.63
859.73	222.61
860.04	222.61
860.35	222.57
860.66	222.55
860.98	222.55
861.29	222.57
861.60	222.56
861.91	222.58
862.22	222.57
862.53	222.54
862.84	222.42
863.16	222.44
863.47	222.43
863.78	222.41
864.09	222.43
864.40	222.43
864.71	222.42
865.02	222.44
865.33	222.42
865.64	222.40
865.95	222.42
866.27	222.49
866.58	222.48
866.89	222.49
867.20	222.49
867.51	222.47
867.82	222.46
868.13	222.50
868.44	222.48
868.75	222.50
869.06	222.51
869.37	222.52
869.68	222.49
869.99	222.51
870.30	222.52
870.61	222.52
870.92	222.51
871.23	222.51
871.54	222.52
871.85	222.54
872.16	222.56
872.47	222.55
872.78	222.49
873.09	222.50
873.40	222.49
873.71	222.50
874.02	222.51
874.33	222.50
874.64	222.47
874.95	222.49
875.26	222.47
875.56	222.47
875.87	222.46
876.18	222.46
876.49	222.56
876.80	222.55
877.11	222.53
877.42	222.54
877.73	222.54
878.04	222.51
878.35	222.51
878.66	222.51
878.96	222.51
879.27	222.50
879.58	222.50
879.89	222.50
880.20	222.52
880.51	222.51
880.82	222.51
881.12	222.51
881.43	222.49
881.74	222.48
882.05	222.48
882.36	222.48
882.67	222.48
882.97	222.37
883.28	222.36
883.59	222.36
883.90	222.37
884.21	222.38
884.51	222.37
884.82	222.35
885.13	222.35
885.44	222.34
885.74	222.34
886.05	222.33
886.36	222.33
886.67	222.29
886.98	222.35
887.28	222.36
887.59	222.36
887.90	222.37
888.20	222.36
888.51	222.38
888.82	222.37
889.13	222.37
889.43	222.46
889.74	222.45
890.05	222.45
890.35	222.44
890.66	222.41
890.97	222.41
891.28	222.40
891.58	222.40
891.89	222.40
892.20	222.39
892.50	222.38
892.81	222.37
893.12	222.36
893.42	222.30
893.73	222.30
894.04	222.28
894.34	222.28
894.65	222.28
894.95	222.27
895.26	222.27
895.57	222.31
895.87	222.20
896.18	222.22
896.48	222.22
896.79	222.21
897.10	222.23
897.40	222.23
897.71	222.24
898.01	222.23
898.32	222.25
898.63	222.24
898.93	222.25
899.24	222.24
899.54	222.24
899.85	222.25
900.15	222.24
900.46	222.24
900.76	222.25
901.07	222.25
901.38	222.25
901.68	222.25
901.99	222.20
902.29	222.21
902.60	222.20
902.90	222.20
903.21	222.19
903.51	222.19
903.82	222.20
904.12	222.20
904.43	222.20
904.73	222.19
905.03	222.19
905.34	222.29
905.64	222.29
905.95	222.29
906.25	222.29
906.56	222.29
906.86	222.29
907.17	222.28
907.47	222.29
907.77	222.28
908.08	222.25
908.38	222.26
908.69	222.27
908.99	222.29
909.30	222.30
909.60	222.30
909.90	222.31
910.21	222.28
910.51	222.27
910.81	222.28
911.12	222.29
911.42	222.29
911.73	222.19
912.03	222.19
912.33	222.20
912.64	222.20
912.94	222.19
913.24	222.17
913.55	222.16
913.85	222.16
914.15	222.18
914.46	222.19
914.76	222.18
915.06	222.17
915.37	222.16
915.67	222.14
915.97	222.14
916.27	222.11
916.58	222.12
916.88	222.11
917.18	222.10
917.49	222.17
917.79	222.16
918.09	222.17
918.39	222.21
918.70	222.20
919.00	222.20
919.30	222.25
919.60	222.25
919.91	222.24
920.21	222.24
920.51	222.22
920.81	222.21
921.12	222.23
921.42	222.23
921.72	222.24
922.02	222.25
922.32	222.26
922.63	222.27
922.93	222.32
923.23	222.33
923.53	222.32
923.83	222.25
924.13	222.26
924.44	222.26
924.74	222.27
925.04	222.30
925.34	222.29
925.64	222.25
925.94	222.26
926.24	222.31
926.55	222.30
926.85	222.31
927.15	222.31
927.45	222.31
927.75	222.31
928.05	222.31
928.35	222.29
928.65	222.31
928.95	222.32
929.26	222.27
929.56	222.29
929.86	222.30
930.16	222.30
930.46	222.29
930.76	222.29
931.06	222.24
931.36	222.21
931.66	222.23
931.96	222.24
932.26	222.24
932.56	222.19
932.86	222.20
933.16	222.20
933.46	222.19
933.76	222.18
934.06	222.19
934.36	222.23
934.66	222.22
934.96	222.20
935.26	222.21
935.56	222.22
935.86	222.19
936.16	222.17
936.46	222.17
936.76	222.16
937.06	222.14
937.36	222.15
937.66	222.15
937.96	222.14
938.26	222.12
938.56	222.11
938.86	222.12
939.16	222.14
939.46	222.15
939.76	222.16
940.06	222.16
940.35	222.14
940.65	222.09
940.95	222.10
941.25	222.07
941.55	222.05
941.85	222.05
942.15	222.08
942.45	222.11
942.75	222.11
943.04	222.11
943.34	222.14
943.64	222.12
943.94	222.11
944.24	222.11
944.54	222.12
944.84	222.11
945.13	222.10
945.43	222.08
945.73	222.07
946.03	222.06
946.33	222.05
946.62	222.04
946.92	222.03
947.22	222.05
947.52	222.06
947.82	222.07
948.11	222.05
948.41	222.03
948.71	222.00
949.01	222.01
949.31	222.00
949.60	221.99
949.90	222.01
950.20	222.00
950.50	222.00
950.79	222.00
951.09	222.01
951.39	222.01
951.69	222.01
951.98	222.03
952.28	222.04
952.58	222.04
952.87	222.04
953.17	222.06
953.47	222.04
953.76	222.04
954.06	222.02
954.36	222.00
954.66	222.01
954.95	222.04
955.25	222.04
955.55	222.05
955.84	222.03
956.14	222.03
956.44	222.04
956.73	222.03
957.03	222.04
957.32	222.04
957.62	222.03
957.92	222.05
958.21	222.04
958.51	222.15
958.81	222.17
959.10	222.19
959.40	222.20
959.69	222.21
959.99	222.22
960.29	222.23
960.58	222.23
960.88	222.26
961.17	222.25
961.47	222.26
961.76	222.24
962.06	222.26
962.36	222.25
962.65	222.25
962.95	222.26
963.24	222.25
963.54	222.25
963.83	222.25
964.13	222.25
964.42	222.24
964.72	222.15
965.01	222.15
965.31	222.14
965.60	222.11
965.90	222.17
966.19	222.14
966.49	222.16
966.78	222.15
967.08	222.13
967.37	222.13
967.67	222.11
967.96	222.13
968.26	222.13
968.55	222.14
968.85	222.13
969.14	222.13
969.43	222.12
969.73	222.11
970.02	222.11
970.32	222.10
970.61	222.08
970.91	222.05
971.20	222.02
971.49	222.02
971.79	222.04
972.08	221.96
972.38	221.97
972.67	221.96
972.96	221.97
973.26	221.96
973.55	221.99
973.85	221.98
974.14	221.97
974.43	221.98
974.73	221.97
975.02	221.96
975.31	221.96
975.61	221.96
975.90	221.96
976.19	221.95
976.49	221.96
976.78	221.97
977.07	221.97
977.37	221.98
977.66	221.99
977.95	221.97
978.24	221.98
978.54	222.00
978.83	222.00
979.12	221.99
979.42	221.99
979.71	221.96
980.00	221.96
980.29	221.97
980.59	221.95
980.88	221.98
981.17	221.97
981.46	221.97
981.76	221.97
982.05	222.00
982.34	222.01
982.63	222.01
982.93	222.00
983.22	222.02
983.51	222.03
983.80	222.04
984.09	222.05
984.39	222.04
984.68	222.02
984.97	222.03
985.26	222.02
985.55	222.03
985.85	222.01
986.14	222.03
986.43	222.04
986.72	222.04
987.01	222.01
987.30	222.01
987.59	222.01
987.89	222.01
988.18	221.97
988.47	221.96
988.76	221.95
989.05	221.95
989.34	221.94
989.63	221.97
989.92	221.95
990.22	221.94
990.51	221.94
990.80	221.93
991.09	221.94
991.38	221.95
991.67	221.94
991.96	221.93
992.25	221.93
992.54	221.90
992.83	221.90
993.12	221.90
993.41	221.91
993.70	221.96
993.99	221.98
994.28	221.99
994.58	222.01
994.87	221.99
995.16	221.99
995.45	221.99
995.74	221.95
996.03	221.96
996.32	221.98
996.61	222.01
996.90	222.01
997.19	222.00
997.48	222.00
997.77	221.99
998.06	222.00
998.34	221.99
998.63	221.98
998.92	221.99
999.21	222.00
999.50	221.99
999.79	221.96
1000.08	221.96
1000.37	221.95
1000.66	221.94
1000.95	221.97
1001.24	221.97
1001.53	221.98
1001.82	221.97
1002.11	221.95
1002.40	221.96
1002.68	221.97
1002.97	222.04
1003.26	222.03
1003.55	222.01
1003.84	222.02
1004.13	222.05
1004.42	222.05
1004.71	222.05
1004.99	222.04
1005.28	222.06
1005.57	222.07
1005.86	222.06
1006.15	222.04
1006.44	222.03
1006.72	222.04
1007.01	222.02
1007.30	222.02
1007.59	222.02
1007.88	222.02
1008.17	222.02
1008.45	222.00
1008.74	221.96
1009.03	221.91
1009.32	221.91
1009.60	221.92
1009.89	221.91
1010.18	221.87
1010.47	221.86
1010.76	221.86
1011.04	221.86
1011.33	221.86
1011.62	221.86
1011.91	221.87
1012.19	221.87
1012.48	221.88
1012.77	221.87
1013.05	221.90
1013.34	221.91
1013.63	221.90
1013.92	221.91
1014.20	221.90
1014.49	221.91
1014.78	221.92
1015.06	221.89
1015.35	221.89
1015.64	221.91
1015.92	221.93
1016.21	221.94
1016.50	221.94
1016.78	221.96
1017.07	221.97
1017.36	221.95
1017.64	221.94
1017.93	221.95
1018.22	221.93
1018.50	221.93
1018.79	221.93
1019.08	221.90
1019.36	221.91
1019.65	221.90
1019.93	221.92
1020.22	221.94
1020.51	221.98
1020.79	221.97
1021.08	221.73
1021.36	221.76
1021.65	221.94
1021.94	221.90
1022.22	222.02
1022.51	221.66
1022.79	222.31
1023.08	222.04
1023.36	223.04
1023.65	221.69
>>>>>End Processed Spectral Data<<<<<
