SpectraSuite Data File
++++++++++++++++++++++++++++++++++++
Date: Wed Sep 30 17:46:05 EDT 2015
User: lab3
Dark Spectrum Present: No
Reference Spectrum Present: No
Number of Sampled Component Spectra: 1
Spectrometers: USB2E7196
Integration Time (usec): 36000 (USB2E7196)
Spectra Averaged: 3000 (USB2E7196)
Boxcar Smoothing: 10 (USB2E7196)
Correct for Electrical Dark: No (USB2E7196)
Strobe/Lamp Enabled: No (USB2E7196)
Correct for Detector Non-linearity: No (USB2E7196)
Correct for Stray Light: No (USB2E7196)
Number of Pixels in Processed Spectrum: 2048
>>>>>Begin Processed Spectral Data<<<<<
339.09	0.00
339.48	211.01
339.86	212.47
340.24	213.81
340.63	215.23
341.01	218.11
341.39	217.85
341.78	219.27
342.16	220.36
342.54	220.86
342.93	209.48
343.31	220.06
343.69	220.60
344.07	221.06
344.46	221.48
344.84	221.87
345.22	222.11
345.60	222.37
345.99	222.55
346.37	222.69
346.75	222.80
347.13	222.88
347.52	222.94
347.90	223.02
348.28	223.05
348.66	223.10
349.05	223.11
349.43	223.16
349.81	223.21
350.19	223.27
350.57	223.33
350.96	223.41
351.34	223.51
351.72	223.60
352.10	223.70
352.48	223.78
352.87	223.83
353.25	223.89
353.63	223.95
354.01	224.02
354.39	224.09
354.77	224.17
355.15	224.27
355.54	224.32
355.92	224.36
356.30	224.44
356.68	224.57
357.06	224.65
357.44	224.70
357.82	224.76
358.20	224.87
358.58	224.93
358.97	224.99
359.35	225.06
359.73	225.15
360.11	225.20
360.49	225.26
360.87	225.31
361.25	225.37
361.63	225.45
362.01	225.50
362.39	225.53
362.77	225.58
363.15	225.60
363.53	225.64
363.91	225.68
364.29	225.70
364.67	225.62
365.05	225.65
365.43	225.68
365.81	225.71
366.19	225.72
366.57	225.77
366.95	225.78
367.33	225.75
367.71	225.75
368.09	225.77
368.47	225.76
368.85	225.76
369.23	225.76
369.61	225.71
369.99	225.73
370.37	225.73
370.75	225.78
371.13	225.75
371.51	225.71
371.89	225.69
372.27	225.66
372.65	225.64
373.03	225.60
373.41	225.56
373.78	225.50
374.16	225.41
374.54	225.33
374.92	225.28
375.30	225.23
375.68	225.16
376.06	225.11
376.44	225.06
376.82	225.01
377.19	224.96
377.57	224.92
377.95	224.82
378.33	224.76
378.71	224.62
379.09	224.57
379.47	224.54
379.84	224.48
380.22	224.43
380.60	224.36
380.98	224.30
381.36	224.25
381.73	224.19
382.11	224.17
382.49	224.13
382.87	224.07
383.25	224.03
383.62	224.10
384.00	224.03
384.38	223.99
384.76	223.97
385.13	223.96
385.51	223.91
385.89	223.87
386.27	223.83
386.64	223.82
387.02	223.77
387.40	223.71
387.78	223.68
388.15	223.65
388.53	223.62
388.91	223.60
389.29	223.57
389.66	223.56
390.04	223.51
390.42	223.50
390.79	223.49
391.17	223.47
391.55	223.34
391.92	223.33
392.30	223.33
392.68	223.29
393.05	223.26
393.43	223.26
393.81	223.26
394.18	223.25
394.56	223.24
394.94	223.27
395.31	223.27
395.69	223.31
396.06	223.33
396.44	223.35
396.82	223.36
397.19	223.42
397.57	223.44
397.95	223.48
398.32	223.48
398.70	223.52
399.07	223.58
399.45	223.61
399.82	223.65
400.20	223.69
400.58	223.74
400.95	223.76
401.33	223.84
401.70	223.97
402.08	224.06
402.45	224.13
402.83	224.23
403.20	224.33
403.58	224.41
403.95	224.53
404.33	224.66
404.71	224.78
405.08	224.95
405.46	225.09
405.83	225.25
406.21	225.42
406.58	225.61
406.96	225.79
407.33	226.00
407.70	226.23
408.08	226.55
408.45	226.82
408.83	227.12
409.20	227.40
409.58	227.65
409.95	227.97
410.33	228.34
410.70	228.67
411.08	229.08
411.45	229.51
411.82	229.94
412.20	230.44
412.57	231.04
412.95	231.50
413.32	232.10
413.69	232.72
414.07	233.37
414.44	234.08
414.82	234.81
415.19	235.67
415.56	236.54
415.94	237.43
416.31	238.44
416.68	239.45
417.06	240.62
417.43	241.72
417.81	243.00
418.18	244.30
418.55	245.72
418.93	247.18
419.30	248.72
419.67	250.36
420.04	252.03
420.42	253.78
420.79	255.82
421.16	257.87
421.54	259.96
421.91	262.14
422.28	264.41
422.66	266.85
423.03	269.18
423.40	271.63
423.77	274.25
424.15	276.94
424.52	279.74
424.89	282.77
425.26	285.79
425.64	288.58
426.01	291.73
426.38	294.95
426.75	298.28
427.13	301.68
427.50	305.24
427.87	308.94
428.24	312.68
428.61	316.26
428.99	320.11
429.36	324.34
429.73	328.40
430.10	332.44
430.47	336.57
430.85	340.82
431.22	345.35
431.59	350.01
431.96	354.55
432.33	359.57
432.70	364.34
433.08	369.97
433.45	375.28
433.82	380.51
434.19	386.36
434.56	392.09
434.93	397.63
435.30	403.09
435.68	409.24
436.05	415.26
436.42	421.29
436.79	426.79
437.16	432.71
437.53	439.05
437.90	445.37
438.27	451.53
438.64	458.22
439.01	464.27
439.38	469.78
439.75	475.10
440.13	481.17
440.50	486.93
440.87	491.46
441.24	496.46
441.61	501.96
441.98	505.97
442.35	510.75
442.72	515.64
443.09	520.33
443.46	523.33
443.83	525.54
444.20	527.40
444.57	530.11
444.94	531.69
445.31	533.33
445.68	534.79
446.05	535.87
446.42	535.66
446.79	535.34
447.16	535.08
447.53	534.86
447.90	533.00
448.27	531.27
448.64	528.58
449.01	526.79
449.37	522.93
449.74	519.42
450.11	514.92
450.48	509.98
450.85	505.01
451.22	500.78
451.59	496.63
451.96	492.86
452.33	487.39
452.70	482.50
453.07	476.55
453.43	470.60
453.80	464.83
454.17	459.30
454.54	454.17
454.91	448.39
455.28	442.95
455.65	437.82
456.02	432.37
456.38	427.98
456.75	422.29
457.12	417.72
457.49	413.11
457.86	408.70
458.23	404.86
458.59	400.60
458.96	396.24
459.33	392.39
459.70	388.47
460.07	385.47
460.43	381.95
460.80	378.65
461.17	375.74
461.54	372.62
461.91	369.70
462.27	366.71
462.64	364.27
463.01	361.47
463.38	358.65
463.74	356.08
464.11	353.79
464.48	351.73
464.85	349.52
465.21	347.83
465.58	345.97
465.95	343.81
466.32	342.08
466.68	340.38
467.05	338.69
467.42	337.05
467.78	335.28
468.15	333.64
468.52	332.44
468.88	330.85
469.25	329.38
469.62	328.21
469.98	326.96
470.35	325.85
470.72	324.84
471.08	323.81
471.45	322.97
471.82	322.03
472.18	321.05
472.55	320.42
472.92	319.65
473.28	319.04
473.65	318.42
474.02	317.83
474.38	317.34
474.75	317.07
475.11	316.66
475.48	316.51
475.85	316.35
476.21	316.28
476.58	316.28
476.94	316.47
477.31	316.59
477.67	316.72
478.04	316.96
478.41	317.30
478.77	317.75
479.14	318.07
479.50	318.61
479.87	319.28
480.23	319.96
480.60	320.61
480.96	321.29
481.33	322.21
481.69	323.15
482.06	324.07
482.42	324.95
482.79	326.01
483.15	327.23
483.52	328.58
483.88	329.91
484.25	331.30
484.61	332.76
484.98	334.33
485.34	336.09
485.71	337.91
486.07	339.85
486.44	341.77
486.80	343.92
487.17	346.12
487.53	348.55
487.90	351.06
488.26	353.80
488.62	356.67
488.99	359.55
489.35	362.57
489.72	365.81
490.08	369.23
490.44	372.74
490.81	376.41
491.17	380.18
491.54	384.21
491.90	388.34
492.26	392.78
492.63	397.45
492.99	402.32
493.36	407.32
493.72	412.58
494.08	417.99
494.45	423.69
494.81	429.59
495.17	435.62
495.54	441.98
495.90	448.65
496.26	455.46
496.63	462.51
496.99	469.85
497.35	477.58
497.72	485.57
498.08	493.72
498.44	502.13
498.80	511.08
499.17	520.24
499.53	529.73
499.89	539.45
500.26	549.37
500.62	559.56
500.98	570.42
501.34	581.40
501.71	592.91
502.07	604.65
502.43	616.81
502.79	629.27
503.16	642.16
503.52	655.21
503.88	668.63
504.24	682.48
504.60	696.60
504.97	711.08
505.33	725.99
505.69	741.78
506.05	757.78
506.41	773.82
506.78	790.16
507.14	806.99
507.50	824.38
507.86	842.19
508.22	860.23
508.59	878.33
508.95	897.15
509.31	916.42
509.67	936.39
510.03	956.57
510.39	976.98
510.75	997.59
511.12	1018.50
511.48	1039.70
511.84	1061.12
512.20	1082.83
512.56	1105.67
512.92	1128.63
513.28	1151.32
513.64	1174.38
514.00	1197.87
514.37	1221.65
514.73	1245.52
515.09	1269.18
515.45	1293.27
515.81	1317.93
516.17	1342.62
516.53	1367.06
516.89	1391.58
517.25	1416.28
517.61	1441.19
517.97	1466.32
518.33	1491.28
518.69	1516.40
519.05	1541.85
519.41	1567.37
519.77	1593.22
520.13	1618.30
520.49	1643.57
520.85	1669.08
521.21	1694.44
521.57	1720.40
521.93	1745.69
522.29	1771.75
522.65	1797.62
523.01	1823.32
523.37	1848.20
523.73	1873.88
524.09	1899.77
524.45	1925.46
524.81	1950.65
525.17	1975.72
525.53	2000.46
525.89	2025.18
526.25	2050.08
526.61	2074.36
526.97	2099.00
527.33	2123.54
527.68	2147.86
528.04	2171.55
528.40	2195.03
528.76	2218.72
529.12	2241.39
529.48	2264.54
529.84	2285.87
530.20	2307.65
530.56	2329.05
530.91	2350.68
531.27	2371.69
531.63	2392.04
531.99	2411.94
532.35	2431.74
532.71	2451.70
533.07	2472.12
533.42	2491.07
533.78	2510.32
534.14	2529.65
534.50	2548.07
534.86	2567.15
535.21	2584.51
535.57	2601.55
535.93	2617.97
536.29	2633.07
536.65	2649.01
537.00	2663.78
537.36	2679.23
537.72	2693.74
538.08	2707.92
538.44	2720.94
538.79	2734.20
539.15	2745.70
539.51	2757.02
539.87	2767.71
540.22	2776.16
540.58	2784.98
540.94	2794.19
541.29	2802.12
541.65	2809.09
542.01	2815.53
542.37	2820.04
542.72	2826.50
543.08	2832.35
543.44	2838.03
543.79	2843.19
544.15	2847.32
544.51	2851.43
544.87	2854.50
545.22	2857.24
545.58	2858.94
545.94	2861.13
546.29	2861.86
546.65	2862.50
547.01	2863.52
547.36	2864.61
547.72	2866.07
548.07	2865.87
548.43	2865.15
548.79	2863.67
549.14	2862.05
549.50	2861.17
549.86	2859.16
550.21	2854.96
550.57	2851.27
550.92	2846.16
551.28	2841.56
551.64	2836.90
551.99	2832.53
552.35	2827.85
552.70	2822.58
553.06	2818.01
553.41	2812.89
553.77	2807.03
554.13	2802.29
554.48	2796.23
554.84	2788.80
555.19	2781.37
555.55	2773.37
555.90	2765.92
556.26	2759.57
556.61	2752.52
556.97	2743.25
557.32	2735.22
557.68	2727.14
558.03	2718.53
558.39	2710.68
558.74	2702.86
559.10	2694.04
559.45	2684.70
559.81	2675.54
560.16	2665.83
560.52	2655.85
560.87	2646.88
561.23	2637.46
561.58	2627.56
561.94	2617.53
562.29	2606.86
562.64	2596.76
563.00	2586.95
563.35	2576.98
563.71	2565.84
564.06	2554.54
564.42	2544.13
564.77	2533.29
565.12	2522.56
565.48	2511.59
565.83	2501.23
566.19	2491.00
566.54	2480.08
566.89	2468.47
567.25	2456.95
567.60	2446.18
567.96	2434.91
568.31	2422.31
568.66	2409.85
569.02	2398.28
569.37	2386.50
569.72	2375.32
570.08	2363.34
570.43	2350.77
570.78	2337.83
571.14	2325.00
571.49	2312.70
571.84	2300.65
572.20	2287.28
572.55	2274.47
572.90	2261.42
573.26	2247.42
573.61	2232.86
573.96	2218.68
574.31	2204.75
574.67	2191.06
575.02	2176.85
575.37	2162.26
575.72	2147.92
576.08	2133.99
576.43	2118.96
576.78	2104.04
577.13	2089.85
577.49	2075.83
577.84	2062.25
578.19	2047.84
578.54	2033.00
578.90	2017.63
579.25	2002.00
579.60	1987.94
579.95	1973.41
580.30	1958.96
580.66	1944.76
581.01	1930.10
581.36	1915.90
581.71	1902.33
582.06	1888.12
582.42	1874.18
582.77	1860.82
583.12	1846.97
583.47	1833.35
583.82	1819.89
584.17	1806.22
584.53	1792.46
584.88	1778.72
585.23	1764.58
585.58	1751.01
585.93	1737.69
586.28	1725.30
586.63	1712.63
586.98	1699.13
587.34	1685.87
587.69	1672.20
588.04	1658.90
588.39	1646.17
588.74	1632.77
589.09	1619.24
589.44	1605.74
589.79	1592.67
590.14	1579.57
590.49	1566.69
590.84	1553.63
591.19	1541.14
591.54	1528.26
591.89	1515.19
592.25	1502.37
592.60	1489.24
592.95	1476.65
593.30	1464.45
593.65	1452.02
594.00	1439.93
594.35	1428.46
594.70	1416.17
595.05	1404.86
595.40	1393.25
595.75	1381.18
596.10	1370.01
596.45	1359.03
596.80	1348.51
597.15	1337.78
597.50	1326.98
597.85	1316.43
598.19	1306.08
598.54	1295.19
598.89	1285.01
599.24	1275.03
599.59	1264.91
599.94	1255.80
600.29	1246.54
600.64	1237.05
600.99	1226.90
601.34	1217.23
601.69	1207.08
602.04	1198.07
602.39	1188.97
602.74	1180.16
603.08	1171.53
603.43	1162.40
603.78	1153.08
604.13	1143.90
604.48	1134.63
604.83	1125.66
605.18	1116.60
605.53	1107.45
605.87	1098.38
606.22	1089.57
606.57	1080.58
606.92	1071.58
607.27	1062.41
607.62	1053.38
607.96	1044.56
608.31	1036.88
608.66	1028.73
609.01	1020.97
609.36	1013.07
609.70	1004.93
610.05	996.66
610.40	988.73
610.75	980.86
611.10	973.26
611.44	965.33
611.79	957.69
612.14	949.65
612.49	941.82
612.83	934.45
613.18	927.17
613.53	919.71
613.88	912.39
614.22	905.70
614.57	898.78
614.92	891.85
615.27	884.93
615.61	877.79
615.96	870.89
616.31	863.91
616.65	856.90
617.00	850.10
617.35	843.43
617.70	836.79
618.04	830.28
618.39	823.76
618.74	817.58
619.08	811.24
619.43	805.13
619.78	799.00
620.12	792.73
620.47	786.64
620.82	780.64
621.16	774.92
621.51	768.83
621.85	762.76
622.20	756.76
622.55	750.92
622.89	744.98
623.24	739.14
623.59	733.39
623.93	727.69
624.28	722.15
624.62	716.57
624.97	710.97
625.32	705.49
625.66	699.89
626.01	694.24
626.35	688.75
626.70	683.33
627.04	678.16
627.39	672.98
627.73	667.92
628.08	663.09
628.43	658.08
628.77	653.12
629.12	648.36
629.46	643.76
629.81	638.97
630.15	634.14
630.50	629.44
630.84	624.92
631.19	620.60
631.53	616.27
631.88	611.88
632.22	607.57
632.57	603.48
632.91	599.34
633.26	595.30
633.60	591.35
633.95	587.54
634.29	583.52
634.64	579.49
634.98	575.36
635.32	571.37
635.67	567.56
636.01	563.72
636.36	559.89
636.70	556.22
637.05	552.54
637.39	549.03
637.73	545.37
638.08	541.81
638.42	538.21
638.77	534.51
639.11	530.74
639.45	527.05
639.80	523.37
640.14	519.87
640.49	516.33
640.83	512.64
641.17	509.03
641.52	505.57
641.86	502.10
642.20	498.84
642.55	495.40
642.89	492.06
643.23	488.91
643.58	486.01
643.92	482.96
644.26	479.95
644.61	476.92
644.95	473.92
645.29	470.84
645.64	467.74
645.98	464.79
646.32	462.05
646.66	459.28
647.01	456.48
647.35	453.74
647.69	450.89
648.04	448.22
648.38	445.53
648.72	442.81
649.06	440.19
649.41	437.60
649.75	434.98
650.09	432.41
650.43	429.82
650.78	427.21
651.12	424.58
651.46	422.07
651.80	419.67
652.14	417.34
652.49	415.04
652.83	412.78
653.17	410.50
653.51	408.29
653.85	406.16
654.20	403.94
654.54	401.66
654.88	399.57
655.22	397.52
655.56	395.46
655.90	393.50
656.25	391.53
656.59	389.55
656.93	387.70
657.27	385.87
657.61	383.95
657.95	382.10
658.29	380.26
658.64	378.41
658.98	376.57
659.32	374.75
659.66	373.03
660.00	371.32
660.34	369.66
660.68	367.94
661.02	366.15
661.36	364.50
661.70	362.90
662.05	361.28
662.39	359.64
662.73	358.10
663.07	356.57
663.41	355.07
663.75	353.62
664.09	352.14
664.43	350.61
664.77	349.18
665.11	347.69
665.45	346.28
665.79	344.87
666.13	343.45
666.47	342.01
666.81	340.56
667.15	339.07
667.49	337.67
667.83	336.33
668.17	335.03
668.51	333.74
668.85	332.48
669.19	331.30
669.53	330.03
669.87	328.74
670.21	327.49
670.55	326.25
670.89	325.08
671.23	323.89
671.57	322.70
671.91	321.57
672.25	320.49
672.58	319.39
672.92	318.29
673.26	317.26
673.60	316.23
673.94	315.17
674.28	314.20
674.62	313.21
674.96	312.17
675.30	311.21
675.64	310.23
675.97	309.25
676.31	308.24
676.65	307.28
676.99	306.38
677.33	305.43
677.67	304.51
678.01	303.52
678.34	302.61
678.68	301.75
679.02	300.85
679.36	299.96
679.70	299.08
680.04	298.22
680.37	297.35
680.71	296.53
681.05	295.75
681.39	294.93
681.73	294.07
682.06	293.26
682.40	292.47
682.74	291.68
683.08	290.93
683.42	290.16
683.75	289.47
684.09	288.69
684.43	287.95
684.77	287.21
685.10	286.52
685.44	285.81
685.78	285.10
686.12	284.41
686.45	283.72
686.79	283.03
687.13	282.35
687.46	281.66
687.80	280.99
688.14	280.28
688.48	279.63
688.81	278.98
689.15	278.38
689.49	277.73
689.82	277.10
690.16	276.41
690.50	275.79
690.83	275.14
691.17	274.53
691.51	273.93
691.84	273.34
692.18	272.72
692.52	272.10
692.85	271.50
693.19	270.94
693.52	270.37
693.86	269.82
694.20	269.26
694.53	268.73
694.87	268.18
695.21	267.64
695.54	267.11
695.88	266.57
696.21	265.99
696.55	265.47
696.88	264.95
697.22	264.45
697.56	263.94
697.89	263.40
698.23	262.88
698.56	262.36
698.90	261.87
699.23	261.38
699.57	260.92
699.90	260.45
700.24	259.94
700.58	259.49
700.91	259.05
701.25	258.69
701.58	258.29
701.92	257.89
702.25	257.46
702.59	257.03
702.92	256.62
703.26	256.23
703.59	255.81
703.93	255.49
704.26	255.11
704.60	254.72
704.93	254.35
705.26	253.97
705.60	253.64
705.93	253.25
706.27	252.92
706.60	252.59
706.94	252.25
707.27	251.87
707.61	251.51
707.94	251.13
708.27	250.69
708.61	250.29
708.94	249.92
709.28	249.58
709.61	249.24
709.94	248.93
710.28	248.62
710.61	248.32
710.95	247.92
711.28	247.68
711.61	247.39
711.95	247.11
712.28	246.82
712.61	246.52
712.95	246.29
713.28	246.05
713.61	245.76
713.95	245.46
714.28	245.21
714.61	244.94
714.95	244.68
715.28	244.42
715.61	244.17
715.95	243.93
716.28	243.68
716.61	243.46
716.95	243.22
717.28	242.98
717.61	242.74
717.94	242.51
718.28	242.21
718.61	241.99
718.94	241.74
719.27	241.52
719.61	241.31
719.94	241.06
720.27	240.80
720.60	240.59
720.94	240.38
721.27	240.19
721.60	240.02
721.93	239.83
722.27	239.67
722.60	239.49
722.93	239.29
723.26	239.10
723.59	238.89
723.93	238.72
724.26	238.54
724.59	238.36
724.92	238.20
725.25	238.06
725.59	237.88
725.92	237.73
726.25	237.57
726.58	237.41
726.91	237.24
727.24	237.10
727.57	236.94
727.91	236.77
728.24	236.63
728.57	236.46
728.90	236.31
729.23	236.13
729.56	236.03
729.89	235.88
730.22	235.73
730.55	235.58
730.89	235.44
731.22	235.30
731.55	235.16
731.88	235.02
732.21	234.86
732.54	234.73
732.87	234.61
733.20	234.49
733.53	234.36
733.86	234.25
734.19	234.11
734.52	234.02
734.85	233.98
735.18	233.83
735.51	233.75
735.84	233.63
736.17	233.54
736.50	233.37
736.83	233.39
737.16	233.28
737.49	233.19
737.82	233.08
738.15	233.00
738.48	232.89
738.81	232.79
739.14	232.67
739.47	232.56
739.80	232.45
740.13	232.37
740.46	232.25
740.79	232.14
741.12	232.05
741.45	231.92
741.78	231.77
742.11	231.71
742.44	231.59
742.77	231.51
743.10	231.40
743.43	231.31
743.75	231.11
744.08	231.18
744.41	231.09
744.74	231.00
745.07	230.89
745.40	230.82
745.73	230.78
746.06	230.71
746.39	230.65
746.71	230.56
747.04	230.47
747.37	230.39
747.70	230.33
748.03	230.26
748.36	230.20
748.68	230.12
749.01	230.02
749.34	229.95
749.67	229.88
750.00	229.83
750.33	229.84
750.65	229.77
750.98	229.55
751.31	229.48
751.64	229.41
751.97	229.40
752.29	229.33
752.62	229.21
752.95	229.12
753.28	229.04
753.60	228.97
753.93	228.92
754.26	228.86
754.59	228.76
754.91	228.68
755.24	228.60
755.57	228.58
755.90	228.51
756.22	228.44
756.55	228.35
756.88	228.27
757.20	228.13
757.53	228.04
757.86	227.98
758.19	227.93
758.51	227.88
758.84	227.77
759.17	227.69
759.49	227.65
759.82	227.65
760.15	227.61
760.47	227.56
760.80	227.48
761.13	227.45
761.45	227.40
761.78	227.36
762.11	227.32
762.43	227.22
762.76	227.17
763.08	227.13
763.41	227.09
763.74	227.06
764.06	227.02
764.39	226.98
764.71	226.95
765.04	226.89
765.37	226.84
765.69	226.80
766.02	226.77
766.34	226.71
766.67	226.63
767.00	226.61
767.32	226.63
767.65	226.65
767.97	226.60
768.30	226.57
768.62	226.52
768.95	226.47
769.27	226.43
769.60	226.41
769.92	226.35
770.25	226.30
770.57	226.24
770.90	226.21
771.22	226.16
771.55	226.12
771.87	226.09
772.20	226.06
772.52	226.12
772.85	226.21
773.17	226.19
773.50	226.15
773.82	226.09
774.15	226.00
774.47	225.91
774.80	225.87
775.12	225.83
775.45	225.81
775.77	225.79
776.09	225.77
776.42	225.75
776.74	225.76
777.07	225.73
777.39	225.71
777.72	225.68
778.04	225.66
778.36	225.63
778.69	225.60
779.01	225.58
779.33	225.45
779.66	225.31
779.98	225.28
780.31	225.25
780.63	225.28
780.95	225.28
781.28	225.26
781.60	225.23
781.92	225.21
782.25	225.18
782.57	225.16
782.89	225.13
783.22	225.09
783.54	225.05
783.86	225.04
784.19	225.02
784.51	225.02
784.83	225.00
785.16	224.97
785.48	224.96
785.80	224.94
786.12	224.94
786.45	224.92
786.77	224.91
787.09	224.88
787.42	224.82
787.74	224.81
788.06	224.79
788.38	224.78
788.71	224.75
789.03	224.75
789.35	224.74
789.67	224.71
789.99	224.71
790.32	224.69
790.64	224.67
790.96	224.76
791.28	224.71
791.61	224.68
791.93	224.68
792.25	224.66
792.57	224.71
792.89	224.68
793.21	224.68
793.54	224.65
793.86	224.63
794.18	224.63
794.50	224.59
794.82	224.57
795.14	224.57
795.47	224.58
795.79	224.57
796.11	224.53
796.43	224.52
796.75	224.50
797.07	224.49
797.39	224.47
797.71	224.37
798.04	224.36
798.36	224.35
798.68	224.34
799.00	224.33
799.32	224.27
799.64	224.28
799.96	224.26
800.28	224.26
800.60	224.24
800.92	224.23
801.24	224.22
801.56	224.22
801.89	224.19
802.21	224.18
802.53	224.16
802.85	224.17
803.17	224.21
803.49	224.18
803.81	224.17
804.13	224.15
804.45	224.13
804.77	224.13
805.09	224.13
805.41	224.11
805.73	224.09
806.05	224.05
806.37	224.03
806.69	224.02
807.01	224.00
807.33	224.00
807.65	223.96
807.97	224.00
808.28	223.97
808.60	223.96
808.92	223.94
809.24	223.99
809.56	223.96
809.88	223.91
810.20	223.91
810.52	223.92
810.84	223.90
811.16	223.88
811.48	223.86
811.80	223.89
812.12	223.88
812.43	223.89
812.75	223.88
813.07	223.87
813.39	223.87
813.71	223.85
814.03	223.83
814.35	223.83
814.67	223.78
814.98	223.77
815.30	223.76
815.62	223.73
815.94	223.65
816.26	223.66
816.58	223.64
816.89	223.64
817.21	223.61
817.53	223.62
817.85	223.62
818.17	223.61
818.48	223.56
818.80	223.57
819.12	223.56
819.44	223.53
819.76	223.52
820.07	223.51
820.39	223.50
820.71	223.51
821.03	223.50
821.34	223.49
821.66	223.49
821.98	223.50
822.30	223.49
822.61	223.56
822.93	223.53
823.25	223.53
823.57	223.51
823.88	223.52
824.20	223.51
824.52	223.52
824.83	223.52
825.15	223.51
825.47	223.49
825.79	223.49
826.10	223.49
826.42	223.48
826.74	223.48
827.05	223.48
827.37	223.48
827.69	223.47
828.00	223.48
828.32	223.47
828.64	223.45
828.95	223.50
829.27	223.47
829.58	223.46
829.90	223.47
830.22	223.48
830.53	223.45
830.85	223.45
831.17	223.42
831.48	223.41
831.80	223.41
832.11	223.40
832.43	223.39
832.75	223.38
833.06	223.45
833.38	223.41
833.69	223.40
834.01	223.40
834.32	223.40
834.64	223.38
834.96	223.38
835.27	223.38
835.59	223.34
835.90	223.33
836.22	223.32
836.53	223.30
836.85	223.28
837.16	223.39
837.48	223.38
837.79	223.41
838.11	223.41
838.42	223.40
838.74	223.41
839.05	223.40
839.37	223.38
839.68	223.31
840.00	223.32
840.31	223.33
840.63	223.32
840.94	223.30
841.26	223.30
841.57	223.29
841.88	223.29
842.20	223.28
842.51	223.26
842.83	223.27
843.14	223.36
843.46	223.36
843.77	223.30
844.08	223.30
844.40	223.26
844.71	223.26
845.03	223.26
845.34	223.25
845.65	223.24
845.97	223.24
846.28	223.24
846.60	223.25
846.91	223.23
847.22	223.22
847.54	223.25
847.85	223.26
848.16	223.24
848.48	223.22
848.79	223.26
849.10	223.27
849.42	223.27
849.73	223.17
850.04	223.17
850.36	223.13
850.67	223.15
850.98	223.14
851.30	223.14
851.61	223.14
851.92	223.14
852.23	223.18
852.55	223.19
852.86	223.20
853.17	223.20
853.49	223.23
853.80	223.25
854.11	223.25
854.42	223.26
854.74	223.25
855.05	223.26
855.36	223.20
855.67	223.20
855.99	223.20
856.30	223.32
856.61	223.32
856.92	223.32
857.23	223.33
857.55	223.32
857.86	223.32
858.17	223.33
858.48	223.31
858.79	223.28
859.11	223.29
859.42	223.28
859.73	223.26
860.04	223.26
860.35	223.23
860.66	223.19
860.98	223.19
861.29	223.21
861.60	223.20
861.91	223.23
862.22	223.21
862.53	223.19
862.84	223.08
863.16	223.10
863.47	223.08
863.78	223.06
864.09	223.07
864.40	223.07
864.71	223.07
865.02	223.08
865.33	223.07
865.64	223.05
865.95	223.05
866.27	223.11
866.58	223.10
866.89	223.10
867.20	223.11
867.51	223.10
867.82	223.09
868.13	223.11
868.44	223.09
868.75	223.11
869.06	223.11
869.37	223.11
869.68	223.09
869.99	223.11
870.30	223.11
870.61	223.12
870.92	223.11
871.23	223.10
871.54	223.11
871.85	223.12
872.16	223.14
872.47	223.13
872.78	223.08
873.09	223.09
873.40	223.08
873.71	223.08
874.02	223.09
874.33	223.08
874.64	223.06
874.95	223.07
875.26	223.05
875.56	223.05
875.87	223.04
876.18	223.03
876.49	223.13
876.80	223.11
877.11	223.09
877.42	223.10
877.73	223.10
878.04	223.08
878.35	223.08
878.66	223.07
878.96	223.07
879.27	223.06
879.58	223.05
879.89	223.04
880.20	223.07
880.51	223.06
880.82	223.06
881.12	223.06
881.43	223.04
881.74	223.03
882.05	223.03
882.36	223.03
882.67	223.04
882.97	222.93
883.28	222.93
883.59	222.93
883.90	222.93
884.21	222.95
884.51	222.94
884.82	222.92
885.13	222.93
885.44	222.92
885.74	222.93
886.05	222.93
886.36	222.94
886.67	222.90
886.98	222.95
887.28	222.96
887.59	222.96
887.90	222.97
888.20	222.96
888.51	222.98
888.82	222.96
889.13	222.96
889.43	223.06
889.74	223.05
890.05	223.05
890.35	223.04
890.66	223.02
890.97	223.01
891.28	223.01
891.58	223.01
891.89	223.01
892.20	222.99
892.50	222.98
892.81	222.97
893.12	222.98
893.42	222.92
893.73	222.93
894.04	222.92
894.34	222.93
894.65	222.93
894.95	222.93
895.26	222.93
895.57	222.97
895.87	222.87
896.18	222.89
896.48	222.90
896.79	222.90
897.10	222.92
897.40	222.92
897.71	222.93
898.01	222.92
898.32	222.93
898.63	222.94
898.93	222.94
899.24	222.94
899.54	222.93
899.85	222.93
900.15	222.92
900.46	222.92
900.76	222.92
901.07	222.92
901.38	222.91
901.68	222.92
901.99	222.86
902.29	222.87
902.60	222.86
902.90	222.85
903.21	222.84
903.51	222.83
903.82	222.86
904.12	222.86
904.43	222.87
904.73	222.86
905.03	222.86
905.34	222.96
905.64	222.94
905.95	222.95
906.25	222.94
906.56	222.94
906.86	222.94
907.17	222.93
907.47	222.94
907.77	222.93
908.08	222.91
908.38	222.92
908.69	222.93
908.99	222.94
909.30	222.94
909.60	222.95
909.90	222.95
910.21	222.92
910.51	222.90
910.81	222.90
911.12	222.89
911.42	222.90
911.73	222.79
912.03	222.81
912.33	222.82
912.64	222.82
912.94	222.81
913.24	222.79
913.55	222.79
913.85	222.78
914.15	222.80
914.46	222.81
914.76	222.80
915.06	222.79
915.37	222.77
915.67	222.77
915.97	222.76
916.27	222.73
916.58	222.74
916.88	222.74
917.18	222.73
917.49	222.80
917.79	222.80
918.09	222.81
918.39	222.83
918.70	222.83
919.00	222.83
919.30	222.87
919.60	222.87
919.91	222.86
920.21	222.86
920.51	222.84
920.81	222.83
921.12	222.84
921.42	222.84
921.72	222.84
922.02	222.85
922.32	222.87
922.63	222.88
922.93	222.93
923.23	222.94
923.53	222.93
923.83	222.87
924.13	222.88
924.44	222.88
924.74	222.89
925.04	222.90
925.34	222.91
925.64	222.87
925.94	222.87
926.24	222.93
926.55	222.92
926.85	222.93
927.15	222.93
927.45	222.94
927.75	222.93
928.05	222.94
928.35	222.94
928.65	222.94
928.95	222.95
929.26	222.90
929.56	222.91
929.86	222.93
930.16	222.91
930.46	222.90
930.76	222.90
931.06	222.86
931.36	222.83
931.66	222.85
931.96	222.86
932.26	222.87
932.56	222.82
932.86	222.83
933.16	222.83
933.46	222.81
933.76	222.80
934.06	222.82
934.36	222.85
934.66	222.84
934.96	222.82
935.26	222.83
935.56	222.84
935.86	222.82
936.16	222.81
936.46	222.80
936.76	222.80
937.06	222.79
937.36	222.80
937.66	222.80
937.96	222.80
938.26	222.77
938.56	222.76
938.86	222.77
939.16	222.80
939.46	222.81
939.76	222.81
940.06	222.81
940.35	222.80
940.65	222.74
940.95	222.75
941.25	222.74
941.55	222.73
941.85	222.72
942.15	222.74
942.45	222.77
942.75	222.77
943.04	222.77
943.34	222.79
943.64	222.77
943.94	222.76
944.24	222.76
944.54	222.77
944.84	222.76
945.13	222.75
945.43	222.73
945.73	222.72
946.03	222.71
946.33	222.71
946.62	222.70
946.92	222.70
947.22	222.70
947.52	222.70
947.82	222.71
948.11	222.71
948.41	222.68
948.71	222.64
949.01	222.65
949.31	222.64
949.60	222.63
949.90	222.65
950.20	222.64
950.50	222.65
950.79	222.64
951.09	222.66
951.39	222.65
951.69	222.64
951.98	222.66
952.28	222.67
952.58	222.67
952.87	222.66
953.17	222.67
953.47	222.66
953.76	222.66
954.06	222.64
954.36	222.62
954.66	222.63
954.95	222.65
955.25	222.66
955.55	222.67
955.84	222.65
956.14	222.66
956.44	222.66
956.73	222.64
957.03	222.64
957.32	222.64
957.62	222.64
957.92	222.66
958.21	222.65
958.51	222.77
958.81	222.78
959.10	222.79
959.40	222.81
959.69	222.82
959.99	222.83
960.29	222.84
960.58	222.84
960.88	222.88
961.17	222.86
961.47	222.86
961.76	222.86
962.06	222.87
962.36	222.86
962.65	222.86
962.95	222.87
963.24	222.86
963.54	222.86
963.83	222.87
964.13	222.86
964.42	222.85
964.72	222.75
965.01	222.75
965.31	222.74
965.60	222.72
965.90	222.78
966.19	222.75
966.49	222.76
966.78	222.76
967.08	222.74
967.37	222.74
967.67	222.73
967.96	222.75
968.26	222.74
968.55	222.75
968.85	222.75
969.14	222.75
969.43	222.75
969.73	222.73
970.02	222.72
970.32	222.72
970.61	222.70
970.91	222.67
971.20	222.65
971.49	222.65
971.79	222.66
972.08	222.58
972.38	222.59
972.67	222.59
972.96	222.60
973.26	222.58
973.55	222.62
973.85	222.62
974.14	222.60
974.43	222.61
974.73	222.59
975.02	222.58
975.31	222.58
975.61	222.58
975.90	222.56
976.19	222.56
976.49	222.57
976.78	222.58
977.07	222.57
977.37	222.58
977.66	222.60
977.95	222.58
978.24	222.59
978.54	222.61
978.83	222.60
979.12	222.59
979.42	222.59
979.71	222.57
980.00	222.57
980.29	222.57
980.59	222.55
980.88	222.58
981.17	222.59
981.46	222.58
981.76	222.58
982.05	222.62
982.34	222.63
982.63	222.63
982.93	222.62
983.22	222.65
983.51	222.66
983.80	222.67
984.09	222.69
984.39	222.69
984.68	222.67
984.97	222.68
985.26	222.67
985.55	222.68
985.85	222.66
986.14	222.68
986.43	222.69
986.72	222.69
987.01	222.66
987.30	222.65
987.59	222.65
987.89	222.65
988.18	222.62
988.47	222.62
988.76	222.61
989.05	222.60
989.34	222.59
989.63	222.61
989.92	222.59
990.22	222.57
990.51	222.57
990.80	222.56
991.09	222.57
991.38	222.58
991.67	222.56
991.96	222.55
992.25	222.56
992.54	222.54
992.83	222.53
993.12	222.53
993.41	222.56
993.70	222.60
993.99	222.61
994.28	222.63
994.58	222.64
994.87	222.63
995.16	222.62
995.45	222.61
995.74	222.57
996.03	222.59
996.32	222.60
996.61	222.63
996.90	222.63
997.19	222.62
997.48	222.62
997.77	222.61
998.06	222.62
998.34	222.60
998.63	222.60
998.92	222.61
999.21	222.63
999.50	222.63
999.79	222.60
1000.08	222.59
1000.37	222.59
1000.66	222.57
1000.95	222.60
1001.24	222.61
1001.53	222.62
1001.82	222.62
1002.11	222.60
1002.40	222.61
1002.68	222.64
1002.97	222.71
1003.26	222.70
1003.55	222.68
1003.84	222.69
1004.13	222.73
1004.42	222.73
1004.71	222.73
1004.99	222.72
1005.28	222.73
1005.57	222.73
1005.86	222.71
1006.15	222.71
1006.44	222.69
1006.72	222.71
1007.01	222.69
1007.30	222.70
1007.59	222.69
1007.88	222.68
1008.17	222.68
1008.45	222.66
1008.74	222.62
1009.03	222.57
1009.32	222.58
1009.60	222.58
1009.89	222.57
1010.18	222.53
1010.47	222.52
1010.76	222.52
1011.04	222.52
1011.33	222.51
1011.62	222.52
1011.91	222.53
1012.19	222.53
1012.48	222.54
1012.77	222.54
1013.05	222.58
1013.34	222.58
1013.63	222.57
1013.92	222.58
1014.20	222.57
1014.49	222.58
1014.78	222.59
1015.06	222.56
1015.35	222.57
1015.64	222.57
1015.92	222.59
1016.21	222.60
1016.50	222.61
1016.78	222.62
1017.07	222.62
1017.36	222.61
1017.64	222.59
1017.93	222.60
1018.22	222.59
1018.50	222.58
1018.79	222.58
1019.08	222.54
1019.36	222.54
1019.65	222.53
1019.93	222.56
1020.22	222.58
1020.51	222.63
1020.79	222.62
1021.08	222.32
1021.36	222.39
1021.65	222.61
1021.94	222.50
1022.22	222.62
1022.51	222.38
1022.79	223.17
1023.08	222.61
1023.36	223.84
1023.65	222.33
>>>>>End Processed Spectral Data<<<<<
