SpectraSuite Data File
++++++++++++++++++++++++++++++++++++
Date: Wed Sep 30 14:33:15 EDT 2015
User: lab3
Dark Spectrum Present: No
Reference Spectrum Present: No
Number of Sampled Component Spectra: 1
Spectrometers: USB2E7196
Integration Time (usec): 36000 (USB2E7196)
Spectra Averaged: 1500 (USB2E7196)
Boxcar Smoothing: 10 (USB2E7196)
Correct for Electrical Dark: No (USB2E7196)
Strobe/Lamp Enabled: No (USB2E7196)
Correct for Detector Non-linearity: No (USB2E7196)
Correct for Stray Light: No (USB2E7196)
Number of Pixels in Processed Spectrum: 2048
>>>>>Begin Processed Spectral Data<<<<<
339.09	0.00
339.48	211.51
339.86	212.88
340.24	214.32
340.63	215.74
341.01	218.68
341.39	218.36
341.78	219.76
342.16	220.92
342.54	221.39
342.93	209.98
343.31	220.59
343.69	221.13
344.07	221.59
344.46	222.02
344.84	222.41
345.22	222.65
345.60	222.91
345.99	223.10
346.37	223.23
346.75	223.34
347.13	223.41
347.52	223.48
347.90	223.55
348.28	223.59
348.66	223.64
349.05	223.62
349.43	223.68
349.81	223.73
350.19	223.77
350.57	223.83
350.96	223.91
351.34	224.01
351.72	224.10
352.10	224.20
352.48	224.27
352.87	224.32
353.25	224.38
353.63	224.44
354.01	224.50
354.39	224.58
354.77	224.66
355.15	224.77
355.54	224.82
355.92	224.85
356.30	224.93
356.68	225.07
357.06	225.15
357.44	225.20
357.82	225.25
358.20	225.37
358.58	225.43
358.97	225.50
359.35	225.57
359.73	225.65
360.11	225.71
360.49	225.76
360.87	225.82
361.25	225.88
361.63	225.96
362.01	226.01
362.39	226.05
362.77	226.08
363.15	226.11
363.53	226.15
363.91	226.19
364.29	226.21
364.67	226.15
365.05	226.17
365.43	226.20
365.81	226.23
366.19	226.25
366.57	226.30
366.95	226.30
367.33	226.28
367.71	226.26
368.09	226.29
368.47	226.28
368.85	226.28
369.23	226.29
369.61	226.24
369.99	226.26
370.37	226.25
370.75	226.32
371.13	226.29
371.51	226.25
371.89	226.22
372.27	226.18
372.65	226.16
373.03	226.12
373.41	226.08
373.78	226.03
374.16	225.94
374.54	225.86
374.92	225.81
375.30	225.77
375.68	225.71
376.06	225.67
376.44	225.61
376.82	225.56
377.19	225.51
377.57	225.46
377.95	225.37
378.33	225.30
378.71	225.15
379.09	225.10
379.47	225.07
379.84	225.01
380.22	224.95
380.60	224.88
380.98	224.83
381.36	224.77
381.73	224.72
382.11	224.69
382.49	224.65
382.87	224.59
383.25	224.54
383.62	224.61
384.00	224.55
384.38	224.50
384.76	224.47
385.13	224.46
385.51	224.41
385.89	224.36
386.27	224.32
386.64	224.31
387.02	224.26
387.40	224.21
387.78	224.18
388.15	224.15
388.53	224.12
388.91	224.10
389.29	224.07
389.66	224.06
390.04	224.02
390.42	224.01
390.79	224.00
391.17	223.98
391.55	223.85
391.92	223.84
392.30	223.84
392.68	223.81
393.05	223.79
393.43	223.79
393.81	223.79
394.18	223.78
394.56	223.78
394.94	223.80
395.31	223.80
395.69	223.83
396.06	223.86
396.44	223.88
396.82	223.88
397.19	223.95
397.57	223.95
397.95	223.99
398.32	223.98
398.70	224.01
399.07	224.07
399.45	224.11
399.82	224.15
400.20	224.19
400.58	224.24
400.95	224.25
401.33	224.33
401.70	224.46
402.08	224.55
402.45	224.63
402.83	224.73
403.20	224.84
403.58	224.93
403.95	225.04
404.33	225.17
404.71	225.29
405.08	225.47
405.46	225.62
405.83	225.77
406.21	225.94
406.58	226.14
406.96	226.31
407.33	226.53
407.70	226.77
408.08	227.09
408.45	227.38
408.83	227.68
409.20	227.97
409.58	228.22
409.95	228.57
410.33	228.94
410.70	229.29
411.08	229.70
411.45	230.14
411.82	230.60
412.20	231.10
412.57	231.71
412.95	232.19
413.32	232.81
413.69	233.45
414.07	234.13
414.44	234.85
414.82	235.61
415.19	236.49
415.56	237.38
415.94	238.30
416.31	239.34
416.68	240.39
417.06	241.60
417.43	242.74
417.81	244.03
418.18	245.37
418.55	246.82
418.93	248.33
419.30	249.90
419.67	251.57
420.04	253.30
420.42	255.10
420.79	257.20
421.16	259.30
421.54	261.44
421.91	263.67
422.28	266.00
422.66	268.51
423.03	270.91
423.40	273.42
423.77	276.12
424.15	278.89
424.52	281.76
424.89	284.87
425.26	287.96
425.64	290.85
426.01	294.09
426.38	297.40
426.75	300.83
427.13	304.35
427.50	308.02
427.87	311.85
428.24	315.72
428.61	319.41
428.99	323.40
429.36	327.77
429.73	331.95
430.10	336.12
430.47	340.39
430.85	344.78
431.22	349.44
431.59	354.22
431.96	358.91
432.33	364.12
432.70	369.04
433.08	374.88
433.45	380.37
433.82	385.78
434.19	391.83
434.56	397.77
434.93	403.51
435.30	409.18
435.68	415.53
436.05	421.74
436.42	427.97
436.79	433.63
437.16	439.79
437.53	446.36
437.90	452.92
438.27	459.32
438.64	466.23
439.01	472.50
439.38	478.24
439.75	483.74
440.13	489.97
440.50	495.88
440.87	500.57
441.24	505.72
441.61	511.35
441.98	515.46
442.35	520.40
442.72	525.43
443.09	530.20
443.46	533.26
443.83	535.53
444.20	537.40
444.57	540.15
444.94	541.74
445.31	543.39
445.68	544.84
446.05	545.86
446.42	545.64
446.79	545.34
447.16	545.05
447.53	544.80
447.90	542.93
448.27	541.17
448.64	538.37
449.01	536.54
449.37	532.61
449.74	529.02
450.11	524.40
450.48	519.33
450.85	514.23
451.22	509.89
451.59	505.61
451.96	501.74
452.33	496.11
452.70	491.09
453.07	484.98
453.43	478.86
453.80	472.94
454.17	467.21
454.54	461.88
454.91	455.92
455.28	450.29
455.65	444.98
456.02	439.34
456.38	434.82
456.75	428.94
457.12	424.24
457.49	419.51
457.86	414.98
458.23	410.99
458.59	406.61
458.96	402.12
459.33	398.21
459.70	394.21
460.07	391.18
460.43	387.58
460.80	384.23
461.17	381.28
461.54	378.11
461.91	375.14
462.27	372.11
462.64	369.63
463.01	366.79
463.38	363.95
463.74	361.36
464.11	359.04
464.48	356.97
464.85	354.72
465.21	352.98
465.58	351.07
465.95	348.88
466.32	347.14
466.68	345.44
467.05	343.69
467.42	342.01
467.78	340.19
468.15	338.53
468.52	337.29
468.88	335.65
469.25	334.16
469.62	332.97
469.98	331.70
470.35	330.56
470.72	329.54
471.08	328.50
471.45	327.64
471.82	326.68
472.18	325.66
472.55	325.02
472.92	324.25
473.28	323.63
473.65	322.99
474.02	322.38
474.38	321.87
474.75	321.59
475.11	321.17
475.48	321.01
475.85	320.84
476.21	320.80
476.58	320.81
476.94	321.03
477.31	321.15
477.67	321.29
478.04	321.54
478.41	321.87
478.77	322.33
479.14	322.65
479.50	323.21
479.87	323.91
480.23	324.60
480.60	325.29
480.96	325.99
481.33	326.97
481.69	327.93
482.06	328.90
482.42	329.82
482.79	330.95
483.15	332.25
483.52	333.69
483.88	335.08
484.25	336.55
484.61	338.08
484.98	339.72
485.34	341.57
485.71	343.48
486.07	345.52
486.44	347.57
486.80	349.82
487.17	352.12
487.53	354.64
487.90	357.26
488.26	360.07
488.62	363.06
488.99	366.07
489.35	369.23
489.72	372.64
490.08	376.21
490.44	379.87
490.81	383.69
491.17	387.61
491.54	391.78
491.90	396.03
492.26	400.59
492.63	405.39
492.99	410.41
493.36	415.58
493.72	421.05
494.08	426.66
494.45	432.57
494.81	438.69
495.17	444.91
495.54	451.54
495.90	458.51
496.26	465.59
496.63	472.86
496.99	480.42
497.35	488.28
497.72	496.45
498.08	504.82
498.44	513.43
498.80	522.55
499.17	531.99
499.53	541.73
499.89	551.73
500.26	561.91
500.62	572.30
500.98	583.33
501.34	594.50
501.71	606.17
502.07	618.08
502.43	630.40
502.79	643.17
503.16	656.25
503.52	669.46
503.88	683.14
504.24	697.19
504.60	711.47
504.97	726.18
505.33	741.25
505.69	757.03
506.05	773.09
506.41	789.35
506.78	805.85
507.14	822.89
507.50	840.29
507.86	858.03
508.22	876.06
508.59	894.19
508.95	912.87
509.31	932.02
509.67	951.96
510.03	972.04
510.39	992.22
510.75	1012.56
511.12	1033.27
511.48	1054.15
511.84	1075.40
512.20	1096.88
512.56	1119.17
512.92	1141.58
513.28	1163.96
513.64	1186.62
514.00	1209.64
514.37	1233.22
514.73	1256.79
515.09	1280.13
515.45	1303.73
515.81	1327.55
516.17	1351.49
516.53	1375.34
516.89	1398.96
517.25	1422.53
517.61	1446.29
517.97	1470.36
518.33	1494.46
518.69	1518.70
519.05	1543.27
519.41	1567.76
519.77	1592.66
520.13	1616.83
520.49	1641.02
520.85	1665.16
521.21	1689.36
521.57	1714.02
521.93	1737.88
522.29	1762.14
522.65	1786.32
523.01	1810.51
523.37	1834.08
523.73	1858.29
524.09	1882.24
524.45	1906.34
524.81	1930.28
525.17	1953.71
525.53	1976.89
525.89	1999.90
526.25	2022.95
526.61	2044.63
526.97	2066.60
527.33	2088.30
527.68	2110.01
528.04	2131.36
528.40	2152.61
528.76	2173.49
529.12	2193.77
529.48	2214.66
529.84	2233.50
530.20	2252.79
530.56	2271.52
530.91	2290.98
531.27	2309.82
531.63	2327.94
531.99	2345.54
532.35	2362.64
532.71	2380.67
533.07	2398.91
533.42	2415.40
533.78	2432.43
534.14	2449.92
534.50	2466.56
534.86	2483.68
535.21	2498.78
535.57	2513.81
535.93	2528.36
536.29	2542.26
536.65	2555.65
537.00	2567.85
537.36	2581.07
537.72	2593.11
538.08	2605.17
538.44	2615.84
538.79	2625.95
539.15	2635.10
539.51	2644.29
539.87	2652.45
540.22	2658.12
540.58	2663.91
540.94	2670.50
541.29	2675.81
541.65	2680.95
542.01	2685.85
542.37	2688.63
542.72	2692.90
543.08	2696.25
543.44	2699.24
543.79	2701.66
544.15	2703.57
544.51	2705.00
544.87	2706.39
545.22	2707.25
545.58	2706.97
545.94	2706.72
546.29	2705.35
546.65	2704.29
547.01	2702.96
547.36	2702.14
547.72	2701.69
548.07	2700.03
548.43	2696.84
548.79	2693.40
549.14	2689.94
549.50	2686.57
549.86	2683.16
550.21	2678.50
550.57	2674.21
550.92	2668.72
551.28	2663.16
551.64	2657.61
551.99	2652.19
552.35	2645.57
552.70	2639.17
553.06	2633.61
553.41	2627.65
553.77	2621.51
554.13	2615.38
554.48	2607.90
554.84	2599.49
555.19	2590.96
555.55	2581.83
555.90	2573.89
556.26	2566.12
556.61	2557.43
556.97	2547.37
557.32	2537.51
557.68	2527.77
558.03	2517.64
558.39	2508.48
558.74	2500.02
559.10	2490.09
559.45	2480.10
559.81	2470.62
560.16	2460.59
560.52	2450.11
560.87	2439.92
561.23	2429.15
561.58	2418.80
561.94	2408.47
562.29	2397.72
562.64	2387.50
563.00	2377.48
563.35	2367.31
563.71	2356.25
564.06	2345.54
564.42	2335.09
564.77	2324.53
565.12	2313.86
565.48	2302.83
565.83	2291.35
566.19	2279.54
566.54	2268.45
566.89	2256.50
567.25	2244.48
567.60	2233.52
567.96	2221.98
568.31	2209.42
568.66	2197.37
569.02	2185.50
569.37	2174.06
569.72	2163.41
570.08	2151.63
570.43	2139.52
570.78	2127.23
571.14	2114.99
571.49	2102.37
571.84	2090.07
572.20	2076.88
572.55	2063.75
572.90	2051.14
573.26	2038.96
573.61	2025.86
573.96	2013.12
574.31	2000.76
574.67	1988.42
575.02	1975.00
575.37	1961.62
575.72	1948.71
576.08	1935.81
576.43	1922.38
576.78	1908.90
577.13	1895.16
577.49	1881.83
577.84	1868.64
578.19	1855.50
578.54	1842.06
578.90	1828.40
579.25	1814.46
579.60	1801.77
579.95	1789.18
580.30	1776.39
580.66	1763.00
581.01	1749.76
581.36	1736.13
581.71	1723.02
582.06	1710.03
582.42	1697.36
582.77	1684.72
583.12	1672.36
583.47	1660.30
583.82	1647.82
584.17	1634.62
584.53	1621.73
584.88	1609.03
585.23	1596.25
585.58	1583.48
585.93	1571.13
586.28	1559.37
586.63	1547.53
586.98	1535.13
587.34	1522.91
587.69	1510.12
588.04	1497.81
588.39	1485.93
588.74	1473.83
589.09	1462.05
589.44	1449.57
589.79	1437.29
590.14	1425.17
590.49	1413.01
590.84	1400.93
591.19	1389.53
591.54	1378.16
591.89	1366.50
592.25	1355.36
592.60	1343.88
592.95	1332.79
593.30	1321.57
593.65	1310.45
594.00	1299.49
594.35	1289.00
594.70	1277.76
595.05	1267.42
595.40	1256.75
595.75	1245.91
596.10	1235.73
596.45	1225.16
596.80	1215.32
597.15	1205.62
597.50	1195.83
597.85	1186.39
598.19	1176.90
598.54	1167.10
598.89	1157.91
599.24	1149.06
599.59	1140.08
599.94	1131.71
600.29	1123.00
600.64	1114.37
600.99	1105.09
601.34	1096.36
601.69	1087.44
602.04	1079.39
602.39	1070.96
602.74	1063.01
603.08	1055.34
603.43	1047.40
603.78	1039.41
604.13	1031.47
604.48	1023.35
604.83	1015.53
605.18	1007.53
605.53	999.45
605.87	991.39
606.22	983.60
606.57	975.58
606.92	967.43
607.27	959.48
607.62	951.78
607.96	944.16
608.31	937.55
608.66	930.69
609.01	923.81
609.36	916.88
609.70	909.96
610.05	902.91
610.40	895.95
610.75	888.86
611.10	882.24
611.44	875.38
611.79	868.83
612.14	862.14
612.49	855.31
612.83	848.95
613.18	842.76
613.53	836.63
613.88	830.61
614.22	824.82
614.57	818.81
614.92	812.90
615.27	807.07
615.61	800.81
615.96	794.62
616.31	788.65
616.65	782.48
617.00	776.45
617.35	770.44
617.70	764.58
618.04	758.89
618.39	753.01
618.74	747.46
619.08	741.75
619.43	736.17
619.78	730.75
620.12	725.14
620.47	719.71
620.82	714.29
621.16	708.98
621.51	703.55
621.85	698.18
622.20	692.70
622.55	687.29
622.89	682.01
623.24	676.88
623.59	671.84
623.93	667.08
624.28	662.44
624.62	657.80
624.97	653.07
625.32	648.40
625.66	643.56
626.01	638.70
626.35	634.01
626.70	629.31
627.04	624.90
627.39	620.48
627.73	616.04
628.08	611.70
628.43	607.35
628.77	603.07
629.12	598.87
629.46	594.82
629.81	590.69
630.15	586.58
630.50	582.56
630.84	578.57
631.19	574.66
631.53	570.85
631.88	567.02
632.22	563.12
632.57	559.47
632.91	555.89
633.26	552.29
633.60	548.69
633.95	545.21
634.29	541.62
634.64	538.09
634.98	534.49
635.32	530.98
635.67	527.70
636.01	524.43
636.36	521.13
636.70	517.98
637.05	514.86
637.39	511.78
637.73	508.50
638.08	505.33
638.42	502.19
638.77	498.95
639.11	495.63
639.45	492.43
639.80	489.22
640.14	486.13
640.49	483.12
640.83	480.06
641.17	477.05
641.52	474.03
641.86	470.97
642.20	468.06
642.55	465.06
642.89	462.09
643.23	459.23
643.58	456.60
643.92	453.83
644.26	451.11
644.61	448.44
644.95	445.81
645.29	443.07
645.64	440.30
645.98	437.63
646.32	435.08
646.66	432.56
647.01	430.09
647.35	427.75
647.69	425.28
648.04	422.89
648.38	420.48
648.72	418.12
649.06	415.80
649.41	413.54
649.75	411.31
650.09	409.01
650.43	406.77
650.78	404.48
651.12	402.21
651.46	400.02
651.80	397.88
652.14	395.82
652.49	393.82
652.83	391.84
653.17	389.90
653.51	388.03
653.85	386.19
654.20	384.28
654.54	382.25
654.88	380.33
655.22	378.46
655.56	376.63
655.90	374.86
656.25	373.12
656.59	371.35
656.93	369.69
657.27	368.11
657.61	366.42
657.95	364.79
658.29	363.22
658.64	361.68
658.98	360.03
659.32	358.37
659.66	356.81
660.00	355.27
660.34	353.74
660.68	352.19
661.02	350.62
661.36	349.10
661.70	347.64
662.05	346.24
662.39	344.85
662.73	343.50
663.07	342.21
663.41	340.93
663.75	339.64
664.09	338.37
664.43	337.02
664.77	335.73
665.11	334.37
665.45	333.07
665.79	331.78
666.13	330.58
666.47	329.40
666.81	328.19
667.15	326.94
667.49	325.75
667.83	324.60
668.17	323.46
668.51	322.35
668.85	321.27
669.19	320.22
669.53	319.07
669.87	317.88
670.21	316.75
670.55	315.64
670.89	314.62
671.23	313.56
671.57	312.53
671.91	311.58
672.25	310.68
672.58	309.77
672.92	308.83
673.26	307.94
673.60	307.03
673.94	306.14
674.28	305.29
674.62	304.42
674.96	303.50
675.30	302.67
675.64	301.83
675.97	301.00
676.31	300.13
676.65	299.33
676.99	298.61
677.33	297.79
677.67	297.00
678.01	296.14
678.34	295.35
678.68	294.58
679.02	293.78
679.36	292.98
679.70	292.19
680.04	291.41
680.37	290.63
680.71	289.90
681.05	289.21
681.39	288.49
681.73	287.77
682.06	287.08
682.40	286.38
682.74	285.69
683.08	285.03
683.42	284.35
683.75	283.71
684.09	283.01
684.43	282.37
684.77	281.71
685.10	281.10
685.44	280.47
685.78	279.86
686.12	279.27
686.45	278.68
686.79	278.07
687.13	277.49
687.46	276.87
687.80	276.27
688.14	275.65
688.48	275.08
688.81	274.48
689.15	273.94
689.49	273.35
689.82	272.77
690.16	272.14
690.50	271.56
690.83	270.97
691.17	270.40
691.51	269.85
691.84	269.32
692.18	268.77
692.52	268.22
692.85	267.67
693.19	267.16
693.52	266.63
693.86	266.11
694.20	265.60
694.53	265.11
694.87	264.59
695.21	264.08
695.54	263.57
695.88	263.06
696.21	262.53
696.55	262.06
696.88	261.58
697.22	261.12
697.56	260.68
697.89	260.23
698.23	259.80
698.56	259.36
698.90	258.95
699.23	258.53
699.57	258.12
699.90	257.70
700.24	257.24
700.58	256.84
700.91	256.47
701.25	256.16
701.58	255.80
701.92	255.45
702.25	255.07
702.59	254.68
702.92	254.32
703.26	253.96
703.59	253.59
703.93	253.33
704.26	252.98
704.60	252.60
704.93	252.23
705.26	251.87
705.60	251.55
705.93	251.17
706.27	250.88
706.60	250.56
706.94	250.29
707.27	249.95
707.61	249.61
707.94	249.27
708.27	248.87
708.61	248.51
708.94	248.19
709.28	247.88
709.61	247.59
709.94	247.32
710.28	247.04
710.61	246.79
710.95	246.43
711.28	246.23
711.61	245.96
711.95	245.74
712.28	245.46
712.61	245.18
712.95	244.96
713.28	244.74
713.61	244.47
713.95	244.18
714.28	243.93
714.61	243.68
714.95	243.44
715.28	243.19
715.61	242.97
715.95	242.75
716.28	242.52
716.61	242.33
716.95	242.09
717.28	241.88
717.61	241.65
717.94	241.43
718.28	241.15
718.61	240.96
718.94	240.74
719.27	240.56
719.61	240.38
719.94	240.15
720.27	239.91
720.60	239.71
720.94	239.52
721.27	239.35
721.60	239.19
721.93	239.02
722.27	238.87
722.60	238.70
722.93	238.50
723.26	238.33
723.59	238.12
723.93	237.96
724.26	237.80
724.59	237.64
724.92	237.48
725.25	237.35
725.59	237.19
725.92	237.05
726.25	236.89
726.58	236.75
726.91	236.61
727.24	236.48
727.57	236.34
727.91	236.18
728.24	236.05
728.57	235.89
728.90	235.78
729.23	235.62
729.56	235.53
729.89	235.40
730.22	235.27
730.55	235.15
730.89	235.02
731.22	234.88
731.55	234.75
731.88	234.62
732.21	234.49
732.54	234.36
732.87	234.24
733.20	234.14
733.53	234.02
733.86	233.91
734.19	233.78
734.52	233.70
734.85	233.67
735.18	233.55
735.51	233.49
735.84	233.38
736.17	233.30
736.50	233.13
736.83	233.14
737.16	233.04
737.49	232.95
737.82	232.85
738.15	232.78
738.48	232.70
738.81	232.60
739.14	232.50
739.47	232.40
739.80	232.29
740.13	232.21
740.46	232.10
740.79	231.99
741.12	231.89
741.45	231.76
741.78	231.60
742.11	231.53
742.44	231.42
742.77	231.33
743.10	231.23
743.43	231.15
743.75	230.96
744.08	231.05
744.41	230.96
744.74	230.88
745.07	230.77
745.40	230.71
745.73	230.67
746.06	230.60
746.39	230.54
746.71	230.46
747.04	230.37
747.37	230.31
747.70	230.26
748.03	230.21
748.36	230.16
748.68	230.08
749.01	229.99
749.34	229.93
749.67	229.87
750.00	229.82
750.33	229.83
750.65	229.78
750.98	229.57
751.31	229.51
751.64	229.45
751.97	229.44
752.29	229.37
752.62	229.26
752.95	229.20
753.28	229.12
753.60	229.07
753.93	229.04
754.26	228.99
754.59	228.89
754.91	228.82
755.24	228.75
755.57	228.74
755.90	228.68
756.22	228.60
756.55	228.53
756.88	228.46
757.20	228.33
757.53	228.24
757.86	228.18
758.19	228.13
758.51	228.07
758.84	227.97
759.17	227.91
759.49	227.87
759.82	227.87
760.15	227.83
760.47	227.78
760.80	227.71
761.13	227.66
761.45	227.63
761.78	227.59
762.11	227.54
762.43	227.43
762.76	227.39
763.08	227.36
763.41	227.33
763.74	227.29
764.06	227.25
764.39	227.22
764.71	227.16
765.04	227.12
765.37	227.07
765.69	227.02
766.02	226.98
766.34	226.93
766.67	226.86
767.00	226.84
767.32	226.85
767.65	226.87
767.97	226.83
768.30	226.79
768.62	226.75
768.95	226.70
769.27	226.68
769.60	226.66
769.92	226.61
770.25	226.56
770.57	226.51
770.90	226.47
771.22	226.43
771.55	226.40
771.87	226.37
772.20	226.34
772.52	226.39
772.85	226.48
773.17	226.45
773.50	226.41
773.82	226.36
774.15	226.27
774.47	226.18
774.80	226.15
775.12	226.13
775.45	226.10
775.77	226.07
776.09	226.05
776.42	226.03
776.74	226.02
777.07	225.99
777.39	225.97
777.72	225.95
778.04	225.93
778.36	225.90
778.69	225.88
779.01	225.86
779.33	225.75
779.66	225.61
779.98	225.57
780.31	225.55
780.63	225.58
780.95	225.59
781.28	225.56
781.60	225.53
781.92	225.51
782.25	225.48
782.57	225.46
782.89	225.44
783.22	225.41
783.54	225.37
783.86	225.37
784.19	225.34
784.51	225.36
784.83	225.32
785.16	225.30
785.48	225.29
785.80	225.28
786.12	225.27
786.45	225.25
786.77	225.26
787.09	225.24
787.42	225.18
787.74	225.17
788.06	225.16
788.38	225.14
788.71	225.12
789.03	225.11
789.35	225.11
789.67	225.09
789.99	225.08
790.32	225.06
790.64	225.05
790.96	225.14
791.28	225.09
791.61	225.08
791.93	225.07
792.25	225.05
792.57	225.12
792.89	225.09
793.21	225.08
793.54	225.04
793.86	225.03
794.18	225.02
794.50	224.99
794.82	224.98
795.14	224.99
795.47	224.99
795.79	224.97
796.11	224.93
796.43	224.91
796.75	224.91
797.07	224.90
797.39	224.89
797.71	224.78
798.04	224.77
798.36	224.77
798.68	224.75
799.00	224.74
799.32	224.68
799.64	224.69
799.96	224.68
800.28	224.71
800.60	224.69
800.92	224.69
801.24	224.68
801.56	224.67
801.89	224.65
802.21	224.66
802.53	224.64
802.85	224.66
803.17	224.70
803.49	224.66
803.81	224.65
804.13	224.64
804.45	224.63
804.77	224.63
805.09	224.62
805.41	224.60
805.73	224.58
806.05	224.53
806.37	224.52
806.69	224.50
807.01	224.47
807.33	224.47
807.65	224.43
807.97	224.46
808.28	224.43
808.60	224.43
808.92	224.40
809.24	224.46
809.56	224.43
809.88	224.39
810.20	224.39
810.52	224.41
810.84	224.38
811.16	224.36
811.48	224.35
811.80	224.37
812.12	224.36
812.43	224.38
812.75	224.38
813.07	224.37
813.39	224.37
813.71	224.36
814.03	224.34
814.35	224.33
814.67	224.28
814.98	224.28
815.30	224.27
815.62	224.25
815.94	224.18
816.26	224.18
816.58	224.16
816.89	224.18
817.21	224.14
817.53	224.15
817.85	224.15
818.17	224.14
818.48	224.10
818.80	224.13
819.12	224.10
819.44	224.08
819.76	224.06
820.07	224.06
820.39	224.05
820.71	224.05
821.03	224.05
821.34	224.05
821.66	224.05
821.98	224.05
822.30	224.04
822.61	224.09
822.93	224.07
823.25	224.06
823.57	224.04
823.88	224.06
824.20	224.05
824.52	224.07
824.83	224.06
825.15	224.05
825.47	224.03
825.79	224.03
826.10	224.03
826.42	224.02
826.74	224.03
827.05	224.03
827.37	224.04
827.69	224.03
828.00	224.03
828.32	224.03
828.64	224.02
828.95	224.07
829.27	224.04
829.58	224.04
829.90	224.05
830.22	224.06
830.53	224.04
830.85	224.02
831.17	223.99
831.48	223.98
831.80	223.98
832.11	223.97
832.43	223.95
832.75	223.95
833.06	224.00
833.38	223.96
833.69	223.95
834.01	223.94
834.32	223.93
834.64	223.92
834.96	223.92
835.27	223.92
835.59	223.87
835.90	223.85
836.22	223.84
836.53	223.81
836.85	223.79
837.16	223.89
837.48	223.90
837.79	223.92
838.11	223.92
838.42	223.91
838.74	223.92
839.05	223.92
839.37	223.91
839.68	223.85
840.00	223.85
840.31	223.86
840.63	223.85
840.94	223.84
841.26	223.82
841.57	223.82
841.88	223.82
842.20	223.81
842.51	223.78
842.83	223.78
843.14	223.87
843.46	223.86
843.77	223.79
844.08	223.77
844.40	223.75
844.71	223.74
845.03	223.72
845.34	223.71
845.65	223.71
845.97	223.70
846.28	223.71
846.60	223.71
846.91	223.68
847.22	223.68
847.54	223.70
847.85	223.71
848.16	223.69
848.48	223.67
848.79	223.71
849.10	223.74
849.42	223.74
849.73	223.65
850.04	223.65
850.36	223.63
850.67	223.64
850.98	223.64
851.30	223.66
851.61	223.66
851.92	223.65
852.23	223.67
852.55	223.68
852.86	223.68
853.17	223.69
853.49	223.71
853.80	223.73
854.11	223.73
854.42	223.74
854.74	223.73
855.05	223.74
855.36	223.68
855.67	223.67
855.99	223.68
856.30	223.80
856.61	223.80
856.92	223.79
857.23	223.80
857.55	223.78
857.86	223.77
858.17	223.78
858.48	223.77
858.79	223.74
859.11	223.75
859.42	223.74
859.73	223.73
860.04	223.73
860.35	223.70
860.66	223.66
860.98	223.66
861.29	223.68
861.60	223.66
861.91	223.69
862.22	223.68
862.53	223.67
862.84	223.55
863.16	223.58
863.47	223.56
863.78	223.55
864.09	223.56
864.40	223.56
864.71	223.56
865.02	223.58
865.33	223.56
865.64	223.54
865.95	223.54
866.27	223.61
866.58	223.60
866.89	223.61
867.20	223.62
867.51	223.59
867.82	223.58
868.13	223.61
868.44	223.58
868.75	223.60
869.06	223.60
869.37	223.60
869.68	223.56
869.99	223.58
870.30	223.59
870.61	223.60
870.92	223.58
871.23	223.56
871.54	223.57
871.85	223.61
872.16	223.63
872.47	223.62
872.78	223.57
873.09	223.57
873.40	223.57
873.71	223.58
874.02	223.60
874.33	223.59
874.64	223.57
874.95	223.59
875.26	223.57
875.56	223.56
875.87	223.56
876.18	223.55
876.49	223.65
876.80	223.64
877.11	223.62
877.42	223.62
877.73	223.64
878.04	223.62
878.35	223.61
878.66	223.61
878.96	223.61
879.27	223.60
879.58	223.59
879.89	223.57
880.20	223.60
880.51	223.60
880.82	223.59
881.12	223.60
881.43	223.58
881.74	223.56
882.05	223.56
882.36	223.56
882.67	223.56
882.97	223.45
883.28	223.44
883.59	223.44
883.90	223.45
884.21	223.47
884.51	223.46
884.82	223.44
885.13	223.43
885.44	223.44
885.74	223.45
886.05	223.45
886.36	223.46
886.67	223.42
886.98	223.47
887.28	223.49
887.59	223.48
887.90	223.49
888.20	223.50
888.51	223.51
888.82	223.51
889.13	223.52
889.43	223.61
889.74	223.60
890.05	223.61
890.35	223.60
890.66	223.58
890.97	223.56
891.28	223.55
891.58	223.55
891.89	223.55
892.20	223.53
892.50	223.51
892.81	223.50
893.12	223.50
893.42	223.45
893.73	223.45
894.04	223.45
894.34	223.45
894.65	223.45
894.95	223.45
895.26	223.44
895.57	223.48
895.87	223.38
896.18	223.40
896.48	223.40
896.79	223.39
897.10	223.40
897.40	223.41
897.71	223.43
898.01	223.42
898.32	223.44
898.63	223.43
898.93	223.44
899.24	223.44
899.54	223.44
899.85	223.44
900.15	223.43
900.46	223.42
900.76	223.42
901.07	223.42
901.38	223.41
901.68	223.43
901.99	223.38
902.29	223.39
902.60	223.38
902.90	223.37
903.21	223.37
903.51	223.36
903.82	223.38
904.12	223.38
904.43	223.39
904.73	223.38
905.03	223.39
905.34	223.49
905.64	223.48
905.95	223.48
906.25	223.48
906.56	223.48
906.86	223.49
907.17	223.48
907.47	223.48
907.77	223.47
908.08	223.44
908.38	223.45
908.69	223.45
908.99	223.47
909.30	223.47
909.60	223.48
909.90	223.48
910.21	223.46
910.51	223.43
910.81	223.43
911.12	223.44
911.42	223.44
911.73	223.33
912.03	223.34
912.33	223.36
912.64	223.34
912.94	223.34
913.24	223.32
913.55	223.31
913.85	223.31
914.15	223.33
914.46	223.34
914.76	223.32
915.06	223.31
915.37	223.29
915.67	223.29
915.97	223.29
916.27	223.27
916.58	223.28
916.88	223.28
917.18	223.27
917.49	223.34
917.79	223.33
918.09	223.34
918.39	223.37
918.70	223.37
919.00	223.38
919.30	223.42
919.60	223.43
919.91	223.42
920.21	223.43
920.51	223.41
920.81	223.40
921.12	223.42
921.42	223.42
921.72	223.42
922.02	223.42
922.32	223.44
922.63	223.43
922.93	223.48
923.23	223.49
923.53	223.49
923.83	223.41
924.13	223.42
924.44	223.43
924.74	223.44
925.04	223.46
925.34	223.46
925.64	223.41
925.94	223.40
926.24	223.46
926.55	223.45
926.85	223.47
927.15	223.47
927.45	223.46
927.75	223.47
928.05	223.46
928.35	223.46
928.65	223.48
928.95	223.48
929.26	223.45
929.56	223.47
929.86	223.47
930.16	223.47
930.46	223.46
930.76	223.46
931.06	223.41
931.36	223.38
931.66	223.39
931.96	223.39
932.26	223.40
932.56	223.35
932.86	223.36
933.16	223.37
933.46	223.36
933.76	223.35
934.06	223.37
934.36	223.41
934.66	223.39
934.96	223.37
935.26	223.38
935.56	223.39
935.86	223.36
936.16	223.35
936.46	223.35
936.76	223.33
937.06	223.32
937.36	223.33
937.66	223.33
937.96	223.33
938.26	223.31
938.56	223.30
938.86	223.31
939.16	223.33
939.46	223.33
939.76	223.34
940.06	223.34
940.35	223.32
940.65	223.26
940.95	223.29
941.25	223.25
941.55	223.24
941.85	223.24
942.15	223.25
942.45	223.28
942.75	223.27
943.04	223.27
943.34	223.29
943.64	223.28
943.94	223.26
944.24	223.26
944.54	223.27
944.84	223.27
945.13	223.26
945.43	223.23
945.73	223.23
946.03	223.22
946.33	223.21
946.62	223.21
946.92	223.21
947.22	223.20
947.52	223.22
947.82	223.23
948.11	223.21
948.41	223.19
948.71	223.16
949.01	223.16
949.31	223.16
949.60	223.14
949.90	223.16
950.20	223.16
950.50	223.16
950.79	223.14
951.09	223.15
951.39	223.16
951.69	223.14
951.98	223.16
952.28	223.16
952.58	223.15
952.87	223.15
953.17	223.16
953.47	223.15
953.76	223.15
954.06	223.13
954.36	223.12
954.66	223.13
954.95	223.15
955.25	223.16
955.55	223.17
955.84	223.16
956.14	223.16
956.44	223.17
956.73	223.15
957.03	223.17
957.32	223.17
957.62	223.15
957.92	223.18
958.21	223.17
958.51	223.28
958.81	223.29
959.10	223.29
959.40	223.31
959.69	223.32
959.99	223.34
960.29	223.35
960.58	223.34
960.88	223.38
961.17	223.36
961.47	223.38
961.76	223.36
962.06	223.38
962.36	223.36
962.65	223.37
962.95	223.38
963.24	223.37
963.54	223.37
963.83	223.39
964.13	223.39
964.42	223.38
964.72	223.30
965.01	223.30
965.31	223.30
965.60	223.26
965.90	223.33
966.19	223.30
966.49	223.31
966.78	223.31
967.08	223.31
967.37	223.31
967.67	223.30
967.96	223.32
968.26	223.31
968.55	223.33
968.85	223.33
969.14	223.33
969.43	223.33
969.73	223.31
970.02	223.31
970.32	223.30
970.61	223.28
970.91	223.25
971.20	223.24
971.49	223.24
971.79	223.25
972.08	223.17
972.38	223.19
972.67	223.17
972.96	223.18
973.26	223.15
973.55	223.18
973.85	223.16
974.14	223.15
974.43	223.16
974.73	223.13
975.02	223.12
975.31	223.12
975.61	223.11
975.90	223.11
976.19	223.10
976.49	223.10
976.78	223.12
977.07	223.12
977.37	223.12
977.66	223.13
977.95	223.11
978.24	223.12
978.54	223.13
978.83	223.12
979.12	223.13
979.42	223.13
979.71	223.11
980.00	223.11
980.29	223.11
980.59	223.08
980.88	223.12
981.17	223.11
981.46	223.12
981.76	223.10
982.05	223.13
982.34	223.14
982.63	223.13
982.93	223.13
983.22	223.15
983.51	223.15
983.80	223.17
984.09	223.18
984.39	223.17
984.68	223.16
984.97	223.17
985.26	223.16
985.55	223.16
985.85	223.14
986.14	223.16
986.43	223.17
986.72	223.17
987.01	223.12
987.30	223.13
987.59	223.12
987.89	223.14
988.18	223.11
988.47	223.10
988.76	223.10
989.05	223.08
989.34	223.06
989.63	223.09
989.92	223.08
990.22	223.06
990.51	223.06
990.80	223.05
991.09	223.05
991.38	223.07
991.67	223.06
991.96	223.05
992.25	223.06
992.54	223.04
992.83	223.05
993.12	223.05
993.41	223.07
993.70	223.11
993.99	223.12
994.28	223.13
994.58	223.13
994.87	223.12
995.16	223.12
995.45	223.12
995.74	223.09
996.03	223.11
996.32	223.12
996.61	223.15
996.90	223.16
997.19	223.15
997.48	223.15
997.77	223.15
998.06	223.15
998.34	223.13
998.63	223.14
998.92	223.15
999.21	223.17
999.50	223.16
999.79	223.13
1000.08	223.12
1000.37	223.13
1000.66	223.12
1000.95	223.16
1001.24	223.16
1001.53	223.19
1001.82	223.18
1002.11	223.15
1002.40	223.16
1002.68	223.19
1002.97	223.25
1003.26	223.24
1003.55	223.22
1003.84	223.22
1004.13	223.26
1004.42	223.27
1004.71	223.26
1004.99	223.25
1005.28	223.27
1005.57	223.26
1005.86	223.26
1006.15	223.25
1006.44	223.24
1006.72	223.26
1007.01	223.23
1007.30	223.24
1007.59	223.22
1007.88	223.22
1008.17	223.24
1008.45	223.22
1008.74	223.18
1009.03	223.14
1009.32	223.13
1009.60	223.13
1009.89	223.12
1010.18	223.07
1010.47	223.06
1010.76	223.06
1011.04	223.07
1011.33	223.07
1011.62	223.08
1011.91	223.08
1012.19	223.09
1012.48	223.10
1012.77	223.09
1013.05	223.14
1013.34	223.14
1013.63	223.14
1013.92	223.14
1014.20	223.14
1014.49	223.13
1014.78	223.14
1015.06	223.10
1015.35	223.11
1015.64	223.13
1015.92	223.17
1016.21	223.17
1016.50	223.18
1016.78	223.19
1017.07	223.19
1017.36	223.18
1017.64	223.16
1017.93	223.17
1018.22	223.16
1018.50	223.16
1018.79	223.16
1019.08	223.11
1019.36	223.12
1019.65	223.10
1019.93	223.13
1020.22	223.14
1020.51	223.20
1020.79	223.19
1021.08	222.96
1021.36	223.00
1021.65	223.18
1021.94	223.05
1022.22	223.24
1022.51	222.83
1022.79	223.57
1023.08	223.28
1023.36	224.29
1023.65	222.93
>>>>>End Processed Spectral Data<<<<<
