SpectraSuite Data File
++++++++++++++++++++++++++++++++++++
Date: Thu Oct 01 03:32:51 EDT 2015
User: lab3
Dark Spectrum Present: No
Reference Spectrum Present: No
Number of Sampled Component Spectra: 1
Spectrometers: USB2E7196
Integration Time (usec): 36000 (USB2E7196)
Spectra Averaged: 10000 (USB2E7196)
Boxcar Smoothing: 10 (USB2E7196)
Correct for Electrical Dark: No (USB2E7196)
Strobe/Lamp Enabled: No (USB2E7196)
Correct for Detector Non-linearity: No (USB2E7196)
Correct for Stray Light: No (USB2E7196)
Number of Pixels in Processed Spectrum: 2048
>>>>>Begin Processed Spectral Data<<<<<
339.09	0.00
339.48	210.70
339.86	212.20
340.24	213.53
340.63	214.95
341.01	217.90
341.39	217.68
341.78	218.98
342.16	220.14
342.54	220.71
342.93	209.24
343.31	219.81
343.69	220.35
344.07	220.81
344.46	221.23
344.84	221.62
345.22	221.86
345.60	222.11
345.99	222.31
346.37	222.45
346.75	222.55
347.13	222.63
347.52	222.70
347.90	222.78
348.28	222.82
348.66	222.87
349.05	222.88
349.43	222.93
349.81	222.98
350.19	223.04
350.57	223.11
350.96	223.19
351.34	223.28
351.72	223.38
352.10	223.49
352.48	223.56
352.87	223.62
353.25	223.68
353.63	223.74
354.01	223.80
354.39	223.88
354.77	223.96
355.15	224.06
355.54	224.12
355.92	224.15
356.30	224.23
356.68	224.36
357.06	224.44
357.44	224.49
357.82	224.56
358.20	224.67
358.58	224.73
358.97	224.80
359.35	224.88
359.73	224.96
360.11	225.01
360.49	225.07
360.87	225.12
361.25	225.18
361.63	225.26
362.01	225.31
362.39	225.34
362.77	225.39
363.15	225.41
363.53	225.45
363.91	225.48
364.29	225.51
364.67	225.43
365.05	225.46
365.43	225.49
365.81	225.52
366.19	225.54
366.57	225.59
366.95	225.59
367.33	225.57
367.71	225.56
368.09	225.58
368.47	225.58
368.85	225.57
369.23	225.58
369.61	225.53
369.99	225.54
370.37	225.54
370.75	225.59
371.13	225.56
371.51	225.52
371.89	225.50
372.27	225.47
372.65	225.45
373.03	225.41
373.41	225.36
373.78	225.32
374.16	225.22
374.54	225.14
374.92	225.10
375.30	225.05
375.68	224.99
376.06	224.94
376.44	224.88
376.82	224.84
377.19	224.79
377.57	224.74
377.95	224.66
378.33	224.60
378.71	224.45
379.09	224.40
379.47	224.37
379.84	224.30
380.22	224.24
380.60	224.17
380.98	224.12
381.36	224.06
381.73	224.00
382.11	223.97
382.49	223.92
382.87	223.86
383.25	223.81
383.62	223.88
384.00	223.82
384.38	223.78
384.76	223.75
385.13	223.74
385.51	223.70
385.89	223.64
386.27	223.61
386.64	223.59
387.02	223.54
387.40	223.49
387.78	223.47
388.15	223.44
388.53	223.41
388.91	223.38
389.29	223.34
389.66	223.34
390.04	223.30
390.42	223.29
390.79	223.28
391.17	223.25
391.55	223.12
391.92	223.11
392.30	223.11
392.68	223.08
393.05	223.06
393.43	223.05
393.81	223.06
394.18	223.05
394.56	223.04
394.94	223.07
395.31	223.07
395.69	223.11
396.06	223.13
396.44	223.16
396.82	223.17
397.19	223.24
397.57	223.26
397.95	223.30
398.32	223.30
398.70	223.34
399.07	223.40
399.45	223.44
399.82	223.48
400.20	223.51
400.58	223.57
400.95	223.59
401.33	223.66
401.70	223.79
402.08	223.88
402.45	223.96
402.83	224.06
403.20	224.16
403.58	224.25
403.95	224.37
404.33	224.50
404.71	224.63
405.08	224.81
405.46	224.95
405.83	225.11
406.21	225.28
406.58	225.47
406.96	225.66
407.33	225.87
407.70	226.11
408.08	226.44
408.45	226.73
408.83	227.04
409.20	227.32
409.58	227.57
409.95	227.92
410.33	228.30
410.70	228.65
411.08	229.07
411.45	229.51
411.82	229.96
412.20	230.47
412.57	231.08
412.95	231.55
413.32	232.18
413.69	232.81
414.07	233.50
414.44	234.24
414.82	234.99
415.19	235.87
415.56	236.77
415.94	237.70
416.31	238.74
416.68	239.79
417.06	241.01
417.43	242.15
417.81	243.45
418.18	244.80
418.55	246.26
418.93	247.78
419.30	249.37
419.67	251.07
420.04	252.81
420.42	254.63
420.79	256.73
421.16	258.85
421.54	261.01
421.91	263.26
422.28	265.61
422.66	268.13
423.03	270.54
423.40	273.07
423.77	275.78
424.15	278.56
424.52	281.46
424.89	284.58
425.26	287.69
425.64	290.58
426.01	293.82
426.38	297.13
426.75	300.55
427.13	304.05
427.50	307.71
427.87	311.51
428.24	315.34
428.61	319.01
428.99	322.97
429.36	327.31
429.73	331.46
430.10	335.60
430.47	339.82
430.85	344.17
431.22	348.80
431.59	353.55
431.96	358.17
432.33	363.29
432.70	368.15
433.08	373.89
433.45	379.32
433.82	384.65
434.19	390.61
434.56	396.47
434.93	402.11
435.30	407.69
435.68	413.97
436.05	420.12
436.42	426.27
436.79	431.88
437.16	437.92
437.53	444.40
437.90	450.87
438.27	457.20
438.64	464.07
439.01	470.27
439.38	475.95
439.75	481.43
440.13	487.70
440.50	493.65
440.87	498.36
441.24	503.52
441.61	509.23
441.98	513.42
442.35	518.40
442.72	523.51
443.09	528.40
443.46	531.57
443.83	533.92
444.20	535.91
444.57	538.82
444.94	540.57
445.31	542.38
445.68	544.00
446.05	545.21
446.42	545.10
446.79	544.89
447.16	544.72
447.53	544.59
447.90	542.78
448.27	541.10
448.64	538.40
449.01	536.63
449.37	532.74
449.74	529.20
450.11	524.64
450.48	519.61
450.85	514.55
451.22	510.25
451.59	506.04
451.96	502.21
452.33	496.59
452.70	491.58
453.07	485.46
453.43	479.33
453.80	473.41
454.17	467.70
454.54	462.41
454.91	456.43
455.28	450.80
455.65	445.49
456.02	439.83
456.38	435.28
456.75	429.40
457.12	424.65
457.49	419.86
457.86	415.28
458.23	411.27
458.59	406.84
458.96	402.28
459.33	398.27
459.70	394.17
460.07	391.05
460.43	387.38
460.80	383.94
461.17	380.91
461.54	377.63
461.91	374.58
462.27	371.48
462.64	368.94
463.01	366.03
463.38	363.10
463.74	360.45
464.11	358.08
464.48	355.94
464.85	353.64
465.21	351.89
465.58	349.96
465.95	347.73
466.32	345.94
466.68	344.20
467.05	342.45
467.42	340.76
467.78	338.93
468.15	337.24
468.52	335.99
468.88	334.36
469.25	332.85
469.62	331.67
469.98	330.37
470.35	329.22
470.72	328.18
471.08	327.14
471.45	326.27
471.82	325.31
472.18	324.31
472.55	323.66
472.92	322.87
473.28	322.25
473.65	321.60
474.02	321.00
474.38	320.51
474.75	320.24
475.11	319.82
475.48	319.67
475.85	319.52
476.21	319.48
476.58	319.49
476.94	319.69
477.31	319.81
477.67	319.97
478.04	320.25
478.41	320.59
478.77	321.06
479.14	321.40
479.50	321.96
479.87	322.66
480.23	323.37
480.60	324.04
480.96	324.74
481.33	325.71
481.69	326.67
482.06	327.62
482.42	328.53
482.79	329.61
483.15	330.85
483.52	332.24
483.88	333.58
484.25	335.00
484.61	336.49
484.98	338.09
485.34	339.89
485.71	341.75
486.07	343.73
486.44	345.70
486.80	347.89
487.17	350.14
487.53	352.61
487.90	355.18
488.26	357.96
488.62	360.90
488.99	363.84
489.35	366.91
489.72	370.23
490.08	373.72
490.44	377.30
490.81	381.05
491.17	384.90
491.54	389.00
491.90	393.20
492.26	397.73
492.63	402.50
492.99	407.45
493.36	412.52
493.72	417.88
494.08	423.37
494.45	429.16
494.81	435.17
495.17	441.30
495.54	447.77
495.90	454.56
496.26	461.49
496.63	468.66
496.99	476.12
497.35	483.95
497.72	492.07
498.08	500.35
498.44	508.88
498.80	517.98
499.17	527.31
499.53	536.97
499.89	546.86
500.26	556.93
500.62	567.27
500.98	578.30
501.34	589.47
501.71	601.19
502.07	613.14
502.43	625.47
502.79	638.13
503.16	651.21
503.52	664.48
503.88	678.14
504.24	692.22
504.60	706.57
504.97	721.32
505.33	736.46
505.69	752.52
506.05	768.76
506.41	785.00
506.78	801.54
507.14	818.56
507.50	836.17
507.86	854.20
508.22	872.51
508.59	890.84
508.95	909.87
509.31	929.35
509.67	949.53
510.03	969.94
510.39	990.57
510.75	1011.41
511.12	1032.58
511.48	1054.01
511.84	1075.57
512.20	1097.49
512.56	1120.47
512.92	1143.61
513.28	1166.47
513.64	1189.67
514.00	1213.29
514.37	1237.26
514.73	1261.27
515.09	1285.08
515.45	1309.32
515.81	1334.11
516.17	1358.94
516.53	1383.46
516.89	1408.03
517.25	1432.82
517.61	1457.77
517.97	1482.92
518.33	1507.84
518.69	1532.85
519.05	1558.15
519.41	1583.58
519.77	1609.26
520.13	1634.16
520.49	1659.26
520.85	1684.58
521.21	1709.82
521.57	1735.64
521.93	1760.73
522.29	1786.67
522.65	1812.33
523.01	1837.79
523.37	1862.46
523.73	1887.84
524.09	1913.41
524.45	1938.83
524.81	1963.73
525.17	1988.55
525.53	2012.97
525.89	2037.40
526.25	2062.04
526.61	2086.18
526.97	2110.56
527.33	2134.88
527.68	2158.96
528.04	2182.28
528.40	2205.43
528.76	2228.76
529.12	2251.02
529.48	2273.65
529.84	2294.46
530.20	2315.81
530.56	2336.78
530.91	2357.85
531.27	2378.40
531.63	2398.24
531.99	2417.63
532.35	2436.71
532.71	2455.90
533.07	2475.59
533.42	2493.85
533.78	2512.40
534.14	2530.96
534.50	2548.66
534.86	2567.03
535.21	2583.57
535.57	2599.93
535.93	2615.69
536.29	2630.17
536.65	2645.55
537.00	2659.73
537.36	2674.45
537.72	2688.15
538.08	2701.45
538.44	2713.61
538.79	2725.99
539.15	2736.75
539.51	2747.42
539.87	2757.69
540.22	2765.76
540.58	2774.05
540.94	2782.76
541.29	2790.11
541.65	2796.42
542.01	2802.22
542.37	2806.13
542.72	2812.08
543.08	2817.46
543.44	2822.55
543.79	2826.93
544.15	2830.30
544.51	2833.75
544.87	2836.24
545.22	2838.38
545.58	2839.61
545.94	2841.30
546.29	2841.48
546.65	2841.66
547.01	2842.04
547.36	2842.43
547.72	2843.06
548.07	2842.21
548.43	2840.76
548.79	2838.62
549.14	2836.41
549.50	2834.99
549.86	2832.45
550.21	2827.55
550.57	2823.11
550.92	2817.41
551.28	2812.26
551.64	2807.10
551.99	2802.22
552.35	2796.98
552.70	2791.27
553.06	2786.30
553.41	2780.86
553.77	2774.76
554.13	2769.54
554.48	2763.19
554.84	2755.37
555.19	2747.69
555.55	2739.45
555.90	2731.81
556.26	2725.15
556.61	2717.88
556.97	2708.34
557.32	2699.83
557.68	2691.60
558.03	2682.75
558.39	2674.55
558.74	2666.44
559.10	2657.20
559.45	2647.54
559.81	2638.28
560.16	2628.31
560.52	2617.99
560.87	2608.72
561.23	2598.99
561.58	2588.74
561.94	2578.27
562.29	2567.31
562.64	2557.00
563.00	2546.91
563.35	2536.65
563.71	2525.42
564.06	2513.82
564.42	2503.18
564.77	2492.20
565.12	2481.34
565.48	2470.31
565.83	2459.87
566.19	2449.51
566.54	2438.65
566.89	2427.02
567.25	2415.24
567.60	2404.29
567.96	2392.84
568.31	2379.96
568.66	2367.18
569.02	2355.43
569.37	2343.41
569.72	2331.90
570.08	2319.66
570.43	2306.92
570.78	2293.85
571.14	2280.66
571.49	2268.16
571.84	2255.98
572.20	2242.57
572.55	2229.51
572.90	2216.27
573.26	2202.02
573.61	2187.23
573.96	2172.86
574.31	2158.77
574.67	2144.96
575.02	2130.75
575.37	2116.07
575.72	2101.64
576.08	2087.79
576.43	2072.87
576.78	2058.12
577.13	2044.16
577.49	2030.12
577.84	2016.50
578.19	2002.06
578.54	1987.25
578.90	1972.00
579.25	1956.41
579.60	1942.26
579.95	1927.73
580.30	1913.26
580.66	1899.14
581.01	1884.69
581.36	1870.47
581.71	1856.88
582.06	1842.73
582.42	1828.73
582.77	1815.43
583.12	1801.75
583.47	1788.19
583.82	1774.76
584.17	1761.18
584.53	1747.42
584.88	1733.73
585.23	1719.65
585.58	1706.10
585.93	1692.98
586.28	1680.70
586.63	1668.16
586.98	1654.93
587.34	1641.92
587.69	1628.43
588.04	1615.27
588.39	1602.71
588.74	1589.65
589.09	1576.35
589.44	1563.05
589.79	1550.20
590.14	1537.33
590.49	1524.67
590.84	1511.82
591.19	1499.63
591.54	1486.93
591.89	1474.09
592.25	1461.58
592.60	1448.74
592.95	1436.43
593.30	1424.44
593.65	1412.16
594.00	1400.18
594.35	1388.89
594.70	1376.89
595.05	1365.94
595.40	1354.69
595.75	1342.91
596.10	1331.99
596.45	1321.25
596.80	1310.99
597.15	1300.54
597.50	1290.04
597.85	1279.76
598.19	1269.68
598.54	1258.97
598.89	1249.03
599.24	1239.37
599.59	1229.51
599.94	1220.66
600.29	1211.67
600.64	1202.46
600.99	1192.64
601.34	1183.29
601.69	1173.43
602.04	1164.56
602.39	1155.57
602.74	1146.83
603.08	1138.30
603.43	1129.30
603.78	1120.21
604.13	1111.25
604.48	1102.21
604.83	1093.45
605.18	1084.62
605.53	1075.68
605.87	1066.88
606.22	1058.33
606.57	1049.55
606.92	1040.87
607.27	1032.00
607.62	1023.24
607.96	1014.66
608.31	1007.14
608.66	999.17
609.01	991.61
609.36	984.00
609.70	976.13
610.05	968.13
610.40	960.48
610.75	952.88
611.10	945.57
611.44	937.91
611.79	930.52
612.14	922.76
612.49	915.20
612.83	908.11
613.18	901.05
613.53	893.80
613.88	886.65
614.22	880.10
614.57	873.37
614.92	866.63
615.27	859.91
615.61	853.03
615.96	846.36
616.31	839.62
616.65	832.79
617.00	826.21
617.35	819.80
617.70	813.38
618.04	807.06
618.39	800.74
618.74	794.74
619.08	788.59
619.43	782.66
619.78	776.72
620.12	770.63
620.47	764.72
620.82	758.93
621.16	753.42
621.51	747.53
621.85	741.65
622.20	735.83
622.55	730.21
622.89	724.53
623.24	718.90
623.59	713.33
623.93	707.82
624.28	702.46
624.62	697.06
624.97	691.66
625.32	686.36
625.66	680.92
626.01	675.47
626.35	670.16
626.70	664.90
627.04	659.86
627.39	654.84
627.73	649.95
628.08	645.26
628.43	640.44
628.77	635.70
629.12	631.11
629.46	626.66
629.81	622.01
630.15	617.27
630.50	612.69
630.84	608.33
631.19	604.14
631.53	599.97
631.88	595.72
632.22	591.56
632.57	587.63
632.91	583.65
633.26	579.75
633.60	575.94
633.95	572.23
634.29	568.36
634.64	564.46
634.98	560.47
635.32	556.63
635.67	552.92
636.01	549.17
636.36	545.46
636.70	541.89
637.05	538.34
637.39	534.98
637.73	531.47
638.08	528.02
638.42	524.54
638.77	520.95
639.11	517.32
639.45	513.76
639.80	510.20
640.14	506.83
640.49	503.40
640.83	499.85
641.17	496.37
641.52	493.04
641.86	489.70
642.20	486.54
642.55	483.22
642.89	480.01
643.23	476.97
643.58	474.17
643.92	471.25
644.26	468.35
644.61	465.43
644.95	462.53
645.29	459.57
645.64	456.60
645.98	453.77
646.32	451.11
646.66	448.45
647.01	445.77
647.35	443.12
647.69	440.37
648.04	437.81
648.38	435.24
648.72	432.63
649.06	430.12
649.41	427.60
649.75	425.10
650.09	422.62
650.43	420.15
650.78	417.64
651.12	415.13
651.46	412.73
651.80	410.43
652.14	408.20
652.49	405.98
652.83	403.81
653.17	401.63
653.51	399.50
653.85	397.44
654.20	395.32
654.54	393.13
654.88	391.15
655.22	389.18
655.56	387.20
655.90	385.30
656.25	383.41
656.59	381.54
656.93	379.76
657.27	378.00
657.61	376.16
657.95	374.38
658.29	372.62
658.64	370.87
658.98	369.11
659.32	367.37
659.66	365.74
660.00	364.11
660.34	362.53
660.68	360.89
661.02	359.18
661.36	357.59
661.70	356.06
662.05	354.50
662.39	352.94
662.73	351.47
663.07	350.03
663.41	348.61
663.75	347.22
664.09	345.81
664.43	344.33
664.77	342.97
665.11	341.52
665.45	340.18
665.79	338.82
666.13	337.46
666.47	336.08
666.81	334.68
667.15	333.25
667.49	331.91
667.83	330.63
668.17	329.39
668.51	328.17
668.85	326.95
669.19	325.83
669.53	324.62
669.87	323.40
670.21	322.20
670.55	321.01
670.89	319.90
671.23	318.77
671.57	317.65
671.91	316.57
672.25	315.57
672.58	314.54
672.92	313.48
673.26	312.50
673.60	311.51
673.94	310.52
674.28	309.59
674.62	308.64
674.96	307.66
675.30	306.75
675.64	305.80
675.97	304.88
676.31	303.92
676.65	302.99
676.99	302.12
677.33	301.20
677.67	300.32
678.01	299.37
678.34	298.48
678.68	297.66
679.02	296.79
679.36	295.93
679.70	295.08
680.04	294.27
680.37	293.43
680.71	292.65
681.05	291.90
681.39	291.11
681.73	290.30
682.06	289.52
682.40	288.74
682.74	288.00
683.08	287.28
683.42	286.54
683.75	285.88
684.09	285.13
684.43	284.43
684.77	283.72
685.10	283.05
685.44	282.37
685.78	281.68
686.12	281.03
686.45	280.36
686.79	279.70
687.13	279.05
687.46	278.38
687.80	277.74
688.14	277.05
688.48	276.42
688.81	275.80
689.15	275.22
689.49	274.60
689.82	273.99
690.16	273.33
690.50	272.73
690.83	272.13
691.17	271.55
691.51	270.98
691.84	270.43
692.18	269.85
692.52	269.26
692.85	268.69
693.19	268.17
693.52	267.63
693.86	267.09
694.20	266.56
694.53	266.05
694.87	265.53
695.21	265.04
695.54	264.53
695.88	264.02
696.21	263.47
696.55	262.98
696.88	262.49
697.22	262.01
697.56	261.53
697.89	261.00
698.23	260.51
698.56	260.01
698.90	259.55
699.23	259.07
699.57	258.63
699.90	258.19
700.24	257.71
700.58	257.27
700.91	256.87
701.25	256.53
701.58	256.16
701.92	255.77
702.25	255.37
702.59	254.96
702.92	254.57
703.26	254.19
703.59	253.80
703.93	253.50
704.26	253.14
704.60	252.77
704.93	252.42
705.26	252.06
705.60	251.74
705.93	251.37
706.27	251.07
706.60	250.75
706.94	250.44
707.27	250.07
707.61	249.73
707.94	249.37
708.27	248.95
708.61	248.58
708.94	248.23
709.28	247.91
709.61	247.59
709.94	247.30
710.28	247.01
710.61	246.73
710.95	246.36
711.28	246.14
711.61	245.85
711.95	245.60
712.28	245.33
712.61	245.03
712.95	244.82
713.28	244.60
713.61	244.33
713.95	244.04
714.28	243.81
714.61	243.56
714.95	243.31
715.28	243.06
715.61	242.83
715.95	242.60
716.28	242.37
716.61	242.16
716.95	241.92
717.28	241.70
717.61	241.47
717.94	241.26
718.28	240.97
718.61	240.75
718.94	240.51
719.27	240.31
719.61	240.12
719.94	239.89
720.27	239.64
720.60	239.43
720.94	239.24
721.27	239.05
721.60	238.89
721.93	238.71
722.27	238.56
722.60	238.40
722.93	238.20
723.26	238.04
723.59	237.84
723.93	237.68
724.26	237.52
724.59	237.35
724.92	237.19
725.25	237.07
725.59	236.91
725.92	236.78
726.25	236.63
726.58	236.47
726.91	236.31
727.24	236.18
727.57	236.03
727.91	235.87
728.24	235.74
728.57	235.58
728.90	235.45
729.23	235.28
729.56	235.19
729.89	235.05
730.22	234.91
730.55	234.77
730.89	234.63
731.22	234.49
731.55	234.36
731.88	234.23
732.21	234.09
732.54	233.96
732.87	233.84
733.20	233.72
733.53	233.60
733.86	233.50
734.19	233.37
734.52	233.28
734.85	233.24
735.18	233.10
735.51	233.03
735.84	232.92
736.17	232.83
736.50	232.67
736.83	232.69
737.16	232.60
737.49	232.50
737.82	232.41
738.15	232.32
738.48	232.23
738.81	232.12
739.14	232.02
739.47	231.91
739.80	231.81
740.13	231.72
740.46	231.62
740.79	231.51
741.12	231.42
741.45	231.30
741.78	231.16
742.11	231.10
742.44	230.98
742.77	230.91
743.10	230.81
743.43	230.72
743.75	230.53
744.08	230.60
744.41	230.50
744.74	230.42
745.07	230.31
745.40	230.25
745.73	230.21
746.06	230.13
746.39	230.07
746.71	229.99
747.04	229.90
747.37	229.83
747.70	229.77
748.03	229.70
748.36	229.65
748.68	229.57
749.01	229.47
749.34	229.40
749.67	229.33
750.00	229.28
750.33	229.29
750.65	229.24
750.98	229.02
751.31	228.96
751.64	228.90
751.97	228.90
752.29	228.82
752.62	228.71
752.95	228.64
753.28	228.56
753.60	228.50
753.93	228.46
754.26	228.41
754.59	228.31
754.91	228.24
755.24	228.16
755.57	228.15
755.90	228.09
756.22	228.02
756.55	227.94
756.88	227.86
757.20	227.73
757.53	227.65
757.86	227.59
758.19	227.54
758.51	227.48
758.84	227.38
759.17	227.31
759.49	227.27
759.82	227.27
760.15	227.24
760.47	227.19
760.80	227.11
761.13	227.08
761.45	227.03
761.78	226.99
762.11	226.95
762.43	226.85
762.76	226.80
763.08	226.77
763.41	226.74
763.74	226.70
764.06	226.66
764.39	226.62
764.71	226.58
765.04	226.52
765.37	226.47
765.69	226.43
766.02	226.39
766.34	226.34
766.67	226.26
767.00	226.24
767.32	226.26
767.65	226.28
767.97	226.23
768.30	226.20
768.62	226.16
768.95	226.11
769.27	226.08
769.60	226.06
769.92	226.01
770.25	225.95
770.57	225.90
770.90	225.86
771.22	225.83
771.55	225.79
771.87	225.77
772.20	225.73
772.52	225.79
772.85	225.88
773.17	225.86
773.50	225.82
773.82	225.77
774.15	225.68
774.47	225.59
774.80	225.55
775.12	225.52
775.45	225.49
775.77	225.46
776.09	225.44
776.42	225.41
776.74	225.42
777.07	225.39
777.39	225.37
777.72	225.34
778.04	225.33
778.36	225.29
778.69	225.27
779.01	225.25
779.33	225.14
779.66	224.99
779.98	224.97
780.31	224.95
780.63	224.97
780.95	224.97
781.28	224.94
781.60	224.92
781.92	224.90
782.25	224.89
782.57	224.87
782.89	224.84
783.22	224.81
783.54	224.77
783.86	224.76
784.19	224.74
784.51	224.75
784.83	224.72
785.16	224.70
785.48	224.68
785.80	224.66
786.12	224.66
786.45	224.64
786.77	224.63
787.09	224.60
787.42	224.55
787.74	224.53
788.06	224.52
788.38	224.49
788.71	224.47
789.03	224.45
789.35	224.45
789.67	224.42
789.99	224.42
790.32	224.39
790.64	224.38
790.96	224.47
791.28	224.42
791.61	224.40
791.93	224.39
792.25	224.37
792.57	224.43
792.89	224.40
793.21	224.39
793.54	224.37
793.86	224.35
794.18	224.34
794.50	224.31
794.82	224.29
795.14	224.30
795.47	224.30
795.79	224.30
796.11	224.26
796.43	224.24
796.75	224.22
797.07	224.22
797.39	224.20
797.71	224.10
798.04	224.10
798.36	224.09
798.68	224.08
799.00	224.08
799.32	224.02
799.64	224.02
799.96	224.01
800.28	224.02
800.60	224.01
800.92	224.00
801.24	223.98
801.56	223.98
801.89	223.96
802.21	223.95
802.53	223.92
802.85	223.94
803.17	223.97
803.49	223.94
803.81	223.93
804.13	223.91
804.45	223.89
804.77	223.89
805.09	223.87
805.41	223.85
805.73	223.82
806.05	223.79
806.37	223.76
806.69	223.74
807.01	223.72
807.33	223.72
807.65	223.67
807.97	223.72
808.28	223.69
808.60	223.68
808.92	223.66
809.24	223.71
809.56	223.69
809.88	223.64
810.20	223.64
810.52	223.66
810.84	223.64
811.16	223.62
811.48	223.60
811.80	223.64
812.12	223.63
812.43	223.64
812.75	223.64
813.07	223.63
813.39	223.63
813.71	223.61
814.03	223.60
814.35	223.60
814.67	223.55
814.98	223.54
815.30	223.53
815.62	223.51
815.94	223.44
816.26	223.44
816.58	223.42
816.89	223.42
817.21	223.39
817.53	223.39
817.85	223.39
818.17	223.39
818.48	223.34
818.80	223.36
819.12	223.34
819.44	223.31
819.76	223.30
820.07	223.29
820.39	223.28
820.71	223.29
821.03	223.28
821.34	223.27
821.66	223.28
821.98	223.28
822.30	223.27
822.61	223.34
822.93	223.32
823.25	223.31
823.57	223.30
823.88	223.31
824.20	223.30
824.52	223.31
824.83	223.31
825.15	223.30
825.47	223.28
825.79	223.29
826.10	223.28
826.42	223.28
826.74	223.28
827.05	223.28
827.37	223.28
827.69	223.27
828.00	223.27
828.32	223.27
828.64	223.25
828.95	223.30
829.27	223.26
829.58	223.26
829.90	223.27
830.22	223.27
830.53	223.25
830.85	223.23
831.17	223.20
831.48	223.19
831.80	223.20
832.11	223.19
832.43	223.17
832.75	223.17
833.06	223.22
833.38	223.19
833.69	223.18
834.01	223.18
834.32	223.18
834.64	223.16
834.96	223.16
835.27	223.16
835.59	223.12
835.90	223.10
836.22	223.10
836.53	223.08
836.85	223.06
837.16	223.17
837.48	223.17
837.79	223.20
838.11	223.20
838.42	223.20
838.74	223.21
839.05	223.20
839.37	223.19
839.68	223.13
840.00	223.13
840.31	223.14
840.63	223.13
840.94	223.12
841.26	223.11
841.57	223.11
841.88	223.11
842.20	223.09
842.51	223.07
842.83	223.07
843.14	223.16
843.46	223.16
843.77	223.09
844.08	223.09
844.40	223.05
844.71	223.03
845.03	223.02
845.34	223.01
845.65	223.01
845.97	223.01
846.28	223.01
846.60	223.01
846.91	222.99
847.22	222.98
847.54	223.01
847.85	223.01
848.16	223.00
848.48	222.98
848.79	223.02
849.10	223.03
849.42	223.03
849.73	222.93
850.04	222.93
850.36	222.90
850.67	222.91
850.98	222.92
851.30	222.93
851.61	222.92
851.92	222.92
852.23	222.95
852.55	222.95
852.86	222.95
853.17	222.96
853.49	222.99
853.80	223.01
854.11	223.01
854.42	223.02
854.74	223.01
855.05	223.02
855.36	222.97
855.67	222.97
855.99	222.97
856.30	223.09
856.61	223.09
856.92	223.09
857.23	223.09
857.55	223.07
857.86	223.07
858.17	223.08
858.48	223.06
858.79	223.04
859.11	223.05
859.42	223.04
859.73	223.02
860.04	223.01
860.35	222.98
860.66	222.95
860.98	222.94
861.29	222.96
861.60	222.95
861.91	222.97
862.22	222.96
862.53	222.94
862.84	222.81
863.16	222.83
863.47	222.82
863.78	222.80
864.09	222.81
864.40	222.82
864.71	222.82
865.02	222.83
865.33	222.82
865.64	222.80
865.95	222.80
866.27	222.86
866.58	222.85
866.89	222.86
867.20	222.86
867.51	222.84
867.82	222.83
868.13	222.87
868.44	222.84
868.75	222.86
869.06	222.86
869.37	222.87
869.68	222.85
869.99	222.87
870.30	222.87
870.61	222.88
870.92	222.87
871.23	222.86
871.54	222.87
871.85	222.90
872.16	222.91
872.47	222.90
872.78	222.84
873.09	222.85
873.40	222.84
873.71	222.85
874.02	222.86
874.33	222.85
874.64	222.82
874.95	222.84
875.26	222.82
875.56	222.82
875.87	222.81
876.18	222.81
876.49	222.91
876.80	222.90
877.11	222.88
877.42	222.88
877.73	222.88
878.04	222.86
878.35	222.86
878.66	222.86
878.96	222.85
879.27	222.85
879.58	222.84
879.89	222.84
880.20	222.86
880.51	222.86
880.82	222.86
881.12	222.86
881.43	222.84
881.74	222.83
882.05	222.82
882.36	222.82
882.67	222.83
882.97	222.72
883.28	222.71
883.59	222.71
883.90	222.72
884.21	222.73
884.51	222.72
884.82	222.71
885.13	222.71
885.44	222.71
885.74	222.71
886.05	222.71
886.36	222.71
886.67	222.67
886.98	222.72
887.28	222.73
887.59	222.73
887.90	222.73
888.20	222.73
888.51	222.75
888.82	222.73
889.13	222.74
889.43	222.83
889.74	222.82
890.05	222.82
890.35	222.81
890.66	222.79
890.97	222.78
891.28	222.77
891.58	222.77
891.89	222.77
892.20	222.76
892.50	222.74
892.81	222.73
893.12	222.73
893.42	222.68
893.73	222.68
894.04	222.68
894.34	222.69
894.65	222.69
894.95	222.68
895.26	222.68
895.57	222.72
895.87	222.62
896.18	222.64
896.48	222.64
896.79	222.64
897.10	222.65
897.40	222.66
897.71	222.67
898.01	222.66
898.32	222.68
898.63	222.68
898.93	222.68
899.24	222.68
899.54	222.68
899.85	222.68
900.15	222.67
900.46	222.67
900.76	222.67
901.07	222.67
901.38	222.67
901.68	222.68
901.99	222.63
902.29	222.63
902.60	222.63
902.90	222.62
903.21	222.62
903.51	222.61
903.82	222.63
904.12	222.63
904.43	222.64
904.73	222.63
905.03	222.63
905.34	222.73
905.64	222.72
905.95	222.72
906.25	222.72
906.56	222.72
906.86	222.72
907.17	222.71
907.47	222.71
907.77	222.70
908.08	222.68
908.38	222.69
908.69	222.69
908.99	222.70
909.30	222.71
909.60	222.71
909.90	222.71
910.21	222.68
910.51	222.67
910.81	222.67
911.12	222.67
911.42	222.67
911.73	222.56
912.03	222.57
912.33	222.59
912.64	222.58
912.94	222.57
913.24	222.55
913.55	222.55
913.85	222.54
914.15	222.56
914.46	222.57
914.76	222.56
915.06	222.55
915.37	222.54
915.67	222.53
915.97	222.53
916.27	222.51
916.58	222.52
916.88	222.51
917.18	222.51
917.49	222.57
917.79	222.57
918.09	222.59
918.39	222.61
918.70	222.61
919.00	222.61
919.30	222.66
919.60	222.65
919.91	222.64
920.21	222.65
920.51	222.63
920.81	222.62
921.12	222.64
921.42	222.64
921.72	222.64
922.02	222.65
922.32	222.66
922.63	222.67
922.93	222.73
923.23	222.73
923.53	222.71
923.83	222.65
924.13	222.66
924.44	222.65
924.74	222.67
925.04	222.69
925.34	222.68
925.64	222.65
925.94	222.65
926.24	222.71
926.55	222.69
926.85	222.71
927.15	222.70
927.45	222.70
927.75	222.70
928.05	222.70
928.35	222.69
928.65	222.70
928.95	222.71
929.26	222.66
929.56	222.68
929.86	222.69
930.16	222.68
930.46	222.67
930.76	222.67
931.06	222.62
931.36	222.59
931.66	222.61
931.96	222.62
932.26	222.62
932.56	222.58
932.86	222.59
933.16	222.59
933.46	222.58
933.76	222.56
934.06	222.58
934.36	222.61
934.66	222.61
934.96	222.59
935.26	222.60
935.56	222.61
935.86	222.58
936.16	222.57
936.46	222.56
936.76	222.55
937.06	222.53
937.36	222.54
937.66	222.55
937.96	222.54
938.26	222.52
938.56	222.51
938.86	222.51
939.16	222.53
939.46	222.54
939.76	222.55
940.06	222.55
940.35	222.53
940.65	222.48
940.95	222.49
941.25	222.47
941.55	222.45
941.85	222.44
942.15	222.47
942.45	222.50
942.75	222.50
943.04	222.50
943.34	222.53
943.64	222.51
943.94	222.50
944.24	222.50
944.54	222.51
944.84	222.51
945.13	222.49
945.43	222.47
945.73	222.46
946.03	222.45
946.33	222.44
946.62	222.43
946.92	222.43
947.22	222.44
947.52	222.44
947.82	222.46
948.11	222.45
948.41	222.43
948.71	222.40
949.01	222.40
949.31	222.40
949.60	222.39
949.90	222.41
950.20	222.40
950.50	222.40
950.79	222.39
951.09	222.41
951.39	222.41
951.69	222.40
951.98	222.42
952.28	222.42
952.58	222.42
952.87	222.43
953.17	222.44
953.47	222.43
953.76	222.43
954.06	222.41
954.36	222.39
954.66	222.39
954.95	222.42
955.25	222.43
955.55	222.44
955.84	222.42
956.14	222.43
956.44	222.44
956.73	222.42
957.03	222.43
957.32	222.43
957.62	222.43
957.92	222.45
958.21	222.44
958.51	222.55
958.81	222.57
959.10	222.57
959.40	222.60
959.69	222.60
959.99	222.62
960.29	222.62
960.58	222.62
960.88	222.66
961.17	222.64
961.47	222.65
961.76	222.64
962.06	222.66
962.36	222.65
962.65	222.65
962.95	222.65
963.24	222.64
963.54	222.64
963.83	222.65
964.13	222.64
964.42	222.63
964.72	222.54
965.01	222.54
965.31	222.53
965.60	222.50
965.90	222.57
966.19	222.54
966.49	222.55
966.78	222.54
967.08	222.53
967.37	222.53
967.67	222.52
967.96	222.53
968.26	222.52
968.55	222.54
968.85	222.53
969.14	222.53
969.43	222.53
969.73	222.52
970.02	222.51
970.32	222.50
970.61	222.49
970.91	222.46
971.20	222.44
971.49	222.44
971.79	222.45
972.08	222.38
972.38	222.39
972.67	222.38
972.96	222.39
973.26	222.37
973.55	222.40
973.85	222.39
974.14	222.38
974.43	222.39
974.73	222.37
975.02	222.36
975.31	222.36
975.61	222.36
975.90	222.36
976.19	222.35
976.49	222.36
976.78	222.37
977.07	222.37
977.37	222.38
977.66	222.39
977.95	222.37
978.24	222.38
978.54	222.40
978.83	222.40
979.12	222.39
979.42	222.39
979.71	222.37
980.00	222.37
980.29	222.37
980.59	222.36
980.88	222.39
981.17	222.39
981.46	222.39
981.76	222.39
982.05	222.42
982.34	222.43
982.63	222.43
982.93	222.43
983.22	222.45
983.51	222.46
983.80	222.47
984.09	222.48
984.39	222.47
984.68	222.46
984.97	222.46
985.26	222.46
985.55	222.47
985.85	222.45
986.14	222.46
986.43	222.48
986.72	222.47
987.01	222.44
987.30	222.44
987.59	222.43
987.89	222.44
988.18	222.40
988.47	222.39
988.76	222.38
989.05	222.37
989.34	222.36
989.63	222.38
989.92	222.37
990.22	222.35
990.51	222.36
990.80	222.35
991.09	222.35
991.38	222.37
991.67	222.36
991.96	222.35
992.25	222.35
992.54	222.33
992.83	222.34
993.12	222.33
993.41	222.35
993.70	222.39
993.99	222.41
994.28	222.42
994.58	222.44
994.87	222.43
995.16	222.43
995.45	222.42
995.74	222.38
996.03	222.39
996.32	222.41
996.61	222.43
996.90	222.43
997.19	222.42
997.48	222.42
997.77	222.41
998.06	222.41
998.34	222.40
998.63	222.40
998.92	222.41
999.21	222.43
999.50	222.43
999.79	222.39
1000.08	222.39
1000.37	222.39
1000.66	222.37
1000.95	222.40
1001.24	222.41
1001.53	222.42
1001.82	222.42
1002.11	222.39
1002.40	222.40
1002.68	222.42
1002.97	222.49
1003.26	222.48
1003.55	222.46
1003.84	222.46
1004.13	222.50
1004.42	222.49
1004.71	222.49
1004.99	222.48
1005.28	222.50
1005.57	222.49
1005.86	222.48
1006.15	222.47
1006.44	222.45
1006.72	222.47
1007.01	222.45
1007.30	222.45
1007.59	222.44
1007.88	222.43
1008.17	222.44
1008.45	222.42
1008.74	222.38
1009.03	222.33
1009.32	222.33
1009.60	222.34
1009.89	222.33
1010.18	222.28
1010.47	222.28
1010.76	222.28
1011.04	222.28
1011.33	222.28
1011.62	222.28
1011.91	222.30
1012.19	222.30
1012.48	222.30
1012.77	222.30
1013.05	222.33
1013.34	222.33
1013.63	222.33
1013.92	222.34
1014.20	222.33
1014.49	222.33
1014.78	222.35
1015.06	222.32
1015.35	222.32
1015.64	222.34
1015.92	222.36
1016.21	222.36
1016.50	222.36
1016.78	222.37
1017.07	222.38
1017.36	222.36
1017.64	222.35
1017.93	222.35
1018.22	222.34
1018.50	222.34
1018.79	222.34
1019.08	222.30
1019.36	222.31
1019.65	222.30
1019.93	222.33
1020.22	222.34
1020.51	222.39
1020.79	222.38
1021.08	222.21
1021.36	222.19
1021.65	222.35
1021.94	222.24
1022.22	222.40
1022.51	222.15
1022.79	222.87
1023.08	222.44
1023.36	223.56
1023.65	222.19
>>>>>End Processed Spectral Data<<<<<
