SpectraSuite Data File
++++++++++++++++++++++++++++++++++++
Date: Thu Oct 01 10:24:29 EDT 2015
User: lab3
Dark Spectrum Present: No
Reference Spectrum Present: No
Number of Sampled Component Spectra: 1
Spectrometers: USB2E7196
Integration Time (usec): 36000 (USB2E7196)
Spectra Averaged: 10000 (USB2E7196)
Boxcar Smoothing: 10 (USB2E7196)
Correct for Electrical Dark: No (USB2E7196)
Strobe/Lamp Enabled: No (USB2E7196)
Correct for Detector Non-linearity: No (USB2E7196)
Correct for Stray Light: No (USB2E7196)
Number of Pixels in Processed Spectrum: 2048
>>>>>Begin Processed Spectral Data<<<<<
339.09	0.00
339.48	210.71
339.86	212.24
340.24	213.53
340.63	214.98
341.01	217.89
341.39	217.65
341.78	218.96
342.16	220.17
342.54	220.62
342.93	209.26
343.31	219.83
343.69	220.37
344.07	220.83
344.46	221.26
344.84	221.65
345.22	221.89
345.60	222.15
345.99	222.34
346.37	222.48
346.75	222.59
347.13	222.67
347.52	222.74
347.90	222.82
348.28	222.86
348.66	222.91
349.05	222.92
349.43	222.97
349.81	223.03
350.19	223.09
350.57	223.16
350.96	223.24
351.34	223.33
351.72	223.42
352.10	223.53
352.48	223.61
352.87	223.66
353.25	223.72
353.63	223.78
354.01	223.85
354.39	223.93
354.77	224.01
355.15	224.11
355.54	224.16
355.92	224.20
356.30	224.28
356.68	224.42
357.06	224.49
357.44	224.54
357.82	224.60
358.20	224.71
358.58	224.77
358.97	224.84
359.35	224.92
359.73	225.00
360.11	225.05
360.49	225.11
360.87	225.16
361.25	225.22
361.63	225.30
362.01	225.35
362.39	225.38
362.77	225.42
363.15	225.45
363.53	225.49
363.91	225.52
364.29	225.54
364.67	225.46
365.05	225.48
365.43	225.51
365.81	225.53
366.19	225.55
366.57	225.60
366.95	225.60
367.33	225.57
367.71	225.57
368.09	225.59
368.47	225.58
368.85	225.57
369.23	225.57
369.61	225.52
369.99	225.53
370.37	225.53
370.75	225.59
371.13	225.55
371.51	225.51
371.89	225.49
372.27	225.47
372.65	225.44
373.03	225.40
373.41	225.36
373.78	225.31
374.16	225.22
374.54	225.14
374.92	225.09
375.30	225.05
375.68	224.98
376.06	224.93
376.44	224.88
376.82	224.83
377.19	224.79
377.57	224.73
377.95	224.65
378.33	224.59
378.71	224.45
379.09	224.40
379.47	224.36
379.84	224.30
380.22	224.23
380.60	224.16
380.98	224.11
381.36	224.06
381.73	224.00
382.11	223.97
382.49	223.92
382.87	223.86
383.25	223.82
383.62	223.89
384.00	223.82
384.38	223.78
384.76	223.76
385.13	223.74
385.51	223.70
385.89	223.65
386.27	223.61
386.64	223.59
387.02	223.54
387.40	223.50
387.78	223.47
388.15	223.44
388.53	223.41
388.91	223.38
389.29	223.35
389.66	223.34
390.04	223.30
390.42	223.28
390.79	223.27
391.17	223.25
391.55	223.12
391.92	223.11
392.30	223.11
392.68	223.07
393.05	223.05
393.43	223.05
393.81	223.05
394.18	223.03
394.56	223.04
394.94	223.06
395.31	223.06
395.69	223.10
396.06	223.12
396.44	223.14
396.82	223.15
397.19	223.22
397.57	223.24
397.95	223.28
398.32	223.28
398.70	223.32
399.07	223.37
399.45	223.41
399.82	223.45
400.20	223.49
400.58	223.54
400.95	223.56
401.33	223.64
401.70	223.77
402.08	223.87
402.45	223.95
402.83	224.05
403.20	224.15
403.58	224.24
403.95	224.36
404.33	224.50
404.71	224.63
405.08	224.82
405.46	224.97
405.83	225.13
406.21	225.31
406.58	225.50
406.96	225.70
407.33	225.92
407.70	226.16
408.08	226.50
408.45	226.79
408.83	227.11
409.20	227.40
409.58	227.66
409.95	228.01
410.33	228.40
410.70	228.76
411.08	229.19
411.45	229.64
411.82	230.11
412.20	230.63
412.57	231.25
412.95	231.74
413.32	232.38
413.69	233.03
414.07	233.73
414.44	234.49
414.82	235.26
415.19	236.18
415.56	237.09
415.94	238.05
416.31	239.13
416.68	240.20
417.06	241.45
417.43	242.62
417.81	243.97
418.18	245.34
418.55	246.85
418.93	248.41
419.30	250.05
419.67	251.79
420.04	253.58
420.42	255.44
420.79	257.60
421.16	259.78
421.54	261.99
421.91	264.31
422.28	266.71
422.66	269.31
423.03	271.77
423.40	274.37
423.77	277.15
424.15	280.00
424.52	282.96
424.89	286.17
425.26	289.36
425.64	292.32
426.01	295.64
426.38	299.03
426.75	302.53
427.13	306.11
427.50	309.84
427.87	313.73
428.24	317.66
428.61	321.41
428.99	325.45
429.36	329.89
429.73	334.13
430.10	338.35
430.47	342.66
430.85	347.09
431.22	351.81
431.59	356.66
431.96	361.38
432.33	366.60
432.70	371.55
433.08	377.41
433.45	382.95
433.82	388.38
434.19	394.46
434.56	400.44
434.93	406.20
435.30	411.89
435.68	418.31
436.05	424.59
436.42	430.87
436.79	436.59
437.16	442.76
437.53	449.38
437.90	456.00
438.27	462.48
438.64	469.51
439.01	475.87
439.38	481.69
439.75	487.31
440.13	493.73
440.50	499.85
440.87	504.68
441.24	510.00
441.61	515.87
441.98	520.18
442.35	525.32
442.72	530.59
443.09	535.64
443.46	538.92
443.83	541.37
444.20	543.45
444.57	546.47
444.94	548.31
445.31	550.21
445.68	551.91
446.05	553.21
446.42	553.14
446.79	552.95
447.16	552.82
447.53	552.72
447.90	550.91
448.27	549.23
448.64	546.50
449.01	544.71
449.37	540.74
449.74	537.14
450.11	532.48
450.48	527.33
450.85	522.15
451.22	517.76
451.59	513.46
451.96	509.54
452.33	503.78
452.70	498.64
453.07	492.37
453.43	486.09
453.80	480.00
454.17	474.14
454.54	468.71
454.91	462.57
455.28	456.79
455.65	451.33
456.02	445.50
456.38	440.80
456.75	434.75
457.12	429.87
457.49	424.94
457.86	420.24
458.23	416.11
458.59	411.55
458.96	406.85
459.33	402.71
459.70	398.50
460.07	395.28
460.43	391.50
460.80	387.96
461.17	384.82
461.54	381.44
461.91	378.30
462.27	375.10
462.64	372.49
463.01	369.50
463.38	366.48
463.74	363.76
464.11	361.33
464.48	359.13
464.85	356.78
465.21	354.98
465.58	352.99
465.95	350.70
466.32	348.88
466.68	347.09
467.05	345.30
467.42	343.56
467.78	341.70
468.15	339.97
468.52	338.69
468.88	337.02
469.25	335.50
469.62	334.28
469.98	332.96
470.35	331.79
470.72	330.74
471.08	329.68
471.45	328.79
471.82	327.82
472.18	326.81
472.55	326.15
472.92	325.34
473.28	324.71
473.65	324.06
474.02	323.45
474.38	322.95
474.75	322.68
475.11	322.27
475.48	322.12
475.85	321.98
476.21	321.94
476.58	321.95
476.94	322.15
477.31	322.29
477.67	322.46
478.04	322.74
478.41	323.10
478.77	323.57
479.14	323.93
479.50	324.50
479.87	325.22
480.23	325.93
480.60	326.62
480.96	327.34
481.33	328.33
481.69	329.31
482.06	330.28
482.42	331.20
482.79	332.30
483.15	333.57
483.52	334.97
483.88	336.34
484.25	337.79
484.61	339.30
484.98	340.93
485.34	342.76
485.71	344.65
486.07	346.66
486.44	348.67
486.80	350.90
487.17	353.18
487.53	355.68
487.90	358.29
488.26	361.12
488.62	364.10
488.99	367.08
489.35	370.20
489.72	373.57
490.08	377.11
490.44	380.75
490.81	384.56
491.17	388.46
491.54	392.62
491.90	396.89
492.26	401.50
492.63	406.34
492.99	411.35
493.36	416.50
493.72	421.92
494.08	427.49
494.45	433.38
494.81	439.48
495.17	445.71
495.54	452.29
495.90	459.19
496.26	466.22
496.63	473.50
496.99	481.08
497.35	489.03
497.72	497.27
498.08	505.67
498.44	514.33
498.80	523.57
499.17	533.03
499.53	542.83
499.89	552.86
500.26	563.08
500.62	573.58
500.98	584.78
501.34	596.14
501.71	608.03
502.07	620.15
502.43	632.66
502.79	645.51
503.16	658.78
503.52	672.23
503.88	686.09
504.24	700.37
504.60	714.93
504.97	729.88
505.33	745.23
505.69	761.52
506.05	778.00
506.41	794.46
506.78	811.25
507.14	828.50
507.50	846.37
507.86	864.63
508.22	883.19
508.59	901.77
508.95	921.05
509.31	940.78
509.67	961.23
510.03	981.88
510.39	1002.77
510.75	1023.90
511.12	1045.32
511.48	1067.03
511.84	1088.84
512.20	1110.99
512.56	1134.24
512.92	1157.65
513.28	1180.78
513.64	1204.23
514.00	1228.11
514.37	1252.32
514.73	1276.57
515.09	1300.61
515.45	1325.10
515.81	1350.12
516.17	1375.17
516.53	1399.90
516.89	1424.68
517.25	1449.65
517.61	1474.82
517.97	1500.16
518.33	1525.23
518.69	1550.43
519.05	1575.89
519.41	1601.49
519.77	1627.34
520.13	1652.37
520.49	1677.59
520.85	1703.04
521.21	1728.40
521.57	1754.30
521.93	1779.50
522.29	1805.51
522.65	1831.25
523.01	1856.76
523.37	1881.48
523.73	1906.89
524.09	1932.49
524.45	1957.96
524.81	1982.90
525.17	2007.76
525.53	2032.17
525.89	2056.58
526.25	2081.21
526.61	2105.31
526.97	2129.66
527.33	2153.96
527.68	2178.05
528.04	2201.32
528.40	2224.40
528.76	2247.67
529.12	2269.86
529.48	2292.42
529.84	2313.11
530.20	2334.37
530.56	2355.25
530.91	2376.21
531.27	2396.64
531.63	2416.37
531.99	2435.60
532.35	2454.52
532.71	2473.51
533.07	2493.04
533.42	2511.11
533.78	2529.49
534.14	2547.88
534.50	2565.42
534.86	2583.56
535.21	2599.83
535.57	2615.98
535.93	2631.47
536.29	2645.73
536.65	2660.87
537.00	2674.83
537.36	2689.35
537.72	2702.78
538.08	2715.81
538.44	2727.71
538.79	2739.82
539.15	2750.28
539.51	2760.68
539.87	2770.72
540.22	2778.58
540.58	2786.61
540.94	2795.11
541.29	2802.14
541.65	2808.16
542.01	2813.67
542.37	2817.32
542.72	2822.95
543.08	2828.05
543.44	2832.90
543.79	2836.99
544.15	2840.07
544.51	2843.19
544.87	2845.38
545.22	2847.23
545.58	2848.19
545.94	2849.60
546.29	2849.47
546.65	2849.41
547.01	2849.49
547.36	2849.60
547.72	2849.91
548.07	2848.76
548.43	2846.97
548.79	2844.53
549.14	2842.06
549.50	2840.35
549.86	2837.61
550.21	2832.49
550.57	2827.78
550.92	2821.77
551.28	2816.33
551.64	2810.91
551.99	2805.78
552.35	2800.26
552.70	2794.29
553.06	2789.02
553.41	2783.31
553.77	2777.04
554.13	2771.55
554.48	2765.00
554.84	2756.88
555.19	2748.94
555.55	2740.46
555.90	2732.59
556.26	2725.67
556.61	2718.13
556.97	2708.33
557.32	2699.49
557.68	2691.01
558.03	2681.94
558.39	2673.56
558.74	2665.23
559.10	2655.71
559.45	2645.81
559.81	2636.35
560.16	2626.14
560.52	2615.60
560.87	2606.07
561.23	2596.09
561.58	2585.56
561.94	2574.83
562.29	2563.61
562.64	2553.03
563.00	2542.74
563.35	2532.28
563.71	2520.92
564.06	2509.07
564.42	2498.23
564.77	2487.06
565.12	2476.03
565.48	2464.75
565.83	2454.07
566.19	2443.49
566.54	2432.42
566.89	2420.58
567.25	2408.59
567.60	2397.47
567.96	2385.88
568.31	2372.84
568.66	2359.85
569.02	2347.93
569.37	2335.74
569.72	2324.06
570.08	2311.66
570.43	2298.74
570.78	2285.50
571.14	2272.09
571.49	2259.46
571.84	2247.12
572.20	2233.51
572.55	2220.25
572.90	2206.88
573.26	2192.50
573.61	2177.61
573.96	2163.13
574.31	2148.94
574.67	2135.00
575.02	2120.64
575.37	2105.81
575.72	2091.26
576.08	2077.29
576.43	2062.30
576.78	2047.44
577.13	2033.40
577.49	2019.29
577.84	2005.60
578.19	1991.08
578.54	1976.23
578.90	1960.88
579.25	1945.24
579.60	1931.02
579.95	1916.42
580.30	1901.85
580.66	1887.66
581.01	1873.10
581.36	1858.79
581.71	1845.11
582.06	1830.90
582.42	1816.80
582.77	1803.45
583.12	1789.74
583.47	1776.12
583.82	1762.63
584.17	1749.01
584.53	1735.17
584.88	1721.43
585.23	1707.28
585.58	1693.67
585.93	1680.51
586.28	1668.18
586.63	1655.63
586.98	1642.40
587.34	1629.38
587.69	1615.90
588.04	1602.71
588.39	1590.13
588.74	1577.08
589.09	1563.77
589.44	1550.45
589.79	1537.66
590.14	1524.77
590.49	1512.11
590.84	1499.30
591.19	1487.11
591.54	1474.41
591.89	1461.62
592.25	1449.14
592.60	1436.35
592.95	1424.06
593.30	1412.08
593.65	1399.84
594.00	1387.88
594.35	1376.64
594.70	1364.66
595.05	1353.74
595.40	1342.55
595.75	1330.83
596.10	1319.95
596.45	1309.26
596.80	1299.04
597.15	1288.62
597.50	1278.18
597.85	1267.94
598.19	1257.89
598.54	1247.23
598.89	1237.37
599.24	1227.77
599.59	1217.97
599.94	1209.17
600.29	1200.24
600.64	1191.08
600.99	1181.32
601.34	1172.04
601.69	1162.21
602.04	1153.42
602.39	1144.45
602.74	1135.75
603.08	1127.29
603.43	1118.33
603.78	1109.30
604.13	1100.39
604.48	1091.42
604.83	1082.72
605.18	1073.92
605.53	1065.04
605.87	1056.32
606.22	1047.82
606.57	1039.09
606.92	1030.47
607.27	1021.68
607.62	1013.01
607.96	1004.51
608.31	997.03
608.66	989.10
609.01	981.59
609.36	974.02
609.70	966.23
610.05	958.29
610.40	950.69
610.75	943.18
611.10	935.93
611.44	928.34
611.79	921.02
612.14	913.33
612.49	905.83
612.83	898.80
613.18	891.79
613.53	884.57
613.88	877.48
614.22	870.95
614.57	864.26
614.92	857.56
615.27	850.90
615.61	844.07
615.96	837.46
616.31	830.81
616.65	824.04
617.00	817.52
617.35	811.16
617.70	804.82
618.04	798.55
618.39	792.28
618.74	786.34
619.08	780.24
619.43	774.39
619.78	768.52
620.12	762.49
620.47	756.64
620.82	750.92
621.16	745.45
621.51	739.64
621.85	733.82
622.20	728.07
622.55	722.48
622.89	716.86
623.24	711.28
623.59	705.76
623.93	700.30
624.28	694.98
624.62	689.63
624.97	684.27
625.32	679.02
625.66	673.65
626.01	668.26
626.35	663.02
626.70	657.81
627.04	652.80
627.39	647.84
627.73	643.00
628.08	638.36
628.43	633.60
628.77	628.90
629.12	624.35
629.46	619.94
629.81	615.36
630.15	610.68
630.50	606.16
630.84	601.86
631.19	597.72
631.53	593.60
631.88	589.40
632.22	585.28
632.57	581.40
632.91	577.46
633.26	573.61
633.60	569.82
633.95	566.13
634.29	562.31
634.64	558.45
634.98	554.52
635.32	550.73
635.67	547.07
636.01	543.37
636.36	539.70
636.70	536.17
637.05	532.66
637.39	529.35
637.73	525.90
638.08	522.49
638.42	519.06
638.77	515.52
639.11	511.96
639.45	508.45
639.80	504.93
640.14	501.61
640.49	498.24
640.83	494.74
641.17	491.33
641.52	488.05
641.86	484.77
642.20	481.65
642.55	478.38
642.89	475.22
643.23	472.23
643.58	469.47
643.92	466.59
644.26	463.73
644.61	460.86
644.95	458.00
645.29	455.10
645.64	452.17
645.98	449.37
646.32	446.77
646.66	444.15
647.01	441.50
647.35	438.90
647.69	436.19
648.04	433.66
648.38	431.14
648.72	428.59
649.06	426.11
649.41	423.65
649.75	421.18
650.09	418.74
650.43	416.31
650.78	413.85
651.12	411.39
651.46	409.03
651.80	406.76
652.14	404.56
652.49	402.37
652.83	400.25
653.17	398.10
653.51	396.00
653.85	393.98
654.20	391.90
654.54	389.75
654.88	387.80
655.22	385.88
655.56	383.92
655.90	382.06
656.25	380.21
656.59	378.37
656.93	376.62
657.27	374.91
657.61	373.10
657.95	371.35
658.29	369.62
658.64	367.91
658.98	366.18
659.32	364.47
659.66	362.87
660.00	361.28
660.34	359.72
660.68	358.11
661.02	356.44
661.36	354.88
661.70	353.38
662.05	351.86
662.39	350.32
662.73	348.88
663.07	347.47
663.41	346.08
663.75	344.70
664.09	343.33
664.43	341.88
664.77	340.53
665.11	339.12
665.45	337.80
665.79	336.46
666.13	335.11
666.47	333.76
666.81	332.37
667.15	330.97
667.49	329.66
667.83	328.40
668.17	327.18
668.51	325.98
668.85	324.79
669.19	323.68
669.53	322.50
669.87	321.29
670.21	320.11
670.55	318.94
670.89	317.85
671.23	316.73
671.57	315.63
671.91	314.58
672.25	313.58
672.58	312.57
672.92	311.53
673.26	310.57
673.60	309.61
673.94	308.64
674.28	307.73
674.62	306.80
674.96	305.85
675.30	304.95
675.64	304.02
675.97	303.11
676.31	302.16
676.65	301.25
676.99	300.39
677.33	299.49
677.67	298.63
678.01	297.69
678.34	296.82
678.68	296.01
679.02	295.16
679.36	294.32
679.70	293.49
680.04	292.69
680.37	291.88
680.71	291.10
681.05	290.36
681.39	289.58
681.73	288.77
682.06	288.00
682.40	287.24
682.74	286.51
683.08	285.80
683.42	285.08
683.75	284.43
684.09	283.69
684.43	283.00
684.77	282.29
685.10	281.64
685.44	280.97
685.78	280.29
686.12	279.65
686.45	278.99
686.79	278.34
687.13	277.70
687.46	277.05
687.80	276.41
688.14	275.73
688.48	275.12
688.81	274.51
689.15	273.94
689.49	273.33
689.82	272.73
690.16	272.08
690.50	271.50
690.83	270.91
691.17	270.34
691.51	269.79
691.84	269.24
692.18	268.67
692.52	268.10
692.85	267.54
693.19	267.02
693.52	266.49
693.86	265.96
694.20	265.44
694.53	264.94
694.87	264.43
695.21	263.95
695.54	263.45
695.88	262.96
696.21	262.42
696.55	261.94
696.88	261.46
697.22	261.00
697.56	260.53
697.89	260.01
698.23	259.53
698.56	259.04
698.90	258.59
699.23	258.13
699.57	257.70
699.90	257.26
700.24	256.80
700.58	256.37
700.91	255.97
701.25	255.65
701.58	255.29
701.92	254.92
702.25	254.53
702.59	254.12
702.92	253.74
703.26	253.36
703.59	252.98
703.93	252.69
704.26	252.35
704.60	251.99
704.93	251.65
705.26	251.30
705.60	250.99
705.93	250.63
706.27	250.33
706.60	250.02
706.94	249.72
707.27	249.37
707.61	249.03
707.94	248.69
708.27	248.27
708.61	247.91
708.94	247.57
709.28	247.25
709.61	246.95
709.94	246.66
710.28	246.38
710.61	246.11
710.95	245.74
711.28	245.53
711.61	245.25
711.95	245.01
712.28	244.74
712.61	244.46
712.95	244.25
713.28	244.04
713.61	243.77
713.95	243.50
714.28	243.28
714.61	243.03
714.95	242.80
715.28	242.56
715.61	242.33
715.95	242.11
716.28	241.88
716.61	241.68
716.95	241.45
717.28	241.24
717.61	241.01
717.94	240.80
718.28	240.51
718.61	240.30
718.94	240.07
719.27	239.87
719.61	239.69
719.94	239.47
720.27	239.21
720.60	239.02
720.94	238.84
721.27	238.65
721.60	238.49
721.93	238.31
722.27	238.17
722.60	238.01
722.93	237.82
723.26	237.65
723.59	237.46
723.93	237.31
724.26	237.15
724.59	236.99
724.92	236.84
725.25	236.72
725.59	236.56
725.92	236.43
726.25	236.29
726.58	236.13
726.91	235.98
727.24	235.85
727.57	235.71
727.91	235.55
728.24	235.42
728.57	235.27
728.90	235.15
729.23	234.98
729.56	234.89
729.89	234.76
730.22	234.62
730.55	234.49
730.89	234.35
731.22	234.22
731.55	234.09
731.88	233.96
732.21	233.82
732.54	233.70
732.87	233.58
733.20	233.48
733.53	233.37
733.86	233.26
734.19	233.13
734.52	233.04
734.85	233.01
735.18	232.88
735.51	232.80
735.84	232.69
736.17	232.62
736.50	232.46
736.83	232.49
737.16	232.39
737.49	232.30
737.82	232.20
738.15	232.12
738.48	232.03
738.81	231.93
739.14	231.83
739.47	231.72
739.80	231.63
740.13	231.54
740.46	231.44
740.79	231.33
741.12	231.24
741.45	231.13
741.78	230.99
742.11	230.93
742.44	230.82
742.77	230.75
743.10	230.64
743.43	230.55
743.75	230.36
744.08	230.43
744.41	230.34
744.74	230.25
745.07	230.15
745.40	230.08
745.73	230.05
746.06	229.98
746.39	229.92
746.71	229.84
747.04	229.75
747.37	229.68
747.70	229.63
748.03	229.56
748.36	229.51
748.68	229.43
749.01	229.33
749.34	229.26
749.67	229.20
750.00	229.15
750.33	229.16
750.65	229.10
750.98	228.89
751.31	228.83
751.64	228.78
751.97	228.77
752.29	228.70
752.62	228.59
752.95	228.52
753.28	228.43
753.60	228.37
753.93	228.33
754.26	228.28
754.59	228.19
754.91	228.11
755.24	228.04
755.57	228.03
755.90	227.97
756.22	227.90
756.55	227.83
756.88	227.75
757.20	227.62
757.53	227.53
757.86	227.47
758.19	227.43
758.51	227.37
758.84	227.27
759.17	227.21
759.49	227.17
759.82	227.17
760.15	227.14
760.47	227.09
760.80	227.01
761.13	226.97
761.45	226.93
761.78	226.89
762.11	226.84
762.43	226.75
762.76	226.70
763.08	226.67
763.41	226.64
763.74	226.61
764.06	226.57
764.39	226.53
764.71	226.49
765.04	226.44
765.37	226.39
765.69	226.35
766.02	226.31
766.34	226.26
766.67	226.18
767.00	226.16
767.32	226.18
767.65	226.20
767.97	226.16
768.30	226.13
768.62	226.09
768.95	226.04
769.27	226.01
769.60	225.99
769.92	225.93
770.25	225.88
770.57	225.83
770.90	225.79
771.22	225.75
771.55	225.72
771.87	225.69
772.20	225.66
772.52	225.71
772.85	225.81
773.17	225.78
773.50	225.74
773.82	225.69
774.15	225.61
774.47	225.51
774.80	225.48
775.12	225.45
775.45	225.42
775.77	225.40
776.09	225.37
776.42	225.35
776.74	225.35
777.07	225.32
777.39	225.30
777.72	225.27
778.04	225.26
778.36	225.22
778.69	225.20
779.01	225.18
779.33	225.07
779.66	224.92
779.98	224.90
780.31	224.88
780.63	224.90
780.95	224.90
781.28	224.88
781.60	224.85
781.92	224.83
782.25	224.81
782.57	224.79
782.89	224.76
783.22	224.74
783.54	224.69
783.86	224.69
784.19	224.66
784.51	224.68
784.83	224.65
785.16	224.63
785.48	224.61
785.80	224.59
786.12	224.58
786.45	224.57
786.77	224.56
787.09	224.54
787.42	224.48
787.74	224.47
788.06	224.46
788.38	224.44
788.71	224.42
789.03	224.41
789.35	224.40
789.67	224.37
789.99	224.37
790.32	224.34
790.64	224.33
790.96	224.42
791.28	224.36
791.61	224.35
791.93	224.34
792.25	224.32
792.57	224.38
792.89	224.35
793.21	224.34
793.54	224.31
793.86	224.29
794.18	224.27
794.50	224.24
794.82	224.23
795.14	224.23
795.47	224.23
795.79	224.22
796.11	224.19
796.43	224.17
796.75	224.16
797.07	224.16
797.39	224.14
797.71	224.04
798.04	224.04
798.36	224.03
798.68	224.02
799.00	224.02
799.32	223.96
799.64	223.96
799.96	223.95
800.28	223.96
800.60	223.95
800.92	223.95
801.24	223.94
801.56	223.94
801.89	223.92
802.21	223.91
802.53	223.89
802.85	223.90
803.17	223.94
803.49	223.91
803.81	223.89
804.13	223.88
804.45	223.86
804.77	223.86
805.09	223.85
805.41	223.83
805.73	223.81
806.05	223.77
806.37	223.75
806.69	223.73
807.01	223.71
807.33	223.71
807.65	223.67
807.97	223.71
808.28	223.68
808.60	223.67
808.92	223.65
809.24	223.71
809.56	223.68
809.88	223.63
810.20	223.63
810.52	223.65
810.84	223.63
811.16	223.61
811.48	223.59
811.80	223.62
812.12	223.61
812.43	223.63
812.75	223.64
813.07	223.62
813.39	223.62
813.71	223.60
814.03	223.58
814.35	223.59
814.67	223.54
814.98	223.52
815.30	223.52
815.62	223.50
815.94	223.42
816.26	223.43
816.58	223.41
816.89	223.41
817.21	223.38
817.53	223.38
817.85	223.38
818.17	223.37
818.48	223.33
818.80	223.34
819.12	223.32
819.44	223.29
819.76	223.27
820.07	223.27
820.39	223.27
820.71	223.28
821.03	223.27
821.34	223.26
821.66	223.27
821.98	223.28
822.30	223.27
822.61	223.33
822.93	223.31
823.25	223.30
823.57	223.29
823.88	223.30
824.20	223.29
824.52	223.31
824.83	223.30
825.15	223.29
825.47	223.27
825.79	223.28
826.10	223.27
826.42	223.26
826.74	223.26
827.05	223.26
827.37	223.25
827.69	223.25
828.00	223.25
828.32	223.24
828.64	223.22
828.95	223.28
829.27	223.24
829.58	223.24
829.90	223.26
830.22	223.26
830.53	223.24
830.85	223.23
831.17	223.20
831.48	223.20
831.80	223.20
832.11	223.20
832.43	223.18
832.75	223.18
833.06	223.24
833.38	223.20
833.69	223.20
834.01	223.20
834.32	223.19
834.64	223.18
834.96	223.17
835.27	223.17
835.59	223.13
835.90	223.12
836.22	223.11
836.53	223.09
836.85	223.07
837.16	223.17
837.48	223.17
837.79	223.20
838.11	223.21
838.42	223.20
838.74	223.21
839.05	223.20
839.37	223.19
839.68	223.13
840.00	223.12
840.31	223.13
840.63	223.12
840.94	223.11
841.26	223.10
841.57	223.09
841.88	223.09
842.20	223.08
842.51	223.06
842.83	223.06
843.14	223.15
843.46	223.14
843.77	223.08
844.08	223.07
844.40	223.04
844.71	223.02
845.03	223.01
845.34	223.00
845.65	223.00
845.97	223.00
846.28	223.01
846.60	223.02
846.91	223.00
847.22	223.00
847.54	223.02
847.85	223.02
848.16	223.02
848.48	223.00
848.79	223.04
849.10	223.05
849.42	223.05
849.73	222.95
850.04	222.95
850.36	222.91
850.67	222.93
850.98	222.93
851.30	222.94
851.61	222.94
851.92	222.93
852.23	222.96
852.55	222.96
852.86	222.96
853.17	222.97
853.49	222.99
853.80	223.01
854.11	223.01
854.42	223.03
854.74	223.02
855.05	223.02
855.36	222.96
855.67	222.96
855.99	222.96
856.30	223.08
856.61	223.08
856.92	223.08
857.23	223.09
857.55	223.07
857.86	223.06
858.17	223.08
858.48	223.06
858.79	223.04
859.11	223.04
859.42	223.04
859.73	223.02
860.04	223.01
860.35	222.98
860.66	222.94
860.98	222.94
861.29	222.95
861.60	222.94
861.91	222.97
862.22	222.95
862.53	222.93
862.84	222.81
863.16	222.83
863.47	222.81
863.78	222.79
864.09	222.80
864.40	222.81
864.71	222.81
865.02	222.82
865.33	222.81
865.64	222.79
865.95	222.79
866.27	222.85
866.58	222.85
866.89	222.86
867.20	222.86
867.51	222.84
867.82	222.84
868.13	222.87
868.44	222.84
868.75	222.87
869.06	222.87
869.37	222.88
869.68	222.85
869.99	222.87
870.30	222.88
870.61	222.89
870.92	222.87
871.23	222.86
871.54	222.87
871.85	222.89
872.16	222.91
872.47	222.90
872.78	222.84
873.09	222.85
873.40	222.83
873.71	222.85
874.02	222.85
874.33	222.84
874.64	222.82
874.95	222.84
875.26	222.82
875.56	222.81
875.87	222.80
876.18	222.80
876.49	222.90
876.80	222.88
877.11	222.86
877.42	222.87
877.73	222.87
878.04	222.86
878.35	222.85
878.66	222.85
878.96	222.85
879.27	222.84
879.58	222.84
879.89	222.83
880.20	222.86
880.51	222.85
880.82	222.85
881.12	222.86
881.43	222.83
881.74	222.82
882.05	222.82
882.36	222.82
882.67	222.83
882.97	222.72
883.28	222.72
883.59	222.71
883.90	222.72
884.21	222.73
884.51	222.73
884.82	222.71
885.13	222.71
885.44	222.71
885.74	222.71
886.05	222.71
886.36	222.71
886.67	222.67
886.98	222.72
887.28	222.73
887.59	222.72
887.90	222.73
888.20	222.73
888.51	222.74
888.82	222.73
889.13	222.74
889.43	222.82
889.74	222.82
890.05	222.82
890.35	222.80
890.66	222.78
890.97	222.77
891.28	222.76
891.58	222.76
891.89	222.76
892.20	222.75
892.50	222.74
892.81	222.73
893.12	222.73
893.42	222.68
893.73	222.68
894.04	222.67
894.34	222.68
894.65	222.68
894.95	222.67
895.26	222.67
895.57	222.71
895.87	222.60
896.18	222.62
896.48	222.63
896.79	222.63
897.10	222.65
897.40	222.65
897.71	222.66
898.01	222.65
898.32	222.67
898.63	222.66
898.93	222.67
899.24	222.67
899.54	222.67
899.85	222.67
900.15	222.66
900.46	222.66
900.76	222.67
901.07	222.67
901.38	222.67
901.68	222.68
901.99	222.63
902.29	222.64
902.60	222.63
902.90	222.62
903.21	222.61
903.51	222.60
903.82	222.62
904.12	222.62
904.43	222.63
904.73	222.62
905.03	222.63
905.34	222.72
905.64	222.72
905.95	222.72
906.25	222.72
906.56	222.72
906.86	222.72
907.17	222.71
907.47	222.71
907.77	222.71
908.08	222.69
908.38	222.69
908.69	222.70
908.99	222.71
909.30	222.72
909.60	222.72
909.90	222.73
910.21	222.70
910.51	222.69
910.81	222.69
911.12	222.69
911.42	222.69
911.73	222.58
912.03	222.59
912.33	222.61
912.64	222.60
912.94	222.59
913.24	222.57
913.55	222.56
913.85	222.56
914.15	222.58
914.46	222.59
914.76	222.58
915.06	222.58
915.37	222.56
915.67	222.55
915.97	222.55
916.27	222.53
916.58	222.53
916.88	222.53
917.18	222.52
917.49	222.60
917.79	222.59
918.09	222.61
918.39	222.63
918.70	222.62
919.00	222.63
919.30	222.68
919.60	222.67
919.91	222.66
920.21	222.67
920.51	222.64
920.81	222.63
921.12	222.65
921.42	222.64
921.72	222.65
922.02	222.66
922.32	222.67
922.63	222.67
922.93	222.73
923.23	222.73
923.53	222.72
923.83	222.65
924.13	222.66
924.44	222.66
924.74	222.67
925.04	222.70
925.34	222.69
925.64	222.65
925.94	222.65
926.24	222.70
926.55	222.70
926.85	222.71
927.15	222.70
927.45	222.70
927.75	222.70
928.05	222.70
928.35	222.70
928.65	222.71
928.95	222.72
929.26	222.67
929.56	222.69
929.86	222.70
930.16	222.69
930.46	222.68
930.76	222.69
931.06	222.63
931.36	222.61
931.66	222.62
931.96	222.64
932.26	222.64
932.56	222.60
932.86	222.60
933.16	222.60
933.46	222.60
933.76	222.58
934.06	222.60
934.36	222.63
934.66	222.62
934.96	222.60
935.26	222.61
935.56	222.62
935.86	222.59
936.16	222.57
936.46	222.57
936.76	222.56
937.06	222.54
937.36	222.55
937.66	222.56
937.96	222.55
938.26	222.53
938.56	222.52
938.86	222.53
939.16	222.55
939.46	222.56
939.76	222.56
940.06	222.56
940.35	222.54
940.65	222.49
940.95	222.50
941.25	222.48
941.55	222.47
941.85	222.46
942.15	222.48
942.45	222.51
942.75	222.51
943.04	222.52
943.34	222.54
943.64	222.53
943.94	222.52
944.24	222.51
944.54	222.52
944.84	222.52
945.13	222.50
945.43	222.48
945.73	222.47
946.03	222.46
946.33	222.45
946.62	222.44
946.92	222.44
947.22	222.44
947.52	222.45
947.82	222.46
948.11	222.45
948.41	222.42
948.71	222.39
949.01	222.39
949.31	222.38
949.60	222.37
949.90	222.38
950.20	222.37
950.50	222.37
950.79	222.36
951.09	222.37
951.39	222.37
951.69	222.36
951.98	222.38
952.28	222.39
952.58	222.39
952.87	222.39
953.17	222.40
953.47	222.39
953.76	222.39
954.06	222.37
954.36	222.35
954.66	222.35
954.95	222.38
955.25	222.39
955.55	222.40
955.84	222.39
956.14	222.39
956.44	222.41
956.73	222.39
957.03	222.40
957.32	222.40
957.62	222.39
957.92	222.41
958.21	222.40
958.51	222.52
958.81	222.53
959.10	222.54
959.40	222.56
959.69	222.57
959.99	222.59
960.29	222.59
960.58	222.59
960.88	222.64
961.17	222.62
961.47	222.63
961.76	222.62
962.06	222.64
962.36	222.63
962.65	222.63
962.95	222.64
963.24	222.63
963.54	222.63
963.83	222.64
964.13	222.63
964.42	222.62
964.72	222.53
965.01	222.53
965.31	222.52
965.60	222.49
965.90	222.55
966.19	222.53
966.49	222.54
966.78	222.53
967.08	222.52
967.37	222.52
967.67	222.50
967.96	222.52
968.26	222.51
968.55	222.53
968.85	222.52
969.14	222.52
969.43	222.52
969.73	222.51
970.02	222.50
970.32	222.50
970.61	222.48
970.91	222.45
971.20	222.44
971.49	222.43
971.79	222.44
972.08	222.37
972.38	222.38
972.67	222.37
972.96	222.39
973.26	222.37
973.55	222.40
973.85	222.39
974.14	222.38
974.43	222.39
974.73	222.37
975.02	222.36
975.31	222.36
975.61	222.36
975.90	222.35
976.19	222.34
976.49	222.36
976.78	222.36
977.07	222.36
977.37	222.37
977.66	222.38
977.95	222.37
978.24	222.38
978.54	222.40
978.83	222.39
979.12	222.38
979.42	222.38
979.71	222.36
980.00	222.36
980.29	222.36
980.59	222.34
980.88	222.37
981.17	222.37
981.46	222.37
981.76	222.37
982.05	222.40
982.34	222.41
982.63	222.41
982.93	222.41
983.22	222.43
983.51	222.44
983.80	222.46
984.09	222.47
984.39	222.47
984.68	222.45
984.97	222.46
985.26	222.45
985.55	222.46
985.85	222.44
986.14	222.46
986.43	222.47
986.72	222.47
987.01	222.43
987.30	222.43
987.59	222.43
987.89	222.43
988.18	222.40
988.47	222.39
988.76	222.38
989.05	222.37
989.34	222.36
989.63	222.38
989.92	222.36
990.22	222.35
990.51	222.34
990.80	222.33
991.09	222.34
991.38	222.36
991.67	222.35
991.96	222.35
992.25	222.35
992.54	222.33
992.83	222.33
993.12	222.33
993.41	222.35
993.70	222.39
993.99	222.41
994.28	222.43
994.58	222.44
994.87	222.43
995.16	222.43
995.45	222.42
995.74	222.39
996.03	222.40
996.32	222.42
996.61	222.44
996.90	222.44
997.19	222.43
997.48	222.43
997.77	222.42
998.06	222.42
998.34	222.41
998.63	222.41
998.92	222.41
999.21	222.43
999.50	222.43
999.79	222.39
1000.08	222.39
1000.37	222.39
1000.66	222.37
1000.95	222.40
1001.24	222.41
1001.53	222.42
1001.82	222.42
1002.11	222.39
1002.40	222.40
1002.68	222.41
1002.97	222.48
1003.26	222.47
1003.55	222.46
1003.84	222.47
1004.13	222.51
1004.42	222.51
1004.71	222.51
1004.99	222.50
1005.28	222.52
1005.57	222.51
1005.86	222.50
1006.15	222.49
1006.44	222.47
1006.72	222.48
1007.01	222.46
1007.30	222.46
1007.59	222.45
1007.88	222.45
1008.17	222.46
1008.45	222.44
1008.74	222.40
1009.03	222.35
1009.32	222.36
1009.60	222.36
1009.89	222.34
1010.18	222.30
1010.47	222.29
1010.76	222.29
1011.04	222.29
1011.33	222.29
1011.62	222.30
1011.91	222.31
1012.19	222.31
1012.48	222.31
1012.77	222.31
1013.05	222.35
1013.34	222.35
1013.63	222.34
1013.92	222.35
1014.20	222.34
1014.49	222.35
1014.78	222.36
1015.06	222.33
1015.35	222.33
1015.64	222.34
1015.92	222.36
1016.21	222.36
1016.50	222.37
1016.78	222.38
1017.07	222.39
1017.36	222.36
1017.64	222.35
1017.93	222.36
1018.22	222.35
1018.50	222.35
1018.79	222.35
1019.08	222.31
1019.36	222.32
1019.65	222.31
1019.93	222.33
1020.22	222.35
1020.51	222.40
1020.79	222.39
1021.08	222.17
1021.36	222.16
1021.65	222.39
1021.94	222.34
1022.22	222.36
1022.51	222.14
1022.79	222.82
1023.08	222.52
1023.36	223.58
1023.65	222.10
>>>>>End Processed Spectral Data<<<<<
