SpectraSuite Data File
++++++++++++++++++++++++++++++++++++
Date: Thu Oct 01 09:53:46 EDT 2015
User: lab3
Dark Spectrum Present: No
Reference Spectrum Present: No
Number of Sampled Component Spectra: 1
Spectrometers: USB2E7196
Integration Time (usec): 36000 (USB2E7196)
Spectra Averaged: 10000 (USB2E7196)
Boxcar Smoothing: 10 (USB2E7196)
Correct for Electrical Dark: No (USB2E7196)
Strobe/Lamp Enabled: No (USB2E7196)
Correct for Detector Non-linearity: No (USB2E7196)
Correct for Stray Light: No (USB2E7196)
Number of Pixels in Processed Spectrum: 2048
>>>>>Begin Processed Spectral Data<<<<<
339.09	0.00
339.48	210.20
339.86	211.70
340.24	213.09
340.63	214.48
341.01	217.49
341.39	217.20
341.78	218.52
342.16	219.76
342.54	220.26
342.93	208.81
343.31	219.36
343.69	219.90
344.07	220.36
344.46	220.79
344.84	221.17
345.22	221.41
345.60	221.66
345.99	221.86
346.37	222.00
346.75	222.10
347.13	222.17
347.52	222.24
347.90	222.32
348.28	222.36
348.66	222.41
349.05	222.42
349.43	222.47
349.81	222.52
350.19	222.58
350.57	222.65
350.96	222.73
351.34	222.82
351.72	222.92
352.10	223.02
352.48	223.10
352.87	223.15
353.25	223.22
353.63	223.28
354.01	223.34
354.39	223.42
354.77	223.50
355.15	223.60
355.54	223.65
355.92	223.69
356.30	223.76
356.68	223.90
357.06	223.98
357.44	224.03
357.82	224.09
358.20	224.20
358.58	224.26
358.97	224.33
359.35	224.41
359.73	224.49
360.11	224.54
360.49	224.60
360.87	224.65
361.25	224.72
361.63	224.80
362.01	224.85
362.39	224.88
362.77	224.92
363.15	224.95
363.53	224.99
363.91	225.02
364.29	225.04
364.67	224.97
365.05	224.99
365.43	225.03
365.81	225.06
366.19	225.07
366.57	225.12
366.95	225.12
367.33	225.09
367.71	225.09
368.09	225.10
368.47	225.10
368.85	225.09
369.23	225.10
369.61	225.04
369.99	225.05
370.37	225.05
370.75	225.11
371.13	225.08
371.51	225.04
371.89	225.02
372.27	224.99
372.65	224.96
373.03	224.92
373.41	224.88
373.78	224.82
374.16	224.73
374.54	224.66
374.92	224.61
375.30	224.57
375.68	224.50
376.06	224.46
376.44	224.40
376.82	224.36
377.19	224.30
377.57	224.25
377.95	224.17
378.33	224.11
378.71	223.96
379.09	223.92
379.47	223.88
379.84	223.81
380.22	223.75
380.60	223.69
380.98	223.64
381.36	223.58
381.73	223.52
382.11	223.48
382.49	223.44
382.87	223.37
383.25	223.33
383.62	223.41
384.00	223.34
384.38	223.29
384.76	223.27
385.13	223.26
385.51	223.22
385.89	223.16
386.27	223.13
386.64	223.11
387.02	223.06
387.40	223.01
387.78	222.98
388.15	222.95
388.53	222.92
388.91	222.89
389.29	222.85
389.66	222.85
390.04	222.81
390.42	222.80
390.79	222.79
391.17	222.77
391.55	222.63
391.92	222.62
392.30	222.62
392.68	222.59
393.05	222.56
393.43	222.56
393.81	222.57
394.18	222.55
394.56	222.55
394.94	222.58
395.31	222.58
395.69	222.62
396.06	222.65
396.44	222.67
396.82	222.68
397.19	222.76
397.57	222.77
397.95	222.81
398.32	222.81
398.70	222.85
399.07	222.91
399.45	222.95
399.82	222.99
400.20	223.02
400.58	223.08
400.95	223.09
401.33	223.17
401.70	223.31
402.08	223.40
402.45	223.48
402.83	223.59
403.20	223.69
403.58	223.78
403.95	223.91
404.33	224.04
404.71	224.18
405.08	224.36
405.46	224.51
405.83	224.67
406.21	224.85
406.58	225.05
406.96	225.24
407.33	225.46
407.70	225.71
408.08	226.05
408.45	226.34
408.83	226.66
409.20	226.95
409.58	227.21
409.95	227.57
410.33	227.95
410.70	228.31
411.08	228.74
411.45	229.19
411.82	229.65
412.20	230.17
412.57	230.79
412.95	231.28
413.32	231.92
413.69	232.57
414.07	233.26
414.44	234.02
414.82	234.79
415.19	235.69
415.56	236.61
415.94	237.56
416.31	238.63
416.68	239.70
417.06	240.94
417.43	242.10
417.81	243.45
418.18	244.82
418.55	246.31
418.93	247.87
419.30	249.49
419.67	251.23
420.04	253.00
420.42	254.86
420.79	257.01
421.16	259.18
421.54	261.37
421.91	263.67
422.28	266.07
422.66	268.64
423.03	271.10
423.40	273.68
423.77	276.44
424.15	279.26
424.52	282.20
424.89	285.38
425.26	288.55
425.64	291.48
426.01	294.78
426.38	298.15
426.75	301.62
427.13	305.16
427.50	308.87
427.87	312.72
428.24	316.61
428.61	320.33
428.99	324.33
429.36	328.73
429.73	332.93
430.10	337.11
430.47	341.38
430.85	345.77
431.22	350.45
431.59	355.25
431.96	359.92
432.33	365.10
432.70	369.99
433.08	375.79
433.45	381.27
433.82	386.64
434.19	392.66
434.56	398.58
434.93	404.28
435.30	409.92
435.68	416.27
436.05	422.48
436.42	428.70
436.79	434.36
437.16	440.47
437.53	447.02
437.90	453.57
438.27	459.97
438.64	466.93
439.01	473.23
439.38	478.99
439.75	484.55
440.13	490.92
440.50	497.00
440.87	501.81
441.24	507.09
441.61	512.92
441.98	517.21
442.35	522.31
442.72	527.55
443.09	532.58
443.46	535.86
443.83	538.31
444.20	540.41
444.57	543.43
444.94	545.30
445.31	547.23
445.68	548.96
446.05	550.31
446.42	550.29
446.79	550.17
447.16	550.09
447.53	550.07
447.90	548.33
448.27	546.71
448.64	544.05
449.01	542.33
449.37	538.45
449.74	534.93
450.11	530.37
450.48	525.32
450.85	520.23
451.22	515.92
451.59	511.70
451.96	507.87
452.33	502.19
452.70	497.13
453.07	490.93
453.43	484.72
453.80	478.70
454.17	472.92
454.54	467.55
454.91	461.47
455.28	455.74
455.65	450.32
456.02	444.54
456.38	439.89
456.75	433.89
457.12	429.05
457.49	424.16
457.86	419.48
458.23	415.38
458.59	410.85
458.96	406.17
459.33	402.05
459.70	397.85
460.07	394.65
460.43	390.88
460.80	387.36
461.17	384.24
461.54	380.88
461.91	377.74
462.27	374.55
462.64	371.94
463.01	368.96
463.38	365.95
463.74	363.24
464.11	360.81
464.48	358.62
464.85	356.28
465.21	354.48
465.58	352.49
465.95	350.21
466.32	348.39
466.68	346.60
467.05	344.82
467.42	343.09
467.78	341.23
468.15	339.52
468.52	338.25
468.88	336.58
469.25	335.05
469.62	333.84
469.98	332.53
470.35	331.37
470.72	330.31
471.08	329.25
471.45	328.36
471.82	327.39
472.18	326.38
472.55	325.72
472.92	324.91
473.28	324.27
473.65	323.62
474.02	323.00
474.38	322.50
474.75	322.22
475.11	321.80
475.48	321.65
475.85	321.49
476.21	321.44
476.58	321.45
476.94	321.65
477.31	321.78
477.67	321.94
478.04	322.21
478.41	322.56
478.77	323.03
479.14	323.38
479.50	323.94
479.87	324.65
480.23	325.37
480.60	326.05
480.96	326.77
481.33	327.75
481.69	328.73
482.06	329.70
482.42	330.61
482.79	331.71
483.15	332.97
483.52	334.38
483.88	335.75
484.25	337.19
484.61	338.70
484.98	340.32
485.34	342.13
485.71	344.02
486.07	346.02
486.44	348.02
486.80	350.25
487.17	352.52
487.53	355.01
487.90	357.61
488.26	360.42
488.62	363.39
488.99	366.36
489.35	369.46
489.72	372.81
490.08	376.35
490.44	379.96
490.81	383.75
491.17	387.62
491.54	391.76
491.90	396.00
492.26	400.58
492.63	405.39
492.99	410.40
493.36	415.53
493.72	420.94
494.08	426.47
494.45	432.32
494.81	438.40
495.17	444.60
495.54	451.15
495.90	458.01
496.26	465.00
496.63	472.24
496.99	479.78
497.35	487.67
497.72	495.87
498.08	504.23
498.44	512.85
498.80	522.05
499.17	531.46
499.53	541.23
499.89	551.21
500.26	561.37
500.62	571.81
500.98	582.94
501.34	594.22
501.71	606.06
502.07	618.12
502.43	630.56
502.79	643.36
503.16	656.57
503.52	669.97
503.88	683.76
504.24	697.97
504.60	712.46
504.97	727.35
505.33	742.62
505.69	758.83
506.05	775.23
506.41	791.63
506.78	808.36
507.14	825.54
507.50	843.35
507.86	861.52
508.22	880.00
508.59	898.49
508.95	917.68
509.31	937.32
509.67	957.66
510.03	978.23
510.39	998.99
510.75	1020.00
511.12	1041.31
511.48	1062.95
511.84	1084.67
512.20	1106.69
512.56	1129.85
512.92	1153.20
513.28	1176.25
513.64	1199.61
514.00	1223.38
514.37	1247.49
514.73	1271.62
515.09	1295.55
515.45	1319.91
515.81	1344.84
516.17	1369.81
516.53	1394.45
516.89	1419.12
517.25	1443.98
517.61	1469.04
517.97	1494.29
518.33	1519.26
518.69	1544.38
519.05	1569.75
519.41	1595.24
519.77	1621.01
520.13	1645.94
520.49	1671.03
520.85	1696.36
521.21	1721.60
521.57	1747.43
521.93	1772.50
522.29	1798.42
522.65	1824.07
523.01	1849.48
523.37	1874.16
523.73	1899.43
524.09	1924.88
524.45	1950.29
524.81	1975.21
525.17	2000.02
525.53	2024.37
525.89	2048.71
526.25	2073.26
526.61	2097.27
526.97	2121.54
527.33	2145.74
527.68	2169.83
528.04	2193.02
528.40	2216.05
528.76	2239.27
529.12	2261.40
529.48	2283.92
529.84	2304.54
530.20	2325.77
530.56	2346.66
530.91	2367.59
531.27	2388.03
531.63	2407.79
531.99	2427.01
532.35	2445.81
532.71	2464.72
533.07	2484.26
533.42	2502.22
533.78	2520.64
534.14	2538.99
534.50	2556.52
534.86	2574.64
535.21	2590.84
535.57	2607.03
535.93	2622.47
536.29	2636.71
536.65	2651.78
537.00	2665.73
537.36	2680.24
537.72	2693.61
538.08	2706.66
538.44	2718.57
538.79	2730.64
539.15	2741.07
539.51	2751.44
539.87	2761.52
540.22	2769.51
540.58	2777.51
540.94	2786.13
541.29	2793.10
541.65	2799.12
542.01	2804.64
542.37	2808.29
542.72	2813.84
543.08	2818.90
543.44	2823.82
543.79	2827.88
544.15	2831.09
544.51	2834.24
544.87	2836.51
545.22	2838.38
545.58	2839.30
545.94	2840.65
546.29	2840.56
546.65	2840.63
547.01	2840.69
547.36	2840.89
547.72	2841.20
548.07	2840.07
548.43	2838.27
548.79	2835.85
549.14	2833.48
549.50	2831.71
549.86	2829.15
550.21	2824.13
550.57	2819.52
550.92	2813.50
551.28	2808.11
551.64	2802.63
551.99	2797.55
552.35	2792.05
552.70	2786.11
553.06	2780.90
553.41	2775.22
553.77	2769.06
554.13	2763.51
554.48	2757.11
554.84	2749.00
555.19	2741.03
555.55	2732.51
555.90	2724.57
556.26	2717.66
556.61	2710.12
556.97	2700.38
557.32	2691.47
557.68	2683.07
558.03	2674.02
558.39	2665.66
558.74	2657.45
559.10	2647.94
559.45	2638.13
559.81	2628.68
560.16	2618.58
560.52	2607.97
560.87	2598.38
561.23	2588.42
561.58	2577.93
561.94	2567.20
562.29	2555.98
562.64	2545.42
563.00	2535.21
563.35	2524.90
563.71	2513.71
564.06	2501.87
564.42	2491.15
564.77	2480.03
565.12	2469.04
565.48	2457.74
565.83	2447.09
566.19	2436.46
566.54	2425.49
566.89	2413.60
567.25	2401.69
567.60	2390.61
567.96	2379.15
568.31	2366.26
568.66	2353.26
569.02	2341.36
569.37	2329.19
569.72	2317.57
570.08	2305.21
570.43	2292.31
570.78	2279.13
571.14	2265.68
571.49	2253.12
571.84	2240.81
572.20	2227.19
572.55	2213.97
572.90	2200.67
573.26	2186.49
573.61	2171.74
573.96	2157.27
574.31	2143.19
574.67	2129.28
575.02	2114.95
575.37	2100.17
575.72	2085.71
576.08	2071.86
576.43	2057.00
576.78	2042.19
577.13	2028.23
577.49	2014.27
577.84	2000.69
578.19	1986.25
578.54	1971.49
578.90	1956.18
579.25	1940.64
579.60	1926.48
579.95	1911.94
580.30	1897.45
580.66	1883.26
581.01	1868.68
581.36	1854.45
581.71	1840.77
582.06	1826.63
582.42	1812.51
582.77	1799.21
583.12	1785.56
583.47	1771.94
583.82	1758.45
584.17	1744.87
584.53	1731.07
584.88	1717.30
585.23	1703.18
585.58	1689.60
585.93	1676.47
586.28	1664.16
586.63	1651.68
586.98	1638.51
587.34	1625.58
587.69	1612.12
588.04	1598.89
588.39	1586.35
588.74	1573.38
589.09	1560.09
589.44	1546.78
589.79	1534.08
590.14	1521.20
590.49	1508.57
590.84	1495.80
591.19	1483.66
591.54	1471.00
591.89	1458.25
592.25	1445.85
592.60	1433.05
592.95	1420.80
593.30	1408.80
593.65	1396.60
594.00	1384.60
594.35	1373.41
594.70	1361.41
595.05	1350.51
595.40	1339.45
595.75	1327.78
596.10	1316.88
596.45	1306.22
596.80	1296.01
597.15	1285.59
597.50	1275.18
597.85	1264.95
598.19	1254.91
598.54	1244.28
598.89	1234.41
599.24	1224.87
599.59	1215.06
599.94	1206.29
600.29	1197.37
600.64	1188.24
600.99	1178.55
601.34	1169.33
601.69	1159.50
602.04	1150.76
602.39	1141.80
602.74	1133.10
603.08	1124.65
603.43	1115.71
603.78	1106.69
604.13	1097.80
604.48	1088.85
604.83	1080.17
605.18	1071.38
605.53	1062.55
605.87	1053.86
606.22	1045.41
606.57	1036.67
606.92	1028.04
607.27	1019.31
607.62	1010.69
607.96	1002.21
608.31	994.70
608.66	986.77
609.01	979.27
609.36	971.72
609.70	963.97
610.05	956.04
610.40	948.47
610.75	941.04
611.10	933.86
611.44	926.27
611.79	919.01
612.14	911.38
612.49	903.88
612.83	896.86
613.18	889.88
613.53	882.71
613.88	875.63
614.22	869.11
614.57	862.43
614.92	855.73
615.27	849.09
615.61	842.30
615.96	835.74
616.31	829.12
616.65	822.36
617.00	815.88
617.35	809.52
617.70	803.19
618.04	796.90
618.39	790.65
618.74	784.74
619.08	778.64
619.43	772.81
619.78	767.00
620.12	760.98
620.47	755.14
620.82	749.38
621.16	743.94
621.51	738.16
621.85	732.37
622.20	726.61
622.55	721.04
622.89	715.43
623.24	709.85
623.59	704.34
623.93	698.88
624.28	693.57
624.62	688.24
624.97	682.90
625.32	677.68
625.66	672.32
626.01	666.96
626.35	661.74
626.70	656.54
627.04	651.53
627.39	646.59
627.73	641.76
628.08	637.13
628.43	632.40
628.77	627.72
629.12	623.16
629.46	618.80
629.81	614.25
630.15	609.59
630.50	605.09
630.84	600.78
631.19	596.63
631.53	592.54
631.88	588.33
632.22	584.22
632.57	580.34
632.91	576.42
633.26	572.59
633.60	568.81
633.95	565.12
634.29	561.32
634.64	557.46
634.98	553.53
635.32	549.76
635.67	546.12
636.01	542.42
636.36	538.77
636.70	535.25
637.05	531.73
637.39	528.41
637.73	524.97
638.08	521.58
638.42	518.18
638.77	514.63
639.11	511.11
639.45	507.62
639.80	504.10
640.14	500.77
640.49	497.40
640.83	493.93
641.17	490.51
641.52	487.25
641.86	483.98
642.20	480.86
642.55	477.60
642.89	474.42
643.23	471.44
643.58	468.68
643.92	465.81
644.26	462.97
644.61	460.11
644.95	457.26
645.29	454.37
645.64	451.44
645.98	448.65
646.32	446.01
646.66	443.39
647.01	440.74
647.35	438.15
647.69	435.45
648.04	432.89
648.38	430.37
648.72	427.81
649.06	425.32
649.41	422.86
649.75	420.39
650.09	417.95
650.43	415.51
650.78	413.06
651.12	410.60
651.46	408.24
651.80	405.96
652.14	403.76
652.49	401.56
652.83	399.44
653.17	397.29
653.51	395.22
653.85	393.20
654.20	391.12
654.54	388.96
654.88	387.00
655.22	385.10
655.56	383.15
655.90	381.29
656.25	379.45
656.59	377.61
656.93	375.86
657.27	374.16
657.61	372.35
657.95	370.61
658.29	368.88
658.64	367.18
658.98	365.46
659.32	363.76
659.66	362.17
660.00	360.58
660.34	359.03
660.68	357.41
661.02	355.74
661.36	354.17
661.70	352.69
662.05	351.18
662.39	349.65
662.73	348.22
663.07	346.82
663.41	345.42
663.75	344.05
664.09	342.69
664.43	341.24
664.77	339.89
665.11	338.48
665.45	337.15
665.79	335.81
666.13	334.46
666.47	333.11
666.81	331.73
667.15	330.31
667.49	329.01
667.83	327.76
668.17	326.54
668.51	325.34
668.85	324.16
669.19	323.04
669.53	321.86
669.87	320.65
670.21	319.47
670.55	318.31
670.89	317.22
671.23	316.09
671.57	314.99
671.91	313.95
672.25	312.96
672.58	311.96
672.92	310.93
673.26	309.96
673.60	309.00
673.94	308.03
674.28	307.13
674.62	306.21
674.96	305.26
675.30	304.36
675.64	303.44
675.97	302.53
676.31	301.59
676.65	300.67
676.99	299.82
677.33	298.92
677.67	298.06
678.01	297.12
678.34	296.25
678.68	295.44
679.02	294.60
679.36	293.75
679.70	292.92
680.04	292.12
680.37	291.31
680.71	290.54
681.05	289.80
681.39	289.03
681.73	288.22
682.06	287.45
682.40	286.69
682.74	285.96
683.08	285.26
683.42	284.52
683.75	283.86
684.09	283.13
684.43	282.44
684.77	281.74
685.10	281.09
685.44	280.42
685.78	279.75
686.12	279.10
686.45	278.45
686.79	277.80
687.13	277.17
687.46	276.51
687.80	275.87
688.14	275.19
688.48	274.58
688.81	273.96
689.15	273.39
689.49	272.78
689.82	272.19
690.16	271.54
690.50	270.96
690.83	270.37
691.17	269.80
691.51	269.25
691.84	268.72
692.18	268.15
692.52	267.57
692.85	267.02
693.19	266.51
693.52	265.97
693.86	265.44
694.20	264.92
694.53	264.42
694.87	263.92
695.21	263.43
695.54	262.94
695.88	262.44
696.21	261.92
696.55	261.44
696.88	260.96
697.22	260.49
697.56	260.03
697.89	259.51
698.23	259.03
698.56	258.53
698.90	258.08
699.23	257.61
699.57	257.19
699.90	256.75
700.24	256.28
700.58	255.86
700.91	255.47
701.25	255.14
701.58	254.79
701.92	254.42
702.25	254.02
702.59	253.62
702.92	253.24
703.26	252.87
703.59	252.49
703.93	252.20
704.26	251.85
704.60	251.48
704.93	251.15
705.26	250.80
705.60	250.49
705.93	250.13
706.27	249.84
706.60	249.53
706.94	249.23
707.27	248.88
707.61	248.54
707.94	248.19
708.27	247.78
708.61	247.41
708.94	247.07
709.28	246.76
709.61	246.45
709.94	246.16
710.28	245.88
710.61	245.61
710.95	245.25
711.28	245.03
711.61	244.76
711.95	244.52
712.28	244.25
712.61	243.97
712.95	243.76
713.28	243.55
713.61	243.28
713.95	243.00
714.28	242.78
714.61	242.53
714.95	242.30
715.28	242.06
715.61	241.83
715.95	241.61
716.28	241.38
716.61	241.18
716.95	240.95
717.28	240.74
717.61	240.51
717.94	240.30
718.28	240.02
718.61	239.81
718.94	239.58
719.27	239.38
719.61	239.19
719.94	238.97
720.27	238.72
720.60	238.53
720.94	238.34
721.27	238.16
721.60	238.00
721.93	237.82
722.27	237.68
722.60	237.52
722.93	237.33
723.26	237.17
723.59	236.97
723.93	236.82
724.26	236.66
724.59	236.50
724.92	236.35
725.25	236.22
725.59	236.06
725.92	235.93
726.25	235.79
726.58	235.64
726.91	235.48
727.24	235.35
727.57	235.21
727.91	235.05
728.24	234.92
728.57	234.77
728.90	234.65
729.23	234.48
729.56	234.39
729.89	234.26
730.22	234.12
730.55	233.98
730.89	233.85
731.22	233.71
731.55	233.59
731.88	233.46
732.21	233.32
732.54	233.20
732.87	233.08
733.20	232.97
733.53	232.86
733.86	232.75
734.19	232.63
734.52	232.54
734.85	232.50
735.18	232.37
735.51	232.29
735.84	232.18
736.17	232.11
736.50	231.95
736.83	231.97
737.16	231.88
737.49	231.79
737.82	231.69
738.15	231.62
738.48	231.53
738.81	231.43
739.14	231.32
739.47	231.22
739.80	231.12
740.13	231.04
740.46	230.93
740.79	230.82
741.12	230.73
741.45	230.62
741.78	230.48
742.11	230.42
742.44	230.31
742.77	230.24
743.10	230.14
743.43	230.05
743.75	229.85
744.08	229.93
744.41	229.84
744.74	229.75
745.07	229.64
745.40	229.58
745.73	229.54
746.06	229.47
746.39	229.42
746.71	229.34
747.04	229.25
747.37	229.17
747.70	229.13
748.03	229.06
748.36	229.01
748.68	228.94
749.01	228.84
749.34	228.77
749.67	228.70
750.00	228.65
750.33	228.67
750.65	228.61
750.98	228.39
751.31	228.34
751.64	228.28
751.97	228.28
752.29	228.21
752.62	228.10
752.95	228.03
753.28	227.95
753.60	227.88
753.93	227.85
754.26	227.80
754.59	227.70
754.91	227.63
755.24	227.56
755.57	227.54
755.90	227.48
756.22	227.41
756.55	227.34
756.88	227.26
757.20	227.13
757.53	227.04
757.86	226.99
758.19	226.94
758.51	226.89
758.84	226.78
759.17	226.72
759.49	226.68
759.82	226.68
760.15	226.64
760.47	226.60
760.80	226.52
761.13	226.49
761.45	226.44
761.78	226.40
762.11	226.36
762.43	226.26
762.76	226.22
763.08	226.19
763.41	226.16
763.74	226.12
764.06	226.07
764.39	226.04
764.71	226.00
765.04	225.95
765.37	225.89
765.69	225.86
766.02	225.81
766.34	225.77
766.67	225.69
767.00	225.67
767.32	225.68
767.65	225.71
767.97	225.66
768.30	225.63
768.62	225.59
768.95	225.55
769.27	225.51
769.60	225.49
769.92	225.43
770.25	225.38
770.57	225.33
770.90	225.30
771.22	225.25
771.55	225.22
771.87	225.19
772.20	225.16
772.52	225.22
772.85	225.31
773.17	225.28
773.50	225.25
773.82	225.19
774.15	225.11
774.47	225.02
774.80	224.98
775.12	224.94
775.45	224.92
775.77	224.90
776.09	224.87
776.42	224.85
776.74	224.85
777.07	224.83
777.39	224.81
777.72	224.78
778.04	224.77
778.36	224.74
778.69	224.71
779.01	224.70
779.33	224.59
779.66	224.45
779.98	224.42
780.31	224.40
780.63	224.43
780.95	224.43
781.28	224.41
781.60	224.38
781.92	224.36
782.25	224.34
782.57	224.32
782.89	224.29
783.22	224.26
783.54	224.22
783.86	224.22
784.19	224.19
784.51	224.20
784.83	224.17
785.16	224.15
785.48	224.14
785.80	224.12
786.12	224.11
786.45	224.09
786.77	224.08
787.09	224.06
787.42	224.00
787.74	223.99
788.06	223.98
788.38	223.96
788.71	223.94
789.03	223.93
789.35	223.92
789.67	223.90
789.99	223.89
790.32	223.87
790.64	223.86
790.96	223.94
791.28	223.89
791.61	223.87
791.93	223.87
792.25	223.84
792.57	223.90
792.89	223.87
793.21	223.87
793.54	223.84
793.86	223.82
794.18	223.81
794.50	223.78
794.82	223.76
795.14	223.77
795.47	223.77
795.79	223.76
796.11	223.73
796.43	223.71
796.75	223.70
797.07	223.69
797.39	223.67
797.71	223.58
798.04	223.58
798.36	223.57
798.68	223.56
799.00	223.56
799.32	223.50
799.64	223.50
799.96	223.49
800.28	223.50
800.60	223.49
800.92	223.49
801.24	223.47
801.56	223.47
801.89	223.45
802.21	223.45
802.53	223.42
802.85	223.43
803.17	223.48
803.49	223.45
803.81	223.43
804.13	223.41
804.45	223.39
804.77	223.39
805.09	223.38
805.41	223.36
805.73	223.33
806.05	223.29
806.37	223.28
806.69	223.26
807.01	223.24
807.33	223.24
807.65	223.20
807.97	223.24
808.28	223.21
808.60	223.20
808.92	223.18
809.24	223.24
809.56	223.21
809.88	223.16
810.20	223.17
810.52	223.18
810.84	223.16
811.16	223.15
811.48	223.13
811.80	223.16
812.12	223.15
812.43	223.17
812.75	223.17
813.07	223.15
813.39	223.15
813.71	223.13
814.03	223.12
814.35	223.12
814.67	223.06
814.98	223.06
815.30	223.05
815.62	223.02
815.94	222.95
816.26	222.95
816.58	222.93
816.89	222.93
817.21	222.90
817.53	222.90
817.85	222.90
818.17	222.89
818.48	222.84
818.80	222.86
819.12	222.84
819.44	222.81
819.76	222.80
820.07	222.79
820.39	222.78
820.71	222.79
821.03	222.78
821.34	222.77
821.66	222.77
821.98	222.78
822.30	222.78
822.61	222.84
822.93	222.82
823.25	222.81
823.57	222.80
823.88	222.81
824.20	222.80
824.52	222.81
824.83	222.81
825.15	222.79
825.47	222.78
825.79	222.78
826.10	222.77
826.42	222.77
826.74	222.78
827.05	222.77
827.37	222.77
827.69	222.76
828.00	222.77
828.32	222.76
828.64	222.74
828.95	222.79
829.27	222.76
829.58	222.75
829.90	222.76
830.22	222.77
830.53	222.75
830.85	222.73
831.17	222.71
831.48	222.71
831.80	222.71
832.11	222.70
832.43	222.69
832.75	222.68
833.06	222.74
833.38	222.71
833.69	222.70
834.01	222.70
834.32	222.69
834.64	222.68
834.96	222.67
835.27	222.67
835.59	222.64
835.90	222.62
836.22	222.61
836.53	222.59
836.85	222.58
837.16	222.68
837.48	222.68
837.79	222.71
838.11	222.71
838.42	222.71
838.74	222.72
839.05	222.72
839.37	222.71
839.68	222.64
840.00	222.64
840.31	222.66
840.63	222.64
840.94	222.64
841.26	222.62
841.57	222.62
841.88	222.63
842.20	222.61
842.51	222.59
842.83	222.59
843.14	222.68
843.46	222.68
843.77	222.62
844.08	222.61
844.40	222.57
844.71	222.56
845.03	222.55
845.34	222.53
845.65	222.53
845.97	222.53
846.28	222.53
846.60	222.54
846.91	222.52
847.22	222.52
847.54	222.54
847.85	222.54
848.16	222.53
848.48	222.51
848.79	222.55
849.10	222.56
849.42	222.56
849.73	222.46
850.04	222.46
850.36	222.43
850.67	222.45
850.98	222.44
851.30	222.45
851.61	222.45
851.92	222.45
852.23	222.48
852.55	222.49
852.86	222.49
853.17	222.49
853.49	222.52
853.80	222.53
854.11	222.54
854.42	222.55
854.74	222.54
855.05	222.55
855.36	222.50
855.67	222.49
855.99	222.49
856.30	222.62
856.61	222.61
856.92	222.62
857.23	222.62
857.55	222.61
857.86	222.60
858.17	222.62
858.48	222.60
858.79	222.57
859.11	222.58
859.42	222.57
859.73	222.56
860.04	222.55
860.35	222.52
860.66	222.49
860.98	222.49
861.29	222.50
861.60	222.49
861.91	222.52
862.22	222.50
862.53	222.48
862.84	222.36
863.16	222.38
863.47	222.36
863.78	222.35
864.09	222.36
864.40	222.36
864.71	222.36
865.02	222.37
865.33	222.35
865.64	222.34
865.95	222.33
866.27	222.39
866.58	222.38
866.89	222.40
867.20	222.40
867.51	222.38
867.82	222.37
868.13	222.40
868.44	222.37
868.75	222.39
869.06	222.40
869.37	222.41
869.68	222.38
869.99	222.40
870.30	222.41
870.61	222.41
870.92	222.40
871.23	222.39
871.54	222.40
871.85	222.43
872.16	222.45
872.47	222.44
872.78	222.38
873.09	222.39
873.40	222.38
873.71	222.39
874.02	222.39
874.33	222.38
874.64	222.36
874.95	222.38
875.26	222.35
875.56	222.35
875.87	222.34
876.18	222.34
876.49	222.43
876.80	222.42
877.11	222.40
877.42	222.41
877.73	222.41
878.04	222.39
878.35	222.39
878.66	222.39
878.96	222.39
879.27	222.38
879.58	222.37
879.89	222.37
880.20	222.40
880.51	222.40
880.82	222.40
881.12	222.40
881.43	222.38
881.74	222.37
882.05	222.37
882.36	222.37
882.67	222.38
882.97	222.27
883.28	222.26
883.59	222.26
883.90	222.27
884.21	222.28
884.51	222.28
884.82	222.26
885.13	222.26
885.44	222.26
885.74	222.26
886.05	222.25
886.36	222.25
886.67	222.22
886.98	222.27
887.28	222.28
887.59	222.27
887.90	222.28
888.20	222.27
888.51	222.29
888.82	222.27
889.13	222.28
889.43	222.37
889.74	222.36
890.05	222.36
890.35	222.35
890.66	222.33
890.97	222.32
891.28	222.31
891.58	222.31
891.89	222.31
892.20	222.30
892.50	222.29
892.81	222.28
893.12	222.28
893.42	222.22
893.73	222.23
894.04	222.23
894.34	222.24
894.65	222.23
894.95	222.22
895.26	222.22
895.57	222.27
895.87	222.16
896.18	222.18
896.48	222.18
896.79	222.18
897.10	222.19
897.40	222.20
897.71	222.21
898.01	222.20
898.32	222.21
898.63	222.20
898.93	222.21
899.24	222.21
899.54	222.20
899.85	222.20
900.15	222.19
900.46	222.19
900.76	222.20
901.07	222.20
901.38	222.19
901.68	222.21
901.99	222.15
902.29	222.16
902.60	222.15
902.90	222.14
903.21	222.14
903.51	222.13
903.82	222.15
904.12	222.15
904.43	222.15
904.73	222.15
905.03	222.15
905.34	222.25
905.64	222.25
905.95	222.25
906.25	222.25
906.56	222.25
906.86	222.24
907.17	222.23
907.47	222.24
907.77	222.22
908.08	222.20
908.38	222.21
908.69	222.21
908.99	222.23
909.30	222.24
909.60	222.24
909.90	222.25
910.21	222.22
910.51	222.20
910.81	222.20
911.12	222.20
911.42	222.21
911.73	222.10
912.03	222.11
912.33	222.13
912.64	222.12
912.94	222.11
913.24	222.10
913.55	222.09
913.85	222.08
914.15	222.10
914.46	222.12
914.76	222.11
915.06	222.10
915.37	222.08
915.67	222.06
915.97	222.06
916.27	222.04
916.58	222.05
916.88	222.05
917.18	222.04
917.49	222.10
917.79	222.09
918.09	222.11
918.39	222.13
918.70	222.12
919.00	222.13
919.30	222.18
919.60	222.17
919.91	222.17
920.21	222.17
920.51	222.15
920.81	222.15
921.12	222.16
921.42	222.16
921.72	222.16
922.02	222.17
922.32	222.19
922.63	222.19
922.93	222.25
923.23	222.26
923.53	222.25
923.83	222.18
924.13	222.19
924.44	222.19
924.74	222.20
925.04	222.22
925.34	222.22
925.64	222.17
925.94	222.17
926.24	222.23
926.55	222.22
926.85	222.22
927.15	222.22
927.45	222.22
927.75	222.22
928.05	222.22
928.35	222.22
928.65	222.23
928.95	222.24
929.26	222.18
929.56	222.20
929.86	222.21
930.16	222.20
930.46	222.19
930.76	222.20
931.06	222.15
931.36	222.13
931.66	222.15
931.96	222.16
932.26	222.17
932.56	222.12
932.86	222.13
933.16	222.13
933.46	222.12
933.76	222.10
934.06	222.12
934.36	222.16
934.66	222.15
934.96	222.14
935.26	222.14
935.56	222.15
935.86	222.12
936.16	222.11
936.46	222.10
936.76	222.10
937.06	222.08
937.36	222.09
937.66	222.10
937.96	222.08
938.26	222.06
938.56	222.04
938.86	222.05
939.16	222.07
939.46	222.08
939.76	222.09
940.06	222.09
940.35	222.07
940.65	222.02
940.95	222.03
941.25	222.00
941.55	221.99
941.85	221.98
942.15	222.01
942.45	222.03
942.75	222.03
943.04	222.03
943.34	222.05
943.64	222.04
943.94	222.03
944.24	222.03
944.54	222.04
944.84	222.04
945.13	222.02
945.43	222.01
945.73	222.00
946.03	221.99
946.33	221.98
946.62	221.97
946.92	221.97
947.22	221.97
947.52	221.98
947.82	221.99
948.11	221.98
948.41	221.96
948.71	221.93
949.01	221.93
949.31	221.92
949.60	221.91
949.90	221.92
950.20	221.92
950.50	221.91
950.79	221.90
951.09	221.92
951.39	221.92
951.69	221.90
951.98	221.92
952.28	221.93
952.58	221.93
952.87	221.93
953.17	221.94
953.47	221.93
953.76	221.93
954.06	221.91
954.36	221.90
954.66	221.90
954.95	221.93
955.25	221.94
955.55	221.95
955.84	221.94
956.14	221.94
956.44	221.95
956.73	221.94
957.03	221.95
957.32	221.94
957.62	221.94
957.92	221.97
958.21	221.95
958.51	222.07
958.81	222.09
959.10	222.10
959.40	222.12
959.69	222.12
959.99	222.14
960.29	222.15
960.58	222.14
960.88	222.18
961.17	222.16
961.47	222.17
961.76	222.16
962.06	222.18
962.36	222.17
962.65	222.17
962.95	222.18
963.24	222.17
963.54	222.17
963.83	222.17
964.13	222.17
964.42	222.16
964.72	222.07
965.01	222.07
965.31	222.06
965.60	222.03
965.90	222.09
966.19	222.07
966.49	222.08
966.78	222.08
967.08	222.06
967.37	222.07
967.67	222.05
967.96	222.07
968.26	222.06
968.55	222.07
968.85	222.07
969.14	222.07
969.43	222.07
969.73	222.06
970.02	222.05
970.32	222.05
970.61	222.03
970.91	222.00
971.20	221.99
971.49	221.98
971.79	221.99
972.08	221.92
972.38	221.93
972.67	221.92
972.96	221.93
973.26	221.91
973.55	221.94
973.85	221.94
974.14	221.93
974.43	221.93
974.73	221.92
975.02	221.90
975.31	221.90
975.61	221.90
975.90	221.90
976.19	221.89
976.49	221.90
976.78	221.91
977.07	221.91
977.37	221.92
977.66	221.93
977.95	221.92
978.24	221.92
978.54	221.94
978.83	221.94
979.12	221.93
979.42	221.93
979.71	221.90
980.00	221.90
980.29	221.90
980.59	221.88
980.88	221.91
981.17	221.91
981.46	221.91
981.76	221.91
982.05	221.94
982.34	221.95
982.63	221.94
982.93	221.95
983.22	221.97
983.51	221.97
983.80	221.98
984.09	222.00
984.39	221.99
984.68	221.98
984.97	221.98
985.26	221.98
985.55	221.99
985.85	221.97
986.14	221.98
986.43	222.00
986.72	221.99
987.01	221.96
987.30	221.96
987.59	221.95
987.89	221.96
988.18	221.93
988.47	221.92
988.76	221.90
989.05	221.89
989.34	221.87
989.63	221.90
989.92	221.88
990.22	221.87
990.51	221.87
990.80	221.86
991.09	221.86
991.38	221.88
991.67	221.87
991.96	221.86
992.25	221.86
992.54	221.84
992.83	221.84
993.12	221.84
993.41	221.86
993.70	221.90
993.99	221.91
994.28	221.92
994.58	221.94
994.87	221.93
995.16	221.93
995.45	221.92
995.74	221.88
996.03	221.90
996.32	221.91
996.61	221.93
996.90	221.93
997.19	221.92
997.48	221.92
997.77	221.91
998.06	221.92
998.34	221.90
998.63	221.91
998.92	221.91
999.21	221.93
999.50	221.93
999.79	221.89
1000.08	221.89
1000.37	221.89
1000.66	221.87
1000.95	221.90
1001.24	221.91
1001.53	221.92
1001.82	221.92
1002.11	221.90
1002.40	221.91
1002.68	221.93
1002.97	222.00
1003.26	221.99
1003.55	221.98
1003.84	221.99
1004.13	222.02
1004.42	222.02
1004.71	222.02
1004.99	222.01
1005.28	222.03
1005.57	222.02
1005.86	222.01
1006.15	222.00
1006.44	221.99
1006.72	222.00
1007.01	221.98
1007.30	221.98
1007.59	221.97
1007.88	221.97
1008.17	221.98
1008.45	221.96
1008.74	221.92
1009.03	221.87
1009.32	221.87
1009.60	221.87
1009.89	221.86
1010.18	221.82
1010.47	221.82
1010.76	221.82
1011.04	221.82
1011.33	221.81
1011.62	221.82
1011.91	221.83
1012.19	221.84
1012.48	221.84
1012.77	221.84
1013.05	221.88
1013.34	221.88
1013.63	221.87
1013.92	221.88
1014.20	221.87
1014.49	221.88
1014.78	221.89
1015.06	221.86
1015.35	221.87
1015.64	221.88
1015.92	221.90
1016.21	221.91
1016.50	221.91
1016.78	221.92
1017.07	221.93
1017.36	221.91
1017.64	221.90
1017.93	221.90
1018.22	221.90
1018.50	221.89
1018.79	221.89
1019.08	221.85
1019.36	221.85
1019.65	221.85
1019.93	221.87
1020.22	221.89
1020.51	221.94
1020.79	221.92
1021.08	221.77
1021.36	221.68
1021.65	221.92
1021.94	221.79
1022.22	221.88
1022.51	221.66
1022.79	222.42
1023.08	222.01
1023.36	223.07
1023.65	221.62
>>>>>End Processed Spectral Data<<<<<
