SpectraSuite Data File
++++++++++++++++++++++++++++++++++++
Date: Wed Sep 30 22:01:05 EDT 2015
User: lab3
Dark Spectrum Present: No
Reference Spectrum Present: No
Number of Sampled Component Spectra: 1
Spectrometers: USB2E7196
Integration Time (usec): 36000 (USB2E7196)
Spectra Averaged: 10000 (USB2E7196)
Boxcar Smoothing: 10 (USB2E7196)
Correct for Electrical Dark: No (USB2E7196)
Strobe/Lamp Enabled: No (USB2E7196)
Correct for Detector Non-linearity: No (USB2E7196)
Correct for Stray Light: No (USB2E7196)
Number of Pixels in Processed Spectrum: 2048
>>>>>Begin Processed Spectral Data<<<<<
339.09	0.00
339.48	210.42
339.86	211.93
340.24	213.28
340.63	214.68
341.01	217.64
341.39	217.42
341.78	218.75
342.16	219.99
342.54	220.40
342.93	209.02
343.31	219.58
343.69	220.12
344.07	220.58
344.46	221.01
344.84	221.40
345.22	221.64
345.60	221.89
345.99	222.09
346.37	222.23
346.75	222.34
347.13	222.41
347.52	222.48
347.90	222.57
348.28	222.61
348.66	222.66
349.05	222.66
349.43	222.72
349.81	222.77
350.19	222.83
350.57	222.90
350.96	222.98
351.34	223.08
351.72	223.17
352.10	223.28
352.48	223.36
352.87	223.41
353.25	223.48
353.63	223.53
354.01	223.60
354.39	223.68
354.77	223.76
355.15	223.86
355.54	223.92
355.92	223.96
356.30	224.03
356.68	224.17
357.06	224.24
357.44	224.30
357.82	224.36
358.20	224.47
358.58	224.53
358.97	224.59
359.35	224.67
359.73	224.75
360.11	224.80
360.49	224.86
360.87	224.91
361.25	224.97
361.63	225.06
362.01	225.11
362.39	225.13
362.77	225.18
363.15	225.20
363.53	225.24
363.91	225.27
364.29	225.30
364.67	225.22
365.05	225.25
365.43	225.28
365.81	225.31
366.19	225.32
366.57	225.38
366.95	225.38
367.33	225.36
367.71	225.35
368.09	225.37
368.47	225.36
368.85	225.35
369.23	225.36
369.61	225.31
369.99	225.32
370.37	225.32
370.75	225.37
371.13	225.34
371.51	225.30
371.89	225.28
372.27	225.25
372.65	225.23
373.03	225.19
373.41	225.14
373.78	225.09
374.16	225.00
374.54	224.92
374.92	224.87
375.30	224.82
375.68	224.75
376.06	224.71
376.44	224.65
376.82	224.61
377.19	224.55
377.57	224.50
377.95	224.41
378.33	224.35
378.71	224.20
379.09	224.15
379.47	224.11
379.84	224.05
380.22	223.98
380.60	223.91
380.98	223.86
381.36	223.81
381.73	223.74
382.11	223.71
382.49	223.67
382.87	223.61
383.25	223.56
383.62	223.64
384.00	223.57
384.38	223.53
384.76	223.51
385.13	223.50
385.51	223.45
385.89	223.40
386.27	223.37
386.64	223.35
387.02	223.30
387.40	223.25
387.78	223.23
388.15	223.20
388.53	223.17
388.91	223.14
389.29	223.10
389.66	223.09
390.04	223.05
390.42	223.04
390.79	223.03
391.17	223.01
391.55	222.88
391.92	222.86
392.30	222.86
392.68	222.83
393.05	222.81
393.43	222.81
393.81	222.82
394.18	222.80
394.56	222.79
394.94	222.82
395.31	222.82
395.69	222.86
396.06	222.88
396.44	222.91
396.82	222.92
397.19	222.99
397.57	223.00
397.95	223.04
398.32	223.04
398.70	223.08
399.07	223.14
399.45	223.17
399.82	223.21
400.20	223.25
400.58	223.30
400.95	223.31
401.33	223.39
401.70	223.52
402.08	223.60
402.45	223.68
402.83	223.78
403.20	223.88
403.58	223.97
403.95	224.09
404.33	224.22
404.71	224.35
405.08	224.52
405.46	224.67
405.83	224.83
406.21	225.00
406.58	225.19
406.96	225.37
407.33	225.59
407.70	225.82
408.08	226.15
408.45	226.43
408.83	226.74
409.20	227.02
409.58	227.27
409.95	227.61
410.33	227.98
410.70	228.33
411.08	228.74
411.45	229.17
411.82	229.61
412.20	230.11
412.57	230.71
412.95	231.17
413.32	231.79
413.69	232.41
414.07	233.08
414.44	233.81
414.82	234.55
415.19	235.41
415.56	236.29
415.94	237.20
416.31	238.22
416.68	239.24
417.06	240.43
417.43	241.54
417.81	242.83
418.18	244.14
418.55	245.57
418.93	247.05
419.30	248.60
419.67	250.25
420.04	251.95
420.42	253.72
420.79	255.77
421.16	257.84
421.54	259.94
421.91	262.14
422.28	264.42
422.66	266.88
423.03	269.22
423.40	271.69
423.77	274.33
424.15	277.04
424.52	279.85
424.89	282.90
425.26	285.93
425.64	288.74
426.01	291.91
426.38	295.14
426.75	298.47
427.13	301.88
427.50	305.45
427.87	309.15
428.24	312.90
428.61	316.47
428.99	320.32
429.36	324.56
429.73	328.61
430.10	332.64
430.47	336.76
430.85	341.00
431.22	345.51
431.59	350.14
431.96	354.65
432.33	359.64
432.70	364.37
433.08	369.97
433.45	375.26
433.82	380.45
434.19	386.25
434.56	391.95
434.93	397.44
435.30	402.87
435.68	408.99
436.05	414.97
436.42	420.95
436.79	426.40
437.16	432.27
437.53	438.56
437.90	444.85
438.27	450.99
438.64	457.66
439.01	463.69
439.38	469.20
439.75	474.52
440.13	480.60
440.50	486.39
440.87	490.94
441.24	495.96
441.61	501.50
441.98	505.56
442.35	510.40
442.72	515.36
443.09	520.12
443.46	523.20
443.83	525.48
444.20	527.42
444.57	530.27
444.94	531.98
445.31	533.75
445.68	535.34
446.05	536.56
446.42	536.48
446.79	536.30
447.16	536.16
447.53	536.08
447.90	534.36
448.27	532.76
448.64	530.19
449.01	528.51
449.37	524.77
449.74	521.37
450.11	516.98
450.48	512.14
450.85	507.25
451.22	503.11
451.59	499.06
451.96	495.39
452.33	489.95
452.70	485.13
453.07	479.21
453.43	473.28
453.80	467.54
454.17	462.03
454.54	456.91
454.91	451.13
455.28	445.68
455.65	440.54
456.02	435.06
456.38	430.64
456.75	424.94
457.12	420.33
457.49	415.68
457.86	411.23
458.23	407.35
458.59	403.05
458.96	398.62
459.33	394.72
459.70	390.74
460.07	387.71
460.43	384.14
460.80	380.79
461.17	377.84
461.54	374.66
461.91	371.69
462.27	368.66
462.64	366.19
463.01	363.35
463.38	360.49
463.74	357.89
464.11	355.58
464.48	353.50
464.85	351.26
465.21	349.55
465.58	347.67
465.95	345.48
466.32	343.73
466.68	342.02
467.05	340.31
467.42	338.65
467.78	336.86
468.15	335.21
468.52	333.98
468.88	332.37
469.25	330.89
469.62	329.72
469.98	328.45
470.35	327.32
470.72	326.29
471.08	325.26
471.45	324.40
471.82	323.44
472.18	322.46
472.55	321.82
472.92	321.03
473.28	320.41
473.65	319.77
474.02	319.17
474.38	318.68
474.75	318.40
475.11	318.00
475.48	317.84
475.85	317.67
476.21	317.62
476.58	317.63
476.94	317.81
477.31	317.92
477.67	318.07
478.04	318.32
478.41	318.65
478.77	319.09
479.14	319.43
479.50	319.97
479.87	320.65
480.23	321.33
480.60	321.99
480.96	322.67
481.33	323.61
481.69	324.56
482.06	325.49
482.42	326.38
482.79	327.44
483.15	328.66
483.52	330.02
483.88	331.34
484.25	332.74
484.61	334.20
484.98	335.78
485.34	337.54
485.71	339.38
486.07	341.33
486.44	343.27
486.80	345.43
487.17	347.63
487.53	350.06
487.90	352.58
488.26	355.32
488.62	358.20
488.99	361.08
489.35	364.10
489.72	367.36
490.08	370.79
490.44	374.30
490.81	377.99
491.17	381.76
491.54	385.79
491.90	389.92
492.26	394.37
492.63	399.05
492.99	403.92
493.36	408.91
493.72	414.18
494.08	419.57
494.45	425.27
494.81	431.18
495.17	437.20
495.54	443.57
495.90	450.24
496.26	457.06
496.63	464.11
496.99	471.44
497.35	479.13
497.72	487.11
498.08	495.25
498.44	503.66
498.80	512.61
499.17	521.77
499.53	531.28
499.89	541.00
500.26	550.90
500.62	561.08
500.98	571.90
501.34	582.88
501.71	594.39
502.07	606.12
502.43	618.24
502.79	630.71
503.16	643.58
503.52	656.63
503.88	670.06
504.24	683.90
504.60	698.04
504.97	712.56
505.33	727.44
505.69	743.22
506.05	759.19
506.41	775.16
506.78	791.47
507.14	808.23
507.50	825.60
507.86	843.35
508.22	861.37
508.59	879.41
508.95	898.16
509.31	917.33
509.67	937.21
510.03	957.31
510.39	977.61
510.75	998.14
511.12	1018.97
511.48	1040.13
511.84	1061.39
512.20	1082.95
512.56	1105.59
512.92	1128.47
513.28	1151.09
513.64	1174.02
514.00	1197.36
514.37	1221.02
514.73	1244.70
515.09	1268.21
515.45	1292.16
515.81	1316.64
516.17	1341.20
516.53	1365.44
516.89	1389.79
517.25	1414.29
517.61	1438.98
517.97	1463.90
518.33	1488.56
518.69	1513.36
519.05	1538.43
519.41	1563.63
519.77	1589.10
520.13	1613.83
520.49	1638.71
520.85	1663.82
521.21	1688.84
521.57	1714.49
521.93	1739.41
522.29	1765.20
522.65	1790.72
523.01	1816.03
523.37	1840.65
523.73	1865.90
524.09	1891.32
524.45	1916.65
524.81	1941.52
525.17	1966.30
525.53	1990.64
525.89	2015.07
526.25	2039.69
526.61	2063.76
526.97	2088.14
527.33	2112.42
527.68	2136.54
528.04	2159.83
528.40	2182.98
528.76	2206.34
529.12	2228.65
529.48	2251.35
529.84	2272.21
530.20	2293.67
530.56	2314.76
530.91	2335.94
531.27	2356.63
531.63	2376.70
531.99	2396.23
532.35	2415.41
532.71	2434.70
533.07	2454.63
533.42	2472.97
533.78	2491.75
534.14	2510.46
534.50	2528.33
534.86	2546.86
535.21	2563.56
535.57	2580.23
535.93	2596.15
536.29	2610.86
536.65	2626.40
537.00	2640.79
537.36	2655.71
537.72	2669.61
538.08	2683.23
538.44	2695.67
538.79	2708.27
539.15	2719.24
539.51	2730.15
539.87	2740.71
540.22	2749.16
540.58	2757.68
540.94	2766.81
541.29	2774.38
541.65	2780.99
542.01	2787.10
542.37	2791.34
542.72	2797.51
543.08	2803.10
543.44	2808.56
543.79	2813.16
544.15	2816.90
544.51	2820.64
544.87	2823.53
545.22	2825.93
545.58	2827.32
545.94	2829.20
546.29	2829.66
546.65	2830.23
547.01	2830.83
547.36	2831.59
547.72	2832.49
548.07	2831.91
548.43	2830.67
548.79	2828.81
549.14	2827.04
549.50	2825.80
549.86	2823.71
550.21	2819.14
550.57	2815.06
550.92	2809.60
551.28	2804.74
551.64	2799.76
551.99	2795.20
552.35	2790.17
552.70	2784.76
553.06	2780.11
553.41	2774.96
553.77	2769.19
554.13	2764.09
554.48	2758.13
554.84	2750.49
555.19	2743.02
555.55	2734.95
555.90	2727.46
556.26	2721.00
556.61	2713.85
556.97	2704.56
557.32	2696.13
557.68	2688.17
558.03	2679.50
558.39	2671.50
558.74	2663.74
559.10	2654.75
559.45	2645.43
559.81	2636.40
560.16	2626.68
560.52	2616.47
560.87	2607.30
561.23	2597.80
561.58	2587.79
561.94	2577.53
562.29	2566.77
562.64	2556.60
563.00	2546.78
563.35	2536.78
563.71	2525.88
564.06	2514.46
564.42	2504.07
564.77	2493.33
565.12	2482.68
565.48	2471.79
565.83	2461.57
566.19	2451.32
566.54	2440.71
566.89	2429.12
567.25	2417.48
567.60	2406.73
567.96	2395.56
568.31	2382.96
568.66	2370.29
569.02	2358.67
569.37	2346.83
569.72	2335.52
570.08	2323.47
570.43	2310.90
570.78	2298.02
571.14	2284.90
571.49	2272.61
571.84	2260.62
572.20	2247.29
572.55	2234.34
572.90	2221.29
573.26	2207.33
573.61	2192.79
573.96	2178.51
574.31	2164.62
574.67	2150.98
575.02	2136.89
575.37	2122.37
575.72	2108.12
576.08	2094.51
576.43	2079.83
576.78	2065.16
577.13	2051.29
577.49	2037.49
577.84	2024.07
578.19	2009.79
578.54	1995.14
578.90	1979.94
579.25	1964.47
579.60	1950.49
579.95	1936.13
580.30	1921.77
580.66	1907.71
581.01	1893.24
581.36	1879.17
581.71	1865.65
582.06	1851.62
582.42	1837.61
582.77	1824.39
583.12	1810.83
583.47	1797.28
583.82	1783.86
584.17	1770.33
584.53	1756.66
584.88	1742.96
585.23	1728.93
585.58	1715.41
585.93	1702.33
586.28	1690.07
586.63	1677.63
586.98	1664.43
587.34	1651.49
587.69	1638.03
588.04	1624.78
588.39	1612.27
588.74	1599.23
589.09	1585.92
589.44	1572.60
589.79	1559.86
590.14	1546.97
590.49	1534.27
590.84	1521.44
591.19	1509.25
591.54	1496.59
591.89	1483.77
592.25	1471.28
592.60	1458.36
592.95	1446.04
593.30	1434.01
593.65	1421.76
594.00	1409.69
594.35	1398.44
594.70	1386.35
595.05	1375.36
595.40	1364.21
595.75	1352.43
596.10	1341.43
596.45	1330.66
596.80	1320.33
597.15	1309.79
597.50	1299.25
597.85	1288.91
598.19	1278.78
598.54	1268.03
598.89	1258.01
599.24	1248.31
599.59	1238.35
599.94	1229.45
600.29	1220.42
600.64	1211.17
600.99	1201.34
601.34	1192.00
601.69	1182.03
602.04	1173.17
602.39	1164.11
602.74	1155.31
603.08	1146.76
603.43	1137.71
603.78	1128.53
604.13	1119.53
604.48	1110.45
604.83	1101.65
605.18	1092.75
605.53	1083.78
605.87	1074.95
606.22	1066.39
606.57	1057.56
606.92	1048.82
607.27	1039.93
607.62	1031.13
607.96	1022.50
608.31	1014.87
608.66	1006.80
609.01	999.19
609.36	991.53
609.70	983.64
610.05	975.58
610.40	967.87
610.75	960.30
611.10	953.00
611.44	945.29
611.79	937.91
612.14	930.13
612.49	922.49
612.83	915.34
613.18	908.26
613.53	900.98
613.88	893.77
614.22	887.18
614.57	880.41
614.92	873.61
615.27	866.85
615.61	859.94
615.96	853.26
616.31	846.50
616.65	839.61
617.00	833.00
617.35	826.52
617.70	820.06
618.04	813.67
618.39	807.30
618.74	801.27
619.08	795.05
619.43	789.10
619.78	783.18
620.12	777.05
620.47	771.09
620.82	765.20
621.16	759.65
621.51	753.73
621.85	747.82
622.20	741.95
622.55	736.28
622.89	730.55
623.24	724.87
623.59	719.28
623.93	713.73
624.28	708.31
624.62	702.88
624.97	697.42
625.32	692.08
625.66	686.59
626.01	681.12
626.35	675.79
626.70	670.49
627.04	665.37
627.39	660.30
627.73	655.34
628.08	650.62
628.43	645.78
628.77	641.01
629.12	636.37
629.46	631.91
629.81	627.26
630.15	622.49
630.50	617.88
630.84	613.44
631.19	609.20
631.53	605.01
631.88	600.70
632.22	596.50
632.57	592.54
632.91	588.54
633.26	584.62
633.60	580.78
633.95	577.03
634.29	573.16
634.64	569.23
634.98	565.20
635.32	561.34
635.67	557.60
636.01	553.81
636.36	550.05
636.70	546.45
637.05	542.84
637.39	539.43
637.73	535.89
638.08	532.41
638.42	528.92
638.77	525.27
639.11	521.64
639.45	518.03
639.80	514.41
640.14	510.99
640.49	507.52
640.83	503.95
641.17	500.41
641.52	497.04
641.86	493.67
642.20	490.47
642.55	487.12
642.89	483.85
643.23	480.79
643.58	477.96
643.92	475.00
644.26	472.08
644.61	469.14
644.95	466.22
645.29	463.24
645.64	460.22
645.98	457.35
646.32	454.65
646.66	451.96
647.01	449.24
647.35	446.57
647.69	443.78
648.04	441.13
648.38	438.53
648.72	435.88
649.06	433.31
649.41	430.77
649.75	428.22
650.09	425.70
650.43	423.19
650.78	420.65
651.12	418.10
651.46	415.65
651.80	413.31
652.14	411.03
652.49	408.77
652.83	406.58
653.17	404.36
653.51	402.21
653.85	400.12
654.20	397.98
654.54	395.75
654.88	393.71
655.22	391.75
655.56	389.74
655.90	387.81
656.25	385.90
656.59	384.00
656.93	382.19
657.27	380.42
657.61	378.56
657.95	376.75
658.29	374.97
658.64	373.21
658.98	371.42
659.32	369.66
659.66	368.00
660.00	366.36
660.34	364.75
660.68	363.08
661.02	361.35
661.36	359.73
661.70	358.19
662.05	356.62
662.39	355.04
662.73	353.56
663.07	352.10
663.41	350.66
663.75	349.24
664.09	347.82
664.43	346.33
664.77	344.93
665.11	343.47
665.45	342.10
665.79	340.72
666.13	339.33
666.47	337.93
666.81	336.51
667.15	335.05
667.49	333.69
667.83	332.38
668.17	331.11
668.51	329.86
668.85	328.64
669.19	327.47
669.53	326.25
669.87	325.00
670.21	323.78
670.55	322.58
670.89	321.45
671.23	320.29
671.57	319.14
671.91	318.04
672.25	317.01
672.58	315.98
672.92	314.90
673.26	313.90
673.60	312.90
673.94	311.90
674.28	310.95
674.62	310.00
674.96	309.01
675.30	308.09
675.64	307.13
675.97	306.20
676.31	305.23
676.65	304.28
676.99	303.40
677.33	302.46
677.67	301.57
678.01	300.60
678.34	299.70
678.68	298.87
679.02	298.00
679.36	297.14
679.70	296.29
680.04	295.46
680.37	294.62
680.71	293.81
681.05	293.05
681.39	292.26
681.73	291.42
682.06	290.62
682.40	289.84
682.74	289.09
683.08	288.35
683.42	287.60
683.75	286.92
684.09	286.16
684.43	285.45
684.77	284.72
685.10	284.06
685.44	283.36
685.78	282.66
686.12	281.99
686.45	281.32
686.79	280.64
687.13	279.99
687.46	279.31
687.80	278.66
688.14	277.96
688.48	277.32
688.81	276.69
689.15	276.11
689.49	275.48
689.82	274.87
690.16	274.20
690.50	273.60
690.83	272.99
691.17	272.40
691.51	271.83
691.84	271.27
692.18	270.68
692.52	270.08
692.85	269.50
693.19	268.97
693.52	268.41
693.86	267.86
694.20	267.32
694.53	266.81
694.87	266.28
695.21	265.77
695.54	265.27
695.88	264.75
696.21	264.19
696.55	263.69
696.88	263.19
697.22	262.70
697.56	262.21
697.89	261.67
698.23	261.17
698.56	260.65
698.90	260.18
699.23	259.70
699.57	259.25
699.90	258.80
700.24	258.31
700.58	257.87
700.91	257.45
701.25	257.11
701.58	256.73
701.92	256.34
702.25	255.93
702.59	255.51
702.92	255.11
703.26	254.72
703.59	254.32
703.93	254.01
704.26	253.64
704.60	253.27
704.93	252.91
705.26	252.55
705.60	252.22
705.93	251.84
706.27	251.53
706.60	251.21
706.94	250.90
707.27	250.52
707.61	250.16
707.94	249.80
708.27	249.36
708.61	248.98
708.94	248.62
709.28	248.29
709.61	247.97
709.94	247.67
710.28	247.37
710.61	247.08
710.95	246.70
711.28	246.47
711.61	246.19
711.95	245.93
712.28	245.64
712.61	245.34
712.95	245.12
713.28	244.90
713.61	244.61
713.95	244.33
714.28	244.09
714.61	243.83
714.95	243.59
715.28	243.33
715.61	243.08
715.95	242.85
716.28	242.61
716.61	242.40
716.95	242.15
717.28	241.93
717.61	241.69
717.94	241.46
718.28	241.17
718.61	240.94
718.94	240.70
719.27	240.49
719.61	240.30
719.94	240.06
720.27	239.80
720.60	239.59
720.94	239.39
721.27	239.20
721.60	239.03
721.93	238.84
722.27	238.70
722.60	238.53
722.93	238.33
723.26	238.16
723.59	237.96
723.93	237.79
724.26	237.63
724.59	237.45
724.92	237.29
725.25	237.16
725.59	237.00
725.92	236.86
726.25	236.70
726.58	236.55
726.91	236.38
727.24	236.25
727.57	236.10
727.91	235.93
728.24	235.80
728.57	235.64
728.90	235.50
729.23	235.33
729.56	235.23
729.89	235.09
730.22	234.94
730.55	234.80
730.89	234.66
731.22	234.51
731.55	234.38
731.88	234.25
732.21	234.10
732.54	233.97
732.87	233.84
733.20	233.73
733.53	233.61
733.86	233.50
734.19	233.36
734.52	233.27
734.85	233.23
735.18	233.09
735.51	233.01
735.84	232.90
736.17	232.82
736.50	232.66
736.83	232.67
737.16	232.57
737.49	232.48
737.82	232.38
738.15	232.29
738.48	232.20
738.81	232.10
739.14	231.99
739.47	231.88
739.80	231.78
740.13	231.69
740.46	231.58
740.79	231.47
741.12	231.38
741.45	231.26
741.78	231.11
742.11	231.05
742.44	230.93
742.77	230.85
743.10	230.74
743.43	230.65
743.75	230.45
744.08	230.52
744.41	230.42
744.74	230.33
745.07	230.22
745.40	230.16
745.73	230.12
746.06	230.05
746.39	229.99
746.71	229.90
747.04	229.81
747.37	229.74
747.70	229.68
748.03	229.61
748.36	229.55
748.68	229.48
749.01	229.37
749.34	229.31
749.67	229.24
750.00	229.19
750.33	229.20
750.65	229.14
750.98	228.92
751.31	228.86
751.64	228.80
751.97	228.79
752.29	228.71
752.62	228.60
752.95	228.52
753.28	228.44
753.60	228.37
753.93	228.33
754.26	228.27
754.59	228.17
754.91	228.10
755.24	228.02
755.57	228.01
755.90	227.94
756.22	227.87
756.55	227.79
756.88	227.71
757.20	227.57
757.53	227.48
757.86	227.42
758.19	227.36
758.51	227.30
758.84	227.20
759.17	227.13
759.49	227.09
759.82	227.09
760.15	227.05
760.47	227.00
760.80	226.92
761.13	226.89
761.45	226.85
761.78	226.80
762.11	226.76
762.43	226.65
762.76	226.61
763.08	226.58
763.41	226.54
763.74	226.50
764.06	226.46
764.39	226.42
764.71	226.38
765.04	226.33
765.37	226.28
765.69	226.24
766.02	226.20
766.34	226.15
766.67	226.07
767.00	226.05
767.32	226.07
767.65	226.09
767.97	226.04
768.30	226.01
768.62	225.97
768.95	225.92
769.27	225.88
769.60	225.86
769.92	225.80
770.25	225.75
770.57	225.70
770.90	225.66
771.22	225.62
771.55	225.58
771.87	225.56
772.20	225.53
772.52	225.58
772.85	225.68
773.17	225.65
773.50	225.61
773.82	225.56
774.15	225.47
774.47	225.37
774.80	225.34
775.12	225.30
775.45	225.27
775.77	225.25
776.09	225.23
776.42	225.21
776.74	225.21
777.07	225.18
777.39	225.16
777.72	225.13
778.04	225.12
778.36	225.09
778.69	225.06
779.01	225.04
779.33	224.93
779.66	224.78
779.98	224.75
780.31	224.74
780.63	224.76
780.95	224.76
781.28	224.73
781.60	224.70
781.92	224.69
782.25	224.67
782.57	224.64
782.89	224.61
783.22	224.59
783.54	224.54
783.86	224.54
784.19	224.51
784.51	224.52
784.83	224.49
785.16	224.47
785.48	224.46
785.80	224.44
786.12	224.43
786.45	224.41
786.77	224.41
787.09	224.38
787.42	224.33
787.74	224.31
788.06	224.30
788.38	224.28
788.71	224.26
789.03	224.25
789.35	224.24
789.67	224.21
789.99	224.20
790.32	224.17
790.64	224.16
790.96	224.25
791.28	224.19
791.61	224.17
791.93	224.16
792.25	224.14
792.57	224.20
792.89	224.17
793.21	224.16
793.54	224.13
793.86	224.10
794.18	224.09
794.50	224.06
794.82	224.05
795.14	224.05
795.47	224.05
795.79	224.04
796.11	224.01
796.43	224.00
796.75	223.98
797.07	223.98
797.39	223.96
797.71	223.87
798.04	223.86
798.36	223.86
798.68	223.85
799.00	223.84
799.32	223.78
799.64	223.79
799.96	223.78
800.28	223.79
800.60	223.77
800.92	223.77
801.24	223.75
801.56	223.75
801.89	223.73
802.21	223.72
802.53	223.69
802.85	223.71
803.17	223.75
803.49	223.72
803.81	223.70
804.13	223.68
804.45	223.66
804.77	223.66
805.09	223.65
805.41	223.63
805.73	223.60
806.05	223.56
806.37	223.54
806.69	223.53
807.01	223.50
807.33	223.51
807.65	223.46
807.97	223.50
808.28	223.48
808.60	223.47
808.92	223.45
809.24	223.50
809.56	223.47
809.88	223.43
810.20	223.43
810.52	223.44
810.84	223.42
811.16	223.40
811.48	223.38
811.80	223.42
812.12	223.41
812.43	223.43
812.75	223.43
813.07	223.41
813.39	223.41
813.71	223.39
814.03	223.38
814.35	223.38
814.67	223.33
814.98	223.31
815.30	223.31
815.62	223.29
815.94	223.21
816.26	223.22
816.58	223.20
816.89	223.20
817.21	223.16
817.53	223.17
817.85	223.17
818.17	223.17
818.48	223.12
818.80	223.13
819.12	223.11
819.44	223.08
819.76	223.07
820.07	223.06
820.39	223.05
820.71	223.06
821.03	223.05
821.34	223.04
821.66	223.05
821.98	223.06
822.30	223.05
822.61	223.11
822.93	223.09
823.25	223.09
823.57	223.07
823.88	223.08
824.20	223.07
824.52	223.08
824.83	223.07
825.15	223.06
825.47	223.05
825.79	223.05
826.10	223.05
826.42	223.05
826.74	223.05
827.05	223.04
827.37	223.04
827.69	223.03
828.00	223.03
828.32	223.03
828.64	223.01
828.95	223.06
829.27	223.03
829.58	223.03
829.90	223.04
830.22	223.05
830.53	223.02
830.85	223.01
831.17	222.99
831.48	222.98
831.80	222.99
832.11	222.98
832.43	222.96
832.75	222.96
833.06	223.02
833.38	222.99
833.69	222.98
834.01	222.98
834.32	222.98
834.64	222.96
834.96	222.96
835.27	222.95
835.59	222.91
835.90	222.90
836.22	222.89
836.53	222.87
836.85	222.86
837.16	222.96
837.48	222.95
837.79	222.99
838.11	222.99
838.42	222.99
838.74	222.99
839.05	222.98
839.37	222.98
839.68	222.91
840.00	222.91
840.31	222.92
840.63	222.91
840.94	222.89
841.26	222.89
841.57	222.88
841.88	222.89
842.20	222.87
842.51	222.86
842.83	222.85
843.14	222.94
843.46	222.94
843.77	222.88
844.08	222.87
844.40	222.84
844.71	222.83
845.03	222.81
845.34	222.80
845.65	222.80
845.97	222.80
846.28	222.80
846.60	222.80
846.91	222.79
847.22	222.78
847.54	222.81
847.85	222.81
848.16	222.80
848.48	222.78
848.79	222.82
849.10	222.83
849.42	222.83
849.73	222.73
850.04	222.73
850.36	222.69
850.67	222.70
850.98	222.70
851.30	222.71
851.61	222.71
851.92	222.71
852.23	222.74
852.55	222.74
852.86	222.74
853.17	222.75
853.49	222.77
853.80	222.79
854.11	222.79
854.42	222.80
854.74	222.79
855.05	222.80
855.36	222.74
855.67	222.74
855.99	222.74
856.30	222.87
856.61	222.86
856.92	222.87
857.23	222.87
857.55	222.86
857.86	222.85
858.17	222.86
858.48	222.85
858.79	222.82
859.11	222.83
859.42	222.82
859.73	222.80
860.04	222.79
860.35	222.76
860.66	222.73
860.98	222.72
861.29	222.74
861.60	222.73
861.91	222.75
862.22	222.74
862.53	222.72
862.84	222.60
863.16	222.62
863.47	222.60
863.78	222.58
864.09	222.59
864.40	222.60
864.71	222.60
865.02	222.61
865.33	222.60
865.64	222.58
865.95	222.58
866.27	222.65
866.58	222.64
866.89	222.65
867.20	222.65
867.51	222.63
867.82	222.63
868.13	222.66
868.44	222.64
868.75	222.65
869.06	222.66
869.37	222.67
869.68	222.65
869.99	222.67
870.30	222.68
870.61	222.69
870.92	222.67
871.23	222.66
871.54	222.68
871.85	222.70
872.16	222.71
872.47	222.71
872.78	222.65
873.09	222.65
873.40	222.65
873.71	222.65
874.02	222.66
874.33	222.65
874.64	222.63
874.95	222.64
875.26	222.62
875.56	222.62
875.87	222.61
876.18	222.61
876.49	222.70
876.80	222.69
877.11	222.67
877.42	222.67
877.73	222.68
878.04	222.66
878.35	222.66
878.66	222.65
878.96	222.65
879.27	222.65
879.58	222.65
879.89	222.64
880.20	222.67
880.51	222.66
880.82	222.66
881.12	222.67
881.43	222.64
881.74	222.63
882.05	222.62
882.36	222.63
882.67	222.63
882.97	222.52
883.28	222.51
883.59	222.51
883.90	222.52
884.21	222.53
884.51	222.52
884.82	222.50
885.13	222.50
885.44	222.50
885.74	222.50
886.05	222.49
886.36	222.49
886.67	222.45
886.98	222.50
887.28	222.51
887.59	222.51
887.90	222.51
888.20	222.51
888.51	222.53
888.82	222.52
889.13	222.52
889.43	222.61
889.74	222.60
890.05	222.60
890.35	222.59
890.66	222.57
890.97	222.56
891.28	222.55
891.58	222.55
891.89	222.55
892.20	222.54
892.50	222.53
892.81	222.53
893.12	222.53
893.42	222.47
893.73	222.47
894.04	222.47
894.34	222.48
894.65	222.48
894.95	222.46
895.26	222.47
895.57	222.51
895.87	222.41
896.18	222.43
896.48	222.44
896.79	222.44
897.10	222.45
897.40	222.45
897.71	222.46
898.01	222.45
898.32	222.46
898.63	222.46
898.93	222.46
899.24	222.47
899.54	222.46
899.85	222.46
900.15	222.45
900.46	222.45
900.76	222.46
901.07	222.46
901.38	222.45
901.68	222.46
901.99	222.41
902.29	222.41
902.60	222.40
902.90	222.39
903.21	222.38
903.51	222.37
903.82	222.39
904.12	222.40
904.43	222.41
904.73	222.40
905.03	222.41
905.34	222.50
905.64	222.50
905.95	222.50
906.25	222.50
906.56	222.50
906.86	222.50
907.17	222.49
907.47	222.49
907.77	222.48
908.08	222.46
908.38	222.47
908.69	222.47
908.99	222.48
909.30	222.49
909.60	222.50
909.90	222.50
910.21	222.47
910.51	222.46
910.81	222.45
911.12	222.46
911.42	222.46
911.73	222.35
912.03	222.36
912.33	222.38
912.64	222.37
912.94	222.35
913.24	222.33
913.55	222.33
913.85	222.32
914.15	222.34
914.46	222.35
914.76	222.34
915.06	222.34
915.37	222.32
915.67	222.31
915.97	222.31
916.27	222.29
916.58	222.30
916.88	222.30
917.18	222.29
917.49	222.36
917.79	222.35
918.09	222.37
918.39	222.39
918.70	222.38
919.00	222.39
919.30	222.44
919.60	222.44
919.91	222.43
920.21	222.43
920.51	222.42
920.81	222.41
921.12	222.42
921.42	222.42
921.72	222.42
922.02	222.43
922.32	222.44
922.63	222.44
922.93	222.50
923.23	222.50
923.53	222.50
923.83	222.42
924.13	222.43
924.44	222.42
924.74	222.43
925.04	222.45
925.34	222.45
925.64	222.40
925.94	222.41
926.24	222.46
926.55	222.45
926.85	222.47
927.15	222.46
927.45	222.46
927.75	222.46
928.05	222.46
928.35	222.45
928.65	222.46
928.95	222.47
929.26	222.42
929.56	222.44
929.86	222.45
930.16	222.45
930.46	222.44
930.76	222.44
931.06	222.39
931.36	222.37
931.66	222.38
931.96	222.39
932.26	222.40
932.56	222.35
932.86	222.36
933.16	222.36
933.46	222.35
933.76	222.33
934.06	222.35
934.36	222.39
934.66	222.38
934.96	222.37
935.26	222.37
935.56	222.38
935.86	222.35
936.16	222.33
936.46	222.33
936.76	222.33
937.06	222.31
937.36	222.31
937.66	222.32
937.96	222.31
938.26	222.29
938.56	222.28
938.86	222.28
939.16	222.30
939.46	222.31
939.76	222.31
940.06	222.32
940.35	222.30
940.65	222.25
940.95	222.26
941.25	222.23
941.55	222.22
941.85	222.21
942.15	222.24
942.45	222.27
942.75	222.26
943.04	222.27
943.34	222.29
943.64	222.28
943.94	222.27
944.24	222.26
944.54	222.28
944.84	222.28
945.13	222.27
945.43	222.25
945.73	222.25
946.03	222.24
946.33	222.22
946.62	222.21
946.92	222.22
947.22	222.22
947.52	222.23
947.82	222.25
948.11	222.24
948.41	222.22
948.71	222.19
949.01	222.20
949.31	222.19
949.60	222.17
949.90	222.19
950.20	222.19
950.50	222.19
950.79	222.18
951.09	222.19
951.39	222.19
951.69	222.18
951.98	222.20
952.28	222.21
952.58	222.21
952.87	222.21
953.17	222.22
953.47	222.21
953.76	222.20
954.06	222.18
954.36	222.17
954.66	222.17
954.95	222.20
955.25	222.20
955.55	222.21
955.84	222.20
956.14	222.20
956.44	222.21
956.73	222.20
957.03	222.21
957.32	222.20
957.62	222.20
957.92	222.22
958.21	222.21
958.51	222.33
958.81	222.34
959.10	222.35
959.40	222.37
959.69	222.38
959.99	222.40
960.29	222.40
960.58	222.40
960.88	222.43
961.17	222.42
961.47	222.43
961.76	222.42
962.06	222.44
962.36	222.42
962.65	222.43
962.95	222.43
963.24	222.42
963.54	222.42
963.83	222.43
964.13	222.42
964.42	222.41
964.72	222.32
965.01	222.32
965.31	222.31
965.60	222.29
965.90	222.35
966.19	222.32
966.49	222.33
966.78	222.32
967.08	222.31
967.37	222.30
967.67	222.28
967.96	222.30
968.26	222.29
968.55	222.31
968.85	222.31
969.14	222.30
969.43	222.30
969.73	222.29
970.02	222.28
970.32	222.27
970.61	222.26
970.91	222.23
971.20	222.21
971.49	222.20
971.79	222.21
972.08	222.13
972.38	222.15
972.67	222.14
972.96	222.16
973.26	222.14
973.55	222.17
973.85	222.16
974.14	222.15
974.43	222.16
974.73	222.14
975.02	222.13
975.31	222.13
975.61	222.13
975.90	222.12
976.19	222.12
976.49	222.13
976.78	222.14
977.07	222.13
977.37	222.14
977.66	222.15
977.95	222.13
978.24	222.14
978.54	222.16
978.83	222.16
979.12	222.15
979.42	222.15
979.71	222.12
980.00	222.12
980.29	222.13
980.59	222.11
980.88	222.14
981.17	222.14
981.46	222.14
981.76	222.14
982.05	222.17
982.34	222.17
982.63	222.17
982.93	222.17
983.22	222.20
983.51	222.20
983.80	222.22
984.09	222.24
984.39	222.23
984.68	222.22
984.97	222.22
985.26	222.22
985.55	222.22
985.85	222.21
986.14	222.22
986.43	222.23
986.72	222.23
987.01	222.20
987.30	222.20
987.59	222.19
987.89	222.20
988.18	222.17
988.47	222.16
988.76	222.15
989.05	222.15
989.34	222.13
989.63	222.16
989.92	222.14
990.22	222.12
990.51	222.12
990.80	222.11
991.09	222.12
991.38	222.13
991.67	222.12
991.96	222.11
992.25	222.12
992.54	222.10
992.83	222.10
993.12	222.10
993.41	222.11
993.70	222.16
993.99	222.17
994.28	222.18
994.58	222.20
994.87	222.19
995.16	222.19
995.45	222.18
995.74	222.15
996.03	222.16
996.32	222.18
996.61	222.20
996.90	222.20
997.19	222.19
997.48	222.20
997.77	222.19
998.06	222.19
998.34	222.18
998.63	222.18
998.92	222.19
999.21	222.21
999.50	222.21
999.79	222.17
1000.08	222.16
1000.37	222.16
1000.66	222.15
1000.95	222.17
1001.24	222.18
1001.53	222.19
1001.82	222.19
1002.11	222.17
1002.40	222.18
1002.68	222.20
1002.97	222.27
1003.26	222.25
1003.55	222.23
1003.84	222.24
1004.13	222.28
1004.42	222.28
1004.71	222.28
1004.99	222.27
1005.28	222.28
1005.57	222.28
1005.86	222.27
1006.15	222.26
1006.44	222.24
1006.72	222.26
1007.01	222.24
1007.30	222.24
1007.59	222.23
1007.88	222.22
1008.17	222.23
1008.45	222.20
1008.74	222.16
1009.03	222.11
1009.32	222.12
1009.60	222.12
1009.89	222.11
1010.18	222.07
1010.47	222.07
1010.76	222.07
1011.04	222.07
1011.33	222.06
1011.62	222.07
1011.91	222.08
1012.19	222.08
1012.48	222.09
1012.77	222.09
1013.05	222.12
1013.34	222.12
1013.63	222.12
1013.92	222.13
1014.20	222.12
1014.49	222.13
1014.78	222.14
1015.06	222.11
1015.35	222.12
1015.64	222.13
1015.92	222.15
1016.21	222.15
1016.50	222.16
1016.78	222.17
1017.07	222.18
1017.36	222.16
1017.64	222.15
1017.93	222.16
1018.22	222.15
1018.50	222.14
1018.79	222.14
1019.08	222.11
1019.36	222.11
1019.65	222.10
1019.93	222.13
1020.22	222.15
1020.51	222.20
1020.79	222.19
1021.08	221.98
1021.36	221.95
1021.65	222.11
1021.94	222.11
1022.22	222.21
1022.51	221.95
1022.79	222.60
1023.08	222.29
1023.36	223.37
1023.65	221.93
>>>>>End Processed Spectral Data<<<<<
