SpectraSuite Data File
++++++++++++++++++++++++++++++++++++
Date: Wed Sep 30 17:12:46 EDT 2015
User: lab3
Dark Spectrum Present: No
Reference Spectrum Present: No
Number of Sampled Component Spectra: 1
Spectrometers: USB2E7196
Integration Time (usec): 36000 (USB2E7196)
Spectra Averaged: 3000 (USB2E7196)
Boxcar Smoothing: 10 (USB2E7196)
Correct for Electrical Dark: No (USB2E7196)
Strobe/Lamp Enabled: No (USB2E7196)
Correct for Detector Non-linearity: No (USB2E7196)
Correct for Stray Light: No (USB2E7196)
Number of Pixels in Processed Spectrum: 2048
>>>>>Begin Processed Spectral Data<<<<<
339.09	0.00
339.48	210.12
339.86	211.67
340.24	213.09
340.63	214.40
341.01	217.31
341.39	217.16
341.78	218.47
342.16	219.53
342.54	220.06
342.93	208.74
343.31	219.29
343.69	219.84
344.07	220.30
344.46	220.72
344.84	221.11
345.22	221.35
345.60	221.61
345.99	221.80
346.37	221.94
346.75	222.06
347.13	222.13
347.52	222.20
347.90	222.28
348.28	222.32
348.66	222.37
349.05	222.37
349.43	222.42
349.81	222.48
350.19	222.53
350.57	222.60
350.96	222.68
351.34	222.77
351.72	222.86
352.10	222.97
352.48	223.04
352.87	223.09
353.25	223.15
353.63	223.20
354.01	223.26
354.39	223.34
354.77	223.41
355.15	223.51
355.54	223.56
355.92	223.60
356.30	223.67
356.68	223.80
357.06	223.87
357.44	223.92
357.82	223.98
358.20	224.09
358.58	224.14
358.97	224.21
359.35	224.28
359.73	224.35
360.11	224.39
360.49	224.46
360.87	224.50
361.25	224.56
361.63	224.65
362.01	224.70
362.39	224.72
362.77	224.76
363.15	224.79
363.53	224.82
363.91	224.85
364.29	224.88
364.67	224.80
365.05	224.82
365.43	224.85
365.81	224.88
366.19	224.89
366.57	224.94
366.95	224.94
367.33	224.92
367.71	224.91
368.09	224.93
368.47	224.91
368.85	224.90
369.23	224.91
369.61	224.86
369.99	224.88
370.37	224.87
370.75	224.93
371.13	224.90
371.51	224.87
371.89	224.85
372.27	224.83
372.65	224.80
373.03	224.76
373.41	224.72
373.78	224.66
374.16	224.57
374.54	224.50
374.92	224.45
375.30	224.41
375.68	224.35
376.06	224.30
376.44	224.24
376.82	224.20
377.19	224.15
377.57	224.09
377.95	224.00
378.33	223.95
378.71	223.80
379.09	223.75
379.47	223.71
379.84	223.65
380.22	223.59
380.60	223.51
380.98	223.46
381.36	223.41
381.73	223.35
382.11	223.33
382.49	223.29
382.87	223.23
383.25	223.18
383.62	223.25
384.00	223.19
384.38	223.15
384.76	223.13
385.13	223.12
385.51	223.08
385.89	223.03
386.27	222.99
386.64	222.98
387.02	222.93
387.40	222.88
387.78	222.85
388.15	222.82
388.53	222.79
388.91	222.76
389.29	222.73
389.66	222.72
390.04	222.67
390.42	222.67
390.79	222.66
391.17	222.63
391.55	222.51
391.92	222.49
392.30	222.49
392.68	222.46
393.05	222.44
393.43	222.43
393.81	222.44
394.18	222.42
394.56	222.42
394.94	222.45
395.31	222.45
395.69	222.49
396.06	222.52
396.44	222.54
396.82	222.54
397.19	222.62
397.57	222.63
397.95	222.68
398.32	222.66
398.70	222.70
399.07	222.76
399.45	222.79
399.82	222.84
400.20	222.87
400.58	222.92
400.95	222.94
401.33	223.02
401.70	223.15
402.08	223.24
402.45	223.31
402.83	223.41
403.20	223.51
403.58	223.59
403.95	223.72
404.33	223.85
404.71	223.97
405.08	224.14
405.46	224.28
405.83	224.44
406.21	224.62
406.58	224.80
406.96	224.98
407.33	225.19
407.70	225.42
408.08	225.74
408.45	226.01
408.83	226.31
409.20	226.59
409.58	226.83
409.95	227.17
410.33	227.53
410.70	227.87
411.08	228.28
411.45	228.71
411.82	229.14
412.20	229.63
412.57	230.22
412.95	230.68
413.32	231.29
413.69	231.89
414.07	232.55
414.44	233.26
414.82	234.00
415.19	234.86
415.56	235.71
415.94	236.61
416.31	237.61
416.68	238.62
417.06	239.79
417.43	240.90
417.81	242.16
418.18	243.46
418.55	244.86
418.93	246.33
419.30	247.86
419.67	249.48
420.04	251.15
420.42	252.90
420.79	254.92
421.16	256.96
421.54	259.04
421.91	261.20
422.28	263.45
422.66	265.87
423.03	268.19
423.40	270.62
423.77	273.22
424.15	275.89
424.52	278.66
424.89	281.66
425.26	284.64
425.64	287.41
426.01	290.53
426.38	293.72
426.75	297.01
427.13	300.39
427.50	303.91
427.87	307.57
428.24	311.28
428.61	314.81
428.99	318.63
429.36	322.82
429.73	326.82
430.10	330.82
430.47	334.90
430.85	339.08
431.22	343.55
431.59	348.14
431.96	352.61
432.33	357.55
432.70	362.25
433.08	367.81
433.45	373.05
433.82	378.19
434.19	383.94
434.56	389.58
434.93	395.01
435.30	400.38
435.68	406.43
436.05	412.35
436.42	418.27
436.79	423.66
437.16	429.49
437.53	435.72
437.90	441.94
438.27	448.01
438.64	454.61
439.01	460.57
439.38	466.00
439.75	471.24
440.13	477.24
440.50	482.94
440.87	487.41
441.24	492.35
441.61	497.82
441.98	501.82
442.35	506.58
442.72	511.47
443.09	516.16
443.46	519.18
443.83	521.40
444.20	523.31
444.57	526.07
444.94	527.72
445.31	529.44
445.68	530.97
446.05	532.15
446.42	532.04
446.79	531.84
447.16	531.70
447.53	531.60
447.90	529.90
448.27	528.32
448.64	525.78
449.01	524.13
449.37	520.42
449.74	517.07
450.11	512.73
450.48	507.94
450.85	503.12
451.22	499.04
451.59	495.06
451.96	491.42
452.33	486.07
452.70	481.31
453.07	475.49
453.43	469.65
453.80	463.99
454.17	458.56
454.54	453.55
454.91	447.85
455.28	442.50
455.65	437.44
456.02	432.06
456.38	427.71
456.75	422.08
457.12	417.55
457.49	412.97
457.86	408.60
458.23	404.79
458.59	400.56
458.96	396.20
459.33	392.36
459.70	388.46
460.07	385.49
460.43	381.98
460.80	378.69
461.17	375.80
461.54	372.69
461.91	369.76
462.27	366.78
462.64	364.34
463.01	361.54
463.38	358.72
463.74	356.14
464.11	353.86
464.48	351.80
464.85	349.60
465.21	347.92
465.58	346.05
465.95	343.89
466.32	342.16
466.68	340.48
467.05	338.78
467.42	337.15
467.78	335.38
468.15	333.74
468.52	332.52
468.88	330.93
469.25	329.46
469.62	328.31
469.98	327.05
470.35	325.93
470.72	324.92
471.08	323.89
471.45	323.04
471.82	322.10
472.18	321.12
472.55	320.49
472.92	319.70
473.28	319.08
473.65	318.45
474.02	317.85
474.38	317.36
474.75	317.08
475.11	316.66
475.48	316.50
475.85	316.33
476.21	316.27
476.58	316.26
476.94	316.45
477.31	316.54
477.67	316.67
478.04	316.90
478.41	317.21
478.77	317.65
479.14	317.97
479.50	318.50
479.87	319.17
480.23	319.86
480.60	320.51
480.96	321.18
481.33	322.11
481.69	323.05
482.06	323.97
482.42	324.85
482.79	325.90
483.15	327.11
483.52	328.46
483.88	329.76
484.25	331.17
484.61	332.61
484.98	334.18
485.34	335.93
485.71	337.75
486.07	339.69
486.44	341.62
486.80	343.78
487.17	345.97
487.53	348.39
487.90	350.89
488.26	353.61
488.62	356.46
488.99	359.34
489.35	362.33
489.72	365.58
490.08	368.97
490.44	372.46
490.81	376.10
491.17	379.85
491.54	383.87
491.90	387.96
492.26	392.36
492.63	397.02
492.99	401.86
493.36	406.82
493.72	412.05
494.08	417.41
494.45	423.05
494.81	428.92
495.17	434.89
495.54	441.20
495.90	447.84
496.26	454.62
496.63	461.62
496.99	468.91
497.35	476.55
497.72	484.49
498.08	492.60
498.44	500.96
498.80	509.84
499.17	518.94
499.53	528.38
499.89	538.06
500.26	547.91
500.62	558.01
500.98	568.78
501.34	579.68
501.71	591.11
502.07	602.77
502.43	614.81
502.79	627.21
503.16	640.00
503.52	652.96
503.88	666.26
504.24	680.00
504.60	694.04
504.97	708.42
505.33	723.21
505.69	738.88
506.05	754.77
506.41	770.70
506.78	786.91
507.14	803.63
507.50	820.90
507.86	838.53
508.22	856.44
508.59	874.36
508.95	893.02
509.31	912.13
509.67	931.91
510.03	951.93
510.39	972.16
510.75	992.59
511.12	1013.29
511.48	1034.35
511.84	1055.54
512.20	1077.03
512.56	1099.63
512.92	1122.44
513.28	1144.95
513.64	1167.79
514.00	1191.05
514.37	1214.62
514.73	1238.18
515.09	1261.62
515.45	1285.47
515.81	1309.88
516.17	1334.39
516.53	1358.57
516.89	1382.86
517.25	1407.30
517.61	1431.98
517.97	1456.87
518.33	1481.57
518.69	1506.51
519.05	1531.70
519.41	1556.98
519.77	1582.56
520.13	1607.39
520.49	1632.41
520.85	1657.60
521.21	1682.70
521.57	1708.38
521.93	1733.38
522.29	1759.20
522.65	1784.82
523.01	1810.23
523.37	1834.88
523.73	1860.18
524.09	1885.70
524.45	1911.11
524.81	1936.09
525.17	1960.90
525.53	1985.39
525.89	2009.79
526.25	2034.34
526.61	2058.29
526.97	2082.65
527.33	2106.87
527.68	2131.01
528.04	2154.31
528.40	2177.54
528.76	2200.90
529.12	2223.27
529.48	2246.12
529.84	2267.13
530.20	2288.65
530.56	2309.87
530.91	2331.24
531.27	2352.08
531.63	2372.32
531.99	2391.98
532.35	2411.44
532.71	2431.08
533.07	2451.25
533.42	2469.91
533.78	2489.02
534.14	2508.08
534.50	2526.27
534.86	2545.08
535.21	2562.09
535.57	2579.04
535.93	2595.14
536.29	2610.09
536.65	2625.74
537.00	2640.35
537.36	2655.60
537.72	2669.74
538.08	2683.70
538.44	2696.52
538.79	2709.54
539.15	2720.77
539.51	2731.92
539.87	2742.51
540.22	2750.99
540.58	2759.59
540.94	2768.83
541.29	2776.46
541.65	2783.22
542.01	2789.48
542.37	2793.86
542.72	2800.02
543.08	2805.69
543.44	2811.29
543.79	2816.17
544.15	2820.30
544.51	2824.18
544.87	2827.18
545.22	2829.84
545.58	2831.38
545.94	2833.40
546.29	2833.96
546.65	2834.71
547.01	2835.50
547.36	2836.51
547.72	2837.80
548.07	2837.51
548.43	2836.62
548.79	2835.06
549.14	2833.50
549.50	2832.43
549.86	2830.55
550.21	2826.38
550.57	2822.68
550.92	2817.53
551.28	2812.97
551.64	2808.15
551.99	2803.78
552.35	2799.01
552.70	2793.75
553.06	2789.14
553.41	2783.98
553.77	2778.27
554.13	2773.22
554.48	2767.32
554.84	2759.78
555.19	2752.27
555.55	2744.15
555.90	2736.50
556.26	2730.02
556.61	2722.95
556.97	2713.72
557.32	2705.54
557.68	2697.54
558.03	2688.85
558.39	2680.97
558.74	2673.18
559.10	2664.30
559.45	2655.10
559.81	2645.92
560.16	2636.27
560.52	2626.15
560.87	2617.06
561.23	2607.64
561.58	2597.80
561.94	2587.78
562.29	2577.15
562.64	2567.03
563.00	2557.33
563.35	2547.55
563.71	2536.66
564.06	2525.32
564.42	2515.03
564.77	2504.25
565.12	2493.62
565.48	2482.64
565.83	2472.28
566.19	2462.01
566.54	2451.29
566.89	2439.64
567.25	2428.23
567.60	2417.58
567.96	2406.52
568.31	2394.12
568.66	2381.61
569.02	2370.10
569.37	2358.37
569.72	2347.21
570.08	2335.29
570.43	2322.77
570.78	2309.93
571.14	2297.04
571.49	2284.87
571.84	2272.88
572.20	2259.52
572.55	2246.77
572.90	2233.87
573.26	2220.17
573.61	2205.88
573.96	2191.75
574.31	2177.96
574.67	2164.37
575.02	2150.18
575.37	2135.69
575.72	2121.54
576.08	2107.81
576.43	2093.02
576.78	2078.22
577.13	2064.23
577.49	2050.45
577.84	2037.07
578.19	2022.88
578.54	2008.27
578.90	1993.06
579.25	1977.67
579.60	1963.78
579.95	1949.41
580.30	1935.14
580.66	1921.04
581.01	1906.44
581.36	1892.36
581.71	1878.89
582.06	1864.86
582.42	1851.03
582.77	1837.90
583.12	1824.26
583.47	1810.76
583.82	1797.40
584.17	1783.87
584.53	1770.23
584.88	1756.56
585.23	1742.58
585.58	1729.11
585.93	1715.93
586.28	1703.68
586.63	1691.21
586.98	1677.92
587.34	1664.88
587.69	1651.38
588.04	1638.11
588.39	1625.53
588.74	1612.38
589.09	1598.96
589.44	1585.59
589.79	1572.74
590.14	1559.73
590.49	1546.99
590.84	1534.13
591.19	1521.85
591.54	1509.10
591.89	1496.21
592.25	1483.64
592.60	1470.62
592.95	1458.12
593.30	1446.06
593.65	1433.76
594.00	1421.71
594.35	1410.45
594.70	1398.21
595.05	1386.98
595.40	1375.69
595.75	1363.81
596.10	1352.75
596.45	1341.97
596.80	1331.56
597.15	1320.90
597.50	1310.23
597.85	1299.74
598.19	1289.45
598.54	1278.67
598.89	1268.61
599.24	1258.84
599.59	1248.80
599.94	1239.79
600.29	1230.70
600.64	1221.36
600.99	1211.41
601.34	1201.89
601.69	1191.83
602.04	1182.99
602.39	1174.00
602.74	1165.25
603.08	1156.75
603.43	1147.72
603.78	1138.47
604.13	1129.43
604.48	1120.33
604.83	1111.51
605.18	1102.58
605.53	1093.61
605.87	1084.66
606.22	1076.01
606.57	1067.08
606.92	1058.19
607.27	1049.22
607.62	1040.36
607.96	1031.68
608.31	1024.03
608.66	1015.98
609.01	1008.33
609.36	1000.55
609.70	992.53
610.05	984.36
610.40	976.54
610.75	968.85
611.10	961.43
611.44	953.61
611.79	946.12
612.14	938.24
612.49	930.50
612.83	923.24
613.18	916.11
613.53	908.78
613.88	901.55
614.22	894.96
614.57	888.13
614.92	881.26
615.27	874.44
615.61	867.44
615.96	860.70
616.31	853.87
616.65	846.95
617.00	840.29
617.35	833.70
617.70	827.17
618.04	820.75
618.39	814.35
618.74	808.29
619.08	802.02
619.43	796.03
619.78	790.07
620.12	783.91
620.47	777.91
620.82	771.97
621.16	766.34
621.51	760.37
621.85	754.40
622.20	748.48
622.55	742.72
622.89	736.87
623.24	731.05
623.59	725.36
623.93	719.74
624.28	714.26
624.62	708.80
624.97	703.27
625.32	697.87
625.66	692.34
626.01	686.82
626.35	681.45
626.70	676.12
627.04	670.95
627.39	665.86
627.73	660.86
628.08	656.08
628.43	651.16
628.77	646.30
629.12	641.56
629.46	637.04
629.81	632.37
630.15	627.61
630.50	623.00
630.84	618.55
631.19	614.27
631.53	610.03
631.88	605.68
632.22	601.45
632.57	597.44
632.91	593.36
633.26	589.38
633.60	585.48
633.95	581.71
634.29	577.78
634.64	573.79
634.98	569.73
635.32	565.83
635.67	562.09
636.01	558.29
636.36	554.55
636.70	550.93
637.05	547.29
637.39	543.84
637.73	540.24
638.08	536.74
638.42	533.22
638.77	529.56
639.11	525.89
639.45	522.25
639.80	518.58
640.14	515.13
640.49	511.62
640.83	508.01
641.17	504.41
641.52	501.02
641.86	497.62
642.20	494.39
642.55	490.99
642.89	487.68
643.23	484.60
643.58	481.74
643.92	478.74
644.26	475.78
644.61	472.82
644.95	469.87
645.29	466.85
645.64	463.78
645.98	460.87
646.32	458.14
646.66	455.41
647.01	452.66
647.35	449.98
647.69	447.18
648.04	444.49
648.38	441.86
648.72	439.17
649.06	436.55
649.41	433.99
649.75	431.43
650.09	428.88
650.43	426.31
650.78	423.73
651.12	421.15
651.46	418.66
651.80	416.28
652.14	413.97
652.49	411.68
652.83	409.46
653.17	407.22
653.51	405.04
653.85	402.93
654.20	400.77
654.54	398.50
654.88	396.43
655.22	394.42
655.56	392.39
655.90	390.44
656.25	388.52
656.59	386.58
656.93	384.75
657.27	382.96
657.61	381.08
657.95	379.25
658.29	377.43
658.64	375.63
658.98	373.81
659.32	372.02
659.66	370.33
660.00	368.65
660.34	367.01
660.68	365.32
661.02	363.56
661.36	361.92
661.70	360.35
662.05	358.76
662.39	357.16
662.73	355.64
663.07	354.17
663.41	352.70
663.75	351.26
664.09	349.83
664.43	348.31
664.77	346.90
665.11	345.43
665.45	344.05
665.79	342.66
666.13	341.25
666.47	339.83
666.81	338.40
667.15	336.93
667.49	335.55
667.83	334.21
668.17	332.93
668.51	331.67
668.85	330.43
669.19	329.26
669.53	328.03
669.87	326.75
670.21	325.51
670.55	324.27
670.89	323.11
671.23	321.92
671.57	320.74
671.91	319.62
672.25	318.56
672.58	317.50
672.92	316.41
673.26	315.40
673.60	314.39
673.94	313.37
674.28	312.40
674.62	311.44
674.96	310.44
675.30	309.50
675.64	308.53
675.97	307.57
676.31	306.58
676.65	305.62
676.99	304.72
677.33	303.77
677.67	302.88
678.01	301.90
678.34	300.99
678.68	300.15
679.02	299.27
679.36	298.40
679.70	297.52
680.04	296.68
680.37	295.81
680.71	294.99
681.05	294.21
681.39	293.41
681.73	292.57
682.06	291.77
682.40	290.97
682.74	290.20
683.08	289.46
683.42	288.69
683.75	288.01
684.09	287.23
684.43	286.51
684.77	285.78
685.10	285.10
685.44	284.40
685.78	283.68
686.12	283.01
686.45	282.32
686.79	281.63
687.13	280.97
687.46	280.29
687.80	279.63
688.14	278.92
688.48	278.27
688.81	277.61
689.15	277.02
689.49	276.38
689.82	275.75
690.16	275.07
690.50	274.45
690.83	273.82
691.17	273.22
691.51	272.62
691.84	272.05
692.18	271.45
692.52	270.83
692.85	270.24
693.19	269.69
693.52	269.13
693.86	268.57
694.20	268.02
694.53	267.49
694.87	266.94
695.21	266.42
695.54	265.89
695.88	265.37
696.21	264.80
696.55	264.28
696.88	263.77
697.22	263.28
697.56	262.78
697.89	262.23
698.23	261.73
698.56	261.21
698.90	260.73
699.23	260.24
699.57	259.78
699.90	259.32
700.24	258.83
700.58	258.38
700.91	257.96
701.25	257.61
701.58	257.23
701.92	256.83
702.25	256.42
702.59	255.99
702.92	255.58
703.26	255.18
703.59	254.76
703.93	254.44
704.26	254.06
704.60	253.67
704.93	253.31
705.26	252.93
705.60	252.60
705.93	252.22
706.27	251.89
706.60	251.57
706.94	251.24
707.27	250.85
707.61	250.48
707.94	250.11
708.27	249.67
708.61	249.28
708.94	248.91
709.28	248.57
709.61	248.25
709.94	247.95
710.28	247.64
710.61	247.35
710.95	246.96
711.28	246.73
711.61	246.44
711.95	246.18
712.28	245.88
712.61	245.57
712.95	245.35
713.28	245.11
713.61	244.82
713.95	244.53
714.28	244.29
714.61	244.02
714.95	243.77
715.28	243.50
715.61	243.25
715.95	243.02
716.28	242.77
716.61	242.55
716.95	242.30
717.28	242.08
717.61	241.84
717.94	241.61
718.28	241.31
718.61	241.08
718.94	240.83
719.27	240.62
719.61	240.42
719.94	240.19
720.27	239.92
720.60	239.71
720.94	239.51
721.27	239.31
721.60	239.13
721.93	238.94
722.27	238.79
722.60	238.62
722.93	238.41
723.26	238.23
723.59	238.03
723.93	237.85
724.26	237.67
724.59	237.50
724.92	237.33
725.25	237.19
725.59	237.02
725.92	236.89
726.25	236.72
726.58	236.55
726.91	236.38
727.24	236.24
727.57	236.08
727.91	235.92
728.24	235.77
728.57	235.61
728.90	235.47
729.23	235.28
729.56	235.18
729.89	235.04
730.22	234.88
730.55	234.74
730.89	234.60
731.22	234.45
731.55	234.31
731.88	234.17
732.21	234.02
732.54	233.89
732.87	233.75
733.20	233.63
733.53	233.51
733.86	233.40
734.19	233.26
734.52	233.16
734.85	233.12
735.18	232.98
735.51	232.89
735.84	232.77
736.17	232.69
736.50	232.52
736.83	232.53
737.16	232.43
737.49	232.33
737.82	232.23
738.15	232.14
738.48	232.04
738.81	231.93
739.14	231.83
739.47	231.72
739.80	231.61
740.13	231.52
740.46	231.40
740.79	231.29
741.12	231.19
741.45	231.08
741.78	230.92
742.11	230.86
742.44	230.73
742.77	230.66
743.10	230.55
743.43	230.45
743.75	230.25
744.08	230.32
744.41	230.23
744.74	230.13
745.07	230.02
745.40	229.95
745.73	229.91
746.06	229.83
746.39	229.77
746.71	229.68
747.04	229.60
747.37	229.53
747.70	229.47
748.03	229.40
748.36	229.34
748.68	229.26
749.01	229.16
749.34	229.09
749.67	229.01
750.00	228.96
750.33	228.97
750.65	228.90
750.98	228.69
751.31	228.62
751.64	228.56
751.97	228.55
752.29	228.48
752.62	228.36
752.95	228.29
753.28	228.20
753.60	228.13
753.93	228.08
754.26	228.02
754.59	227.92
754.91	227.84
755.24	227.77
755.57	227.76
755.90	227.69
756.22	227.62
756.55	227.54
756.88	227.46
757.20	227.33
757.53	227.25
757.86	227.18
758.19	227.13
758.51	227.07
758.84	226.96
759.17	226.89
759.49	226.85
759.82	226.84
760.15	226.81
760.47	226.76
760.80	226.68
761.13	226.65
761.45	226.60
761.78	226.55
762.11	226.51
762.43	226.40
762.76	226.36
763.08	226.33
763.41	226.29
763.74	226.25
764.06	226.21
764.39	226.17
764.71	226.13
765.04	226.07
765.37	226.02
765.69	225.99
766.02	225.94
766.34	225.89
766.67	225.81
767.00	225.78
767.32	225.80
767.65	225.82
767.97	225.78
768.30	225.74
768.62	225.70
768.95	225.65
769.27	225.61
769.60	225.60
769.92	225.54
770.25	225.49
770.57	225.44
770.90	225.39
771.22	225.35
771.55	225.32
771.87	225.30
772.20	225.26
772.52	225.31
772.85	225.40
773.17	225.37
773.50	225.33
773.82	225.27
774.15	225.19
774.47	225.09
774.80	225.05
775.12	225.02
775.45	224.99
775.77	224.97
776.09	224.95
776.42	224.91
776.74	224.92
777.07	224.88
777.39	224.87
777.72	224.84
778.04	224.82
778.36	224.79
778.69	224.76
779.01	224.75
779.33	224.63
779.66	224.49
779.98	224.45
780.31	224.44
780.63	224.46
780.95	224.46
781.28	224.43
781.60	224.41
781.92	224.39
782.25	224.37
782.57	224.34
782.89	224.31
783.22	224.28
783.54	224.24
783.86	224.22
784.19	224.20
784.51	224.21
784.83	224.17
785.16	224.15
785.48	224.13
785.80	224.11
786.12	224.10
786.45	224.07
786.77	224.06
787.09	224.04
787.42	223.99
787.74	223.97
788.06	223.96
788.38	223.93
788.71	223.90
789.03	223.89
789.35	223.88
789.67	223.86
789.99	223.85
790.32	223.82
790.64	223.82
790.96	223.90
791.28	223.84
791.61	223.83
791.93	223.81
792.25	223.80
792.57	223.85
792.89	223.82
793.21	223.82
793.54	223.80
793.86	223.77
794.18	223.76
794.50	223.72
794.82	223.71
795.14	223.71
795.47	223.73
795.79	223.72
796.11	223.68
796.43	223.67
796.75	223.66
797.07	223.66
797.39	223.64
797.71	223.54
798.04	223.54
798.36	223.54
798.68	223.53
799.00	223.52
799.32	223.46
799.64	223.47
799.96	223.46
800.28	223.46
800.60	223.45
800.92	223.45
801.24	223.44
801.56	223.44
801.89	223.42
802.21	223.40
802.53	223.37
802.85	223.39
803.17	223.43
803.49	223.40
803.81	223.38
804.13	223.36
804.45	223.34
804.77	223.34
805.09	223.32
805.41	223.30
805.73	223.28
806.05	223.24
806.37	223.22
806.69	223.21
807.01	223.19
807.33	223.19
807.65	223.13
807.97	223.18
808.28	223.16
808.60	223.15
808.92	223.12
809.24	223.18
809.56	223.16
809.88	223.11
810.20	223.11
810.52	223.12
810.84	223.09
811.16	223.08
811.48	223.07
811.80	223.10
812.12	223.09
812.43	223.10
812.75	223.09
813.07	223.08
813.39	223.08
813.71	223.06
814.03	223.04
814.35	223.05
814.67	223.00
814.98	222.98
815.30	222.97
815.62	222.96
815.94	222.88
816.26	222.88
816.58	222.85
816.89	222.86
817.21	222.82
817.53	222.83
817.85	222.83
818.17	222.82
818.48	222.77
818.80	222.80
819.12	222.77
819.44	222.76
819.76	222.74
820.07	222.73
820.39	222.72
820.71	222.73
821.03	222.72
821.34	222.71
821.66	222.71
821.98	222.72
822.30	222.71
822.61	222.77
822.93	222.74
823.25	222.74
823.57	222.73
823.88	222.73
824.20	222.72
824.52	222.73
824.83	222.72
825.15	222.72
825.47	222.70
825.79	222.71
826.10	222.70
826.42	222.70
826.74	222.71
827.05	222.70
827.37	222.70
827.69	222.69
828.00	222.69
828.32	222.68
828.64	222.66
828.95	222.72
829.27	222.69
829.58	222.69
829.90	222.71
830.22	222.71
830.53	222.69
830.85	222.68
831.17	222.65
831.48	222.65
831.80	222.64
832.11	222.64
832.43	222.62
832.75	222.61
833.06	222.67
833.38	222.64
833.69	222.64
834.01	222.64
834.32	222.63
834.64	222.62
834.96	222.61
835.27	222.61
835.59	222.56
835.90	222.55
836.22	222.54
836.53	222.51
836.85	222.50
837.16	222.60
837.48	222.60
837.79	222.64
838.11	222.64
838.42	222.63
838.74	222.64
839.05	222.63
839.37	222.63
839.68	222.56
840.00	222.56
840.31	222.57
840.63	222.55
840.94	222.54
841.26	222.53
841.57	222.53
841.88	222.54
842.20	222.53
842.51	222.51
842.83	222.50
843.14	222.59
843.46	222.58
843.77	222.52
844.08	222.52
844.40	222.47
844.71	222.46
845.03	222.45
845.34	222.44
845.65	222.43
845.97	222.43
846.28	222.44
846.60	222.44
846.91	222.41
847.22	222.41
847.54	222.44
847.85	222.44
848.16	222.42
848.48	222.39
848.79	222.43
849.10	222.44
849.42	222.45
849.73	222.35
850.04	222.35
850.36	222.31
850.67	222.32
850.98	222.33
851.30	222.34
851.61	222.33
851.92	222.32
852.23	222.36
852.55	222.36
852.86	222.36
853.17	222.37
853.49	222.39
853.80	222.40
854.11	222.41
854.42	222.42
854.74	222.41
855.05	222.42
855.36	222.37
855.67	222.36
855.99	222.36
856.30	222.48
856.61	222.48
856.92	222.49
857.23	222.49
857.55	222.47
857.86	222.47
858.17	222.49
858.48	222.47
858.79	222.45
859.11	222.46
859.42	222.45
859.73	222.44
860.04	222.44
860.35	222.42
860.66	222.38
860.98	222.38
861.29	222.39
861.60	222.39
861.91	222.42
862.22	222.41
862.53	222.38
862.84	222.26
863.16	222.28
863.47	222.27
863.78	222.25
864.09	222.27
864.40	222.27
864.71	222.27
865.02	222.29
865.33	222.27
865.64	222.25
865.95	222.24
866.27	222.31
866.58	222.30
866.89	222.30
867.20	222.30
867.51	222.28
867.82	222.28
868.13	222.31
868.44	222.29
868.75	222.31
869.06	222.32
869.37	222.33
869.68	222.30
869.99	222.32
870.30	222.33
870.61	222.34
870.92	222.32
871.23	222.31
871.54	222.32
871.85	222.34
872.16	222.37
872.47	222.36
872.78	222.30
873.09	222.30
873.40	222.30
873.71	222.31
874.02	222.32
874.33	222.30
874.64	222.28
874.95	222.30
875.26	222.27
875.56	222.26
875.87	222.26
876.18	222.26
876.49	222.36
876.80	222.34
877.11	222.31
877.42	222.32
877.73	222.32
878.04	222.31
878.35	222.30
878.66	222.30
878.96	222.29
879.27	222.29
879.58	222.28
879.89	222.27
880.20	222.30
880.51	222.29
880.82	222.29
881.12	222.29
881.43	222.26
881.74	222.25
882.05	222.25
882.36	222.25
882.67	222.26
882.97	222.14
883.28	222.14
883.59	222.14
883.90	222.14
884.21	222.15
884.51	222.15
884.82	222.13
885.13	222.13
885.44	222.13
885.74	222.13
886.05	222.13
886.36	222.12
886.67	222.08
886.98	222.14
887.28	222.14
887.59	222.14
887.90	222.15
888.20	222.15
888.51	222.16
888.82	222.14
889.13	222.15
889.43	222.25
889.74	222.24
890.05	222.24
890.35	222.23
890.66	222.21
890.97	222.20
891.28	222.19
891.58	222.19
891.89	222.18
892.20	222.17
892.50	222.16
892.81	222.16
893.12	222.16
893.42	222.11
893.73	222.11
894.04	222.10
894.34	222.11
894.65	222.11
894.95	222.10
895.26	222.11
895.57	222.15
895.87	222.04
896.18	222.05
896.48	222.06
896.79	222.06
897.10	222.07
897.40	222.08
897.71	222.09
898.01	222.09
898.32	222.11
898.63	222.11
898.93	222.11
899.24	222.12
899.54	222.11
899.85	222.11
900.15	222.11
900.46	222.10
900.76	222.11
901.07	222.11
901.38	222.10
901.68	222.11
901.99	222.06
902.29	222.07
902.60	222.06
902.90	222.04
903.21	222.04
903.51	222.04
903.82	222.06
904.12	222.06
904.43	222.06
904.73	222.05
905.03	222.06
905.34	222.16
905.64	222.15
905.95	222.15
906.25	222.15
906.56	222.15
906.86	222.16
907.17	222.15
907.47	222.15
907.77	222.14
908.08	222.12
908.38	222.12
908.69	222.13
908.99	222.15
909.30	222.16
909.60	222.15
909.90	222.15
910.21	222.12
910.51	222.10
910.81	222.09
911.12	222.09
911.42	222.09
911.73	221.98
912.03	221.98
912.33	222.00
912.64	222.00
912.94	221.99
913.24	221.97
913.55	221.97
913.85	221.97
914.15	221.98
914.46	221.99
914.76	221.98
915.06	221.98
915.37	221.96
915.67	221.95
915.97	221.95
916.27	221.93
916.58	221.93
916.88	221.94
917.18	221.93
917.49	221.99
917.79	221.99
918.09	222.01
918.39	222.04
918.70	222.02
919.00	222.03
919.30	222.07
919.60	222.06
919.91	222.04
920.21	222.05
920.51	222.03
920.81	222.02
921.12	222.04
921.42	222.04
921.72	222.04
922.02	222.05
922.32	222.06
922.63	222.07
922.93	222.13
923.23	222.13
923.53	222.12
923.83	222.06
924.13	222.07
924.44	222.07
924.74	222.09
925.04	222.12
925.34	222.11
925.64	222.06
925.94	222.06
926.24	222.12
926.55	222.11
926.85	222.12
927.15	222.12
927.45	222.11
927.75	222.11
928.05	222.11
928.35	222.10
928.65	222.11
928.95	222.12
929.26	222.07
929.56	222.08
929.86	222.09
930.16	222.09
930.46	222.07
930.76	222.07
931.06	222.02
931.36	221.98
931.66	222.00
931.96	222.02
932.26	222.03
932.56	221.99
932.86	221.99
933.16	222.00
933.46	221.99
933.76	221.98
934.06	222.00
934.36	222.04
934.66	222.03
934.96	222.02
935.26	222.02
935.56	222.03
935.86	222.00
936.16	221.99
936.46	221.98
936.76	221.98
937.06	221.96
937.36	221.97
937.66	221.97
937.96	221.97
938.26	221.94
938.56	221.93
938.86	221.94
939.16	221.96
939.46	221.96
939.76	221.97
940.06	221.96
940.35	221.94
940.65	221.89
940.95	221.90
941.25	221.88
941.55	221.87
941.85	221.86
942.15	221.89
942.45	221.92
942.75	221.92
943.04	221.92
943.34	221.94
943.64	221.94
943.94	221.91
944.24	221.91
944.54	221.91
944.84	221.91
945.13	221.89
945.43	221.87
945.73	221.87
946.03	221.85
946.33	221.85
946.62	221.84
946.92	221.84
947.22	221.84
947.52	221.86
947.82	221.87
948.11	221.86
948.41	221.84
948.71	221.81
949.01	221.81
949.31	221.81
949.60	221.80
949.90	221.81
950.20	221.80
950.50	221.80
950.79	221.80
951.09	221.82
951.39	221.82
951.69	221.81
951.98	221.83
952.28	221.85
952.58	221.84
952.87	221.85
953.17	221.86
953.47	221.85
953.76	221.84
954.06	221.82
954.36	221.81
954.66	221.81
954.95	221.84
955.25	221.85
955.55	221.85
955.84	221.84
956.14	221.84
956.44	221.85
956.73	221.84
957.03	221.84
957.32	221.85
957.62	221.84
957.92	221.86
958.21	221.84
958.51	221.96
958.81	221.97
959.10	221.99
959.40	222.01
959.69	222.01
959.99	222.03
960.29	222.03
960.58	222.03
960.88	222.07
961.17	222.05
961.47	222.06
961.76	222.05
962.06	222.08
962.36	222.06
962.65	222.07
962.95	222.08
963.24	222.07
963.54	222.07
963.83	222.08
964.13	222.08
964.42	222.08
964.72	221.98
965.01	221.98
965.31	221.98
965.60	221.95
965.90	222.01
966.19	221.98
966.49	221.99
966.78	221.99
967.08	221.98
967.37	221.98
967.67	221.97
967.96	221.98
968.26	221.97
968.55	221.99
968.85	221.99
969.14	221.99
969.43	221.99
969.73	221.98
970.02	221.97
970.32	221.96
970.61	221.95
970.91	221.93
971.20	221.91
971.49	221.90
971.79	221.91
972.08	221.84
972.38	221.86
972.67	221.85
972.96	221.87
973.26	221.85
973.55	221.88
973.85	221.87
974.14	221.86
974.43	221.87
974.73	221.85
975.02	221.84
975.31	221.85
975.61	221.84
975.90	221.84
976.19	221.83
976.49	221.83
976.78	221.83
977.07	221.84
977.37	221.85
977.66	221.86
977.95	221.84
978.24	221.85
978.54	221.86
978.83	221.86
979.12	221.85
979.42	221.84
979.71	221.81
980.00	221.82
980.29	221.82
980.59	221.79
980.88	221.82
981.17	221.82
981.46	221.81
981.76	221.81
982.05	221.84
982.34	221.84
982.63	221.84
982.93	221.84
983.22	221.86
983.51	221.86
983.80	221.88
984.09	221.90
984.39	221.89
984.68	221.88
984.97	221.88
985.26	221.87
985.55	221.89
985.85	221.87
986.14	221.88
986.43	221.89
986.72	221.89
987.01	221.85
987.30	221.85
987.59	221.85
987.89	221.85
988.18	221.82
988.47	221.81
988.76	221.80
989.05	221.79
989.34	221.78
989.63	221.80
989.92	221.78
990.22	221.75
990.51	221.75
990.80	221.74
991.09	221.75
991.38	221.76
991.67	221.74
991.96	221.73
992.25	221.73
992.54	221.71
992.83	221.71
993.12	221.71
993.41	221.72
993.70	221.76
993.99	221.77
994.28	221.78
994.58	221.81
994.87	221.80
995.16	221.80
995.45	221.79
995.74	221.76
996.03	221.78
996.32	221.80
996.61	221.81
996.90	221.81
997.19	221.81
997.48	221.81
997.77	221.80
998.06	221.82
998.34	221.81
998.63	221.82
998.92	221.82
999.21	221.85
999.50	221.84
999.79	221.81
1000.08	221.81
1000.37	221.81
1000.66	221.78
1000.95	221.81
1001.24	221.82
1001.53	221.83
1001.82	221.83
1002.11	221.80
1002.40	221.80
1002.68	221.83
1002.97	221.91
1003.26	221.90
1003.55	221.88
1003.84	221.88
1004.13	221.92
1004.42	221.91
1004.71	221.91
1004.99	221.91
1005.28	221.92
1005.57	221.92
1005.86	221.91
1006.15	221.91
1006.44	221.90
1006.72	221.92
1007.01	221.90
1007.30	221.90
1007.59	221.89
1007.88	221.89
1008.17	221.90
1008.45	221.88
1008.74	221.83
1009.03	221.78
1009.32	221.78
1009.60	221.78
1009.89	221.77
1010.18	221.72
1010.47	221.72
1010.76	221.72
1011.04	221.71
1011.33	221.71
1011.62	221.71
1011.91	221.72
1012.19	221.72
1012.48	221.72
1012.77	221.72
1013.05	221.75
1013.34	221.75
1013.63	221.74
1013.92	221.76
1014.20	221.76
1014.49	221.76
1014.78	221.77
1015.06	221.74
1015.35	221.75
1015.64	221.76
1015.92	221.78
1016.21	221.80
1016.50	221.81
1016.78	221.82
1017.07	221.82
1017.36	221.81
1017.64	221.79
1017.93	221.80
1018.22	221.79
1018.50	221.79
1018.79	221.78
1019.08	221.75
1019.36	221.76
1019.65	221.74
1019.93	221.77
1020.22	221.78
1020.51	221.84
1020.79	221.82
1021.08	221.51
1021.36	221.66
1021.65	221.77
1021.94	221.80
1022.22	221.82
1022.51	221.48
1022.79	222.32
1023.08	221.95
1023.36	223.03
1023.65	221.50
>>>>>End Processed Spectral Data<<<<<
