SpectraSuite Data File
++++++++++++++++++++++++++++++++++++
Date: Thu Oct 01 13:22:39 EDT 2015
User: lab3
Dark Spectrum Present: No
Reference Spectrum Present: No
Number of Sampled Component Spectra: 1
Spectrometers: USB2E7196
Integration Time (usec): 36000 (USB2E7196)
Spectra Averaged: 10000 (USB2E7196)
Boxcar Smoothing: 10 (USB2E7196)
Correct for Electrical Dark: No (USB2E7196)
Strobe/Lamp Enabled: No (USB2E7196)
Correct for Detector Non-linearity: No (USB2E7196)
Correct for Stray Light: No (USB2E7196)
Number of Pixels in Processed Spectrum: 2048
>>>>>Begin Processed Spectral Data<<<<<
339.09	0.00
339.48	211.90
339.86	213.37
340.24	214.75
340.63	216.13
341.01	219.05
341.39	218.85
341.78	220.18
342.16	221.39
342.54	221.91
342.93	210.38
343.31	221.01
343.69	221.55
344.07	222.01
344.46	222.43
344.84	222.82
345.22	223.06
345.60	223.32
345.99	223.51
346.37	223.65
346.75	223.75
347.13	223.83
347.52	223.90
347.90	223.98
348.28	224.02
348.66	224.08
349.05	224.08
349.43	224.14
349.81	224.19
350.19	224.25
350.57	224.32
350.96	224.41
351.34	224.50
351.72	224.60
352.10	224.71
352.48	224.78
352.87	224.84
353.25	224.91
353.63	224.97
354.01	225.04
354.39	225.11
354.77	225.19
355.15	225.29
355.54	225.35
355.92	225.38
356.30	225.46
356.68	225.59
357.06	225.66
357.44	225.72
357.82	225.78
358.20	225.88
358.58	225.94
358.97	226.01
359.35	226.09
359.73	226.17
360.11	226.22
360.49	226.28
360.87	226.33
361.25	226.39
361.63	226.47
362.01	226.52
362.39	226.56
362.77	226.60
363.15	226.63
363.53	226.66
363.91	226.70
364.29	226.72
364.67	226.65
365.05	226.67
365.43	226.70
365.81	226.73
366.19	226.75
366.57	226.79
366.95	226.79
367.33	226.77
367.71	226.76
368.09	226.78
368.47	226.77
368.85	226.76
369.23	226.76
369.61	226.71
369.99	226.72
370.37	226.72
370.75	226.78
371.13	226.74
371.51	226.70
371.89	226.68
372.27	226.65
372.65	226.63
373.03	226.59
373.41	226.54
373.78	226.49
374.16	226.40
374.54	226.32
374.92	226.27
375.30	226.23
375.68	226.16
376.06	226.12
376.44	226.06
376.82	226.02
377.19	225.96
377.57	225.91
377.95	225.83
378.33	225.76
378.71	225.62
379.09	225.57
379.47	225.54
379.84	225.47
380.22	225.41
380.60	225.34
380.98	225.29
381.36	225.24
381.73	225.18
382.11	225.15
382.49	225.11
382.87	225.05
383.25	225.00
383.62	225.07
384.00	225.01
384.38	224.97
384.76	224.95
385.13	224.93
385.51	224.89
385.89	224.84
386.27	224.81
386.64	224.79
387.02	224.74
387.40	224.70
387.78	224.67
388.15	224.64
388.53	224.61
388.91	224.58
389.29	224.54
389.66	224.54
390.04	224.50
390.42	224.49
390.79	224.48
391.17	224.46
391.55	224.33
391.92	224.32
392.30	224.32
392.68	224.28
393.05	224.26
393.43	224.26
393.81	224.26
394.18	224.25
394.56	224.25
394.94	224.28
395.31	224.28
395.69	224.32
396.06	224.34
396.44	224.36
396.82	224.38
397.19	224.45
397.57	224.46
397.95	224.50
398.32	224.50
398.70	224.54
399.07	224.60
399.45	224.63
399.82	224.68
400.20	224.71
400.58	224.77
400.95	224.78
401.33	224.87
401.70	225.00
402.08	225.09
402.45	225.17
402.83	225.27
403.20	225.38
403.58	225.47
403.95	225.60
404.33	225.73
404.71	225.86
405.08	226.05
405.46	226.20
405.83	226.37
406.21	226.54
406.58	226.74
406.96	226.94
407.33	227.16
407.70	227.41
408.08	227.75
408.45	228.04
408.83	228.36
409.20	228.65
409.58	228.92
409.95	229.28
410.33	229.67
410.70	230.04
411.08	230.47
411.45	230.93
411.82	231.39
412.20	231.92
412.57	232.55
412.95	233.05
413.32	233.70
413.69	234.36
414.07	235.07
414.44	235.83
414.82	236.61
415.19	237.53
415.56	238.46
415.94	239.43
416.31	240.52
416.68	241.61
417.06	242.87
417.43	244.05
417.81	245.42
418.18	246.81
418.55	248.34
418.93	249.92
419.30	251.57
419.67	253.33
420.04	255.14
420.42	257.03
420.79	259.20
421.16	261.41
421.54	263.64
421.91	265.98
422.28	268.42
422.66	271.04
423.03	273.53
423.40	276.16
423.77	278.97
424.15	281.85
424.52	284.84
424.89	288.07
425.26	291.30
425.64	294.29
426.01	297.64
426.38	301.06
426.75	304.58
427.13	308.19
427.50	311.96
427.87	315.87
428.24	319.82
428.61	323.61
428.99	327.67
429.36	332.15
429.73	336.41
430.10	340.65
430.47	344.98
430.85	349.44
431.22	354.19
431.59	359.06
431.96	363.81
432.33	369.07
432.70	374.03
433.08	379.93
433.45	385.49
433.82	390.97
434.19	397.08
434.56	403.10
434.93	408.89
435.30	414.62
435.68	421.08
436.05	427.40
436.42	433.72
436.79	439.47
437.16	445.68
437.53	452.34
437.90	459.01
438.27	465.52
438.64	472.60
439.01	479.00
439.38	484.87
439.75	490.54
440.13	497.01
440.50	503.17
440.87	508.04
441.24	513.40
441.61	519.31
441.98	523.66
442.35	528.85
442.72	534.17
443.09	539.27
443.46	542.59
443.83	545.07
444.20	547.18
444.57	550.25
444.94	552.12
445.31	554.06
445.68	555.79
446.05	557.13
446.42	557.09
446.79	556.92
447.16	556.81
447.53	556.74
447.90	554.95
448.27	553.28
448.64	550.55
449.01	548.77
449.37	544.80
449.74	541.21
450.11	536.52
450.48	531.36
450.85	526.15
451.22	521.74
451.59	517.42
451.96	513.50
452.33	507.69
452.70	502.53
453.07	496.20
453.43	489.88
453.80	483.74
454.17	477.85
454.54	472.39
454.91	466.19
455.28	460.35
455.65	454.84
456.02	448.95
456.38	444.22
456.75	438.12
457.12	433.19
457.49	428.20
457.86	423.45
458.23	419.27
458.59	414.66
458.96	409.91
459.33	405.71
459.70	401.44
460.07	398.19
460.43	394.38
460.80	390.80
461.17	387.63
461.54	384.23
461.91	381.05
462.27	377.81
462.64	375.17
463.01	372.14
463.38	369.09
463.74	366.35
464.11	363.90
464.48	361.68
464.85	359.31
465.21	357.49
465.58	355.48
465.95	353.18
466.32	351.35
466.68	349.55
467.05	347.75
467.42	346.01
467.78	344.14
468.15	342.39
468.52	341.10
468.88	339.42
469.25	337.89
469.62	336.66
469.98	335.34
470.35	334.17
470.72	333.12
471.08	332.05
471.45	331.16
471.82	330.17
472.18	329.15
472.55	328.49
472.92	327.68
473.28	327.05
473.65	326.40
474.02	325.78
474.38	325.28
474.75	325.00
475.11	324.59
475.48	324.45
475.85	324.31
476.21	324.27
476.58	324.28
476.94	324.49
477.31	324.63
477.67	324.81
478.04	325.09
478.41	325.44
478.77	325.92
479.14	326.27
479.50	326.85
479.87	327.57
480.23	328.30
480.60	328.99
480.96	329.72
481.33	330.70
481.69	331.70
482.06	332.68
482.42	333.60
482.79	334.71
483.15	335.97
483.52	337.40
483.88	338.78
484.25	340.24
484.61	341.75
484.98	343.38
485.34	345.21
485.71	347.11
486.07	349.14
486.44	351.16
486.80	353.40
487.17	355.69
487.53	358.21
487.90	360.83
488.26	363.67
488.62	366.67
488.99	369.67
489.35	372.80
489.72	376.20
490.08	379.76
490.44	383.43
490.81	387.25
491.17	391.17
491.54	395.34
491.90	399.63
492.26	404.27
492.63	409.14
492.99	414.20
493.36	419.37
493.72	424.82
494.08	430.41
494.45	436.33
494.81	442.46
495.17	448.72
495.54	455.34
495.90	462.27
496.26	469.33
496.63	476.65
496.99	484.27
497.35	492.25
497.72	500.53
498.08	508.96
498.44	517.67
498.80	526.95
499.17	536.46
499.53	546.31
499.89	556.38
500.26	566.64
500.62	577.19
500.98	588.45
501.34	599.86
501.71	611.82
502.07	623.99
502.43	636.59
502.79	649.49
503.16	662.82
503.52	676.33
503.88	690.25
504.24	704.58
504.60	719.18
504.97	734.18
505.33	749.61
505.69	765.98
506.05	782.52
506.41	799.05
506.78	815.91
507.14	833.25
507.50	851.18
507.86	869.52
508.22	888.15
508.59	906.80
508.95	926.15
509.31	945.96
509.67	966.50
510.03	987.22
510.39	1008.18
510.75	1029.36
511.12	1050.87
511.48	1072.63
511.84	1094.51
512.20	1116.78
512.56	1140.14
512.92	1163.60
513.28	1186.76
513.64	1210.28
514.00	1234.24
514.37	1258.49
514.73	1282.79
515.09	1306.87
515.45	1331.43
515.81	1356.49
516.17	1381.57
516.53	1406.33
516.89	1431.15
517.25	1456.15
517.61	1481.35
517.97	1506.75
518.33	1531.87
518.69	1557.08
519.05	1582.58
519.41	1608.23
519.77	1634.07
520.13	1659.10
520.49	1684.35
520.85	1709.86
521.21	1735.21
521.57	1761.09
521.93	1786.27
522.29	1812.25
522.65	1837.96
523.01	1863.40
523.37	1888.09
523.73	1913.48
524.09	1939.05
524.45	1964.52
524.81	1989.44
525.17	2014.27
525.53	2038.59
525.89	2062.93
526.25	2087.54
526.61	2111.61
526.97	2135.88
527.33	2160.16
527.68	2184.17
528.04	2207.39
528.40	2230.35
528.76	2253.54
529.12	2275.68
529.48	2298.16
529.84	2318.76
530.20	2339.96
530.56	2360.76
530.91	2381.64
531.27	2402.03
531.63	2421.66
531.99	2440.77
532.35	2459.57
532.71	2478.45
533.07	2497.84
533.42	2515.82
533.78	2534.05
534.14	2552.31
534.50	2569.73
534.86	2587.69
535.21	2603.81
535.57	2619.72
535.93	2635.14
536.29	2649.25
536.65	2664.29
537.00	2678.17
537.36	2692.60
537.72	2705.95
538.08	2718.84
538.44	2730.66
538.79	2742.55
539.15	2752.84
539.51	2763.07
539.87	2772.96
540.22	2780.64
540.58	2788.60
540.94	2796.92
541.29	2803.88
541.65	2809.72
542.01	2815.08
542.37	2818.62
542.72	2824.22
543.08	2829.21
543.44	2833.92
543.79	2837.94
544.15	2840.82
544.51	2843.79
544.87	2845.84
545.22	2847.54
545.58	2848.40
545.94	2849.72
546.29	2849.53
546.65	2849.34
547.01	2849.36
547.36	2849.38
547.72	2849.56
548.07	2848.26
548.43	2846.36
548.79	2843.79
549.14	2841.25
549.50	2839.53
549.86	2836.60
550.21	2831.38
550.57	2826.56
550.92	2820.41
551.28	2814.89
551.64	2809.44
551.99	2804.23
552.35	2798.62
552.70	2792.54
553.06	2787.20
553.41	2781.34
553.77	2774.99
554.13	2769.51
554.48	2762.79
554.84	2754.59
555.19	2746.61
555.55	2738.10
555.90	2730.19
556.26	2723.18
556.61	2715.52
556.97	2705.54
557.32	2696.67
557.68	2688.08
558.03	2678.98
558.39	2670.61
558.74	2662.17
559.10	2652.58
559.45	2642.59
559.81	2633.06
560.16	2622.76
560.52	2612.14
560.87	2602.55
561.23	2592.43
561.58	2581.78
561.94	2570.98
562.29	2559.63
562.64	2548.97
563.00	2538.59
563.35	2528.11
563.71	2516.68
564.06	2504.82
564.42	2493.96
564.77	2482.78
565.12	2471.64
565.48	2460.32
565.83	2449.57
566.19	2438.94
566.54	2427.70
566.89	2415.80
567.25	2403.76
567.60	2392.58
567.96	2380.95
568.31	2367.81
568.66	2354.81
569.02	2342.86
569.37	2330.58
569.72	2318.88
570.08	2306.48
570.43	2293.58
570.78	2280.24
571.14	2266.76
571.49	2254.09
571.84	2241.71
572.20	2228.06
572.55	2214.79
572.90	2201.38
573.26	2186.91
573.61	2171.95
573.96	2157.51
574.31	2143.32
574.67	2129.30
575.02	2114.93
575.37	2100.06
575.72	2085.52
576.08	2071.52
576.43	2056.51
576.78	2041.70
577.13	2027.66
577.49	2013.47
577.84	1999.68
578.19	1985.13
578.54	1970.28
578.90	1954.90
579.25	1939.25
579.60	1924.97
579.95	1910.30
580.30	1895.72
580.66	1881.53
581.01	1866.97
581.36	1852.69
581.71	1838.99
582.06	1824.75
582.42	1810.64
582.77	1797.26
583.12	1783.49
583.47	1769.88
583.82	1756.37
584.17	1742.77
584.53	1728.97
584.88	1715.26
585.23	1701.09
585.58	1687.48
585.93	1674.32
586.28	1662.03
586.63	1649.45
586.98	1636.25
587.34	1623.26
587.69	1609.76
588.04	1596.61
588.39	1584.04
588.74	1571.00
589.09	1557.70
589.44	1544.44
589.79	1531.68
590.14	1518.83
590.49	1506.23
590.84	1493.44
591.19	1481.28
591.54	1468.56
591.89	1455.78
592.25	1443.30
592.60	1430.57
592.95	1418.35
593.30	1406.41
593.65	1394.17
594.00	1382.26
594.35	1371.02
594.70	1359.14
595.05	1348.30
595.40	1337.10
595.75	1325.40
596.10	1314.54
596.45	1303.90
596.80	1293.72
597.15	1283.33
597.50	1272.91
597.85	1262.71
598.19	1252.68
598.54	1242.06
598.89	1232.26
599.24	1222.69
599.59	1212.96
599.94	1204.22
600.29	1195.32
600.64	1186.16
600.99	1176.44
601.34	1167.19
601.69	1157.41
602.04	1148.63
602.39	1139.69
602.74	1131.03
603.08	1122.59
603.43	1113.66
603.78	1104.68
604.13	1095.81
604.48	1086.89
604.83	1078.22
605.18	1069.46
605.53	1060.64
605.87	1051.95
606.22	1043.49
606.57	1034.80
606.92	1026.23
607.27	1017.45
607.62	1008.84
607.96	1000.40
608.31	992.97
608.66	985.09
609.01	977.61
609.36	970.09
609.70	962.33
610.05	954.44
610.40	946.90
610.75	939.43
611.10	932.20
611.44	924.67
611.79	917.37
612.14	909.74
612.49	902.28
612.83	895.25
613.18	888.27
613.53	881.10
613.88	874.06
614.22	867.54
614.57	860.84
614.92	854.15
615.27	847.52
615.61	840.74
615.96	834.15
616.31	827.53
616.65	820.78
617.00	814.28
617.35	807.96
617.70	801.63
618.04	795.39
618.39	789.14
618.74	783.22
619.08	777.17
619.43	771.33
619.78	765.48
620.12	759.49
620.47	753.68
620.82	747.98
621.16	742.54
621.51	736.76
621.85	731.00
622.20	725.29
622.55	719.73
622.89	714.12
623.24	708.58
623.59	703.07
623.93	697.65
624.28	692.37
624.62	687.05
624.97	681.74
625.32	676.52
625.66	671.18
626.01	665.81
626.35	660.59
626.70	655.43
627.04	650.47
627.39	645.55
627.73	640.75
628.08	636.13
628.43	631.39
628.77	626.71
629.12	622.19
629.46	617.80
629.81	613.24
630.15	608.59
630.50	604.12
630.84	599.85
631.19	595.74
631.53	591.65
631.88	587.48
632.22	583.39
632.57	579.53
632.91	575.61
633.26	571.78
633.60	568.00
633.95	564.32
634.29	560.50
634.64	556.67
634.98	552.77
635.32	549.01
635.67	545.36
636.01	541.70
636.36	538.05
636.70	534.56
637.05	531.08
637.39	527.80
637.73	524.36
638.08	520.98
638.42	517.55
638.77	514.03
639.11	510.49
639.45	507.03
639.80	503.55
640.14	500.26
640.49	496.92
640.83	493.46
641.17	490.08
641.52	486.83
641.86	483.57
642.20	480.48
642.55	477.23
642.89	474.10
643.23	471.14
643.58	468.40
643.92	465.54
644.26	462.70
644.61	459.84
644.95	457.01
645.29	454.12
645.64	451.22
645.98	448.45
646.32	445.86
646.66	443.25
647.01	440.62
647.35	438.03
647.69	435.34
648.04	432.85
648.38	430.35
648.72	427.83
649.06	425.39
649.41	422.93
649.75	420.48
650.09	418.06
650.43	415.65
650.78	413.21
651.12	410.77
651.46	408.44
651.80	406.19
652.14	404.01
652.49	401.85
652.83	399.74
653.17	397.61
653.51	395.54
653.85	393.53
654.20	391.46
654.54	389.33
654.88	387.39
655.22	385.49
655.56	383.54
655.90	381.69
656.25	379.84
656.59	378.03
656.93	376.30
657.27	374.60
657.61	372.80
657.95	371.07
658.29	369.36
658.64	367.66
658.98	365.95
659.32	364.25
659.66	362.67
660.00	361.09
660.34	359.55
660.68	357.95
661.02	356.29
661.36	354.76
661.70	353.28
662.05	351.77
662.39	350.25
662.73	348.84
663.07	347.44
663.41	346.06
663.75	344.70
664.09	343.33
664.43	341.88
664.77	340.55
665.11	339.16
665.45	337.85
665.79	336.53
666.13	335.20
666.47	333.86
666.81	332.49
667.15	331.10
667.49	329.80
667.83	328.55
668.17	327.35
668.51	326.15
668.85	324.97
669.19	323.87
669.53	322.69
669.87	321.49
670.21	320.32
670.55	319.17
670.89	318.09
671.23	316.99
671.57	315.90
671.91	314.86
672.25	313.87
672.58	312.87
672.92	311.84
673.26	310.88
673.60	309.92
673.94	308.96
674.28	308.06
674.62	307.13
674.96	306.18
675.30	305.29
675.64	304.36
675.97	303.47
676.31	302.53
676.65	301.62
676.99	300.78
677.33	299.89
677.67	299.03
678.01	298.09
678.34	297.23
678.68	296.43
679.02	295.59
679.36	294.75
679.70	293.93
680.04	293.13
680.37	292.33
680.71	291.56
681.05	290.83
681.39	290.06
681.73	289.25
682.06	288.49
682.40	287.74
682.74	287.02
683.08	286.33
683.42	285.61
683.75	284.96
684.09	284.23
684.43	283.53
684.77	282.84
685.10	282.19
685.44	281.52
685.78	280.85
686.12	280.21
686.45	279.56
686.79	278.91
687.13	278.28
687.46	277.63
687.80	277.01
688.14	276.34
688.48	275.73
688.81	275.12
689.15	274.56
689.49	273.95
689.82	273.36
690.16	272.71
690.50	272.13
690.83	271.54
691.17	270.97
691.51	270.42
691.84	269.89
692.18	269.32
692.52	268.75
692.85	268.20
693.19	267.69
693.52	267.16
693.86	266.63
694.20	266.12
694.53	265.63
694.87	265.12
695.21	264.64
695.54	264.15
695.88	263.66
696.21	263.14
696.55	262.66
696.88	262.18
697.22	261.72
697.56	261.26
697.89	260.75
698.23	260.28
698.56	259.79
698.90	259.36
699.23	258.90
699.57	258.48
699.90	258.04
700.24	257.58
700.58	257.17
700.91	256.78
701.25	256.45
701.58	256.09
701.92	255.72
702.25	255.33
702.59	254.93
702.92	254.55
703.26	254.19
703.59	253.81
703.93	253.52
704.26	253.18
704.60	252.82
704.93	252.48
705.26	252.13
705.60	251.82
705.93	251.46
706.27	251.17
706.60	250.86
706.94	250.57
707.27	250.22
707.61	249.88
707.94	249.54
708.27	249.13
708.61	248.78
708.94	248.44
709.28	248.13
709.61	247.83
709.94	247.55
710.28	247.27
710.61	247.01
710.95	246.65
711.28	246.44
711.61	246.16
711.95	245.92
712.28	245.65
712.61	245.38
712.95	245.18
713.28	244.97
713.61	244.70
713.95	244.43
714.28	244.21
714.61	243.96
714.95	243.73
715.28	243.50
715.61	243.27
715.95	243.05
716.28	242.83
716.61	242.62
716.95	242.39
717.28	242.18
717.61	241.96
717.94	241.75
718.28	241.47
718.61	241.26
718.94	241.03
719.27	240.84
719.61	240.66
719.94	240.44
720.27	240.19
720.60	240.00
720.94	239.82
721.27	239.64
721.60	239.48
721.93	239.30
722.27	239.16
722.60	239.00
722.93	238.81
723.26	238.65
723.59	238.47
723.93	238.32
724.26	238.16
724.59	238.00
724.92	237.85
725.25	237.73
725.59	237.57
725.92	237.45
726.25	237.30
726.58	237.15
726.91	236.99
727.24	236.87
727.57	236.73
727.91	236.58
728.24	236.45
728.57	236.30
728.90	236.18
729.23	236.02
729.56	235.93
729.89	235.80
730.22	235.66
730.55	235.53
730.89	235.40
731.22	235.26
731.55	235.13
731.88	235.01
732.21	234.88
732.54	234.75
732.87	234.63
733.20	234.53
733.53	234.42
733.86	234.32
734.19	234.20
734.52	234.10
734.85	234.07
735.18	233.94
735.51	233.86
735.84	233.75
736.17	233.68
736.50	233.52
736.83	233.55
737.16	233.45
737.49	233.37
737.82	233.27
738.15	233.20
738.48	233.10
738.81	233.01
739.14	232.90
739.47	232.81
739.80	232.72
740.13	232.63
740.46	232.53
740.79	232.42
741.12	232.33
741.45	232.22
741.78	232.08
742.11	232.02
742.44	231.92
742.77	231.84
743.10	231.74
743.43	231.66
743.75	231.47
744.08	231.54
744.41	231.44
744.74	231.36
745.07	231.26
745.40	231.20
745.73	231.17
746.06	231.09
746.39	231.03
746.71	230.95
747.04	230.87
747.37	230.79
747.70	230.75
748.03	230.68
748.36	230.63
748.68	230.56
749.01	230.47
749.34	230.40
749.67	230.33
750.00	230.28
750.33	230.30
750.65	230.24
750.98	230.03
751.31	229.97
751.64	229.92
751.97	229.91
752.29	229.84
752.62	229.73
752.95	229.66
753.28	229.58
753.60	229.51
753.93	229.48
754.26	229.43
754.59	229.33
754.91	229.26
755.24	229.18
755.57	229.17
755.90	229.10
756.22	229.04
756.55	228.96
756.88	228.88
757.20	228.75
757.53	228.67
757.86	228.61
758.19	228.57
758.51	228.51
758.84	228.40
759.17	228.35
759.49	228.30
759.82	228.30
760.15	228.27
760.47	228.22
760.80	228.15
761.13	228.11
761.45	228.07
761.78	228.03
762.11	227.99
762.43	227.89
762.76	227.85
763.08	227.82
763.41	227.78
763.74	227.74
764.06	227.70
764.39	227.66
764.71	227.62
765.04	227.57
765.37	227.52
765.69	227.48
766.02	227.44
766.34	227.39
766.67	227.31
767.00	227.29
767.32	227.30
767.65	227.33
767.97	227.28
768.30	227.25
768.62	227.21
768.95	227.16
769.27	227.13
769.60	227.10
769.92	227.05
770.25	227.00
770.57	226.95
770.90	226.91
771.22	226.87
771.55	226.84
771.87	226.81
772.20	226.78
772.52	226.84
772.85	226.93
773.17	226.90
773.50	226.86
773.82	226.82
774.15	226.73
774.47	226.64
774.80	226.60
775.12	226.57
775.45	226.54
775.77	226.52
776.09	226.50
776.42	226.47
776.74	226.48
777.07	226.45
777.39	226.44
777.72	226.41
778.04	226.40
778.36	226.36
778.69	226.34
779.01	226.32
779.33	226.21
779.66	226.08
779.98	226.05
780.31	226.04
780.63	226.06
780.95	226.05
781.28	226.04
781.60	226.01
781.92	226.00
782.25	225.98
782.57	225.96
782.89	225.93
783.22	225.91
783.54	225.87
783.86	225.86
784.19	225.83
784.51	225.85
784.83	225.81
785.16	225.80
785.48	225.78
785.80	225.76
786.12	225.75
786.45	225.73
786.77	225.72
787.09	225.70
787.42	225.64
787.74	225.63
788.06	225.62
788.38	225.60
788.71	225.57
789.03	225.56
789.35	225.56
789.67	225.53
789.99	225.52
790.32	225.50
790.64	225.49
790.96	225.58
791.28	225.53
791.61	225.51
791.93	225.50
792.25	225.48
792.57	225.54
792.89	225.51
793.21	225.50
793.54	225.47
793.86	225.44
794.18	225.43
794.50	225.40
794.82	225.39
795.14	225.39
795.47	225.39
795.79	225.38
796.11	225.35
796.43	225.33
796.75	225.32
797.07	225.31
797.39	225.29
797.71	225.20
798.04	225.20
798.36	225.19
798.68	225.19
799.00	225.18
799.32	225.12
799.64	225.13
799.96	225.12
800.28	225.13
800.60	225.13
800.92	225.12
801.24	225.11
801.56	225.11
801.89	225.09
802.21	225.09
802.53	225.06
802.85	225.07
803.17	225.12
803.49	225.09
803.81	225.07
804.13	225.05
804.45	225.03
804.77	225.03
805.09	225.02
805.41	225.00
805.73	224.98
806.05	224.94
806.37	224.92
806.69	224.91
807.01	224.89
807.33	224.89
807.65	224.85
807.97	224.89
808.28	224.87
808.60	224.86
808.92	224.83
809.24	224.89
809.56	224.86
809.88	224.82
810.20	224.82
810.52	224.83
810.84	224.81
811.16	224.80
811.48	224.78
811.80	224.81
812.12	224.80
812.43	224.81
812.75	224.81
813.07	224.80
813.39	224.79
813.71	224.77
814.03	224.75
814.35	224.75
814.67	224.71
814.98	224.69
815.30	224.68
815.62	224.67
815.94	224.59
816.26	224.60
816.58	224.58
816.89	224.58
817.21	224.55
817.53	224.56
817.85	224.56
818.17	224.55
818.48	224.50
818.80	224.51
819.12	224.49
819.44	224.47
819.76	224.46
820.07	224.45
820.39	224.45
820.71	224.45
821.03	224.45
821.34	224.43
821.66	224.45
821.98	224.45
822.30	224.45
822.61	224.51
822.93	224.48
823.25	224.48
823.57	224.46
823.88	224.47
824.20	224.46
824.52	224.47
824.83	224.46
825.15	224.45
825.47	224.44
825.79	224.44
826.10	224.44
826.42	224.43
826.74	224.43
827.05	224.42
827.37	224.42
827.69	224.41
828.00	224.41
828.32	224.40
828.64	224.39
828.95	224.44
829.27	224.40
829.58	224.40
829.90	224.41
830.22	224.42
830.53	224.39
830.85	224.38
831.17	224.35
831.48	224.35
831.80	224.35
832.11	224.34
832.43	224.33
832.75	224.32
833.06	224.38
833.38	224.36
833.69	224.35
834.01	224.35
834.32	224.34
834.64	224.34
834.96	224.33
835.27	224.32
835.59	224.28
835.90	224.27
836.22	224.26
836.53	224.24
836.85	224.22
837.16	224.33
837.48	224.33
837.79	224.36
838.11	224.36
838.42	224.36
838.74	224.37
839.05	224.36
839.37	224.36
839.68	224.29
840.00	224.28
840.31	224.29
840.63	224.28
840.94	224.27
841.26	224.26
841.57	224.26
841.88	224.27
842.20	224.25
842.51	224.24
842.83	224.24
843.14	224.33
843.46	224.32
843.77	224.26
844.08	224.25
844.40	224.22
844.71	224.21
845.03	224.20
845.34	224.19
845.65	224.18
845.97	224.18
846.28	224.19
846.60	224.19
846.91	224.18
847.22	224.17
847.54	224.19
847.85	224.20
848.16	224.18
848.48	224.16
848.79	224.20
849.10	224.21
849.42	224.21
849.73	224.12
850.04	224.11
850.36	224.08
850.67	224.09
850.98	224.10
851.30	224.10
851.61	224.10
851.92	224.09
852.23	224.13
852.55	224.13
852.86	224.13
853.17	224.14
853.49	224.16
853.80	224.18
854.11	224.19
854.42	224.19
854.74	224.19
855.05	224.20
855.36	224.14
855.67	224.15
855.99	224.15
856.30	224.27
856.61	224.27
856.92	224.27
857.23	224.27
857.55	224.25
857.86	224.25
858.17	224.26
858.48	224.25
858.79	224.22
859.11	224.23
859.42	224.22
859.73	224.20
860.04	224.19
860.35	224.16
860.66	224.13
860.98	224.12
861.29	224.14
861.60	224.13
861.91	224.15
862.22	224.13
862.53	224.12
862.84	223.99
863.16	224.02
863.47	224.00
863.78	223.98
864.09	223.99
864.40	224.00
864.71	224.00
865.02	224.01
865.33	224.00
865.64	223.98
865.95	223.98
866.27	224.05
866.58	224.03
866.89	224.05
867.20	224.05
867.51	224.03
867.82	224.02
868.13	224.06
868.44	224.04
868.75	224.05
869.06	224.06
869.37	224.07
869.68	224.04
869.99	224.06
870.30	224.06
870.61	224.07
870.92	224.06
871.23	224.05
871.54	224.06
871.85	224.09
872.16	224.10
872.47	224.09
872.78	224.04
873.09	224.05
873.40	224.04
873.71	224.04
874.02	224.05
874.33	224.04
874.64	224.01
874.95	224.03
875.26	224.01
875.56	224.01
875.87	224.00
876.18	224.00
876.49	224.09
876.80	224.08
877.11	224.06
877.42	224.07
877.73	224.07
878.04	224.05
878.35	224.05
878.66	224.05
878.96	224.04
879.27	224.03
879.58	224.03
879.89	224.02
880.20	224.05
880.51	224.05
880.82	224.05
881.12	224.05
881.43	224.02
881.74	224.01
882.05	224.01
882.36	224.01
882.67	224.02
882.97	223.91
883.28	223.90
883.59	223.89
883.90	223.89
884.21	223.90
884.51	223.90
884.82	223.87
885.13	223.87
885.44	223.87
885.74	223.87
886.05	223.86
886.36	223.86
886.67	223.82
886.98	223.87
887.28	223.88
887.59	223.88
887.90	223.88
888.20	223.88
888.51	223.89
888.82	223.88
889.13	223.88
889.43	223.97
889.74	223.97
890.05	223.97
890.35	223.96
890.66	223.95
890.97	223.94
891.28	223.93
891.58	223.93
891.89	223.93
892.20	223.92
892.50	223.91
892.81	223.91
893.12	223.91
893.42	223.86
893.73	223.86
894.04	223.86
894.34	223.87
894.65	223.86
894.95	223.85
895.26	223.86
895.57	223.90
895.87	223.80
896.18	223.81
896.48	223.82
896.79	223.82
897.10	223.83
897.40	223.84
897.71	223.85
898.01	223.83
898.32	223.85
898.63	223.85
898.93	223.86
899.24	223.86
899.54	223.85
899.85	223.85
900.15	223.84
900.46	223.84
900.76	223.84
901.07	223.84
901.38	223.83
901.68	223.84
901.99	223.79
902.29	223.80
902.60	223.79
902.90	223.79
903.21	223.78
903.51	223.77
903.82	223.80
904.12	223.80
904.43	223.81
904.73	223.80
905.03	223.80
905.34	223.90
905.64	223.89
905.95	223.90
906.25	223.90
906.56	223.89
906.86	223.89
907.17	223.88
907.47	223.89
907.77	223.88
908.08	223.86
908.38	223.86
908.69	223.87
908.99	223.88
909.30	223.89
909.60	223.90
909.90	223.90
910.21	223.86
910.51	223.85
910.81	223.84
911.12	223.85
911.42	223.85
911.73	223.74
912.03	223.75
912.33	223.77
912.64	223.76
912.94	223.75
913.24	223.73
913.55	223.72
913.85	223.71
914.15	223.73
914.46	223.75
914.76	223.74
915.06	223.73
915.37	223.71
915.67	223.70
915.97	223.70
916.27	223.68
916.58	223.69
916.88	223.69
917.18	223.68
917.49	223.75
917.79	223.75
918.09	223.77
918.39	223.79
918.70	223.78
919.00	223.79
919.30	223.84
919.60	223.84
919.91	223.83
920.21	223.84
920.51	223.82
920.81	223.81
921.12	223.83
921.42	223.83
921.72	223.83
922.02	223.83
922.32	223.84
922.63	223.84
922.93	223.89
923.23	223.90
923.53	223.89
923.83	223.82
924.13	223.83
924.44	223.82
924.74	223.83
925.04	223.85
925.34	223.85
925.64	223.80
925.94	223.80
926.24	223.86
926.55	223.85
926.85	223.86
927.15	223.86
927.45	223.85
927.75	223.85
928.05	223.85
928.35	223.84
928.65	223.86
928.95	223.87
929.26	223.82
929.56	223.84
929.86	223.85
930.16	223.85
930.46	223.84
930.76	223.84
931.06	223.80
931.36	223.77
931.66	223.79
931.96	223.80
932.26	223.81
932.56	223.76
932.86	223.77
933.16	223.77
933.46	223.76
933.76	223.75
934.06	223.77
934.36	223.80
934.66	223.80
934.96	223.78
935.26	223.78
935.56	223.80
935.86	223.77
936.16	223.75
936.46	223.75
936.76	223.74
937.06	223.73
937.36	223.73
937.66	223.74
937.96	223.73
938.26	223.71
938.56	223.70
938.86	223.71
939.16	223.73
939.46	223.74
939.76	223.75
940.06	223.75
940.35	223.73
940.65	223.68
940.95	223.69
941.25	223.67
941.55	223.66
941.85	223.65
942.15	223.67
942.45	223.70
942.75	223.70
943.04	223.71
943.34	223.73
943.64	223.72
943.94	223.71
944.24	223.71
944.54	223.72
944.84	223.71
945.13	223.70
945.43	223.67
945.73	223.66
946.03	223.66
946.33	223.65
946.62	223.64
946.92	223.63
947.22	223.64
947.52	223.65
947.82	223.66
948.11	223.65
948.41	223.62
948.71	223.60
949.01	223.60
949.31	223.59
949.60	223.58
949.90	223.60
950.20	223.60
950.50	223.59
950.79	223.59
951.09	223.60
951.39	223.60
951.69	223.59
951.98	223.62
952.28	223.62
952.58	223.62
952.87	223.62
953.17	223.63
953.47	223.62
953.76	223.61
954.06	223.59
954.36	223.58
954.66	223.58
954.95	223.61
955.25	223.61
955.55	223.62
955.84	223.60
956.14	223.60
956.44	223.60
956.73	223.58
957.03	223.59
957.32	223.59
957.62	223.58
957.92	223.61
958.21	223.59
958.51	223.71
958.81	223.72
959.10	223.73
959.40	223.74
959.69	223.75
959.99	223.76
960.29	223.77
960.58	223.77
960.88	223.81
961.17	223.79
961.47	223.80
961.76	223.79
962.06	223.81
962.36	223.80
962.65	223.80
962.95	223.81
963.24	223.79
963.54	223.79
963.83	223.80
964.13	223.79
964.42	223.78
964.72	223.69
965.01	223.69
965.31	223.68
965.60	223.66
965.90	223.72
966.19	223.70
966.49	223.70
966.78	223.69
967.08	223.68
967.37	223.68
967.67	223.66
967.96	223.68
968.26	223.67
968.55	223.69
968.85	223.68
969.14	223.68
969.43	223.68
969.73	223.67
970.02	223.67
970.32	223.66
970.61	223.64
970.91	223.61
971.20	223.60
971.49	223.59
971.79	223.60
972.08	223.53
972.38	223.54
972.67	223.53
972.96	223.54
973.26	223.52
973.55	223.55
973.85	223.55
974.14	223.54
974.43	223.54
974.73	223.52
975.02	223.52
975.31	223.52
975.61	223.52
975.90	223.51
976.19	223.50
976.49	223.51
976.78	223.52
977.07	223.52
977.37	223.53
977.66	223.54
977.95	223.53
978.24	223.54
978.54	223.56
978.83	223.56
979.12	223.55
979.42	223.56
979.71	223.54
980.00	223.54
980.29	223.54
980.59	223.52
980.88	223.55
981.17	223.55
981.46	223.55
981.76	223.55
982.05	223.59
982.34	223.60
982.63	223.59
982.93	223.59
983.22	223.62
983.51	223.62
983.80	223.64
984.09	223.65
984.39	223.64
984.68	223.63
984.97	223.64
985.26	223.63
985.55	223.64
985.85	223.62
986.14	223.64
986.43	223.65
986.72	223.65
987.01	223.61
987.30	223.62
987.59	223.61
987.89	223.61
988.18	223.58
988.47	223.57
988.76	223.57
989.05	223.56
989.34	223.54
989.63	223.57
989.92	223.55
990.22	223.53
990.51	223.54
990.80	223.53
991.09	223.54
991.38	223.55
991.67	223.54
991.96	223.53
992.25	223.53
992.54	223.51
992.83	223.51
993.12	223.51
993.41	223.52
993.70	223.56
993.99	223.58
994.28	223.60
994.58	223.61
994.87	223.60
995.16	223.60
995.45	223.59
995.74	223.55
996.03	223.57
996.32	223.58
996.61	223.60
996.90	223.60
997.19	223.59
997.48	223.59
997.77	223.58
998.06	223.59
998.34	223.58
998.63	223.58
998.92	223.58
999.21	223.60
999.50	223.60
999.79	223.56
1000.08	223.55
1000.37	223.55
1000.66	223.53
1000.95	223.56
1001.24	223.56
1001.53	223.58
1001.82	223.58
1002.11	223.56
1002.40	223.56
1002.68	223.58
1002.97	223.66
1003.26	223.64
1003.55	223.63
1003.84	223.64
1004.13	223.67
1004.42	223.67
1004.71	223.67
1004.99	223.66
1005.28	223.68
1005.57	223.67
1005.86	223.66
1006.15	223.65
1006.44	223.63
1006.72	223.65
1007.01	223.63
1007.30	223.63
1007.59	223.62
1007.88	223.62
1008.17	223.62
1008.45	223.60
1008.74	223.56
1009.03	223.51
1009.32	223.51
1009.60	223.51
1009.89	223.50
1010.18	223.45
1010.47	223.45
1010.76	223.45
1011.04	223.45
1011.33	223.45
1011.62	223.45
1011.91	223.46
1012.19	223.47
1012.48	223.47
1012.77	223.47
1013.05	223.50
1013.34	223.50
1013.63	223.50
1013.92	223.50
1014.20	223.49
1014.49	223.50
1014.78	223.52
1015.06	223.48
1015.35	223.49
1015.64	223.51
1015.92	223.53
1016.21	223.53
1016.50	223.53
1016.78	223.55
1017.07	223.55
1017.36	223.54
1017.64	223.52
1017.93	223.53
1018.22	223.52
1018.50	223.52
1018.79	223.52
1019.08	223.48
1019.36	223.48
1019.65	223.47
1019.93	223.50
1020.22	223.51
1020.51	223.57
1020.79	223.55
1021.08	223.35
1021.36	223.31
1021.65	223.46
1021.94	223.41
1022.22	223.57
1022.51	223.31
1022.79	224.00
1023.08	223.64
1023.36	224.73
1023.65	223.26
>>>>>End Processed Spectral Data<<<<<
