SpectraSuite Data File
++++++++++++++++++++++++++++++++++++
Date: Thu Oct 01 11:07:29 EDT 2015
User: lab3
Dark Spectrum Present: No
Reference Spectrum Present: No
Number of Sampled Component Spectra: 1
Spectrometers: USB2E7196
Integration Time (usec): 36000 (USB2E7196)
Spectra Averaged: 10000 (USB2E7196)
Boxcar Smoothing: 10 (USB2E7196)
Correct for Electrical Dark: No (USB2E7196)
Strobe/Lamp Enabled: No (USB2E7196)
Correct for Detector Non-linearity: No (USB2E7196)
Correct for Stray Light: No (USB2E7196)
Number of Pixels in Processed Spectrum: 2048
>>>>>Begin Processed Spectral Data<<<<<
339.09	0.00
339.48	211.84
339.86	213.27
340.24	214.66
340.63	216.11
341.01	218.98
341.39	218.76
341.78	220.08
342.16	221.29
342.54	221.80
342.93	210.32
343.31	220.94
343.69	221.48
344.07	221.95
344.46	222.38
344.84	222.76
345.22	223.00
345.60	223.26
345.99	223.45
346.37	223.59
346.75	223.70
347.13	223.78
347.52	223.85
347.90	223.93
348.28	223.97
348.66	224.02
349.05	224.02
349.43	224.08
349.81	224.13
350.19	224.19
350.57	224.26
350.96	224.34
351.34	224.44
351.72	224.53
352.10	224.64
352.48	224.71
352.87	224.77
353.25	224.84
353.63	224.90
354.01	224.96
354.39	225.04
354.77	225.12
355.15	225.23
355.54	225.28
355.92	225.32
356.30	225.40
356.68	225.54
357.06	225.61
357.44	225.66
357.82	225.73
358.20	225.83
358.58	225.90
358.97	225.96
359.35	226.04
359.73	226.13
360.11	226.18
360.49	226.24
360.87	226.29
361.25	226.35
361.63	226.43
362.01	226.49
362.39	226.52
362.77	226.56
363.15	226.58
363.53	226.62
363.91	226.65
364.29	226.68
364.67	226.60
365.05	226.63
365.43	226.66
365.81	226.68
366.19	226.70
366.57	226.75
366.95	226.75
367.33	226.72
367.71	226.72
368.09	226.73
368.47	226.73
368.85	226.72
369.23	226.72
369.61	226.67
369.99	226.68
370.37	226.68
370.75	226.73
371.13	226.70
371.51	226.66
371.89	226.64
372.27	226.61
372.65	226.59
373.03	226.55
373.41	226.50
373.78	226.45
374.16	226.36
374.54	226.29
374.92	226.24
375.30	226.19
375.68	226.12
376.06	226.08
376.44	226.02
376.82	225.98
377.19	225.93
377.57	225.87
377.95	225.79
378.33	225.72
378.71	225.58
379.09	225.53
379.47	225.50
379.84	225.43
380.22	225.37
380.60	225.30
380.98	225.26
381.36	225.20
381.73	225.14
382.11	225.11
382.49	225.07
382.87	225.01
383.25	224.96
383.62	225.03
384.00	224.97
384.38	224.92
384.76	224.90
385.13	224.89
385.51	224.85
385.89	224.79
386.27	224.76
386.64	224.73
387.02	224.68
387.40	224.64
387.78	224.61
388.15	224.58
388.53	224.55
388.91	224.52
389.29	224.48
389.66	224.47
390.04	224.43
390.42	224.42
390.79	224.41
391.17	224.40
391.55	224.27
391.92	224.25
392.30	224.25
392.68	224.22
393.05	224.20
393.43	224.20
393.81	224.20
394.18	224.18
394.56	224.18
394.94	224.21
395.31	224.21
395.69	224.25
396.06	224.28
396.44	224.30
396.82	224.31
397.19	224.38
397.57	224.40
397.95	224.44
398.32	224.44
398.70	224.48
399.07	224.54
399.45	224.58
399.82	224.62
400.20	224.66
400.58	224.72
400.95	224.73
401.33	224.81
401.70	224.95
402.08	225.04
402.45	225.12
402.83	225.23
403.20	225.33
403.58	225.42
403.95	225.54
404.33	225.67
404.71	225.80
405.08	225.99
405.46	226.14
405.83	226.30
406.21	226.48
406.58	226.68
406.96	226.87
407.33	227.09
407.70	227.34
408.08	227.67
408.45	227.97
408.83	228.29
409.20	228.58
409.58	228.84
409.95	229.20
410.33	229.59
410.70	229.96
411.08	230.39
411.45	230.85
411.82	231.31
412.20	231.83
412.57	232.46
412.95	232.95
413.32	233.60
413.69	234.26
414.07	234.96
414.44	235.72
414.82	236.50
415.19	237.41
415.56	238.34
415.94	239.30
416.31	240.38
416.68	241.46
417.06	242.72
417.43	243.89
417.81	245.25
418.18	246.63
418.55	248.14
418.93	249.70
419.30	251.35
419.67	253.09
420.04	254.89
420.42	256.77
420.79	258.93
421.16	261.12
421.54	263.34
421.91	265.66
422.28	268.08
422.66	270.68
423.03	273.16
423.40	275.77
423.77	278.56
424.15	281.41
424.52	284.38
424.89	287.60
425.26	290.80
425.64	293.77
426.01	297.10
426.38	300.50
426.75	304.01
427.13	307.59
427.50	311.34
427.87	315.23
428.24	319.16
428.61	322.93
428.99	326.97
429.36	331.42
429.73	335.66
430.10	339.89
430.47	344.20
430.85	348.63
431.22	353.37
431.59	358.21
431.96	362.94
432.33	368.17
432.70	373.11
433.08	378.98
433.45	384.51
433.82	389.96
434.19	396.05
434.56	402.03
434.93	407.81
435.30	413.51
435.68	419.93
436.05	426.22
436.42	432.51
436.79	438.23
437.16	444.41
437.53	451.04
437.90	457.68
438.27	464.16
438.64	471.19
439.01	477.56
439.38	483.38
439.75	489.00
440.13	495.44
440.50	501.56
440.87	506.40
441.24	511.73
441.61	517.60
441.98	521.91
442.35	527.06
442.72	532.32
443.09	537.38
443.46	540.66
443.83	543.12
444.20	545.19
444.57	548.22
444.94	550.06
445.31	551.96
445.68	553.65
446.05	554.95
446.42	554.89
446.79	554.70
447.16	554.57
447.53	554.48
447.90	552.67
448.27	550.99
448.64	548.24
449.01	546.45
449.37	542.48
449.74	538.88
450.11	534.22
450.48	529.06
450.85	523.88
451.22	519.48
451.59	515.17
451.96	511.26
452.33	505.49
452.70	500.35
453.07	494.07
453.43	487.79
453.80	481.68
454.17	475.82
454.54	470.39
454.91	464.24
455.28	458.45
455.65	452.98
456.02	447.14
456.38	442.45
456.75	436.40
457.12	431.50
457.49	426.56
457.86	421.84
458.23	417.71
458.59	413.14
458.96	408.43
459.33	404.27
459.70	400.05
460.07	396.83
460.43	393.04
460.80	389.49
461.17	386.35
461.54	382.98
461.91	379.83
462.27	376.61
462.64	373.99
463.01	370.99
463.38	367.97
463.74	365.24
464.11	362.80
464.48	360.60
464.85	358.24
465.21	356.44
465.58	354.45
465.95	352.16
466.32	350.33
466.68	348.54
467.05	346.75
467.42	345.02
467.78	343.16
468.15	341.43
468.52	340.15
468.88	338.48
469.25	336.96
469.62	335.74
469.98	334.42
470.35	333.26
470.72	332.21
471.08	331.14
471.45	330.26
471.82	329.28
472.18	328.27
472.55	327.61
472.92	326.80
473.28	326.18
473.65	325.53
474.02	324.92
474.38	324.42
474.75	324.15
475.11	323.74
475.48	323.59
475.85	323.44
476.21	323.40
476.58	323.41
476.94	323.61
477.31	323.75
477.67	323.92
478.04	324.20
478.41	324.56
478.77	325.04
479.14	325.39
479.50	325.98
479.87	326.70
480.23	327.41
480.60	328.11
480.96	328.82
481.33	329.81
481.69	330.80
482.06	331.77
482.42	332.69
482.79	333.80
483.15	335.06
483.52	336.48
483.88	337.85
484.25	339.30
484.61	340.82
484.98	342.45
485.34	344.27
485.71	346.17
486.07	348.19
486.44	350.20
486.80	352.43
487.17	354.71
487.53	357.23
487.90	359.84
488.26	362.67
488.62	365.66
488.99	368.65
489.35	371.77
489.72	375.16
490.08	378.71
490.44	382.35
490.81	386.16
491.17	390.07
491.54	394.23
491.90	398.51
492.26	403.13
492.63	407.99
492.99	413.02
493.36	418.18
493.72	423.62
494.08	429.20
494.45	435.09
494.81	441.19
495.17	447.44
495.54	454.03
495.90	460.94
496.26	467.97
496.63	475.27
496.99	482.87
497.35	490.83
497.72	499.08
498.08	507.50
498.44	516.18
498.80	525.44
499.17	534.92
499.53	544.74
499.89	554.77
500.26	565.00
500.62	575.52
500.98	586.74
501.34	598.11
501.71	610.03
502.07	622.17
502.43	634.73
502.79	647.59
503.16	660.89
503.52	674.37
503.88	688.25
504.24	702.54
504.60	717.10
504.97	732.07
505.33	747.45
505.69	763.76
506.05	780.25
506.41	796.74
506.78	813.55
507.14	830.83
507.50	848.72
507.86	867.00
508.22	885.57
508.59	904.18
508.95	923.48
509.31	943.23
509.67	963.72
510.03	984.39
510.39	1005.29
510.75	1026.43
511.12	1047.88
511.48	1069.60
511.84	1091.45
512.20	1113.66
512.56	1136.96
512.92	1160.38
513.28	1183.50
513.64	1206.99
514.00	1230.90
514.37	1255.11
514.73	1279.40
515.09	1303.45
515.45	1327.97
515.81	1353.01
516.17	1378.07
516.53	1402.81
516.89	1427.61
517.25	1452.58
517.61	1477.76
517.97	1503.14
518.33	1528.22
518.69	1553.41
519.05	1578.91
519.41	1604.53
519.77	1630.36
520.13	1655.36
520.49	1680.61
520.85	1706.09
521.21	1731.42
521.57	1757.30
521.93	1782.51
522.29	1808.48
522.65	1834.22
523.01	1859.69
523.37	1884.41
523.73	1909.81
524.09	1935.40
524.45	1960.87
524.81	1985.81
525.17	2010.66
525.53	2035.01
525.89	2059.39
526.25	2084.01
526.61	2108.12
526.97	2132.45
527.33	2156.75
527.68	2180.80
528.04	2204.07
528.40	2227.10
528.76	2250.34
529.12	2272.52
529.48	2295.05
529.84	2315.71
530.20	2336.94
530.56	2357.77
530.91	2378.72
531.27	2399.15
531.63	2418.85
531.99	2438.03
532.35	2456.90
532.71	2475.85
533.07	2495.32
533.42	2513.40
533.78	2531.72
534.14	2550.06
534.50	2567.53
534.86	2585.60
535.21	2601.84
535.57	2617.86
535.93	2633.36
536.29	2647.55
536.65	2662.68
537.00	2676.61
537.36	2691.09
537.72	2704.51
538.08	2717.50
538.44	2729.37
538.79	2741.37
539.15	2751.75
539.51	2762.09
539.87	2772.06
540.22	2779.82
540.58	2787.85
540.94	2796.25
541.29	2803.27
541.65	2809.19
542.01	2814.63
542.37	2818.24
542.72	2823.87
543.08	2828.96
543.44	2833.76
543.79	2837.85
544.15	2840.84
544.51	2843.92
544.87	2846.08
545.22	2847.87
545.58	2848.82
545.94	2850.20
546.29	2850.09
546.65	2849.98
547.01	2850.06
547.36	2850.14
547.72	2850.41
548.07	2849.21
548.43	2847.40
548.79	2844.92
549.14	2842.43
549.50	2840.77
549.86	2837.92
550.21	2832.78
550.57	2828.02
550.92	2821.96
551.28	2816.51
551.64	2811.09
551.99	2805.91
552.35	2800.36
552.70	2794.36
553.06	2789.08
553.41	2783.30
553.77	2776.99
554.13	2771.55
554.48	2764.90
554.84	2756.77
555.19	2748.86
555.55	2740.38
555.90	2732.50
556.26	2725.58
556.61	2717.99
556.97	2708.10
557.32	2699.27
557.68	2690.75
558.03	2681.69
558.39	2673.34
558.74	2664.95
559.10	2655.42
559.45	2645.51
559.81	2636.03
560.16	2625.79
560.52	2615.23
560.87	2605.69
561.23	2595.62
561.58	2585.04
561.94	2574.29
562.29	2563.01
562.64	2552.41
563.00	2542.09
563.35	2531.64
563.71	2520.25
564.06	2508.42
564.42	2497.59
564.77	2486.43
565.12	2475.33
565.48	2464.05
565.83	2453.35
566.19	2442.74
566.54	2431.57
566.89	2419.70
567.25	2407.71
567.60	2396.57
567.96	2384.96
568.31	2371.89
568.66	2358.94
569.02	2347.03
569.37	2334.79
569.72	2323.13
570.08	2310.76
570.43	2297.85
570.78	2284.56
571.14	2271.12
571.49	2258.48
571.84	2246.13
572.20	2232.51
572.55	2219.28
572.90	2205.91
573.26	2191.49
573.61	2176.59
573.96	2162.15
574.31	2147.98
574.67	2133.99
575.02	2119.63
575.37	2104.78
575.72	2090.25
576.08	2076.26
576.43	2061.23
576.78	2046.44
577.13	2032.41
577.49	2018.25
577.84	2004.51
578.19	1989.98
578.54	1975.14
578.90	1959.77
579.25	1944.14
579.60	1929.89
579.95	1915.25
580.30	1900.67
580.66	1886.46
581.01	1871.90
581.36	1857.62
581.71	1843.93
582.06	1829.71
582.42	1815.62
582.77	1802.25
583.12	1788.47
583.47	1774.86
583.82	1761.36
584.17	1747.76
584.53	1733.96
584.88	1720.24
585.23	1706.07
585.58	1692.46
585.93	1679.29
586.28	1666.97
586.63	1654.37
586.98	1641.16
587.34	1628.14
587.69	1614.65
588.04	1601.51
588.39	1588.95
588.74	1575.90
589.09	1562.60
589.44	1549.32
589.79	1536.52
590.14	1523.67
590.49	1511.05
590.84	1498.26
591.19	1486.09
591.54	1473.37
591.89	1460.55
592.25	1448.05
592.60	1435.28
592.95	1423.03
593.30	1411.07
593.65	1398.84
594.00	1386.92
594.35	1375.67
594.70	1363.75
595.05	1352.87
595.40	1341.65
595.75	1329.93
596.10	1319.05
596.45	1308.38
596.80	1298.15
597.15	1287.76
597.50	1277.32
597.85	1267.08
598.19	1257.04
598.54	1246.40
598.89	1236.56
599.24	1226.97
599.59	1217.21
599.94	1208.44
600.29	1199.52
600.64	1190.34
600.99	1180.60
601.34	1171.31
601.69	1161.52
602.04	1152.71
602.39	1143.75
602.74	1135.07
603.08	1126.60
603.43	1117.64
603.78	1108.64
604.13	1099.74
604.48	1090.78
604.83	1082.08
605.18	1073.29
605.53	1064.43
605.87	1055.72
606.22	1047.23
606.57	1038.52
606.92	1029.91
607.27	1021.13
607.62	1012.50
607.96	1004.02
608.31	996.56
608.66	988.65
609.01	981.15
609.36	973.62
609.70	965.83
610.05	957.91
610.40	950.34
610.75	942.85
611.10	935.60
611.44	928.03
611.79	920.72
612.14	913.05
612.49	905.57
612.83	898.52
613.18	891.51
613.53	884.32
613.88	877.24
614.22	870.72
614.57	864.01
614.92	857.30
615.27	850.64
615.61	843.83
615.96	837.24
616.31	830.58
616.65	823.81
617.00	817.30
617.35	810.94
617.70	804.59
618.04	798.34
618.39	792.06
618.74	786.13
619.08	780.05
619.43	774.19
619.78	768.33
620.12	762.33
620.47	756.49
620.82	750.77
621.16	745.31
621.51	739.49
621.85	733.69
622.20	727.95
622.55	722.39
622.89	716.75
623.24	711.19
623.59	705.67
623.93	700.22
624.28	694.92
624.62	689.57
624.97	684.25
625.32	679.01
625.66	673.64
626.01	668.26
626.35	663.02
626.70	657.84
627.04	652.86
627.39	647.92
627.73	643.10
628.08	638.47
628.43	633.72
628.77	629.04
629.12	624.51
629.46	620.11
629.81	615.53
630.15	610.86
630.50	606.36
630.84	602.07
631.19	597.94
631.53	593.83
631.88	589.65
632.22	585.52
632.57	581.65
632.91	577.72
633.26	573.88
633.60	570.09
633.95	566.39
634.29	562.56
634.64	558.71
634.98	554.79
635.32	551.01
635.67	547.35
636.01	543.66
636.36	540.00
636.70	536.49
637.05	533.00
637.39	529.70
637.73	526.24
638.08	522.84
638.42	519.40
638.77	515.86
639.11	512.31
639.45	508.82
639.80	505.33
640.14	502.01
640.49	498.65
640.83	495.17
641.17	491.77
641.52	488.50
641.86	485.21
642.20	482.10
642.55	478.84
642.89	475.69
643.23	472.71
643.58	469.96
643.92	467.10
644.26	464.23
644.61	461.35
644.95	458.51
645.29	455.61
645.64	452.69
645.98	449.91
646.32	447.30
646.66	444.68
647.01	442.03
647.35	439.43
647.69	436.73
648.04	434.21
648.38	431.70
648.72	429.16
649.06	426.70
649.41	424.23
649.75	421.76
650.09	419.33
650.43	416.90
650.78	414.45
651.12	411.98
651.46	409.64
651.80	407.38
652.14	405.19
652.49	403.01
652.83	400.89
653.17	398.75
653.51	396.66
653.85	394.64
654.20	392.56
654.54	390.41
654.88	388.47
655.22	386.55
655.56	384.60
655.90	382.73
656.25	380.87
656.59	379.04
656.93	377.30
657.27	375.58
657.61	373.77
657.95	372.03
658.29	370.30
658.64	368.59
658.98	366.87
659.32	365.17
659.66	363.57
660.00	361.99
660.34	360.44
660.68	358.83
661.02	357.16
661.36	355.62
661.70	354.13
662.05	352.61
662.39	351.08
662.73	349.65
663.07	348.24
663.41	346.85
663.75	345.48
664.09	344.11
664.43	342.66
664.77	341.32
665.11	339.92
665.45	338.60
665.79	337.28
666.13	335.93
666.47	334.59
666.81	333.21
667.15	331.81
667.49	330.50
667.83	329.25
668.17	328.03
668.51	326.84
668.85	325.65
669.19	324.54
669.53	323.36
669.87	322.16
670.21	320.98
670.55	319.82
670.89	318.73
671.23	317.62
671.57	316.53
671.91	315.48
672.25	314.49
672.58	313.47
672.92	312.43
673.26	311.47
673.60	310.51
673.94	309.53
674.28	308.62
674.62	307.70
674.96	306.74
675.30	305.84
675.64	304.91
675.97	304.00
676.31	303.06
676.65	302.15
676.99	301.30
677.33	300.40
677.67	299.54
678.01	298.60
678.34	297.74
678.68	296.93
679.02	296.08
679.36	295.25
679.70	294.43
680.04	293.62
680.37	292.82
680.71	292.04
681.05	291.31
681.39	290.53
681.73	289.73
682.06	288.96
682.40	288.21
682.74	287.48
683.08	286.78
683.42	286.05
683.75	285.40
684.09	284.66
684.43	283.97
684.77	283.27
685.10	282.62
685.44	281.95
685.78	281.27
686.12	280.63
686.45	279.97
686.79	279.32
687.13	278.69
687.46	278.03
687.80	277.40
688.14	276.73
688.48	276.11
688.81	275.49
689.15	274.93
689.49	274.32
689.82	273.72
690.16	273.08
690.50	272.49
690.83	271.90
691.17	271.34
691.51	270.78
691.84	270.24
692.18	269.67
692.52	269.09
692.85	268.53
693.19	268.02
693.52	267.49
693.86	266.95
694.20	266.44
694.53	265.95
694.87	265.44
695.21	264.95
695.54	264.46
695.88	263.96
696.21	263.43
696.55	262.95
696.88	262.46
697.22	262.00
697.56	261.53
697.89	261.01
698.23	260.54
698.56	260.04
698.90	259.60
699.23	259.14
699.57	258.72
699.90	258.28
700.24	257.82
700.58	257.39
700.91	257.00
701.25	256.67
701.58	256.30
701.92	255.93
702.25	255.53
702.59	255.13
702.92	254.75
703.26	254.38
703.59	254.00
703.93	253.71
704.26	253.36
704.60	253.01
704.93	252.67
705.26	252.32
705.60	252.01
705.93	251.65
706.27	251.35
706.60	251.04
706.94	250.74
707.27	250.39
707.61	250.06
707.94	249.71
708.27	249.30
708.61	248.94
708.94	248.60
709.28	248.29
709.61	247.99
709.94	247.70
710.28	247.42
710.61	247.15
710.95	246.79
711.28	246.58
711.61	246.30
711.95	246.06
712.28	245.79
712.61	245.51
712.95	245.31
713.28	245.10
713.61	244.83
713.95	244.55
714.28	244.33
714.61	244.08
714.95	243.85
715.28	243.60
715.61	243.37
715.95	243.16
716.28	242.93
716.61	242.73
716.95	242.49
717.28	242.28
717.61	242.06
717.94	241.85
718.28	241.56
718.61	241.36
718.94	241.13
719.27	240.93
719.61	240.74
719.94	240.52
720.27	240.27
720.60	240.08
720.94	239.89
721.27	239.71
721.60	239.56
721.93	239.37
722.27	239.24
722.60	239.08
722.93	238.89
723.26	238.72
723.59	238.53
723.93	238.38
724.26	238.22
724.59	238.06
724.92	237.91
725.25	237.79
725.59	237.64
725.92	237.51
726.25	237.36
726.58	237.21
726.91	237.06
727.24	236.93
727.57	236.79
727.91	236.63
728.24	236.50
728.57	236.35
728.90	236.23
729.23	236.06
729.56	235.97
729.89	235.84
730.22	235.70
730.55	235.57
730.89	235.44
731.22	235.31
731.55	235.17
731.88	235.05
732.21	234.91
732.54	234.79
732.87	234.67
733.20	234.56
733.53	234.45
733.86	234.34
734.19	234.22
734.52	234.13
734.85	234.09
735.18	233.96
735.51	233.89
735.84	233.78
736.17	233.70
736.50	233.55
736.83	233.57
737.16	233.48
737.49	233.39
737.82	233.29
738.15	233.22
738.48	233.12
738.81	233.02
739.14	232.92
739.47	232.82
739.80	232.72
740.13	232.64
740.46	232.53
740.79	232.42
741.12	232.34
741.45	232.23
741.78	232.08
742.11	232.03
742.44	231.91
742.77	231.84
743.10	231.74
743.43	231.65
743.75	231.46
744.08	231.54
744.41	231.44
744.74	231.35
745.07	231.25
745.40	231.19
745.73	231.15
746.06	231.08
746.39	231.03
746.71	230.94
747.04	230.86
747.37	230.78
747.70	230.73
748.03	230.67
748.36	230.62
748.68	230.55
749.01	230.45
749.34	230.39
749.67	230.32
750.00	230.27
750.33	230.28
750.65	230.22
750.98	230.01
751.31	229.95
751.64	229.89
751.97	229.88
752.29	229.81
752.62	229.70
752.95	229.63
753.28	229.55
753.60	229.49
753.93	229.45
754.26	229.40
754.59	229.31
754.91	229.23
755.24	229.15
755.57	229.14
755.90	229.08
756.22	229.01
756.55	228.93
756.88	228.86
757.20	228.74
757.53	228.65
757.86	228.60
758.19	228.55
758.51	228.50
758.84	228.39
759.17	228.33
759.49	228.29
759.82	228.29
760.15	228.25
760.47	228.20
760.80	228.12
761.13	228.09
761.45	228.05
761.78	228.01
762.11	227.96
762.43	227.86
762.76	227.82
763.08	227.79
763.41	227.76
763.74	227.72
764.06	227.67
764.39	227.63
764.71	227.59
765.04	227.54
765.37	227.49
765.69	227.45
766.02	227.41
766.34	227.37
766.67	227.29
767.00	227.27
767.32	227.29
767.65	227.31
767.97	227.27
768.30	227.23
768.62	227.20
768.95	227.15
769.27	227.11
769.60	227.09
769.92	227.04
770.25	226.98
770.57	226.93
770.90	226.90
771.22	226.86
771.55	226.83
771.87	226.80
772.20	226.77
772.52	226.83
772.85	226.92
773.17	226.89
773.50	226.85
773.82	226.81
774.15	226.73
774.47	226.63
774.80	226.59
775.12	226.56
775.45	226.53
775.77	226.51
776.09	226.50
776.42	226.47
776.74	226.47
777.07	226.45
777.39	226.43
777.72	226.40
778.04	226.39
778.36	226.36
778.69	226.34
779.01	226.32
779.33	226.21
779.66	226.07
779.98	226.04
780.31	226.02
780.63	226.04
780.95	226.04
781.28	226.02
781.60	225.99
781.92	225.97
782.25	225.95
782.57	225.93
782.89	225.90
783.22	225.88
783.54	225.83
783.86	225.82
784.19	225.80
784.51	225.81
784.83	225.77
785.16	225.75
785.48	225.74
785.80	225.71
786.12	225.71
786.45	225.69
786.77	225.69
787.09	225.66
787.42	225.61
787.74	225.59
788.06	225.58
788.38	225.57
788.71	225.54
789.03	225.53
789.35	225.53
789.67	225.50
789.99	225.49
790.32	225.47
790.64	225.46
790.96	225.55
791.28	225.49
791.61	225.48
791.93	225.47
792.25	225.45
792.57	225.51
792.89	225.48
793.21	225.47
793.54	225.45
793.86	225.42
794.18	225.41
794.50	225.38
794.82	225.37
795.14	225.37
795.47	225.38
795.79	225.37
796.11	225.33
796.43	225.32
796.75	225.31
797.07	225.30
797.39	225.29
797.71	225.19
798.04	225.19
798.36	225.18
798.68	225.17
799.00	225.17
799.32	225.11
799.64	225.12
799.96	225.10
800.28	225.11
800.60	225.10
800.92	225.09
801.24	225.08
801.56	225.08
801.89	225.06
802.21	225.05
802.53	225.02
802.85	225.04
803.17	225.07
803.49	225.04
803.81	225.03
804.13	225.01
804.45	224.99
804.77	224.99
805.09	224.98
805.41	224.96
805.73	224.94
806.05	224.90
806.37	224.88
806.69	224.87
807.01	224.85
807.33	224.85
807.65	224.81
807.97	224.85
808.28	224.83
808.60	224.82
808.92	224.79
809.24	224.85
809.56	224.83
809.88	224.79
810.20	224.79
810.52	224.80
810.84	224.78
811.16	224.76
811.48	224.74
811.80	224.77
812.12	224.76
812.43	224.77
812.75	224.77
813.07	224.76
813.39	224.76
813.71	224.74
814.03	224.72
814.35	224.72
814.67	224.67
814.98	224.65
815.30	224.65
815.62	224.63
815.94	224.55
816.26	224.56
816.58	224.54
816.89	224.54
817.21	224.51
817.53	224.51
817.85	224.51
818.17	224.51
818.48	224.46
818.80	224.48
819.12	224.46
819.44	224.43
819.76	224.42
820.07	224.41
820.39	224.40
820.71	224.41
821.03	224.40
821.34	224.39
821.66	224.40
821.98	224.40
822.30	224.39
822.61	224.45
822.93	224.43
823.25	224.42
823.57	224.41
823.88	224.42
824.20	224.41
824.52	224.42
824.83	224.41
825.15	224.40
825.47	224.38
825.79	224.39
826.10	224.38
826.42	224.38
826.74	224.38
827.05	224.37
827.37	224.37
827.69	224.36
828.00	224.37
828.32	224.36
828.64	224.34
828.95	224.40
829.27	224.36
829.58	224.37
829.90	224.38
830.22	224.39
830.53	224.36
830.85	224.35
831.17	224.32
831.48	224.32
831.80	224.33
832.11	224.32
832.43	224.30
832.75	224.29
833.06	224.35
833.38	224.32
833.69	224.32
834.01	224.32
834.32	224.31
834.64	224.30
834.96	224.30
835.27	224.30
835.59	224.26
835.90	224.24
836.22	224.24
836.53	224.21
836.85	224.20
837.16	224.31
837.48	224.30
837.79	224.33
838.11	224.33
838.42	224.33
838.74	224.34
839.05	224.33
839.37	224.33
839.68	224.26
840.00	224.26
840.31	224.27
840.63	224.25
840.94	224.24
841.26	224.23
841.57	224.22
841.88	224.23
842.20	224.22
842.51	224.20
842.83	224.19
843.14	224.28
843.46	224.28
843.77	224.22
844.08	224.21
844.40	224.18
844.71	224.17
845.03	224.15
845.34	224.14
845.65	224.13
845.97	224.14
846.28	224.15
846.60	224.15
846.91	224.13
847.22	224.13
847.54	224.15
847.85	224.15
848.16	224.14
848.48	224.12
848.79	224.15
849.10	224.16
849.42	224.17
849.73	224.07
850.04	224.07
850.36	224.03
850.67	224.05
850.98	224.05
851.30	224.05
851.61	224.05
851.92	224.05
852.23	224.08
852.55	224.08
852.86	224.08
853.17	224.09
853.49	224.11
853.80	224.13
854.11	224.14
854.42	224.14
854.74	224.14
855.05	224.14
855.36	224.09
855.67	224.09
855.99	224.09
856.30	224.21
856.61	224.20
856.92	224.20
857.23	224.21
857.55	224.20
857.86	224.19
858.17	224.20
858.48	224.18
858.79	224.15
859.11	224.16
859.42	224.15
859.73	224.14
860.04	224.13
860.35	224.10
860.66	224.07
860.98	224.06
861.29	224.07
861.60	224.06
861.91	224.09
862.22	224.08
862.53	224.06
862.84	223.94
863.16	223.96
863.47	223.94
863.78	223.92
864.09	223.93
864.40	223.94
864.71	223.94
865.02	223.96
865.33	223.95
865.64	223.93
865.95	223.93
866.27	223.99
866.58	223.98
866.89	223.99
867.20	223.99
867.51	223.97
867.82	223.96
868.13	224.00
868.44	223.97
868.75	223.99
869.06	224.00
869.37	224.01
869.68	223.98
869.99	224.00
870.30	224.00
870.61	224.01
870.92	223.99
871.23	223.98
871.54	223.99
871.85	224.02
872.16	224.03
872.47	224.02
872.78	223.97
873.09	223.97
873.40	223.97
873.71	223.97
874.02	223.98
874.33	223.97
874.64	223.94
874.95	223.96
875.26	223.93
875.56	223.93
875.87	223.92
876.18	223.92
876.49	224.02
876.80	224.01
877.11	223.99
877.42	224.00
877.73	224.00
878.04	223.98
878.35	223.98
878.66	223.98
878.96	223.98
879.27	223.97
879.58	223.97
879.89	223.97
880.20	224.00
880.51	223.99
880.82	223.99
881.12	224.00
881.43	223.98
881.74	223.97
882.05	223.97
882.36	223.97
882.67	223.98
882.97	223.86
883.28	223.85
883.59	223.85
883.90	223.86
884.21	223.87
884.51	223.87
884.82	223.86
885.13	223.85
885.44	223.85
885.74	223.84
886.05	223.84
886.36	223.84
886.67	223.80
886.98	223.86
887.28	223.86
887.59	223.86
887.90	223.87
888.20	223.86
888.51	223.88
888.82	223.86
889.13	223.87
889.43	223.96
889.74	223.95
890.05	223.95
890.35	223.94
890.66	223.92
890.97	223.90
891.28	223.90
891.58	223.90
891.89	223.90
892.20	223.89
892.50	223.87
892.81	223.86
893.12	223.86
893.42	223.81
893.73	223.81
894.04	223.80
894.34	223.81
894.65	223.80
894.95	223.79
895.26	223.80
895.57	223.84
895.87	223.74
896.18	223.76
896.48	223.76
896.79	223.77
897.10	223.78
897.40	223.78
897.71	223.79
898.01	223.78
898.32	223.79
898.63	223.79
898.93	223.80
899.24	223.80
899.54	223.79
899.85	223.79
900.15	223.78
900.46	223.78
900.76	223.78
901.07	223.78
901.38	223.78
901.68	223.79
901.99	223.74
902.29	223.75
902.60	223.74
902.90	223.73
903.21	223.72
903.51	223.72
903.82	223.74
904.12	223.74
904.43	223.74
904.73	223.73
905.03	223.74
905.34	223.84
905.64	223.83
905.95	223.83
906.25	223.83
906.56	223.83
906.86	223.83
907.17	223.82
907.47	223.83
907.77	223.82
908.08	223.80
908.38	223.80
908.69	223.81
908.99	223.82
909.30	223.83
909.60	223.83
909.90	223.83
910.21	223.80
910.51	223.79
910.81	223.78
911.12	223.79
911.42	223.79
911.73	223.68
912.03	223.69
912.33	223.71
912.64	223.71
912.94	223.70
913.24	223.69
913.55	223.68
913.85	223.67
914.15	223.70
914.46	223.71
914.76	223.70
915.06	223.69
915.37	223.67
915.67	223.66
915.97	223.67
916.27	223.65
916.58	223.65
916.88	223.65
917.18	223.65
917.49	223.71
917.79	223.71
918.09	223.73
918.39	223.75
918.70	223.74
919.00	223.74
919.30	223.78
919.60	223.78
919.91	223.77
920.21	223.77
920.51	223.75
920.81	223.74
921.12	223.76
921.42	223.75
921.72	223.76
922.02	223.77
922.32	223.78
922.63	223.79
922.93	223.84
923.23	223.85
923.53	223.83
923.83	223.77
924.13	223.77
924.44	223.77
924.74	223.78
925.04	223.80
925.34	223.80
925.64	223.76
925.94	223.76
926.24	223.82
926.55	223.81
926.85	223.83
927.15	223.83
927.45	223.83
927.75	223.82
928.05	223.82
928.35	223.81
928.65	223.82
928.95	223.83
929.26	223.78
929.56	223.80
929.86	223.81
930.16	223.80
930.46	223.80
930.76	223.81
931.06	223.76
931.36	223.73
931.66	223.75
931.96	223.76
932.26	223.76
932.56	223.72
932.86	223.73
933.16	223.72
933.46	223.71
933.76	223.69
934.06	223.71
934.36	223.75
934.66	223.74
934.96	223.73
935.26	223.73
935.56	223.75
935.86	223.72
936.16	223.71
936.46	223.70
936.76	223.69
937.06	223.68
937.36	223.69
937.66	223.69
937.96	223.68
938.26	223.66
938.56	223.65
938.86	223.65
939.16	223.68
939.46	223.68
939.76	223.69
940.06	223.69
940.35	223.68
940.65	223.62
940.95	223.63
941.25	223.61
941.55	223.59
941.85	223.58
942.15	223.60
942.45	223.63
942.75	223.62
943.04	223.63
943.34	223.65
943.64	223.64
943.94	223.62
944.24	223.62
944.54	223.63
944.84	223.62
945.13	223.61
945.43	223.59
945.73	223.59
946.03	223.58
946.33	223.57
946.62	223.56
946.92	223.56
947.22	223.56
947.52	223.57
947.82	223.59
948.11	223.58
948.41	223.55
948.71	223.53
949.01	223.53
949.31	223.52
949.60	223.51
949.90	223.53
950.20	223.52
950.50	223.52
950.79	223.51
951.09	223.53
951.39	223.53
951.69	223.51
951.98	223.53
952.28	223.53
952.58	223.53
952.87	223.53
953.17	223.55
953.47	223.54
953.76	223.53
954.06	223.51
954.36	223.50
954.66	223.50
954.95	223.53
955.25	223.53
955.55	223.54
955.84	223.53
956.14	223.54
956.44	223.55
956.73	223.53
957.03	223.54
957.32	223.54
957.62	223.54
957.92	223.56
958.21	223.55
958.51	223.66
958.81	223.68
959.10	223.69
959.40	223.71
959.69	223.72
959.99	223.73
960.29	223.74
960.58	223.74
960.88	223.78
961.17	223.76
961.47	223.77
961.76	223.76
962.06	223.78
962.36	223.77
962.65	223.77
962.95	223.78
963.24	223.77
963.54	223.77
963.83	223.78
964.13	223.77
964.42	223.76
964.72	223.67
965.01	223.67
965.31	223.66
965.60	223.63
965.90	223.69
966.19	223.67
966.49	223.68
966.78	223.68
967.08	223.66
967.37	223.66
967.67	223.64
967.96	223.66
968.26	223.65
968.55	223.67
968.85	223.66
969.14	223.66
969.43	223.66
969.73	223.65
970.02	223.64
970.32	223.64
970.61	223.62
970.91	223.59
971.20	223.58
971.49	223.57
971.79	223.58
972.08	223.51
972.38	223.52
972.67	223.51
972.96	223.53
973.26	223.50
973.55	223.54
973.85	223.53
974.14	223.52
974.43	223.53
974.73	223.51
975.02	223.50
975.31	223.50
975.61	223.50
975.90	223.49
976.19	223.49
976.49	223.50
976.78	223.51
977.07	223.51
977.37	223.51
977.66	223.53
977.95	223.51
978.24	223.52
978.54	223.54
978.83	223.53
979.12	223.52
979.42	223.53
979.71	223.50
980.00	223.50
980.29	223.51
980.59	223.49
980.88	223.51
981.17	223.51
981.46	223.51
981.76	223.51
982.05	223.54
982.34	223.55
982.63	223.54
982.93	223.54
983.22	223.56
983.51	223.57
983.80	223.58
984.09	223.59
984.39	223.58
984.68	223.57
984.97	223.58
985.26	223.57
985.55	223.58
985.85	223.56
986.14	223.57
986.43	223.58
986.72	223.58
987.01	223.54
987.30	223.55
987.59	223.54
987.89	223.54
988.18	223.51
988.47	223.50
988.76	223.49
989.05	223.48
989.34	223.47
989.63	223.49
989.92	223.48
990.22	223.46
990.51	223.46
990.80	223.46
991.09	223.46
991.38	223.47
991.67	223.46
991.96	223.46
992.25	223.46
992.54	223.44
992.83	223.44
993.12	223.44
993.41	223.46
993.70	223.50
993.99	223.52
994.28	223.53
994.58	223.55
994.87	223.54
995.16	223.54
995.45	223.53
995.74	223.49
996.03	223.51
996.32	223.52
996.61	223.54
996.90	223.54
997.19	223.54
997.48	223.54
997.77	223.53
998.06	223.54
998.34	223.53
998.63	223.53
998.92	223.53
999.21	223.55
999.50	223.55
999.79	223.51
1000.08	223.51
1000.37	223.50
1000.66	223.49
1000.95	223.51
1001.24	223.52
1001.53	223.53
1001.82	223.53
1002.11	223.51
1002.40	223.52
1002.68	223.54
1002.97	223.61
1003.26	223.60
1003.55	223.58
1003.84	223.58
1004.13	223.61
1004.42	223.61
1004.71	223.61
1004.99	223.60
1005.28	223.62
1005.57	223.61
1005.86	223.60
1006.15	223.59
1006.44	223.58
1006.72	223.59
1007.01	223.57
1007.30	223.57
1007.59	223.56
1007.88	223.56
1008.17	223.57
1008.45	223.55
1008.74	223.50
1009.03	223.46
1009.32	223.46
1009.60	223.46
1009.89	223.45
1010.18	223.41
1010.47	223.41
1010.76	223.40
1011.04	223.40
1011.33	223.40
1011.62	223.40
1011.91	223.41
1012.19	223.42
1012.48	223.42
1012.77	223.42
1013.05	223.45
1013.34	223.45
1013.63	223.45
1013.92	223.45
1014.20	223.45
1014.49	223.46
1014.78	223.47
1015.06	223.44
1015.35	223.44
1015.64	223.45
1015.92	223.48
1016.21	223.48
1016.50	223.48
1016.78	223.50
1017.07	223.51
1017.36	223.49
1017.64	223.48
1017.93	223.48
1018.22	223.47
1018.50	223.47
1018.79	223.47
1019.08	223.43
1019.36	223.44
1019.65	223.43
1019.93	223.45
1020.22	223.47
1020.51	223.52
1020.79	223.50
1021.08	223.28
1021.36	223.33
1021.65	223.44
1021.94	223.36
1022.22	223.52
1022.51	223.20
1022.79	223.97
1023.08	223.60
1023.36	224.66
1023.65	223.18
>>>>>End Processed Spectral Data<<<<<
