SpectraSuite Data File
++++++++++++++++++++++++++++++++++++
Date: Thu Oct 01 02:25:16 EDT 2015
User: lab3
Dark Spectrum Present: No
Reference Spectrum Present: No
Number of Sampled Component Spectra: 1
Spectrometers: USB2E7196
Integration Time (usec): 36000 (USB2E7196)
Spectra Averaged: 10000 (USB2E7196)
Boxcar Smoothing: 10 (USB2E7196)
Correct for Electrical Dark: No (USB2E7196)
Strobe/Lamp Enabled: No (USB2E7196)
Correct for Detector Non-linearity: No (USB2E7196)
Correct for Stray Light: No (USB2E7196)
Number of Pixels in Processed Spectrum: 2048
>>>>>Begin Processed Spectral Data<<<<<
339.09	0.00
339.48	210.13
339.86	211.57
340.24	213.04
340.63	214.42
341.01	217.35
341.39	217.09
341.78	218.46
342.16	219.65
342.54	220.13
342.93	208.72
343.31	219.27
343.69	219.81
344.07	220.27
344.46	220.70
344.84	221.08
345.22	221.32
345.60	221.57
345.99	221.76
346.37	221.90
346.75	222.01
347.13	222.09
347.52	222.16
347.90	222.24
348.28	222.28
348.66	222.34
349.05	222.34
349.43	222.39
349.81	222.44
350.19	222.49
350.57	222.56
350.96	222.64
351.34	222.73
351.72	222.83
352.10	222.93
352.48	223.01
352.87	223.07
353.25	223.13
353.63	223.20
354.01	223.27
354.39	223.34
354.77	223.42
355.15	223.52
355.54	223.58
355.92	223.61
356.30	223.69
356.68	223.83
357.06	223.91
357.44	223.96
357.82	224.02
358.20	224.14
358.58	224.20
358.97	224.27
359.35	224.35
359.73	224.43
360.11	224.48
360.49	224.54
360.87	224.59
361.25	224.66
361.63	224.74
362.01	224.79
362.39	224.83
362.77	224.87
363.15	224.90
363.53	224.93
363.91	224.96
364.29	224.99
364.67	224.91
365.05	224.94
365.43	224.97
365.81	225.00
366.19	225.01
366.57	225.06
366.95	225.07
367.33	225.04
367.71	225.03
368.09	225.05
368.47	225.04
368.85	225.03
369.23	225.04
369.61	224.99
369.99	225.00
370.37	224.99
370.75	225.05
371.13	225.02
371.51	224.97
371.89	224.95
372.27	224.93
372.65	224.91
373.03	224.86
373.41	224.82
373.78	224.77
374.16	224.67
374.54	224.59
374.92	224.54
375.30	224.50
375.68	224.43
376.06	224.39
376.44	224.33
376.82	224.29
377.19	224.23
377.57	224.18
377.95	224.09
378.33	224.03
378.71	223.89
379.09	223.84
379.47	223.81
379.84	223.74
380.22	223.68
380.60	223.60
380.98	223.55
381.36	223.50
381.73	223.44
382.11	223.41
382.49	223.37
382.87	223.31
383.25	223.26
383.62	223.34
384.00	223.27
384.38	223.22
384.76	223.20
385.13	223.19
385.51	223.15
385.89	223.10
386.27	223.06
386.64	223.04
387.02	222.99
387.40	222.94
387.78	222.92
388.15	222.89
388.53	222.85
388.91	222.82
389.29	222.78
389.66	222.77
390.04	222.73
390.42	222.73
390.79	222.71
391.17	222.69
391.55	222.55
391.92	222.54
392.30	222.54
392.68	222.50
393.05	222.48
393.43	222.48
393.81	222.49
394.18	222.47
394.56	222.47
394.94	222.50
395.31	222.50
395.69	222.53
396.06	222.56
396.44	222.58
396.82	222.59
397.19	222.66
397.57	222.67
397.95	222.71
398.32	222.71
398.70	222.74
399.07	222.80
399.45	222.84
399.82	222.88
400.20	222.91
400.58	222.96
400.95	222.98
401.33	223.05
401.70	223.19
402.08	223.28
402.45	223.35
402.83	223.45
403.20	223.55
403.58	223.63
403.95	223.76
404.33	223.89
404.71	224.01
405.08	224.19
405.46	224.34
405.83	224.50
406.21	224.67
406.58	224.87
406.96	225.06
407.33	225.28
407.70	225.52
408.08	225.85
408.45	226.13
408.83	226.44
409.20	226.72
409.58	226.97
409.95	227.32
410.33	227.69
410.70	228.05
411.08	228.47
411.45	228.91
411.82	229.36
412.20	229.87
412.57	230.47
412.95	230.95
413.32	231.57
413.69	232.20
414.07	232.88
414.44	233.62
414.82	234.36
415.19	235.24
415.56	236.13
415.94	237.06
416.31	238.10
416.68	239.14
417.06	240.35
417.43	241.48
417.81	242.79
418.18	244.12
418.55	245.57
418.93	247.08
419.30	248.65
419.67	250.33
420.04	252.06
420.42	253.86
420.79	255.95
421.16	258.05
421.54	260.20
421.91	262.44
422.28	264.75
422.66	267.26
423.03	269.65
423.40	272.15
423.77	274.84
424.15	277.58
424.52	280.44
424.89	283.53
425.26	286.60
425.64	289.46
426.01	292.67
426.38	295.95
426.75	299.33
427.13	302.80
427.50	306.41
427.87	310.17
428.24	313.96
428.61	317.59
428.99	321.49
429.36	325.78
429.73	329.88
430.10	333.96
430.47	338.13
430.85	342.42
431.22	346.99
431.59	351.67
431.96	356.24
432.33	361.30
432.70	366.09
433.08	371.76
433.45	377.12
433.82	382.37
434.19	388.24
434.56	394.01
434.93	399.57
435.30	405.08
435.68	411.27
436.05	417.33
436.42	423.39
436.79	428.91
437.16	434.87
437.53	441.26
437.90	447.65
438.27	453.88
438.64	460.65
439.01	466.78
439.38	472.38
439.75	477.79
440.13	483.97
440.50	489.87
440.87	494.52
441.24	499.62
441.61	505.27
441.98	509.42
442.35	514.35
442.72	519.42
443.09	524.28
443.46	527.43
443.83	529.79
444.20	531.80
444.57	534.72
444.94	536.50
445.31	538.33
445.68	539.97
446.05	541.25
446.42	541.20
446.79	541.06
447.16	540.96
447.53	540.91
447.90	539.20
448.27	537.60
448.64	535.00
449.01	533.32
449.37	529.55
449.74	526.11
450.11	521.68
450.48	516.77
450.85	511.82
451.22	507.62
451.59	503.52
451.96	499.80
452.33	494.28
452.70	489.37
453.07	483.36
453.43	477.34
453.80	471.51
454.17	465.90
454.54	460.69
454.91	454.79
455.28	449.24
455.65	444.00
456.02	438.42
456.38	433.92
456.75	428.10
457.12	423.41
457.49	418.67
457.86	414.14
458.23	410.17
458.59	405.79
458.96	401.27
459.33	397.28
459.70	393.22
460.07	390.13
460.43	386.49
460.80	383.07
461.17	380.05
461.54	376.79
461.91	373.76
462.27	370.67
462.64	368.14
463.01	365.25
463.38	362.33
463.74	359.69
464.11	357.34
464.48	355.21
464.85	352.93
465.21	351.18
465.58	349.26
465.95	347.03
466.32	345.25
466.68	343.52
467.05	341.77
467.42	340.09
467.78	338.27
468.15	336.59
468.52	335.35
468.88	333.72
469.25	332.23
469.62	331.04
469.98	329.75
470.35	328.60
470.72	327.57
471.08	326.51
471.45	325.65
471.82	324.69
472.18	323.69
472.55	323.05
472.92	322.25
473.28	321.63
473.65	320.98
474.02	320.37
474.38	319.87
474.75	319.59
475.11	319.18
475.48	319.02
475.85	318.85
476.21	318.79
476.58	318.80
476.94	318.99
477.31	319.11
477.67	319.26
478.04	319.52
478.41	319.86
478.77	320.32
479.14	320.65
479.50	321.20
479.87	321.89
480.23	322.59
480.60	323.26
480.96	323.96
481.33	324.92
481.69	325.87
482.06	326.82
482.42	327.72
482.79	328.79
483.15	330.02
483.52	331.40
483.88	332.74
484.25	334.16
484.61	335.64
484.98	337.23
485.34	339.02
485.71	340.87
486.07	342.84
486.44	344.81
486.80	346.98
487.17	349.21
487.53	351.67
487.90	354.22
488.26	356.98
488.62	359.89
488.99	362.81
489.35	365.85
489.72	369.15
490.08	372.61
490.44	376.17
490.81	379.89
491.17	383.70
491.54	387.77
491.90	391.95
492.26	396.44
492.63	401.17
492.99	406.08
493.36	411.12
493.72	416.44
494.08	421.88
494.45	427.63
494.81	433.60
495.17	439.69
495.54	446.11
495.90	452.86
496.26	459.73
496.63	466.85
496.99	474.25
497.35	482.01
497.72	490.07
498.08	498.30
498.44	506.78
498.80	515.81
499.17	525.06
499.53	534.65
499.89	544.48
500.26	554.47
500.62	564.73
500.98	575.68
501.34	586.76
501.71	598.39
502.07	610.23
502.43	622.47
502.79	635.05
503.16	648.03
503.52	661.21
503.88	674.75
504.24	688.73
504.60	703.00
504.97	717.65
505.33	732.67
505.69	748.58
506.05	764.70
506.41	780.84
506.78	797.29
507.14	814.21
507.50	831.73
507.86	849.63
508.22	867.79
508.59	885.97
508.95	904.88
509.31	924.20
509.67	944.22
510.03	964.47
510.39	984.92
510.75	1005.64
511.12	1026.63
511.48	1047.96
511.84	1069.35
512.20	1091.05
512.56	1113.87
512.92	1136.92
513.28	1159.69
513.64	1182.76
514.00	1206.24
514.37	1230.05
514.73	1253.88
515.09	1277.52
515.45	1301.59
515.81	1326.24
516.17	1350.94
516.53	1375.33
516.89	1399.77
517.25	1424.41
517.61	1449.23
517.97	1474.25
518.33	1499.00
518.69	1523.91
519.05	1549.07
519.41	1574.37
519.77	1599.93
520.13	1624.71
520.49	1649.66
520.85	1674.81
521.21	1699.89
521.57	1725.58
521.93	1750.55
522.29	1776.37
522.65	1801.91
523.01	1827.23
523.37	1851.85
523.73	1877.07
524.09	1902.45
524.45	1927.79
524.81	1952.63
525.17	1977.38
525.53	2001.71
525.89	2026.06
526.25	2050.60
526.61	2074.60
526.97	2098.92
527.33	2123.14
527.68	2147.21
528.04	2170.42
528.40	2193.50
528.76	2216.76
529.12	2238.96
529.48	2261.54
529.84	2282.27
530.20	2303.60
530.56	2324.60
530.91	2345.63
531.27	2366.19
531.63	2386.11
531.99	2405.47
532.35	2424.50
532.71	2443.62
533.07	2463.38
533.42	2481.56
533.78	2500.15
534.14	2518.71
534.50	2536.40
534.86	2554.72
535.21	2571.21
535.57	2587.69
535.93	2603.36
536.29	2617.87
536.65	2633.17
537.00	2647.36
537.36	2662.06
537.72	2675.67
538.08	2689.02
538.44	2701.23
538.79	2713.60
539.15	2724.31
539.51	2735.00
539.87	2745.32
540.22	2753.57
540.58	2761.84
540.94	2770.74
541.29	2778.06
541.65	2784.42
542.01	2790.28
542.37	2794.28
542.72	2800.16
543.08	2805.50
543.44	2810.76
543.79	2815.11
544.15	2818.65
544.51	2822.15
544.87	2824.78
545.22	2826.98
545.58	2828.16
545.94	2829.77
546.29	2830.00
546.65	2830.40
547.01	2830.77
547.36	2831.30
547.72	2831.96
548.07	2831.15
548.43	2829.67
548.79	2827.59
549.14	2825.60
549.50	2824.11
549.86	2821.85
550.21	2817.08
550.57	2812.80
550.92	2807.10
551.28	2802.05
551.64	2796.86
551.99	2792.09
552.35	2786.89
552.70	2781.28
553.06	2776.42
553.41	2771.11
553.77	2765.20
554.13	2759.89
554.48	2753.76
554.84	2745.94
555.19	2738.26
555.55	2730.00
555.90	2722.33
556.26	2715.67
556.61	2708.36
556.97	2698.91
557.32	2690.30
557.68	2682.19
558.03	2673.34
558.39	2665.19
558.74	2657.26
559.10	2648.06
559.45	2638.57
559.81	2629.38
560.16	2619.52
560.52	2609.16
560.87	2599.81
561.23	2590.15
561.58	2579.97
561.94	2569.52
562.29	2558.59
562.64	2548.26
563.00	2538.30
563.35	2528.20
563.71	2517.18
564.06	2505.60
564.42	2495.11
564.77	2484.21
565.12	2473.43
565.48	2462.38
565.83	2452.02
566.19	2441.60
566.54	2430.86
566.89	2419.17
567.25	2407.43
567.60	2396.54
567.96	2385.27
568.31	2372.59
568.66	2359.77
569.02	2348.05
569.37	2336.11
569.72	2324.69
570.08	2312.53
570.43	2299.85
570.78	2286.87
571.14	2273.66
571.49	2261.29
571.84	2249.17
572.20	2235.76
572.55	2222.71
572.90	2209.57
573.26	2195.55
573.61	2180.99
573.96	2166.66
574.31	2152.69
574.67	2138.97
575.02	2124.81
575.37	2110.23
575.72	2095.90
576.08	2082.24
576.43	2067.51
576.78	2052.79
577.13	2038.91
577.49	2025.10
577.84	2011.63
578.19	1997.33
578.54	1982.64
578.90	1967.42
579.25	1951.95
579.60	1937.92
579.95	1923.53
580.30	1909.15
580.66	1895.05
581.01	1880.55
581.36	1866.45
581.71	1852.89
582.06	1838.85
582.42	1824.83
582.77	1811.59
583.12	1798.02
583.47	1784.45
583.82	1771.01
584.17	1757.49
584.53	1743.78
584.88	1730.05
585.23	1716.02
585.58	1702.48
585.93	1689.42
586.28	1677.15
586.63	1664.73
586.98	1651.57
587.34	1638.64
587.69	1625.23
588.04	1612.00
588.39	1599.49
588.74	1586.50
589.09	1573.23
589.44	1559.92
589.79	1547.23
590.14	1534.36
590.49	1521.68
590.84	1508.89
591.19	1496.76
591.54	1484.12
591.89	1471.34
592.25	1458.92
592.60	1446.07
592.95	1433.80
593.30	1421.78
593.65	1409.57
594.00	1397.53
594.35	1386.35
594.70	1374.30
595.05	1363.36
595.40	1352.28
595.75	1340.56
596.10	1329.61
596.45	1318.89
596.80	1308.64
597.15	1298.15
597.50	1287.70
597.85	1277.44
598.19	1267.38
598.54	1256.69
598.89	1246.74
599.24	1237.12
599.59	1227.24
599.94	1218.39
600.29	1209.42
600.64	1200.24
600.99	1190.49
601.34	1181.21
601.69	1171.29
602.04	1162.50
602.39	1153.49
602.74	1144.74
603.08	1136.25
603.43	1127.26
603.78	1118.15
604.13	1109.21
604.48	1100.20
604.83	1091.46
605.18	1082.61
605.53	1073.70
605.87	1064.93
606.22	1056.44
606.57	1047.66
606.92	1038.97
607.27	1030.18
607.62	1021.45
607.96	1012.90
608.31	1005.33
608.66	997.34
609.01	989.78
609.36	982.18
609.70	974.37
610.05	966.37
610.40	958.73
610.75	951.23
611.10	944.01
611.44	936.36
611.79	929.03
612.14	921.33
612.49	913.77
612.83	906.68
613.18	899.66
613.53	892.43
613.88	885.29
614.22	878.75
614.57	872.03
614.92	865.30
615.27	858.59
615.61	851.74
615.96	845.13
616.31	838.43
616.65	831.62
617.00	825.06
617.35	818.65
617.70	812.24
618.04	805.90
618.39	799.60
618.74	793.62
619.08	787.46
619.43	781.56
619.78	775.69
620.12	769.62
620.47	763.72
620.82	757.89
621.16	752.40
621.51	746.54
621.85	740.68
622.20	734.87
622.55	729.24
622.89	723.57
623.24	717.94
623.59	712.39
623.93	706.87
624.28	701.49
624.62	696.10
624.97	690.71
625.32	685.43
625.66	680.01
626.01	674.60
626.35	669.32
626.70	664.07
627.04	659.00
627.39	653.99
627.73	649.08
628.08	644.41
628.43	639.61
628.77	634.89
629.12	630.29
629.46	625.88
629.81	621.28
630.15	616.57
630.50	612.00
630.84	607.62
631.19	603.44
631.53	599.30
631.88	595.04
632.22	590.87
632.57	586.95
632.91	582.98
633.26	579.10
633.60	575.29
633.95	571.57
634.29	567.72
634.64	563.84
634.98	559.85
635.32	556.03
635.67	552.34
636.01	548.59
636.36	544.88
636.70	541.31
637.05	537.74
637.39	534.37
637.73	530.88
638.08	527.45
638.42	523.99
638.77	520.38
639.11	516.80
639.45	513.24
639.80	509.66
640.14	506.28
640.49	502.85
640.83	499.32
641.17	495.83
641.52	492.52
641.86	489.20
642.20	486.04
642.55	482.73
642.89	479.50
643.23	476.48
643.58	473.68
643.92	470.76
644.26	467.87
644.61	464.98
644.95	462.09
645.29	459.15
645.64	456.18
645.98	453.34
646.32	450.67
646.66	448.01
647.01	445.33
647.35	442.69
647.69	439.95
648.04	437.34
648.38	434.78
648.72	432.16
649.06	429.62
649.41	427.11
649.75	424.59
650.09	422.11
650.43	419.63
650.78	417.13
651.12	414.62
651.46	412.21
651.80	409.90
652.14	407.66
652.49	405.42
652.83	403.26
653.17	401.07
653.51	398.95
653.85	396.89
654.20	394.78
654.54	392.58
654.88	390.57
655.22	388.63
655.56	386.65
655.90	384.76
656.25	382.89
656.59	381.01
656.93	379.23
657.27	377.49
657.61	375.65
657.95	373.88
658.29	372.11
658.64	370.37
658.98	368.61
659.32	366.87
659.66	365.24
660.00	363.62
660.34	362.03
660.68	360.39
661.02	358.69
661.36	357.09
661.70	355.58
662.05	354.04
662.39	352.48
662.73	351.01
663.07	349.57
663.41	348.15
663.75	346.75
664.09	345.36
664.43	343.89
664.77	342.51
665.11	341.08
665.45	339.72
665.79	338.36
666.13	336.99
666.47	335.61
666.81	334.21
667.15	332.77
667.49	331.44
667.83	330.15
668.17	328.91
668.51	327.69
668.85	326.48
669.19	325.35
669.53	324.14
669.87	322.91
670.21	321.71
670.55	320.53
670.89	319.41
671.23	318.27
671.57	317.14
671.91	316.07
672.25	315.06
672.58	314.04
672.92	312.98
673.26	312.00
673.60	311.02
673.94	310.03
674.28	309.10
674.62	308.17
674.96	307.19
675.30	306.28
675.64	305.34
675.97	304.41
676.31	303.45
676.65	302.52
676.99	301.65
677.33	300.72
677.67	299.85
678.01	298.89
678.34	298.01
678.68	297.19
679.02	296.33
679.36	295.48
679.70	294.64
680.04	293.82
680.37	292.99
680.71	292.20
681.05	291.45
681.39	290.67
681.73	289.84
682.06	289.06
682.40	288.28
682.74	287.54
683.08	286.82
683.42	286.08
683.75	285.40
684.09	284.65
684.43	283.95
684.77	283.23
685.10	282.57
685.44	281.89
685.78	281.19
686.12	280.54
686.45	279.87
686.79	279.20
687.13	278.55
687.46	277.88
687.80	277.24
688.14	276.55
688.48	275.92
688.81	275.29
689.15	274.72
689.49	274.10
689.82	273.49
690.16	272.83
690.50	272.23
690.83	271.64
691.17	271.06
691.51	270.49
691.84	269.95
692.18	269.36
692.52	268.78
692.85	268.20
693.19	267.68
693.52	267.14
693.86	266.60
694.20	266.07
694.53	265.57
694.87	265.04
695.21	264.55
695.54	264.05
695.88	263.54
696.21	263.00
696.55	262.50
696.88	262.01
697.22	261.53
697.56	261.06
697.89	260.53
698.23	260.04
698.56	259.53
698.90	259.07
699.23	258.60
699.57	258.15
699.90	257.71
700.24	257.23
700.58	256.79
700.91	256.39
701.25	256.05
701.58	255.68
701.92	255.29
702.25	254.89
702.59	254.47
702.92	254.08
703.26	253.70
703.59	253.31
703.93	253.01
704.26	252.64
704.60	252.27
704.93	251.92
705.26	251.57
705.60	251.25
705.93	250.88
706.27	250.57
706.60	250.25
706.94	249.95
707.27	249.58
707.61	249.24
707.94	248.88
708.27	248.45
708.61	248.08
708.94	247.73
709.28	247.41
709.61	247.09
709.94	246.79
710.28	246.50
710.61	246.22
710.95	245.85
711.28	245.63
711.61	245.34
711.95	245.09
712.28	244.81
712.61	244.51
712.95	244.30
713.28	244.08
713.61	243.81
713.95	243.53
714.28	243.29
714.61	243.04
714.95	242.79
715.28	242.54
715.61	242.30
715.95	242.07
716.28	241.83
716.61	241.62
716.95	241.38
717.28	241.16
717.61	240.93
717.94	240.71
718.28	240.42
718.61	240.21
718.94	239.97
719.27	239.76
719.61	239.57
719.94	239.34
720.27	239.08
720.60	238.88
720.94	238.69
721.27	238.50
721.60	238.34
721.93	238.15
722.27	238.01
722.60	237.85
722.93	237.66
723.26	237.49
723.59	237.30
723.93	237.14
724.26	236.98
724.59	236.81
724.92	236.65
725.25	236.53
725.59	236.37
725.92	236.24
726.25	236.09
726.58	235.93
726.91	235.77
727.24	235.64
727.57	235.50
727.91	235.33
728.24	235.20
728.57	235.05
728.90	234.92
729.23	234.75
729.56	234.65
729.89	234.51
730.22	234.36
730.55	234.23
730.89	234.09
731.22	233.95
731.55	233.82
731.88	233.69
732.21	233.54
732.54	233.42
732.87	233.30
733.20	233.18
733.53	233.07
733.86	232.96
734.19	232.83
734.52	232.74
734.85	232.70
735.18	232.56
735.51	232.48
735.84	232.37
736.17	232.29
736.50	232.13
736.83	232.14
737.16	232.05
737.49	231.96
737.82	231.86
738.15	231.78
738.48	231.68
738.81	231.58
739.14	231.47
739.47	231.37
739.80	231.26
740.13	231.17
740.46	231.06
740.79	230.95
741.12	230.86
741.45	230.75
741.78	230.60
742.11	230.54
742.44	230.43
742.77	230.36
743.10	230.25
743.43	230.16
743.75	229.97
744.08	230.04
744.41	229.95
744.74	229.86
745.07	229.75
745.40	229.69
745.73	229.66
746.06	229.59
746.39	229.53
746.71	229.44
747.04	229.36
747.37	229.29
747.70	229.24
748.03	229.17
748.36	229.11
748.68	229.04
749.01	228.94
749.34	228.86
749.67	228.79
750.00	228.74
750.33	228.75
750.65	228.70
750.98	228.48
751.31	228.41
751.64	228.36
751.97	228.35
752.29	228.28
752.62	228.16
752.95	228.09
753.28	228.00
753.60	227.94
753.93	227.90
754.26	227.84
754.59	227.74
754.91	227.67
755.24	227.60
755.57	227.58
755.90	227.52
756.22	227.45
756.55	227.38
756.88	227.30
757.20	227.17
757.53	227.08
757.86	227.02
758.19	226.98
758.51	226.92
758.84	226.81
759.17	226.75
759.49	226.71
759.82	226.71
760.15	226.68
760.47	226.63
760.80	226.55
761.13	226.52
761.45	226.47
761.78	226.43
762.11	226.38
762.43	226.28
762.76	226.24
763.08	226.21
763.41	226.17
763.74	226.13
764.06	226.09
764.39	226.05
764.71	226.00
765.04	225.95
765.37	225.90
765.69	225.86
766.02	225.82
766.34	225.77
766.67	225.69
767.00	225.66
767.32	225.68
767.65	225.70
767.97	225.66
768.30	225.62
768.62	225.59
768.95	225.54
769.27	225.50
769.60	225.48
769.92	225.42
770.25	225.37
770.57	225.32
770.90	225.29
771.22	225.25
771.55	225.22
771.87	225.19
772.20	225.16
772.52	225.22
772.85	225.31
773.17	225.28
773.50	225.24
773.82	225.19
774.15	225.11
774.47	225.02
774.80	224.97
775.12	224.95
775.45	224.92
775.77	224.90
776.09	224.88
776.42	224.85
776.74	224.86
777.07	224.83
777.39	224.81
777.72	224.78
778.04	224.77
778.36	224.73
778.69	224.71
779.01	224.70
779.33	224.58
779.66	224.44
779.98	224.41
780.31	224.39
780.63	224.41
780.95	224.41
781.28	224.39
781.60	224.36
781.92	224.34
782.25	224.32
782.57	224.30
782.89	224.27
783.22	224.25
783.54	224.20
783.86	224.20
784.19	224.17
784.51	224.18
784.83	224.15
785.16	224.13
785.48	224.11
785.80	224.09
786.12	224.08
786.45	224.07
786.77	224.06
787.09	224.04
787.42	223.98
787.74	223.96
788.06	223.95
788.38	223.93
788.71	223.91
789.03	223.89
789.35	223.89
789.67	223.86
789.99	223.85
790.32	223.82
790.64	223.81
790.96	223.89
791.28	223.84
791.61	223.82
791.93	223.81
792.25	223.79
792.57	223.85
792.89	223.82
793.21	223.81
793.54	223.79
793.86	223.76
794.18	223.76
794.50	223.72
794.82	223.71
795.14	223.71
795.47	223.72
795.79	223.71
796.11	223.67
796.43	223.66
796.75	223.65
797.07	223.64
797.39	223.63
797.71	223.53
798.04	223.53
798.36	223.52
798.68	223.51
799.00	223.51
799.32	223.44
799.64	223.45
799.96	223.44
800.28	223.45
800.60	223.44
800.92	223.43
801.24	223.41
801.56	223.41
801.89	223.39
802.21	223.38
802.53	223.36
802.85	223.37
803.17	223.41
803.49	223.38
803.81	223.37
804.13	223.35
804.45	223.33
804.77	223.32
805.09	223.31
805.41	223.29
805.73	223.27
806.05	223.23
806.37	223.21
806.69	223.19
807.01	223.17
807.33	223.17
807.65	223.13
807.97	223.17
808.28	223.15
808.60	223.14
808.92	223.12
809.24	223.17
809.56	223.15
809.88	223.09
810.20	223.10
810.52	223.11
810.84	223.09
811.16	223.08
811.48	223.07
811.80	223.10
812.12	223.09
812.43	223.10
812.75	223.10
813.07	223.09
813.39	223.09
813.71	223.07
814.03	223.05
814.35	223.05
814.67	223.00
814.98	222.99
815.30	222.98
815.62	222.96
815.94	222.89
816.26	222.89
816.58	222.87
816.89	222.87
817.21	222.84
817.53	222.84
817.85	222.84
818.17	222.83
818.48	222.78
818.80	222.80
819.12	222.78
819.44	222.75
819.76	222.73
820.07	222.73
820.39	222.72
820.71	222.73
821.03	222.72
821.34	222.72
821.66	222.72
821.98	222.73
822.30	222.72
822.61	222.78
822.93	222.76
823.25	222.76
823.57	222.74
823.88	222.75
824.20	222.74
824.52	222.75
824.83	222.75
825.15	222.73
825.47	222.72
825.79	222.73
826.10	222.72
826.42	222.72
826.74	222.73
827.05	222.72
827.37	222.72
827.69	222.71
828.00	222.70
828.32	222.70
828.64	222.69
828.95	222.74
829.27	222.71
829.58	222.70
829.90	222.72
830.22	222.72
830.53	222.70
830.85	222.69
831.17	222.66
831.48	222.66
831.80	222.66
832.11	222.64
832.43	222.62
832.75	222.62
833.06	222.68
833.38	222.64
833.69	222.63
834.01	222.64
834.32	222.63
834.64	222.62
834.96	222.61
835.27	222.61
835.59	222.57
835.90	222.55
836.22	222.54
836.53	222.52
836.85	222.50
837.16	222.60
837.48	222.60
837.79	222.63
838.11	222.63
838.42	222.63
838.74	222.64
839.05	222.63
839.37	222.63
839.68	222.56
840.00	222.56
840.31	222.57
840.63	222.56
840.94	222.55
841.26	222.54
841.57	222.53
841.88	222.54
842.20	222.52
842.51	222.51
842.83	222.51
843.14	222.60
843.46	222.60
843.77	222.54
844.08	222.53
844.40	222.50
844.71	222.49
845.03	222.48
845.34	222.47
845.65	222.47
845.97	222.47
846.28	222.47
846.60	222.47
846.91	222.45
847.22	222.44
847.54	222.47
847.85	222.47
848.16	222.46
848.48	222.44
848.79	222.48
849.10	222.49
849.42	222.50
849.73	222.40
850.04	222.40
850.36	222.36
850.67	222.37
850.98	222.38
851.30	222.38
851.61	222.38
851.92	222.38
852.23	222.41
852.55	222.41
852.86	222.41
853.17	222.42
853.49	222.45
853.80	222.47
854.11	222.47
854.42	222.48
854.74	222.47
855.05	222.48
855.36	222.42
855.67	222.41
855.99	222.41
856.30	222.54
856.61	222.53
856.92	222.53
857.23	222.54
857.55	222.52
857.86	222.51
858.17	222.53
858.48	222.51
858.79	222.48
859.11	222.49
859.42	222.48
859.73	222.47
860.04	222.46
860.35	222.43
860.66	222.40
860.98	222.39
861.29	222.40
861.60	222.39
861.91	222.42
862.22	222.41
862.53	222.40
862.84	222.27
863.16	222.29
863.47	222.28
863.78	222.26
864.09	222.27
864.40	222.27
864.71	222.27
865.02	222.29
865.33	222.28
865.64	222.26
865.95	222.26
866.27	222.32
866.58	222.31
866.89	222.33
867.20	222.33
867.51	222.31
867.82	222.31
868.13	222.34
868.44	222.32
868.75	222.34
869.06	222.34
869.37	222.35
869.68	222.33
869.99	222.34
870.30	222.35
870.61	222.35
870.92	222.34
871.23	222.33
871.54	222.34
871.85	222.36
872.16	222.37
872.47	222.36
872.78	222.30
873.09	222.31
873.40	222.30
873.71	222.31
874.02	222.31
874.33	222.30
874.64	222.27
874.95	222.29
875.26	222.26
875.56	222.26
875.87	222.25
876.18	222.25
876.49	222.35
876.80	222.34
877.11	222.32
877.42	222.33
877.73	222.33
878.04	222.31
878.35	222.31
878.66	222.30
878.96	222.30
879.27	222.30
879.58	222.30
879.89	222.29
880.20	222.32
880.51	222.31
880.82	222.32
881.12	222.32
881.43	222.30
881.74	222.29
882.05	222.28
882.36	222.29
882.67	222.29
882.97	222.18
883.28	222.18
883.59	222.18
883.90	222.19
884.21	222.20
884.51	222.19
884.82	222.18
885.13	222.18
885.44	222.17
885.74	222.17
886.05	222.16
886.36	222.16
886.67	222.12
886.98	222.17
887.28	222.18
887.59	222.18
887.90	222.18
888.20	222.18
888.51	222.21
888.82	222.19
889.13	222.19
889.43	222.28
889.74	222.27
890.05	222.27
890.35	222.26
890.66	222.24
890.97	222.23
891.28	222.22
891.58	222.22
891.89	222.23
892.20	222.21
892.50	222.20
892.81	222.20
893.12	222.20
893.42	222.14
893.73	222.14
894.04	222.13
894.34	222.14
894.65	222.14
894.95	222.13
895.26	222.14
895.57	222.18
895.87	222.07
896.18	222.09
896.48	222.10
896.79	222.09
897.10	222.11
897.40	222.12
897.71	222.13
898.01	222.11
898.32	222.13
898.63	222.13
898.93	222.14
899.24	222.14
899.54	222.13
899.85	222.13
900.15	222.12
900.46	222.12
900.76	222.13
901.07	222.13
901.38	222.12
901.68	222.13
901.99	222.08
902.29	222.08
902.60	222.07
902.90	222.06
903.21	222.06
903.51	222.05
903.82	222.07
904.12	222.07
904.43	222.08
904.73	222.07
905.03	222.07
905.34	222.17
905.64	222.17
905.95	222.17
906.25	222.17
906.56	222.16
906.86	222.16
907.17	222.15
907.47	222.16
907.77	222.15
908.08	222.13
908.38	222.13
908.69	222.14
908.99	222.16
909.30	222.17
909.60	222.17
909.90	222.17
910.21	222.14
910.51	222.13
910.81	222.13
911.12	222.13
911.42	222.13
911.73	222.03
912.03	222.03
912.33	222.06
912.64	222.05
912.94	222.04
913.24	222.02
913.55	222.02
913.85	222.01
914.15	222.03
914.46	222.04
914.76	222.03
915.06	222.02
915.37	222.00
915.67	221.99
915.97	221.99
916.27	221.97
916.58	221.98
916.88	221.97
917.18	221.96
917.49	222.03
917.79	222.03
918.09	222.04
918.39	222.07
918.70	222.06
919.00	222.07
919.30	222.11
919.60	222.10
919.91	222.09
920.21	222.10
920.51	222.07
920.81	222.07
921.12	222.09
921.42	222.08
921.72	222.09
922.02	222.10
922.32	222.11
922.63	222.11
922.93	222.17
923.23	222.17
923.53	222.16
923.83	222.09
924.13	222.10
924.44	222.10
924.74	222.11
925.04	222.13
925.34	222.12
925.64	222.08
925.94	222.09
926.24	222.15
926.55	222.14
926.85	222.16
927.15	222.16
927.45	222.15
927.75	222.15
928.05	222.15
928.35	222.15
928.65	222.16
928.95	222.17
929.26	222.12
929.56	222.14
929.86	222.15
930.16	222.14
930.46	222.13
930.76	222.14
931.06	222.09
931.36	222.06
931.66	222.08
931.96	222.09
932.26	222.09
932.56	222.05
932.86	222.05
933.16	222.05
933.46	222.05
933.76	222.03
934.06	222.04
934.36	222.08
934.66	222.07
934.96	222.06
935.26	222.06
935.56	222.07
935.86	222.05
936.16	222.03
936.46	222.02
936.76	222.02
937.06	222.00
937.36	222.02
937.66	222.02
937.96	222.01
938.26	221.99
938.56	221.99
938.86	221.99
939.16	222.01
939.46	222.01
939.76	222.02
940.06	222.03
940.35	222.01
940.65	221.96
940.95	221.97
941.25	221.94
941.55	221.93
941.85	221.92
942.15	221.94
942.45	221.97
942.75	221.97
943.04	221.97
943.34	221.99
943.64	221.98
943.94	221.96
944.24	221.96
944.54	221.97
944.84	221.97
945.13	221.95
945.43	221.93
945.73	221.93
946.03	221.91
946.33	221.90
946.62	221.89
946.92	221.89
947.22	221.90
947.52	221.90
947.82	221.92
948.11	221.91
948.41	221.89
948.71	221.85
949.01	221.86
949.31	221.85
949.60	221.84
949.90	221.86
950.20	221.86
950.50	221.86
950.79	221.85
951.09	221.86
951.39	221.86
951.69	221.85
951.98	221.87
952.28	221.87
952.58	221.87
952.87	221.87
953.17	221.88
953.47	221.87
953.76	221.87
954.06	221.85
954.36	221.84
954.66	221.83
954.95	221.87
955.25	221.87
955.55	221.88
955.84	221.86
956.14	221.87
956.44	221.88
956.73	221.86
957.03	221.87
957.32	221.86
957.62	221.86
957.92	221.88
958.21	221.87
958.51	221.99
958.81	222.00
959.10	222.01
959.40	222.03
959.69	222.04
959.99	222.06
960.29	222.06
960.58	222.06
960.88	222.09
961.17	222.08
961.47	222.09
961.76	222.07
962.06	222.09
962.36	222.08
962.65	222.08
962.95	222.09
963.24	222.08
963.54	222.08
963.83	222.09
964.13	222.08
964.42	222.07
964.72	221.98
965.01	221.97
965.31	221.96
965.60	221.94
965.90	222.00
966.19	221.97
966.49	221.98
966.78	221.98
967.08	221.97
967.37	221.97
967.67	221.95
967.96	221.97
968.26	221.96
968.55	221.97
968.85	221.96
969.14	221.96
969.43	221.96
969.73	221.95
970.02	221.94
970.32	221.94
970.61	221.92
970.91	221.89
971.20	221.88
971.49	221.87
971.79	221.88
972.08	221.80
972.38	221.82
972.67	221.81
972.96	221.82
973.26	221.80
973.55	221.83
973.85	221.83
974.14	221.81
974.43	221.82
974.73	221.80
975.02	221.79
975.31	221.79
975.61	221.79
975.90	221.78
976.19	221.78
976.49	221.78
976.78	221.79
977.07	221.79
977.37	221.80
977.66	221.81
977.95	221.80
978.24	221.82
978.54	221.84
978.83	221.83
979.12	221.83
979.42	221.83
979.71	221.81
980.00	221.81
980.29	221.82
980.59	221.80
980.88	221.83
981.17	221.83
981.46	221.83
981.76	221.83
982.05	221.86
982.34	221.87
982.63	221.87
982.93	221.87
983.22	221.90
983.51	221.91
983.80	221.92
984.09	221.94
984.39	221.92
984.68	221.91
984.97	221.91
985.26	221.90
985.55	221.91
985.85	221.89
986.14	221.91
986.43	221.92
986.72	221.91
987.01	221.88
987.30	221.88
987.59	221.87
987.89	221.88
988.18	221.85
988.47	221.84
988.76	221.83
989.05	221.82
989.34	221.81
989.63	221.83
989.92	221.81
990.22	221.80
990.51	221.80
990.80	221.79
991.09	221.80
991.38	221.81
991.67	221.80
991.96	221.78
992.25	221.79
992.54	221.77
992.83	221.77
993.12	221.76
993.41	221.78
993.70	221.82
993.99	221.84
994.28	221.85
994.58	221.87
994.87	221.86
995.16	221.86
995.45	221.85
995.74	221.81
996.03	221.83
996.32	221.84
996.61	221.86
996.90	221.86
997.19	221.85
997.48	221.85
997.77	221.84
998.06	221.85
998.34	221.84
998.63	221.84
998.92	221.85
999.21	221.87
999.50	221.86
999.79	221.83
1000.08	221.82
1000.37	221.82
1000.66	221.81
1000.95	221.83
1001.24	221.84
1001.53	221.85
1001.82	221.85
1002.11	221.83
1002.40	221.84
1002.68	221.85
1002.97	221.93
1003.26	221.92
1003.55	221.90
1003.84	221.91
1004.13	221.95
1004.42	221.94
1004.71	221.94
1004.99	221.94
1005.28	221.96
1005.57	221.95
1005.86	221.94
1006.15	221.94
1006.44	221.92
1006.72	221.94
1007.01	221.92
1007.30	221.92
1007.59	221.91
1007.88	221.91
1008.17	221.92
1008.45	221.89
1008.74	221.85
1009.03	221.80
1009.32	221.80
1009.60	221.81
1009.89	221.80
1010.18	221.75
1010.47	221.75
1010.76	221.75
1011.04	221.75
1011.33	221.75
1011.62	221.75
1011.91	221.76
1012.19	221.76
1012.48	221.76
1012.77	221.76
1013.05	221.80
1013.34	221.80
1013.63	221.79
1013.92	221.80
1014.20	221.79
1014.49	221.80
1014.78	221.81
1015.06	221.78
1015.35	221.78
1015.64	221.79
1015.92	221.81
1016.21	221.82
1016.50	221.82
1016.78	221.83
1017.07	221.83
1017.36	221.82
1017.64	221.80
1017.93	221.81
1018.22	221.80
1018.50	221.80
1018.79	221.80
1019.08	221.76
1019.36	221.76
1019.65	221.76
1019.93	221.78
1020.22	221.80
1020.51	221.85
1020.79	221.83
1021.08	221.64
1021.36	221.62
1021.65	221.81
1021.94	221.74
1022.22	221.86
1022.51	221.60
1022.79	222.28
1023.08	221.91
1023.36	223.01
1023.65	221.56
>>>>>End Processed Spectral Data<<<<<
