SpectraSuite Data File
++++++++++++++++++++++++++++++++++++
Date: Wed Sep 30 14:14:49 EDT 2015
User: lab3
Dark Spectrum Present: No
Reference Spectrum Present: No
Number of Sampled Component Spectra: 1
Spectrometers: USB2E7196
Integration Time (usec): 36000 (USB2E7196)
Spectra Averaged: 1500 (USB2E7196)
Boxcar Smoothing: 10 (USB2E7196)
Correct for Electrical Dark: No (USB2E7196)
Strobe/Lamp Enabled: No (USB2E7196)
Correct for Detector Non-linearity: No (USB2E7196)
Correct for Stray Light: No (USB2E7196)
Number of Pixels in Processed Spectrum: 2048
>>>>>Begin Processed Spectral Data<<<<<
339.09	0.00
339.48	211.14
339.86	212.52
340.24	214.01
340.63	215.28
341.01	218.25
341.39	217.99
341.78	219.40
342.16	220.49
342.54	221.01
342.93	209.58
343.31	220.17
343.69	220.70
344.07	221.16
344.46	221.58
344.84	221.97
345.22	222.20
345.60	222.46
345.99	222.65
346.37	222.79
346.75	222.90
347.13	222.97
347.52	223.05
347.90	223.13
348.28	223.16
348.66	223.22
349.05	223.23
349.43	223.29
349.81	223.33
350.19	223.39
350.57	223.45
350.96	223.53
351.34	223.62
351.72	223.71
352.10	223.82
352.48	223.89
352.87	223.94
353.25	224.01
353.63	224.08
354.01	224.14
354.39	224.21
354.77	224.29
355.15	224.39
355.54	224.44
355.92	224.47
356.30	224.55
356.68	224.69
357.06	224.76
357.44	224.81
357.82	224.87
358.20	224.98
358.58	225.05
358.97	225.11
359.35	225.19
359.73	225.26
360.11	225.31
360.49	225.37
360.87	225.43
361.25	225.48
361.63	225.55
362.01	225.61
362.39	225.64
362.77	225.68
363.15	225.70
363.53	225.73
363.91	225.76
364.29	225.78
364.67	225.70
365.05	225.73
365.43	225.75
365.81	225.77
366.19	225.79
366.57	225.82
366.95	225.84
367.33	225.81
367.71	225.82
368.09	225.83
368.47	225.82
368.85	225.81
369.23	225.82
369.61	225.76
369.99	225.76
370.37	225.75
370.75	225.81
371.13	225.77
371.51	225.74
371.89	225.73
372.27	225.71
372.65	225.69
373.03	225.65
373.41	225.61
373.78	225.56
374.16	225.47
374.54	225.39
374.92	225.33
375.30	225.29
375.68	225.21
376.06	225.17
376.44	225.12
376.82	225.07
377.19	225.03
377.57	224.98
377.95	224.91
378.33	224.85
378.71	224.71
379.09	224.66
379.47	224.63
379.84	224.55
380.22	224.48
380.60	224.41
380.98	224.35
381.36	224.29
381.73	224.22
382.11	224.20
382.49	224.15
382.87	224.09
383.25	224.04
383.62	224.12
384.00	224.05
384.38	224.00
384.76	224.00
385.13	223.98
385.51	223.93
385.89	223.87
386.27	223.84
386.64	223.81
387.02	223.76
387.40	223.71
387.78	223.69
388.15	223.66
388.53	223.63
388.91	223.61
389.29	223.59
389.66	223.59
390.04	223.55
390.42	223.55
390.79	223.53
391.17	223.51
391.55	223.38
391.92	223.37
392.30	223.37
392.68	223.32
393.05	223.30
393.43	223.30
393.81	223.31
394.18	223.29
394.56	223.29
394.94	223.31
395.31	223.30
395.69	223.34
396.06	223.37
396.44	223.40
396.82	223.41
397.19	223.48
397.57	223.49
397.95	223.52
398.32	223.51
398.70	223.55
399.07	223.62
399.45	223.65
399.82	223.69
400.20	223.73
400.58	223.78
400.95	223.79
401.33	223.86
401.70	224.00
402.08	224.08
402.45	224.16
402.83	224.26
403.20	224.37
403.58	224.44
403.95	224.56
404.33	224.69
404.71	224.81
405.08	224.99
405.46	225.12
405.83	225.28
406.21	225.45
406.58	225.63
406.96	225.81
407.33	226.02
407.70	226.25
408.08	226.57
408.45	226.86
408.83	227.16
409.20	227.44
409.58	227.69
409.95	228.04
410.33	228.42
410.70	228.76
411.08	229.17
411.45	229.60
411.82	230.04
412.20	230.54
412.57	231.14
412.95	231.61
413.32	232.24
413.69	232.87
414.07	233.54
414.44	234.27
414.82	235.02
415.19	235.90
415.56	236.79
415.94	237.71
416.31	238.74
416.68	239.78
417.06	240.98
417.43	242.10
417.81	243.40
418.18	244.72
418.55	246.17
418.93	247.68
419.30	249.24
419.67	250.91
420.04	252.64
420.42	254.43
420.79	256.50
421.16	258.58
421.54	260.71
421.91	262.93
422.28	265.24
422.66	267.74
423.03	270.12
423.40	272.61
423.77	275.29
424.15	278.06
424.52	280.92
424.89	284.01
425.26	287.09
425.64	289.93
426.01	293.16
426.38	296.45
426.75	299.85
427.13	303.34
427.50	307.00
427.87	310.80
428.24	314.64
428.61	318.31
428.99	322.28
429.36	326.62
429.73	330.77
430.10	334.92
430.47	339.16
430.85	343.54
431.22	348.17
431.59	352.94
431.96	357.59
432.33	362.76
432.70	367.68
433.08	373.47
433.45	378.94
433.82	384.32
434.19	390.33
434.56	396.24
434.93	401.94
435.30	407.56
435.68	413.87
436.05	420.05
436.42	426.24
436.79	431.88
437.16	438.00
437.53	444.52
437.90	451.04
438.27	457.40
438.64	464.25
439.01	470.50
439.38	476.20
439.75	481.68
440.13	487.88
440.50	493.77
440.87	498.43
441.24	503.53
441.61	509.14
441.98	513.23
442.35	518.14
442.72	523.17
443.09	527.94
443.46	530.96
443.83	533.24
444.20	535.11
444.57	537.85
444.94	539.42
445.31	541.06
445.68	542.49
446.05	543.52
446.42	543.31
446.79	543.00
447.16	542.71
447.53	542.48
447.90	540.59
448.27	538.83
448.64	536.07
449.01	534.27
449.37	530.36
449.74	526.81
450.11	522.21
450.48	517.18
450.85	512.12
451.22	507.85
451.59	503.59
451.96	499.75
452.33	494.15
452.70	489.19
453.07	483.14
453.43	477.08
453.80	471.19
454.17	465.51
454.54	460.23
454.91	454.31
455.28	448.73
455.65	443.47
456.02	437.88
456.38	433.39
456.75	427.56
457.12	422.90
457.49	418.18
457.86	413.69
458.23	409.74
458.59	405.39
458.96	400.91
459.33	397.01
459.70	393.04
460.07	390.04
460.43	386.47
460.80	383.13
461.17	380.20
461.54	377.06
461.91	374.10
462.27	371.08
462.64	368.62
463.01	365.80
463.38	362.96
463.74	360.38
464.11	358.08
464.48	356.01
464.85	353.78
465.21	352.04
465.58	350.14
465.95	347.95
466.32	346.21
466.68	344.51
467.05	342.78
467.42	341.09
467.78	339.28
468.15	337.61
468.52	336.38
468.88	334.74
469.25	333.26
469.62	332.08
469.98	330.82
470.35	329.69
470.72	328.66
471.08	327.62
471.45	326.77
471.82	325.80
472.18	324.79
472.55	324.15
472.92	323.36
473.28	322.74
473.65	322.09
474.02	321.50
474.38	320.98
474.75	320.71
475.11	320.32
475.48	320.16
475.85	320.01
476.21	319.96
476.58	319.99
476.94	320.18
477.31	320.30
477.67	320.45
478.04	320.70
478.41	321.03
478.77	321.50
479.14	321.81
479.50	322.37
479.87	323.07
480.23	323.76
480.60	324.46
480.96	325.16
481.33	326.13
481.69	327.09
482.06	328.05
482.42	328.97
482.79	330.07
483.15	331.34
483.52	332.76
483.88	334.14
484.25	335.61
484.61	337.15
484.98	338.79
485.34	340.61
485.71	342.51
486.07	344.55
486.44	346.57
486.80	348.82
487.17	351.12
487.53	353.63
487.90	356.22
488.26	359.02
488.62	361.99
488.99	365.00
489.35	368.13
489.72	371.53
490.08	375.06
490.44	378.70
490.81	382.49
491.17	386.40
491.54	390.54
491.90	394.75
492.26	399.26
492.63	404.03
492.99	409.03
493.36	414.17
493.72	419.60
494.08	425.18
494.45	431.07
494.81	437.17
495.17	443.35
495.54	449.95
495.90	456.87
496.26	463.92
496.63	471.15
496.99	478.68
497.35	486.53
497.72	494.65
498.08	502.98
498.44	511.56
498.80	520.65
499.17	530.04
499.53	539.76
499.89	549.71
500.26	559.85
500.62	570.17
500.98	581.15
501.34	592.26
501.71	603.87
502.07	615.69
502.43	627.93
502.79	640.62
503.16	653.65
503.52	666.79
503.88	680.40
504.24	694.39
504.60	708.59
504.97	723.21
505.33	738.19
505.69	753.89
506.05	769.86
506.41	786.00
506.78	802.40
507.14	819.35
507.50	836.64
507.86	854.26
508.22	872.19
508.59	890.19
508.95	908.76
509.31	927.79
509.67	947.61
510.03	967.57
510.39	987.63
510.75	1007.82
511.12	1028.41
511.48	1049.17
511.84	1070.27
512.20	1091.59
512.56	1113.72
512.92	1136.01
513.28	1158.26
513.64	1180.77
514.00	1203.65
514.37	1227.09
514.73	1250.47
515.09	1273.65
515.45	1297.10
515.81	1320.75
516.17	1344.55
516.53	1368.23
516.89	1391.71
517.25	1415.13
517.61	1438.74
517.97	1462.63
518.33	1486.60
518.69	1510.69
519.05	1535.11
519.41	1559.40
519.77	1584.08
520.13	1608.05
520.49	1632.06
520.85	1655.98
521.21	1679.95
521.57	1704.44
521.93	1728.07
522.29	1752.18
522.65	1776.15
523.01	1800.13
523.37	1823.51
523.73	1847.48
524.09	1871.19
524.45	1895.04
524.81	1918.76
525.17	1941.95
525.53	1964.87
525.89	1987.67
526.25	2010.47
526.61	2031.90
526.97	2053.67
527.33	2075.23
527.68	2096.69
528.04	2117.80
528.40	2138.88
528.76	2159.54
529.12	2179.50
529.48	2200.22
529.84	2218.79
530.20	2237.93
530.56	2256.44
530.91	2275.63
531.27	2294.21
531.63	2312.11
531.99	2329.50
532.35	2346.34
532.71	2364.08
533.07	2382.15
533.42	2398.46
533.78	2415.27
534.14	2432.53
534.50	2448.89
534.86	2465.73
535.21	2480.67
535.57	2495.44
535.93	2509.69
536.29	2523.39
536.65	2536.69
537.00	2548.64
537.36	2561.66
537.72	2573.38
538.08	2585.22
538.44	2595.75
538.79	2605.72
539.15	2614.76
539.51	2623.78
539.87	2631.81
540.22	2637.32
540.58	2642.95
540.94	2649.27
541.29	2654.44
541.65	2659.38
542.01	2664.10
542.37	2666.74
542.72	2670.78
543.08	2674.02
543.44	2676.92
543.79	2679.17
544.15	2680.99
544.51	2682.34
544.87	2683.63
545.22	2684.46
545.58	2684.06
545.94	2683.66
546.29	2682.15
546.65	2680.94
547.01	2679.52
547.36	2678.56
547.72	2678.07
548.07	2676.30
548.43	2673.08
548.79	2669.54
549.14	2666.00
549.50	2662.64
549.86	2659.17
550.21	2654.54
550.57	2650.20
550.92	2644.68
551.28	2639.10
551.64	2633.40
551.99	2627.95
552.35	2621.33
552.70	2614.88
553.06	2609.30
553.41	2603.35
553.77	2597.23
554.13	2591.12
554.48	2583.67
554.84	2575.26
555.19	2566.75
555.55	2557.58
555.90	2549.61
556.26	2541.85
556.61	2533.18
556.97	2523.17
557.32	2513.30
557.68	2503.60
558.03	2493.47
558.39	2484.27
558.74	2475.83
559.10	2466.01
559.45	2455.99
559.81	2446.49
560.16	2436.49
560.52	2426.08
560.87	2415.89
561.23	2405.18
561.58	2394.85
561.94	2384.55
562.29	2373.87
562.64	2363.66
563.00	2353.71
563.35	2343.60
563.71	2332.67
564.06	2322.05
564.42	2311.68
564.77	2301.24
565.12	2290.61
565.48	2279.71
565.83	2268.37
566.19	2256.64
566.54	2245.60
566.89	2233.78
567.25	2221.86
567.60	2210.96
567.96	2199.55
568.31	2187.15
568.66	2175.17
569.02	2163.39
569.37	2152.06
569.72	2141.52
570.08	2129.93
570.43	2117.99
570.78	2105.78
571.14	2093.60
571.49	2081.13
571.84	2068.92
572.20	2055.85
572.55	2042.84
572.90	2030.30
573.26	2018.23
573.61	2005.29
573.96	1992.64
574.31	1980.43
574.67	1968.21
575.02	1955.00
575.37	1941.74
575.72	1928.93
576.08	1916.20
576.43	1902.94
576.78	1889.63
577.13	1876.03
577.49	1862.86
577.84	1849.80
578.19	1836.88
578.54	1823.63
578.90	1810.07
579.25	1796.30
579.60	1783.73
579.95	1771.34
580.30	1758.75
580.66	1745.55
581.01	1732.44
581.36	1718.99
581.71	1706.01
582.06	1693.18
582.42	1680.66
582.77	1668.15
583.12	1655.93
583.47	1644.03
583.82	1631.68
584.17	1618.62
584.53	1605.90
584.88	1593.32
585.23	1580.69
585.58	1568.04
585.93	1555.82
586.28	1544.20
586.63	1532.51
586.98	1520.31
587.34	1508.21
587.69	1495.58
588.04	1483.42
588.39	1471.66
588.74	1459.71
589.09	1448.11
589.44	1435.82
589.79	1423.66
590.14	1411.71
590.49	1399.69
590.84	1387.73
591.19	1376.44
591.54	1365.15
591.89	1353.58
592.25	1342.57
592.60	1331.20
592.95	1320.18
593.30	1309.08
593.65	1298.09
594.00	1287.25
594.35	1276.89
594.70	1265.75
595.05	1255.49
595.40	1244.92
595.75	1234.24
596.10	1224.19
596.45	1213.73
596.80	1203.97
597.15	1194.38
597.50	1184.69
597.85	1175.39
598.19	1166.03
598.54	1156.34
598.89	1147.31
599.24	1138.55
599.59	1129.72
599.94	1121.45
600.29	1112.93
600.64	1104.43
600.99	1095.29
601.34	1086.66
601.69	1077.82
602.04	1069.90
602.39	1061.56
602.74	1053.71
603.08	1046.11
603.43	1038.25
603.78	1030.36
604.13	1022.51
604.48	1014.49
604.83	1006.73
605.18	998.83
605.53	990.84
605.87	982.91
606.22	975.23
606.57	967.31
606.92	959.24
607.27	951.38
607.62	943.74
607.96	936.20
608.31	929.68
608.66	922.91
609.01	916.14
609.36	909.30
609.70	902.51
610.05	895.54
610.40	888.69
610.75	881.70
611.10	875.15
611.44	868.38
611.79	861.92
612.14	855.32
612.49	848.55
612.83	842.29
613.18	836.19
613.53	830.12
613.88	824.20
614.22	818.48
614.57	812.57
614.92	806.76
615.27	801.03
615.61	794.84
615.96	788.70
616.31	782.81
616.65	776.72
617.00	770.73
617.35	764.81
617.70	758.99
618.04	753.36
618.39	747.54
618.74	742.05
619.08	736.42
619.43	730.93
619.78	725.60
620.12	720.04
620.47	714.68
620.82	709.30
621.16	704.05
621.51	698.68
621.85	693.38
622.20	687.96
622.55	682.59
622.89	677.36
623.24	672.30
623.59	667.30
623.93	662.56
624.28	657.99
624.62	653.43
624.97	648.77
625.32	644.18
625.66	639.42
626.01	634.62
626.35	629.99
626.70	625.32
627.04	620.93
627.39	616.56
627.73	612.18
628.08	607.87
628.43	603.57
628.77	599.35
629.12	595.17
629.46	591.16
629.81	587.08
630.15	583.02
630.50	579.03
630.84	575.08
631.19	571.22
631.53	567.44
631.88	563.64
632.22	559.78
632.57	556.15
632.91	552.59
633.26	549.04
633.60	545.48
633.95	542.05
634.29	538.50
634.64	535.00
634.98	531.42
635.32	527.98
635.67	524.71
636.01	521.47
636.36	518.21
636.70	515.09
637.05	512.00
637.39	508.94
637.73	505.71
638.08	502.56
638.42	499.47
638.77	496.26
639.11	492.95
639.45	489.83
639.80	486.65
640.14	483.61
640.49	480.61
640.83	477.56
641.17	474.59
641.52	471.62
641.86	468.59
642.20	465.73
642.55	462.73
642.89	459.80
643.23	456.97
643.58	454.35
643.92	451.61
644.26	448.91
644.61	446.27
644.95	443.66
645.29	440.97
645.64	438.22
645.98	435.57
646.32	433.06
646.66	430.53
647.01	428.09
647.35	425.78
647.69	423.33
648.04	420.98
648.38	418.59
648.72	416.25
649.06	413.98
649.41	411.72
649.75	409.52
650.09	407.24
650.43	405.00
650.78	402.74
651.12	400.50
651.46	398.32
651.80	396.21
652.14	394.17
652.49	392.18
652.83	390.21
653.17	388.30
653.51	386.46
653.85	384.64
654.20	382.72
654.54	380.72
654.88	378.83
655.22	376.97
655.56	375.16
655.90	373.41
656.25	371.68
656.59	369.95
656.93	368.30
657.27	366.74
657.61	365.08
657.95	363.47
658.29	361.90
658.64	360.36
658.98	358.72
659.32	357.07
659.66	355.53
660.00	354.02
660.34	352.49
660.68	350.97
661.02	349.40
661.36	347.90
661.70	346.45
662.05	345.05
662.39	343.66
662.73	342.33
663.07	341.03
663.41	339.76
663.75	338.47
664.09	337.22
664.43	335.88
664.77	334.60
665.11	333.23
665.45	331.96
665.79	330.68
666.13	329.48
666.47	328.32
666.81	327.11
667.15	325.85
667.49	324.68
667.83	323.51
668.17	322.40
668.51	321.32
668.85	320.25
669.19	319.20
669.53	318.07
669.87	316.89
670.21	315.77
670.55	314.68
670.89	313.68
671.23	312.61
671.57	311.59
671.91	310.63
672.25	309.76
672.58	308.86
672.92	307.94
673.26	307.06
673.60	306.16
673.94	305.26
674.28	304.42
674.62	303.56
674.96	302.66
675.30	301.83
675.64	300.98
675.97	300.14
676.31	299.27
676.65	298.47
676.99	297.76
677.33	296.94
677.67	296.16
678.01	295.30
678.34	294.52
678.68	293.76
679.02	292.98
679.36	292.20
679.70	291.39
680.04	290.63
680.37	289.85
680.71	289.13
681.05	288.44
681.39	287.73
681.73	287.01
682.06	286.32
682.40	285.62
682.74	284.94
683.08	284.29
683.42	283.62
683.75	282.98
684.09	282.27
684.43	281.64
684.77	280.99
685.10	280.38
685.44	279.75
685.78	279.13
686.12	278.53
686.45	277.94
686.79	277.32
687.13	276.74
687.46	276.11
687.80	275.52
688.14	274.90
688.48	274.33
688.81	273.74
689.15	273.20
689.49	272.62
689.82	272.04
690.16	271.41
690.50	270.83
690.83	270.27
691.17	269.70
691.51	269.16
691.84	268.63
692.18	268.07
692.52	267.52
692.85	266.99
693.19	266.49
693.52	265.96
693.86	265.44
694.20	264.94
694.53	264.45
694.87	263.94
695.21	263.44
695.54	262.94
695.88	262.43
696.21	261.91
696.55	261.45
696.88	260.98
697.22	260.52
697.56	260.09
697.89	259.64
698.23	259.22
698.56	258.77
698.90	258.37
699.23	257.95
699.57	257.56
699.90	257.14
700.24	256.70
700.58	256.30
700.91	255.93
701.25	255.62
701.58	255.27
701.92	254.91
702.25	254.54
702.59	254.15
702.92	253.79
703.26	253.42
703.59	253.05
703.93	252.77
704.26	252.44
704.60	252.07
704.93	251.70
705.26	251.32
705.60	251.01
705.93	250.63
706.27	250.34
706.60	250.03
706.94	249.74
707.27	249.40
707.61	249.07
707.94	248.74
708.27	248.33
708.61	247.97
708.94	247.65
709.28	247.35
709.61	247.06
709.94	246.79
710.28	246.51
710.61	246.25
710.95	245.90
711.28	245.69
711.61	245.43
711.95	245.20
712.28	244.93
712.61	244.65
712.95	244.44
713.28	244.21
713.61	243.93
713.95	243.64
714.28	243.40
714.61	243.15
714.95	242.90
715.28	242.66
715.61	242.42
715.95	242.21
716.28	241.98
716.61	241.78
716.95	241.54
717.28	241.33
717.61	241.11
717.94	240.89
718.28	240.61
718.61	240.41
718.94	240.19
719.27	240.00
719.61	239.83
719.94	239.60
720.27	239.35
720.60	239.17
720.94	238.99
721.27	238.81
721.60	238.65
721.93	238.48
722.27	238.34
722.60	238.19
722.93	237.99
723.26	237.83
723.59	237.63
723.93	237.48
724.26	237.31
724.59	237.14
724.92	236.98
725.25	236.85
725.59	236.69
725.92	236.55
726.25	236.40
726.58	236.26
726.91	236.11
727.24	235.98
727.57	235.83
727.91	235.67
728.24	235.54
728.57	235.39
728.90	235.26
729.23	235.09
729.56	235.01
729.89	234.87
730.22	234.74
730.55	234.62
730.89	234.49
731.22	234.36
731.55	234.25
731.88	234.13
732.21	233.99
732.54	233.87
732.87	233.75
733.20	233.64
733.53	233.53
733.86	233.44
734.19	233.30
734.52	233.22
734.85	233.19
735.18	233.07
735.51	233.00
735.84	232.90
736.17	232.83
736.50	232.67
736.83	232.69
737.16	232.59
737.49	232.50
737.82	232.40
738.15	232.31
738.48	232.22
738.81	232.12
739.14	232.02
739.47	231.93
739.80	231.83
740.13	231.74
740.46	231.62
740.79	231.51
741.12	231.41
741.45	231.30
741.78	231.15
742.11	231.09
742.44	230.98
742.77	230.91
743.10	230.81
743.43	230.73
743.75	230.54
744.08	230.61
744.41	230.52
744.74	230.44
745.07	230.35
745.40	230.28
745.73	230.25
746.06	230.18
746.39	230.12
746.71	230.04
747.04	229.95
747.37	229.89
747.70	229.85
748.03	229.79
748.36	229.74
748.68	229.67
749.01	229.57
749.34	229.51
749.67	229.44
750.00	229.38
750.33	229.39
750.65	229.34
750.98	229.13
751.31	229.07
751.64	229.03
751.97	229.02
752.29	228.95
752.62	228.84
752.95	228.78
753.28	228.70
753.60	228.64
753.93	228.62
754.26	228.57
754.59	228.47
754.91	228.41
755.24	228.34
755.57	228.33
755.90	228.27
756.22	228.20
756.55	228.12
756.88	228.04
757.20	227.92
757.53	227.82
757.86	227.77
758.19	227.72
758.51	227.66
758.84	227.56
759.17	227.49
759.49	227.45
759.82	227.45
760.15	227.42
760.47	227.37
760.80	227.29
761.13	227.25
761.45	227.20
761.78	227.15
762.11	227.11
762.43	227.01
762.76	226.97
763.08	226.95
763.41	226.92
763.74	226.88
764.06	226.84
764.39	226.82
764.71	226.77
765.04	226.72
765.37	226.67
765.69	226.63
766.02	226.59
766.34	226.55
766.67	226.47
767.00	226.44
767.32	226.46
767.65	226.49
767.97	226.45
768.30	226.43
768.62	226.40
768.95	226.35
769.27	226.30
769.60	226.28
769.92	226.23
770.25	226.19
770.57	226.14
770.90	226.11
771.22	226.07
771.55	226.03
771.87	226.00
772.20	225.97
772.52	226.04
772.85	226.13
773.17	226.10
773.50	226.06
773.82	226.02
774.15	225.94
774.47	225.84
774.80	225.80
775.12	225.77
775.45	225.74
775.77	225.72
776.09	225.71
776.42	225.68
776.74	225.69
777.07	225.65
777.39	225.63
777.72	225.60
778.04	225.59
778.36	225.56
778.69	225.54
779.01	225.52
779.33	225.41
779.66	225.27
779.98	225.23
780.31	225.22
780.63	225.23
780.95	225.24
781.28	225.21
781.60	225.18
781.92	225.16
782.25	225.14
782.57	225.12
782.89	225.08
783.22	225.06
783.54	225.00
783.86	225.00
784.19	224.98
784.51	224.98
784.83	224.95
785.16	224.92
785.48	224.90
785.80	224.88
786.12	224.87
786.45	224.85
786.77	224.84
787.09	224.81
787.42	224.76
787.74	224.75
788.06	224.73
788.38	224.72
788.71	224.70
789.03	224.68
789.35	224.67
789.67	224.66
789.99	224.65
790.32	224.63
790.64	224.62
790.96	224.70
791.28	224.66
791.61	224.64
791.93	224.64
792.25	224.61
792.57	224.67
792.89	224.64
793.21	224.64
793.54	224.61
793.86	224.59
794.18	224.59
794.50	224.56
794.82	224.55
795.14	224.55
795.47	224.55
795.79	224.54
796.11	224.51
796.43	224.48
796.75	224.48
797.07	224.47
797.39	224.46
797.71	224.35
798.04	224.34
798.36	224.34
798.68	224.32
799.00	224.32
799.32	224.26
799.64	224.26
799.96	224.25
800.28	224.27
800.60	224.25
800.92	224.25
801.24	224.23
801.56	224.23
801.89	224.22
802.21	224.21
802.53	224.19
802.85	224.20
803.17	224.24
803.49	224.21
803.81	224.19
804.13	224.18
804.45	224.16
804.77	224.16
805.09	224.15
805.41	224.13
805.73	224.10
806.05	224.06
806.37	224.05
806.69	224.03
807.01	224.00
807.33	224.00
807.65	223.95
807.97	224.00
808.28	223.98
808.60	223.97
808.92	223.95
809.24	224.00
809.56	223.97
809.88	223.92
810.20	223.93
810.52	223.93
810.84	223.90
811.16	223.89
811.48	223.88
811.80	223.91
812.12	223.90
812.43	223.92
812.75	223.92
813.07	223.91
813.39	223.91
813.71	223.90
814.03	223.88
814.35	223.88
814.67	223.82
814.98	223.80
815.30	223.80
815.62	223.78
815.94	223.70
816.26	223.71
816.58	223.69
816.89	223.68
817.21	223.66
817.53	223.65
817.85	223.66
818.17	223.65
818.48	223.60
818.80	223.62
819.12	223.59
819.44	223.57
819.76	223.55
820.07	223.54
820.39	223.52
820.71	223.52
821.03	223.52
821.34	223.51
821.66	223.52
821.98	223.52
822.30	223.52
822.61	223.57
822.93	223.56
823.25	223.55
823.57	223.55
823.88	223.56
824.20	223.56
824.52	223.57
824.83	223.56
825.15	223.54
825.47	223.53
825.79	223.55
826.10	223.55
826.42	223.55
826.74	223.55
827.05	223.55
827.37	223.55
827.69	223.53
828.00	223.53
828.32	223.53
828.64	223.52
828.95	223.57
829.27	223.54
829.58	223.53
829.90	223.55
830.22	223.56
830.53	223.53
830.85	223.52
831.17	223.49
831.48	223.50
831.80	223.50
832.11	223.48
832.43	223.46
832.75	223.45
833.06	223.51
833.38	223.48
833.69	223.47
834.01	223.48
834.32	223.48
834.64	223.47
834.96	223.47
835.27	223.47
835.59	223.43
835.90	223.43
836.22	223.42
836.53	223.39
836.85	223.38
837.16	223.49
837.48	223.49
837.79	223.53
838.11	223.53
838.42	223.53
838.74	223.54
839.05	223.53
839.37	223.52
839.68	223.46
840.00	223.46
840.31	223.47
840.63	223.46
840.94	223.45
841.26	223.44
841.57	223.42
841.88	223.44
842.20	223.42
842.51	223.40
842.83	223.40
843.14	223.50
843.46	223.49
843.77	223.42
844.08	223.41
844.40	223.37
844.71	223.36
845.03	223.36
845.34	223.34
845.65	223.34
845.97	223.34
846.28	223.34
846.60	223.35
846.91	223.33
847.22	223.33
847.54	223.36
847.85	223.37
848.16	223.36
848.48	223.33
848.79	223.36
849.10	223.38
849.42	223.38
849.73	223.28
850.04	223.28
850.36	223.25
850.67	223.26
850.98	223.27
851.30	223.27
851.61	223.26
851.92	223.27
852.23	223.30
852.55	223.32
852.86	223.32
853.17	223.32
853.49	223.34
853.80	223.36
854.11	223.36
854.42	223.37
854.74	223.36
855.05	223.37
855.36	223.31
855.67	223.31
855.99	223.31
856.30	223.43
856.61	223.43
856.92	223.43
857.23	223.45
857.55	223.44
857.86	223.43
858.17	223.45
858.48	223.44
858.79	223.41
859.11	223.42
859.42	223.41
859.73	223.40
860.04	223.39
860.35	223.36
860.66	223.33
860.98	223.33
861.29	223.34
861.60	223.33
861.91	223.36
862.22	223.35
862.53	223.32
862.84	223.20
863.16	223.22
863.47	223.20
863.78	223.17
864.09	223.18
864.40	223.19
864.71	223.18
865.02	223.19
865.33	223.18
865.64	223.17
865.95	223.16
866.27	223.23
866.58	223.22
866.89	223.22
867.20	223.22
867.51	223.20
867.82	223.19
868.13	223.23
868.44	223.20
868.75	223.22
869.06	223.23
869.37	223.24
869.68	223.22
869.99	223.23
870.30	223.24
870.61	223.24
870.92	223.22
871.23	223.22
871.54	223.23
871.85	223.26
872.16	223.27
872.47	223.27
872.78	223.21
873.09	223.22
873.40	223.21
873.71	223.22
874.02	223.22
874.33	223.22
874.64	223.19
874.95	223.21
875.26	223.19
875.56	223.18
875.87	223.17
876.18	223.15
876.49	223.25
876.80	223.23
877.11	223.22
877.42	223.22
877.73	223.21
878.04	223.20
878.35	223.19
878.66	223.19
878.96	223.18
879.27	223.16
879.58	223.16
879.89	223.15
880.20	223.17
880.51	223.18
880.82	223.18
881.12	223.18
881.43	223.16
881.74	223.14
882.05	223.14
882.36	223.15
882.67	223.17
882.97	223.05
883.28	223.05
883.59	223.05
883.90	223.07
884.21	223.08
884.51	223.06
884.82	223.06
885.13	223.05
885.44	223.04
885.74	223.05
886.05	223.04
886.36	223.05
886.67	223.01
886.98	223.06
887.28	223.07
887.59	223.07
887.90	223.07
888.20	223.08
888.51	223.09
888.82	223.07
889.13	223.08
889.43	223.17
889.74	223.15
890.05	223.15
890.35	223.13
890.66	223.11
890.97	223.11
891.28	223.10
891.58	223.10
891.89	223.10
892.20	223.09
892.50	223.08
892.81	223.06
893.12	223.07
893.42	223.01
893.73	223.00
894.04	223.00
894.34	223.00
894.65	223.00
894.95	222.98
895.26	222.99
895.57	223.02
895.87	222.91
896.18	222.93
896.48	222.93
896.79	222.93
897.10	222.95
897.40	222.96
897.71	222.96
898.01	222.96
898.32	222.97
898.63	222.96
898.93	222.97
899.24	222.98
899.54	222.97
899.85	222.96
900.15	222.96
900.46	222.96
900.76	222.95
901.07	222.96
901.38	222.95
901.68	222.97
901.99	222.93
902.29	222.95
902.60	222.94
902.90	222.92
903.21	222.91
903.51	222.91
903.82	222.92
904.12	222.92
904.43	222.92
904.73	222.91
905.03	222.91
905.34	223.01
905.64	223.00
905.95	223.00
906.25	223.00
906.56	223.00
906.86	222.99
907.17	222.98
907.47	222.99
907.77	222.98
908.08	222.95
908.38	222.94
908.69	222.94
908.99	222.96
909.30	222.97
909.60	222.97
909.90	222.97
910.21	222.94
910.51	222.92
910.81	222.93
911.12	222.94
911.42	222.95
911.73	222.83
912.03	222.84
912.33	222.87
912.64	222.87
912.94	222.86
913.24	222.86
913.55	222.85
913.85	222.85
914.15	222.86
914.46	222.88
914.76	222.86
915.06	222.86
915.37	222.84
915.67	222.84
915.97	222.84
916.27	222.82
916.58	222.82
916.88	222.82
917.18	222.81
917.49	222.87
917.79	222.87
918.09	222.89
918.39	222.91
918.70	222.90
919.00	222.90
919.30	222.94
919.60	222.94
919.91	222.92
920.21	222.92
920.51	222.89
920.81	222.88
921.12	222.89
921.42	222.90
921.72	222.91
922.02	222.91
922.32	222.92
922.63	222.92
922.93	222.98
923.23	222.99
923.53	222.98
923.83	222.92
924.13	222.92
924.44	222.92
924.74	222.93
925.04	222.95
925.34	222.94
925.64	222.90
925.94	222.90
926.24	222.96
926.55	222.95
926.85	222.98
927.15	222.97
927.45	222.98
927.75	222.96
928.05	222.96
928.35	222.96
928.65	222.97
928.95	222.97
929.26	222.93
929.56	222.94
929.86	222.95
930.16	222.92
930.46	222.92
930.76	222.92
931.06	222.86
931.36	222.83
931.66	222.85
931.96	222.87
932.26	222.87
932.56	222.84
932.86	222.84
933.16	222.84
933.46	222.83
933.76	222.81
934.06	222.84
934.36	222.88
934.66	222.87
934.96	222.86
935.26	222.87
935.56	222.88
935.86	222.85
936.16	222.83
936.46	222.83
936.76	222.83
937.06	222.81
937.36	222.83
937.66	222.84
937.96	222.83
938.26	222.80
938.56	222.79
938.86	222.80
939.16	222.82
939.46	222.82
939.76	222.83
940.06	222.84
940.35	222.82
940.65	222.76
940.95	222.77
941.25	222.74
941.55	222.73
941.85	222.73
942.15	222.75
942.45	222.78
942.75	222.78
943.04	222.78
943.34	222.82
943.64	222.80
943.94	222.79
944.24	222.78
944.54	222.80
944.84	222.80
945.13	222.78
945.43	222.76
945.73	222.76
946.03	222.76
946.33	222.74
946.62	222.73
946.92	222.73
947.22	222.72
947.52	222.74
947.82	222.75
948.11	222.74
948.41	222.72
948.71	222.70
949.01	222.71
949.31	222.70
949.60	222.69
949.90	222.71
950.20	222.71
950.50	222.71
950.79	222.70
951.09	222.71
951.39	222.71
951.69	222.69
951.98	222.72
952.28	222.72
952.58	222.72
952.87	222.72
953.17	222.74
953.47	222.74
953.76	222.73
954.06	222.71
954.36	222.71
954.66	222.71
954.95	222.73
955.25	222.73
955.55	222.74
955.84	222.72
956.14	222.73
956.44	222.73
956.73	222.72
957.03	222.74
957.32	222.74
957.62	222.74
957.92	222.76
958.21	222.75
958.51	222.87
958.81	222.88
959.10	222.89
959.40	222.91
959.69	222.91
959.99	222.93
960.29	222.93
960.58	222.92
960.88	222.95
961.17	222.94
961.47	222.95
961.76	222.94
962.06	222.95
962.36	222.94
962.65	222.95
962.95	222.96
963.24	222.94
963.54	222.94
963.83	222.95
964.13	222.94
964.42	222.94
964.72	222.85
965.01	222.85
965.31	222.86
965.60	222.82
965.90	222.88
966.19	222.86
966.49	222.87
966.78	222.87
967.08	222.86
967.37	222.86
967.67	222.84
967.96	222.85
968.26	222.86
968.55	222.87
968.85	222.86
969.14	222.86
969.43	222.86
969.73	222.85
970.02	222.83
970.32	222.82
970.61	222.81
970.91	222.78
971.20	222.76
971.49	222.76
971.79	222.77
972.08	222.70
972.38	222.72
972.67	222.71
972.96	222.73
973.26	222.71
973.55	222.74
973.85	222.74
974.14	222.74
974.43	222.74
974.73	222.72
975.02	222.71
975.31	222.71
975.61	222.70
975.90	222.70
976.19	222.70
976.49	222.71
976.78	222.72
977.07	222.71
977.37	222.72
977.66	222.73
977.95	222.72
978.24	222.73
978.54	222.75
978.83	222.74
979.12	222.73
979.42	222.73
979.71	222.71
980.00	222.71
980.29	222.70
980.59	222.69
980.88	222.72
981.17	222.71
981.46	222.71
981.76	222.71
982.05	222.74
982.34	222.76
982.63	222.75
982.93	222.76
983.22	222.78
983.51	222.78
983.80	222.79
984.09	222.80
984.39	222.79
984.68	222.77
984.97	222.79
985.26	222.78
985.55	222.80
985.85	222.78
986.14	222.79
986.43	222.81
986.72	222.80
987.01	222.77
987.30	222.78
987.59	222.77
987.89	222.77
988.18	222.74
988.47	222.72
988.76	222.70
989.05	222.69
989.34	222.67
989.63	222.69
989.92	222.67
990.22	222.66
990.51	222.66
990.80	222.65
991.09	222.65
991.38	222.67
991.67	222.66
991.96	222.65
992.25	222.65
992.54	222.62
992.83	222.63
993.12	222.63
993.41	222.64
993.70	222.69
993.99	222.70
994.28	222.73
994.58	222.75
994.87	222.74
995.16	222.75
995.45	222.75
995.74	222.72
996.03	222.74
996.32	222.75
996.61	222.77
996.90	222.78
997.19	222.77
997.48	222.77
997.77	222.76
998.06	222.77
998.34	222.76
998.63	222.76
998.92	222.76
999.21	222.78
999.50	222.77
999.79	222.74
1000.08	222.74
1000.37	222.73
1000.66	222.72
1000.95	222.75
1001.24	222.76
1001.53	222.77
1001.82	222.77
1002.11	222.74
1002.40	222.75
1002.68	222.76
1002.97	222.83
1003.26	222.82
1003.55	222.80
1003.84	222.82
1004.13	222.85
1004.42	222.85
1004.71	222.85
1004.99	222.85
1005.28	222.87
1005.57	222.87
1005.86	222.86
1006.15	222.84
1006.44	222.82
1006.72	222.83
1007.01	222.81
1007.30	222.80
1007.59	222.79
1007.88	222.79
1008.17	222.80
1008.45	222.78
1008.74	222.73
1009.03	222.69
1009.32	222.69
1009.60	222.68
1009.89	222.66
1010.18	222.61
1010.47	222.61
1010.76	222.60
1011.04	222.59
1011.33	222.59
1011.62	222.59
1011.91	222.60
1012.19	222.61
1012.48	222.61
1012.77	222.59
1013.05	222.62
1013.34	222.63
1013.63	222.62
1013.92	222.63
1014.20	222.62
1014.49	222.63
1014.78	222.64
1015.06	222.60
1015.35	222.61
1015.64	222.63
1015.92	222.64
1016.21	222.65
1016.50	222.65
1016.78	222.66
1017.07	222.68
1017.36	222.66
1017.64	222.64
1017.93	222.66
1018.22	222.64
1018.50	222.65
1018.79	222.65
1019.08	222.62
1019.36	222.62
1019.65	222.61
1019.93	222.64
1020.22	222.66
1020.51	222.71
1020.79	222.70
1021.08	222.50
1021.36	222.54
1021.65	222.61
1021.94	222.48
1022.22	222.84
1022.51	222.37
1022.79	223.11
1023.08	222.85
1023.36	223.99
1023.65	222.42
>>>>>End Processed Spectral Data<<<<<
