SpectraSuite Data File
++++++++++++++++++++++++++++++++++++
Date: Thu Oct 01 05:05:00 EDT 2015
User: lab3
Dark Spectrum Present: No
Reference Spectrum Present: No
Number of Sampled Component Spectra: 1
Spectrometers: USB2E7196
Integration Time (usec): 36000 (USB2E7196)
Spectra Averaged: 10000 (USB2E7196)
Boxcar Smoothing: 10 (USB2E7196)
Correct for Electrical Dark: No (USB2E7196)
Strobe/Lamp Enabled: No (USB2E7196)
Correct for Detector Non-linearity: No (USB2E7196)
Correct for Stray Light: No (USB2E7196)
Number of Pixels in Processed Spectrum: 2048
>>>>>Begin Processed Spectral Data<<<<<
339.09	0.00
339.48	209.89
339.86	211.44
340.24	212.67
340.63	214.17
341.01	217.14
341.39	216.88
341.78	218.27
342.16	219.37
342.54	219.84
342.93	208.50
343.31	219.04
343.69	219.57
344.07	220.03
344.46	220.46
344.84	220.85
345.22	221.08
345.60	221.34
345.99	221.53
346.37	221.66
346.75	221.77
347.13	221.85
347.52	221.92
347.90	222.00
348.28	222.03
348.66	222.09
349.05	222.09
349.43	222.14
349.81	222.20
350.19	222.26
350.57	222.32
350.96	222.40
351.34	222.49
351.72	222.59
352.10	222.69
352.48	222.77
352.87	222.82
353.25	222.89
353.63	222.95
354.01	223.01
354.39	223.09
354.77	223.16
355.15	223.27
355.54	223.32
355.92	223.36
356.30	223.43
356.68	223.57
357.06	223.64
357.44	223.69
357.82	223.75
358.20	223.86
358.58	223.92
358.97	223.99
359.35	224.07
359.73	224.15
360.11	224.20
360.49	224.26
360.87	224.32
361.25	224.38
361.63	224.46
362.01	224.51
362.39	224.54
362.77	224.59
363.15	224.61
363.53	224.64
363.91	224.67
364.29	224.70
364.67	224.62
365.05	224.64
365.43	224.68
365.81	224.71
366.19	224.72
366.57	224.77
366.95	224.77
367.33	224.75
367.71	224.74
368.09	224.76
368.47	224.75
368.85	224.74
369.23	224.75
369.61	224.70
369.99	224.71
370.37	224.71
370.75	224.76
371.13	224.73
371.51	224.69
371.89	224.67
372.27	224.64
372.65	224.62
373.03	224.58
373.41	224.54
373.78	224.48
374.16	224.39
374.54	224.31
374.92	224.26
375.30	224.22
375.68	224.15
376.06	224.11
376.44	224.05
376.82	224.00
377.19	223.95
377.57	223.90
377.95	223.81
378.33	223.75
378.71	223.61
379.09	223.56
379.47	223.52
379.84	223.47
380.22	223.40
380.60	223.33
380.98	223.28
381.36	223.22
381.73	223.16
382.11	223.14
382.49	223.09
382.87	223.03
383.25	222.99
383.62	223.06
384.00	223.00
384.38	222.96
384.76	222.94
385.13	222.92
385.51	222.88
385.89	222.83
386.27	222.80
386.64	222.78
387.02	222.73
387.40	222.69
387.78	222.66
388.15	222.63
388.53	222.60
388.91	222.57
389.29	222.54
389.66	222.53
390.04	222.49
390.42	222.48
390.79	222.47
391.17	222.45
391.55	222.31
391.92	222.30
392.30	222.30
392.68	222.26
393.05	222.24
393.43	222.24
393.81	222.24
394.18	222.22
394.56	222.22
394.94	222.25
395.31	222.25
395.69	222.29
396.06	222.31
396.44	222.34
396.82	222.35
397.19	222.42
397.57	222.43
397.95	222.47
398.32	222.47
398.70	222.51
399.07	222.56
399.45	222.60
399.82	222.64
400.20	222.67
400.58	222.73
400.95	222.74
401.33	222.82
401.70	222.96
402.08	223.05
402.45	223.12
402.83	223.22
403.20	223.32
403.58	223.41
403.95	223.53
404.33	223.67
404.71	223.79
405.08	223.98
405.46	224.12
405.83	224.28
406.21	224.45
406.58	224.65
406.96	224.84
407.33	225.06
407.70	225.30
408.08	225.63
408.45	225.92
408.83	226.22
409.20	226.51
409.58	226.76
409.95	227.11
410.33	227.49
410.70	227.84
411.08	228.26
411.45	228.71
411.82	229.16
412.20	229.66
412.57	230.27
412.95	230.75
413.32	231.37
413.69	232.01
414.07	232.69
414.44	233.43
414.82	234.19
415.19	235.08
415.56	235.98
415.94	236.91
416.31	237.96
416.68	239.01
417.06	240.23
417.43	241.37
417.81	242.70
418.18	244.04
418.55	245.51
418.93	247.04
419.30	248.63
419.67	250.33
420.04	252.07
420.42	253.90
420.79	256.01
421.16	258.13
421.54	260.30
421.91	262.56
422.28	264.90
422.66	267.44
423.03	269.84
423.40	272.39
423.77	275.10
424.15	277.88
424.52	280.77
424.89	283.90
425.26	287.01
425.64	289.89
426.01	293.14
426.38	296.45
426.75	299.87
427.13	303.37
427.50	307.03
427.87	310.82
428.24	314.65
428.61	318.31
428.99	322.26
429.36	326.59
429.73	330.73
430.10	334.85
430.47	339.07
430.85	343.40
431.22	348.01
431.59	352.74
431.96	357.35
432.33	362.45
432.70	367.29
433.08	373.01
433.45	378.41
433.82	383.72
434.19	389.65
434.56	395.49
434.93	401.10
435.30	406.65
435.68	412.91
436.05	419.04
436.42	425.16
436.79	430.74
437.16	436.76
437.53	443.22
437.90	449.68
438.27	455.98
438.64	462.83
439.01	469.02
439.38	474.69
439.75	480.16
440.13	486.42
440.50	492.39
440.87	497.09
441.24	502.28
441.61	508.00
441.98	512.20
442.35	517.20
442.72	522.34
443.09	527.26
443.46	530.46
443.83	532.85
444.20	534.89
444.57	537.84
444.94	539.65
445.31	541.51
445.68	543.18
446.05	544.48
446.42	544.44
446.79	544.29
447.16	544.19
447.53	544.14
447.90	542.41
448.27	540.79
448.64	538.17
449.01	536.47
449.37	532.64
449.74	529.17
450.11	524.67
450.48	519.70
450.85	514.69
451.22	510.45
451.59	506.29
451.96	502.52
452.33	496.93
452.70	491.96
453.07	485.88
453.43	479.77
453.80	473.86
454.17	468.18
454.54	462.91
454.91	456.94
455.28	451.32
455.65	446.01
456.02	440.34
456.38	435.79
456.75	429.90
457.12	425.14
457.49	420.35
457.86	415.75
458.23	411.74
458.59	407.30
458.96	402.73
459.33	398.69
459.70	394.57
460.07	391.44
460.43	387.75
460.80	384.29
461.17	381.24
461.54	377.95
461.91	374.88
462.27	371.75
462.64	369.19
463.01	366.26
463.38	363.32
463.74	360.65
464.11	358.27
464.48	356.11
464.85	353.80
465.21	352.04
465.58	350.10
465.95	347.85
466.32	346.05
466.68	344.30
467.05	342.54
467.42	340.84
467.78	339.00
468.15	337.31
468.52	336.05
468.88	334.40
469.25	332.89
469.62	331.70
469.98	330.40
470.35	329.24
470.72	328.20
471.08	327.14
471.45	326.27
471.82	325.30
472.18	324.30
472.55	323.65
472.92	322.85
473.28	322.22
473.65	321.57
474.02	320.96
474.38	320.46
474.75	320.18
475.11	319.77
475.48	319.62
475.85	319.46
476.21	319.41
476.58	319.42
476.94	319.62
477.31	319.74
477.67	319.90
478.04	320.17
478.41	320.51
478.77	320.98
479.14	321.32
479.50	321.88
479.87	322.58
480.23	323.29
480.60	323.95
480.96	324.66
481.33	325.63
481.69	326.59
482.06	327.55
482.42	328.45
482.79	329.53
483.15	330.78
483.52	332.17
483.88	333.51
484.25	334.94
484.61	336.43
484.98	338.03
485.34	339.83
485.71	341.68
486.07	343.67
486.44	345.64
486.80	347.84
487.17	350.09
487.53	352.56
487.90	355.13
488.26	357.91
488.62	360.84
488.99	363.78
489.35	366.85
489.72	370.16
490.08	373.65
490.44	377.24
490.81	380.98
491.17	384.81
491.54	388.91
491.90	393.11
492.26	397.64
492.63	402.40
492.99	407.35
493.36	412.43
493.72	417.78
494.08	423.26
494.45	429.05
494.81	435.06
495.17	441.18
495.54	447.65
495.90	454.44
496.26	461.37
496.63	468.54
496.99	475.99
497.35	483.80
497.72	491.93
498.08	500.21
498.44	508.74
498.80	517.84
499.17	527.16
499.53	536.82
499.89	546.71
500.26	556.77
500.62	567.11
500.98	578.11
501.34	589.28
501.71	601.00
502.07	612.93
502.43	625.24
502.79	637.92
503.16	651.00
503.52	664.27
503.88	677.91
504.24	691.97
504.60	706.33
504.97	721.08
505.33	736.20
505.69	752.23
506.05	768.47
506.41	784.73
506.78	801.27
507.14	818.29
507.50	835.93
507.86	853.94
508.22	872.23
508.59	890.55
508.95	909.59
509.31	929.04
509.67	949.19
510.03	969.58
510.39	990.15
510.75	1010.98
511.12	1032.10
511.48	1053.56
511.84	1075.11
512.20	1096.95
512.56	1119.89
512.92	1143.07
513.28	1165.97
513.64	1189.18
514.00	1212.76
514.37	1236.73
514.73	1260.68
515.09	1284.44
515.45	1308.65
515.81	1333.41
516.17	1358.24
516.53	1382.73
516.89	1407.27
517.25	1432.01
517.61	1456.93
517.97	1482.07
518.33	1506.91
518.69	1531.91
519.05	1557.17
519.41	1582.55
519.77	1608.20
520.13	1633.05
520.49	1658.07
520.85	1683.28
521.21	1708.43
521.57	1734.18
521.93	1759.19
522.29	1785.08
522.65	1810.67
523.01	1836.03
523.37	1860.70
523.73	1885.94
524.09	1911.35
524.45	1936.70
524.81	1961.59
525.17	1986.38
525.53	2010.72
525.89	2035.09
526.25	2059.65
526.61	2083.65
526.97	2107.95
527.33	2132.16
527.68	2156.26
528.04	2179.48
528.40	2202.56
528.76	2225.82
529.12	2248.01
529.48	2270.59
529.84	2291.28
530.20	2312.60
530.56	2333.55
530.91	2354.54
531.27	2375.05
531.63	2394.94
531.99	2414.27
532.35	2433.21
532.71	2452.25
533.07	2471.94
533.42	2490.02
533.78	2508.58
534.14	2527.08
534.50	2544.75
534.86	2563.03
535.21	2579.42
535.57	2595.80
535.93	2611.36
536.29	2625.77
536.65	2640.98
537.00	2655.09
537.36	2669.72
537.72	2683.25
538.08	2696.50
538.44	2708.57
538.79	2720.84
539.15	2731.47
539.51	2742.07
539.87	2752.33
540.22	2760.51
540.58	2768.67
540.94	2777.50
541.29	2784.66
541.65	2790.89
542.01	2796.60
542.37	2800.44
542.72	2806.19
543.08	2811.42
543.44	2816.58
543.79	2820.82
544.15	2824.29
544.51	2827.65
544.87	2830.15
545.22	2832.21
545.58	2833.32
545.94	2834.89
546.29	2834.98
546.65	2835.26
547.01	2835.49
547.36	2835.88
547.72	2836.41
548.07	2835.48
548.43	2833.89
548.79	2831.66
549.14	2829.52
549.50	2827.89
549.86	2825.57
550.21	2820.72
550.57	2816.31
550.92	2810.48
551.28	2805.28
551.64	2799.92
551.99	2795.02
552.35	2789.70
552.70	2783.96
553.06	2778.95
553.41	2773.47
553.77	2767.48
554.13	2762.05
554.48	2755.86
554.84	2747.92
555.19	2740.10
555.55	2731.74
555.90	2723.93
556.26	2717.20
556.61	2709.80
556.97	2700.28
557.32	2691.52
557.68	2683.31
558.03	2674.39
558.39	2666.14
558.74	2658.11
559.10	2648.80
559.45	2639.19
559.81	2629.89
560.16	2619.98
560.52	2609.53
560.87	2600.07
561.23	2590.28
561.58	2579.99
561.94	2569.42
562.29	2558.38
562.64	2547.99
563.00	2537.93
563.35	2527.77
563.71	2516.72
564.06	2505.05
564.42	2494.45
564.77	2483.46
565.12	2472.59
565.48	2461.43
565.83	2450.93
566.19	2440.44
566.54	2429.66
566.89	2417.89
567.25	2406.10
567.60	2395.13
567.96	2383.78
568.31	2371.03
568.66	2358.13
569.02	2346.33
569.37	2334.30
569.72	2322.79
570.08	2310.54
570.43	2297.74
570.78	2284.68
571.14	2271.36
571.49	2258.90
571.84	2246.71
572.20	2233.20
572.55	2220.09
572.90	2206.89
573.26	2192.86
573.61	2178.20
573.96	2163.79
574.31	2149.77
574.67	2135.97
575.02	2121.74
575.37	2107.06
575.72	2092.69
576.08	2078.94
576.43	2064.16
576.78	2049.39
577.13	2035.48
577.49	2021.61
577.84	2008.12
578.19	1993.78
578.54	1979.05
578.90	1963.81
579.25	1948.31
579.60	1934.24
579.95	1919.79
580.30	1905.38
580.66	1891.23
581.01	1876.70
581.36	1862.52
581.71	1848.90
582.06	1834.82
582.42	1820.76
582.77	1807.51
583.12	1793.92
583.47	1780.33
583.82	1766.87
584.17	1753.32
584.53	1739.55
584.88	1725.79
585.23	1711.73
585.58	1698.16
585.93	1685.05
586.28	1672.76
586.63	1660.31
586.98	1647.12
587.34	1634.20
587.69	1620.75
588.04	1607.51
588.39	1594.99
588.74	1582.01
589.09	1568.74
589.44	1555.44
589.79	1542.73
590.14	1529.83
590.49	1517.18
590.84	1504.40
591.19	1492.27
591.54	1479.62
591.89	1466.85
592.25	1454.46
592.60	1441.61
592.95	1429.33
593.30	1417.32
593.65	1405.12
594.00	1393.07
594.35	1381.90
594.70	1369.85
595.05	1358.91
595.40	1347.84
595.75	1336.14
596.10	1325.21
596.45	1314.50
596.80	1304.25
597.15	1293.79
597.50	1283.36
597.85	1273.08
598.19	1263.00
598.54	1252.33
598.89	1242.40
599.24	1232.81
599.59	1222.95
599.94	1214.12
600.29	1205.16
600.64	1196.01
600.99	1186.29
601.34	1177.04
601.69	1167.15
602.04	1158.36
602.39	1149.38
602.74	1140.64
603.08	1132.17
603.43	1123.20
603.78	1114.12
604.13	1105.19
604.48	1096.18
604.83	1087.45
605.18	1078.63
605.53	1069.76
605.87	1061.01
606.22	1052.53
606.57	1043.77
606.92	1035.09
607.27	1026.31
607.62	1017.63
607.96	1009.10
608.31	1001.54
608.66	993.56
609.01	986.02
609.36	978.44
609.70	970.65
610.05	962.68
610.40	955.04
610.75	947.55
611.10	940.33
611.44	932.70
611.79	925.41
612.14	917.73
612.49	910.17
612.83	903.10
613.18	896.08
613.53	888.87
613.88	881.74
614.22	875.20
614.57	868.49
614.92	861.77
615.27	855.08
615.61	848.24
615.96	841.65
616.31	834.97
616.65	828.18
617.00	821.63
617.35	815.23
617.70	808.86
618.04	802.54
618.39	796.25
618.74	790.30
619.08	784.15
619.43	778.28
619.78	772.45
620.12	766.40
620.47	760.53
620.82	754.73
621.16	749.26
621.51	743.44
621.85	737.60
622.20	731.80
622.55	726.19
622.89	720.55
623.24	714.94
623.59	709.39
623.93	703.90
624.28	698.54
624.62	693.19
624.97	687.80
625.32	682.54
625.66	677.15
626.01	671.75
626.35	666.49
626.70	661.26
627.04	656.19
627.39	651.20
627.73	646.32
628.08	641.66
628.43	636.88
628.77	632.16
629.12	627.57
629.46	623.18
629.81	618.60
630.15	613.90
630.50	609.35
630.84	604.99
631.19	600.82
631.53	596.69
631.88	592.44
632.22	588.30
632.57	584.40
632.91	580.45
633.26	576.59
633.60	572.79
633.95	569.08
634.29	565.25
634.64	561.37
634.98	557.40
635.32	553.60
635.67	549.93
636.01	546.20
636.36	542.52
636.70	538.97
637.05	535.41
637.39	532.06
637.73	528.58
638.08	525.17
638.42	521.73
638.77	518.14
639.11	514.58
639.45	511.04
639.80	507.48
640.14	504.10
640.49	500.70
640.83	497.19
641.17	493.73
641.52	490.42
641.86	487.13
642.20	483.98
642.55	480.69
642.89	477.48
643.23	474.47
643.58	471.67
643.92	468.77
644.26	465.90
644.61	463.00
644.95	460.14
645.29	457.21
645.64	454.25
645.98	451.43
646.32	448.77
646.66	446.12
647.01	443.46
647.35	440.84
647.69	438.11
648.04	435.52
648.38	432.97
648.72	430.38
649.06	427.85
649.41	425.36
649.75	422.86
650.09	420.39
650.43	417.92
650.78	415.43
651.12	412.94
651.46	410.54
651.80	408.24
652.14	406.02
652.49	403.80
652.83	401.64
653.17	399.46
653.51	397.36
653.85	395.31
654.20	393.21
654.54	391.03
654.88	389.03
655.22	387.10
655.56	385.14
655.90	383.26
656.25	381.40
656.59	379.54
656.93	377.77
657.27	376.05
657.61	374.22
657.95	372.45
658.29	370.70
658.64	368.98
658.98	367.23
659.32	365.51
659.66	363.89
660.00	362.29
660.34	360.71
660.68	359.09
661.02	357.40
661.36	355.81
661.70	354.30
662.05	352.78
662.39	351.23
662.73	349.77
663.07	348.34
663.41	346.92
663.75	345.53
664.09	344.15
664.43	342.69
664.77	341.33
665.11	339.90
665.45	338.55
665.79	337.20
666.13	335.85
666.47	334.47
666.81	333.08
667.15	331.65
667.49	330.33
667.83	329.05
668.17	327.81
668.51	326.61
668.85	325.40
669.19	324.27
669.53	323.07
669.87	321.85
670.21	320.66
670.55	319.49
670.89	318.39
671.23	317.26
671.57	316.13
671.91	315.06
672.25	314.06
672.58	313.05
672.92	312.00
673.26	311.02
673.60	310.04
673.94	309.06
674.28	308.14
674.62	307.20
674.96	306.24
675.30	305.34
675.64	304.40
675.97	303.48
676.31	302.53
676.65	301.60
676.99	300.73
677.33	299.80
677.67	298.93
678.01	297.98
678.34	297.10
678.68	296.29
679.02	295.43
679.36	294.58
679.70	293.74
680.04	292.94
680.37	292.11
680.71	291.32
681.05	290.58
681.39	289.80
681.73	288.98
682.06	288.19
682.40	287.42
682.74	286.68
683.08	285.97
683.42	285.23
683.75	284.56
684.09	283.82
684.43	283.13
684.77	282.42
685.10	281.76
685.44	281.08
685.78	280.39
686.12	279.74
686.45	279.08
686.79	278.42
687.13	277.78
687.46	277.11
687.80	276.47
688.14	275.79
688.48	275.17
688.81	274.55
689.15	273.98
689.49	273.37
689.82	272.76
690.16	272.11
690.50	271.51
690.83	270.92
691.17	270.34
691.51	269.78
691.84	269.23
692.18	268.66
692.52	268.07
692.85	267.51
693.19	266.99
693.52	266.45
693.86	265.91
694.20	265.38
694.53	264.89
694.87	264.37
695.21	263.87
695.54	263.38
695.88	262.87
696.21	262.33
696.55	261.84
696.88	261.35
697.22	260.88
697.56	260.41
697.89	259.88
698.23	259.40
698.56	258.89
698.90	258.43
699.23	257.96
699.57	257.52
699.90	257.08
700.24	256.61
700.58	256.18
700.91	255.78
701.25	255.44
701.58	255.07
701.92	254.69
702.25	254.29
702.59	253.88
702.92	253.49
703.26	253.11
703.59	252.73
703.93	252.43
704.26	252.07
704.60	251.70
704.93	251.36
705.26	251.01
705.60	250.69
705.93	250.32
706.27	250.02
706.60	249.71
706.94	249.41
707.27	249.04
707.61	248.70
707.94	248.35
708.27	247.93
708.61	247.56
708.94	247.21
709.28	246.89
709.61	246.58
709.94	246.29
710.28	246.00
710.61	245.72
710.95	245.35
711.28	245.13
711.61	244.85
711.95	244.60
712.28	244.32
712.61	244.04
712.95	243.83
713.28	243.61
713.61	243.33
713.95	243.05
714.28	242.83
714.61	242.57
714.95	242.33
715.28	242.09
715.61	241.85
715.95	241.63
716.28	241.40
716.61	241.19
716.95	240.95
717.28	240.73
717.61	240.50
717.94	240.28
718.28	240.00
718.61	239.79
718.94	239.55
719.27	239.35
719.61	239.16
719.94	238.93
720.27	238.67
720.60	238.47
720.94	238.28
721.27	238.09
721.60	237.93
721.93	237.74
722.27	237.60
722.60	237.44
722.93	237.24
723.26	237.08
723.59	236.88
723.93	236.73
724.26	236.57
724.59	236.40
724.92	236.25
725.25	236.12
725.59	235.96
725.92	235.83
726.25	235.68
726.58	235.53
726.91	235.37
727.24	235.24
727.57	235.10
727.91	234.94
728.24	234.81
728.57	234.66
728.90	234.53
729.23	234.36
729.56	234.26
729.89	234.13
730.22	233.99
730.55	233.86
730.89	233.72
731.22	233.58
731.55	233.45
731.88	233.32
732.21	233.18
732.54	233.06
732.87	232.94
733.20	232.82
733.53	232.71
733.86	232.61
734.19	232.48
734.52	232.39
734.85	232.35
735.18	232.22
735.51	232.14
735.84	232.02
736.17	231.95
736.50	231.79
736.83	231.81
737.16	231.72
737.49	231.63
737.82	231.53
738.15	231.45
738.48	231.35
738.81	231.25
739.14	231.14
739.47	231.04
739.80	230.94
740.13	230.85
740.46	230.74
740.79	230.64
741.12	230.55
741.45	230.44
741.78	230.29
742.11	230.23
742.44	230.12
742.77	230.04
743.10	229.93
743.43	229.85
743.75	229.65
744.08	229.72
744.41	229.63
744.74	229.55
745.07	229.43
745.40	229.38
745.73	229.34
746.06	229.27
746.39	229.21
746.71	229.12
747.04	229.04
747.37	228.97
747.70	228.91
748.03	228.84
748.36	228.79
748.68	228.72
749.01	228.62
749.34	228.55
749.67	228.49
750.00	228.43
750.33	228.45
750.65	228.39
750.98	228.17
751.31	228.11
751.64	228.05
751.97	228.05
752.29	227.98
752.62	227.87
752.95	227.79
753.28	227.72
753.60	227.65
753.93	227.61
754.26	227.56
754.59	227.46
754.91	227.38
755.24	227.31
755.57	227.29
755.90	227.23
756.22	227.16
756.55	227.09
756.88	227.01
757.20	226.88
757.53	226.79
757.86	226.73
758.19	226.68
758.51	226.62
758.84	226.52
759.17	226.45
759.49	226.41
759.82	226.42
760.15	226.38
760.47	226.33
760.80	226.25
761.13	226.22
761.45	226.18
761.78	226.13
762.11	226.09
762.43	225.98
762.76	225.94
763.08	225.91
763.41	225.87
763.74	225.83
764.06	225.79
764.39	225.75
764.71	225.71
765.04	225.66
765.37	225.61
765.69	225.57
766.02	225.53
766.34	225.48
766.67	225.40
767.00	225.38
767.32	225.40
767.65	225.42
767.97	225.37
768.30	225.34
768.62	225.31
768.95	225.26
769.27	225.22
769.60	225.20
769.92	225.14
770.25	225.09
770.57	225.04
770.90	225.01
771.22	224.97
771.55	224.94
771.87	224.91
772.20	224.88
772.52	224.94
772.85	225.03
773.17	225.00
773.50	224.96
773.82	224.92
774.15	224.83
774.47	224.73
774.80	224.69
775.12	224.66
775.45	224.63
775.77	224.61
776.09	224.59
776.42	224.56
776.74	224.57
777.07	224.54
777.39	224.52
777.72	224.49
778.04	224.48
778.36	224.44
778.69	224.42
779.01	224.40
779.33	224.29
779.66	224.15
779.98	224.12
780.31	224.11
780.63	224.13
780.95	224.13
781.28	224.11
781.60	224.09
781.92	224.07
782.25	224.05
782.57	224.03
782.89	224.00
783.22	223.98
783.54	223.94
783.86	223.93
784.19	223.91
784.51	223.93
784.83	223.89
785.16	223.87
785.48	223.85
785.80	223.83
786.12	223.83
786.45	223.81
786.77	223.80
787.09	223.77
787.42	223.72
787.74	223.70
788.06	223.69
788.38	223.67
788.71	223.65
789.03	223.64
789.35	223.63
789.67	223.61
789.99	223.59
790.32	223.56
790.64	223.56
790.96	223.64
791.28	223.59
791.61	223.57
791.93	223.56
792.25	223.54
792.57	223.60
792.89	223.57
793.21	223.56
793.54	223.54
793.86	223.51
794.18	223.50
794.50	223.47
794.82	223.45
795.14	223.45
795.47	223.45
795.79	223.44
796.11	223.40
796.43	223.39
796.75	223.38
797.07	223.38
797.39	223.36
797.71	223.26
798.04	223.26
798.36	223.25
798.68	223.23
799.00	223.23
799.32	223.17
799.64	223.18
799.96	223.16
800.28	223.17
800.60	223.16
800.92	223.15
801.24	223.14
801.56	223.14
801.89	223.12
802.21	223.12
802.53	223.09
802.85	223.10
803.17	223.14
803.49	223.11
803.81	223.09
804.13	223.07
804.45	223.05
804.77	223.05
805.09	223.04
805.41	223.02
805.73	222.99
806.05	222.96
806.37	222.94
806.69	222.92
807.01	222.90
807.33	222.90
807.65	222.86
807.97	222.90
808.28	222.87
808.60	222.86
808.92	222.84
809.24	222.89
809.56	222.87
809.88	222.82
810.20	222.82
810.52	222.83
810.84	222.81
811.16	222.79
811.48	222.78
811.80	222.81
812.12	222.81
812.43	222.82
812.75	222.82
813.07	222.80
813.39	222.81
813.71	222.78
814.03	222.77
814.35	222.77
814.67	222.72
814.98	222.71
815.30	222.70
815.62	222.68
815.94	222.61
816.26	222.62
816.58	222.59
816.89	222.60
817.21	222.57
817.53	222.57
817.85	222.57
818.17	222.56
818.48	222.51
818.80	222.53
819.12	222.50
819.44	222.48
819.76	222.46
820.07	222.46
820.39	222.45
820.71	222.46
821.03	222.46
821.34	222.45
821.66	222.46
821.98	222.46
822.30	222.45
822.61	222.51
822.93	222.49
823.25	222.49
823.57	222.47
823.88	222.48
824.20	222.48
824.52	222.49
824.83	222.48
825.15	222.47
825.47	222.46
825.79	222.47
826.10	222.46
826.42	222.46
826.74	222.47
827.05	222.46
827.37	222.46
827.69	222.45
828.00	222.45
828.32	222.44
828.64	222.42
828.95	222.48
829.27	222.45
829.58	222.44
829.90	222.46
830.22	222.46
830.53	222.43
830.85	222.42
831.17	222.39
831.48	222.38
831.80	222.39
832.11	222.37
832.43	222.35
832.75	222.35
833.06	222.41
833.38	222.38
833.69	222.37
834.01	222.37
834.32	222.36
834.64	222.36
834.96	222.35
835.27	222.34
835.59	222.30
835.90	222.29
836.22	222.28
836.53	222.26
836.85	222.24
837.16	222.34
837.48	222.34
837.79	222.38
838.11	222.38
838.42	222.38
838.74	222.38
839.05	222.38
839.37	222.37
839.68	222.30
840.00	222.30
840.31	222.31
840.63	222.30
840.94	222.29
841.26	222.28
841.57	222.27
841.88	222.28
842.20	222.27
842.51	222.25
842.83	222.24
843.14	222.34
843.46	222.34
843.77	222.28
844.08	222.28
844.40	222.24
844.71	222.23
845.03	222.22
845.34	222.21
845.65	222.20
845.97	222.21
846.28	222.21
846.60	222.22
846.91	222.20
847.22	222.19
847.54	222.21
847.85	222.22
848.16	222.21
848.48	222.19
848.79	222.23
849.10	222.24
849.42	222.24
849.73	222.14
850.04	222.14
850.36	222.10
850.67	222.11
850.98	222.11
851.30	222.12
851.61	222.12
851.92	222.11
852.23	222.15
852.55	222.15
852.86	222.15
853.17	222.15
853.49	222.18
853.80	222.20
854.11	222.20
854.42	222.21
854.74	222.20
855.05	222.21
855.36	222.15
855.67	222.15
855.99	222.15
856.30	222.28
856.61	222.27
856.92	222.28
857.23	222.28
857.55	222.26
857.86	222.26
858.17	222.27
858.48	222.25
858.79	222.23
859.11	222.23
859.42	222.22
859.73	222.21
860.04	222.20
860.35	222.17
860.66	222.14
860.98	222.13
861.29	222.14
861.60	222.14
861.91	222.16
862.22	222.15
862.53	222.13
862.84	222.00
863.16	222.02
863.47	222.01
863.78	221.99
864.09	222.00
864.40	222.01
864.71	222.01
865.02	222.02
865.33	222.01
865.64	221.99
865.95	221.99
866.27	222.05
866.58	222.04
866.89	222.06
867.20	222.06
867.51	222.04
867.82	222.03
868.13	222.06
868.44	222.04
868.75	222.06
869.06	222.06
869.37	222.07
869.68	222.05
869.99	222.06
870.30	222.06
870.61	222.07
870.92	222.06
871.23	222.05
871.54	222.06
871.85	222.09
872.16	222.10
872.47	222.09
872.78	222.03
873.09	222.04
873.40	222.02
873.71	222.03
874.02	222.05
874.33	222.03
874.64	222.01
874.95	222.03
875.26	222.01
875.56	222.00
875.87	221.99
876.18	221.99
876.49	222.09
876.80	222.08
877.11	222.06
877.42	222.06
877.73	222.06
878.04	222.04
878.35	222.04
878.66	222.04
878.96	222.04
879.27	222.04
879.58	222.03
879.89	222.03
880.20	222.05
880.51	222.04
880.82	222.05
881.12	222.05
881.43	222.03
881.74	222.01
882.05	222.01
882.36	222.01
882.67	222.02
882.97	221.91
883.28	221.90
883.59	221.90
883.90	221.91
884.21	221.92
884.51	221.92
884.82	221.90
885.13	221.90
885.44	221.90
885.74	221.90
886.05	221.89
886.36	221.89
886.67	221.85
886.98	221.91
887.28	221.91
887.59	221.91
887.90	221.92
888.20	221.92
888.51	221.94
888.82	221.92
889.13	221.93
889.43	222.02
889.74	222.01
890.05	222.01
890.35	222.00
890.66	221.98
890.97	221.97
891.28	221.96
891.58	221.96
891.89	221.96
892.20	221.95
892.50	221.94
892.81	221.93
893.12	221.93
893.42	221.88
893.73	221.88
894.04	221.88
894.34	221.89
894.65	221.88
894.95	221.87
895.26	221.88
895.57	221.92
895.87	221.81
896.18	221.83
896.48	221.84
896.79	221.84
897.10	221.85
897.40	221.86
897.71	221.86
898.01	221.86
898.32	221.87
898.63	221.87
898.93	221.88
899.24	221.87
899.54	221.87
899.85	221.86
900.15	221.86
900.46	221.85
900.76	221.86
901.07	221.86
901.38	221.85
901.68	221.86
901.99	221.81
902.29	221.82
902.60	221.81
902.90	221.80
903.21	221.80
903.51	221.79
903.82	221.81
904.12	221.81
904.43	221.81
904.73	221.81
905.03	221.82
905.34	221.92
905.64	221.91
905.95	221.92
906.25	221.91
906.56	221.92
906.86	221.92
907.17	221.91
907.47	221.91
907.77	221.90
908.08	221.88
908.38	221.89
908.69	221.89
908.99	221.91
909.30	221.91
909.60	221.91
909.90	221.92
910.21	221.88
910.51	221.87
910.81	221.87
911.12	221.87
911.42	221.87
911.73	221.76
912.03	221.77
912.33	221.79
912.64	221.78
912.94	221.77
913.24	221.75
913.55	221.75
913.85	221.74
914.15	221.76
914.46	221.77
914.76	221.76
915.06	221.76
915.37	221.74
915.67	221.73
915.97	221.73
916.27	221.72
916.58	221.72
916.88	221.72
917.18	221.71
917.49	221.78
917.79	221.78
918.09	221.79
918.39	221.82
918.70	221.81
919.00	221.81
919.30	221.87
919.60	221.86
919.91	221.85
920.21	221.86
920.51	221.84
920.81	221.83
921.12	221.85
921.42	221.84
921.72	221.85
922.02	221.86
922.32	221.87
922.63	221.88
922.93	221.93
923.23	221.93
923.53	221.92
923.83	221.85
924.13	221.86
924.44	221.86
924.74	221.87
925.04	221.89
925.34	221.89
925.64	221.84
925.94	221.85
926.24	221.90
926.55	221.89
926.85	221.90
927.15	221.91
927.45	221.90
927.75	221.90
928.05	221.90
928.35	221.89
928.65	221.90
928.95	221.91
929.26	221.86
929.56	221.88
929.86	221.90
930.16	221.89
930.46	221.88
930.76	221.88
931.06	221.83
931.36	221.81
931.66	221.82
931.96	221.84
932.26	221.84
932.56	221.79
932.86	221.80
933.16	221.80
933.46	221.78
933.76	221.77
934.06	221.79
934.36	221.82
934.66	221.82
934.96	221.80
935.26	221.81
935.56	221.82
935.86	221.79
936.16	221.77
936.46	221.76
936.76	221.76
937.06	221.74
937.36	221.75
937.66	221.75
937.96	221.75
938.26	221.72
938.56	221.72
938.86	221.72
939.16	221.74
939.46	221.75
939.76	221.75
940.06	221.75
940.35	221.73
940.65	221.68
940.95	221.69
941.25	221.67
941.55	221.66
941.85	221.65
942.15	221.68
942.45	221.71
942.75	221.70
943.04	221.71
943.34	221.72
943.64	221.71
943.94	221.70
944.24	221.70
944.54	221.71
944.84	221.71
945.13	221.69
945.43	221.67
945.73	221.67
946.03	221.66
946.33	221.65
946.62	221.63
946.92	221.63
947.22	221.64
947.52	221.65
947.82	221.66
948.11	221.64
948.41	221.62
948.71	221.59
949.01	221.60
949.31	221.59
949.60	221.58
949.90	221.59
950.20	221.59
950.50	221.58
950.79	221.57
951.09	221.59
951.39	221.59
951.69	221.58
951.98	221.59
952.28	221.60
952.58	221.61
952.87	221.61
953.17	221.63
953.47	221.61
953.76	221.61
954.06	221.59
954.36	221.58
954.66	221.58
954.95	221.61
955.25	221.61
955.55	221.62
955.84	221.60
956.14	221.61
956.44	221.61
956.73	221.60
957.03	221.61
957.32	221.60
957.62	221.60
957.92	221.62
958.21	221.61
958.51	221.73
958.81	221.74
959.10	221.75
959.40	221.77
959.69	221.78
959.99	221.79
960.29	221.80
960.58	221.79
960.88	221.83
961.17	221.82
961.47	221.83
961.76	221.82
962.06	221.84
962.36	221.83
962.65	221.83
962.95	221.84
963.24	221.83
963.54	221.83
963.83	221.84
964.13	221.83
964.42	221.82
964.72	221.73
965.01	221.72
965.31	221.72
965.60	221.69
965.90	221.75
966.19	221.72
966.49	221.73
966.78	221.73
967.08	221.72
967.37	221.71
967.67	221.69
967.96	221.72
968.26	221.71
968.55	221.72
968.85	221.72
969.14	221.72
969.43	221.72
969.73	221.71
970.02	221.70
970.32	221.69
970.61	221.68
970.91	221.65
971.20	221.63
971.49	221.63
971.79	221.64
972.08	221.57
972.38	221.58
972.67	221.57
972.96	221.59
973.26	221.57
973.55	221.60
973.85	221.60
974.14	221.59
974.43	221.59
974.73	221.57
975.02	221.56
975.31	221.56
975.61	221.56
975.90	221.55
976.19	221.54
976.49	221.55
976.78	221.56
977.07	221.57
977.37	221.57
977.66	221.58
977.95	221.57
978.24	221.58
978.54	221.60
978.83	221.59
979.12	221.58
979.42	221.58
979.71	221.56
980.00	221.56
980.29	221.56
980.59	221.54
980.88	221.57
981.17	221.57
981.46	221.57
981.76	221.57
982.05	221.60
982.34	221.61
982.63	221.61
982.93	221.61
983.22	221.63
983.51	221.64
983.80	221.65
984.09	221.67
984.39	221.66
984.68	221.65
984.97	221.65
985.26	221.65
985.55	221.65
985.85	221.63
986.14	221.65
986.43	221.66
986.72	221.66
987.01	221.63
987.30	221.63
987.59	221.62
987.89	221.62
988.18	221.59
988.47	221.58
988.76	221.57
989.05	221.56
989.34	221.55
989.63	221.56
989.92	221.54
990.22	221.53
990.51	221.52
990.80	221.52
991.09	221.52
991.38	221.54
991.67	221.52
991.96	221.51
992.25	221.51
992.54	221.49
992.83	221.49
993.12	221.49
993.41	221.51
993.70	221.55
993.99	221.56
994.28	221.57
994.58	221.59
994.87	221.58
995.16	221.58
995.45	221.57
995.74	221.53
996.03	221.55
996.32	221.56
996.61	221.59
996.90	221.58
997.19	221.58
997.48	221.58
997.77	221.57
998.06	221.58
998.34	221.57
998.63	221.57
998.92	221.57
999.21	221.59
999.50	221.58
999.79	221.55
1000.08	221.54
1000.37	221.55
1000.66	221.53
1000.95	221.56
1001.24	221.57
1001.53	221.58
1001.82	221.58
1002.11	221.56
1002.40	221.56
1002.68	221.58
1002.97	221.65
1003.26	221.65
1003.55	221.62
1003.84	221.64
1004.13	221.67
1004.42	221.66
1004.71	221.66
1004.99	221.65
1005.28	221.67
1005.57	221.66
1005.86	221.65
1006.15	221.64
1006.44	221.62
1006.72	221.64
1007.01	221.62
1007.30	221.62
1007.59	221.60
1007.88	221.60
1008.17	221.61
1008.45	221.59
1008.74	221.55
1009.03	221.50
1009.32	221.50
1009.60	221.51
1009.89	221.50
1010.18	221.46
1010.47	221.46
1010.76	221.46
1011.04	221.47
1011.33	221.46
1011.62	221.47
1011.91	221.48
1012.19	221.49
1012.48	221.50
1012.77	221.49
1013.05	221.53
1013.34	221.53
1013.63	221.52
1013.92	221.53
1014.20	221.52
1014.49	221.53
1014.78	221.54
1015.06	221.51
1015.35	221.51
1015.64	221.52
1015.92	221.53
1016.21	221.54
1016.50	221.55
1016.78	221.56
1017.07	221.57
1017.36	221.55
1017.64	221.53
1017.93	221.54
1018.22	221.53
1018.50	221.53
1018.79	221.53
1019.08	221.49
1019.36	221.49
1019.65	221.49
1019.93	221.51
1020.22	221.53
1020.51	221.58
1020.79	221.57
1021.08	221.37
1021.36	221.37
1021.65	221.51
1021.94	221.44
1022.22	221.55
1022.51	221.33
1022.79	222.02
1023.08	221.71
1023.36	222.78
1023.65	221.29
>>>>>End Processed Spectral Data<<<<<
