SpectraSuite Data File
++++++++++++++++++++++++++++++++++++
Date: Thu Oct 01 10:06:03 EDT 2015
User: lab3
Dark Spectrum Present: No
Reference Spectrum Present: No
Number of Sampled Component Spectra: 1
Spectrometers: USB2E7196
Integration Time (usec): 36000 (USB2E7196)
Spectra Averaged: 10000 (USB2E7196)
Boxcar Smoothing: 10 (USB2E7196)
Correct for Electrical Dark: No (USB2E7196)
Strobe/Lamp Enabled: No (USB2E7196)
Correct for Detector Non-linearity: No (USB2E7196)
Correct for Stray Light: No (USB2E7196)
Number of Pixels in Processed Spectrum: 2048
>>>>>Begin Processed Spectral Data<<<<<
339.09	0.00
339.48	210.17
339.86	211.60
340.24	212.98
340.63	214.47
341.01	217.39
341.39	217.11
341.78	218.47
342.16	219.71
342.54	220.15
342.93	208.75
343.31	219.30
343.69	219.84
344.07	220.30
344.46	220.73
344.84	221.12
345.22	221.36
345.60	221.62
345.99	221.81
346.37	221.94
346.75	222.05
347.13	222.13
347.52	222.20
347.90	222.28
348.28	222.32
348.66	222.37
349.05	222.37
349.43	222.43
349.81	222.48
350.19	222.53
350.57	222.60
350.96	222.68
351.34	222.77
351.72	222.86
352.10	222.97
352.48	223.04
352.87	223.10
353.25	223.16
353.63	223.22
354.01	223.29
354.39	223.36
354.77	223.44
355.15	223.54
355.54	223.59
355.92	223.62
356.30	223.70
356.68	223.83
357.06	223.90
357.44	223.95
357.82	224.01
358.20	224.12
358.58	224.18
358.97	224.24
359.35	224.32
359.73	224.40
360.11	224.45
360.49	224.50
360.87	224.55
361.25	224.61
361.63	224.69
362.01	224.74
362.39	224.77
362.77	224.82
363.15	224.84
363.53	224.88
363.91	224.91
364.29	224.93
364.67	224.86
365.05	224.88
365.43	224.91
365.81	224.93
366.19	224.95
366.57	225.01
366.95	225.01
367.33	224.99
367.71	224.98
368.09	225.00
368.47	224.99
368.85	224.98
369.23	224.99
369.61	224.94
369.99	224.95
370.37	224.94
370.75	225.00
371.13	224.97
371.51	224.93
371.89	224.91
372.27	224.88
372.65	224.86
373.03	224.82
373.41	224.77
373.78	224.73
374.16	224.63
374.54	224.55
374.92	224.49
375.30	224.45
375.68	224.39
376.06	224.34
376.44	224.28
376.82	224.25
377.19	224.19
377.57	224.14
377.95	224.05
378.33	223.99
378.71	223.85
379.09	223.80
379.47	223.76
379.84	223.70
380.22	223.64
380.60	223.57
380.98	223.53
381.36	223.47
381.73	223.41
382.11	223.38
382.49	223.34
382.87	223.28
383.25	223.23
383.62	223.31
384.00	223.23
384.38	223.19
384.76	223.17
385.13	223.16
385.51	223.12
385.89	223.07
386.27	223.04
386.64	223.02
387.02	222.97
387.40	222.92
387.78	222.90
388.15	222.87
388.53	222.84
388.91	222.81
389.29	222.77
389.66	222.77
390.04	222.73
390.42	222.73
390.79	222.72
391.17	222.70
391.55	222.57
391.92	222.56
392.30	222.56
392.68	222.52
393.05	222.50
393.43	222.49
393.81	222.50
394.18	222.48
394.56	222.48
394.94	222.51
395.31	222.51
395.69	222.55
396.06	222.57
396.44	222.60
396.82	222.61
397.19	222.68
397.57	222.69
397.95	222.73
398.32	222.73
398.70	222.76
399.07	222.82
399.45	222.86
399.82	222.91
400.20	222.94
400.58	222.99
400.95	223.01
401.33	223.09
401.70	223.22
402.08	223.31
402.45	223.39
402.83	223.50
403.20	223.60
403.58	223.68
403.95	223.80
404.33	223.94
404.71	224.07
405.08	224.25
405.46	224.39
405.83	224.56
406.21	224.73
406.58	224.93
406.96	225.11
407.33	225.34
407.70	225.58
408.08	225.92
408.45	226.21
408.83	226.53
409.20	226.81
409.58	227.07
409.95	227.43
410.33	227.81
410.70	228.18
411.08	228.60
411.45	229.06
411.82	229.52
412.20	230.04
412.57	230.66
412.95	231.15
413.32	231.79
413.69	232.45
414.07	233.14
414.44	233.90
414.82	234.67
415.19	235.58
415.56	236.49
415.94	237.44
416.31	238.51
416.68	239.58
417.06	240.83
417.43	242.00
417.81	243.34
418.18	244.71
418.55	246.21
418.93	247.76
419.30	249.39
419.67	251.12
420.04	252.91
420.42	254.77
420.79	256.92
421.16	259.09
421.54	261.29
421.91	263.60
422.28	265.99
422.66	268.57
423.03	271.03
423.40	273.62
423.77	276.39
424.15	279.23
424.52	282.17
424.89	285.36
425.26	288.54
425.64	291.48
426.01	294.79
426.38	298.17
426.75	301.64
427.13	305.20
427.50	308.92
427.87	312.78
428.24	316.68
428.61	320.42
428.99	324.43
429.36	328.85
429.73	333.06
430.10	337.26
430.47	341.53
430.85	345.93
431.22	350.62
431.59	355.43
431.96	360.12
432.33	365.31
432.70	370.22
433.08	376.04
433.45	381.53
433.82	386.93
434.19	392.96
434.56	398.90
434.93	404.61
435.30	410.27
435.68	416.64
436.05	422.87
436.42	429.10
436.79	434.78
437.16	440.91
437.53	447.48
437.90	454.06
438.27	460.48
438.64	467.47
439.01	473.78
439.38	479.57
439.75	485.15
440.13	491.53
440.50	497.62
440.87	502.43
441.24	507.72
441.61	513.56
441.98	517.86
442.35	522.96
442.72	528.23
443.09	533.26
443.46	536.55
443.83	539.01
444.20	541.11
444.57	544.14
444.94	546.00
445.31	547.92
445.68	549.64
446.05	550.98
446.42	550.95
446.79	550.81
447.16	550.72
447.53	550.67
447.90	548.92
448.27	547.29
448.64	544.63
449.01	542.89
449.37	538.99
449.74	535.45
450.11	530.87
450.48	525.79
450.85	520.67
451.22	516.33
451.59	512.10
451.96	508.23
452.33	502.52
452.70	497.44
453.07	491.22
453.43	484.99
453.80	478.95
454.17	473.15
454.54	467.76
454.91	461.66
455.28	455.91
455.65	450.48
456.02	444.69
456.38	440.02
456.75	434.00
457.12	429.14
457.49	424.23
457.86	419.54
458.23	415.43
458.59	410.88
458.96	406.20
459.33	402.06
459.70	397.85
460.07	394.65
460.43	390.88
460.80	387.34
461.17	384.22
461.54	380.85
461.91	377.71
462.27	374.52
462.64	371.91
463.01	368.92
463.38	365.91
463.74	363.19
464.11	360.76
464.48	358.56
464.85	356.21
465.21	354.42
465.58	352.43
465.95	350.14
466.32	348.32
466.68	346.54
467.05	344.75
467.42	343.02
467.78	341.16
468.15	339.44
468.52	338.17
468.88	336.50
469.25	334.97
469.62	333.76
469.98	332.44
470.35	331.27
470.72	330.22
471.08	329.16
471.45	328.27
471.82	327.29
472.18	326.28
472.55	325.62
472.92	324.81
473.28	324.18
473.65	323.53
474.02	322.92
474.38	322.41
474.75	322.14
475.11	321.72
475.48	321.57
475.85	321.41
476.21	321.37
476.58	321.38
476.94	321.58
477.31	321.71
477.67	321.87
478.04	322.15
478.41	322.50
478.77	322.97
479.14	323.32
479.50	323.90
479.87	324.61
480.23	325.32
480.60	326.00
480.96	326.71
481.33	327.69
481.69	328.67
482.06	329.64
482.42	330.55
482.79	331.65
483.15	332.92
483.52	334.32
483.88	335.69
484.25	337.13
484.61	338.64
484.98	340.26
485.34	342.08
485.71	343.96
486.07	345.96
486.44	347.96
486.80	350.18
487.17	352.45
487.53	354.94
487.90	357.55
488.26	360.36
488.62	363.32
488.99	366.30
489.35	369.41
489.72	372.77
490.08	376.31
490.44	379.93
490.81	383.72
491.17	387.59
491.54	391.74
491.90	395.99
492.26	400.57
492.63	405.39
492.99	410.40
493.36	415.54
493.72	420.95
494.08	426.50
494.45	432.36
494.81	438.43
495.17	444.64
495.54	451.19
495.90	458.07
496.26	465.08
496.63	472.34
496.99	479.88
497.35	487.79
497.72	496.01
498.08	504.38
498.44	513.02
498.80	522.23
499.17	531.66
499.53	541.44
499.89	551.45
500.26	561.63
500.62	572.10
500.98	583.25
501.34	594.57
501.71	606.42
502.07	618.50
502.43	630.96
502.79	643.78
503.16	657.01
503.52	670.43
503.88	684.24
504.24	698.45
504.60	712.97
504.97	727.88
505.33	743.18
505.69	759.40
506.05	775.83
506.41	792.26
506.78	809.00
507.14	826.20
507.50	844.03
507.86	862.23
508.22	880.72
508.59	899.23
508.95	918.46
509.31	938.12
509.67	958.49
510.03	979.09
510.39	999.89
510.75	1020.94
511.12	1042.28
511.48	1063.96
511.84	1085.71
512.20	1107.76
512.56	1130.94
512.92	1154.32
513.28	1177.40
513.64	1200.78
514.00	1224.59
514.37	1248.75
514.73	1272.91
515.09	1296.86
515.45	1321.27
515.81	1346.23
516.17	1371.24
516.53	1395.90
516.89	1420.62
517.25	1445.53
517.61	1470.63
517.97	1495.91
518.33	1520.91
518.69	1546.06
519.05	1571.45
519.41	1596.99
519.77	1622.80
520.13	1647.78
520.49	1672.93
520.85	1698.29
521.21	1723.57
521.57	1749.42
521.93	1774.54
522.29	1800.51
522.65	1826.19
523.01	1851.63
523.37	1876.33
523.73	1901.63
524.09	1927.11
524.45	1952.54
524.81	1977.48
525.17	2002.32
525.53	2026.69
525.89	2051.07
526.25	2075.65
526.61	2099.68
526.97	2123.98
527.33	2148.21
527.68	2172.31
528.04	2195.50
528.40	2218.57
528.76	2241.80
529.12	2263.94
529.48	2286.46
529.84	2307.12
530.20	2328.37
530.56	2349.26
530.91	2370.20
531.27	2390.64
531.63	2410.42
531.99	2429.65
532.35	2448.49
532.71	2467.42
533.07	2486.98
533.42	2504.97
533.78	2523.39
534.14	2541.76
534.50	2559.29
534.86	2577.40
535.21	2593.62
535.57	2609.83
535.93	2625.23
536.29	2639.49
536.65	2654.58
537.00	2668.52
537.36	2683.01
537.72	2696.40
538.08	2709.45
538.44	2721.35
538.79	2733.42
539.15	2743.86
539.51	2754.23
539.87	2764.30
540.22	2772.26
540.58	2780.25
540.94	2788.85
541.29	2795.83
541.65	2801.86
542.01	2807.39
542.37	2811.03
542.72	2816.59
543.08	2821.67
543.44	2826.62
543.79	2830.65
544.15	2833.85
544.51	2837.02
544.87	2839.28
545.22	2841.14
545.58	2842.05
545.94	2843.42
546.29	2843.31
546.65	2843.36
547.01	2843.42
547.36	2843.58
547.72	2843.88
548.07	2842.74
548.43	2840.93
548.79	2838.50
549.14	2836.12
549.50	2834.35
549.86	2831.78
550.21	2826.73
550.57	2822.08
550.92	2816.06
551.28	2810.67
551.64	2805.16
551.99	2800.07
552.35	2794.57
552.70	2788.61
553.06	2783.38
553.41	2777.70
553.77	2771.55
554.13	2766.00
554.48	2759.58
554.84	2751.48
555.19	2743.52
555.55	2735.01
555.90	2727.06
556.26	2720.14
556.61	2712.59
556.97	2702.83
557.32	2693.91
557.68	2685.52
558.03	2676.43
558.39	2668.05
558.74	2659.84
559.10	2650.34
559.45	2640.53
559.81	2631.05
560.16	2620.92
560.52	2610.34
560.87	2600.75
561.23	2590.78
561.58	2580.28
561.94	2569.54
562.29	2558.31
562.64	2547.73
563.00	2537.51
563.35	2527.17
563.71	2515.94
564.06	2504.11
564.42	2493.34
564.77	2482.22
565.12	2471.20
565.48	2459.91
565.83	2449.24
566.19	2438.58
566.54	2427.60
566.89	2415.69
567.25	2403.77
567.60	2392.67
567.96	2381.18
568.31	2368.25
568.66	2355.22
569.02	2343.30
569.37	2331.13
569.72	2319.49
570.08	2307.13
570.43	2294.20
570.78	2281.01
571.14	2267.55
571.49	2254.96
571.84	2242.63
572.20	2228.99
572.55	2215.75
572.90	2202.44
573.26	2188.22
573.61	2173.46
573.96	2158.96
574.31	2144.86
574.67	2130.94
575.02	2116.61
575.37	2101.82
575.72	2087.34
576.08	2073.46
576.43	2058.58
576.78	2043.73
577.13	2029.75
577.49	2015.75
577.84	2002.16
578.19	1987.70
578.54	1972.91
578.90	1957.59
579.25	1942.01
579.60	1927.85
579.95	1913.30
580.30	1898.78
580.66	1884.57
581.01	1869.99
581.36	1855.75
581.71	1842.05
582.06	1827.89
582.42	1813.77
582.77	1800.44
583.12	1786.79
583.47	1773.17
583.82	1759.65
584.17	1746.06
584.53	1732.24
584.88	1718.47
585.23	1704.33
585.58	1690.74
585.93	1677.59
586.28	1665.28
586.63	1652.79
586.98	1639.59
587.34	1626.64
587.69	1613.20
588.04	1599.96
588.39	1587.40
588.74	1574.41
589.09	1561.12
589.44	1547.80
589.79	1535.08
590.14	1522.19
590.49	1509.53
590.84	1496.74
591.19	1484.61
591.54	1471.95
591.89	1459.18
592.25	1446.77
592.60	1433.96
592.95	1421.69
593.30	1409.70
593.65	1397.49
594.00	1385.50
594.35	1374.32
594.70	1362.31
595.05	1351.39
595.40	1340.32
595.75	1328.65
596.10	1317.75
596.45	1307.05
596.80	1296.84
597.15	1286.40
597.50	1276.00
597.85	1265.76
598.19	1255.72
598.54	1245.06
598.89	1235.18
599.24	1225.63
599.59	1215.82
599.94	1207.03
600.29	1198.11
600.64	1188.98
600.99	1179.27
601.34	1170.02
601.69	1160.18
602.04	1151.41
602.39	1142.44
602.74	1133.72
603.08	1125.26
603.43	1116.31
603.78	1107.29
604.13	1098.40
604.48	1089.45
604.83	1080.75
605.18	1071.96
605.53	1063.11
605.87	1054.41
606.22	1045.96
606.57	1037.23
606.92	1028.59
607.27	1019.85
607.62	1011.20
607.96	1002.72
608.31	995.21
608.66	987.28
609.01	979.77
609.36	972.22
609.70	964.46
610.05	956.53
610.40	948.94
610.75	941.49
611.10	934.30
611.44	926.70
611.79	919.42
612.14	911.78
612.49	904.27
612.83	897.24
613.18	890.25
613.53	883.06
613.88	875.97
614.22	869.44
614.57	862.74
614.92	856.04
615.27	849.39
615.61	842.59
615.96	836.02
616.31	829.38
616.65	822.62
617.00	816.12
617.35	809.76
617.70	803.42
618.04	797.15
618.39	790.89
618.74	784.97
619.08	778.86
619.43	773.02
619.78	767.20
620.12	761.19
620.47	755.35
620.82	749.60
621.16	744.16
621.51	738.38
621.85	732.59
622.20	726.84
622.55	721.27
622.89	715.64
623.24	710.06
623.59	704.54
623.93	699.10
624.28	693.78
624.62	688.46
624.97	683.12
625.32	677.90
625.66	672.54
626.01	667.17
626.35	661.95
626.70	656.75
627.04	651.73
627.39	646.77
627.73	641.93
628.08	637.29
628.43	632.55
628.77	627.86
629.12	623.30
629.46	618.93
629.81	614.38
630.15	609.71
630.50	605.20
630.84	600.88
631.19	596.74
631.53	592.65
631.88	588.43
632.22	584.31
632.57	580.42
632.91	576.49
633.26	572.65
633.60	568.87
633.95	565.18
634.29	561.39
634.64	557.54
634.98	553.60
635.32	549.83
635.67	546.19
636.01	542.50
636.36	538.85
636.70	535.33
637.05	531.80
637.39	528.48
637.73	525.04
638.08	521.65
638.42	518.23
638.77	514.67
639.11	511.15
639.45	507.65
639.80	504.13
640.14	500.81
640.49	497.43
640.83	493.96
641.17	490.53
641.52	487.26
641.86	483.99
642.20	480.87
642.55	477.60
642.89	474.42
643.23	471.44
643.58	468.67
643.92	465.80
644.26	462.96
644.61	460.09
644.95	457.24
645.29	454.34
645.64	451.42
645.98	448.63
646.32	446.00
646.66	443.37
647.01	440.72
647.35	438.13
647.69	435.43
648.04	432.88
648.38	430.37
648.72	427.81
649.06	425.32
649.41	422.86
649.75	420.40
650.09	417.95
650.43	415.52
650.78	413.07
651.12	410.60
651.46	408.24
651.80	405.96
652.14	403.77
652.49	401.58
652.83	399.45
653.17	397.31
653.51	395.22
653.85	393.20
654.20	391.13
654.54	388.97
654.88	387.00
655.22	385.09
655.56	383.14
655.90	381.28
656.25	379.44
656.59	377.60
656.93	375.84
657.27	374.14
657.61	372.33
657.95	370.59
658.29	368.85
658.64	367.15
658.98	365.43
659.32	363.72
659.66	362.12
660.00	360.54
660.34	358.99
660.68	357.38
661.02	355.71
661.36	354.15
661.70	352.66
662.05	351.15
662.39	349.62
662.73	348.19
663.07	346.78
663.41	345.38
663.75	344.02
664.09	342.65
664.43	341.21
664.77	339.87
665.11	338.46
665.45	337.13
665.79	335.79
666.13	334.45
666.47	333.09
666.81	331.71
667.15	330.31
667.49	329.00
667.83	327.74
668.17	326.52
668.51	325.33
668.85	324.14
669.19	323.03
669.53	321.85
669.87	320.65
670.21	319.47
670.55	318.31
670.89	317.22
671.23	316.10
671.57	314.99
671.91	313.94
672.25	312.95
672.58	311.95
672.92	310.91
673.26	309.94
673.60	308.98
673.94	308.01
674.28	307.10
674.62	306.17
674.96	305.23
675.30	304.32
675.64	303.40
675.97	302.49
676.31	301.54
676.65	300.63
676.99	299.77
677.33	298.86
677.67	298.00
678.01	297.05
678.34	296.19
678.68	295.38
679.02	294.54
679.36	293.70
679.70	292.87
680.04	292.07
680.37	291.26
680.71	290.49
681.05	289.76
681.39	288.98
681.73	288.18
682.06	287.40
682.40	286.64
682.74	285.91
683.08	285.21
683.42	284.48
683.75	283.82
684.09	283.08
684.43	282.40
684.77	281.70
685.10	281.05
685.44	280.38
685.78	279.70
686.12	279.05
686.45	278.40
686.79	277.74
687.13	277.11
687.46	276.45
687.80	275.81
688.14	275.14
688.48	274.52
688.81	273.90
689.15	273.34
689.49	272.72
689.82	272.13
690.16	271.48
690.50	270.89
690.83	270.31
691.17	269.74
691.51	269.19
691.84	268.65
692.18	268.09
692.52	267.51
692.85	266.95
693.19	266.43
693.52	265.90
693.86	265.37
694.20	264.85
694.53	264.36
694.87	263.84
695.21	263.36
695.54	262.87
695.88	262.37
696.21	261.84
696.55	261.36
696.88	260.88
697.22	260.41
697.56	259.96
697.89	259.44
698.23	258.96
698.56	258.46
698.90	258.01
699.23	257.54
699.57	257.12
699.90	256.69
700.24	256.22
700.58	255.79
700.91	255.40
701.25	255.07
701.58	254.71
701.92	254.34
702.25	253.95
702.59	253.54
702.92	253.16
703.26	252.79
703.59	252.41
703.93	252.12
704.26	251.77
704.60	251.40
704.93	251.06
705.26	250.72
705.60	250.41
705.93	250.04
706.27	249.75
706.60	249.44
706.94	249.14
707.27	248.79
707.61	248.45
707.94	248.10
708.27	247.69
708.61	247.32
708.94	246.99
709.28	246.67
709.61	246.37
709.94	246.08
710.28	245.80
710.61	245.53
710.95	245.16
711.28	244.95
711.61	244.67
711.95	244.43
712.28	244.16
712.61	243.88
712.95	243.68
713.28	243.46
713.61	243.20
713.95	242.92
714.28	242.70
714.61	242.46
714.95	242.22
715.28	241.98
715.61	241.74
715.95	241.52
716.28	241.30
716.61	241.10
716.95	240.86
717.28	240.64
717.61	240.42
717.94	240.21
718.28	239.93
718.61	239.72
718.94	239.49
719.27	239.30
719.61	239.11
719.94	238.89
720.27	238.64
720.60	238.45
720.94	238.26
721.27	238.08
721.60	237.92
721.93	237.74
722.27	237.60
722.60	237.44
722.93	237.25
723.26	237.09
723.59	236.90
723.93	236.75
724.26	236.60
724.59	236.43
724.92	236.28
725.25	236.16
725.59	236.00
725.92	235.87
726.25	235.72
726.58	235.57
726.91	235.42
727.24	235.29
727.57	235.15
727.91	234.99
728.24	234.86
728.57	234.71
728.90	234.58
729.23	234.41
729.56	234.32
729.89	234.19
730.22	234.05
730.55	233.93
730.89	233.79
731.22	233.65
731.55	233.52
731.88	233.40
732.21	233.25
732.54	233.13
732.87	233.00
733.20	232.89
733.53	232.78
733.86	232.68
734.19	232.55
734.52	232.46
734.85	232.42
735.18	232.29
735.51	232.21
735.84	232.11
736.17	232.04
736.50	231.88
736.83	231.90
737.16	231.81
737.49	231.71
737.82	231.62
738.15	231.54
738.48	231.45
738.81	231.34
739.14	231.24
739.47	231.14
739.80	231.04
740.13	230.95
740.46	230.85
740.79	230.74
741.12	230.65
741.45	230.54
741.78	230.39
742.11	230.34
742.44	230.22
742.77	230.15
743.10	230.04
743.43	229.96
743.75	229.76
744.08	229.83
744.41	229.74
744.74	229.66
745.07	229.55
745.40	229.49
745.73	229.46
746.06	229.39
746.39	229.34
746.71	229.25
747.04	229.17
747.37	229.10
747.70	229.05
748.03	228.98
748.36	228.93
748.68	228.86
749.01	228.76
749.34	228.70
749.67	228.63
750.00	228.58
750.33	228.60
750.65	228.54
750.98	228.32
751.31	228.26
751.64	228.20
751.97	228.20
752.29	228.13
752.62	228.02
752.95	227.95
753.28	227.87
753.60	227.80
753.93	227.77
754.26	227.72
754.59	227.62
754.91	227.55
755.24	227.47
755.57	227.46
755.90	227.40
756.22	227.34
756.55	227.26
756.88	227.18
757.20	227.05
757.53	226.97
757.86	226.91
758.19	226.87
758.51	226.81
758.84	226.71
759.17	226.64
759.49	226.60
759.82	226.60
760.15	226.57
760.47	226.52
760.80	226.44
761.13	226.42
761.45	226.37
761.78	226.34
762.11	226.29
762.43	226.19
762.76	226.15
763.08	226.12
763.41	226.09
763.74	226.05
764.06	226.01
764.39	225.97
764.71	225.93
765.04	225.88
765.37	225.83
765.69	225.79
766.02	225.75
766.34	225.70
766.67	225.62
767.00	225.60
767.32	225.62
767.65	225.64
767.97	225.59
768.30	225.56
768.62	225.52
768.95	225.47
769.27	225.43
769.60	225.41
769.92	225.35
770.25	225.30
770.57	225.25
770.90	225.21
771.22	225.17
771.55	225.14
771.87	225.12
772.20	225.09
772.52	225.14
772.85	225.24
773.17	225.21
773.50	225.17
773.82	225.13
774.15	225.04
774.47	224.95
774.80	224.91
775.12	224.88
775.45	224.85
775.77	224.84
776.09	224.82
776.42	224.79
776.74	224.80
777.07	224.77
777.39	224.75
777.72	224.72
778.04	224.70
778.36	224.67
778.69	224.64
779.01	224.62
779.33	224.51
779.66	224.36
779.98	224.34
780.31	224.32
780.63	224.34
780.95	224.34
781.28	224.32
781.60	224.29
781.92	224.27
782.25	224.25
782.57	224.22
782.89	224.20
783.22	224.16
783.54	224.12
783.86	224.11
784.19	224.08
784.51	224.10
784.83	224.07
785.16	224.05
785.48	224.03
785.80	224.01
786.12	224.01
786.45	223.99
786.77	223.98
787.09	223.96
787.42	223.91
787.74	223.89
788.06	223.88
788.38	223.86
788.71	223.84
789.03	223.83
789.35	223.82
789.67	223.80
789.99	223.80
790.32	223.77
790.64	223.77
790.96	223.85
791.28	223.80
791.61	223.79
791.93	223.78
792.25	223.76
792.57	223.82
792.89	223.79
793.21	223.79
793.54	223.77
793.86	223.74
794.18	223.74
794.50	223.70
794.82	223.69
795.14	223.69
795.47	223.70
795.79	223.69
796.11	223.65
796.43	223.64
796.75	223.63
797.07	223.62
797.39	223.60
797.71	223.50
798.04	223.50
798.36	223.49
798.68	223.48
799.00	223.48
799.32	223.41
799.64	223.42
799.96	223.40
800.28	223.42
800.60	223.40
800.92	223.40
801.24	223.38
801.56	223.38
801.89	223.36
802.21	223.36
802.53	223.33
802.85	223.35
803.17	223.38
803.49	223.36
803.81	223.34
804.13	223.32
804.45	223.30
804.77	223.30
805.09	223.29
805.41	223.27
805.73	223.24
806.05	223.20
806.37	223.18
806.69	223.17
807.01	223.15
807.33	223.15
807.65	223.10
807.97	223.14
808.28	223.12
808.60	223.11
808.92	223.08
809.24	223.14
809.56	223.11
809.88	223.07
810.20	223.07
810.52	223.09
810.84	223.07
811.16	223.05
811.48	223.04
811.80	223.07
812.12	223.06
812.43	223.08
812.75	223.08
813.07	223.07
813.39	223.07
813.71	223.05
814.03	223.03
814.35	223.03
814.67	222.99
814.98	222.97
815.30	222.96
815.62	222.94
815.94	222.87
816.26	222.88
816.58	222.86
816.89	222.86
817.21	222.83
817.53	222.84
817.85	222.83
818.17	222.83
818.48	222.78
818.80	222.80
819.12	222.78
819.44	222.76
819.76	222.74
820.07	222.73
820.39	222.73
820.71	222.73
821.03	222.73
821.34	222.72
821.66	222.73
821.98	222.74
822.30	222.73
822.61	222.79
822.93	222.77
823.25	222.76
823.57	222.74
823.88	222.75
824.20	222.74
824.52	222.76
824.83	222.75
825.15	222.73
825.47	222.72
825.79	222.73
826.10	222.72
826.42	222.71
826.74	222.72
827.05	222.71
827.37	222.70
827.69	222.69
828.00	222.69
828.32	222.68
828.64	222.66
828.95	222.72
829.27	222.68
829.58	222.68
829.90	222.69
830.22	222.69
830.53	222.67
830.85	222.66
831.17	222.63
831.48	222.62
831.80	222.63
832.11	222.62
832.43	222.60
832.75	222.60
833.06	222.66
833.38	222.63
833.69	222.63
834.01	222.63
834.32	222.62
834.64	222.61
834.96	222.60
835.27	222.60
835.59	222.56
835.90	222.55
836.22	222.54
836.53	222.52
836.85	222.51
837.16	222.61
837.48	222.61
837.79	222.65
838.11	222.65
838.42	222.64
838.74	222.65
839.05	222.65
839.37	222.64
839.68	222.57
840.00	222.57
840.31	222.58
840.63	222.57
840.94	222.56
841.26	222.55
841.57	222.54
841.88	222.55
842.20	222.54
842.51	222.52
842.83	222.52
843.14	222.61
843.46	222.61
843.77	222.54
844.08	222.54
844.40	222.50
844.71	222.49
845.03	222.48
845.34	222.46
845.65	222.46
845.97	222.46
846.28	222.46
846.60	222.47
846.91	222.44
847.22	222.44
847.54	222.46
847.85	222.47
848.16	222.46
848.48	222.43
848.79	222.47
849.10	222.48
849.42	222.49
849.73	222.39
850.04	222.39
850.36	222.35
850.67	222.36
850.98	222.37
851.30	222.38
851.61	222.38
851.92	222.38
852.23	222.41
852.55	222.41
852.86	222.41
853.17	222.42
853.49	222.45
853.80	222.47
854.11	222.47
854.42	222.48
854.74	222.48
855.05	222.48
855.36	222.43
855.67	222.42
855.99	222.42
856.30	222.54
856.61	222.54
856.92	222.54
857.23	222.54
857.55	222.53
857.86	222.52
858.17	222.53
858.48	222.51
858.79	222.49
859.11	222.50
859.42	222.49
859.73	222.48
860.04	222.47
860.35	222.44
860.66	222.40
860.98	222.40
861.29	222.41
861.60	222.40
861.91	222.43
862.22	222.41
862.53	222.39
862.84	222.27
863.16	222.29
863.47	222.28
863.78	222.26
864.09	222.27
864.40	222.27
864.71	222.27
865.02	222.28
865.33	222.27
865.64	222.25
865.95	222.25
866.27	222.31
866.58	222.30
866.89	222.31
867.20	222.31
867.51	222.29
867.82	222.28
868.13	222.32
868.44	222.29
868.75	222.31
869.06	222.32
869.37	222.33
869.68	222.30
869.99	222.32
870.30	222.32
870.61	222.33
870.92	222.31
871.23	222.30
871.54	222.31
871.85	222.33
872.16	222.35
872.47	222.34
872.78	222.28
873.09	222.29
873.40	222.28
873.71	222.29
874.02	222.30
874.33	222.28
874.64	222.26
874.95	222.28
875.26	222.25
875.56	222.24
875.87	222.24
876.18	222.23
876.49	222.33
876.80	222.32
877.11	222.30
877.42	222.30
877.73	222.30
878.04	222.29
878.35	222.28
878.66	222.28
878.96	222.28
879.27	222.27
879.58	222.27
879.89	222.26
880.20	222.29
880.51	222.28
880.82	222.28
881.12	222.28
881.43	222.26
881.74	222.26
882.05	222.25
882.36	222.25
882.67	222.26
882.97	222.15
883.28	222.14
883.59	222.14
883.90	222.15
884.21	222.16
884.51	222.15
884.82	222.14
885.13	222.14
885.44	222.13
885.74	222.13
886.05	222.13
886.36	222.13
886.67	222.09
886.98	222.14
887.28	222.15
887.59	222.15
887.90	222.16
888.20	222.15
888.51	222.18
888.82	222.16
889.13	222.17
889.43	222.26
889.74	222.25
890.05	222.25
890.35	222.24
890.66	222.22
890.97	222.21
891.28	222.21
891.58	222.21
891.89	222.21
892.20	222.20
892.50	222.19
892.81	222.19
893.12	222.19
893.42	222.13
893.73	222.13
894.04	222.13
894.34	222.13
894.65	222.13
894.95	222.12
895.26	222.13
895.57	222.17
895.87	222.07
896.18	222.08
896.48	222.09
896.79	222.09
897.10	222.11
897.40	222.11
897.71	222.12
898.01	222.11
898.32	222.12
898.63	222.12
898.93	222.13
899.24	222.13
899.54	222.13
899.85	222.12
900.15	222.12
900.46	222.12
900.76	222.13
901.07	222.12
901.38	222.12
901.68	222.13
901.99	222.08
902.29	222.09
902.60	222.07
902.90	222.07
903.21	222.06
903.51	222.05
903.82	222.07
904.12	222.07
904.43	222.07
904.73	222.07
905.03	222.07
905.34	222.17
905.64	222.15
905.95	222.16
906.25	222.15
906.56	222.15
906.86	222.15
907.17	222.13
907.47	222.14
907.77	222.13
908.08	222.11
908.38	222.12
908.69	222.12
908.99	222.14
909.30	222.14
909.60	222.14
909.90	222.15
910.21	222.11
910.51	222.10
910.81	222.10
911.12	222.10
911.42	222.10
911.73	222.00
912.03	222.01
912.33	222.03
912.64	222.02
912.94	222.01
913.24	222.00
913.55	221.99
913.85	221.98
914.15	222.00
914.46	222.01
914.76	222.00
915.06	221.99
915.37	221.98
915.67	221.96
915.97	221.97
916.27	221.94
916.58	221.95
916.88	221.95
917.18	221.93
917.49	222.01
917.79	222.00
918.09	222.01
918.39	222.04
918.70	222.03
919.00	222.03
919.30	222.08
919.60	222.07
919.91	222.06
920.21	222.07
920.51	222.05
920.81	222.04
921.12	222.06
921.42	222.06
921.72	222.07
922.02	222.08
922.32	222.09
922.63	222.09
922.93	222.15
923.23	222.15
923.53	222.15
923.83	222.07
924.13	222.08
924.44	222.08
924.74	222.09
925.04	222.11
925.34	222.11
925.64	222.06
925.94	222.07
926.24	222.12
926.55	222.11
926.85	222.12
927.15	222.12
927.45	222.12
927.75	222.12
928.05	222.12
928.35	222.11
928.65	222.12
928.95	222.13
929.26	222.08
929.56	222.10
929.86	222.11
930.16	222.10
930.46	222.09
930.76	222.09
931.06	222.04
931.36	222.02
931.66	222.03
931.96	222.05
932.26	222.05
932.56	222.00
932.86	222.01
933.16	222.01
933.46	222.00
933.76	221.99
934.06	222.01
934.36	222.04
934.66	222.04
934.96	222.02
935.26	222.03
935.56	222.04
935.86	222.02
936.16	222.00
936.46	222.00
936.76	222.00
937.06	221.98
937.36	221.99
937.66	221.99
937.96	221.99
938.26	221.96
938.56	221.96
938.86	221.96
939.16	221.99
939.46	221.99
939.76	222.00
940.06	222.00
940.35	221.98
940.65	221.93
940.95	221.94
941.25	221.92
941.55	221.90
941.85	221.89
942.15	221.92
942.45	221.95
942.75	221.95
943.04	221.95
943.34	221.97
943.64	221.96
943.94	221.95
944.24	221.95
944.54	221.96
944.84	221.96
945.13	221.94
945.43	221.92
945.73	221.92
946.03	221.91
946.33	221.90
946.62	221.89
946.92	221.89
947.22	221.89
947.52	221.90
947.82	221.92
948.11	221.90
948.41	221.88
948.71	221.85
949.01	221.86
949.31	221.85
949.60	221.84
949.90	221.86
950.20	221.85
950.50	221.85
950.79	221.84
951.09	221.85
951.39	221.85
951.69	221.84
951.98	221.86
952.28	221.87
952.58	221.87
952.87	221.87
953.17	221.88
953.47	221.87
953.76	221.86
954.06	221.84
954.36	221.83
954.66	221.83
954.95	221.86
955.25	221.86
955.55	221.87
955.84	221.85
956.14	221.85
956.44	221.86
956.73	221.84
957.03	221.85
957.32	221.85
957.62	221.84
957.92	221.87
958.21	221.85
958.51	221.98
958.81	221.99
959.10	222.00
959.40	222.02
959.69	222.03
959.99	222.04
960.29	222.05
960.58	222.04
960.88	222.08
961.17	222.07
961.47	222.08
961.76	222.07
962.06	222.09
962.36	222.07
962.65	222.08
962.95	222.08
963.24	222.07
963.54	222.08
963.83	222.09
964.13	222.08
964.42	222.06
964.72	221.97
965.01	221.97
965.31	221.97
965.60	221.94
965.90	222.00
966.19	221.97
966.49	221.98
966.78	221.98
967.08	221.96
967.37	221.97
967.67	221.95
967.96	221.97
968.26	221.96
968.55	221.98
968.85	221.97
969.14	221.97
969.43	221.97
969.73	221.96
970.02	221.96
970.32	221.95
970.61	221.93
970.91	221.91
971.20	221.89
971.49	221.88
971.79	221.89
972.08	221.81
972.38	221.83
972.67	221.82
972.96	221.84
973.26	221.82
973.55	221.85
973.85	221.85
974.14	221.83
974.43	221.84
974.73	221.82
975.02	221.81
975.31	221.82
975.61	221.81
975.90	221.81
976.19	221.80
976.49	221.81
976.78	221.82
977.07	221.82
977.37	221.83
977.66	221.85
977.95	221.83
978.24	221.84
978.54	221.86
978.83	221.85
979.12	221.85
979.42	221.85
979.71	221.82
980.00	221.82
980.29	221.82
980.59	221.80
980.88	221.83
981.17	221.83
981.46	221.82
981.76	221.83
982.05	221.86
982.34	221.86
982.63	221.86
982.93	221.86
983.22	221.88
983.51	221.88
983.80	221.90
984.09	221.91
984.39	221.90
984.68	221.89
984.97	221.89
985.26	221.88
985.55	221.89
985.85	221.87
986.14	221.89
986.43	221.90
986.72	221.90
987.01	221.86
987.30	221.86
987.59	221.86
987.89	221.86
988.18	221.83
988.47	221.82
988.76	221.81
989.05	221.80
989.34	221.79
989.63	221.82
989.92	221.80
990.22	221.78
990.51	221.78
990.80	221.77
991.09	221.78
991.38	221.79
991.67	221.78
991.96	221.78
992.25	221.78
992.54	221.76
992.83	221.76
993.12	221.76
993.41	221.78
993.70	221.82
993.99	221.84
994.28	221.85
994.58	221.87
994.87	221.86
995.16	221.86
995.45	221.85
995.74	221.82
996.03	221.83
996.32	221.85
996.61	221.88
996.90	221.88
997.19	221.87
997.48	221.87
997.77	221.86
998.06	221.87
998.34	221.85
998.63	221.86
998.92	221.86
999.21	221.88
999.50	221.87
999.79	221.83
1000.08	221.83
1000.37	221.83
1000.66	221.81
1000.95	221.84
1001.24	221.85
1001.53	221.86
1001.82	221.86
1002.11	221.83
1002.40	221.84
1002.68	221.86
1002.97	221.93
1003.26	221.92
1003.55	221.90
1003.84	221.91
1004.13	221.95
1004.42	221.94
1004.71	221.95
1004.99	221.94
1005.28	221.96
1005.57	221.95
1005.86	221.94
1006.15	221.94
1006.44	221.92
1006.72	221.93
1007.01	221.91
1007.30	221.91
1007.59	221.90
1007.88	221.90
1008.17	221.91
1008.45	221.89
1008.74	221.85
1009.03	221.80
1009.32	221.80
1009.60	221.80
1009.89	221.80
1010.18	221.75
1010.47	221.75
1010.76	221.75
1011.04	221.75
1011.33	221.75
1011.62	221.76
1011.91	221.77
1012.19	221.77
1012.48	221.78
1012.77	221.78
1013.05	221.81
1013.34	221.82
1013.63	221.81
1013.92	221.82
1014.20	221.81
1014.49	221.82
1014.78	221.83
1015.06	221.79
1015.35	221.80
1015.64	221.81
1015.92	221.83
1016.21	221.84
1016.50	221.84
1016.78	221.85
1017.07	221.86
1017.36	221.84
1017.64	221.83
1017.93	221.84
1018.22	221.83
1018.50	221.83
1018.79	221.83
1019.08	221.79
1019.36	221.79
1019.65	221.78
1019.93	221.80
1020.22	221.82
1020.51	221.87
1020.79	221.86
1021.08	221.68
1021.36	221.68
1021.65	221.79
1021.94	221.71
1022.22	221.85
1022.51	221.58
1022.79	222.25
1023.08	221.92
1023.36	223.02
1023.65	221.57
>>>>>End Processed Spectral Data<<<<<
