SpectraSuite Data File
++++++++++++++++++++++++++++++++++++
Date: Thu Oct 01 12:27:21 EDT 2015
User: lab3
Dark Spectrum Present: No
Reference Spectrum Present: No
Number of Sampled Component Spectra: 1
Spectrometers: USB2E7196
Integration Time (usec): 36000 (USB2E7196)
Spectra Averaged: 10000 (USB2E7196)
Boxcar Smoothing: 10 (USB2E7196)
Correct for Electrical Dark: No (USB2E7196)
Strobe/Lamp Enabled: No (USB2E7196)
Correct for Detector Non-linearity: No (USB2E7196)
Correct for Stray Light: No (USB2E7196)
Number of Pixels in Processed Spectrum: 2048
>>>>>Begin Processed Spectral Data<<<<<
339.09	0.00
339.48	210.76
339.86	212.27
340.24	213.63
340.63	215.04
341.01	217.99
341.39	217.73
341.78	219.08
342.16	220.32
342.54	220.80
342.93	209.35
343.31	219.93
343.69	220.47
344.07	220.94
344.46	221.37
344.84	221.76
345.22	221.99
345.60	222.25
345.99	222.45
346.37	222.59
346.75	222.70
347.13	222.77
347.52	222.84
347.90	222.93
348.28	222.96
348.66	223.01
349.05	223.02
349.43	223.07
349.81	223.13
350.19	223.19
350.57	223.25
350.96	223.33
351.34	223.43
351.72	223.52
352.10	223.64
352.48	223.71
352.87	223.76
353.25	223.83
353.63	223.89
354.01	223.95
354.39	224.03
354.77	224.11
355.15	224.21
355.54	224.27
355.92	224.30
356.30	224.38
356.68	224.52
357.06	224.60
357.44	224.65
357.82	224.71
358.20	224.82
358.58	224.88
358.97	224.95
359.35	225.03
359.73	225.11
360.11	225.16
360.49	225.22
360.87	225.27
361.25	225.33
361.63	225.41
362.01	225.46
362.39	225.49
362.77	225.53
363.15	225.56
363.53	225.59
363.91	225.63
364.29	225.65
364.67	225.57
365.05	225.59
365.43	225.62
365.81	225.65
366.19	225.66
366.57	225.71
366.95	225.71
367.33	225.69
367.71	225.68
368.09	225.69
368.47	225.69
368.85	225.68
369.23	225.69
369.61	225.63
369.99	225.64
370.37	225.64
370.75	225.69
371.13	225.66
371.51	225.61
371.89	225.59
372.27	225.56
372.65	225.54
373.03	225.50
373.41	225.46
373.78	225.40
374.16	225.31
374.54	225.23
374.92	225.18
375.30	225.13
375.68	225.07
376.06	225.02
376.44	224.96
376.82	224.92
377.19	224.87
377.57	224.82
377.95	224.73
378.33	224.67
378.71	224.53
379.09	224.48
379.47	224.44
379.84	224.38
380.22	224.32
380.60	224.25
380.98	224.19
381.36	224.14
381.73	224.08
382.11	224.05
382.49	224.01
382.87	223.95
383.25	223.90
383.62	223.98
384.00	223.91
384.38	223.87
384.76	223.85
385.13	223.84
385.51	223.80
385.89	223.74
386.27	223.71
386.64	223.69
387.02	223.64
387.40	223.60
387.78	223.57
388.15	223.55
388.53	223.52
388.91	223.49
389.29	223.46
389.66	223.46
390.04	223.42
390.42	223.41
390.79	223.40
391.17	223.38
391.55	223.24
391.92	223.23
392.30	223.23
392.68	223.20
393.05	223.18
393.43	223.17
393.81	223.18
394.18	223.16
394.56	223.16
394.94	223.19
395.31	223.18
395.69	223.22
396.06	223.25
396.44	223.27
396.82	223.28
397.19	223.35
397.57	223.36
397.95	223.40
398.32	223.40
398.70	223.45
399.07	223.51
399.45	223.55
399.82	223.59
400.20	223.63
400.58	223.69
400.95	223.70
401.33	223.78
401.70	223.92
402.08	224.02
402.45	224.10
402.83	224.20
403.20	224.31
403.58	224.39
403.95	224.52
404.33	224.66
404.71	224.79
405.08	224.97
405.46	225.12
405.83	225.29
406.21	225.47
406.58	225.66
406.96	225.85
407.33	226.08
407.70	226.33
408.08	226.66
408.45	226.95
408.83	227.27
409.20	227.56
409.58	227.82
409.95	228.18
410.33	228.57
410.70	228.93
411.08	229.37
411.45	229.82
411.82	230.28
412.20	230.81
412.57	231.43
412.95	231.93
413.32	232.57
413.69	233.23
414.07	233.93
414.44	234.70
414.82	235.48
415.19	236.39
415.56	237.32
415.94	238.29
416.31	239.37
416.68	240.45
417.06	241.71
417.43	242.89
417.81	244.25
418.18	245.63
418.55	247.15
418.93	248.72
419.30	250.37
419.67	252.12
420.04	253.92
420.42	255.80
420.79	257.98
421.16	260.18
421.54	262.40
421.91	264.73
422.28	267.15
422.66	269.77
423.03	272.25
423.40	274.86
423.77	277.66
424.15	280.53
424.52	283.51
424.89	286.74
425.26	289.96
425.64	292.94
426.01	296.28
426.38	299.70
426.75	303.22
427.13	306.82
427.50	310.58
427.87	314.49
428.24	318.44
428.61	322.21
428.99	326.27
429.36	330.73
429.73	334.99
430.10	339.23
430.47	343.57
430.85	348.02
431.22	352.77
431.59	357.64
431.96	362.38
432.33	367.63
432.70	372.60
433.08	378.49
433.45	384.04
433.82	389.51
434.19	395.62
434.56	401.62
434.93	407.41
435.30	413.14
435.68	419.59
436.05	425.91
436.42	432.22
436.79	437.98
437.16	444.19
437.53	450.85
437.90	457.51
438.27	464.03
438.64	471.10
439.01	477.50
439.38	483.36
439.75	489.03
440.13	495.50
440.50	501.67
440.87	506.55
441.24	511.92
441.61	517.83
441.98	522.18
442.35	527.36
442.72	532.68
443.09	537.77
443.46	541.08
443.83	543.56
444.20	545.67
444.57	548.73
444.94	550.59
445.31	552.52
445.68	554.25
446.05	555.57
446.42	555.52
446.79	555.35
447.16	555.23
447.53	555.15
447.90	553.34
448.27	551.65
448.64	548.91
449.01	547.12
449.37	543.13
449.74	539.52
450.11	534.84
450.48	529.67
450.85	524.47
451.22	520.06
451.59	515.74
451.96	511.80
452.33	506.00
452.70	500.83
453.07	494.52
453.43	488.18
453.80	482.04
454.17	476.15
454.54	470.68
454.91	464.49
455.28	458.66
455.65	453.17
456.02	447.30
456.38	442.57
456.75	436.47
457.12	431.55
457.49	426.58
457.86	421.83
458.23	417.66
458.59	413.05
458.96	408.31
459.33	404.12
459.70	399.86
460.07	396.62
460.43	392.81
460.80	389.24
461.17	386.09
461.54	382.69
461.91	379.52
462.27	376.30
462.64	373.66
463.01	370.64
463.38	367.59
463.74	364.85
464.11	362.40
464.48	360.18
464.85	357.82
465.21	356.00
465.58	354.00
465.95	351.70
466.32	349.86
466.68	348.06
467.05	346.26
467.42	344.52
467.78	342.64
468.15	340.90
468.52	339.62
468.88	337.94
469.25	336.41
469.62	335.19
469.98	333.86
470.35	332.69
470.72	331.63
471.08	330.56
471.45	329.68
471.82	328.70
472.18	327.68
472.55	327.01
472.92	326.20
473.28	325.57
473.65	324.92
474.02	324.30
474.38	323.80
474.75	323.53
475.11	323.12
475.48	322.97
475.85	322.82
476.21	322.78
476.58	322.79
476.94	322.99
477.31	323.13
477.67	323.30
478.04	323.58
478.41	323.94
478.77	324.42
479.14	324.77
479.50	325.35
479.87	326.07
480.23	326.79
480.60	327.49
480.96	328.22
481.33	329.20
481.69	330.19
482.06	331.17
482.42	332.09
482.79	333.20
483.15	334.47
483.52	335.89
483.88	337.26
484.25	338.72
484.61	340.23
484.98	341.86
485.34	343.69
485.71	345.59
486.07	347.61
486.44	349.62
486.80	351.86
487.17	354.14
487.53	356.66
487.90	359.28
488.26	362.11
488.62	365.10
488.99	368.10
489.35	371.23
489.72	374.62
490.08	378.18
490.44	381.84
490.81	385.65
491.17	389.57
491.54	393.74
491.90	398.03
492.26	402.65
492.63	407.51
492.99	412.56
493.36	417.73
493.72	423.17
494.08	428.77
494.45	434.67
494.81	440.79
495.17	447.04
495.54	453.65
495.90	460.56
496.26	467.62
496.63	474.92
496.99	482.53
497.35	490.50
497.72	498.77
498.08	507.19
498.44	515.89
498.80	525.15
499.17	534.64
499.53	544.48
499.89	554.55
500.26	564.80
500.62	575.34
500.98	586.58
501.34	597.98
501.71	609.91
502.07	622.07
502.43	634.63
502.79	647.52
503.16	660.84
503.52	674.34
503.88	688.25
504.24	702.57
504.60	717.17
504.97	732.17
505.33	747.58
505.69	763.93
506.05	780.47
506.41	797.00
506.78	813.85
507.14	831.16
507.50	849.09
507.86	867.41
508.22	886.03
508.59	904.67
508.95	924.00
509.31	943.79
509.67	964.32
510.03	985.04
510.39	1005.99
510.75	1027.16
511.12	1048.65
511.48	1070.42
511.84	1092.29
512.20	1114.50
512.56	1137.83
512.92	1161.30
513.28	1184.48
513.64	1207.99
514.00	1231.94
514.37	1256.20
514.73	1280.52
515.09	1304.60
515.45	1329.13
515.81	1354.20
516.17	1379.31
516.53	1404.10
516.89	1428.91
517.25	1453.92
517.61	1479.13
517.97	1504.51
518.33	1529.64
518.69	1554.88
519.05	1580.38
519.41	1606.03
519.77	1631.92
520.13	1656.97
520.49	1682.22
520.85	1707.69
521.21	1733.06
521.57	1758.97
521.93	1784.17
522.29	1810.19
522.65	1835.95
523.01	1861.47
523.37	1886.18
523.73	1911.56
524.09	1937.14
524.45	1962.66
524.81	1987.61
525.17	2012.47
525.53	2036.87
525.89	2061.25
526.25	2085.88
526.61	2109.98
526.97	2134.29
527.33	2158.56
527.68	2182.64
528.04	2205.89
528.40	2228.95
528.76	2252.16
529.12	2274.34
529.48	2296.88
529.84	2317.52
530.20	2338.75
530.56	2359.59
530.91	2380.52
531.27	2400.94
531.63	2420.63
531.99	2439.80
532.35	2458.66
532.71	2477.59
533.07	2497.08
533.42	2515.09
533.78	2533.41
534.14	2551.73
534.50	2569.22
534.86	2587.28
535.21	2603.48
535.57	2619.55
535.93	2634.98
536.29	2649.19
536.65	2664.25
537.00	2678.16
537.36	2692.63
537.72	2706.01
538.08	2718.96
538.44	2730.79
538.79	2742.81
539.15	2753.21
539.51	2763.51
539.87	2773.47
540.22	2781.26
540.58	2789.23
540.94	2797.66
541.29	2804.63
541.65	2810.57
542.01	2816.00
542.37	2819.57
542.72	2825.12
543.08	2830.15
543.44	2834.95
543.79	2838.96
544.15	2841.98
544.51	2845.02
544.87	2847.13
545.22	2848.89
545.58	2849.76
545.94	2851.09
546.29	2850.89
546.65	2850.75
547.01	2850.79
547.36	2850.85
547.72	2851.07
548.07	2849.83
548.43	2847.96
548.79	2845.43
549.14	2842.90
549.50	2841.14
549.86	2838.33
550.21	2833.15
550.57	2828.37
550.92	2822.28
551.28	2816.78
551.64	2811.26
551.99	2806.07
552.35	2800.50
552.70	2794.45
553.06	2789.15
553.41	2783.37
553.77	2777.08
554.13	2771.54
554.48	2764.91
554.84	2756.72
555.19	2748.74
555.55	2740.19
555.90	2732.25
556.26	2725.27
556.61	2717.66
556.97	2707.78
557.32	2698.89
557.68	2690.38
558.03	2681.25
558.39	2672.82
558.74	2664.46
559.10	2654.90
559.45	2644.96
559.81	2635.42
560.16	2625.19
560.52	2614.57
560.87	2604.96
561.23	2594.88
561.58	2584.27
561.94	2573.47
562.29	2562.18
562.64	2551.54
563.00	2541.19
563.35	2530.72
563.71	2519.32
564.06	2507.42
564.42	2496.55
564.77	2485.35
565.12	2474.23
565.48	2462.90
565.83	2452.16
566.19	2441.48
566.54	2430.33
566.89	2418.40
567.25	2406.38
567.60	2395.18
567.96	2383.58
568.31	2370.51
568.66	2357.49
569.02	2345.52
569.37	2333.28
569.72	2321.55
570.08	2309.13
570.43	2296.19
570.78	2282.89
571.14	2269.42
571.49	2256.75
571.84	2244.35
572.20	2230.70
572.55	2217.42
572.90	2204.02
573.26	2189.62
573.61	2174.73
573.96	2160.23
574.31	2146.05
574.67	2132.06
575.02	2117.68
575.37	2102.81
575.72	2088.26
576.08	2074.28
576.43	2059.28
576.78	2044.42
577.13	2030.38
577.49	2016.23
577.84	2002.50
578.19	1987.97
578.54	1973.11
578.90	1957.75
579.25	1942.11
579.60	1927.86
579.95	1913.23
580.30	1898.62
580.66	1884.41
581.01	1869.82
581.36	1855.50
581.71	1841.78
582.06	1827.56
582.42	1813.42
582.77	1800.05
583.12	1786.29
583.47	1772.65
583.82	1759.13
584.17	1745.51
584.53	1731.66
584.88	1717.92
585.23	1703.76
585.58	1690.14
585.93	1676.97
586.28	1664.63
586.63	1652.07
586.98	1638.85
587.34	1625.83
587.69	1612.35
588.04	1599.15
588.39	1586.57
588.74	1573.54
589.09	1560.25
589.44	1546.92
589.79	1534.16
590.14	1521.27
590.49	1508.62
590.84	1495.81
591.19	1483.63
591.54	1470.93
591.89	1458.14
592.25	1445.67
592.60	1432.85
592.95	1420.59
593.30	1408.61
593.65	1396.38
594.00	1384.42
594.35	1373.19
594.70	1361.23
595.05	1350.34
595.40	1339.18
595.75	1327.47
596.10	1316.58
596.45	1305.90
596.80	1295.70
597.15	1285.28
597.50	1274.86
597.85	1264.62
598.19	1254.58
598.54	1243.95
598.89	1234.10
599.24	1224.52
599.59	1214.73
599.94	1205.97
600.29	1197.04
600.64	1187.89
600.99	1178.15
601.34	1168.89
601.69	1159.06
602.04	1150.28
602.39	1141.31
602.74	1132.61
603.08	1124.15
603.43	1115.20
603.78	1106.19
604.13	1097.29
604.48	1088.33
604.83	1079.64
605.18	1070.86
605.53	1062.02
605.87	1053.31
606.22	1044.84
606.57	1036.13
606.92	1027.51
607.27	1018.75
607.62	1010.11
607.96	1001.64
608.31	994.17
608.66	986.26
609.01	978.78
609.36	971.23
609.70	963.45
610.05	955.54
610.40	947.97
610.75	940.49
611.10	933.26
611.44	925.69
611.79	918.40
612.14	910.74
612.49	903.26
612.83	896.23
613.18	889.24
613.53	882.05
613.88	874.98
614.22	868.47
614.57	861.77
614.92	855.08
615.27	848.43
615.61	841.62
615.96	835.04
616.31	828.39
616.65	821.64
617.00	815.14
617.35	808.79
617.70	802.46
618.04	796.20
618.39	789.95
618.74	784.03
619.08	777.95
619.43	772.11
619.78	766.26
620.12	760.24
620.47	754.41
620.82	748.68
621.16	743.23
621.51	737.44
621.85	731.64
622.20	725.90
622.55	720.34
622.89	714.71
623.24	709.14
623.59	703.63
623.93	698.19
624.28	692.89
624.62	687.57
624.97	682.23
625.32	677.01
625.66	671.64
626.01	666.28
626.35	661.05
626.70	655.87
627.04	650.87
627.39	645.94
627.73	641.11
628.08	636.48
628.43	631.72
628.77	627.04
629.12	622.51
629.46	618.12
629.81	613.55
630.15	608.89
630.50	604.41
630.84	600.11
631.19	595.98
631.53	591.88
631.88	587.69
632.22	583.58
632.57	579.70
632.91	575.78
633.26	571.94
633.60	568.17
633.95	564.48
634.29	560.67
634.64	556.83
634.98	552.90
635.32	549.15
635.67	545.51
636.01	541.82
636.36	538.18
636.70	534.66
637.05	531.16
637.39	527.87
637.73	524.42
638.08	521.03
638.42	517.61
638.77	514.07
639.11	510.53
639.45	507.05
639.80	503.55
640.14	500.23
640.49	496.88
640.83	493.40
641.17	489.99
641.52	486.74
641.86	483.47
642.20	480.36
642.55	477.11
642.89	473.95
643.23	470.97
643.58	468.22
643.92	465.37
644.26	462.52
644.61	459.65
644.95	456.81
645.29	453.92
645.64	451.00
645.98	448.23
646.32	445.62
646.66	443.01
647.01	440.38
647.35	437.79
647.69	435.10
648.04	432.59
648.38	430.09
648.72	427.55
649.06	425.09
649.41	422.63
649.75	420.17
650.09	417.74
650.43	415.32
650.78	412.89
651.12	410.43
651.46	408.08
651.80	405.83
652.14	403.64
652.49	401.46
652.83	399.34
653.17	397.21
653.51	395.13
653.85	393.11
654.20	391.04
654.54	388.89
654.88	386.94
655.22	385.03
655.56	383.08
655.90	381.22
656.25	379.37
656.59	377.54
656.93	375.81
657.27	374.10
657.61	372.30
657.95	370.55
658.29	368.83
658.64	367.13
658.98	365.41
659.32	363.71
659.66	362.12
660.00	360.53
660.34	358.99
660.68	357.39
661.02	355.73
661.36	354.18
661.70	352.69
662.05	351.17
662.39	349.65
662.73	348.22
663.07	346.82
663.41	345.44
663.75	344.07
664.09	342.71
664.43	341.26
664.77	339.93
665.11	338.52
665.45	337.20
665.79	335.87
666.13	334.53
666.47	333.19
666.81	331.81
667.15	330.41
667.49	329.11
667.83	327.85
668.17	326.64
668.51	325.44
668.85	324.26
669.19	323.15
669.53	321.98
669.87	320.77
670.21	319.60
670.55	318.44
670.89	317.35
671.23	316.24
671.57	315.14
671.91	314.09
672.25	313.11
672.58	312.11
672.92	311.08
673.26	310.13
673.60	309.18
673.94	308.21
674.28	307.30
674.62	306.38
674.96	305.42
675.30	304.53
675.64	303.61
675.97	302.71
676.31	301.78
676.65	300.86
676.99	300.01
677.33	299.11
677.67	298.26
678.01	297.32
678.34	296.46
678.68	295.65
679.02	294.80
679.36	293.96
679.70	293.13
680.04	292.33
680.37	291.52
680.71	290.75
681.05	290.02
681.39	289.24
681.73	288.44
682.06	287.67
682.40	286.92
682.74	286.19
683.08	285.48
683.42	284.75
683.75	284.10
684.09	283.36
684.43	282.68
684.77	281.98
685.10	281.33
685.44	280.66
685.78	279.99
686.12	279.35
686.45	278.70
686.79	278.06
687.13	277.43
687.46	276.77
687.80	276.15
688.14	275.47
688.48	274.86
688.81	274.25
689.15	273.69
689.49	273.08
689.82	272.48
690.16	271.84
690.50	271.25
690.83	270.67
691.17	270.10
691.51	269.55
691.84	269.01
692.18	268.45
692.52	267.87
692.85	267.31
693.19	266.79
693.52	266.27
693.86	265.74
694.20	265.22
694.53	264.72
694.87	264.21
695.21	263.73
695.54	263.24
695.88	262.75
696.21	262.22
696.55	261.75
696.88	261.27
697.22	260.81
697.56	260.35
697.89	259.84
698.23	259.37
698.56	258.88
698.90	258.43
699.23	257.98
699.57	257.56
699.90	257.12
700.24	256.66
700.58	256.24
700.91	255.85
701.25	255.52
701.58	255.16
701.92	254.79
702.25	254.40
702.59	254.00
702.92	253.62
703.26	253.25
703.59	252.87
703.93	252.58
704.26	252.23
704.60	251.87
704.93	251.53
705.26	251.18
705.60	250.87
705.93	250.51
706.27	250.21
706.60	249.91
706.94	249.61
707.27	249.26
707.61	248.92
707.94	248.58
708.27	248.17
708.61	247.81
708.94	247.48
709.28	247.17
709.61	246.86
709.94	246.58
710.28	246.29
710.61	246.03
710.95	245.66
711.28	245.46
711.61	245.19
711.95	244.95
712.28	244.68
712.61	244.40
712.95	244.20
713.28	243.98
713.61	243.72
713.95	243.45
714.28	243.23
714.61	242.98
714.95	242.74
715.28	242.51
715.61	242.28
715.95	242.06
716.28	241.83
716.61	241.63
716.95	241.40
717.28	241.19
717.61	240.96
717.94	240.75
718.28	240.46
718.61	240.25
718.94	240.03
719.27	239.83
719.61	239.64
719.94	239.42
720.27	239.17
720.60	238.98
720.94	238.79
721.27	238.61
721.60	238.45
721.93	238.28
722.27	238.14
722.60	237.98
722.93	237.78
723.26	237.62
723.59	237.44
723.93	237.28
724.26	237.13
724.59	236.97
724.92	236.82
725.25	236.70
725.59	236.55
725.92	236.42
726.25	236.27
726.58	236.12
726.91	235.97
727.24	235.84
727.57	235.70
727.91	235.54
728.24	235.42
728.57	235.26
728.90	235.14
729.23	234.97
729.56	234.88
729.89	234.76
730.22	234.61
730.55	234.48
730.89	234.35
731.22	234.21
731.55	234.08
731.88	233.96
732.21	233.82
732.54	233.70
732.87	233.58
733.20	233.47
733.53	233.36
733.86	233.26
734.19	233.14
734.52	233.05
734.85	233.02
735.18	232.89
735.51	232.81
735.84	232.71
736.17	232.63
736.50	232.48
736.83	232.50
737.16	232.41
737.49	232.32
737.82	232.23
738.15	232.15
738.48	232.06
738.81	231.96
739.14	231.86
739.47	231.76
739.80	231.66
740.13	231.58
740.46	231.47
740.79	231.37
741.12	231.28
741.45	231.17
741.78	231.03
742.11	230.97
742.44	230.87
742.77	230.79
743.10	230.69
743.43	230.60
743.75	230.41
744.08	230.49
744.41	230.40
744.74	230.32
745.07	230.21
745.40	230.16
745.73	230.12
746.06	230.05
746.39	229.99
746.71	229.91
747.04	229.82
747.37	229.75
747.70	229.70
748.03	229.64
748.36	229.59
748.68	229.51
749.01	229.42
749.34	229.35
749.67	229.29
750.00	229.24
750.33	229.25
750.65	229.19
750.98	228.98
751.31	228.92
751.64	228.86
751.97	228.86
752.29	228.78
752.62	228.67
752.95	228.61
753.28	228.53
753.60	228.47
753.93	228.43
754.26	228.38
754.59	228.28
754.91	228.21
755.24	228.13
755.57	228.12
755.90	228.05
756.22	227.98
756.55	227.91
756.88	227.82
757.20	227.69
757.53	227.61
757.86	227.55
758.19	227.51
758.51	227.45
758.84	227.35
759.17	227.29
759.49	227.25
759.82	227.25
760.15	227.21
760.47	227.17
760.80	227.09
761.13	227.05
761.45	227.01
761.78	226.97
762.11	226.93
762.43	226.83
762.76	226.78
763.08	226.76
763.41	226.72
763.74	226.68
764.06	226.64
764.39	226.60
764.71	226.56
765.04	226.51
765.37	226.46
765.69	226.42
766.02	226.38
766.34	226.33
766.67	226.25
767.00	226.23
767.32	226.24
767.65	226.27
767.97	226.23
768.30	226.20
768.62	226.16
768.95	226.11
769.27	226.08
769.60	226.06
769.92	226.00
770.25	225.96
770.57	225.91
770.90	225.87
771.22	225.83
771.55	225.80
771.87	225.78
772.20	225.74
772.52	225.80
772.85	225.89
773.17	225.87
773.50	225.83
773.82	225.79
774.15	225.70
774.47	225.61
774.80	225.57
775.12	225.54
775.45	225.51
775.77	225.49
776.09	225.47
776.42	225.44
776.74	225.45
777.07	225.43
777.39	225.41
777.72	225.38
778.04	225.37
778.36	225.34
778.69	225.31
779.01	225.29
779.33	225.18
779.66	225.04
779.98	225.01
780.31	225.00
780.63	225.02
780.95	225.02
781.28	225.00
781.60	224.98
781.92	224.95
782.25	224.94
782.57	224.92
782.89	224.89
783.22	224.86
783.54	224.82
783.86	224.81
784.19	224.79
784.51	224.80
784.83	224.76
785.16	224.74
785.48	224.73
785.80	224.71
786.12	224.70
786.45	224.68
786.77	224.68
787.09	224.65
787.42	224.60
787.74	224.58
788.06	224.57
788.38	224.55
788.71	224.53
789.03	224.52
789.35	224.51
789.67	224.49
789.99	224.49
790.32	224.46
790.64	224.45
790.96	224.53
791.28	224.48
791.61	224.46
791.93	224.46
792.25	224.43
792.57	224.49
792.89	224.46
793.21	224.45
793.54	224.43
793.86	224.41
794.18	224.39
794.50	224.36
794.82	224.35
795.14	224.35
795.47	224.36
795.79	224.34
796.11	224.30
796.43	224.29
796.75	224.27
797.07	224.27
797.39	224.25
797.71	224.15
798.04	224.15
798.36	224.14
798.68	224.13
799.00	224.13
799.32	224.07
799.64	224.08
799.96	224.06
800.28	224.07
800.60	224.06
800.92	224.06
801.24	224.04
801.56	224.04
801.89	224.02
802.21	224.01
802.53	223.98
802.85	224.00
803.17	224.04
803.49	224.02
803.81	224.00
804.13	223.98
804.45	223.96
804.77	223.96
805.09	223.95
805.41	223.93
805.73	223.90
806.05	223.86
806.37	223.84
806.69	223.82
807.01	223.80
807.33	223.80
807.65	223.76
807.97	223.80
808.28	223.77
808.60	223.76
808.92	223.74
809.24	223.80
809.56	223.77
809.88	223.72
810.20	223.72
810.52	223.73
810.84	223.71
811.16	223.69
811.48	223.68
811.80	223.71
812.12	223.70
812.43	223.72
812.75	223.72
813.07	223.71
813.39	223.71
813.71	223.69
814.03	223.68
814.35	223.68
814.67	223.63
814.98	223.62
815.30	223.62
815.62	223.60
815.94	223.53
816.26	223.53
816.58	223.51
816.89	223.52
817.21	223.49
817.53	223.49
817.85	223.50
818.17	223.49
818.48	223.44
818.80	223.46
819.12	223.43
819.44	223.41
819.76	223.39
820.07	223.39
820.39	223.38
820.71	223.39
821.03	223.38
821.34	223.37
821.66	223.38
821.98	223.39
822.30	223.38
822.61	223.44
822.93	223.42
823.25	223.41
823.57	223.40
823.88	223.41
824.20	223.40
824.52	223.41
824.83	223.40
825.15	223.39
825.47	223.37
825.79	223.38
826.10	223.37
826.42	223.37
826.74	223.37
827.05	223.36
827.37	223.36
827.69	223.35
828.00	223.35
828.32	223.34
828.64	223.32
828.95	223.37
829.27	223.34
829.58	223.34
829.90	223.35
830.22	223.36
830.53	223.34
830.85	223.32
831.17	223.29
831.48	223.29
831.80	223.30
832.11	223.29
832.43	223.27
832.75	223.27
833.06	223.33
833.38	223.29
833.69	223.28
834.01	223.28
834.32	223.28
834.64	223.27
834.96	223.27
835.27	223.27
835.59	223.22
835.90	223.21
836.22	223.20
836.53	223.18
836.85	223.16
837.16	223.27
837.48	223.26
837.79	223.30
838.11	223.29
838.42	223.29
838.74	223.30
839.05	223.29
839.37	223.29
839.68	223.22
840.00	223.22
840.31	223.23
840.63	223.22
840.94	223.21
841.26	223.20
841.57	223.19
841.88	223.20
842.20	223.18
842.51	223.17
842.83	223.16
843.14	223.25
843.46	223.25
843.77	223.19
844.08	223.18
844.40	223.15
844.71	223.14
845.03	223.13
845.34	223.12
845.65	223.11
845.97	223.12
846.28	223.12
846.60	223.12
846.91	223.10
847.22	223.10
847.54	223.12
847.85	223.13
848.16	223.12
848.48	223.10
848.79	223.13
849.10	223.14
849.42	223.15
849.73	223.06
850.04	223.05
850.36	223.01
850.67	223.03
850.98	223.04
851.30	223.04
851.61	223.04
851.92	223.04
852.23	223.07
852.55	223.07
852.86	223.07
853.17	223.08
853.49	223.10
853.80	223.12
854.11	223.13
854.42	223.14
854.74	223.13
855.05	223.13
855.36	223.08
855.67	223.08
855.99	223.08
856.30	223.20
856.61	223.20
856.92	223.20
857.23	223.20
857.55	223.19
857.86	223.18
858.17	223.20
858.48	223.18
858.79	223.15
859.11	223.16
859.42	223.14
859.73	223.13
860.04	223.12
860.35	223.09
860.66	223.05
860.98	223.04
861.29	223.06
861.60	223.05
861.91	223.07
862.22	223.05
862.53	223.04
862.84	222.92
863.16	222.94
863.47	222.92
863.78	222.90
864.09	222.91
864.40	222.92
864.71	222.91
865.02	222.92
865.33	222.91
865.64	222.89
865.95	222.89
866.27	222.96
866.58	222.95
866.89	222.96
867.20	222.96
867.51	222.95
867.82	222.94
868.13	222.97
868.44	222.95
868.75	222.97
869.06	222.97
869.37	222.99
869.68	222.96
869.99	222.98
870.30	222.99
870.61	222.99
870.92	222.98
871.23	222.97
871.54	222.98
871.85	223.00
872.16	223.02
872.47	223.01
872.78	222.95
873.09	222.96
873.40	222.95
873.71	222.96
874.02	222.96
874.33	222.95
874.64	222.93
874.95	222.95
875.26	222.93
875.56	222.93
875.87	222.92
876.18	222.91
876.49	223.02
876.80	223.00
877.11	222.98
877.42	222.99
877.73	222.99
878.04	222.98
878.35	222.97
878.66	222.97
878.96	222.97
879.27	222.96
879.58	222.96
879.89	222.95
880.20	222.98
880.51	222.97
880.82	222.97
881.12	222.97
881.43	222.95
881.74	222.93
882.05	222.92
882.36	222.93
882.67	222.93
882.97	222.82
883.28	222.81
883.59	222.81
883.90	222.81
884.21	222.82
884.51	222.82
884.82	222.80
885.13	222.80
885.44	222.80
885.74	222.80
886.05	222.80
886.36	222.80
886.67	222.76
886.98	222.82
887.28	222.82
887.59	222.82
887.90	222.82
888.20	222.82
888.51	222.84
888.82	222.82
889.13	222.83
889.43	222.93
889.74	222.92
890.05	222.92
890.35	222.91
890.66	222.89
890.97	222.88
891.28	222.87
891.58	222.87
891.89	222.86
892.20	222.85
892.50	222.84
892.81	222.83
893.12	222.83
893.42	222.78
893.73	222.78
894.04	222.78
894.34	222.79
894.65	222.79
894.95	222.77
895.26	222.78
895.57	222.82
895.87	222.71
896.18	222.73
896.48	222.74
896.79	222.73
897.10	222.75
897.40	222.75
897.71	222.77
898.01	222.76
898.32	222.77
898.63	222.76
898.93	222.77
899.24	222.77
899.54	222.77
899.85	222.76
900.15	222.75
900.46	222.75
900.76	222.76
901.07	222.76
901.38	222.76
901.68	222.77
901.99	222.71
902.29	222.72
902.60	222.71
902.90	222.70
903.21	222.71
903.51	222.70
903.82	222.72
904.12	222.72
904.43	222.73
904.73	222.72
905.03	222.72
905.34	222.82
905.64	222.82
905.95	222.82
906.25	222.82
906.56	222.82
906.86	222.81
907.17	222.80
907.47	222.81
907.77	222.80
908.08	222.78
908.38	222.78
908.69	222.79
908.99	222.81
909.30	222.82
909.60	222.81
909.90	222.82
910.21	222.79
910.51	222.77
910.81	222.77
911.12	222.77
911.42	222.77
911.73	222.67
912.03	222.67
912.33	222.70
912.64	222.69
912.94	222.68
913.24	222.66
913.55	222.66
913.85	222.65
914.15	222.67
914.46	222.68
914.76	222.67
915.06	222.66
915.37	222.64
915.67	222.63
915.97	222.64
916.27	222.61
916.58	222.62
916.88	222.62
917.18	222.61
917.49	222.68
917.79	222.68
918.09	222.69
918.39	222.71
918.70	222.71
919.00	222.72
919.30	222.76
919.60	222.76
919.91	222.75
920.21	222.75
920.51	222.73
920.81	222.72
921.12	222.74
921.42	222.74
921.72	222.75
922.02	222.75
922.32	222.76
922.63	222.77
922.93	222.83
923.23	222.84
923.53	222.83
923.83	222.75
924.13	222.76
924.44	222.76
924.74	222.77
925.04	222.79
925.34	222.78
925.64	222.74
925.94	222.74
926.24	222.80
926.55	222.79
926.85	222.81
927.15	222.80
927.45	222.80
927.75	222.80
928.05	222.80
928.35	222.79
928.65	222.80
928.95	222.80
929.26	222.75
929.56	222.77
929.86	222.79
930.16	222.78
930.46	222.77
930.76	222.77
931.06	222.72
931.36	222.69
931.66	222.71
931.96	222.72
932.26	222.73
932.56	222.68
932.86	222.69
933.16	222.69
933.46	222.68
933.76	222.67
934.06	222.69
934.36	222.72
934.66	222.72
934.96	222.71
935.26	222.71
935.56	222.72
935.86	222.69
936.16	222.68
936.46	222.67
936.76	222.67
937.06	222.65
937.36	222.66
937.66	222.67
937.96	222.66
938.26	222.64
938.56	222.63
938.86	222.64
939.16	222.66
939.46	222.66
939.76	222.67
940.06	222.67
940.35	222.65
940.65	222.59
940.95	222.60
941.25	222.58
941.55	222.57
941.85	222.56
942.15	222.58
942.45	222.61
942.75	222.61
943.04	222.61
943.34	222.63
943.64	222.62
943.94	222.60
944.24	222.61
944.54	222.61
944.84	222.61
945.13	222.59
945.43	222.57
945.73	222.56
946.03	222.55
946.33	222.55
946.62	222.54
946.92	222.54
947.22	222.55
947.52	222.56
947.82	222.57
948.11	222.56
948.41	222.54
948.71	222.51
949.01	222.51
949.31	222.50
949.60	222.49
949.90	222.51
950.20	222.51
950.50	222.50
950.79	222.50
951.09	222.51
951.39	222.52
951.69	222.50
951.98	222.52
952.28	222.53
952.58	222.53
952.87	222.53
953.17	222.55
953.47	222.53
953.76	222.53
954.06	222.51
954.36	222.50
954.66	222.50
954.95	222.53
955.25	222.53
955.55	222.55
955.84	222.53
956.14	222.53
956.44	222.54
956.73	222.52
957.03	222.53
957.32	222.53
957.62	222.53
957.92	222.55
958.21	222.54
958.51	222.66
958.81	222.67
959.10	222.68
959.40	222.70
959.69	222.70
959.99	222.72
960.29	222.72
960.58	222.72
960.88	222.75
961.17	222.74
961.47	222.75
961.76	222.74
962.06	222.76
962.36	222.75
962.65	222.75
962.95	222.76
963.24	222.74
963.54	222.75
963.83	222.75
964.13	222.74
964.42	222.73
964.72	222.64
965.01	222.65
965.31	222.64
965.60	222.61
965.90	222.67
966.19	222.65
966.49	222.66
966.78	222.66
967.08	222.64
967.37	222.64
967.67	222.62
967.96	222.64
968.26	222.64
968.55	222.65
968.85	222.64
969.14	222.64
969.43	222.65
969.73	222.64
970.02	222.63
970.32	222.62
970.61	222.61
970.91	222.58
971.20	222.56
971.49	222.56
971.79	222.57
972.08	222.49
972.38	222.50
972.67	222.49
972.96	222.51
973.26	222.49
973.55	222.52
973.85	222.52
974.14	222.51
974.43	222.52
974.73	222.49
975.02	222.49
975.31	222.49
975.61	222.49
975.90	222.47
976.19	222.47
976.49	222.48
976.78	222.49
977.07	222.49
977.37	222.49
977.66	222.50
977.95	222.48
978.24	222.50
978.54	222.52
978.83	222.51
979.12	222.50
979.42	222.50
979.71	222.48
980.00	222.48
980.29	222.48
980.59	222.46
980.88	222.49
981.17	222.49
981.46	222.49
981.76	222.49
982.05	222.53
982.34	222.53
982.63	222.53
982.93	222.53
983.22	222.56
983.51	222.56
983.80	222.58
984.09	222.59
984.39	222.58
984.68	222.57
984.97	222.58
985.26	222.57
985.55	222.58
985.85	222.56
986.14	222.58
986.43	222.59
986.72	222.58
987.01	222.55
987.30	222.55
987.59	222.55
987.89	222.55
988.18	222.52
988.47	222.51
988.76	222.50
989.05	222.50
989.34	222.48
989.63	222.50
989.92	222.49
990.22	222.47
990.51	222.47
990.80	222.46
991.09	222.47
991.38	222.48
991.67	222.47
991.96	222.46
992.25	222.46
992.54	222.44
992.83	222.45
993.12	222.44
993.41	222.46
993.70	222.50
993.99	222.52
994.28	222.54
994.58	222.55
994.87	222.54
995.16	222.54
995.45	222.53
995.74	222.49
996.03	222.50
996.32	222.52
996.61	222.54
996.90	222.54
997.19	222.53
997.48	222.53
997.77	222.52
998.06	222.53
998.34	222.52
998.63	222.52
998.92	222.52
999.21	222.54
999.50	222.53
999.79	222.49
1000.08	222.49
1000.37	222.49
1000.66	222.47
1000.95	222.49
1001.24	222.50
1001.53	222.52
1001.82	222.52
1002.11	222.49
1002.40	222.50
1002.68	222.52
1002.97	222.59
1003.26	222.58
1003.55	222.56
1003.84	222.58
1004.13	222.61
1004.42	222.60
1004.71	222.60
1004.99	222.59
1005.28	222.62
1005.57	222.61
1005.86	222.60
1006.15	222.59
1006.44	222.57
1006.72	222.59
1007.01	222.57
1007.30	222.57
1007.59	222.56
1007.88	222.55
1008.17	222.56
1008.45	222.54
1008.74	222.50
1009.03	222.45
1009.32	222.45
1009.60	222.45
1009.89	222.44
1010.18	222.40
1010.47	222.39
1010.76	222.39
1011.04	222.39
1011.33	222.38
1011.62	222.39
1011.91	222.40
1012.19	222.41
1012.48	222.41
1012.77	222.41
1013.05	222.44
1013.34	222.44
1013.63	222.44
1013.92	222.45
1014.20	222.44
1014.49	222.45
1014.78	222.46
1015.06	222.42
1015.35	222.42
1015.64	222.44
1015.92	222.45
1016.21	222.46
1016.50	222.46
1016.78	222.47
1017.07	222.48
1017.36	222.46
1017.64	222.45
1017.93	222.45
1018.22	222.44
1018.50	222.44
1018.79	222.44
1019.08	222.40
1019.36	222.41
1019.65	222.40
1019.93	222.42
1020.22	222.44
1020.51	222.49
1020.79	222.48
1021.08	222.27
1021.36	222.29
1021.65	222.44
1021.94	222.35
1022.22	222.53
1022.51	222.22
1022.79	222.94
1023.08	222.58
1023.36	223.65
1023.65	222.20
>>>>>End Processed Spectral Data<<<<<
