SpectraSuite Data File
++++++++++++++++++++++++++++++++++++
Date: Wed Sep 30 14:56:18 EDT 2015
User: lab3
Dark Spectrum Present: No
Reference Spectrum Present: No
Number of Sampled Component Spectra: 1
Spectrometers: USB2E7196
Integration Time (usec): 36000 (USB2E7196)
Spectra Averaged: 1500 (USB2E7196)
Boxcar Smoothing: 10 (USB2E7196)
Correct for Electrical Dark: No (USB2E7196)
Strobe/Lamp Enabled: No (USB2E7196)
Correct for Detector Non-linearity: No (USB2E7196)
Correct for Stray Light: No (USB2E7196)
Number of Pixels in Processed Spectrum: 2048
>>>>>Begin Processed Spectral Data<<<<<
339.09	0.00
339.48	211.39
339.86	212.65
340.24	214.15
340.63	215.57
341.01	218.47
341.39	218.26
341.78	219.60
342.16	220.77
342.54	221.33
342.93	209.82
343.31	220.43
343.69	220.97
344.07	221.44
344.46	221.87
344.84	222.25
345.22	222.49
345.60	222.73
345.99	222.92
346.37	223.06
346.75	223.16
347.13	223.23
347.52	223.30
347.90	223.38
348.28	223.41
348.66	223.47
349.05	223.47
349.43	223.51
349.81	223.57
350.19	223.63
350.57	223.70
350.96	223.77
351.34	223.85
351.72	223.93
352.10	224.03
352.48	224.10
352.87	224.15
353.25	224.22
353.63	224.29
354.01	224.35
354.39	224.43
354.77	224.50
355.15	224.61
355.54	224.66
355.92	224.69
356.30	224.77
356.68	224.91
357.06	224.98
357.44	225.04
357.82	225.08
358.20	225.19
358.58	225.24
358.97	225.31
359.35	225.40
359.73	225.47
360.11	225.52
360.49	225.58
360.87	225.63
361.25	225.70
361.63	225.77
362.01	225.83
362.39	225.85
362.77	225.89
363.15	225.91
363.53	225.93
363.91	225.97
364.29	225.99
364.67	225.92
365.05	225.94
365.43	225.97
365.81	226.00
366.19	226.01
366.57	226.07
366.95	226.08
367.33	226.06
367.71	226.06
368.09	226.07
368.47	226.06
368.85	226.05
369.23	226.06
369.61	226.02
369.99	226.03
370.37	226.03
370.75	226.09
371.13	226.05
371.51	226.03
371.89	226.00
372.27	225.98
372.65	225.96
373.03	225.92
373.41	225.87
373.78	225.82
374.16	225.73
374.54	225.65
374.92	225.60
375.30	225.55
375.68	225.48
376.06	225.44
376.44	225.39
376.82	225.35
377.19	225.29
377.57	225.24
377.95	225.16
378.33	225.10
378.71	224.95
379.09	224.91
379.47	224.87
379.84	224.82
380.22	224.75
380.60	224.68
380.98	224.62
381.36	224.57
381.73	224.50
382.11	224.47
382.49	224.43
382.87	224.37
383.25	224.32
383.62	224.39
384.00	224.32
384.38	224.28
384.76	224.25
385.13	224.24
385.51	224.20
385.89	224.14
386.27	224.11
386.64	224.08
387.02	224.03
387.40	223.98
387.78	223.95
388.15	223.92
388.53	223.90
388.91	223.88
389.29	223.84
389.66	223.84
390.04	223.80
390.42	223.79
390.79	223.78
391.17	223.76
391.55	223.62
391.92	223.61
392.30	223.61
392.68	223.57
393.05	223.56
393.43	223.56
393.81	223.56
394.18	223.53
394.56	223.54
394.94	223.57
395.31	223.57
395.69	223.61
396.06	223.63
396.44	223.65
396.82	223.66
397.19	223.73
397.57	223.75
397.95	223.78
398.32	223.78
398.70	223.82
399.07	223.88
399.45	223.92
399.82	223.97
400.20	224.00
400.58	224.06
400.95	224.07
401.33	224.15
401.70	224.29
402.08	224.38
402.45	224.46
402.83	224.55
403.20	224.65
403.58	224.74
403.95	224.86
404.33	224.99
404.71	225.12
405.08	225.29
405.46	225.44
405.83	225.60
406.21	225.77
406.58	225.96
406.96	226.15
407.33	226.37
407.70	226.60
408.08	226.93
408.45	227.21
408.83	227.52
409.20	227.80
409.58	228.05
409.95	228.39
410.33	228.77
410.70	229.13
411.08	229.55
411.45	229.99
411.82	230.44
412.20	230.94
412.57	231.55
412.95	232.03
413.32	232.64
413.69	233.28
414.07	233.96
414.44	234.70
414.82	235.45
415.19	236.33
415.56	237.22
415.94	238.16
416.31	239.20
416.68	240.25
417.06	241.46
417.43	242.60
417.81	243.92
418.18	245.24
418.55	246.69
418.93	248.21
419.30	249.79
419.67	251.49
420.04	253.22
420.42	255.04
420.79	257.13
421.16	259.26
421.54	261.41
421.91	263.65
422.28	265.98
422.66	268.51
423.03	270.90
423.40	273.43
423.77	276.14
424.15	278.93
424.52	281.81
424.89	284.93
425.26	288.03
425.64	290.91
426.01	294.18
426.38	297.51
426.75	300.94
427.13	304.47
427.50	308.13
427.87	311.97
428.24	315.85
428.61	319.56
428.99	323.56
429.36	327.94
429.73	332.13
430.10	336.31
430.47	340.59
430.85	345.01
431.22	349.70
431.59	354.50
431.96	359.19
432.33	364.42
432.70	369.38
433.08	375.22
433.45	380.74
433.82	386.15
434.19	392.23
434.56	398.20
434.93	403.95
435.30	409.66
435.68	416.04
436.05	422.28
436.42	428.53
436.79	434.22
437.16	440.40
437.53	447.00
437.90	453.60
438.27	460.03
438.64	466.95
439.01	473.24
439.38	478.99
439.75	484.52
440.13	490.77
440.50	496.71
440.87	501.43
441.24	506.59
441.61	512.25
441.98	516.39
442.35	521.34
442.72	526.39
443.09	531.17
443.46	534.22
443.83	536.48
444.20	538.35
444.57	541.12
444.94	542.71
445.31	544.33
445.68	545.75
446.05	546.77
446.42	546.55
446.79	546.22
447.16	545.92
447.53	545.66
447.90	543.76
448.27	541.96
448.64	539.16
449.01	537.30
449.37	533.36
449.74	529.75
450.11	525.08
450.48	519.98
450.85	514.87
451.22	510.54
451.59	506.25
451.96	502.35
452.33	496.70
452.70	491.63
453.07	485.51
453.43	479.38
453.80	473.43
454.17	467.70
454.54	462.36
454.91	456.37
455.28	450.73
455.65	445.40
456.02	439.76
456.38	435.20
456.75	429.33
457.12	424.61
457.49	419.85
457.86	415.31
458.23	411.31
458.59	406.90
458.96	402.40
459.33	398.48
459.70	394.47
460.07	391.43
460.43	387.85
460.80	384.48
461.17	381.54
461.54	378.35
461.91	375.37
462.27	372.33
462.64	369.85
463.01	367.00
463.38	364.14
463.74	361.53
464.11	359.22
464.48	357.13
464.85	354.87
465.21	353.12
465.58	351.21
465.95	349.00
466.32	347.26
466.68	345.53
467.05	343.78
467.42	342.10
467.78	340.27
468.15	338.59
468.52	337.35
468.88	335.70
469.25	334.20
469.62	333.02
469.98	331.75
470.35	330.61
470.72	329.59
471.08	328.55
471.45	327.71
471.82	326.73
472.18	325.72
472.55	325.08
472.92	324.30
473.28	323.68
473.65	323.04
474.02	322.42
474.38	321.91
474.75	321.64
475.11	321.23
475.48	321.08
475.85	320.91
476.21	320.85
476.58	320.87
476.94	321.09
477.31	321.20
477.67	321.35
478.04	321.60
478.41	321.93
478.77	322.39
479.14	322.70
479.50	323.26
479.87	323.96
480.23	324.66
480.60	325.35
480.96	326.04
481.33	327.02
481.69	327.98
482.06	328.96
482.42	329.89
482.79	331.01
483.15	332.30
483.52	333.74
483.88	335.14
484.25	336.61
484.61	338.14
484.98	339.78
485.34	341.61
485.71	343.53
486.07	345.58
486.44	347.61
486.80	349.87
487.17	352.16
487.53	354.69
487.90	357.30
488.26	360.10
488.62	363.10
488.99	366.11
489.35	369.27
489.72	372.69
490.08	376.24
490.44	379.90
490.81	383.71
491.17	387.62
491.54	391.79
491.90	396.05
492.26	400.61
492.63	405.44
492.99	410.46
493.36	415.64
493.72	421.10
494.08	426.71
494.45	432.61
494.81	438.74
495.17	444.98
495.54	451.62
495.90	458.60
496.26	465.70
496.63	472.99
496.99	480.56
497.35	488.45
497.72	496.62
498.08	505.01
498.44	513.65
498.80	522.80
499.17	532.25
499.53	542.02
499.89	552.04
500.26	562.23
500.62	572.65
500.98	583.70
501.34	594.90
501.71	606.58
502.07	618.49
502.43	630.83
502.79	643.62
503.16	656.72
503.52	669.96
503.88	683.65
504.24	697.74
504.60	712.02
504.97	726.74
505.33	741.82
505.69	757.60
506.05	773.66
506.41	789.93
506.78	806.42
507.14	823.44
507.50	840.79
507.86	858.50
508.22	876.48
508.59	894.61
508.95	913.28
509.31	932.49
509.67	952.46
510.03	972.54
510.39	992.74
510.75	1013.10
511.12	1033.83
511.48	1054.76
511.84	1076.05
512.20	1097.56
512.56	1119.87
512.92	1142.28
513.28	1164.70
513.64	1187.39
514.00	1210.48
514.37	1234.16
514.73	1257.82
515.09	1281.28
515.45	1304.91
515.81	1328.80
516.17	1352.80
516.53	1376.65
516.89	1400.31
517.25	1423.90
517.61	1447.79
517.97	1471.94
518.33	1496.06
518.69	1520.34
519.05	1544.91
519.41	1569.40
519.77	1594.34
520.13	1618.54
520.49	1642.83
520.85	1667.06
521.21	1691.23
521.57	1715.94
521.93	1739.88
522.29	1764.18
522.65	1788.35
523.01	1812.62
523.37	1836.37
523.73	1860.66
524.09	1884.78
524.45	1909.03
524.81	1933.10
525.17	1956.50
525.53	1979.63
525.89	2002.69
526.25	2025.75
526.61	2047.48
526.97	2069.63
527.33	2091.54
527.68	2113.38
528.04	2134.79
528.40	2156.19
528.76	2177.24
529.12	2197.57
529.48	2218.38
529.84	2237.28
530.20	2256.73
530.56	2275.57
530.91	2294.99
531.27	2313.83
531.63	2331.95
531.99	2349.58
532.35	2366.74
532.71	2384.85
533.07	2403.27
533.42	2420.03
533.78	2437.23
534.14	2454.88
534.50	2471.43
534.86	2488.42
535.21	2503.45
535.57	2518.56
535.93	2533.07
536.29	2547.03
536.65	2560.51
537.00	2572.84
537.36	2586.14
537.72	2598.15
538.08	2610.22
538.44	2620.99
538.79	2631.29
539.15	2640.67
539.51	2650.02
539.87	2658.29
540.22	2664.16
540.58	2670.08
540.94	2676.58
541.29	2681.93
541.65	2687.04
542.01	2691.96
542.37	2694.96
542.72	2699.46
543.08	2702.85
543.44	2705.94
543.79	2708.28
544.15	2710.22
544.51	2711.75
544.87	2713.24
545.22	2714.36
545.58	2714.19
545.94	2714.00
546.29	2712.72
546.65	2711.67
547.01	2710.38
547.36	2709.56
547.72	2709.12
548.07	2707.47
548.43	2704.44
548.79	2701.08
549.14	2697.73
549.50	2694.56
549.86	2691.03
550.21	2686.36
550.57	2682.19
550.92	2676.70
551.28	2671.20
551.64	2665.67
551.99	2660.24
552.35	2653.57
552.70	2647.07
553.06	2641.48
553.41	2635.54
553.77	2629.32
554.13	2623.11
554.48	2615.56
554.84	2607.29
555.19	2598.80
555.55	2589.59
555.90	2581.60
556.26	2573.83
556.61	2565.09
556.97	2555.07
557.32	2545.27
557.68	2535.60
558.03	2525.59
558.39	2516.56
558.74	2508.18
559.10	2498.40
559.45	2488.54
559.81	2479.09
560.16	2469.01
560.52	2458.60
560.87	2448.47
561.23	2437.67
561.58	2427.33
561.94	2417.03
562.29	2406.20
562.64	2395.93
563.00	2385.90
563.35	2375.80
563.71	2364.79
564.06	2354.13
564.42	2343.66
564.77	2333.12
565.12	2322.34
565.48	2311.14
565.83	2299.68
566.19	2287.90
566.54	2276.70
566.89	2264.64
567.25	2252.64
567.60	2241.74
567.96	2230.25
568.31	2217.66
568.66	2205.64
569.02	2193.81
569.37	2182.38
569.72	2171.72
570.08	2159.96
570.43	2147.86
570.78	2135.46
571.14	2123.17
571.49	2110.56
571.84	2098.18
572.20	2085.01
572.55	2071.86
572.90	2059.14
573.26	2046.76
573.61	2033.59
573.96	2020.75
574.31	2008.45
574.67	1996.00
575.02	1982.39
575.37	1968.85
575.72	1955.81
576.08	1942.80
576.43	1929.23
576.78	1915.65
577.13	1901.78
577.49	1888.34
577.84	1875.19
578.19	1862.04
578.54	1848.51
578.90	1834.75
579.25	1820.77
579.60	1807.97
579.95	1795.40
580.30	1782.66
580.66	1769.25
581.01	1755.95
581.36	1742.26
581.71	1729.00
582.06	1716.02
582.42	1703.44
582.77	1690.80
583.12	1678.44
583.47	1666.38
583.82	1653.87
584.17	1640.65
584.53	1627.71
584.88	1614.93
585.23	1601.96
585.58	1589.06
585.93	1576.67
586.28	1564.80
586.63	1552.91
586.98	1540.51
587.34	1528.20
587.69	1515.32
588.04	1502.99
588.39	1491.10
588.74	1479.00
589.09	1467.22
589.44	1454.70
589.79	1442.38
590.14	1430.28
590.49	1418.07
590.84	1405.92
591.19	1394.44
591.54	1382.96
591.89	1371.23
592.25	1360.04
592.60	1348.51
592.95	1337.41
593.30	1326.18
593.65	1315.09
594.00	1304.12
594.35	1293.64
594.70	1282.36
595.05	1271.93
595.40	1261.23
595.75	1250.32
596.10	1240.07
596.45	1229.40
596.80	1219.48
597.15	1209.67
597.50	1199.80
597.85	1190.29
598.19	1180.79
598.54	1171.02
598.89	1161.85
599.24	1153.04
599.59	1144.16
599.94	1135.84
600.29	1127.11
600.64	1118.39
600.99	1109.04
601.34	1100.27
601.69	1091.30
602.04	1083.21
602.39	1074.74
602.74	1066.74
603.08	1059.08
603.43	1051.12
603.78	1043.12
604.13	1035.17
604.48	1027.01
604.83	1019.08
605.18	1011.04
605.53	1002.90
605.87	994.80
606.22	986.99
606.57	978.91
606.92	970.64
607.27	962.60
607.62	954.85
607.96	947.19
608.31	940.52
608.66	933.58
609.01	926.61
609.36	919.62
609.70	912.71
610.05	905.59
610.40	898.54
610.75	891.40
611.10	884.70
611.44	877.77
611.79	871.21
612.14	864.54
612.49	857.65
612.83	851.25
613.18	844.99
613.53	838.75
613.88	832.65
614.22	826.84
614.57	820.79
614.92	814.81
615.27	808.94
615.61	802.66
615.96	796.47
616.31	790.50
616.65	784.34
617.00	778.25
617.35	772.27
617.70	766.40
618.04	760.72
618.39	754.90
618.74	749.36
619.08	743.62
619.43	738.03
619.78	732.59
620.12	726.95
620.47	721.49
620.82	716.08
621.16	710.78
621.51	705.32
621.85	699.95
622.20	694.46
622.55	689.03
622.89	683.74
623.24	678.58
623.59	673.48
623.93	668.64
624.28	664.01
624.62	659.33
624.97	654.59
625.32	649.93
625.66	645.04
626.01	640.18
626.35	635.46
626.70	630.74
627.04	626.27
627.39	621.87
627.73	617.48
628.08	613.11
628.43	608.70
628.77	604.37
629.12	600.13
629.46	596.07
629.81	591.92
630.15	587.81
630.50	583.78
630.84	579.77
631.19	575.85
631.53	572.02
631.88	568.13
632.22	564.19
632.57	560.48
632.91	556.84
633.26	553.22
633.60	549.61
633.95	546.13
634.29	542.56
634.64	538.99
634.98	535.31
635.32	531.76
635.67	528.50
636.01	525.23
636.36	521.94
636.70	518.78
637.05	515.64
637.39	512.53
637.73	509.23
638.08	506.03
638.42	502.90
638.77	499.62
639.11	496.29
639.45	493.11
639.80	489.88
640.14	486.81
640.49	483.76
640.83	480.65
641.17	477.60
641.52	474.57
641.86	471.49
642.20	468.59
642.55	465.56
642.89	462.53
643.23	459.66
643.58	456.97
643.92	454.19
644.26	451.47
644.61	448.78
644.95	446.15
645.29	443.43
645.64	440.65
645.98	437.99
646.32	435.45
646.66	432.91
647.01	430.43
647.35	428.08
647.69	425.61
648.04	423.23
648.38	420.82
648.72	418.45
649.06	416.14
649.41	413.87
649.75	411.64
650.09	409.37
650.43	407.12
650.78	404.85
651.12	402.56
651.46	400.33
651.80	398.17
652.14	396.11
652.49	394.07
652.83	392.08
653.17	390.14
653.51	388.26
653.85	386.41
654.20	384.49
654.54	382.46
654.88	380.52
655.22	378.64
655.56	376.80
655.90	375.02
656.25	373.28
656.59	371.52
656.93	369.85
657.27	368.27
657.61	366.58
657.95	364.95
658.29	363.38
658.64	361.85
658.98	360.22
659.32	358.53
659.66	356.97
660.00	355.45
660.34	353.90
660.68	352.34
661.02	350.75
661.36	349.23
661.70	347.76
662.05	346.34
662.39	344.93
662.73	343.58
663.07	342.27
663.41	340.99
663.75	339.70
664.09	338.42
664.43	337.05
664.77	335.75
665.11	334.37
665.45	333.06
665.79	331.76
666.13	330.54
666.47	329.37
666.81	328.15
667.15	326.87
667.49	325.67
667.83	324.51
668.17	323.37
668.51	322.27
668.85	321.18
669.19	320.14
669.53	319.00
669.87	317.81
670.21	316.68
670.55	315.56
670.89	314.54
671.23	313.48
671.57	312.46
671.91	311.49
672.25	310.59
672.58	309.69
672.92	308.74
673.26	307.85
673.60	306.94
673.94	306.04
674.28	305.19
674.62	304.32
674.96	303.41
675.30	302.58
675.64	301.71
675.97	300.85
676.31	299.98
676.65	299.17
676.99	298.44
677.33	297.61
677.67	296.81
678.01	295.95
678.34	295.15
678.68	294.38
679.02	293.60
679.36	292.80
679.70	292.01
680.04	291.24
680.37	290.45
680.71	289.72
681.05	289.02
681.39	288.29
681.73	287.58
682.06	286.89
682.40	286.18
682.74	285.52
683.08	284.87
683.42	284.20
683.75	283.56
684.09	282.86
684.43	282.22
684.77	281.58
685.10	280.97
685.44	280.35
685.78	279.72
686.12	279.12
686.45	278.53
686.79	277.90
687.13	277.30
687.46	276.67
687.80	276.07
688.14	275.45
688.48	274.89
688.81	274.29
689.15	273.75
689.49	273.15
689.82	272.56
690.16	271.92
690.50	271.34
690.83	270.76
691.17	270.20
691.51	269.65
691.84	269.12
692.18	268.56
692.52	268.00
692.85	267.46
693.19	266.95
693.52	266.42
693.86	265.90
694.20	265.39
694.53	264.91
694.87	264.41
695.21	263.91
695.54	263.40
695.88	262.89
696.21	262.37
696.55	261.89
696.88	261.43
697.22	260.98
697.56	260.55
697.89	260.09
698.23	259.67
698.56	259.22
698.90	258.82
699.23	258.39
699.57	257.98
699.90	257.56
700.24	257.12
700.58	256.72
700.91	256.36
701.25	256.05
701.58	255.70
701.92	255.34
702.25	254.96
702.59	254.56
702.92	254.21
703.26	253.85
703.59	253.48
703.93	253.20
704.26	252.86
704.60	252.49
704.93	252.12
705.26	251.75
705.60	251.42
705.93	251.04
706.27	250.75
706.60	250.44
706.94	250.16
707.27	249.82
707.61	249.47
707.94	249.13
708.27	248.72
708.61	248.36
708.94	248.03
709.28	247.73
709.61	247.44
709.94	247.17
710.28	246.89
710.61	246.63
710.95	246.27
711.28	246.07
711.61	245.79
711.95	245.56
712.28	245.29
712.61	245.01
712.95	244.82
713.28	244.59
713.61	244.31
713.95	244.02
714.28	243.78
714.61	243.53
714.95	243.28
715.28	243.04
715.61	242.81
715.95	242.59
716.28	242.36
716.61	242.15
716.95	241.92
717.28	241.69
717.61	241.46
717.94	241.25
718.28	240.97
718.61	240.76
718.94	240.54
719.27	240.35
719.61	240.17
719.94	239.95
720.27	239.70
720.60	239.53
720.94	239.34
721.27	239.15
721.60	239.00
721.93	238.83
722.27	238.69
722.60	238.52
722.93	238.33
723.26	238.17
723.59	237.97
723.93	237.81
724.26	237.66
724.59	237.49
724.92	237.33
725.25	237.20
725.59	237.04
725.92	236.91
726.25	236.75
726.58	236.60
726.91	236.44
727.24	236.30
727.57	236.14
727.91	235.98
728.24	235.86
728.57	235.70
728.90	235.57
729.23	235.40
729.56	235.32
729.89	235.19
730.22	235.05
730.55	234.93
730.89	234.80
731.22	234.66
731.55	234.54
731.88	234.42
732.21	234.28
732.54	234.14
732.87	234.02
733.20	233.92
733.53	233.81
733.86	233.71
734.19	233.59
734.52	233.51
734.85	233.49
735.18	233.37
735.51	233.30
735.84	233.20
736.17	233.12
736.50	232.95
736.83	232.96
737.16	232.86
737.49	232.78
737.82	232.68
738.15	232.60
738.48	232.51
738.81	232.41
739.14	232.31
739.47	232.22
739.80	232.12
740.13	232.03
740.46	231.91
740.79	231.80
741.12	231.70
741.45	231.58
741.78	231.43
742.11	231.36
742.44	231.24
742.77	231.17
743.10	231.07
743.43	230.99
743.75	230.79
744.08	230.87
744.41	230.78
744.74	230.70
745.07	230.59
745.40	230.52
745.73	230.49
746.06	230.41
746.39	230.35
746.71	230.27
747.04	230.18
747.37	230.11
747.70	230.07
748.03	230.01
748.36	229.97
748.68	229.90
749.01	229.80
749.34	229.74
749.67	229.67
750.00	229.62
750.33	229.64
750.65	229.59
750.98	229.37
751.31	229.31
751.64	229.26
751.97	229.26
752.29	229.20
752.62	229.09
752.95	229.03
753.28	228.96
753.60	228.90
753.93	228.87
754.26	228.82
754.59	228.73
754.91	228.65
755.24	228.57
755.57	228.56
755.90	228.51
756.22	228.44
756.55	228.37
756.88	228.29
757.20	228.16
757.53	228.08
757.86	228.02
758.19	227.97
758.51	227.91
758.84	227.80
759.17	227.74
759.49	227.70
759.82	227.69
760.15	227.64
760.47	227.59
760.80	227.51
761.13	227.50
761.45	227.45
761.78	227.41
762.11	227.37
762.43	227.27
762.76	227.22
763.08	227.19
763.41	227.16
763.74	227.13
764.06	227.08
764.39	227.03
764.71	226.99
765.04	226.94
765.37	226.90
765.69	226.86
766.02	226.81
766.34	226.76
766.67	226.68
767.00	226.67
767.32	226.68
767.65	226.71
767.97	226.65
768.30	226.62
768.62	226.58
768.95	226.53
769.27	226.48
769.60	226.47
769.92	226.42
770.25	226.36
770.57	226.31
770.90	226.27
771.22	226.24
771.55	226.21
771.87	226.19
772.20	226.14
772.52	226.20
772.85	226.30
773.17	226.27
773.50	226.23
773.82	226.18
774.15	226.10
774.47	226.00
774.80	225.96
775.12	225.93
775.45	225.91
775.77	225.89
776.09	225.88
776.42	225.85
776.74	225.86
777.07	225.83
777.39	225.81
777.72	225.78
778.04	225.77
778.36	225.74
778.69	225.72
779.01	225.70
779.33	225.60
779.66	225.46
779.98	225.43
780.31	225.43
780.63	225.45
780.95	225.46
781.28	225.44
781.60	225.41
781.92	225.39
782.25	225.37
782.57	225.35
782.89	225.33
783.22	225.31
783.54	225.27
783.86	225.26
784.19	225.23
784.51	225.24
784.83	225.21
785.16	225.19
785.48	225.17
785.80	225.16
786.12	225.15
786.45	225.13
786.77	225.13
787.09	225.10
787.42	225.05
787.74	225.03
788.06	225.03
788.38	225.01
788.71	224.98
789.03	224.97
789.35	224.96
789.67	224.94
789.99	224.93
790.32	224.89
790.64	224.88
790.96	224.97
791.28	224.92
791.61	224.90
791.93	224.90
792.25	224.87
792.57	224.93
792.89	224.91
793.21	224.91
793.54	224.88
793.86	224.86
794.18	224.85
794.50	224.82
794.82	224.80
795.14	224.80
795.47	224.81
795.79	224.81
796.11	224.78
796.43	224.76
796.75	224.75
797.07	224.75
797.39	224.73
797.71	224.63
798.04	224.63
798.36	224.63
798.68	224.61
799.00	224.61
799.32	224.54
799.64	224.53
799.96	224.51
800.28	224.53
800.60	224.51
800.92	224.52
801.24	224.50
801.56	224.51
801.89	224.49
802.21	224.48
802.53	224.45
802.85	224.46
803.17	224.50
803.49	224.47
803.81	224.45
804.13	224.44
804.45	224.41
804.77	224.42
805.09	224.41
805.41	224.40
805.73	224.37
806.05	224.34
806.37	224.32
806.69	224.30
807.01	224.27
807.33	224.26
807.65	224.20
807.97	224.24
808.28	224.22
808.60	224.21
808.92	224.18
809.24	224.23
809.56	224.20
809.88	224.16
810.20	224.15
810.52	224.17
810.84	224.15
811.16	224.13
811.48	224.11
811.80	224.13
812.12	224.13
812.43	224.14
812.75	224.14
813.07	224.13
813.39	224.13
813.71	224.11
814.03	224.10
814.35	224.10
814.67	224.05
814.98	224.03
815.30	224.02
815.62	224.00
815.94	223.93
816.26	223.94
816.58	223.91
816.89	223.91
817.21	223.88
817.53	223.87
817.85	223.87
818.17	223.88
818.48	223.84
818.80	223.85
819.12	223.83
819.44	223.81
819.76	223.80
820.07	223.79
820.39	223.78
820.71	223.80
821.03	223.78
821.34	223.77
821.66	223.79
821.98	223.79
822.30	223.79
822.61	223.84
822.93	223.82
823.25	223.82
823.57	223.80
823.88	223.80
824.20	223.80
824.52	223.82
824.83	223.80
825.15	223.79
825.47	223.78
825.79	223.78
826.10	223.77
826.42	223.75
826.74	223.77
827.05	223.77
827.37	223.76
827.69	223.75
828.00	223.76
828.32	223.75
828.64	223.74
828.95	223.80
829.27	223.78
829.58	223.77
829.90	223.79
830.22	223.79
830.53	223.79
830.85	223.77
831.17	223.74
831.48	223.74
831.80	223.75
832.11	223.74
832.43	223.72
832.75	223.71
833.06	223.78
833.38	223.76
833.69	223.75
834.01	223.75
834.32	223.75
834.64	223.74
834.96	223.73
835.27	223.72
835.59	223.67
835.90	223.65
836.22	223.65
836.53	223.63
836.85	223.61
837.16	223.70
837.48	223.70
837.79	223.74
838.11	223.74
838.42	223.74
838.74	223.74
839.05	223.74
839.37	223.73
839.68	223.67
840.00	223.66
840.31	223.67
840.63	223.65
840.94	223.64
841.26	223.63
841.57	223.64
841.88	223.64
842.20	223.63
842.51	223.62
842.83	223.61
843.14	223.71
843.46	223.70
843.77	223.65
844.08	223.64
844.40	223.59
844.71	223.58
845.03	223.56
845.34	223.56
845.65	223.55
845.97	223.55
846.28	223.54
846.60	223.55
846.91	223.53
847.22	223.52
847.54	223.54
847.85	223.54
848.16	223.53
848.48	223.52
848.79	223.55
849.10	223.56
849.42	223.56
849.73	223.47
850.04	223.47
850.36	223.43
850.67	223.45
850.98	223.45
851.30	223.46
851.61	223.46
851.92	223.46
852.23	223.49
852.55	223.50
852.86	223.50
853.17	223.51
853.49	223.53
853.80	223.56
854.11	223.56
854.42	223.58
854.74	223.56
855.05	223.56
855.36	223.51
855.67	223.52
855.99	223.51
856.30	223.63
856.61	223.63
856.92	223.62
857.23	223.62
857.55	223.61
857.86	223.60
858.17	223.61
858.48	223.59
858.79	223.57
859.11	223.57
859.42	223.57
859.73	223.56
860.04	223.55
860.35	223.52
860.66	223.49
860.98	223.49
861.29	223.50
861.60	223.49
861.91	223.52
862.22	223.50
862.53	223.50
862.84	223.38
863.16	223.39
863.47	223.37
863.78	223.35
864.09	223.37
864.40	223.37
864.71	223.38
865.02	223.40
865.33	223.40
865.64	223.38
865.95	223.38
866.27	223.44
866.58	223.43
866.89	223.44
867.20	223.44
867.51	223.41
867.82	223.41
868.13	223.43
868.44	223.41
868.75	223.43
869.06	223.43
869.37	223.43
869.68	223.41
869.99	223.43
870.30	223.44
870.61	223.45
870.92	223.43
871.23	223.42
871.54	223.43
871.85	223.44
872.16	223.46
872.47	223.45
872.78	223.39
873.09	223.40
873.40	223.39
873.71	223.40
874.02	223.41
874.33	223.40
874.64	223.38
874.95	223.39
875.26	223.37
875.56	223.36
875.87	223.36
876.18	223.35
876.49	223.45
876.80	223.44
877.11	223.43
877.42	223.43
877.73	223.43
878.04	223.41
878.35	223.41
878.66	223.40
878.96	223.41
879.27	223.41
879.58	223.39
879.89	223.39
880.20	223.41
880.51	223.41
880.82	223.42
881.12	223.42
881.43	223.40
881.74	223.39
882.05	223.40
882.36	223.40
882.67	223.42
882.97	223.30
883.28	223.30
883.59	223.30
883.90	223.31
884.21	223.33
884.51	223.31
884.82	223.30
885.13	223.30
885.44	223.29
885.74	223.30
886.05	223.29
886.36	223.29
886.67	223.24
886.98	223.29
887.28	223.30
887.59	223.30
887.90	223.29
888.20	223.28
888.51	223.29
888.82	223.28
889.13	223.28
889.43	223.37
889.74	223.36
890.05	223.35
890.35	223.34
890.66	223.31
890.97	223.31
891.28	223.29
891.58	223.29
891.89	223.29
892.20	223.27
892.50	223.26
892.81	223.25
893.12	223.26
893.42	223.20
893.73	223.20
894.04	223.20
894.34	223.21
894.65	223.21
894.95	223.20
895.26	223.21
895.57	223.25
895.87	223.15
896.18	223.17
896.48	223.18
896.79	223.19
897.10	223.21
897.40	223.21
897.71	223.22
898.01	223.22
898.32	223.23
898.63	223.24
898.93	223.25
899.24	223.26
899.54	223.26
899.85	223.26
900.15	223.26
900.46	223.25
900.76	223.27
901.07	223.26
901.38	223.25
901.68	223.26
901.99	223.20
902.29	223.20
902.60	223.19
902.90	223.18
903.21	223.18
903.51	223.16
903.82	223.19
904.12	223.19
904.43	223.20
904.73	223.18
905.03	223.18
905.34	223.29
905.64	223.27
905.95	223.27
906.25	223.27
906.56	223.27
906.86	223.27
907.17	223.26
907.47	223.26
907.77	223.26
908.08	223.24
908.38	223.24
908.69	223.25
908.99	223.28
909.30	223.28
909.60	223.27
909.90	223.28
910.21	223.25
910.51	223.23
910.81	223.22
911.12	223.23
911.42	223.23
911.73	223.12
912.03	223.13
912.33	223.16
912.64	223.15
912.94	223.13
913.24	223.12
913.55	223.11
913.85	223.10
914.15	223.12
914.46	223.13
914.76	223.12
915.06	223.11
915.37	223.09
915.67	223.08
915.97	223.09
916.27	223.06
916.58	223.06
916.88	223.06
917.18	223.05
917.49	223.13
917.79	223.12
918.09	223.14
918.39	223.16
918.70	223.15
919.00	223.16
919.30	223.21
919.60	223.21
919.91	223.20
920.21	223.21
920.51	223.18
920.81	223.17
921.12	223.19
921.42	223.19
921.72	223.19
922.02	223.19
922.32	223.21
922.63	223.22
922.93	223.28
923.23	223.28
923.53	223.27
923.83	223.20
924.13	223.21
924.44	223.20
924.74	223.22
925.04	223.23
925.34	223.22
925.64	223.17
925.94	223.17
926.24	223.23
926.55	223.22
926.85	223.24
927.15	223.25
927.45	223.25
927.75	223.24
928.05	223.25
928.35	223.25
928.65	223.26
928.95	223.26
929.26	223.21
929.56	223.24
929.86	223.25
930.16	223.24
930.46	223.22
930.76	223.22
931.06	223.17
931.36	223.15
931.66	223.17
931.96	223.18
932.26	223.19
932.56	223.13
932.86	223.13
933.16	223.13
933.46	223.12
933.76	223.11
934.06	223.13
934.36	223.16
934.66	223.15
934.96	223.14
935.26	223.15
935.56	223.17
935.86	223.14
936.16	223.12
936.46	223.12
936.76	223.12
937.06	223.12
937.36	223.14
937.66	223.14
937.96	223.13
938.26	223.10
938.56	223.10
938.86	223.11
939.16	223.14
939.46	223.15
939.76	223.15
940.06	223.15
940.35	223.12
940.65	223.07
940.95	223.07
941.25	223.05
941.55	223.03
941.85	223.02
942.15	223.04
942.45	223.07
942.75	223.07
943.04	223.08
943.34	223.09
943.64	223.07
943.94	223.06
944.24	223.06
944.54	223.07
944.84	223.06
945.13	223.04
945.43	223.02
945.73	223.01
946.03	223.00
946.33	222.99
946.62	222.99
946.92	222.99
947.22	223.00
947.52	223.01
947.82	223.03
948.11	223.02
948.41	223.00
948.71	222.97
949.01	222.99
949.31	222.97
949.60	222.96
949.90	222.97
950.20	222.96
950.50	222.96
950.79	222.95
951.09	222.98
951.39	222.98
951.69	222.97
951.98	222.98
952.28	222.99
952.58	222.99
952.87	222.99
953.17	223.00
953.47	222.99
953.76	222.98
954.06	222.96
954.36	222.95
954.66	222.95
954.95	222.97
955.25	222.98
955.55	223.00
955.84	222.98
956.14	222.99
956.44	222.99
956.73	222.98
957.03	222.99
957.32	222.98
957.62	222.98
957.92	223.00
958.21	222.99
958.51	223.12
958.81	223.13
959.10	223.14
959.40	223.16
959.69	223.17
959.99	223.18
960.29	223.19
960.58	223.19
960.88	223.22
961.17	223.21
961.47	223.21
961.76	223.20
962.06	223.22
962.36	223.21
962.65	223.22
962.95	223.23
963.24	223.22
963.54	223.22
963.83	223.22
964.13	223.21
964.42	223.20
964.72	223.10
965.01	223.11
965.31	223.10
965.60	223.08
965.90	223.14
966.19	223.11
966.49	223.13
966.78	223.12
967.08	223.12
967.37	223.12
967.67	223.11
967.96	223.13
968.26	223.12
968.55	223.14
968.85	223.14
969.14	223.14
969.43	223.14
969.73	223.14
970.02	223.13
970.32	223.13
970.61	223.12
970.91	223.10
971.20	223.07
971.49	223.05
971.79	223.07
972.08	223.00
972.38	223.01
972.67	223.00
972.96	223.02
973.26	222.99
973.55	223.02
973.85	223.01
974.14	223.01
974.43	223.01
974.73	223.00
975.02	222.98
975.31	222.98
975.61	222.98
975.90	222.96
976.19	222.96
976.49	222.97
976.78	222.98
977.07	222.99
977.37	222.99
977.66	223.01
977.95	222.98
978.24	223.00
978.54	223.01
978.83	223.00
979.12	222.99
979.42	222.99
979.71	222.96
980.00	222.96
980.29	222.96
980.59	222.93
980.88	222.95
981.17	222.94
981.46	222.94
981.76	222.94
982.05	222.97
982.34	222.98
982.63	222.97
982.93	222.96
983.22	222.98
983.51	222.99
983.80	223.00
984.09	223.01
984.39	223.00
984.68	222.99
984.97	223.00
985.26	223.00
985.55	223.00
985.85	222.98
986.14	223.00
986.43	223.01
986.72	223.02
987.01	222.98
987.30	222.98
987.59	222.98
987.89	222.98
988.18	222.95
988.47	222.94
988.76	222.93
989.05	222.93
989.34	222.92
989.63	222.94
989.92	222.91
990.22	222.89
990.51	222.89
990.80	222.89
991.09	222.90
991.38	222.91
991.67	222.91
991.96	222.90
992.25	222.89
992.54	222.87
992.83	222.86
993.12	222.87
993.41	222.88
993.70	222.92
993.99	222.93
994.28	222.95
994.58	222.97
994.87	222.96
995.16	222.96
995.45	222.95
995.74	222.91
996.03	222.94
996.32	222.96
996.61	222.98
996.90	222.97
997.19	222.96
997.48	222.96
997.77	222.94
998.06	222.94
998.34	222.95
998.63	222.94
998.92	222.94
999.21	222.97
999.50	222.97
999.79	222.94
1000.08	222.93
1000.37	222.93
1000.66	222.92
1000.95	222.95
1001.24	222.95
1001.53	222.96
1001.82	222.95
1002.11	222.93
1002.40	222.93
1002.68	222.95
1002.97	223.02
1003.26	223.01
1003.55	222.99
1003.84	223.00
1004.13	223.04
1004.42	223.03
1004.71	223.03
1004.99	223.03
1005.28	223.03
1005.57	223.02
1005.86	223.00
1006.15	222.99
1006.44	222.98
1006.72	222.99
1007.01	222.97
1007.30	222.97
1007.59	222.95
1007.88	222.95
1008.17	222.96
1008.45	222.94
1008.74	222.90
1009.03	222.86
1009.32	222.86
1009.60	222.86
1009.89	222.86
1010.18	222.83
1010.47	222.83
1010.76	222.81
1011.04	222.81
1011.33	222.81
1011.62	222.82
1011.91	222.82
1012.19	222.82
1012.48	222.83
1012.77	222.82
1013.05	222.85
1013.34	222.84
1013.63	222.84
1013.92	222.85
1014.20	222.84
1014.49	222.84
1014.78	222.86
1015.06	222.83
1015.35	222.83
1015.64	222.84
1015.92	222.85
1016.21	222.85
1016.50	222.86
1016.78	222.89
1017.07	222.89
1017.36	222.88
1017.64	222.87
1017.93	222.89
1018.22	222.89
1018.50	222.88
1018.79	222.88
1019.08	222.85
1019.36	222.86
1019.65	222.85
1019.93	222.88
1020.22	222.89
1020.51	222.95
1020.79	222.93
1021.08	222.78
1021.36	222.53
1021.65	222.85
1021.94	222.89
1022.22	222.92
1022.51	222.65
1022.79	223.34
1023.08	223.00
1023.36	224.03
1023.65	222.69
>>>>>End Processed Spectral Data<<<<<
