SpectraSuite Data File
++++++++++++++++++++++++++++++++++++
Date: Thu Oct 01 00:16:15 EDT 2015
User: lab3
Dark Spectrum Present: No
Reference Spectrum Present: No
Number of Sampled Component Spectra: 1
Spectrometers: USB2E7196
Integration Time (usec): 36000 (USB2E7196)
Spectra Averaged: 10000 (USB2E7196)
Boxcar Smoothing: 10 (USB2E7196)
Correct for Electrical Dark: No (USB2E7196)
Strobe/Lamp Enabled: No (USB2E7196)
Correct for Detector Non-linearity: No (USB2E7196)
Correct for Stray Light: No (USB2E7196)
Number of Pixels in Processed Spectrum: 2048
>>>>>Begin Processed Spectral Data<<<<<
339.09	0.00
339.48	210.09
339.86	211.61
340.24	212.94
340.63	214.36
341.01	217.27
341.39	217.07
341.78	218.44
342.16	219.59
342.54	220.08
342.93	208.69
343.31	219.24
343.69	219.78
344.07	220.24
344.46	220.67
344.84	221.06
345.22	221.30
345.60	221.55
345.99	221.75
346.37	221.88
346.75	222.00
347.13	222.07
347.52	222.14
347.90	222.23
348.28	222.26
348.66	222.32
349.05	222.32
349.43	222.37
349.81	222.43
350.19	222.48
350.57	222.55
350.96	222.63
351.34	222.72
351.72	222.82
352.10	222.92
352.48	223.00
352.87	223.06
353.25	223.12
353.63	223.18
354.01	223.24
354.39	223.32
354.77	223.40
355.15	223.50
355.54	223.56
355.92	223.59
356.30	223.67
356.68	223.80
357.06	223.88
357.44	223.93
357.82	224.00
358.20	224.11
358.58	224.17
358.97	224.23
359.35	224.31
359.73	224.39
360.11	224.44
360.49	224.51
360.87	224.55
361.25	224.62
361.63	224.70
362.01	224.75
362.39	224.78
362.77	224.83
363.15	224.85
363.53	224.89
363.91	224.92
364.29	224.95
364.67	224.88
365.05	224.90
365.43	224.93
365.81	224.96
366.19	224.97
366.57	225.02
366.95	225.02
367.33	225.00
367.71	224.99
368.09	225.01
368.47	225.00
368.85	224.99
369.23	224.99
369.61	224.94
369.99	224.95
370.37	224.95
370.75	225.01
371.13	224.97
371.51	224.94
371.89	224.91
372.27	224.88
372.65	224.86
373.03	224.81
373.41	224.77
373.78	224.72
374.16	224.62
374.54	224.55
374.92	224.50
375.30	224.45
375.68	224.39
376.06	224.34
376.44	224.29
376.82	224.24
377.19	224.19
377.57	224.13
377.95	224.05
378.33	223.99
378.71	223.84
379.09	223.79
379.47	223.75
379.84	223.69
380.22	223.63
380.60	223.56
380.98	223.51
381.36	223.46
381.73	223.40
382.11	223.38
382.49	223.33
382.87	223.27
383.25	223.23
383.62	223.30
384.00	223.23
384.38	223.19
384.76	223.17
385.13	223.15
385.51	223.12
385.89	223.06
386.27	223.02
386.64	223.00
387.02	222.95
387.40	222.91
387.78	222.89
388.15	222.86
388.53	222.82
388.91	222.79
389.29	222.75
389.66	222.74
390.04	222.70
390.42	222.69
390.79	222.68
391.17	222.65
391.55	222.52
391.92	222.51
392.30	222.51
392.68	222.47
393.05	222.44
393.43	222.44
393.81	222.45
394.18	222.43
394.56	222.43
394.94	222.46
395.31	222.45
395.69	222.49
396.06	222.52
396.44	222.54
396.82	222.55
397.19	222.62
397.57	222.63
397.95	222.67
398.32	222.67
398.70	222.71
399.07	222.77
399.45	222.80
399.82	222.85
400.20	222.88
400.58	222.93
400.95	222.95
401.33	223.02
401.70	223.16
402.08	223.24
402.45	223.32
402.83	223.42
403.20	223.52
403.58	223.60
403.95	223.72
404.33	223.86
404.71	223.98
405.08	224.16
405.46	224.30
405.83	224.46
406.21	224.63
406.58	224.82
406.96	225.01
407.33	225.22
407.70	225.46
408.08	225.80
408.45	226.08
408.83	226.39
409.20	226.67
409.58	226.93
409.95	227.27
410.33	227.64
410.70	227.99
411.08	228.41
411.45	228.85
411.82	229.29
412.20	229.79
412.57	230.39
412.95	230.86
413.32	231.48
413.69	232.11
414.07	232.78
414.44	233.51
414.82	234.25
415.19	235.12
415.56	236.01
415.94	236.92
416.31	237.95
416.68	238.98
417.06	240.17
417.43	241.29
417.81	242.58
418.18	243.90
418.55	245.34
418.93	246.83
419.30	248.40
419.67	250.07
420.04	251.78
420.42	253.57
420.79	255.64
421.16	257.72
421.54	259.84
421.91	262.06
422.28	264.36
422.66	266.84
423.03	269.21
423.40	271.69
423.77	274.36
424.15	277.08
424.52	279.92
424.89	283.00
425.26	286.06
425.64	288.89
426.01	292.08
426.38	295.34
426.75	298.69
427.13	302.12
427.50	305.71
427.87	309.44
428.24	313.20
428.61	316.80
428.99	320.69
429.36	324.95
429.73	329.03
430.10	333.09
430.47	337.24
430.85	341.50
431.22	346.04
431.59	350.70
431.96	355.23
432.33	360.26
432.70	365.01
433.08	370.64
433.45	375.96
433.82	381.18
434.19	387.02
434.56	392.76
434.93	398.29
435.30	403.75
435.68	409.91
436.05	415.94
436.42	421.96
436.79	427.44
437.16	433.36
437.53	439.70
437.90	446.03
438.27	452.21
438.64	458.93
439.01	465.01
439.38	470.57
439.75	475.94
440.13	482.06
440.50	487.91
440.87	492.52
441.24	497.59
441.61	503.19
441.98	507.30
442.35	512.19
442.72	517.21
443.09	522.02
443.46	525.15
443.83	527.47
444.20	529.45
444.57	532.33
444.94	534.08
445.31	535.88
445.68	537.51
446.05	538.75
446.42	538.70
446.79	538.54
447.16	538.42
447.53	538.36
447.90	536.66
448.27	535.06
448.64	532.47
449.01	530.79
449.37	527.03
449.74	523.61
450.11	519.20
450.48	514.31
450.85	509.41
451.22	505.23
451.59	501.16
451.96	497.46
452.33	491.99
452.70	487.12
453.07	481.16
453.43	475.18
453.80	469.40
454.17	463.83
454.54	458.67
454.91	452.82
455.28	447.32
455.65	442.13
456.02	436.59
456.38	432.14
456.75	426.37
457.12	421.73
457.49	417.04
457.86	412.55
458.23	408.63
458.59	404.28
458.96	399.81
459.33	395.86
459.70	391.84
460.07	388.77
460.43	385.16
460.80	381.78
461.17	378.80
461.54	375.58
461.91	372.58
462.27	369.52
462.64	367.02
463.01	364.16
463.38	361.27
463.74	358.66
464.11	356.32
464.48	354.21
464.85	351.95
465.21	350.22
465.58	348.32
465.95	346.11
466.32	344.34
466.68	342.62
467.05	340.88
467.42	339.21
467.78	337.40
468.15	335.74
468.52	334.50
468.88	332.88
469.25	331.39
469.62	330.21
469.98	328.92
470.35	327.78
470.72	326.75
471.08	325.71
471.45	324.84
471.82	323.89
472.18	322.89
472.55	322.25
472.92	321.46
473.28	320.84
473.65	320.20
474.02	319.59
474.38	319.09
474.75	318.82
475.11	318.41
475.48	318.25
475.85	318.08
476.21	318.03
476.58	318.04
476.94	318.22
477.31	318.33
477.67	318.48
478.04	318.74
478.41	319.07
478.77	319.53
479.14	319.86
479.50	320.41
479.87	321.09
480.23	321.77
480.60	322.44
480.96	323.12
481.33	324.07
481.69	325.02
482.06	325.96
482.42	326.85
482.79	327.92
483.15	329.14
483.52	330.51
483.88	331.84
484.25	333.25
484.61	334.72
484.98	336.31
485.34	338.08
485.71	339.92
486.07	341.88
486.44	343.83
486.80	345.99
487.17	348.21
487.53	350.66
487.90	353.19
488.26	355.94
488.62	358.83
488.99	361.74
489.35	364.77
489.72	368.04
490.08	371.49
490.44	375.02
490.81	378.72
491.17	382.51
491.54	386.56
491.90	390.72
492.26	395.19
492.63	399.90
492.99	404.79
493.36	409.81
493.72	415.10
494.08	420.52
494.45	426.25
494.81	432.18
495.17	438.23
495.54	444.62
495.90	451.33
496.26	458.17
496.63	465.25
496.99	472.61
497.35	480.34
497.72	488.36
498.08	496.55
498.44	504.99
498.80	513.98
499.17	523.20
499.53	532.74
499.89	542.52
500.26	552.46
500.62	562.69
500.98	573.57
501.34	584.61
501.71	596.17
502.07	607.95
502.43	620.13
502.79	632.66
503.16	645.59
503.52	658.71
503.88	672.19
504.24	686.11
504.60	700.32
504.97	714.92
505.33	729.86
505.69	745.71
506.05	761.76
506.41	777.81
506.78	794.18
507.14	811.02
507.50	828.47
507.86	846.30
508.22	864.38
508.59	882.48
508.95	901.30
509.31	920.55
509.67	940.49
510.03	960.68
510.39	981.06
510.75	1001.67
511.12	1022.57
511.48	1043.82
511.84	1065.15
512.20	1086.77
512.56	1109.47
512.92	1132.45
513.28	1155.14
513.64	1178.14
514.00	1201.53
514.37	1225.27
514.73	1249.01
515.09	1272.59
515.45	1296.59
515.81	1321.16
516.17	1345.78
516.53	1370.09
516.89	1394.50
517.25	1419.06
517.61	1443.81
517.97	1468.78
518.33	1493.49
518.69	1518.35
519.05	1543.45
519.41	1568.69
519.77	1594.20
520.13	1618.96
520.49	1643.87
520.85	1668.98
521.21	1694.04
521.57	1719.72
521.93	1744.68
522.29	1770.49
522.65	1796.00
523.01	1821.31
523.37	1845.93
523.73	1871.15
524.09	1896.53
524.45	1921.83
524.81	1946.68
525.17	1971.42
525.53	1995.75
525.89	2020.13
526.25	2044.69
526.61	2068.70
526.97	2093.04
527.33	2117.29
527.68	2141.38
528.04	2164.60
528.40	2187.72
528.76	2211.03
529.12	2233.27
529.48	2255.89
529.84	2276.68
530.20	2298.06
530.56	2319.11
530.91	2340.21
531.27	2360.82
531.63	2380.80
531.99	2400.26
532.35	2419.37
532.71	2438.58
533.07	2458.42
533.42	2476.66
533.78	2495.36
534.14	2513.99
534.50	2531.77
534.86	2550.20
535.21	2566.79
535.57	2583.36
535.93	2599.13
536.29	2613.72
536.65	2629.11
537.00	2643.39
537.36	2658.20
537.72	2671.91
538.08	2685.38
538.44	2697.67
538.79	2710.15
539.15	2720.98
539.51	2731.76
539.87	2742.20
540.22	2750.54
540.58	2758.90
540.94	2767.92
541.29	2775.34
541.65	2781.83
542.01	2787.80
542.37	2791.90
542.72	2797.89
543.08	2803.34
543.44	2808.69
543.79	2813.14
544.15	2816.79
544.51	2820.39
544.87	2823.12
545.22	2825.43
545.58	2826.69
545.94	2828.43
546.29	2828.76
546.65	2829.28
547.01	2829.76
547.36	2830.40
547.72	2831.16
548.07	2830.48
548.43	2829.13
548.79	2827.16
549.14	2825.26
549.50	2823.88
549.86	2821.71
550.21	2817.05
550.57	2812.87
550.92	2807.29
551.28	2802.34
551.64	2797.24
551.99	2792.59
552.35	2787.48
552.70	2781.96
553.06	2777.20
553.41	2771.96
553.77	2766.14
554.13	2760.91
554.48	2754.89
554.84	2747.13
555.19	2739.57
555.55	2731.40
555.90	2723.78
556.26	2717.20
556.61	2709.97
556.97	2700.62
557.32	2692.09
557.68	2684.06
558.03	2675.30
558.39	2667.21
558.74	2659.38
559.10	2650.27
559.45	2640.85
559.81	2631.74
560.16	2621.97
560.52	2611.69
560.87	2602.43
561.23	2592.84
561.58	2582.75
561.94	2572.36
562.29	2561.53
562.64	2551.27
563.00	2541.37
563.35	2531.33
563.71	2520.39
564.06	2508.89
564.42	2498.46
564.77	2487.63
565.12	2476.92
565.48	2465.95
565.83	2455.66
566.19	2445.32
566.54	2434.65
566.89	2423.01
567.25	2411.33
567.60	2400.51
567.96	2389.30
568.31	2376.67
568.66	2363.92
569.02	2352.23
569.37	2340.36
569.72	2328.98
570.08	2316.86
570.43	2304.23
570.78	2291.32
571.14	2278.15
571.49	2265.80
571.84	2253.74
572.20	2240.38
572.55	2227.37
572.90	2214.27
573.26	2200.29
573.61	2185.73
573.96	2171.41
574.31	2157.49
574.67	2143.81
575.02	2129.69
575.37	2115.12
575.72	2100.84
576.08	2087.23
576.43	2072.54
576.78	2057.85
577.13	2043.97
577.49	2030.20
577.84	2016.76
578.19	2002.47
578.54	1987.81
578.90	1972.63
579.25	1957.18
579.60	1943.17
579.95	1928.82
580.30	1914.45
580.66	1900.37
581.01	1885.90
581.36	1871.82
581.71	1858.29
582.06	1844.26
582.42	1830.26
582.77	1817.04
583.12	1803.49
583.47	1789.92
583.82	1776.50
584.17	1762.99
584.53	1749.30
584.88	1735.57
585.23	1721.55
585.58	1708.03
585.93	1694.94
586.28	1682.68
586.63	1670.26
586.98	1657.07
587.34	1644.14
587.69	1630.72
588.04	1617.48
588.39	1604.96
588.74	1591.95
589.09	1578.67
589.44	1565.37
589.79	1552.64
590.14	1539.76
590.49	1527.06
590.84	1514.25
591.19	1502.11
591.54	1489.44
591.89	1476.65
592.25	1464.21
592.60	1451.33
592.95	1439.02
593.30	1427.00
593.65	1414.77
594.00	1402.71
594.35	1391.50
594.70	1379.44
595.05	1368.46
595.40	1357.37
595.75	1345.63
596.10	1334.67
596.45	1323.93
596.80	1313.64
597.15	1303.15
597.50	1292.66
597.85	1282.37
598.19	1272.28
598.54	1261.56
598.89	1251.59
599.24	1241.93
599.59	1232.01
599.94	1223.13
600.29	1214.15
600.64	1204.93
600.99	1195.15
601.34	1185.85
601.69	1175.90
602.04	1167.08
602.39	1158.05
602.74	1149.27
603.08	1140.75
603.43	1131.74
603.78	1122.60
604.13	1113.63
604.48	1104.58
604.83	1095.81
605.18	1086.93
605.53	1078.01
605.87	1069.21
606.22	1060.68
606.57	1051.89
606.92	1043.18
607.27	1034.34
607.62	1025.58
607.96	1017.01
608.31	1009.40
608.66	1001.38
609.01	993.81
609.36	986.17
609.70	978.34
610.05	970.32
610.40	962.65
610.75	955.12
611.10	947.85
611.44	940.18
611.79	932.83
612.14	925.10
612.49	917.50
612.83	910.39
613.18	903.36
613.53	896.12
613.88	888.95
614.22	882.38
614.57	875.66
614.92	868.89
615.27	862.16
615.61	855.29
615.96	848.65
616.31	841.93
616.65	835.09
617.00	828.50
617.35	822.05
617.70	815.63
618.04	809.27
618.39	802.93
618.74	796.93
619.08	790.74
619.43	784.82
619.78	778.94
620.12	772.84
620.47	766.90
620.82	761.04
621.16	755.51
621.51	749.64
621.85	743.75
622.20	737.92
622.55	732.28
622.89	726.58
623.24	720.92
623.59	715.34
623.93	709.80
624.28	704.41
624.62	699.01
624.97	693.58
625.32	688.27
625.66	682.83
626.01	677.39
626.35	672.08
626.70	666.81
627.04	661.71
627.39	656.67
627.73	651.74
628.08	647.05
628.43	642.23
628.77	637.48
629.12	632.86
629.46	628.43
629.81	623.81
630.15	619.06
630.50	614.48
630.84	610.08
631.19	605.87
631.53	601.71
631.88	597.42
632.22	593.24
632.57	589.31
632.91	585.33
633.26	581.43
633.60	577.61
633.95	573.88
634.29	570.02
634.64	566.11
634.98	562.12
635.32	558.28
635.67	554.57
636.01	550.81
636.36	547.08
636.70	543.49
637.05	539.90
637.39	536.52
637.73	533.00
638.08	529.55
638.42	526.08
638.77	522.45
639.11	518.84
639.45	515.27
639.80	511.67
640.14	508.27
640.49	504.83
640.83	501.29
641.17	497.77
641.52	494.43
641.86	491.10
642.20	487.91
642.55	484.59
642.89	481.34
643.23	478.29
643.58	475.48
643.92	472.55
644.26	469.65
644.61	466.73
644.95	463.83
645.29	460.87
645.64	457.88
645.98	455.03
646.32	452.34
646.66	449.66
647.01	446.97
647.35	444.31
647.69	441.54
648.04	438.91
648.38	436.32
648.72	433.69
649.06	431.13
649.41	428.61
649.75	426.08
650.09	423.58
650.43	421.09
650.78	418.57
651.12	416.04
651.46	413.61
651.80	411.28
652.14	409.03
652.49	406.78
652.83	404.60
653.17	402.40
653.51	400.27
653.85	398.20
654.20	396.07
654.54	393.86
654.88	391.84
655.22	389.89
655.56	387.90
655.90	386.01
656.25	384.11
656.59	382.22
656.93	380.43
657.27	378.67
657.61	376.83
657.95	375.03
658.29	373.25
658.64	371.51
658.98	369.74
659.32	367.99
659.66	366.36
660.00	364.73
660.34	363.13
660.68	361.47
661.02	359.76
661.36	358.15
661.70	356.62
662.05	355.07
662.39	353.51
662.73	352.03
663.07	350.58
663.41	349.15
663.75	347.74
664.09	346.34
664.43	344.86
664.77	343.48
665.11	342.03
665.45	340.67
665.79	339.30
666.13	337.92
666.47	336.53
666.81	335.11
667.15	333.66
667.49	332.32
667.83	331.03
668.17	329.77
668.51	328.54
668.85	327.32
669.19	326.18
669.53	324.96
669.87	323.72
670.21	322.52
670.55	321.33
670.89	320.20
671.23	319.06
671.57	317.92
671.91	316.83
672.25	315.81
672.58	314.79
672.92	313.72
673.26	312.74
673.60	311.75
673.94	310.75
674.28	309.81
674.62	308.88
674.96	307.90
675.30	306.98
675.64	306.04
675.97	305.11
676.31	304.14
676.65	303.20
676.99	302.33
677.33	301.39
677.67	300.51
678.01	299.55
678.34	298.66
678.68	297.83
679.02	296.96
679.36	296.10
679.70	295.25
680.04	294.44
680.37	293.60
680.71	292.80
681.05	292.05
681.39	291.25
681.73	290.42
682.06	289.63
682.40	288.85
682.74	288.09
683.08	287.37
683.42	286.62
683.75	285.95
684.09	285.20
684.43	284.50
684.77	283.78
685.10	283.11
685.44	282.42
685.78	281.72
686.12	281.07
686.45	280.39
686.79	279.72
687.13	279.07
687.46	278.39
687.80	277.74
688.14	277.05
688.48	276.42
688.81	275.79
689.15	275.21
689.49	274.58
689.82	273.97
690.16	273.31
690.50	272.70
690.83	272.10
691.17	271.51
691.51	270.94
691.84	270.39
692.18	269.81
692.52	269.22
692.85	268.65
693.19	268.11
693.52	267.57
693.86	267.03
694.20	266.49
694.53	265.99
694.87	265.46
695.21	264.96
695.54	264.46
695.88	263.95
696.21	263.40
696.55	262.91
696.88	262.41
697.22	261.93
697.56	261.46
697.89	260.93
698.23	260.43
698.56	259.92
698.90	259.45
699.23	258.97
699.57	258.52
699.90	258.07
700.24	257.59
700.58	257.15
700.91	256.74
701.25	256.40
701.58	256.02
701.92	255.64
702.25	255.23
702.59	254.81
702.92	254.42
703.26	254.03
703.59	253.64
703.93	253.33
704.26	252.97
704.60	252.59
704.93	252.23
705.26	251.87
705.60	251.55
705.93	251.18
706.27	250.87
706.60	250.54
706.94	250.23
707.27	249.87
707.61	249.52
707.94	249.16
708.27	248.73
708.61	248.35
708.94	248.00
709.28	247.67
709.61	247.35
709.94	247.05
710.28	246.76
710.61	246.48
710.95	246.10
711.28	245.88
711.61	245.59
711.95	245.34
712.28	245.06
712.61	244.76
712.95	244.55
713.28	244.32
713.61	244.04
713.95	243.75
714.28	243.52
714.61	243.26
714.95	243.01
715.28	242.76
715.61	242.51
715.95	242.28
716.28	242.04
716.61	241.83
716.95	241.59
717.28	241.36
717.61	241.12
717.94	240.91
718.28	240.61
718.61	240.39
718.94	240.15
719.27	239.94
719.61	239.74
719.94	239.51
720.27	239.25
720.60	239.05
720.94	238.86
721.27	238.67
721.60	238.49
721.93	238.31
722.27	238.16
722.60	237.99
722.93	237.80
723.26	237.63
723.59	237.43
723.93	237.26
724.26	237.10
724.59	236.93
724.92	236.77
725.25	236.64
725.59	236.48
725.92	236.35
726.25	236.20
726.58	236.04
726.91	235.88
727.24	235.75
727.57	235.60
727.91	235.43
728.24	235.30
728.57	235.15
728.90	235.02
729.23	234.84
729.56	234.74
729.89	234.61
730.22	234.46
730.55	234.32
730.89	234.18
731.22	234.03
731.55	233.89
731.88	233.76
732.21	233.61
732.54	233.48
732.87	233.35
733.20	233.24
733.53	233.13
733.86	233.02
734.19	232.89
734.52	232.79
734.85	232.75
735.18	232.61
735.51	232.53
735.84	232.41
736.17	232.33
736.50	232.17
736.83	232.19
737.16	232.09
737.49	232.00
737.82	231.90
738.15	231.82
738.48	231.73
738.81	231.63
739.14	231.52
739.47	231.41
739.80	231.31
740.13	231.21
740.46	231.10
740.79	230.99
741.12	230.90
741.45	230.78
741.78	230.63
742.11	230.58
742.44	230.46
742.77	230.38
743.10	230.28
743.43	230.19
743.75	229.99
744.08	230.07
744.41	229.97
744.74	229.88
745.07	229.77
745.40	229.71
745.73	229.67
746.06	229.60
746.39	229.54
746.71	229.46
747.04	229.37
747.37	229.30
747.70	229.24
748.03	229.18
748.36	229.12
748.68	229.05
749.01	228.94
749.34	228.87
749.67	228.80
750.00	228.75
750.33	228.76
750.65	228.71
750.98	228.49
751.31	228.43
751.64	228.37
751.97	228.37
752.29	228.29
752.62	228.17
752.95	228.10
753.28	228.02
753.60	227.95
753.93	227.91
754.26	227.86
754.59	227.76
754.91	227.68
755.24	227.61
755.57	227.59
755.90	227.53
756.22	227.46
756.55	227.38
756.88	227.30
757.20	227.17
757.53	227.08
757.86	227.02
758.19	226.98
758.51	226.92
758.84	226.81
759.17	226.75
759.49	226.71
759.82	226.71
760.15	226.67
760.47	226.63
760.80	226.55
761.13	226.52
761.45	226.47
761.78	226.43
762.11	226.39
762.43	226.29
762.76	226.25
763.08	226.22
763.41	226.18
763.74	226.14
764.06	226.10
764.39	226.07
764.71	226.02
765.04	225.97
765.37	225.92
765.69	225.88
766.02	225.84
766.34	225.79
766.67	225.71
767.00	225.68
767.32	225.70
767.65	225.73
767.97	225.68
768.30	225.65
768.62	225.61
768.95	225.56
769.27	225.52
769.60	225.50
769.92	225.44
770.25	225.39
770.57	225.33
770.90	225.30
771.22	225.26
771.55	225.22
771.87	225.20
772.20	225.17
772.52	225.23
772.85	225.32
773.17	225.29
773.50	225.25
773.82	225.20
774.15	225.11
774.47	225.02
774.80	224.98
775.12	224.95
775.45	224.91
775.77	224.90
776.09	224.88
776.42	224.85
776.74	224.86
777.07	224.83
777.39	224.81
777.72	224.78
778.04	224.77
778.36	224.73
778.69	224.71
779.01	224.69
779.33	224.58
779.66	224.44
779.98	224.40
780.31	224.39
780.63	224.41
780.95	224.40
781.28	224.38
781.60	224.35
781.92	224.33
782.25	224.31
782.57	224.28
782.89	224.25
783.22	224.22
783.54	224.18
783.86	224.17
784.19	224.14
784.51	224.15
784.83	224.12
785.16	224.10
785.48	224.07
785.80	224.05
786.12	224.04
786.45	224.02
786.77	224.01
787.09	223.99
787.42	223.93
787.74	223.92
788.06	223.91
788.38	223.89
788.71	223.87
789.03	223.85
789.35	223.85
789.67	223.83
789.99	223.82
790.32	223.79
790.64	223.79
790.96	223.87
791.28	223.82
791.61	223.80
791.93	223.79
792.25	223.77
792.57	223.83
792.89	223.80
793.21	223.80
793.54	223.77
793.86	223.75
794.18	223.74
794.50	223.70
794.82	223.69
795.14	223.69
795.47	223.70
795.79	223.69
796.11	223.65
796.43	223.64
796.75	223.62
797.07	223.62
797.39	223.60
797.71	223.50
798.04	223.49
798.36	223.49
798.68	223.48
799.00	223.47
799.32	223.41
799.64	223.42
799.96	223.40
800.28	223.42
800.60	223.40
800.92	223.40
801.24	223.39
801.56	223.38
801.89	223.36
802.21	223.35
802.53	223.32
802.85	223.34
803.17	223.38
803.49	223.35
803.81	223.33
804.13	223.31
804.45	223.30
804.77	223.29
805.09	223.28
805.41	223.27
805.73	223.24
806.05	223.20
806.37	223.18
806.69	223.16
807.01	223.14
807.33	223.14
807.65	223.09
807.97	223.13
808.28	223.11
808.60	223.10
808.92	223.08
809.24	223.14
809.56	223.11
809.88	223.06
810.20	223.06
810.52	223.08
810.84	223.06
811.16	223.05
811.48	223.03
811.80	223.06
812.12	223.05
812.43	223.07
812.75	223.07
813.07	223.05
813.39	223.05
813.71	223.03
814.03	223.01
814.35	223.02
814.67	222.97
814.98	222.96
815.30	222.95
815.62	222.93
815.94	222.86
816.26	222.86
816.58	222.84
816.89	222.84
817.21	222.81
817.53	222.82
817.85	222.81
818.17	222.81
818.48	222.76
818.80	222.78
819.12	222.75
819.44	222.73
819.76	222.72
820.07	222.71
820.39	222.71
820.71	222.71
821.03	222.71
821.34	222.70
821.66	222.71
821.98	222.71
822.30	222.70
822.61	222.76
822.93	222.74
823.25	222.74
823.57	222.72
823.88	222.73
824.20	222.72
824.52	222.73
824.83	222.72
825.15	222.71
825.47	222.70
825.79	222.70
826.10	222.70
826.42	222.69
826.74	222.70
827.05	222.69
827.37	222.69
827.69	222.68
828.00	222.68
828.32	222.68
828.64	222.66
828.95	222.71
829.27	222.67
829.58	222.68
829.90	222.69
830.22	222.69
830.53	222.67
830.85	222.66
831.17	222.63
831.48	222.63
831.80	222.63
832.11	222.62
832.43	222.60
832.75	222.60
833.06	222.66
833.38	222.63
833.69	222.62
834.01	222.62
834.32	222.61
834.64	222.60
834.96	222.59
835.27	222.59
835.59	222.55
835.90	222.54
836.22	222.53
836.53	222.50
836.85	222.49
837.16	222.59
837.48	222.59
837.79	222.62
838.11	222.62
838.42	222.62
838.74	222.63
839.05	222.62
839.37	222.62
839.68	222.55
840.00	222.55
840.31	222.56
840.63	222.55
840.94	222.53
841.26	222.52
841.57	222.51
841.88	222.52
842.20	222.50
842.51	222.48
842.83	222.48
843.14	222.57
843.46	222.57
843.77	222.50
844.08	222.50
844.40	222.46
844.71	222.45
845.03	222.44
845.34	222.42
845.65	222.42
845.97	222.42
846.28	222.42
846.60	222.43
846.91	222.41
847.22	222.40
847.54	222.42
847.85	222.43
848.16	222.42
848.48	222.39
848.79	222.43
849.10	222.45
849.42	222.45
849.73	222.35
850.04	222.35
850.36	222.31
850.67	222.33
850.98	222.33
851.30	222.34
851.61	222.34
851.92	222.34
852.23	222.37
852.55	222.37
852.86	222.37
853.17	222.38
853.49	222.40
853.80	222.42
854.11	222.43
854.42	222.44
854.74	222.43
855.05	222.43
855.36	222.38
855.67	222.38
855.99	222.37
856.30	222.49
856.61	222.49
856.92	222.50
857.23	222.50
857.55	222.48
857.86	222.47
858.17	222.49
858.48	222.47
858.79	222.44
859.11	222.45
859.42	222.44
859.73	222.43
860.04	222.42
860.35	222.39
860.66	222.36
860.98	222.35
861.29	222.36
861.60	222.35
861.91	222.38
862.22	222.36
862.53	222.35
862.84	222.22
863.16	222.25
863.47	222.23
863.78	222.21
864.09	222.23
864.40	222.23
864.71	222.23
865.02	222.24
865.33	222.23
865.64	222.21
865.95	222.21
866.27	222.28
866.58	222.27
866.89	222.28
867.20	222.28
867.51	222.26
867.82	222.26
868.13	222.29
868.44	222.27
868.75	222.29
869.06	222.29
869.37	222.31
869.68	222.28
869.99	222.30
870.30	222.31
870.61	222.32
870.92	222.30
871.23	222.29
871.54	222.31
871.85	222.33
872.16	222.35
872.47	222.34
872.78	222.28
873.09	222.29
873.40	222.28
873.71	222.29
874.02	222.30
874.33	222.29
874.64	222.26
874.95	222.28
875.26	222.26
875.56	222.26
875.87	222.25
876.18	222.24
876.49	222.34
876.80	222.33
877.11	222.31
877.42	222.31
877.73	222.31
878.04	222.29
878.35	222.29
878.66	222.29
878.96	222.29
879.27	222.29
879.58	222.28
879.89	222.27
880.20	222.30
880.51	222.29
880.82	222.29
881.12	222.29
881.43	222.27
881.74	222.25
882.05	222.25
882.36	222.25
882.67	222.26
882.97	222.15
883.28	222.14
883.59	222.14
883.90	222.14
884.21	222.16
884.51	222.15
884.82	222.14
885.13	222.13
885.44	222.13
885.74	222.13
886.05	222.12
886.36	222.13
886.67	222.09
886.98	222.14
887.28	222.15
887.59	222.15
887.90	222.15
888.20	222.15
888.51	222.17
888.82	222.16
889.13	222.16
889.43	222.25
889.74	222.24
890.05	222.24
890.35	222.23
890.66	222.21
890.97	222.20
891.28	222.19
891.58	222.19
891.89	222.20
892.20	222.18
892.50	222.17
892.81	222.16
893.12	222.16
893.42	222.11
893.73	222.11
894.04	222.11
894.34	222.12
894.65	222.11
894.95	222.10
895.26	222.11
895.57	222.15
895.87	222.05
896.18	222.07
896.48	222.08
896.79	222.08
897.10	222.09
897.40	222.10
897.71	222.11
898.01	222.10
898.32	222.11
898.63	222.10
898.93	222.11
899.24	222.11
899.54	222.11
899.85	222.11
900.15	222.10
900.46	222.10
900.76	222.10
901.07	222.10
901.38	222.09
901.68	222.11
901.99	222.05
902.29	222.06
902.60	222.04
902.90	222.04
903.21	222.04
903.51	222.03
903.82	222.04
904.12	222.05
904.43	222.05
904.73	222.05
905.03	222.05
905.34	222.15
905.64	222.14
905.95	222.14
906.25	222.14
906.56	222.14
906.86	222.14
907.17	222.13
907.47	222.13
907.77	222.12
908.08	222.10
908.38	222.11
908.69	222.11
908.99	222.13
909.30	222.14
909.60	222.14
909.90	222.14
910.21	222.11
910.51	222.10
910.81	222.10
911.12	222.10
911.42	222.10
911.73	221.99
912.03	222.00
912.33	222.02
912.64	222.02
912.94	222.01
913.24	221.99
913.55	221.98
913.85	221.98
914.15	222.00
914.46	222.01
914.76	222.00
915.06	222.00
915.37	221.97
915.67	221.97
915.97	221.97
916.27	221.94
916.58	221.95
916.88	221.95
917.18	221.94
917.49	222.00
917.79	222.00
918.09	222.02
918.39	222.04
918.70	222.04
919.00	222.04
919.30	222.09
919.60	222.09
919.91	222.08
920.21	222.08
920.51	222.06
920.81	222.05
921.12	222.07
921.42	222.07
921.72	222.07
922.02	222.08
922.32	222.10
922.63	222.10
922.93	222.16
923.23	222.16
923.53	222.16
923.83	222.09
924.13	222.09
924.44	222.09
924.74	222.10
925.04	222.13
925.34	222.13
925.64	222.08
925.94	222.08
926.24	222.14
926.55	222.13
926.85	222.15
927.15	222.15
927.45	222.14
927.75	222.14
928.05	222.14
928.35	222.13
928.65	222.15
928.95	222.15
929.26	222.10
929.56	222.11
929.86	222.13
930.16	222.12
930.46	222.11
930.76	222.11
931.06	222.06
931.36	222.03
931.66	222.04
931.96	222.05
932.26	222.06
932.56	222.01
932.86	222.02
933.16	222.02
933.46	222.01
933.76	221.99
934.06	222.01
934.36	222.04
934.66	222.04
934.96	222.02
935.26	222.03
935.56	222.04
935.86	222.01
936.16	222.00
936.46	221.99
936.76	221.99
937.06	221.97
937.36	221.98
937.66	221.99
937.96	221.98
938.26	221.96
938.56	221.95
938.86	221.96
939.16	221.98
939.46	221.98
939.76	222.00
940.06	221.99
940.35	221.98
940.65	221.92
940.95	221.93
941.25	221.91
941.55	221.89
941.85	221.88
942.15	221.91
942.45	221.93
942.75	221.93
943.04	221.94
943.34	221.96
943.64	221.95
943.94	221.93
944.24	221.93
944.54	221.94
944.84	221.93
945.13	221.92
945.43	221.90
945.73	221.89
946.03	221.88
946.33	221.87
946.62	221.86
946.92	221.85
947.22	221.86
947.52	221.87
947.82	221.88
948.11	221.87
948.41	221.85
948.71	221.82
949.01	221.82
949.31	221.81
949.60	221.81
949.90	221.83
950.20	221.82
950.50	221.82
950.79	221.81
951.09	221.83
951.39	221.83
951.69	221.82
951.98	221.84
952.28	221.84
952.58	221.84
952.87	221.84
953.17	221.86
953.47	221.85
953.76	221.85
954.06	221.83
954.36	221.82
954.66	221.82
954.95	221.85
955.25	221.85
955.55	221.87
955.84	221.85
956.14	221.86
956.44	221.86
956.73	221.84
957.03	221.85
957.32	221.85
957.62	221.84
957.92	221.87
958.21	221.85
958.51	221.98
958.81	221.99
959.10	222.00
959.40	222.02
959.69	222.03
959.99	222.04
960.29	222.05
960.58	222.04
960.88	222.09
961.17	222.07
961.47	222.07
961.76	222.06
962.06	222.08
962.36	222.07
962.65	222.07
962.95	222.08
963.24	222.07
963.54	222.08
963.83	222.08
964.13	222.07
964.42	222.06
964.72	221.97
965.01	221.97
965.31	221.96
965.60	221.93
965.90	222.00
966.19	221.97
966.49	221.97
966.78	221.97
967.08	221.95
967.37	221.96
967.67	221.94
967.96	221.96
968.26	221.95
968.55	221.96
968.85	221.96
969.14	221.95
969.43	221.95
969.73	221.94
970.02	221.94
970.32	221.93
970.61	221.91
970.91	221.88
971.20	221.86
971.49	221.85
971.79	221.87
972.08	221.79
972.38	221.80
972.67	221.79
972.96	221.81
973.26	221.79
973.55	221.82
973.85	221.82
974.14	221.81
974.43	221.81
974.73	221.80
975.02	221.78
975.31	221.78
975.61	221.78
975.90	221.77
976.19	221.77
976.49	221.78
976.78	221.79
977.07	221.79
977.37	221.79
977.66	221.80
977.95	221.78
978.24	221.80
978.54	221.81
978.83	221.81
979.12	221.80
979.42	221.80
979.71	221.78
980.00	221.77
980.29	221.78
980.59	221.76
980.88	221.78
981.17	221.78
981.46	221.78
981.76	221.78
982.05	221.81
982.34	221.82
982.63	221.82
982.93	221.83
983.22	221.85
983.51	221.86
983.80	221.87
984.09	221.89
984.39	221.88
984.68	221.87
984.97	221.87
985.26	221.87
985.55	221.88
985.85	221.86
986.14	221.87
986.43	221.89
986.72	221.88
987.01	221.85
987.30	221.86
987.59	221.85
987.89	221.86
988.18	221.82
988.47	221.81
988.76	221.80
989.05	221.79
989.34	221.78
989.63	221.80
989.92	221.78
990.22	221.77
990.51	221.77
990.80	221.76
991.09	221.77
991.38	221.78
991.67	221.77
991.96	221.76
992.25	221.76
992.54	221.75
992.83	221.75
993.12	221.75
993.41	221.77
993.70	221.81
993.99	221.82
994.28	221.84
994.58	221.86
994.87	221.85
995.16	221.85
995.45	221.84
995.74	221.81
996.03	221.82
996.32	221.84
996.61	221.86
996.90	221.86
997.19	221.85
997.48	221.85
997.77	221.84
998.06	221.85
998.34	221.84
998.63	221.84
998.92	221.84
999.21	221.86
999.50	221.85
999.79	221.82
1000.08	221.81
1000.37	221.81
1000.66	221.80
1000.95	221.82
1001.24	221.83
1001.53	221.84
1001.82	221.84
1002.11	221.81
1002.40	221.82
1002.68	221.84
1002.97	221.91
1003.26	221.90
1003.55	221.88
1003.84	221.89
1004.13	221.93
1004.42	221.92
1004.71	221.92
1004.99	221.91
1005.28	221.93
1005.57	221.92
1005.86	221.91
1006.15	221.91
1006.44	221.89
1006.72	221.90
1007.01	221.88
1007.30	221.88
1007.59	221.87
1007.88	221.87
1008.17	221.88
1008.45	221.86
1008.74	221.82
1009.03	221.77
1009.32	221.77
1009.60	221.77
1009.89	221.76
1010.18	221.72
1010.47	221.71
1010.76	221.71
1011.04	221.71
1011.33	221.71
1011.62	221.72
1011.91	221.73
1012.19	221.73
1012.48	221.73
1012.77	221.73
1013.05	221.77
1013.34	221.77
1013.63	221.77
1013.92	221.77
1014.20	221.76
1014.49	221.77
1014.78	221.78
1015.06	221.75
1015.35	221.75
1015.64	221.76
1015.92	221.78
1016.21	221.79
1016.50	221.79
1016.78	221.81
1017.07	221.81
1017.36	221.79
1017.64	221.78
1017.93	221.78
1018.22	221.77
1018.50	221.77
1018.79	221.77
1019.08	221.73
1019.36	221.74
1019.65	221.73
1019.93	221.76
1020.22	221.77
1020.51	221.82
1020.79	221.81
1021.08	221.63
1021.36	221.61
1021.65	221.80
1021.94	221.73
1022.22	221.82
1022.51	221.54
1022.79	222.26
1023.08	221.84
1023.36	222.99
1023.65	221.56
>>>>>End Processed Spectral Data<<<<<
