SpectraSuite Data File
++++++++++++++++++++++++++++++++++++
Date: Thu Oct 01 06:37:09 EDT 2015
User: lab3
Dark Spectrum Present: No
Reference Spectrum Present: No
Number of Sampled Component Spectra: 1
Spectrometers: USB2E7196
Integration Time (usec): 36000 (USB2E7196)
Spectra Averaged: 10000 (USB2E7196)
Boxcar Smoothing: 10 (USB2E7196)
Correct for Electrical Dark: No (USB2E7196)
Strobe/Lamp Enabled: No (USB2E7196)
Correct for Detector Non-linearity: No (USB2E7196)
Correct for Stray Light: No (USB2E7196)
Number of Pixels in Processed Spectrum: 2048
>>>>>Begin Processed Spectral Data<<<<<
339.09	0.00
339.48	210.65
339.86	212.10
340.24	213.50
340.63	214.89
341.01	217.80
341.39	217.64
341.78	219.01
342.16	220.16
342.54	220.63
342.93	209.22
343.31	219.79
343.69	220.33
344.07	220.79
344.46	221.22
344.84	221.61
345.22	221.86
345.60	222.11
345.99	222.30
346.37	222.44
346.75	222.55
347.13	222.62
347.52	222.69
347.90	222.78
348.28	222.81
348.66	222.87
349.05	222.87
349.43	222.92
349.81	222.98
350.19	223.03
350.57	223.09
350.96	223.18
351.34	223.27
351.72	223.36
352.10	223.46
352.48	223.54
352.87	223.59
353.25	223.66
353.63	223.72
354.01	223.79
354.39	223.87
354.77	223.94
355.15	224.04
355.54	224.10
355.92	224.14
356.30	224.21
356.68	224.35
357.06	224.42
357.44	224.47
357.82	224.53
358.20	224.65
358.58	224.71
358.97	224.77
359.35	224.85
359.73	224.93
360.11	224.99
360.49	225.04
360.87	225.09
361.25	225.15
361.63	225.24
362.01	225.29
362.39	225.32
362.77	225.36
363.15	225.39
363.53	225.42
363.91	225.46
364.29	225.48
364.67	225.41
365.05	225.43
365.43	225.47
365.81	225.50
366.19	225.51
366.57	225.56
366.95	225.56
367.33	225.54
367.71	225.53
368.09	225.55
368.47	225.54
368.85	225.54
369.23	225.54
369.61	225.49
369.99	225.50
370.37	225.50
370.75	225.56
371.13	225.52
371.51	225.48
371.89	225.46
372.27	225.43
372.65	225.41
373.03	225.37
373.41	225.33
373.78	225.28
374.16	225.19
374.54	225.11
374.92	225.06
375.30	225.02
375.68	224.95
376.06	224.91
376.44	224.85
376.82	224.80
377.19	224.75
377.57	224.70
377.95	224.61
378.33	224.55
378.71	224.40
379.09	224.36
379.47	224.32
379.84	224.26
380.22	224.19
380.60	224.12
380.98	224.07
381.36	224.01
381.73	223.94
382.11	223.92
382.49	223.87
382.87	223.81
383.25	223.77
383.62	223.84
384.00	223.78
384.38	223.73
384.76	223.71
385.13	223.70
385.51	223.66
385.89	223.61
386.27	223.58
386.64	223.55
387.02	223.50
387.40	223.46
387.78	223.43
388.15	223.41
388.53	223.38
388.91	223.35
389.29	223.31
389.66	223.30
390.04	223.26
390.42	223.25
390.79	223.24
391.17	223.22
391.55	223.08
391.92	223.07
392.30	223.07
392.68	223.03
393.05	223.02
393.43	223.01
393.81	223.01
394.18	222.99
394.56	223.00
394.94	223.03
395.31	223.02
395.69	223.07
396.06	223.09
396.44	223.11
396.82	223.13
397.19	223.20
397.57	223.21
397.95	223.26
398.32	223.26
398.70	223.30
399.07	223.36
399.45	223.39
399.82	223.44
400.20	223.47
400.58	223.53
400.95	223.54
401.33	223.62
401.70	223.76
402.08	223.85
402.45	223.93
402.83	224.03
403.20	224.14
403.58	224.22
403.95	224.34
404.33	224.48
404.71	224.60
405.08	224.79
405.46	224.93
405.83	225.09
406.21	225.27
406.58	225.46
406.96	225.65
407.33	225.86
407.70	226.11
408.08	226.44
408.45	226.73
408.83	227.04
409.20	227.32
409.58	227.58
409.95	227.94
410.33	228.32
410.70	228.68
411.08	229.10
411.45	229.55
411.82	230.00
412.20	230.52
412.57	231.13
412.95	231.62
413.32	232.25
413.69	232.89
414.07	233.58
414.44	234.33
414.82	235.09
415.19	235.99
415.56	236.90
415.94	237.84
416.31	238.90
416.68	239.96
417.06	241.18
417.43	242.33
417.81	243.66
418.18	245.01
418.55	246.50
418.93	248.03
419.30	249.63
419.67	251.35
420.04	253.11
420.42	254.94
420.79	257.06
421.16	259.21
421.54	261.38
421.91	263.66
422.28	266.02
422.66	268.57
423.03	270.99
423.40	273.54
423.77	276.27
424.15	279.07
424.52	281.98
424.89	285.13
425.26	288.26
425.64	291.17
426.01	294.43
426.38	297.77
426.75	301.21
427.13	304.72
427.50	308.40
427.87	312.21
428.24	316.06
428.61	319.75
428.99	323.72
429.36	328.08
429.73	332.24
430.10	336.39
430.47	340.62
430.85	344.97
431.22	349.60
431.59	354.37
431.96	359.00
432.33	364.14
432.70	368.99
433.08	374.75
433.45	380.18
433.82	385.51
434.19	391.46
434.56	397.33
434.93	402.98
435.30	408.56
435.68	414.85
436.05	421.01
436.42	427.16
436.79	432.77
437.16	438.81
437.53	445.30
437.90	451.79
438.27	458.12
438.64	465.01
439.01	471.24
439.38	476.93
439.75	482.44
440.13	488.72
440.50	494.72
440.87	499.45
441.24	504.66
441.61	510.41
441.98	514.63
442.35	519.66
442.72	524.81
443.09	529.76
443.46	532.98
443.83	535.40
444.20	537.45
444.57	540.42
444.94	542.24
445.31	544.13
445.68	545.82
446.05	547.12
446.42	547.07
446.79	546.92
447.16	546.82
447.53	546.77
447.90	545.03
448.27	543.41
448.64	540.77
449.01	539.05
449.37	535.20
449.74	531.71
450.11	527.19
450.48	522.19
450.85	517.16
451.22	512.88
451.59	508.70
451.96	504.91
452.33	499.28
452.70	494.28
453.07	488.15
453.43	482.01
453.80	476.06
454.17	470.34
454.54	465.04
454.91	459.03
455.28	453.37
455.65	448.03
456.02	442.33
456.38	437.75
456.75	431.82
457.12	427.03
457.49	422.20
457.86	417.59
458.23	413.54
458.59	409.07
458.96	404.47
459.33	400.39
459.70	396.25
460.07	393.10
460.43	389.38
460.80	385.90
461.17	382.83
461.54	379.52
461.91	376.44
462.27	373.29
462.64	370.72
463.01	367.77
463.38	364.80
463.74	362.11
464.11	359.71
464.48	357.55
464.85	355.24
465.21	353.46
465.58	351.50
465.95	349.25
466.32	347.44
466.68	345.68
467.05	343.90
467.42	342.20
467.78	340.36
468.15	338.66
468.52	337.40
468.88	335.74
469.25	334.23
469.62	333.02
469.98	331.72
470.35	330.56
470.72	329.52
471.08	328.47
471.45	327.60
471.82	326.63
472.18	325.63
472.55	324.98
472.92	324.17
473.28	323.55
473.65	322.90
474.02	322.30
474.38	321.80
474.75	321.52
475.11	321.10
475.48	320.95
475.85	320.79
476.21	320.74
476.58	320.75
476.94	320.95
477.31	321.09
477.67	321.24
478.04	321.51
478.41	321.86
478.77	322.32
479.14	322.66
479.50	323.23
479.87	323.93
480.23	324.64
480.60	325.32
480.96	326.03
481.33	327.00
481.69	327.97
482.06	328.93
482.42	329.83
482.79	330.92
483.15	332.17
483.52	333.57
483.88	334.93
484.25	336.36
484.61	337.86
484.98	339.47
485.34	341.27
485.71	343.15
486.07	345.14
486.44	347.13
486.80	349.33
487.17	351.58
487.53	354.06
487.90	356.64
488.26	359.43
488.62	362.38
488.99	365.33
489.35	368.41
489.72	371.75
490.08	375.26
490.44	378.86
490.81	382.62
491.17	386.47
491.54	390.58
491.90	394.79
492.26	399.34
492.63	404.13
492.99	409.10
493.36	414.20
493.72	419.56
494.08	425.07
494.45	430.89
494.81	436.92
495.17	443.08
495.54	449.58
495.90	456.39
496.26	463.33
496.63	470.54
496.99	478.03
497.35	485.87
497.72	494.02
498.08	502.32
498.44	510.89
498.80	520.02
499.17	529.38
499.53	539.07
499.89	548.98
500.26	559.08
500.62	569.46
500.98	580.52
501.34	591.74
501.71	603.50
502.07	615.47
502.43	627.84
502.79	640.55
503.16	653.67
503.52	666.98
503.88	680.68
504.24	694.79
504.60	709.19
504.97	723.98
505.33	739.17
505.69	755.27
506.05	771.57
506.41	787.87
506.78	804.48
507.14	821.56
507.50	839.25
507.86	857.32
508.22	875.66
508.59	894.03
508.95	913.11
509.31	932.63
509.67	952.86
510.03	973.30
510.39	993.96
510.75	1014.86
511.12	1036.06
511.48	1057.56
511.84	1079.16
512.20	1101.06
512.56	1124.11
512.92	1147.32
513.28	1170.24
513.64	1193.49
514.00	1217.15
514.37	1241.14
514.73	1265.17
515.09	1288.99
515.45	1313.26
515.81	1338.08
516.17	1362.95
516.53	1387.49
516.89	1412.08
517.25	1436.86
517.61	1461.84
517.97	1487.03
518.33	1511.93
518.69	1536.97
519.05	1562.27
519.41	1587.69
519.77	1613.38
520.13	1638.24
520.49	1663.31
520.85	1688.59
521.21	1713.78
521.57	1739.55
521.93	1764.61
522.29	1790.50
522.65	1816.11
523.01	1841.50
523.37	1866.14
523.73	1891.41
524.09	1916.88
524.45	1942.26
524.81	1967.15
525.17	1991.92
525.53	2016.24
525.89	2040.58
526.25	2065.13
526.61	2089.13
526.97	2113.45
527.33	2137.68
527.68	2161.74
528.04	2184.94
528.40	2207.98
528.76	2231.20
529.12	2253.38
529.48	2275.90
529.84	2296.57
530.20	2317.83
530.56	2338.73
530.91	2359.70
531.27	2380.17
531.63	2399.95
531.99	2419.21
532.35	2438.12
532.71	2457.14
533.07	2476.74
533.42	2494.81
533.78	2513.29
534.14	2531.75
534.50	2549.32
534.86	2567.52
535.21	2583.85
535.57	2600.11
535.93	2615.66
536.29	2629.99
536.65	2645.18
537.00	2659.26
537.36	2673.86
537.72	2687.37
538.08	2700.53
538.44	2712.55
538.79	2724.75
539.15	2735.30
539.51	2745.80
539.87	2755.96
540.22	2763.95
540.58	2772.07
540.94	2780.72
541.29	2787.87
541.65	2793.99
542.01	2799.63
542.37	2803.42
542.72	2809.18
543.08	2814.41
543.44	2819.44
543.79	2823.67
544.15	2826.95
544.51	2830.22
544.87	2832.60
545.22	2834.60
545.58	2835.64
545.94	2837.15
546.29	2837.18
546.65	2837.34
547.01	2837.58
547.36	2837.89
547.72	2838.37
548.07	2837.37
548.43	2835.74
548.79	2833.44
549.14	2831.19
549.50	2829.59
549.86	2827.06
550.21	2822.10
550.57	2817.56
550.92	2811.66
551.28	2806.39
551.64	2801.08
551.99	2796.11
552.35	2790.71
552.70	2784.89
553.06	2779.84
553.41	2774.27
553.77	2768.18
554.13	2762.79
554.48	2756.43
554.84	2748.46
555.19	2740.65
555.55	2732.28
555.90	2724.50
556.26	2717.73
556.61	2710.30
556.97	2700.65
557.32	2691.93
557.68	2683.62
558.03	2674.68
558.39	2666.46
558.74	2658.33
559.10	2648.94
559.45	2639.24
559.81	2629.91
560.16	2619.87
560.52	2609.41
560.87	2599.98
561.23	2590.13
561.58	2579.75
561.94	2569.14
562.29	2558.03
562.64	2547.58
563.00	2537.47
563.35	2527.23
563.71	2516.06
564.06	2504.34
564.42	2493.70
564.77	2482.67
565.12	2471.78
565.48	2460.62
565.83	2450.07
566.19	2439.56
566.54	2428.65
566.89	2416.90
567.25	2405.06
567.60	2394.05
567.96	2382.63
568.31	2369.77
568.66	2356.90
569.02	2345.08
569.37	2333.01
569.72	2321.46
570.08	2309.18
570.43	2296.39
570.78	2283.26
571.14	2269.92
571.49	2257.44
571.84	2245.21
572.20	2231.68
572.55	2218.53
572.90	2205.29
573.26	2191.12
573.61	2176.40
573.96	2161.99
574.31	2147.96
574.67	2134.12
575.02	2119.88
575.37	2105.16
575.72	2090.77
576.08	2076.92
576.43	2062.07
576.78	2047.33
577.13	2033.41
577.49	2019.46
577.84	2005.87
578.19	1991.47
578.54	1976.73
578.90	1961.47
579.25	1945.96
579.60	1931.84
579.95	1917.35
580.30	1902.90
580.66	1888.77
581.01	1874.27
581.36	1860.08
581.71	1846.45
582.06	1832.34
582.42	1818.28
582.77	1805.01
583.12	1791.35
583.47	1777.78
583.82	1764.33
584.17	1750.77
584.53	1737.01
584.88	1723.30
585.23	1709.21
585.58	1695.66
585.93	1682.55
586.28	1670.26
586.63	1657.77
586.98	1644.60
587.34	1631.64
587.69	1618.19
588.04	1604.98
588.39	1592.45
588.74	1579.47
589.09	1566.19
589.44	1552.90
589.79	1540.18
590.14	1527.31
590.49	1514.70
590.84	1501.92
591.19	1489.80
591.54	1477.11
591.89	1464.34
592.25	1451.90
592.60	1439.08
592.95	1426.82
593.30	1414.83
593.65	1402.61
594.00	1390.63
594.35	1379.40
594.70	1367.41
595.05	1356.50
595.40	1345.39
595.75	1333.68
596.10	1322.77
596.45	1312.09
596.80	1301.86
597.15	1291.43
597.50	1280.99
597.85	1270.74
598.19	1260.68
598.54	1250.02
598.89	1240.16
599.24	1230.57
599.59	1220.76
599.94	1211.97
600.29	1203.03
600.64	1193.88
600.99	1184.15
601.34	1174.90
601.69	1165.07
602.04	1156.28
602.39	1147.31
602.74	1138.60
603.08	1130.13
603.43	1121.16
603.78	1112.12
604.13	1103.21
604.48	1094.24
604.83	1085.53
605.18	1076.73
605.53	1067.86
605.87	1059.14
606.22	1050.65
606.57	1041.91
606.92	1033.27
607.27	1024.48
607.62	1015.82
607.96	1007.31
608.31	999.80
608.66	991.85
609.01	984.34
609.36	976.78
609.70	968.98
610.05	961.02
610.40	953.43
610.75	945.95
611.10	938.73
611.44	931.13
611.79	923.83
612.14	916.15
612.49	908.63
612.83	901.58
613.18	894.58
613.53	887.38
613.88	880.28
614.22	873.75
614.57	867.05
614.92	860.35
615.27	853.67
615.61	846.86
615.96	840.26
616.31	833.59
616.65	826.82
617.00	820.30
617.35	813.93
617.70	807.56
618.04	801.27
618.39	794.97
618.74	789.04
619.08	782.92
619.43	777.06
619.78	771.21
620.12	765.17
620.47	759.30
620.82	753.53
621.16	748.05
621.51	742.23
621.85	736.41
622.20	730.64
622.55	725.05
622.89	719.40
623.24	713.80
623.59	708.28
623.93	702.80
624.28	697.46
624.62	692.10
624.97	686.74
625.32	681.49
625.66	676.10
626.01	670.71
626.35	665.46
626.70	660.24
627.04	655.20
627.39	650.23
627.73	645.37
628.08	640.73
628.43	635.96
628.77	631.26
629.12	626.69
629.46	622.30
629.81	617.71
630.15	613.01
630.50	608.50
630.84	604.17
631.19	600.01
631.53	595.89
631.88	591.68
632.22	587.54
632.57	583.65
632.91	579.72
633.26	575.85
633.60	572.05
633.95	568.35
634.29	564.53
634.64	560.67
634.98	556.72
635.32	552.92
635.67	549.25
636.01	545.53
636.36	541.86
636.70	538.31
637.05	534.79
637.39	531.46
637.73	527.98
638.08	524.56
638.42	521.12
638.77	517.55
639.11	513.98
639.45	510.46
639.80	506.92
640.14	503.58
640.49	500.19
640.83	496.68
641.17	493.25
641.52	489.95
641.86	486.65
642.20	483.52
642.55	480.24
642.89	477.05
643.23	474.05
643.58	471.27
643.92	468.38
644.26	465.51
644.61	462.63
644.95	459.77
645.29	456.85
645.64	453.91
645.98	451.11
646.32	448.47
646.66	445.83
647.01	443.17
647.35	440.55
647.69	437.84
648.04	435.27
648.38	432.73
648.72	430.16
649.06	427.66
649.41	425.18
649.75	422.69
650.09	420.23
650.43	417.78
650.78	415.31
651.12	412.82
651.46	410.44
651.80	408.15
652.14	405.94
652.49	403.74
652.83	401.59
653.17	399.43
653.51	397.33
653.85	395.29
654.20	393.21
654.54	391.03
654.88	389.05
655.22	387.13
655.56	385.16
655.90	383.29
656.25	381.43
656.59	379.57
656.93	377.81
657.27	376.09
657.61	374.27
657.95	372.51
658.29	370.76
658.64	369.05
658.98	367.31
659.32	365.59
659.66	363.98
660.00	362.38
660.34	360.81
660.68	359.19
661.02	357.50
661.36	355.93
661.70	354.43
662.05	352.90
662.39	351.36
662.73	349.91
663.07	348.49
663.41	347.08
663.75	345.71
664.09	344.32
664.43	342.86
664.77	341.50
665.11	340.08
665.45	338.75
665.79	337.40
666.13	336.05
666.47	334.69
666.81	333.30
667.15	331.88
667.49	330.57
667.83	329.29
668.17	328.06
668.51	326.85
668.85	325.65
669.19	324.53
669.53	323.34
669.87	322.12
670.21	320.93
670.55	319.76
670.89	318.66
671.23	317.53
671.57	316.42
671.91	315.36
672.25	314.36
672.58	313.34
672.92	312.29
673.26	311.32
673.60	310.35
673.94	309.37
674.28	308.45
674.62	307.51
674.96	306.55
675.30	305.65
675.64	304.72
675.97	303.81
676.31	302.86
676.65	301.94
676.99	301.08
677.33	300.17
677.67	299.30
678.01	298.35
678.34	297.48
678.68	296.67
679.02	295.82
679.36	294.97
679.70	294.14
680.04	293.33
680.37	292.51
680.71	291.73
681.05	290.99
681.39	290.21
681.73	289.40
682.06	288.62
682.40	287.86
682.74	287.12
683.08	286.41
683.42	285.67
683.75	285.01
684.09	284.27
684.43	283.57
684.77	282.86
685.10	282.21
685.44	281.53
685.78	280.85
686.12	280.20
686.45	279.54
686.79	278.88
687.13	278.25
687.46	277.58
687.80	276.94
688.14	276.26
688.48	275.64
688.81	275.02
689.15	274.45
689.49	273.83
689.82	273.23
690.16	272.57
690.50	271.99
690.83	271.40
691.17	270.82
691.51	270.26
691.84	269.72
692.18	269.15
692.52	268.56
692.85	268.00
693.19	267.48
693.52	266.94
693.86	266.40
694.20	265.88
694.53	265.38
694.87	264.86
695.21	264.37
695.54	263.88
695.88	263.38
696.21	262.84
696.55	262.35
696.88	261.86
697.22	261.40
697.56	260.93
697.89	260.40
698.23	259.92
698.56	259.42
698.90	258.97
699.23	258.49
699.57	258.07
699.90	257.62
700.24	257.15
700.58	256.73
700.91	256.32
701.25	255.99
701.58	255.62
701.92	255.25
702.25	254.85
702.59	254.44
702.92	254.06
703.26	253.68
703.59	253.30
703.93	253.00
704.26	252.64
704.60	252.28
704.93	251.93
705.26	251.58
705.60	251.26
705.93	250.89
706.27	250.60
706.60	250.28
706.94	249.98
707.27	249.62
707.61	249.28
707.94	248.93
708.27	248.51
708.61	248.15
708.94	247.80
709.28	247.49
709.61	247.17
709.94	246.88
710.28	246.59
710.61	246.32
710.95	245.95
711.28	245.73
711.61	245.46
711.95	245.21
712.28	244.94
712.61	244.65
712.95	244.45
713.28	244.23
713.61	243.96
713.95	243.68
714.28	243.45
714.61	243.20
714.95	242.96
715.28	242.72
715.61	242.48
715.95	242.27
716.28	242.03
716.61	241.83
716.95	241.60
717.28	241.38
717.61	241.15
717.94	240.94
718.28	240.65
718.61	240.44
718.94	240.21
719.27	240.00
719.61	239.82
719.94	239.59
720.27	239.34
720.60	239.15
720.94	238.96
721.27	238.78
721.60	238.62
721.93	238.43
722.27	238.29
722.60	238.12
722.93	237.93
723.26	237.77
723.59	237.57
723.93	237.42
724.26	237.26
724.59	237.10
724.92	236.95
725.25	236.82
725.59	236.66
725.92	236.53
726.25	236.38
726.58	236.23
726.91	236.07
727.24	235.94
727.57	235.80
727.91	235.64
728.24	235.51
728.57	235.35
728.90	235.23
729.23	235.06
729.56	234.97
729.89	234.84
730.22	234.70
730.55	234.56
730.89	234.43
731.22	234.29
731.55	234.15
731.88	234.03
732.21	233.88
732.54	233.76
732.87	233.65
733.20	233.54
733.53	233.42
733.86	233.32
734.19	233.19
734.52	233.10
734.85	233.06
735.18	232.94
735.51	232.86
735.84	232.75
736.17	232.67
736.50	232.51
736.83	232.53
737.16	232.43
737.49	232.34
737.82	232.24
738.15	232.17
738.48	232.07
738.81	231.96
739.14	231.86
739.47	231.76
739.80	231.66
740.13	231.57
740.46	231.46
740.79	231.35
741.12	231.27
741.45	231.15
741.78	231.01
742.11	230.95
742.44	230.84
742.77	230.77
743.10	230.66
743.43	230.57
743.75	230.38
744.08	230.45
744.41	230.36
744.74	230.28
745.07	230.17
745.40	230.12
745.73	230.09
746.06	230.01
746.39	229.96
746.71	229.87
747.04	229.79
747.37	229.71
747.70	229.66
748.03	229.60
748.36	229.55
748.68	229.47
749.01	229.37
749.34	229.30
749.67	229.24
750.00	229.19
750.33	229.21
750.65	229.15
750.98	228.94
751.31	228.88
751.64	228.82
751.97	228.82
752.29	228.74
752.62	228.63
752.95	228.56
753.28	228.48
753.60	228.42
753.93	228.38
754.26	228.33
754.59	228.23
754.91	228.15
755.24	228.08
755.57	228.07
755.90	228.01
756.22	227.94
756.55	227.86
756.88	227.78
757.20	227.65
757.53	227.57
757.86	227.51
758.19	227.46
758.51	227.41
758.84	227.30
759.17	227.24
759.49	227.20
759.82	227.19
760.15	227.16
760.47	227.11
760.80	227.03
761.13	227.00
761.45	226.96
761.78	226.92
762.11	226.87
762.43	226.77
762.76	226.73
763.08	226.70
763.41	226.66
763.74	226.62
764.06	226.58
764.39	226.54
764.71	226.49
765.04	226.44
765.37	226.39
765.69	226.35
766.02	226.31
766.34	226.26
766.67	226.19
767.00	226.16
767.32	226.18
767.65	226.20
767.97	226.15
768.30	226.12
768.62	226.09
768.95	226.04
769.27	226.01
769.60	225.99
769.92	225.93
770.25	225.88
770.57	225.83
770.90	225.80
771.22	225.76
771.55	225.72
771.87	225.70
772.20	225.66
772.52	225.72
772.85	225.81
773.17	225.78
773.50	225.74
773.82	225.69
774.15	225.61
774.47	225.51
774.80	225.47
775.12	225.44
775.45	225.41
775.77	225.39
776.09	225.36
776.42	225.34
776.74	225.35
777.07	225.31
777.39	225.29
777.72	225.26
778.04	225.25
778.36	225.22
778.69	225.19
779.01	225.18
779.33	225.07
779.66	224.92
779.98	224.90
780.31	224.88
780.63	224.90
780.95	224.90
781.28	224.89
781.60	224.86
781.92	224.84
782.25	224.82
782.57	224.80
782.89	224.77
783.22	224.74
783.54	224.70
783.86	224.69
784.19	224.66
784.51	224.68
784.83	224.65
785.16	224.63
785.48	224.61
785.80	224.59
786.12	224.58
786.45	224.56
786.77	224.56
787.09	224.53
787.42	224.47
787.74	224.46
788.06	224.44
788.38	224.42
788.71	224.40
789.03	224.38
789.35	224.38
789.67	224.36
789.99	224.35
790.32	224.32
790.64	224.32
790.96	224.40
791.28	224.35
791.61	224.33
791.93	224.32
792.25	224.30
792.57	224.36
792.89	224.33
793.21	224.32
793.54	224.29
793.86	224.27
794.18	224.27
794.50	224.23
794.82	224.22
795.14	224.22
795.47	224.23
795.79	224.22
796.11	224.18
796.43	224.17
796.75	224.15
797.07	224.14
797.39	224.12
797.71	224.03
798.04	224.02
798.36	224.02
798.68	224.00
799.00	224.00
799.32	223.94
799.64	223.95
799.96	223.93
800.28	223.94
800.60	223.93
800.92	223.92
801.24	223.91
801.56	223.91
801.89	223.89
802.21	223.88
802.53	223.86
802.85	223.87
803.17	223.91
803.49	223.89
803.81	223.87
804.13	223.86
804.45	223.84
804.77	223.84
805.09	223.83
805.41	223.81
805.73	223.78
806.05	223.74
806.37	223.72
806.69	223.70
807.01	223.68
807.33	223.68
807.65	223.64
807.97	223.68
808.28	223.65
808.60	223.64
808.92	223.62
809.24	223.68
809.56	223.65
809.88	223.61
810.20	223.61
810.52	223.62
810.84	223.60
811.16	223.58
811.48	223.57
811.80	223.60
812.12	223.59
812.43	223.61
812.75	223.61
813.07	223.60
813.39	223.60
813.71	223.58
814.03	223.56
814.35	223.56
814.67	223.51
814.98	223.50
815.30	223.49
815.62	223.47
815.94	223.40
816.26	223.40
816.58	223.38
816.89	223.38
817.21	223.34
817.53	223.35
817.85	223.35
818.17	223.34
818.48	223.29
818.80	223.31
819.12	223.28
819.44	223.26
819.76	223.25
820.07	223.24
820.39	223.24
820.71	223.24
821.03	223.24
821.34	223.22
821.66	223.23
821.98	223.24
822.30	223.23
822.61	223.29
822.93	223.27
823.25	223.26
823.57	223.25
823.88	223.26
824.20	223.25
824.52	223.27
824.83	223.26
825.15	223.25
825.47	223.24
825.79	223.24
826.10	223.23
826.42	223.23
826.74	223.23
827.05	223.23
827.37	223.23
827.69	223.21
828.00	223.22
828.32	223.21
828.64	223.19
828.95	223.24
829.27	223.21
829.58	223.21
829.90	223.22
830.22	223.22
830.53	223.19
830.85	223.18
831.17	223.15
831.48	223.14
831.80	223.14
832.11	223.13
832.43	223.12
832.75	223.11
833.06	223.17
833.38	223.14
833.69	223.13
834.01	223.13
834.32	223.13
834.64	223.11
834.96	223.11
835.27	223.10
835.59	223.07
835.90	223.05
836.22	223.04
836.53	223.02
836.85	223.01
837.16	223.11
837.48	223.11
837.79	223.15
838.11	223.14
838.42	223.14
838.74	223.15
839.05	223.15
839.37	223.14
839.68	223.07
840.00	223.07
840.31	223.08
840.63	223.06
840.94	223.06
841.26	223.05
841.57	223.04
841.88	223.05
842.20	223.04
842.51	223.02
842.83	223.02
843.14	223.11
843.46	223.10
843.77	223.04
844.08	223.03
844.40	223.00
844.71	222.99
845.03	222.97
845.34	222.96
845.65	222.96
845.97	222.95
846.28	222.96
846.60	222.97
846.91	222.95
847.22	222.94
847.54	222.96
847.85	222.97
848.16	222.96
848.48	222.93
848.79	222.97
849.10	222.98
849.42	222.99
849.73	222.89
850.04	222.89
850.36	222.85
850.67	222.87
850.98	222.88
851.30	222.88
851.61	222.88
851.92	222.88
852.23	222.91
852.55	222.92
852.86	222.92
853.17	222.93
853.49	222.95
853.80	222.97
854.11	222.98
854.42	222.99
854.74	222.98
855.05	222.98
855.36	222.93
855.67	222.93
855.99	222.93
856.30	223.06
856.61	223.06
856.92	223.06
857.23	223.06
857.55	223.04
857.86	223.04
858.17	223.05
858.48	223.03
858.79	223.01
859.11	223.02
859.42	223.00
859.73	222.99
860.04	222.98
860.35	222.95
860.66	222.92
860.98	222.91
861.29	222.93
861.60	222.92
861.91	222.94
862.22	222.93
862.53	222.91
862.84	222.79
863.16	222.81
863.47	222.79
863.78	222.77
864.09	222.78
864.40	222.78
864.71	222.79
865.02	222.80
865.33	222.79
865.64	222.77
865.95	222.77
866.27	222.84
866.58	222.83
866.89	222.84
867.20	222.84
867.51	222.82
867.82	222.81
868.13	222.84
868.44	222.81
868.75	222.83
869.06	222.84
869.37	222.85
869.68	222.82
869.99	222.84
870.30	222.85
870.61	222.86
870.92	222.84
871.23	222.83
871.54	222.84
871.85	222.86
872.16	222.88
872.47	222.87
872.78	222.81
873.09	222.82
873.40	222.81
873.71	222.82
874.02	222.83
874.33	222.83
874.64	222.80
874.95	222.82
875.26	222.79
875.56	222.79
875.87	222.78
876.18	222.78
876.49	222.88
876.80	222.87
877.11	222.85
877.42	222.85
877.73	222.85
878.04	222.84
878.35	222.83
878.66	222.83
878.96	222.83
879.27	222.82
879.58	222.81
879.89	222.81
880.20	222.84
880.51	222.83
880.82	222.83
881.12	222.84
881.43	222.82
881.74	222.81
882.05	222.81
882.36	222.81
882.67	222.82
882.97	222.71
883.28	222.70
883.59	222.69
883.90	222.70
884.21	222.71
884.51	222.71
884.82	222.69
885.13	222.69
885.44	222.69
885.74	222.68
886.05	222.68
886.36	222.68
886.67	222.64
886.98	222.69
887.28	222.70
887.59	222.70
887.90	222.70
888.20	222.69
888.51	222.71
888.82	222.70
889.13	222.70
889.43	222.79
889.74	222.78
890.05	222.79
890.35	222.77
890.66	222.75
890.97	222.74
891.28	222.73
891.58	222.73
891.89	222.73
892.20	222.72
892.50	222.71
892.81	222.70
893.12	222.70
893.42	222.64
893.73	222.64
894.04	222.64
894.34	222.64
894.65	222.64
894.95	222.63
895.26	222.63
895.57	222.67
895.87	222.57
896.18	222.59
896.48	222.59
896.79	222.59
897.10	222.61
897.40	222.61
897.71	222.62
898.01	222.62
898.32	222.63
898.63	222.63
898.93	222.64
899.24	222.64
899.54	222.64
899.85	222.63
900.15	222.63
900.46	222.63
900.76	222.63
901.07	222.63
901.38	222.62
901.68	222.63
901.99	222.58
902.29	222.59
902.60	222.58
902.90	222.57
903.21	222.57
903.51	222.56
903.82	222.57
904.12	222.57
904.43	222.58
904.73	222.57
905.03	222.57
905.34	222.67
905.64	222.67
905.95	222.67
906.25	222.67
906.56	222.67
906.86	222.67
907.17	222.66
907.47	222.67
907.77	222.66
908.08	222.64
908.38	222.64
908.69	222.65
908.99	222.67
909.30	222.68
909.60	222.68
909.90	222.68
910.21	222.65
910.51	222.64
910.81	222.64
911.12	222.64
911.42	222.65
911.73	222.54
912.03	222.55
912.33	222.57
912.64	222.56
912.94	222.55
913.24	222.53
913.55	222.52
913.85	222.51
914.15	222.54
914.46	222.55
914.76	222.54
915.06	222.53
915.37	222.51
915.67	222.50
915.97	222.50
916.27	222.49
916.58	222.49
916.88	222.49
917.18	222.49
917.49	222.55
917.79	222.55
918.09	222.56
918.39	222.59
918.70	222.58
919.00	222.59
919.30	222.64
919.60	222.63
919.91	222.62
920.21	222.63
920.51	222.60
920.81	222.60
921.12	222.61
921.42	222.61
921.72	222.62
922.02	222.63
922.32	222.64
922.63	222.64
922.93	222.70
923.23	222.70
923.53	222.69
923.83	222.62
924.13	222.63
924.44	222.62
924.74	222.64
925.04	222.66
925.34	222.65
925.64	222.60
925.94	222.61
926.24	222.67
926.55	222.66
926.85	222.67
927.15	222.67
927.45	222.66
927.75	222.66
928.05	222.66
928.35	222.65
928.65	222.66
928.95	222.67
929.26	222.62
929.56	222.64
929.86	222.65
930.16	222.64
930.46	222.63
930.76	222.63
931.06	222.58
931.36	222.55
931.66	222.57
931.96	222.59
932.26	222.59
932.56	222.55
932.86	222.55
933.16	222.56
933.46	222.54
933.76	222.53
934.06	222.55
934.36	222.59
934.66	222.58
934.96	222.56
935.26	222.57
935.56	222.58
935.86	222.55
936.16	222.54
936.46	222.53
936.76	222.52
937.06	222.51
937.36	222.52
937.66	222.52
937.96	222.51
938.26	222.49
938.56	222.48
938.86	222.48
939.16	222.50
939.46	222.51
939.76	222.52
940.06	222.51
940.35	222.49
940.65	222.44
940.95	222.45
941.25	222.43
941.55	222.41
941.85	222.40
942.15	222.43
942.45	222.46
942.75	222.46
943.04	222.46
943.34	222.48
943.64	222.47
943.94	222.46
944.24	222.46
944.54	222.47
944.84	222.46
945.13	222.45
945.43	222.43
945.73	222.42
946.03	222.41
946.33	222.41
946.62	222.40
946.92	222.40
947.22	222.40
947.52	222.41
947.82	222.43
948.11	222.42
948.41	222.39
948.71	222.36
949.01	222.37
949.31	222.36
949.60	222.35
949.90	222.37
950.20	222.37
950.50	222.37
950.79	222.36
951.09	222.38
951.39	222.38
951.69	222.37
951.98	222.38
952.28	222.39
952.58	222.39
952.87	222.39
953.17	222.40
953.47	222.39
953.76	222.39
954.06	222.37
954.36	222.35
954.66	222.35
954.95	222.38
955.25	222.39
955.55	222.40
955.84	222.38
956.14	222.38
956.44	222.39
956.73	222.38
957.03	222.39
957.32	222.38
957.62	222.38
957.92	222.40
958.21	222.38
958.51	222.50
958.81	222.51
959.10	222.52
959.40	222.54
959.69	222.55
959.99	222.57
960.29	222.57
960.58	222.57
960.88	222.61
961.17	222.60
961.47	222.60
961.76	222.60
962.06	222.61
962.36	222.60
962.65	222.60
962.95	222.61
963.24	222.60
963.54	222.60
963.83	222.61
964.13	222.60
964.42	222.59
964.72	222.50
965.01	222.51
965.31	222.50
965.60	222.47
965.90	222.53
966.19	222.50
966.49	222.51
966.78	222.51
967.08	222.49
967.37	222.50
967.67	222.47
967.96	222.49
968.26	222.49
968.55	222.50
968.85	222.49
969.14	222.49
969.43	222.49
969.73	222.48
970.02	222.47
970.32	222.47
970.61	222.46
970.91	222.43
971.20	222.41
971.49	222.41
971.79	222.42
972.08	222.35
972.38	222.36
972.67	222.36
972.96	222.37
973.26	222.35
973.55	222.38
973.85	222.38
974.14	222.37
974.43	222.38
974.73	222.36
975.02	222.35
975.31	222.35
975.61	222.35
975.90	222.34
976.19	222.33
976.49	222.34
976.78	222.35
977.07	222.35
977.37	222.36
977.66	222.37
977.95	222.35
978.24	222.35
978.54	222.37
978.83	222.37
979.12	222.36
979.42	222.36
979.71	222.34
980.00	222.33
980.29	222.34
980.59	222.32
980.88	222.35
981.17	222.35
981.46	222.35
981.76	222.35
982.05	222.38
982.34	222.38
982.63	222.38
982.93	222.38
983.22	222.41
983.51	222.42
983.80	222.43
984.09	222.45
984.39	222.44
984.68	222.42
984.97	222.43
985.26	222.42
985.55	222.43
985.85	222.41
986.14	222.43
986.43	222.44
986.72	222.43
987.01	222.39
987.30	222.40
987.59	222.39
987.89	222.40
988.18	222.36
988.47	222.35
988.76	222.35
989.05	222.34
989.34	222.32
989.63	222.34
989.92	222.33
990.22	222.31
990.51	222.31
990.80	222.31
991.09	222.31
991.38	222.33
991.67	222.32
991.96	222.31
992.25	222.31
992.54	222.29
992.83	222.29
993.12	222.29
993.41	222.31
993.70	222.35
993.99	222.37
994.28	222.39
994.58	222.40
994.87	222.40
995.16	222.39
995.45	222.39
995.74	222.35
996.03	222.36
996.32	222.38
996.61	222.41
996.90	222.41
997.19	222.40
997.48	222.40
997.77	222.39
998.06	222.40
998.34	222.39
998.63	222.39
998.92	222.40
999.21	222.42
999.50	222.41
999.79	222.38
1000.08	222.37
1000.37	222.38
1000.66	222.36
1000.95	222.38
1001.24	222.39
1001.53	222.41
1001.82	222.41
1002.11	222.38
1002.40	222.39
1002.68	222.41
1002.97	222.48
1003.26	222.47
1003.55	222.45
1003.84	222.46
1004.13	222.50
1004.42	222.49
1004.71	222.49
1004.99	222.48
1005.28	222.50
1005.57	222.49
1005.86	222.48
1006.15	222.47
1006.44	222.45
1006.72	222.47
1007.01	222.45
1007.30	222.44
1007.59	222.43
1007.88	222.43
1008.17	222.44
1008.45	222.41
1008.74	222.37
1009.03	222.33
1009.32	222.33
1009.60	222.33
1009.89	222.32
1010.18	222.28
1010.47	222.27
1010.76	222.27
1011.04	222.27
1011.33	222.27
1011.62	222.27
1011.91	222.28
1012.19	222.29
1012.48	222.29
1012.77	222.29
1013.05	222.32
1013.34	222.33
1013.63	222.32
1013.92	222.33
1014.20	222.33
1014.49	222.33
1014.78	222.34
1015.06	222.31
1015.35	222.30
1015.64	222.32
1015.92	222.33
1016.21	222.34
1016.50	222.35
1016.78	222.36
1017.07	222.36
1017.36	222.35
1017.64	222.33
1017.93	222.34
1018.22	222.32
1018.50	222.32
1018.79	222.32
1019.08	222.28
1019.36	222.29
1019.65	222.28
1019.93	222.30
1020.22	222.31
1020.51	222.37
1020.79	222.35
1021.08	222.18
1021.36	222.18
1021.65	222.25
1021.94	222.25
1022.22	222.40
1022.51	222.13
1022.79	222.78
1023.08	222.42
1023.36	223.54
1023.65	222.03
>>>>>End Processed Spectral Data<<<<<
