SpectraSuite Data File
++++++++++++++++++++++++++++++++++++
Date: Wed Sep 30 15:11:04 EDT 2015
User: lab3
Dark Spectrum Present: No
Reference Spectrum Present: No
Number of Sampled Component Spectra: 1
Spectrometers: USB2E7196
Integration Time (usec): 36000 (USB2E7196)
Spectra Averaged: 1500 (USB2E7196)
Boxcar Smoothing: 10 (USB2E7196)
Correct for Electrical Dark: No (USB2E7196)
Strobe/Lamp Enabled: No (USB2E7196)
Correct for Detector Non-linearity: No (USB2E7196)
Correct for Stray Light: No (USB2E7196)
Number of Pixels in Processed Spectrum: 2048
>>>>>Begin Processed Spectral Data<<<<<
339.09	0.00
339.48	211.10
339.86	212.68
340.24	214.26
340.63	215.64
341.01	218.45
341.39	218.36
341.78	219.57
342.16	220.77
342.54	221.22
342.93	209.79
343.31	220.39
343.69	220.93
344.07	221.40
344.46	221.82
344.84	222.20
345.22	222.44
345.60	222.68
345.99	222.87
346.37	223.01
346.75	223.11
347.13	223.19
347.52	223.26
347.90	223.35
348.28	223.39
348.66	223.44
349.05	223.44
349.43	223.49
349.81	223.55
350.19	223.60
350.57	223.67
350.96	223.76
351.34	223.86
351.72	223.96
352.10	224.06
352.48	224.13
352.87	224.18
353.25	224.24
353.63	224.31
354.01	224.39
354.39	224.46
354.77	224.54
355.15	224.63
355.54	224.68
355.92	224.71
356.30	224.78
356.68	224.91
357.06	224.99
357.44	225.03
357.82	225.10
358.20	225.21
358.58	225.26
358.97	225.32
359.35	225.39
359.73	225.47
360.11	225.52
360.49	225.58
360.87	225.63
361.25	225.69
361.63	225.76
362.01	225.81
362.39	225.84
362.77	225.89
363.15	225.92
363.53	225.95
363.91	225.98
364.29	226.01
364.67	225.93
365.05	225.95
365.43	225.99
365.81	226.01
366.19	226.02
366.57	226.07
366.95	226.07
367.33	226.05
367.71	226.04
368.09	226.06
368.47	226.06
368.85	226.05
369.23	226.05
369.61	226.00
369.99	226.01
370.37	226.00
370.75	226.05
371.13	226.03
371.51	225.99
371.89	225.97
372.27	225.94
372.65	225.92
373.03	225.89
373.41	225.85
373.78	225.80
374.16	225.71
374.54	225.63
374.92	225.59
375.30	225.55
375.68	225.47
376.06	225.43
376.44	225.37
376.82	225.33
377.19	225.28
377.57	225.24
377.95	225.16
378.33	225.10
378.71	224.95
379.09	224.89
379.47	224.86
379.84	224.79
380.22	224.72
380.60	224.64
380.98	224.59
381.36	224.54
381.73	224.47
382.11	224.44
382.49	224.40
382.87	224.34
383.25	224.30
383.62	224.38
384.00	224.31
384.38	224.27
384.76	224.24
385.13	224.22
385.51	224.18
385.89	224.12
386.27	224.08
386.64	224.06
387.02	224.02
387.40	223.97
387.78	223.95
388.15	223.93
388.53	223.91
388.91	223.88
389.29	223.85
389.66	223.84
390.04	223.80
390.42	223.78
390.79	223.76
391.17	223.73
391.55	223.61
391.92	223.60
392.30	223.59
392.68	223.57
393.05	223.54
393.43	223.54
393.81	223.55
394.18	223.54
394.56	223.53
394.94	223.56
395.31	223.56
395.69	223.60
396.06	223.61
396.44	223.63
396.82	223.63
397.19	223.69
397.57	223.70
397.95	223.75
398.32	223.74
398.70	223.79
399.07	223.85
399.45	223.87
399.82	223.90
400.20	223.94
400.58	223.98
400.95	223.99
401.33	224.06
401.70	224.19
402.08	224.27
402.45	224.35
402.83	224.45
403.20	224.56
403.58	224.63
403.95	224.76
404.33	224.88
404.71	225.01
405.08	225.20
405.46	225.34
405.83	225.49
406.21	225.66
406.58	225.85
406.96	226.02
407.33	226.25
407.70	226.49
408.08	226.81
408.45	227.10
408.83	227.41
409.20	227.69
409.58	227.95
409.95	228.31
410.33	228.69
410.70	229.05
411.08	229.47
411.45	229.91
411.82	230.36
412.20	230.87
412.57	231.46
412.95	231.94
413.32	232.57
413.69	233.21
414.07	233.89
414.44	234.63
414.82	235.39
415.19	236.28
415.56	237.19
415.94	238.11
416.31	239.16
416.68	240.21
417.06	241.43
417.43	242.57
417.81	243.87
418.18	245.20
418.55	246.65
418.93	248.17
419.30	249.75
419.67	251.44
420.04	253.18
420.42	255.01
420.79	257.11
421.16	259.22
421.54	261.38
421.91	263.63
422.28	265.96
422.66	268.49
423.03	270.90
423.40	273.41
423.77	276.12
424.15	278.90
424.52	281.79
424.89	284.93
425.26	288.04
425.64	290.93
426.01	294.19
426.38	297.52
426.75	300.95
427.13	304.48
427.50	308.17
427.87	312.02
428.24	315.89
428.61	319.63
428.99	323.65
429.36	328.03
429.73	332.22
430.10	336.40
430.47	340.67
430.85	345.08
431.22	349.76
431.59	354.58
431.96	359.28
432.33	364.50
432.70	369.47
433.08	375.33
433.45	380.85
433.82	386.29
434.19	392.38
434.56	398.34
434.93	404.10
435.30	409.80
435.68	416.16
436.05	422.39
436.42	428.63
436.79	434.30
437.16	440.48
437.53	447.05
437.90	453.61
438.27	460.05
438.64	466.96
439.01	473.26
439.38	478.99
439.75	484.54
440.13	490.82
440.50	496.75
440.87	501.46
441.24	506.60
441.61	512.28
441.98	516.40
442.35	521.36
442.72	526.44
443.09	531.24
443.46	534.30
443.83	536.60
444.20	538.51
444.57	541.30
444.94	542.93
445.31	544.61
445.68	546.09
446.05	547.16
446.42	546.95
446.79	546.62
447.16	546.35
447.53	546.10
447.90	544.20
448.27	542.42
448.64	539.60
449.01	537.78
449.37	533.81
449.74	530.21
450.11	525.57
450.48	520.44
450.85	515.30
451.22	510.96
451.59	506.63
451.96	502.72
452.33	497.05
452.70	491.97
453.07	485.83
453.43	479.68
453.80	473.70
454.17	467.98
454.54	462.67
454.91	456.69
455.28	451.05
455.65	445.73
456.02	440.08
456.38	435.53
456.75	429.65
457.12	424.92
457.49	420.16
457.86	415.61
458.23	411.61
458.59	407.23
458.96	402.75
459.33	398.82
459.70	394.80
460.07	391.76
460.43	388.17
460.80	384.80
461.17	381.86
461.54	378.67
461.91	375.67
462.27	372.60
462.64	370.08
463.01	367.18
463.38	364.30
463.74	361.68
464.11	359.36
464.48	357.26
464.85	354.98
465.21	353.22
465.58	351.30
465.95	349.10
466.32	347.33
466.68	345.58
467.05	343.83
467.42	342.14
467.78	340.31
468.15	338.61
468.52	337.37
468.88	335.74
469.25	334.25
469.62	333.07
469.98	331.80
470.35	330.68
470.72	329.67
471.08	328.62
471.45	327.76
471.82	326.81
472.18	325.81
472.55	325.17
472.92	324.40
473.28	323.78
473.65	323.14
474.02	322.53
474.38	322.03
474.75	321.76
475.11	321.35
475.48	321.21
475.85	321.05
476.21	321.00
476.58	321.00
476.94	321.20
477.31	321.31
477.67	321.45
478.04	321.70
478.41	322.03
478.77	322.51
479.14	322.84
479.50	323.39
479.87	324.06
480.23	324.77
480.60	325.44
480.96	326.15
481.33	327.12
481.69	328.11
482.06	329.09
482.42	330.03
482.79	331.14
483.15	332.43
483.52	333.89
483.88	335.27
484.25	336.73
484.61	338.25
484.98	339.89
485.34	341.75
485.71	343.66
486.07	345.71
486.44	347.74
486.80	349.98
487.17	352.30
487.53	354.87
487.90	357.47
488.26	360.30
488.62	363.32
488.99	366.35
489.35	369.50
489.72	372.92
490.08	376.52
490.44	380.16
490.81	383.97
491.17	387.87
491.54	392.08
491.90	396.36
492.26	400.97
492.63	405.81
492.99	410.84
493.36	416.02
493.72	421.46
494.08	427.06
494.45	432.98
494.81	439.10
495.17	445.32
495.54	451.94
495.90	458.90
496.26	465.97
496.63	473.28
496.99	480.90
497.35	488.81
497.72	496.99
498.08	505.43
498.44	514.08
498.80	523.22
499.17	532.63
499.53	542.41
499.89	552.40
500.26	562.63
500.62	573.06
500.98	584.18
501.34	595.46
501.71	607.25
502.07	619.24
502.43	631.55
502.79	644.27
503.16	657.40
503.52	670.69
503.88	684.32
504.24	698.33
504.60	712.53
504.97	727.17
505.33	742.18
505.69	758.02
506.05	774.09
506.41	790.29
506.78	806.70
507.14	823.68
507.50	841.00
507.86	858.61
508.22	876.62
508.59	894.67
508.95	913.39
509.31	932.57
509.67	952.57
510.03	972.88
510.39	993.30
510.75	1013.78
511.12	1034.47
511.48	1055.53
511.84	1076.93
512.20	1098.47
512.56	1120.87
512.92	1143.42
513.28	1165.82
513.64	1188.58
514.00	1211.75
514.37	1235.36
514.73	1258.90
515.09	1282.22
515.45	1305.82
515.81	1329.93
516.17	1354.16
516.53	1377.99
516.89	1401.83
517.25	1425.55
517.61	1449.48
517.97	1473.67
518.33	1497.85
518.69	1522.35
519.05	1547.10
519.41	1571.69
519.77	1596.79
520.13	1621.27
520.49	1645.97
520.85	1670.50
521.21	1694.73
521.57	1719.57
521.93	1743.45
522.29	1767.68
522.65	1791.92
523.01	1816.21
523.37	1839.55
523.73	1863.71
524.09	1887.97
524.45	1911.97
524.81	1935.76
525.17	1959.16
525.53	1982.10
525.89	2004.76
526.25	2027.41
526.61	2049.22
526.97	2071.47
527.33	2093.43
527.68	2115.10
528.04	2136.08
528.40	2157.09
528.76	2178.23
529.12	2198.28
529.48	2219.36
529.84	2238.79
530.20	2258.51
530.56	2277.42
530.91	2297.03
531.27	2315.59
531.63	2333.54
531.99	2351.09
532.35	2368.35
532.71	2385.89
533.07	2403.97
533.42	2420.94
533.78	2438.38
534.14	2455.78
534.50	2472.14
534.86	2488.93
535.21	2503.96
535.57	2518.77
535.93	2532.98
536.29	2546.31
536.65	2560.18
537.00	2572.69
537.36	2585.71
537.72	2597.86
538.08	2610.01
538.44	2620.78
538.79	2631.84
539.15	2641.16
539.51	2650.17
539.87	2658.34
540.22	2664.59
540.58	2670.73
540.94	2677.32
541.29	2682.29
541.65	2686.51
542.01	2690.91
542.37	2693.70
542.72	2698.28
543.08	2702.11
543.44	2705.56
543.79	2708.10
544.15	2709.61
544.51	2710.90
544.87	2711.79
545.22	2712.18
545.58	2711.89
545.94	2711.61
546.29	2710.00
546.65	2709.01
547.01	2708.09
547.36	2707.43
547.72	2707.12
548.07	2705.67
548.43	2703.28
548.79	2700.15
549.14	2697.16
549.50	2694.30
549.86	2690.66
550.21	2685.18
550.57	2680.29
550.92	2674.26
551.28	2668.85
551.64	2663.12
551.99	2657.53
552.35	2651.51
552.70	2645.12
553.06	2639.19
553.41	2633.20
553.77	2626.43
554.13	2620.10
554.48	2613.13
554.84	2604.82
555.19	2596.11
555.55	2586.95
555.90	2578.39
556.26	2570.64
556.61	2562.13
556.97	2551.61
557.32	2542.24
557.68	2533.17
558.03	2523.57
558.39	2514.55
558.74	2505.60
559.10	2495.87
559.45	2485.76
559.81	2475.81
560.16	2465.36
560.52	2454.60
560.87	2444.45
561.23	2434.15
561.58	2423.68
561.94	2413.06
562.29	2401.86
562.64	2391.35
563.00	2380.89
563.35	2370.67
563.71	2359.61
564.06	2348.59
564.42	2338.39
564.77	2327.65
565.12	2316.59
565.48	2305.02
565.83	2294.05
566.19	2283.22
566.54	2272.08
566.89	2260.41
567.25	2249.04
567.60	2238.88
567.96	2228.18
568.31	2216.23
568.66	2204.25
569.02	2192.73
569.37	2181.03
569.72	2170.22
570.08	2159.04
570.43	2147.19
570.78	2134.69
571.14	2122.40
571.49	2110.57
571.84	2098.59
572.20	2085.66
572.55	2073.57
572.90	2061.45
573.26	2048.85
573.61	2035.51
573.96	2022.80
574.31	2010.15
574.67	1997.26
575.02	1983.54
575.37	1969.70
575.72	1956.16
576.08	1942.80
576.43	1928.61
576.78	1914.67
577.13	1901.03
577.49	1887.29
577.84	1874.40
578.19	1860.97
578.54	1847.21
578.90	1832.92
579.25	1818.40
579.60	1805.10
579.95	1791.26
580.30	1777.86
580.66	1764.44
581.01	1751.02
581.36	1737.35
581.71	1724.31
582.06	1711.20
582.42	1698.49
582.77	1685.92
583.12	1673.19
583.47	1660.96
583.82	1648.59
584.17	1635.64
584.53	1622.85
584.88	1610.22
585.23	1596.88
585.58	1584.25
585.93	1572.06
586.28	1560.49
586.63	1548.98
586.98	1536.55
587.34	1524.55
587.69	1511.97
588.04	1499.82
588.39	1488.01
588.74	1475.84
589.09	1463.74
589.44	1451.22
589.79	1439.06
590.14	1427.13
590.49	1415.21
590.84	1403.30
591.19	1392.18
591.54	1380.77
591.89	1368.97
592.25	1357.59
592.60	1345.95
592.95	1334.55
593.30	1323.29
593.65	1311.96
594.00	1300.89
594.35	1290.63
594.70	1279.36
595.05	1268.78
595.40	1257.96
595.75	1246.77
596.10	1236.52
596.45	1226.27
596.80	1216.63
597.15	1206.65
597.50	1196.55
597.85	1186.98
598.19	1177.43
598.54	1167.61
598.89	1158.36
599.24	1149.57
599.59	1140.55
599.94	1132.36
600.29	1123.91
600.64	1115.36
600.99	1106.14
601.34	1097.35
601.69	1088.32
602.04	1080.33
602.39	1072.19
602.74	1064.29
603.08	1056.68
603.43	1048.66
603.78	1040.64
604.13	1032.66
604.48	1024.66
604.83	1016.95
605.18	1008.99
605.53	1001.03
605.87	992.92
606.22	985.19
606.57	977.19
606.92	969.06
607.27	960.99
607.62	953.17
607.96	945.57
608.31	939.07
608.66	932.24
609.01	925.49
609.36	918.54
609.70	911.56
610.05	904.39
610.40	897.46
610.75	890.57
611.10	883.85
611.44	876.86
611.79	870.15
612.14	863.20
612.49	856.32
612.83	849.89
613.18	843.56
613.53	837.13
613.88	830.87
614.22	825.02
614.57	819.01
614.92	812.98
615.27	806.91
615.61	800.57
615.96	794.45
616.31	788.21
616.65	781.98
617.00	775.95
617.35	770.05
617.70	764.22
618.04	758.52
618.39	752.82
618.74	747.36
619.08	741.71
619.43	736.21
619.78	730.65
620.12	724.99
620.47	719.64
620.82	714.34
621.16	709.16
621.51	703.77
621.85	698.41
622.20	693.09
622.55	687.75
622.89	682.36
623.24	677.07
623.59	672.00
623.93	667.15
624.28	662.39
624.62	657.52
624.97	652.56
625.32	647.74
625.66	642.92
626.01	638.11
626.35	633.44
626.70	628.81
627.04	624.46
627.39	620.02
627.73	615.54
628.08	611.23
628.43	606.81
628.77	602.41
629.12	598.14
629.46	594.06
629.81	589.94
630.15	585.84
630.50	581.88
630.84	578.00
631.19	574.12
631.53	570.37
631.88	566.58
632.22	562.79
632.57	559.19
632.91	555.46
633.26	551.76
633.60	548.13
633.95	544.67
634.29	541.07
634.64	537.51
634.98	533.90
635.32	530.39
635.67	527.11
636.01	523.79
636.36	520.47
636.70	517.28
637.05	514.12
637.39	511.05
637.73	507.78
638.08	504.64
638.42	501.50
638.77	498.19
639.11	494.84
639.45	491.63
639.80	488.41
640.14	485.32
640.49	482.25
640.83	479.10
641.17	475.99
641.52	472.97
641.86	469.94
642.20	467.06
642.55	464.07
642.89	461.11
643.23	458.37
643.58	455.83
643.92	453.11
644.26	450.42
644.61	447.72
644.95	445.08
645.29	442.36
645.64	439.61
645.98	437.04
646.32	434.64
646.66	432.17
647.01	429.72
647.35	427.35
647.69	424.91
648.04	422.59
648.38	420.26
648.72	417.89
649.06	415.56
649.41	413.29
649.75	411.01
650.09	408.75
650.43	406.42
650.78	404.09
651.12	401.83
651.46	399.64
651.80	397.56
652.14	395.54
652.49	393.56
652.83	391.65
653.17	389.67
653.51	387.79
653.85	385.96
654.20	384.01
654.54	382.01
654.88	380.19
655.22	378.37
655.56	376.55
655.90	374.79
656.25	373.06
656.59	371.34
656.93	369.72
657.27	368.15
657.61	366.53
657.95	364.96
658.29	363.35
658.64	361.74
658.98	360.11
659.32	358.46
659.66	356.92
660.00	355.38
660.34	353.87
660.68	352.31
661.02	350.72
661.36	349.25
661.70	347.82
662.05	346.36
662.39	344.92
662.73	343.56
663.07	342.24
663.41	340.93
663.75	339.61
664.09	338.31
664.43	336.94
664.77	335.66
665.11	334.30
665.45	333.02
665.79	331.78
666.13	330.56
666.47	329.35
666.81	328.09
667.15	326.82
667.49	325.60
667.83	324.42
668.17	323.28
668.51	322.15
668.85	321.04
669.19	319.98
669.53	318.84
669.87	317.69
670.21	316.59
670.55	315.49
670.89	314.47
671.23	313.41
671.57	312.36
671.91	311.35
672.25	310.41
672.58	309.50
672.92	308.55
673.26	307.64
673.60	306.70
673.94	305.77
674.28	304.88
674.62	303.99
674.96	303.09
675.30	302.22
675.64	301.36
675.97	300.53
676.31	299.67
676.65	298.84
676.99	298.09
677.33	297.25
677.67	296.45
678.01	295.60
678.34	294.79
678.68	294.03
679.02	293.26
679.36	292.47
679.70	291.66
680.04	290.88
680.37	290.09
680.71	289.37
681.05	288.70
681.39	287.99
681.73	287.28
682.06	286.58
682.40	285.90
682.74	285.22
683.08	284.55
683.42	283.86
683.75	283.24
684.09	282.54
684.43	281.89
684.77	281.24
685.10	280.62
685.44	280.00
685.78	279.38
686.12	278.78
686.45	278.18
686.79	277.57
687.13	276.97
687.46	276.38
687.80	275.81
688.14	275.19
688.48	274.62
688.81	274.04
689.15	273.50
689.49	272.92
689.82	272.35
690.16	271.74
690.50	271.19
690.83	270.60
691.17	270.05
691.51	269.50
691.84	268.98
692.18	268.43
692.52	267.87
692.85	267.32
693.19	266.83
693.52	266.31
693.86	265.81
694.20	265.33
694.53	264.85
694.87	264.33
695.21	263.83
695.54	263.33
695.88	262.83
696.21	262.30
696.55	261.83
696.88	261.37
697.22	260.92
697.56	260.47
697.89	259.98
698.23	259.54
698.56	259.08
698.90	258.65
699.23	258.21
699.57	257.82
699.90	257.42
700.24	256.98
700.58	256.57
700.91	256.19
701.25	255.86
701.58	255.49
701.92	255.13
702.25	254.75
702.59	254.36
702.92	253.99
703.26	253.62
703.59	253.25
703.93	252.97
704.26	252.63
704.60	252.27
704.93	251.92
705.26	251.56
705.60	251.25
705.93	250.90
706.27	250.61
706.60	250.30
706.94	250.00
707.27	249.67
707.61	249.35
707.94	249.01
708.27	248.62
708.61	248.27
708.94	247.94
709.28	247.63
709.61	247.34
709.94	247.07
710.28	246.80
710.61	246.53
710.95	246.16
711.28	245.94
711.61	245.66
711.95	245.42
712.28	245.15
712.61	244.86
712.95	244.64
713.28	244.42
713.61	244.14
713.95	243.86
714.28	243.63
714.61	243.36
714.95	243.13
715.28	242.88
715.61	242.64
715.95	242.43
716.28	242.20
716.61	242.01
716.95	241.77
717.28	241.56
717.61	241.35
717.94	241.16
718.28	240.89
718.61	240.68
718.94	240.47
719.27	240.28
719.61	240.10
719.94	239.88
720.27	239.64
720.60	239.45
720.94	239.28
721.27	239.10
721.60	238.94
721.93	238.75
722.27	238.62
722.60	238.47
722.93	238.26
723.26	238.09
723.59	237.89
723.93	237.73
724.26	237.58
724.59	237.41
724.92	237.26
725.25	237.14
725.59	236.97
725.92	236.83
726.25	236.68
726.58	236.53
726.91	236.37
727.24	236.24
727.57	236.09
727.91	235.93
728.24	235.80
728.57	235.65
728.90	235.53
729.23	235.35
729.56	235.26
729.89	235.14
730.22	235.00
730.55	234.88
730.89	234.75
731.22	234.61
731.55	234.48
731.88	234.35
732.21	234.20
732.54	234.09
732.87	233.97
733.20	233.86
733.53	233.76
733.86	233.65
734.19	233.53
734.52	233.45
734.85	233.42
735.18	233.30
735.51	233.21
735.84	233.11
736.17	233.03
736.50	232.88
736.83	232.90
737.16	232.81
737.49	232.72
737.82	232.62
738.15	232.53
738.48	232.44
738.81	232.34
739.14	232.25
739.47	232.16
739.80	232.06
740.13	231.98
740.46	231.87
740.79	231.77
741.12	231.68
741.45	231.56
741.78	231.41
742.11	231.34
742.44	231.24
742.77	231.16
743.10	231.06
743.43	230.98
743.75	230.79
744.08	230.86
744.41	230.77
744.74	230.69
745.07	230.60
745.40	230.54
745.73	230.50
746.06	230.42
746.39	230.36
746.71	230.28
747.04	230.19
747.37	230.12
747.70	230.07
748.03	229.99
748.36	229.95
748.68	229.88
749.01	229.78
749.34	229.71
749.67	229.66
750.00	229.60
750.33	229.62
750.65	229.57
750.98	229.36
751.31	229.29
751.64	229.23
751.97	229.22
752.29	229.15
752.62	229.05
752.95	228.98
753.28	228.89
753.60	228.83
753.93	228.80
754.26	228.75
754.59	228.66
754.91	228.59
755.24	228.51
755.57	228.50
755.90	228.44
756.22	228.37
756.55	228.29
756.88	228.21
757.20	228.08
757.53	227.99
757.86	227.93
758.19	227.89
758.51	227.84
758.84	227.73
759.17	227.67
759.49	227.62
759.82	227.62
760.15	227.59
760.47	227.55
760.80	227.47
761.13	227.43
761.45	227.39
761.78	227.36
762.11	227.32
762.43	227.23
762.76	227.18
763.08	227.15
763.41	227.11
763.74	227.08
764.06	227.05
764.39	227.01
764.71	226.97
765.04	226.91
765.37	226.86
765.69	226.82
766.02	226.78
766.34	226.74
766.67	226.68
767.00	226.66
767.32	226.67
767.65	226.69
767.97	226.64
768.30	226.61
768.62	226.57
768.95	226.52
769.27	226.49
769.60	226.47
769.92	226.42
770.25	226.37
770.57	226.32
770.90	226.28
771.22	226.24
771.55	226.21
771.87	226.18
772.20	226.15
772.52	226.21
772.85	226.30
773.17	226.27
773.50	226.23
773.82	226.18
774.15	226.10
774.47	226.01
774.80	225.98
775.12	225.95
775.45	225.92
775.77	225.90
776.09	225.87
776.42	225.85
776.74	225.86
777.07	225.83
777.39	225.81
777.72	225.79
778.04	225.77
778.36	225.73
778.69	225.73
779.01	225.71
779.33	225.60
779.66	225.46
779.98	225.43
780.31	225.41
780.63	225.43
780.95	225.43
781.28	225.41
781.60	225.38
781.92	225.37
782.25	225.34
782.57	225.32
782.89	225.30
783.22	225.26
783.54	225.22
783.86	225.21
784.19	225.19
784.51	225.20
784.83	225.17
785.16	225.15
785.48	225.13
785.80	225.11
786.12	225.11
786.45	225.09
786.77	225.08
787.09	225.05
787.42	225.00
787.74	224.98
788.06	224.97
788.38	224.95
788.71	224.92
789.03	224.91
789.35	224.92
789.67	224.88
789.99	224.88
790.32	224.86
790.64	224.86
790.96	224.95
791.28	224.90
791.61	224.89
791.93	224.88
792.25	224.86
792.57	224.92
792.89	224.89
793.21	224.89
793.54	224.87
793.86	224.86
794.18	224.84
794.50	224.81
794.82	224.80
795.14	224.81
795.47	224.82
795.79	224.81
796.11	224.76
796.43	224.76
796.75	224.75
797.07	224.74
797.39	224.72
797.71	224.62
798.04	224.62
798.36	224.62
798.68	224.60
799.00	224.60
799.32	224.53
799.64	224.54
799.96	224.53
800.28	224.55
800.60	224.53
800.92	224.53
801.24	224.51
801.56	224.51
801.89	224.48
802.21	224.47
802.53	224.44
802.85	224.46
803.17	224.50
803.49	224.47
803.81	224.46
804.13	224.44
804.45	224.43
804.77	224.43
805.09	224.41
805.41	224.40
805.73	224.37
806.05	224.33
806.37	224.32
806.69	224.30
807.01	224.27
807.33	224.26
807.65	224.22
807.97	224.26
808.28	224.25
808.60	224.24
808.92	224.21
809.24	224.27
809.56	224.24
809.88	224.19
810.20	224.19
810.52	224.20
810.84	224.17
811.16	224.15
811.48	224.13
811.80	224.17
812.12	224.15
812.43	224.17
812.75	224.17
813.07	224.15
813.39	224.14
813.71	224.12
814.03	224.11
814.35	224.11
814.67	224.05
814.98	224.04
815.30	224.04
815.62	224.02
815.94	223.94
816.26	223.94
816.58	223.92
816.89	223.92
817.21	223.89
817.53	223.89
817.85	223.90
818.17	223.89
818.48	223.84
818.80	223.86
819.12	223.83
819.44	223.82
819.76	223.80
820.07	223.80
820.39	223.80
820.71	223.80
821.03	223.79
821.34	223.79
821.66	223.80
821.98	223.80
822.30	223.79
822.61	223.86
822.93	223.83
823.25	223.83
823.57	223.81
823.88	223.82
824.20	223.81
824.52	223.82
824.83	223.81
825.15	223.79
825.47	223.78
825.79	223.79
826.10	223.77
826.42	223.76
826.74	223.76
827.05	223.76
827.37	223.76
827.69	223.76
828.00	223.76
828.32	223.75
828.64	223.73
828.95	223.78
829.27	223.75
829.58	223.75
829.90	223.77
830.22	223.78
830.53	223.76
830.85	223.75
831.17	223.71
831.48	223.71
831.80	223.73
832.11	223.73
832.43	223.70
832.75	223.70
833.06	223.77
833.38	223.73
833.69	223.73
834.01	223.72
834.32	223.71
834.64	223.70
834.96	223.70
835.27	223.69
835.59	223.65
835.90	223.64
836.22	223.63
836.53	223.61
836.85	223.59
837.16	223.70
837.48	223.70
837.79	223.74
838.11	223.73
838.42	223.73
838.74	223.74
839.05	223.73
839.37	223.74
839.68	223.67
840.00	223.67
840.31	223.68
840.63	223.67
840.94	223.66
841.26	223.64
841.57	223.64
841.88	223.66
842.20	223.64
842.51	223.63
842.83	223.63
843.14	223.72
843.46	223.72
843.77	223.65
844.08	223.64
844.40	223.60
844.71	223.59
845.03	223.58
845.34	223.57
845.65	223.56
845.97	223.56
846.28	223.55
846.60	223.55
846.91	223.54
847.22	223.53
847.54	223.55
847.85	223.56
848.16	223.55
848.48	223.52
848.79	223.55
849.10	223.55
849.42	223.55
849.73	223.45
850.04	223.43
850.36	223.40
850.67	223.41
850.98	223.41
851.30	223.42
851.61	223.42
851.92	223.41
852.23	223.44
852.55	223.44
852.86	223.44
853.17	223.44
853.49	223.47
853.80	223.48
854.11	223.50
854.42	223.51
854.74	223.49
855.05	223.49
855.36	223.45
855.67	223.46
855.99	223.46
856.30	223.58
856.61	223.58
856.92	223.58
857.23	223.59
857.55	223.58
857.86	223.57
858.17	223.58
858.48	223.56
858.79	223.54
859.11	223.54
859.42	223.53
859.73	223.53
860.04	223.52
860.35	223.48
860.66	223.44
860.98	223.43
861.29	223.44
861.60	223.44
861.91	223.45
862.22	223.44
862.53	223.43
862.84	223.31
863.16	223.33
863.47	223.32
863.78	223.30
864.09	223.31
864.40	223.31
864.71	223.31
865.02	223.32
865.33	223.31
865.64	223.29
865.95	223.29
866.27	223.36
866.58	223.35
866.89	223.37
867.20	223.37
867.51	223.35
867.82	223.35
868.13	223.38
868.44	223.36
868.75	223.37
869.06	223.36
869.37	223.37
869.68	223.35
869.99	223.36
870.30	223.38
870.61	223.38
870.92	223.36
871.23	223.35
871.54	223.37
871.85	223.40
872.16	223.42
872.47	223.41
872.78	223.34
873.09	223.34
873.40	223.33
873.71	223.33
874.02	223.34
874.33	223.34
874.64	223.32
874.95	223.33
875.26	223.31
875.56	223.31
875.87	223.30
876.18	223.28
876.49	223.38
876.80	223.37
877.11	223.34
877.42	223.34
877.73	223.35
878.04	223.33
878.35	223.32
878.66	223.33
878.96	223.32
879.27	223.32
879.58	223.32
879.89	223.32
880.20	223.35
880.51	223.35
880.82	223.35
881.12	223.36
881.43	223.33
881.74	223.32
882.05	223.32
882.36	223.32
882.67	223.34
882.97	223.23
883.28	223.22
883.59	223.22
883.90	223.23
884.21	223.25
884.51	223.23
884.82	223.22
885.13	223.22
885.44	223.23
885.74	223.22
886.05	223.21
886.36	223.22
886.67	223.17
886.98	223.23
887.28	223.23
887.59	223.24
887.90	223.24
888.20	223.24
888.51	223.25
888.82	223.23
889.13	223.24
889.43	223.33
889.74	223.32
890.05	223.32
890.35	223.30
890.66	223.28
890.97	223.27
891.28	223.25
891.58	223.24
891.89	223.24
892.20	223.23
892.50	223.22
892.81	223.21
893.12	223.21
893.42	223.15
893.73	223.15
894.04	223.14
894.34	223.15
894.65	223.15
894.95	223.15
895.26	223.14
895.57	223.19
895.87	223.09
896.18	223.11
896.48	223.11
896.79	223.11
897.10	223.13
897.40	223.13
897.71	223.14
898.01	223.13
898.32	223.14
898.63	223.14
898.93	223.15
899.24	223.15
899.54	223.14
899.85	223.14
900.15	223.14
900.46	223.13
900.76	223.13
901.07	223.13
901.38	223.12
901.68	223.13
901.99	223.08
902.29	223.09
902.60	223.08
902.90	223.08
903.21	223.08
903.51	223.07
903.82	223.09
904.12	223.09
904.43	223.09
904.73	223.08
905.03	223.08
905.34	223.18
905.64	223.18
905.95	223.19
906.25	223.19
906.56	223.19
906.86	223.19
907.17	223.19
907.47	223.19
907.77	223.19
908.08	223.17
908.38	223.17
908.69	223.17
908.99	223.19
909.30	223.19
909.60	223.18
909.90	223.19
910.21	223.16
910.51	223.15
910.81	223.15
911.12	223.16
911.42	223.17
911.73	223.05
912.03	223.07
912.33	223.09
912.64	223.08
912.94	223.07
913.24	223.06
913.55	223.05
913.85	223.06
914.15	223.08
914.46	223.09
914.76	223.09
915.06	223.08
915.37	223.06
915.67	223.07
915.97	223.07
916.27	223.06
916.58	223.06
916.88	223.07
917.18	223.05
917.49	223.12
917.79	223.12
918.09	223.14
918.39	223.16
918.70	223.15
919.00	223.15
919.30	223.20
919.60	223.20
919.91	223.19
920.21	223.19
920.51	223.17
920.81	223.16
921.12	223.18
921.42	223.18
921.72	223.20
922.02	223.19
922.32	223.21
922.63	223.21
922.93	223.28
923.23	223.28
923.53	223.27
923.83	223.20
924.13	223.22
924.44	223.22
924.74	223.23
925.04	223.26
925.34	223.25
925.64	223.22
925.94	223.23
926.24	223.29
926.55	223.28
926.85	223.29
927.15	223.30
927.45	223.29
927.75	223.29
928.05	223.28
928.35	223.28
928.65	223.29
928.95	223.30
929.26	223.25
929.56	223.27
929.86	223.29
930.16	223.27
930.46	223.25
930.76	223.25
931.06	223.20
931.36	223.17
931.66	223.18
931.96	223.19
932.26	223.18
932.56	223.14
932.86	223.13
933.16	223.13
933.46	223.12
933.76	223.10
934.06	223.13
934.36	223.15
934.66	223.15
934.96	223.13
935.26	223.14
935.56	223.15
935.86	223.12
936.16	223.10
936.46	223.11
936.76	223.12
937.06	223.10
937.36	223.11
937.66	223.12
937.96	223.12
938.26	223.10
938.56	223.09
938.86	223.09
939.16	223.11
939.46	223.12
939.76	223.12
940.06	223.13
940.35	223.10
940.65	223.06
940.95	223.06
941.25	223.04
941.55	223.01
941.85	223.01
942.15	223.04
942.45	223.07
942.75	223.06
943.04	223.06
943.34	223.07
943.64	223.07
943.94	223.06
944.24	223.05
944.54	223.06
944.84	223.05
945.13	223.04
945.43	223.03
945.73	223.02
946.03	223.01
946.33	223.00
946.62	222.98
946.92	222.98
947.22	222.98
947.52	222.99
947.82	223.00
948.11	222.99
948.41	222.96
948.71	222.92
949.01	222.93
949.31	222.92
949.60	222.91
949.90	222.93
950.20	222.93
950.50	222.93
950.79	222.91
951.09	222.93
951.39	222.93
951.69	222.91
951.98	222.93
952.28	222.94
952.58	222.94
952.87	222.95
953.17	222.96
953.47	222.95
953.76	222.95
954.06	222.93
954.36	222.92
954.66	222.93
954.95	222.96
955.25	222.96
955.55	222.97
955.84	222.95
956.14	222.96
956.44	222.97
956.73	222.95
957.03	222.95
957.32	222.95
957.62	222.94
957.92	222.97
958.21	222.96
958.51	223.07
958.81	223.09
959.10	223.11
959.40	223.13
959.69	223.14
959.99	223.16
960.29	223.16
960.58	223.16
960.88	223.19
961.17	223.17
961.47	223.18
961.76	223.17
962.06	223.18
962.36	223.17
962.65	223.17
962.95	223.18
963.24	223.18
963.54	223.19
963.83	223.20
964.13	223.18
964.42	223.16
964.72	223.07
965.01	223.06
965.31	223.05
965.60	223.01
965.90	223.07
966.19	223.03
966.49	223.04
966.78	223.03
967.08	223.02
967.37	223.02
967.67	223.01
967.96	223.03
968.26	223.03
968.55	223.03
968.85	223.03
969.14	223.02
969.43	223.02
969.73	223.01
970.02	223.00
970.32	223.00
970.61	223.00
970.91	222.97
971.20	222.95
971.49	222.94
971.79	222.96
972.08	222.89
972.38	222.90
972.67	222.89
972.96	222.92
973.26	222.90
973.55	222.93
973.85	222.92
974.14	222.91
974.43	222.92
974.73	222.90
975.02	222.88
975.31	222.88
975.61	222.88
975.90	222.87
976.19	222.87
976.49	222.88
976.78	222.88
977.07	222.87
977.37	222.88
977.66	222.90
977.95	222.88
978.24	222.90
978.54	222.92
978.83	222.91
979.12	222.90
979.42	222.90
979.71	222.87
980.00	222.88
980.29	222.88
980.59	222.86
980.88	222.88
981.17	222.89
981.46	222.89
981.76	222.89
982.05	222.92
982.34	222.93
982.63	222.92
982.93	222.92
983.22	222.96
983.51	222.97
983.80	222.98
984.09	222.99
984.39	222.98
984.68	222.96
984.97	222.97
985.26	222.96
985.55	222.97
985.85	222.96
986.14	222.97
986.43	222.98
986.72	222.98
987.01	222.95
987.30	222.96
987.59	222.96
987.89	222.96
988.18	222.93
988.47	222.91
988.76	222.91
989.05	222.90
989.34	222.88
989.63	222.90
989.92	222.89
990.22	222.89
990.51	222.89
990.80	222.87
991.09	222.89
991.38	222.90
991.67	222.89
991.96	222.88
992.25	222.89
992.54	222.88
992.83	222.88
993.12	222.88
993.41	222.89
993.70	222.94
993.99	222.95
994.28	222.97
994.58	222.99
994.87	222.98
995.16	222.98
995.45	222.97
995.74	222.94
996.03	222.96
996.32	222.97
996.61	222.99
996.90	222.99
997.19	222.97
997.48	222.98
997.77	222.96
998.06	222.97
998.34	222.96
998.63	222.95
998.92	222.95
999.21	222.96
999.50	222.95
999.79	222.91
1000.08	222.91
1000.37	222.90
1000.66	222.88
1000.95	222.90
1001.24	222.92
1001.53	222.93
1001.82	222.92
1002.11	222.89
1002.40	222.89
1002.68	222.91
1002.97	222.98
1003.26	222.97
1003.55	222.95
1003.84	222.96
1004.13	222.99
1004.42	222.98
1004.71	222.98
1004.99	222.97
1005.28	222.99
1005.57	222.97
1005.86	222.96
1006.15	222.96
1006.44	222.94
1006.72	222.96
1007.01	222.95
1007.30	222.95
1007.59	222.93
1007.88	222.93
1008.17	222.93
1008.45	222.91
1008.74	222.86
1009.03	222.82
1009.32	222.81
1009.60	222.82
1009.89	222.81
1010.18	222.77
1010.47	222.76
1010.76	222.77
1011.04	222.77
1011.33	222.77
1011.62	222.77
1011.91	222.78
1012.19	222.79
1012.48	222.79
1012.77	222.78
1013.05	222.81
1013.34	222.81
1013.63	222.80
1013.92	222.81
1014.20	222.81
1014.49	222.82
1014.78	222.84
1015.06	222.82
1015.35	222.83
1015.64	222.84
1015.92	222.86
1016.21	222.87
1016.50	222.88
1016.78	222.90
1017.07	222.91
1017.36	222.89
1017.64	222.88
1017.93	222.89
1018.22	222.88
1018.50	222.88
1018.79	222.89
1019.08	222.86
1019.36	222.87
1019.65	222.86
1019.93	222.89
1020.22	222.91
1020.51	222.96
1020.79	222.94
1021.08	222.79
1021.36	222.75
1021.65	222.95
1021.94	222.82
1022.22	222.96
1022.51	222.68
1022.79	223.46
1023.08	223.08
1023.36	224.00
1023.65	222.71
>>>>>End Processed Spectral Data<<<<<
