SpectraSuite Data File
++++++++++++++++++++++++++++++++++++
Date: Thu Oct 01 12:51:56 EDT 2015
User: lab3
Dark Spectrum Present: No
Reference Spectrum Present: No
Number of Sampled Component Spectra: 1
Spectrometers: USB2E7196
Integration Time (usec): 36000 (USB2E7196)
Spectra Averaged: 10000 (USB2E7196)
Boxcar Smoothing: 10 (USB2E7196)
Correct for Electrical Dark: No (USB2E7196)
Strobe/Lamp Enabled: No (USB2E7196)
Correct for Detector Non-linearity: No (USB2E7196)
Correct for Stray Light: No (USB2E7196)
Number of Pixels in Processed Spectrum: 2048
>>>>>Begin Processed Spectral Data<<<<<
339.09	0.00
339.48	211.85
339.86	213.28
340.24	214.70
340.63	216.10
341.01	219.03
341.39	218.75
341.78	220.19
342.16	221.36
342.54	221.74
342.93	210.33
343.31	220.95
343.69	221.49
344.07	221.95
344.46	222.38
344.84	222.77
345.22	223.00
345.60	223.26
345.99	223.45
346.37	223.58
346.75	223.69
347.13	223.77
347.52	223.84
347.90	223.92
348.28	223.95
348.66	224.01
349.05	224.01
349.43	224.06
349.81	224.12
350.19	224.17
350.57	224.24
350.96	224.32
351.34	224.41
351.72	224.51
352.10	224.62
352.48	224.69
352.87	224.74
353.25	224.81
353.63	224.87
354.01	224.94
354.39	225.02
354.77	225.09
355.15	225.20
355.54	225.25
355.92	225.29
356.30	225.36
356.68	225.49
357.06	225.57
357.44	225.62
357.82	225.68
358.20	225.79
358.58	225.85
358.97	225.92
359.35	226.00
359.73	226.08
360.11	226.13
360.49	226.19
360.87	226.24
361.25	226.29
361.63	226.37
362.01	226.43
362.39	226.46
362.77	226.50
363.15	226.53
363.53	226.56
363.91	226.59
364.29	226.61
364.67	226.54
365.05	226.57
365.43	226.60
365.81	226.63
366.19	226.65
366.57	226.70
366.95	226.70
367.33	226.67
367.71	226.67
368.09	226.69
368.47	226.68
368.85	226.67
369.23	226.68
369.61	226.63
369.99	226.64
370.37	226.64
370.75	226.69
371.13	226.67
371.51	226.63
371.89	226.61
372.27	226.59
372.65	226.56
373.03	226.52
373.41	226.48
373.78	226.43
374.16	226.33
374.54	226.26
374.92	226.21
375.30	226.16
375.68	226.10
376.06	226.05
376.44	226.00
376.82	225.95
377.19	225.90
377.57	225.85
377.95	225.77
378.33	225.71
378.71	225.57
379.09	225.52
379.47	225.48
379.84	225.42
380.22	225.36
380.60	225.29
380.98	225.24
381.36	225.19
381.73	225.12
382.11	225.10
382.49	225.06
382.87	224.99
383.25	224.95
383.62	225.03
384.00	224.96
384.38	224.92
384.76	224.90
385.13	224.88
385.51	224.84
385.89	224.78
386.27	224.75
386.64	224.73
387.02	224.68
387.40	224.64
387.78	224.61
388.15	224.59
388.53	224.56
388.91	224.53
389.29	224.49
389.66	224.49
390.04	224.44
390.42	224.44
390.79	224.42
391.17	224.41
391.55	224.27
391.92	224.26
392.30	224.26
392.68	224.23
393.05	224.21
393.43	224.21
393.81	224.22
394.18	224.20
394.56	224.19
394.94	224.22
395.31	224.22
395.69	224.26
396.06	224.28
396.44	224.30
396.82	224.31
397.19	224.38
397.57	224.40
397.95	224.44
398.32	224.44
398.70	224.48
399.07	224.53
399.45	224.57
399.82	224.61
400.20	224.64
400.58	224.70
400.95	224.72
401.33	224.79
401.70	224.93
402.08	225.02
402.45	225.10
402.83	225.21
403.20	225.31
403.58	225.40
403.95	225.52
404.33	225.66
404.71	225.79
405.08	225.97
405.46	226.12
405.83	226.29
406.21	226.46
406.58	226.66
406.96	226.85
407.33	227.07
407.70	227.32
408.08	227.66
408.45	227.95
408.83	228.27
409.20	228.56
409.58	228.83
409.95	229.19
410.33	229.58
410.70	229.94
411.08	230.37
411.45	230.83
411.82	231.29
412.20	231.82
412.57	232.45
412.95	232.95
413.32	233.59
413.69	234.25
414.07	234.95
414.44	235.72
414.82	236.51
415.19	237.43
415.56	238.36
415.94	239.33
416.31	240.42
416.68	241.51
417.06	242.77
417.43	243.95
417.81	245.32
418.18	246.71
418.55	248.24
418.93	249.82
419.30	251.48
419.67	253.24
420.04	255.06
420.42	256.95
420.79	259.13
421.16	261.34
421.54	263.58
421.91	265.93
422.28	268.36
422.66	270.99
423.03	273.49
423.40	276.12
423.77	278.93
424.15	281.82
424.52	284.82
424.89	288.06
425.26	291.29
425.64	294.29
426.01	297.66
426.38	301.09
426.75	304.62
427.13	308.24
427.50	312.02
427.87	315.95
428.24	319.92
428.61	323.72
428.99	327.80
429.36	332.29
429.73	336.57
430.10	340.84
430.47	345.19
430.85	349.67
431.22	354.45
431.59	359.35
431.96	364.13
432.33	369.41
432.70	374.41
433.08	380.34
433.45	385.92
433.82	391.43
434.19	397.58
434.56	403.63
434.93	409.46
435.30	415.22
435.68	421.71
436.05	428.06
436.42	434.42
436.79	440.21
437.16	446.47
437.53	453.18
437.90	459.88
438.27	466.44
438.64	473.56
439.01	479.99
439.38	485.87
439.75	491.55
440.13	498.05
440.50	504.25
440.87	509.13
441.24	514.51
441.61	520.44
441.98	524.79
442.35	529.99
442.72	535.31
443.09	540.42
443.46	543.74
443.83	546.21
444.20	548.30
444.57	551.34
444.94	553.19
445.31	555.08
445.68	556.78
446.05	558.07
446.42	557.99
446.79	557.79
447.16	557.64
447.53	557.52
447.90	555.67
448.27	553.94
448.64	551.15
449.01	549.32
449.37	545.29
449.74	541.64
450.11	536.90
450.48	531.68
450.85	526.42
451.22	521.94
451.59	517.57
451.96	513.59
452.33	507.74
452.70	502.52
453.07	496.16
453.43	489.79
453.80	483.62
454.17	477.68
454.54	472.17
454.91	465.94
455.28	460.08
455.65	454.56
456.02	448.65
456.38	443.90
456.75	437.77
457.12	432.83
457.49	427.83
457.86	423.07
458.23	418.87
458.59	414.25
458.96	409.50
459.33	405.31
459.70	401.05
460.07	397.79
460.43	393.97
460.80	390.38
461.17	387.22
461.54	383.81
461.91	380.63
462.27	377.40
462.64	374.76
463.01	371.73
463.38	368.68
463.74	365.94
464.11	363.49
464.48	361.27
464.85	358.90
465.21	357.08
465.58	355.07
465.95	352.77
466.32	350.93
466.68	349.13
467.05	347.33
467.42	345.58
467.78	343.71
468.15	341.97
468.52	340.69
468.88	339.01
469.25	337.48
469.62	336.25
469.98	334.93
470.35	333.76
470.72	332.70
471.08	331.64
471.45	330.75
471.82	329.77
472.18	328.75
472.55	328.09
472.92	327.29
473.28	326.66
473.65	326.01
474.02	325.40
474.38	324.90
474.75	324.62
475.11	324.22
475.48	324.07
475.85	323.92
476.21	323.89
476.58	323.91
476.94	324.12
477.31	324.27
477.67	324.44
478.04	324.73
478.41	325.09
478.77	325.57
479.14	325.93
479.50	326.51
479.87	327.23
480.23	327.96
480.60	328.66
480.96	329.39
481.33	330.38
481.69	331.37
482.06	332.36
482.42	333.28
482.79	334.39
483.15	335.67
483.52	337.09
483.88	338.46
484.25	339.92
484.61	341.44
484.98	343.08
485.34	344.92
485.71	346.82
486.07	348.84
486.44	350.86
486.80	353.09
487.17	355.39
487.53	357.91
487.90	360.54
488.26	363.38
488.62	366.38
488.99	369.39
489.35	372.53
489.72	375.93
490.08	379.50
490.44	383.17
490.81	387.00
491.17	390.93
491.54	395.13
491.90	399.43
492.26	404.08
492.63	408.95
492.99	414.01
493.36	419.20
493.72	424.66
494.08	430.28
494.45	436.22
494.81	442.35
495.17	448.63
495.54	455.26
495.90	462.20
496.26	469.28
496.63	476.61
496.99	484.25
497.35	492.27
497.72	500.56
498.08	509.01
498.44	517.74
498.80	527.03
499.17	536.55
499.53	546.42
499.89	556.51
500.26	566.80
500.62	577.38
500.98	588.66
501.34	600.10
501.71	612.09
502.07	624.30
502.43	636.92
502.79	649.83
503.16	663.20
503.52	676.74
503.88	690.70
504.24	705.07
504.60	719.70
504.97	734.73
505.33	750.22
505.69	766.64
506.05	783.22
506.41	799.79
506.78	816.66
507.14	834.04
507.50	851.99
507.86	870.38
508.22	889.07
508.59	907.77
508.95	927.17
509.31	947.04
509.67	967.63
510.03	988.41
510.39	1009.44
510.75	1030.68
511.12	1052.25
511.48	1074.03
511.84	1095.98
512.20	1118.30
512.56	1141.70
512.92	1165.18
513.28	1188.37
513.64	1211.95
514.00	1235.96
514.37	1260.28
514.73	1284.67
515.09	1308.82
515.45	1333.42
515.81	1358.55
516.17	1383.67
516.53	1408.50
516.89	1433.38
517.25	1458.45
517.61	1483.70
517.97	1509.15
518.33	1534.33
518.69	1559.59
519.05	1585.18
519.41	1610.89
519.77	1636.81
520.13	1661.91
520.49	1687.25
520.85	1712.82
521.21	1738.26
521.57	1764.24
521.93	1789.52
522.29	1815.57
522.65	1841.36
523.01	1866.92
523.37	1891.67
523.73	1917.16
524.09	1942.84
524.45	1968.37
524.81	1993.32
525.17	2018.23
525.53	2042.60
525.89	2067.02
526.25	2091.71
526.61	2115.86
526.97	2140.22
527.33	2164.53
527.68	2188.59
528.04	2211.88
528.40	2234.93
528.76	2258.17
529.12	2280.35
529.48	2302.88
529.84	2323.55
530.20	2344.81
530.56	2365.63
530.91	2386.58
531.27	2406.99
531.63	2426.60
531.99	2445.78
532.35	2464.66
532.71	2483.63
533.07	2503.07
533.42	2521.14
533.78	2539.43
534.14	2557.74
534.50	2575.20
534.86	2593.28
535.21	2609.51
535.57	2625.49
535.93	2641.01
536.29	2655.19
536.65	2670.34
537.00	2684.27
537.36	2698.72
537.72	2712.10
538.08	2725.00
538.44	2736.84
538.79	2748.83
539.15	2759.25
539.51	2769.52
539.87	2779.43
540.22	2787.09
540.58	2795.12
540.94	2803.42
541.29	2810.43
541.65	2816.32
542.01	2821.71
542.37	2825.25
542.72	2830.91
543.08	2835.94
543.44	2840.63
543.79	2844.66
544.15	2847.50
544.51	2850.51
544.87	2852.57
545.22	2854.34
545.58	2855.29
545.94	2856.61
546.29	2856.43
546.65	2856.18
547.01	2856.22
547.36	2856.22
547.72	2856.43
548.07	2855.17
548.43	2853.33
548.79	2850.77
549.14	2848.19
549.50	2846.47
549.86	2843.51
550.21	2838.24
550.57	2833.39
550.92	2827.30
551.28	2821.78
551.64	2816.36
551.99	2811.12
552.35	2805.52
552.70	2799.44
553.06	2794.08
553.41	2788.27
553.77	2781.83
554.13	2776.37
554.48	2769.61
554.84	2761.44
555.19	2753.46
555.55	2745.00
555.90	2737.10
556.26	2730.16
556.61	2722.55
556.97	2712.63
557.32	2703.80
557.68	2695.17
558.03	2686.07
558.39	2677.64
558.74	2669.14
559.10	2659.58
559.45	2649.55
559.81	2640.02
560.16	2629.72
560.52	2619.18
560.87	2609.63
561.23	2599.55
561.58	2588.91
561.94	2578.10
562.29	2566.83
562.64	2556.21
563.00	2545.74
563.35	2535.20
563.71	2523.64
564.06	2511.79
564.42	2500.85
564.77	2489.64
565.12	2478.50
565.48	2467.24
565.83	2456.51
566.19	2445.91
566.54	2434.68
566.89	2422.78
567.25	2410.73
567.60	2399.51
567.96	2387.77
568.31	2374.57
568.66	2361.59
569.02	2349.65
569.37	2337.38
569.72	2325.64
570.08	2313.21
570.43	2300.28
570.78	2286.94
571.14	2273.52
571.49	2260.77
571.84	2248.38
572.20	2234.77
572.55	2221.48
572.90	2208.00
573.26	2193.43
573.61	2178.40
573.96	2163.91
574.31	2149.63
574.67	2135.60
575.02	2121.17
575.37	2106.28
575.72	2091.68
576.08	2077.60
576.43	2062.48
576.78	2047.63
577.13	2033.51
577.49	2019.23
577.84	2005.39
578.19	1990.77
578.54	1975.81
578.90	1960.43
579.25	1944.72
579.60	1930.37
579.95	1915.68
580.30	1901.05
580.66	1886.81
581.01	1872.25
581.36	1857.91
581.71	1844.26
582.06	1829.97
582.42	1815.92
582.77	1802.47
583.12	1788.66
583.47	1775.04
583.82	1761.53
584.17	1747.89
584.53	1734.07
584.88	1720.35
585.23	1706.17
585.58	1692.57
585.93	1679.41
586.28	1667.05
586.63	1654.42
586.98	1641.16
587.34	1628.10
587.69	1614.57
588.04	1601.47
588.39	1588.86
588.74	1575.76
589.09	1562.43
589.44	1549.13
589.79	1536.26
590.14	1523.42
590.49	1510.78
590.84	1497.97
591.19	1485.75
591.54	1473.01
591.89	1460.18
592.25	1447.66
592.60	1434.86
592.95	1422.59
593.30	1410.63
593.65	1398.38
594.00	1386.46
594.35	1375.16
594.70	1363.25
595.05	1352.37
595.40	1341.07
595.75	1329.35
596.10	1318.48
596.45	1307.79
596.80	1297.61
597.15	1287.21
597.50	1276.74
597.85	1266.52
598.19	1256.45
598.54	1245.82
598.89	1235.98
599.24	1226.35
599.59	1216.60
599.94	1207.85
600.29	1198.93
600.64	1189.73
600.99	1179.95
601.34	1170.65
601.69	1160.88
602.04	1152.06
602.39	1143.11
602.74	1134.44
603.08	1125.98
603.43	1117.04
603.78	1108.05
604.13	1099.14
604.48	1090.19
604.83	1081.49
605.18	1072.71
605.53	1063.84
605.87	1055.14
606.22	1046.64
606.57	1037.95
606.92	1029.35
607.27	1020.52
607.62	1011.86
607.96	1003.38
608.31	995.94
608.66	988.06
609.01	980.55
609.36	973.00
609.70	965.20
610.05	957.28
610.40	949.69
610.75	942.15
611.10	934.87
611.44	927.30
611.79	919.97
612.14	912.29
612.49	904.81
612.83	897.77
613.18	890.74
613.53	883.55
613.88	876.47
614.22	869.95
614.57	863.26
614.92	856.57
615.27	849.91
615.61	843.10
615.96	836.47
616.31	829.80
616.65	823.03
617.00	816.51
617.35	810.18
617.70	803.83
618.04	797.58
618.39	791.31
618.74	785.36
619.08	779.30
619.43	773.42
619.78	767.53
620.12	761.51
620.47	755.68
620.82	749.97
621.16	744.51
621.51	738.69
621.85	732.88
622.20	727.15
622.55	721.59
622.89	715.96
623.24	710.41
623.59	704.90
623.93	699.47
624.28	694.17
624.62	688.83
624.97	683.51
625.32	678.27
625.66	672.91
626.01	667.52
626.35	662.27
626.70	657.09
627.04	652.14
627.39	647.21
627.73	642.39
628.08	637.76
628.43	632.99
628.77	628.30
629.12	623.76
629.46	619.34
629.81	614.75
630.15	610.08
630.50	605.58
630.84	601.30
631.19	597.17
631.53	593.06
631.88	588.87
632.22	584.75
632.57	580.87
632.91	576.94
633.26	573.10
633.60	569.31
633.95	565.63
634.29	561.80
634.64	557.95
634.98	554.03
635.32	550.26
635.67	546.60
636.01	542.93
636.36	539.28
636.70	535.77
637.05	532.30
637.39	528.99
637.73	525.53
638.08	522.13
638.42	518.68
638.77	515.16
639.11	511.58
639.45	508.11
639.80	504.62
640.14	501.31
640.49	497.95
640.83	494.47
641.17	491.07
641.52	487.80
641.86	484.51
642.20	481.41
642.55	478.14
642.89	475.00
643.23	472.01
643.58	469.26
643.92	466.39
644.26	463.53
644.61	460.65
644.95	457.80
645.29	454.89
645.64	451.99
645.98	449.21
646.32	446.63
646.66	444.01
647.01	441.38
647.35	438.78
647.69	436.10
648.04	433.61
648.38	431.10
648.72	428.56
649.06	426.12
649.41	423.66
649.75	421.20
650.09	418.78
650.43	416.37
650.78	413.92
651.12	411.47
651.46	409.13
651.80	406.89
652.14	404.71
652.49	402.55
652.83	400.43
653.17	398.30
653.51	396.20
653.85	394.19
654.20	392.11
654.54	389.98
654.88	388.04
655.22	386.11
655.56	384.16
655.90	382.31
656.25	380.45
656.59	378.62
656.93	376.88
657.27	375.16
657.61	373.36
657.95	371.62
658.29	369.89
658.64	368.19
658.98	366.48
659.32	364.78
659.66	363.19
660.00	361.59
660.34	360.04
660.68	358.44
661.02	356.77
661.36	355.24
661.70	353.74
662.05	352.22
662.39	350.70
662.73	349.27
663.07	347.85
663.41	346.47
663.75	345.10
664.09	343.73
664.43	342.28
664.77	340.94
665.11	339.55
665.45	338.23
665.79	336.90
666.13	335.55
666.47	334.21
666.81	332.84
667.15	331.45
667.49	330.14
667.83	328.89
668.17	327.68
668.51	326.48
668.85	325.30
669.19	324.19
669.53	323.02
669.87	321.82
670.21	320.64
670.55	319.49
670.89	318.41
671.23	317.31
671.57	316.22
671.91	315.17
672.25	314.18
672.58	313.17
672.92	312.14
673.26	311.19
673.60	310.22
673.94	309.25
674.28	308.34
674.62	307.42
674.96	306.46
675.30	305.56
675.64	304.64
675.97	303.74
676.31	302.80
676.65	301.89
676.99	301.04
677.33	300.15
677.67	299.28
678.01	298.34
678.34	297.48
678.68	296.67
679.02	295.83
679.36	294.99
679.70	294.16
680.04	293.36
680.37	292.55
680.71	291.78
681.05	291.05
681.39	290.28
681.73	289.48
682.06	288.71
682.40	287.96
682.74	287.24
683.08	286.53
683.42	285.81
683.75	285.16
684.09	284.42
684.43	283.74
684.77	283.04
685.10	282.39
685.44	281.71
685.78	281.04
686.12	280.40
686.45	279.75
686.79	279.10
687.13	278.47
687.46	277.81
687.80	277.18
688.14	276.51
688.48	275.90
688.81	275.29
689.15	274.73
689.49	274.12
689.82	273.53
690.16	272.88
690.50	272.30
690.83	271.71
691.17	271.15
691.51	270.59
691.84	270.05
692.18	269.48
692.52	268.91
692.85	268.35
693.19	267.84
693.52	267.31
693.86	266.79
694.20	266.28
694.53	265.78
694.87	265.28
695.21	264.79
695.54	264.30
695.88	263.80
696.21	263.27
696.55	262.79
696.88	262.31
697.22	261.85
697.56	261.38
697.89	260.87
698.23	260.39
698.56	259.89
698.90	259.45
699.23	258.99
699.57	258.57
699.90	258.14
700.24	257.66
700.58	257.24
700.91	256.84
701.25	256.52
701.58	256.15
701.92	255.78
702.25	255.38
702.59	254.98
702.92	254.60
703.26	254.22
703.59	253.84
703.93	253.56
704.26	253.21
704.60	252.85
704.93	252.51
705.26	252.17
705.60	251.86
705.93	251.50
706.27	251.20
706.60	250.89
706.94	250.59
707.27	250.24
707.61	249.91
707.94	249.56
708.27	249.15
708.61	248.80
708.94	248.46
709.28	248.15
709.61	247.84
709.94	247.56
710.28	247.28
710.61	247.01
710.95	246.65
711.28	246.44
711.61	246.17
711.95	245.93
712.28	245.66
712.61	245.38
712.95	245.17
713.28	244.97
713.61	244.70
713.95	244.43
714.28	244.21
714.61	243.96
714.95	243.73
715.28	243.49
715.61	243.26
715.95	243.04
716.28	242.82
716.61	242.63
716.95	242.39
717.28	242.18
717.61	241.96
717.94	241.75
718.28	241.47
718.61	241.26
718.94	241.04
719.27	240.84
719.61	240.66
719.94	240.44
720.27	240.19
720.60	240.00
720.94	239.81
721.27	239.63
721.60	239.48
721.93	239.30
722.27	239.16
722.60	239.00
722.93	238.81
723.26	238.64
723.59	238.45
723.93	238.30
724.26	238.15
724.59	237.99
724.92	237.84
725.25	237.72
725.59	237.57
725.92	237.43
726.25	237.29
726.58	237.14
726.91	236.99
727.24	236.86
727.57	236.72
727.91	236.56
728.24	236.43
728.57	236.28
728.90	236.15
729.23	235.99
729.56	235.90
729.89	235.77
730.22	235.63
730.55	235.50
730.89	235.37
731.22	235.23
731.55	235.10
731.88	234.98
732.21	234.84
732.54	234.72
732.87	234.61
733.20	234.49
733.53	234.38
733.86	234.28
734.19	234.15
734.52	234.06
734.85	234.03
735.18	233.90
735.51	233.83
735.84	233.72
736.17	233.64
736.50	233.49
736.83	233.51
737.16	233.42
737.49	233.33
737.82	233.23
738.15	233.16
738.48	233.07
738.81	232.97
739.14	232.86
739.47	232.76
739.80	232.66
740.13	232.58
740.46	232.47
740.79	232.37
741.12	232.28
741.45	232.17
741.78	232.03
742.11	231.98
742.44	231.87
742.77	231.79
743.10	231.69
743.43	231.61
743.75	231.42
744.08	231.49
744.41	231.40
744.74	231.32
745.07	231.22
745.40	231.16
745.73	231.12
746.06	231.06
746.39	231.00
746.71	230.92
747.04	230.83
747.37	230.76
747.70	230.71
748.03	230.64
748.36	230.59
748.68	230.52
749.01	230.42
749.34	230.35
749.67	230.29
750.00	230.24
750.33	230.25
750.65	230.20
750.98	229.99
751.31	229.93
751.64	229.87
751.97	229.86
752.29	229.78
752.62	229.67
752.95	229.60
753.28	229.53
753.60	229.46
753.93	229.42
754.26	229.37
754.59	229.28
754.91	229.21
755.24	229.13
755.57	229.12
755.90	229.06
756.22	228.99
756.55	228.91
756.88	228.83
757.20	228.71
757.53	228.62
757.86	228.56
758.19	228.51
758.51	228.46
758.84	228.36
759.17	228.30
759.49	228.25
759.82	228.25
760.15	228.22
760.47	228.17
760.80	228.09
761.13	228.06
761.45	228.02
761.78	227.98
762.11	227.94
762.43	227.84
762.76	227.80
763.08	227.77
763.41	227.73
763.74	227.70
764.06	227.66
764.39	227.62
764.71	227.57
765.04	227.52
765.37	227.47
765.69	227.43
766.02	227.39
766.34	227.35
766.67	227.27
767.00	227.25
767.32	227.27
767.65	227.29
767.97	227.24
768.30	227.21
768.62	227.17
768.95	227.12
769.27	227.08
769.60	227.06
769.92	227.01
770.25	226.96
770.57	226.91
770.90	226.87
771.22	226.84
771.55	226.81
771.87	226.79
772.20	226.76
772.52	226.81
772.85	226.91
773.17	226.88
773.50	226.84
773.82	226.79
774.15	226.71
774.47	226.62
774.80	226.58
775.12	226.55
775.45	226.52
775.77	226.51
776.09	226.49
776.42	226.46
776.74	226.47
777.07	226.44
777.39	226.42
777.72	226.38
778.04	226.37
778.36	226.34
778.69	226.32
779.01	226.30
779.33	226.19
779.66	226.05
779.98	226.02
780.31	226.00
780.63	226.02
780.95	226.02
781.28	226.00
781.60	225.97
781.92	225.95
782.25	225.93
782.57	225.91
782.89	225.88
783.22	225.86
783.54	225.82
783.86	225.80
784.19	225.78
784.51	225.79
784.83	225.76
785.16	225.74
785.48	225.73
785.80	225.71
786.12	225.70
786.45	225.68
786.77	225.67
787.09	225.65
787.42	225.60
787.74	225.59
788.06	225.58
788.38	225.56
788.71	225.54
789.03	225.53
789.35	225.53
789.67	225.50
789.99	225.49
790.32	225.47
790.64	225.47
790.96	225.55
791.28	225.50
791.61	225.49
791.93	225.48
792.25	225.46
792.57	225.52
792.89	225.49
793.21	225.49
793.54	225.46
793.86	225.43
794.18	225.42
794.50	225.38
794.82	225.37
795.14	225.37
795.47	225.37
795.79	225.36
796.11	225.32
796.43	225.31
796.75	225.29
797.07	225.29
797.39	225.27
797.71	225.17
798.04	225.16
798.36	225.16
798.68	225.14
799.00	225.14
799.32	225.08
799.64	225.09
799.96	225.07
800.28	225.07
800.60	225.06
800.92	225.06
801.24	225.05
801.56	225.05
801.89	225.03
802.21	225.03
802.53	225.00
802.85	225.01
803.17	225.05
803.49	225.02
803.81	225.00
804.13	224.99
804.45	224.96
804.77	224.96
805.09	224.95
805.41	224.93
805.73	224.91
806.05	224.86
806.37	224.84
806.69	224.83
807.01	224.81
807.33	224.81
807.65	224.77
807.97	224.80
808.28	224.78
808.60	224.77
808.92	224.74
809.24	224.80
809.56	224.77
809.88	224.73
810.20	224.73
810.52	224.75
810.84	224.73
811.16	224.71
811.48	224.70
811.80	224.72
812.12	224.71
812.43	224.73
812.75	224.73
813.07	224.72
813.39	224.71
813.71	224.69
814.03	224.68
814.35	224.68
814.67	224.63
814.98	224.62
815.30	224.61
815.62	224.59
815.94	224.52
816.26	224.52
816.58	224.50
816.89	224.50
817.21	224.46
817.53	224.47
817.85	224.47
818.17	224.46
818.48	224.42
818.80	224.43
819.12	224.41
819.44	224.39
819.76	224.37
820.07	224.37
820.39	224.36
820.71	224.37
821.03	224.36
821.34	224.34
821.66	224.36
821.98	224.37
822.30	224.36
822.61	224.42
822.93	224.40
823.25	224.39
823.57	224.38
823.88	224.39
824.20	224.38
824.52	224.40
824.83	224.39
825.15	224.38
825.47	224.36
825.79	224.37
826.10	224.37
826.42	224.36
826.74	224.36
827.05	224.36
827.37	224.36
827.69	224.35
828.00	224.35
828.32	224.35
828.64	224.33
828.95	224.38
829.27	224.35
829.58	224.35
829.90	224.36
830.22	224.37
830.53	224.34
830.85	224.33
831.17	224.30
831.48	224.30
831.80	224.30
832.11	224.29
832.43	224.27
832.75	224.27
833.06	224.33
833.38	224.30
833.69	224.30
834.01	224.30
834.32	224.29
834.64	224.28
834.96	224.27
835.27	224.27
835.59	224.23
835.90	224.22
836.22	224.21
836.53	224.19
836.85	224.17
837.16	224.27
837.48	224.27
837.79	224.31
838.11	224.30
838.42	224.30
838.74	224.31
839.05	224.30
839.37	224.29
839.68	224.23
840.00	224.22
840.31	224.24
840.63	224.22
840.94	224.21
841.26	224.21
841.57	224.20
841.88	224.21
842.20	224.19
842.51	224.17
842.83	224.17
843.14	224.26
843.46	224.26
843.77	224.20
844.08	224.19
844.40	224.16
844.71	224.15
845.03	224.14
845.34	224.13
845.65	224.12
845.97	224.12
846.28	224.13
846.60	224.13
846.91	224.11
847.22	224.11
847.54	224.13
847.85	224.13
848.16	224.12
848.48	224.10
848.79	224.14
849.10	224.15
849.42	224.15
849.73	224.06
850.04	224.06
850.36	224.02
850.67	224.03
850.98	224.03
851.30	224.04
851.61	224.03
851.92	224.03
852.23	224.07
852.55	224.07
852.86	224.07
853.17	224.08
853.49	224.10
853.80	224.11
854.11	224.11
854.42	224.13
854.74	224.12
855.05	224.12
855.36	224.07
855.67	224.07
855.99	224.07
856.30	224.19
856.61	224.18
856.92	224.18
857.23	224.18
857.55	224.17
857.86	224.17
858.17	224.18
858.48	224.16
858.79	224.13
859.11	224.14
859.42	224.13
859.73	224.11
860.04	224.11
860.35	224.08
860.66	224.05
860.98	224.04
861.29	224.05
861.60	224.05
861.91	224.07
862.22	224.05
862.53	224.04
862.84	223.92
863.16	223.94
863.47	223.92
863.78	223.91
864.09	223.92
864.40	223.92
864.71	223.93
865.02	223.94
865.33	223.93
865.64	223.91
865.95	223.91
866.27	223.97
866.58	223.96
866.89	223.97
867.20	223.97
867.51	223.95
867.82	223.95
868.13	223.98
868.44	223.96
868.75	223.98
869.06	223.98
869.37	223.99
869.68	223.97
869.99	223.99
870.30	223.99
870.61	224.00
870.92	223.98
871.23	223.97
871.54	223.98
871.85	224.00
872.16	224.02
872.47	224.01
872.78	223.95
873.09	223.96
873.40	223.95
873.71	223.96
874.02	223.96
874.33	223.95
874.64	223.93
874.95	223.95
875.26	223.93
875.56	223.92
875.87	223.91
876.18	223.91
876.49	224.00
876.80	223.99
877.11	223.97
877.42	223.98
877.73	223.98
878.04	223.96
878.35	223.96
878.66	223.96
878.96	223.96
879.27	223.96
879.58	223.95
879.89	223.94
880.20	223.97
880.51	223.96
880.82	223.97
881.12	223.97
881.43	223.95
881.74	223.94
882.05	223.93
882.36	223.94
882.67	223.95
882.97	223.84
883.28	223.83
883.59	223.83
883.90	223.84
884.21	223.85
884.51	223.85
884.82	223.83
885.13	223.83
885.44	223.83
885.74	223.83
886.05	223.82
886.36	223.82
886.67	223.79
886.98	223.84
887.28	223.84
887.59	223.84
887.90	223.84
888.20	223.84
888.51	223.86
888.82	223.84
889.13	223.85
889.43	223.94
889.74	223.94
890.05	223.93
890.35	223.92
890.66	223.90
890.97	223.89
891.28	223.88
891.58	223.88
891.89	223.88
892.20	223.87
892.50	223.86
892.81	223.86
893.12	223.86
893.42	223.81
893.73	223.81
894.04	223.81
894.34	223.81
894.65	223.81
894.95	223.80
895.26	223.80
895.57	223.84
895.87	223.73
896.18	223.76
896.48	223.76
896.79	223.76
897.10	223.78
897.40	223.79
897.71	223.80
898.01	223.79
898.32	223.80
898.63	223.80
898.93	223.81
899.24	223.81
899.54	223.80
899.85	223.80
900.15	223.79
900.46	223.79
900.76	223.79
901.07	223.79
901.38	223.79
901.68	223.81
901.99	223.75
902.29	223.76
902.60	223.75
902.90	223.74
903.21	223.73
903.51	223.73
903.82	223.75
904.12	223.75
904.43	223.75
904.73	223.75
905.03	223.75
905.34	223.85
905.64	223.84
905.95	223.84
906.25	223.85
906.56	223.84
906.86	223.84
907.17	223.83
907.47	223.83
907.77	223.83
908.08	223.80
908.38	223.81
908.69	223.81
908.99	223.83
909.30	223.84
909.60	223.84
909.90	223.84
910.21	223.81
910.51	223.79
910.81	223.79
911.12	223.80
911.42	223.80
911.73	223.69
912.03	223.70
912.33	223.72
912.64	223.71
912.94	223.70
913.24	223.69
913.55	223.68
913.85	223.67
914.15	223.69
914.46	223.71
914.76	223.70
915.06	223.69
915.37	223.67
915.67	223.66
915.97	223.66
916.27	223.64
916.58	223.64
916.88	223.64
917.18	223.63
917.49	223.70
917.79	223.69
918.09	223.71
918.39	223.73
918.70	223.73
919.00	223.74
919.30	223.78
919.60	223.78
919.91	223.77
920.21	223.78
920.51	223.76
920.81	223.75
921.12	223.77
921.42	223.77
921.72	223.78
922.02	223.78
922.32	223.79
922.63	223.80
922.93	223.85
923.23	223.86
923.53	223.85
923.83	223.78
924.13	223.79
924.44	223.79
924.74	223.80
925.04	223.82
925.34	223.81
925.64	223.77
925.94	223.77
926.24	223.83
926.55	223.82
926.85	223.83
927.15	223.83
927.45	223.82
927.75	223.82
928.05	223.82
928.35	223.81
928.65	223.83
928.95	223.83
929.26	223.79
929.56	223.81
929.86	223.82
930.16	223.81
930.46	223.80
930.76	223.80
931.06	223.75
931.36	223.72
931.66	223.74
931.96	223.75
932.26	223.75
932.56	223.71
932.86	223.71
933.16	223.71
933.46	223.70
933.76	223.68
934.06	223.70
934.36	223.73
934.66	223.73
934.96	223.71
935.26	223.72
935.56	223.73
935.86	223.70
936.16	223.69
936.46	223.68
936.76	223.68
937.06	223.66
937.36	223.67
937.66	223.67
937.96	223.66
938.26	223.64
938.56	223.63
938.86	223.64
939.16	223.66
939.46	223.67
939.76	223.68
940.06	223.68
940.35	223.66
940.65	223.61
940.95	223.62
941.25	223.59
941.55	223.58
941.85	223.57
942.15	223.59
942.45	223.62
942.75	223.61
943.04	223.62
943.34	223.64
943.64	223.63
943.94	223.61
944.24	223.61
944.54	223.62
944.84	223.62
945.13	223.60
945.43	223.58
945.73	223.57
946.03	223.56
946.33	223.55
946.62	223.54
946.92	223.54
947.22	223.54
947.52	223.55
947.82	223.56
948.11	223.54
948.41	223.52
948.71	223.49
949.01	223.50
949.31	223.49
949.60	223.48
949.90	223.50
950.20	223.50
950.50	223.49
950.79	223.49
951.09	223.50
951.39	223.50
951.69	223.49
951.98	223.51
952.28	223.51
952.58	223.51
952.87	223.52
953.17	223.53
953.47	223.52
953.76	223.52
954.06	223.50
954.36	223.50
954.66	223.49
954.95	223.52
955.25	223.53
955.55	223.53
955.84	223.52
956.14	223.52
956.44	223.53
956.73	223.52
957.03	223.53
957.32	223.53
957.62	223.52
957.92	223.55
958.21	223.53
958.51	223.65
958.81	223.66
959.10	223.67
959.40	223.69
959.69	223.70
959.99	223.72
960.29	223.72
960.58	223.71
960.88	223.75
961.17	223.74
961.47	223.75
961.76	223.74
962.06	223.75
962.36	223.74
962.65	223.75
962.95	223.75
963.24	223.74
963.54	223.74
963.83	223.75
964.13	223.75
964.42	223.74
964.72	223.65
965.01	223.65
965.31	223.64
965.60	223.61
965.90	223.67
966.19	223.65
966.49	223.66
966.78	223.66
967.08	223.64
967.37	223.65
967.67	223.63
967.96	223.65
968.26	223.64
968.55	223.66
968.85	223.65
969.14	223.65
969.43	223.65
969.73	223.63
970.02	223.62
970.32	223.62
970.61	223.60
970.91	223.57
971.20	223.56
971.49	223.55
971.79	223.57
972.08	223.49
972.38	223.50
972.67	223.49
972.96	223.51
973.26	223.49
973.55	223.51
973.85	223.51
974.14	223.50
974.43	223.50
974.73	223.48
975.02	223.47
975.31	223.47
975.61	223.47
975.90	223.46
976.19	223.45
976.49	223.46
976.78	223.47
977.07	223.46
977.37	223.47
977.66	223.47
977.95	223.46
978.24	223.47
978.54	223.49
978.83	223.48
979.12	223.47
979.42	223.47
979.71	223.45
980.00	223.45
980.29	223.45
980.59	223.43
980.88	223.46
981.17	223.46
981.46	223.46
981.76	223.46
982.05	223.49
982.34	223.50
982.63	223.50
982.93	223.50
983.22	223.52
983.51	223.53
983.80	223.54
984.09	223.56
984.39	223.54
984.68	223.53
984.97	223.53
985.26	223.53
985.55	223.53
985.85	223.51
986.14	223.53
986.43	223.54
986.72	223.54
987.01	223.50
987.30	223.50
987.59	223.50
987.89	223.51
988.18	223.47
988.47	223.47
988.76	223.46
989.05	223.45
989.34	223.43
989.63	223.46
989.92	223.44
990.22	223.43
990.51	223.43
990.80	223.42
991.09	223.43
991.38	223.45
991.67	223.44
991.96	223.43
992.25	223.43
992.54	223.41
992.83	223.42
993.12	223.41
993.41	223.43
993.70	223.47
993.99	223.48
994.28	223.50
994.58	223.51
994.87	223.50
995.16	223.50
995.45	223.50
995.74	223.46
996.03	223.48
996.32	223.49
996.61	223.51
996.90	223.51
997.19	223.51
997.48	223.50
997.77	223.50
998.06	223.50
998.34	223.49
998.63	223.49
998.92	223.50
999.21	223.51
999.50	223.51
999.79	223.47
1000.08	223.47
1000.37	223.47
1000.66	223.46
1000.95	223.48
1001.24	223.48
1001.53	223.50
1001.82	223.49
1002.11	223.47
1002.40	223.47
1002.68	223.50
1002.97	223.57
1003.26	223.55
1003.55	223.54
1003.84	223.55
1004.13	223.58
1004.42	223.59
1004.71	223.59
1004.99	223.59
1005.28	223.61
1005.57	223.60
1005.86	223.59
1006.15	223.58
1006.44	223.57
1006.72	223.58
1007.01	223.57
1007.30	223.57
1007.59	223.56
1007.88	223.56
1008.17	223.57
1008.45	223.55
1008.74	223.50
1009.03	223.46
1009.32	223.46
1009.60	223.46
1009.89	223.45
1010.18	223.41
1010.47	223.41
1010.76	223.41
1011.04	223.40
1011.33	223.40
1011.62	223.41
1011.91	223.42
1012.19	223.42
1012.48	223.43
1012.77	223.42
1013.05	223.46
1013.34	223.46
1013.63	223.45
1013.92	223.46
1014.20	223.45
1014.49	223.45
1014.78	223.46
1015.06	223.43
1015.35	223.43
1015.64	223.44
1015.92	223.46
1016.21	223.47
1016.50	223.47
1016.78	223.48
1017.07	223.49
1017.36	223.47
1017.64	223.46
1017.93	223.47
1018.22	223.46
1018.50	223.46
1018.79	223.45
1019.08	223.41
1019.36	223.42
1019.65	223.41
1019.93	223.44
1020.22	223.46
1020.51	223.51
1020.79	223.50
1021.08	223.38
1021.36	223.28
1021.65	223.41
1021.94	223.38
1022.22	223.49
1022.51	223.21
1022.79	224.05
1023.08	223.58
1023.36	224.62
1023.65	223.21
>>>>>End Processed Spectral Data<<<<<
