SpectraSuite Data File
++++++++++++++++++++++++++++++++++++
Date: Wed Sep 30 14:34:11 EDT 2015
User: lab3
Dark Spectrum Present: No
Reference Spectrum Present: No
Number of Sampled Component Spectra: 1
Spectrometers: USB2E7196
Integration Time (usec): 36000 (USB2E7196)
Spectra Averaged: 1500 (USB2E7196)
Boxcar Smoothing: 10 (USB2E7196)
Correct for Electrical Dark: No (USB2E7196)
Strobe/Lamp Enabled: No (USB2E7196)
Correct for Detector Non-linearity: No (USB2E7196)
Correct for Stray Light: No (USB2E7196)
Number of Pixels in Processed Spectrum: 2048
>>>>>Begin Processed Spectral Data<<<<<
339.09	0.00
339.48	211.48
339.86	212.93
340.24	214.34
340.63	215.76
341.01	218.74
341.39	218.45
341.78	219.85
342.16	221.04
342.54	221.41
342.93	209.97
343.31	220.58
343.69	221.12
344.07	221.57
344.46	221.99
344.84	222.37
345.22	222.60
345.60	222.85
345.99	223.04
346.37	223.17
346.75	223.27
347.13	223.34
347.52	223.42
347.90	223.49
348.28	223.52
348.66	223.57
349.05	223.56
349.43	223.61
349.81	223.66
350.19	223.71
350.57	223.78
350.96	223.86
351.34	223.94
351.72	224.04
352.10	224.15
352.48	224.24
352.87	224.29
353.25	224.36
353.63	224.42
354.01	224.49
354.39	224.57
354.77	224.65
355.15	224.76
355.54	224.81
355.92	224.86
356.30	224.94
356.68	225.08
357.06	225.17
357.44	225.22
357.82	225.29
358.20	225.40
358.58	225.46
358.97	225.53
359.35	225.62
359.73	225.70
360.11	225.76
360.49	225.82
360.87	225.88
361.25	225.95
361.63	226.02
362.01	226.08
362.39	226.12
362.77	226.16
363.15	226.18
363.53	226.23
363.91	226.26
364.29	226.29
364.67	226.21
365.05	226.24
365.43	226.27
365.81	226.31
366.19	226.32
366.57	226.38
366.95	226.39
367.33	226.36
367.71	226.35
368.09	226.37
368.47	226.36
368.85	226.34
369.23	226.34
369.61	226.30
369.99	226.32
370.37	226.31
370.75	226.36
371.13	226.33
371.51	226.29
371.89	226.27
372.27	226.24
372.65	226.21
373.03	226.17
373.41	226.13
373.78	226.08
374.16	225.98
374.54	225.90
374.92	225.85
375.30	225.80
375.68	225.74
376.06	225.69
376.44	225.63
376.82	225.59
377.19	225.54
377.57	225.48
377.95	225.38
378.33	225.32
378.71	225.17
379.09	225.13
379.47	225.09
379.84	225.03
380.22	224.97
380.60	224.90
380.98	224.85
381.36	224.79
381.73	224.73
382.11	224.70
382.49	224.66
382.87	224.59
383.25	224.55
383.62	224.62
384.00	224.56
384.38	224.51
384.76	224.49
385.13	224.48
385.51	224.44
385.89	224.39
386.27	224.36
386.64	224.33
387.02	224.29
387.40	224.23
387.78	224.21
388.15	224.18
388.53	224.15
388.91	224.11
389.29	224.08
389.66	224.06
390.04	224.02
390.42	224.02
390.79	224.01
391.17	223.99
391.55	223.85
391.92	223.83
392.30	223.84
392.68	223.80
393.05	223.78
393.43	223.77
393.81	223.77
394.18	223.75
394.56	223.76
394.94	223.78
395.31	223.79
395.69	223.82
396.06	223.84
396.44	223.86
396.82	223.87
397.19	223.94
397.57	223.95
397.95	223.99
398.32	223.98
398.70	224.02
399.07	224.08
399.45	224.11
399.82	224.16
400.20	224.19
400.58	224.25
400.95	224.28
401.33	224.36
401.70	224.49
402.08	224.57
402.45	224.65
402.83	224.75
403.20	224.85
403.58	224.93
403.95	225.06
404.33	225.19
404.71	225.32
405.08	225.50
405.46	225.64
405.83	225.80
406.21	225.98
406.58	226.17
406.96	226.34
407.33	226.56
407.70	226.80
408.08	227.12
408.45	227.40
408.83	227.70
409.20	227.99
409.58	228.23
409.95	228.59
410.33	228.96
410.70	229.32
411.08	229.73
411.45	230.16
411.82	230.61
412.20	231.11
412.57	231.73
412.95	232.21
413.32	232.83
413.69	233.46
414.07	234.13
414.44	234.87
414.82	235.63
415.19	236.51
415.56	237.40
415.94	238.33
416.31	239.37
416.68	240.42
417.06	241.62
417.43	242.76
417.81	244.07
418.18	245.39
418.55	246.85
418.93	248.36
419.30	249.94
419.67	251.62
420.04	253.35
420.42	255.15
420.79	257.24
421.16	259.35
421.54	261.49
421.91	263.74
422.28	266.07
422.66	268.57
423.03	270.96
423.40	273.47
423.77	276.18
424.15	278.95
424.52	281.83
424.89	284.94
425.26	288.03
425.64	290.91
426.01	294.16
426.38	297.48
426.75	300.90
427.13	304.42
427.50	308.11
427.87	311.93
428.24	315.80
428.61	319.50
428.99	323.49
429.36	327.86
429.73	332.03
430.10	336.19
430.47	340.46
430.85	344.87
431.22	349.55
431.59	354.33
431.96	359.03
432.33	364.24
432.70	369.18
433.08	375.02
433.45	380.52
433.82	385.93
434.19	391.98
434.56	397.92
434.93	403.64
435.30	409.30
435.68	415.68
436.05	421.90
436.42	428.13
436.79	433.82
437.16	439.98
437.53	446.56
437.90	453.12
438.27	459.53
438.64	466.43
439.01	472.70
439.38	478.44
439.75	483.94
440.13	490.17
440.50	496.09
440.87	500.78
441.24	505.92
441.61	511.56
441.98	515.68
442.35	520.62
442.72	525.67
443.09	530.45
443.46	533.49
443.83	535.75
444.20	537.61
444.57	540.33
444.94	541.91
445.31	543.56
445.68	544.99
446.05	546.01
446.42	545.81
446.79	545.48
447.16	545.17
447.53	544.93
447.90	543.03
448.27	541.24
448.64	538.46
449.01	536.61
449.37	532.67
449.74	529.07
450.11	524.45
450.48	519.36
450.85	514.28
451.22	509.94
451.59	505.65
451.96	501.78
452.33	496.18
452.70	491.16
453.07	485.03
453.43	478.92
453.80	473.00
454.17	467.27
454.54	461.95
454.91	455.99
455.28	450.37
455.65	445.06
456.02	439.42
456.38	434.89
456.75	429.03
457.12	424.34
457.49	419.60
457.86	415.07
458.23	411.09
458.59	406.70
458.96	402.23
459.33	398.31
459.70	394.30
460.07	391.28
460.43	387.70
460.80	384.34
461.17	381.39
461.54	378.22
461.91	375.24
462.27	372.20
462.64	369.74
463.01	366.90
463.38	364.05
463.74	361.48
464.11	359.17
464.48	357.09
464.85	354.83
465.21	353.09
465.58	351.18
465.95	348.99
466.32	347.23
466.68	345.51
467.05	343.76
467.42	342.07
467.78	340.24
468.15	338.56
468.52	337.32
468.88	335.70
469.25	334.21
469.62	333.03
469.98	331.76
470.35	330.62
470.72	329.60
471.08	328.55
471.45	327.70
471.82	326.74
472.18	325.72
472.55	325.08
472.92	324.30
473.28	323.68
473.65	323.03
474.02	322.42
474.38	321.91
474.75	321.64
475.11	321.23
475.48	321.10
475.85	320.93
476.21	320.88
476.58	320.89
476.94	321.10
477.31	321.22
477.67	321.37
478.04	321.63
478.41	321.94
478.77	322.39
479.14	322.70
479.50	323.25
479.87	323.94
480.23	324.64
480.60	325.31
480.96	326.02
481.33	327.00
481.69	327.97
482.06	328.93
482.42	329.86
482.79	330.99
483.15	332.28
483.52	333.71
483.88	335.11
484.25	336.57
484.61	338.09
484.98	339.74
485.34	341.58
485.71	343.49
486.07	345.55
486.44	347.60
486.80	349.86
487.17	352.18
487.53	354.71
487.90	357.32
488.26	360.14
488.62	363.11
488.99	366.13
489.35	369.30
489.72	372.70
490.08	376.26
490.44	379.91
490.81	383.72
491.17	387.64
491.54	391.80
491.90	396.05
492.26	400.62
492.63	405.41
492.99	410.42
493.36	415.60
493.72	421.07
494.08	426.68
494.45	432.58
494.81	438.72
495.17	444.93
495.54	451.55
495.90	458.52
496.26	465.62
496.63	472.89
496.99	480.46
497.35	488.34
497.72	496.52
498.08	504.91
498.44	513.51
498.80	522.65
499.17	532.09
499.53	541.85
499.89	551.87
500.26	562.04
500.62	572.47
500.98	583.49
501.34	594.67
501.71	606.34
502.07	618.24
502.43	630.56
502.79	643.34
503.16	656.46
503.52	669.67
503.88	683.34
504.24	697.44
504.60	711.69
504.97	726.41
505.33	741.48
505.69	757.25
506.05	773.34
506.41	789.58
506.78	806.08
507.14	823.13
507.50	840.52
507.86	858.30
508.22	876.31
508.59	894.43
508.95	913.14
509.31	932.33
509.67	952.30
510.03	972.40
510.39	992.58
510.75	1012.90
511.12	1033.61
511.48	1054.53
511.84	1075.73
512.20	1097.21
512.56	1119.48
512.92	1141.90
513.28	1164.32
513.64	1186.97
514.00	1210.03
514.37	1233.62
514.73	1257.21
515.09	1280.56
515.45	1304.15
515.81	1328.02
516.17	1351.96
516.53	1375.79
516.89	1399.41
517.25	1422.97
517.61	1446.78
517.97	1470.85
518.33	1495.00
518.69	1519.26
519.05	1543.84
519.41	1568.34
519.77	1593.27
520.13	1617.43
520.49	1641.65
520.85	1665.76
521.21	1689.90
521.57	1714.61
521.93	1738.47
522.29	1762.73
522.65	1786.89
523.01	1811.09
523.37	1834.69
523.73	1858.90
524.09	1882.87
524.45	1906.96
524.81	1930.88
525.17	1954.27
525.53	1977.45
525.89	2000.52
526.25	2023.57
526.61	2045.19
526.97	2067.18
527.33	2088.92
527.68	2110.68
528.04	2132.05
528.40	2153.31
528.76	2174.27
529.12	2194.52
529.48	2215.46
529.84	2234.29
530.20	2253.64
530.56	2272.37
530.91	2291.77
531.27	2310.61
531.63	2328.72
531.99	2346.34
532.35	2363.49
532.71	2381.51
533.07	2399.80
533.42	2416.26
533.78	2433.31
534.14	2450.84
534.50	2467.54
534.86	2484.66
535.21	2499.77
535.57	2514.76
535.93	2529.34
536.29	2543.26
536.65	2556.72
537.00	2568.85
537.36	2582.05
537.72	2594.04
538.08	2606.10
538.44	2616.83
538.79	2627.00
539.15	2636.21
539.51	2645.41
539.87	2653.51
540.22	2659.20
540.58	2664.95
540.94	2671.56
541.29	2676.93
541.65	2682.07
542.01	2686.93
542.37	2689.68
542.72	2693.93
543.08	2697.28
543.44	2700.26
543.79	2702.69
544.15	2704.61
544.51	2706.13
544.87	2707.61
545.22	2708.53
545.58	2708.27
545.94	2708.03
546.29	2706.65
546.65	2705.57
547.01	2704.29
547.36	2703.52
547.72	2703.12
548.07	2701.46
548.43	2698.21
548.79	2694.76
549.14	2691.29
549.50	2687.97
549.86	2684.61
550.21	2680.03
550.57	2675.79
550.92	2670.33
551.28	2664.78
551.64	2659.15
551.99	2653.73
552.35	2647.12
552.70	2640.69
553.06	2635.14
553.41	2629.18
553.77	2623.09
554.13	2616.93
554.48	2609.47
554.84	2601.09
555.19	2592.55
555.55	2583.44
555.90	2575.53
556.26	2567.75
556.61	2559.06
556.97	2549.01
557.32	2539.10
557.68	2529.31
558.03	2519.12
558.39	2509.97
558.74	2501.50
559.10	2491.66
559.45	2481.61
559.81	2472.05
560.16	2462.02
560.52	2451.54
560.87	2441.33
561.23	2430.54
561.58	2420.19
561.94	2409.81
562.29	2399.02
562.64	2388.79
563.00	2378.72
563.35	2368.50
563.71	2357.48
564.06	2346.79
564.42	2336.33
564.77	2325.76
565.12	2315.06
565.48	2304.10
565.83	2292.64
566.19	2280.82
566.54	2269.66
566.89	2257.77
567.25	2245.80
567.60	2234.81
567.96	2223.29
568.31	2210.72
568.66	2198.63
569.02	2186.75
569.37	2175.32
569.72	2164.70
570.08	2152.95
570.43	2140.87
570.78	2128.61
571.14	2116.37
571.49	2103.74
571.84	2091.41
572.20	2078.23
572.55	2065.10
572.90	2052.45
573.26	2040.20
573.61	2027.09
573.96	2014.32
574.31	2001.94
574.67	1989.55
575.02	1976.15
575.37	1962.75
575.72	1949.84
576.08	1936.94
576.43	1923.53
576.78	1910.07
577.13	1896.31
577.49	1882.95
577.84	1869.76
578.19	1856.64
578.54	1843.17
578.90	1829.47
579.25	1815.55
579.60	1802.85
579.95	1790.30
580.30	1777.51
580.66	1764.16
581.01	1750.90
581.36	1737.26
581.71	1724.11
582.06	1711.15
582.42	1698.49
582.77	1685.84
583.12	1673.47
583.47	1661.39
583.82	1648.89
584.17	1635.68
584.53	1622.76
584.88	1610.07
585.23	1597.25
585.58	1584.42
585.93	1572.06
586.28	1560.29
586.63	1548.47
586.98	1536.09
587.34	1523.84
587.69	1511.05
588.04	1498.73
588.39	1486.86
588.74	1474.75
589.09	1463.02
589.44	1450.56
589.79	1438.25
590.14	1426.12
590.49	1413.94
590.84	1401.86
591.19	1390.47
591.54	1379.02
591.89	1367.35
592.25	1356.16
592.60	1344.67
592.95	1333.56
593.30	1322.31
593.65	1311.23
594.00	1300.21
594.35	1289.73
594.70	1278.46
595.05	1268.08
595.40	1257.37
595.75	1246.53
596.10	1236.35
596.45	1225.76
596.80	1215.88
597.15	1206.12
597.50	1196.32
597.85	1186.91
598.19	1177.45
598.54	1167.64
598.89	1158.52
599.24	1149.66
599.59	1140.73
599.94	1132.38
600.29	1123.66
600.64	1115.03
600.99	1105.74
601.34	1097.05
601.69	1088.10
602.04	1080.09
602.39	1071.64
602.74	1063.71
603.08	1056.00
603.43	1048.05
603.78	1040.07
604.13	1032.11
604.48	1023.99
604.83	1016.15
605.18	1008.12
605.53	1000.00
605.87	991.94
606.22	984.11
606.57	976.10
606.92	967.93
607.27	959.97
607.62	952.29
607.96	944.67
608.31	938.05
608.66	931.14
609.01	924.26
609.36	917.30
609.70	910.42
610.05	903.37
610.40	896.44
610.75	889.35
611.10	882.70
611.44	875.84
611.79	869.29
612.14	862.61
612.49	855.77
612.83	849.42
613.18	843.20
613.53	837.07
613.88	831.04
614.22	825.24
614.57	819.22
614.92	813.33
615.27	807.50
615.61	801.22
615.96	795.05
616.31	789.09
616.65	782.95
617.00	776.90
617.35	770.89
617.70	764.98
618.04	759.27
618.39	753.40
618.74	747.85
619.08	742.14
619.43	736.56
619.78	731.13
620.12	725.53
620.47	720.10
620.82	714.65
621.16	709.35
621.51	703.93
621.85	698.58
622.20	693.11
622.55	687.71
622.89	682.42
623.24	677.30
623.59	672.24
623.93	667.45
624.28	662.79
624.62	658.15
624.97	653.43
625.32	648.78
625.66	643.95
626.01	639.10
626.35	634.41
626.70	629.71
627.04	625.28
627.39	620.84
627.73	616.43
628.08	612.07
628.43	607.72
628.77	603.43
629.12	599.20
629.46	595.12
629.81	590.96
630.15	586.85
630.50	582.84
630.84	578.83
631.19	574.91
631.53	571.11
631.88	567.26
632.22	563.35
632.57	559.70
632.91	556.11
633.26	552.51
633.60	548.91
633.95	545.43
634.29	541.84
634.64	538.31
634.98	534.69
635.32	531.19
635.67	527.89
636.01	524.62
636.36	521.32
636.70	518.17
637.05	515.05
637.39	511.97
637.73	508.67
638.08	505.49
638.42	502.37
638.77	499.12
639.11	495.79
639.45	492.60
639.80	489.37
640.14	486.30
640.49	483.26
640.83	480.19
641.17	477.17
641.52	474.17
641.86	471.11
642.20	468.22
642.55	465.20
642.89	462.23
643.23	459.37
643.58	456.71
643.92	453.94
644.26	451.24
644.61	448.57
644.95	445.95
645.29	443.22
645.64	440.44
645.98	437.76
646.32	435.24
646.66	432.72
647.01	430.26
647.35	427.91
647.69	425.45
648.04	423.09
648.38	420.68
648.72	418.32
649.06	416.00
649.41	413.73
649.75	411.51
650.09	409.21
650.43	406.96
650.78	404.70
651.12	402.41
651.46	400.21
651.80	398.07
652.14	396.01
652.49	393.99
652.83	392.02
653.17	390.06
653.51	388.19
653.85	386.34
654.20	384.42
654.54	382.39
654.88	380.47
655.22	378.59
655.56	376.78
655.90	375.00
656.25	373.26
656.59	371.50
656.93	369.83
657.27	368.27
657.61	366.59
657.95	364.95
658.29	363.38
658.64	361.83
658.98	360.18
659.32	358.52
659.66	356.98
660.00	355.44
660.34	353.91
660.68	352.36
661.02	350.78
661.36	349.26
661.70	347.79
662.05	346.38
662.39	344.98
662.73	343.63
663.07	342.33
663.41	341.06
663.75	339.77
664.09	338.50
664.43	337.15
664.77	335.84
665.11	334.48
665.45	333.18
665.79	331.89
666.13	330.69
666.47	329.51
666.81	328.27
667.15	327.01
667.49	325.83
667.83	324.66
668.17	323.52
668.51	322.43
668.85	321.36
669.19	320.31
669.53	319.17
669.87	317.97
670.21	316.83
670.55	315.71
670.89	314.70
671.23	313.63
671.57	312.60
671.91	311.65
672.25	310.75
672.58	309.85
672.92	308.90
673.26	308.00
673.60	307.10
673.94	306.21
674.28	305.35
674.62	304.48
674.96	303.57
675.30	302.75
675.64	301.89
675.97	301.04
676.31	300.17
676.65	299.35
676.99	298.63
677.33	297.81
677.67	297.02
678.01	296.16
678.34	295.35
678.68	294.59
679.02	293.78
679.36	292.98
679.70	292.19
680.04	291.42
680.37	290.65
680.71	289.91
681.05	289.21
681.39	288.51
681.73	287.78
682.06	287.10
682.40	286.39
682.74	285.73
683.08	285.08
683.42	284.40
683.75	283.76
684.09	283.06
684.43	282.42
684.77	281.77
685.10	281.15
685.44	280.53
685.78	279.91
686.12	279.32
686.45	278.72
686.79	278.10
687.13	277.51
687.46	276.89
687.80	276.29
688.14	275.66
688.48	275.08
688.81	274.47
689.15	273.92
689.49	273.34
689.82	272.75
690.16	272.10
690.50	271.52
690.83	270.94
691.17	270.37
691.51	269.83
691.84	269.29
692.18	268.72
692.52	268.16
692.85	267.63
693.19	267.13
693.52	266.60
693.86	266.08
694.20	265.57
694.53	265.07
694.87	264.56
695.21	264.06
695.54	263.57
695.88	263.07
696.21	262.53
696.55	262.06
696.88	261.58
697.22	261.14
697.56	260.71
697.89	260.24
698.23	259.81
698.56	259.36
698.90	258.96
699.23	258.54
699.57	258.15
699.90	257.72
700.24	257.28
700.58	256.88
700.91	256.51
701.25	256.20
701.58	255.85
701.92	255.50
702.25	255.13
702.59	254.73
702.92	254.38
703.26	254.02
703.59	253.64
703.93	253.36
704.26	253.01
704.60	252.65
704.93	252.28
705.26	251.91
705.60	251.58
705.93	251.21
706.27	250.91
706.60	250.60
706.94	250.32
707.27	249.96
707.61	249.62
707.94	249.28
708.27	248.88
708.61	248.52
708.94	248.20
709.28	247.90
709.61	247.60
709.94	247.32
710.28	247.04
710.61	246.79
710.95	246.43
711.28	246.23
711.61	245.95
711.95	245.72
712.28	245.46
712.61	245.18
712.95	244.97
713.28	244.75
713.61	244.46
713.95	244.17
714.28	243.92
714.61	243.68
714.95	243.43
715.28	243.18
715.61	242.94
715.95	242.71
716.28	242.49
716.61	242.29
716.95	242.06
717.28	241.84
717.61	241.61
717.94	241.40
718.28	241.12
718.61	240.92
718.94	240.71
719.27	240.53
719.61	240.35
719.94	240.12
720.27	239.89
720.60	239.70
720.94	239.52
721.27	239.34
721.60	239.19
721.93	239.01
722.27	238.88
722.60	238.71
722.93	238.52
723.26	238.34
723.59	238.13
723.93	237.97
724.26	237.81
724.59	237.65
724.92	237.50
725.25	237.37
725.59	237.22
725.92	237.08
726.25	236.93
726.58	236.78
726.91	236.63
727.24	236.49
727.57	236.35
727.91	236.19
728.24	236.06
728.57	235.90
728.90	235.79
729.23	235.62
729.56	235.54
729.89	235.42
730.22	235.28
730.55	235.16
730.89	235.04
731.22	234.92
731.55	234.79
731.88	234.66
732.21	234.53
732.54	234.40
732.87	234.29
733.20	234.18
733.53	234.06
733.86	233.96
734.19	233.84
734.52	233.75
734.85	233.74
735.18	233.62
735.51	233.55
735.84	233.45
736.17	233.37
736.50	233.21
736.83	233.23
737.16	233.14
737.49	233.04
737.82	232.93
738.15	232.85
738.48	232.76
738.81	232.67
739.14	232.56
739.47	232.47
739.80	232.36
740.13	232.28
740.46	232.17
740.79	232.07
741.12	231.96
741.45	231.85
741.78	231.69
742.11	231.62
742.44	231.51
742.77	231.44
743.10	231.34
743.43	231.26
743.75	231.07
744.08	231.15
744.41	231.06
744.74	230.98
745.07	230.88
745.40	230.82
745.73	230.78
746.06	230.71
746.39	230.64
746.71	230.56
747.04	230.47
747.37	230.39
747.70	230.34
748.03	230.28
748.36	230.24
748.68	230.16
749.01	230.06
749.34	230.00
749.67	229.92
750.00	229.86
750.33	229.87
750.65	229.81
750.98	229.60
751.31	229.55
751.64	229.48
751.97	229.47
752.29	229.41
752.62	229.29
752.95	229.22
753.28	229.14
753.60	229.08
753.93	229.05
754.26	229.01
754.59	228.91
754.91	228.84
755.24	228.76
755.57	228.75
755.90	228.69
756.22	228.63
756.55	228.55
756.88	228.48
757.20	228.36
757.53	228.27
757.86	228.21
758.19	228.14
758.51	228.08
758.84	227.98
759.17	227.91
759.49	227.87
759.82	227.87
760.15	227.83
760.47	227.79
760.80	227.71
761.13	227.67
761.45	227.63
761.78	227.59
762.11	227.54
762.43	227.45
762.76	227.41
763.08	227.37
763.41	227.33
763.74	227.29
764.06	227.24
764.39	227.21
764.71	227.18
765.04	227.13
765.37	227.08
765.69	227.04
766.02	227.01
766.34	226.96
766.67	226.88
767.00	226.86
767.32	226.87
767.65	226.90
767.97	226.85
768.30	226.82
768.62	226.78
768.95	226.72
769.27	226.69
769.60	226.67
769.92	226.62
770.25	226.58
770.57	226.53
770.90	226.50
771.22	226.46
771.55	226.42
771.87	226.40
772.20	226.38
772.52	226.43
772.85	226.52
773.17	226.49
773.50	226.46
773.82	226.41
774.15	226.33
774.47	226.24
774.80	226.20
775.12	226.17
775.45	226.15
775.77	226.13
776.09	226.12
776.42	226.10
776.74	226.10
777.07	226.07
777.39	226.05
777.72	226.02
778.04	226.01
778.36	225.98
778.69	225.96
779.01	225.95
779.33	225.85
779.66	225.71
779.98	225.68
780.31	225.66
780.63	225.69
780.95	225.69
781.28	225.67
781.60	225.65
781.92	225.63
782.25	225.62
782.57	225.60
782.89	225.57
783.22	225.54
783.54	225.51
783.86	225.51
784.19	225.48
784.51	225.50
784.83	225.47
785.16	225.45
785.48	225.44
785.80	225.41
786.12	225.40
786.45	225.38
786.77	225.38
787.09	225.35
787.42	225.30
787.74	225.28
788.06	225.27
788.38	225.25
788.71	225.23
789.03	225.20
789.35	225.19
789.67	225.17
789.99	225.16
790.32	225.13
790.64	225.12
790.96	225.20
791.28	225.14
791.61	225.12
791.93	225.12
792.25	225.09
792.57	225.16
792.89	225.12
793.21	225.11
793.54	225.09
793.86	225.07
794.18	225.05
794.50	225.02
794.82	225.01
795.14	225.00
795.47	225.00
795.79	224.99
796.11	224.96
796.43	224.94
796.75	224.93
797.07	224.93
797.39	224.91
797.71	224.81
798.04	224.80
798.36	224.80
798.68	224.78
799.00	224.78
799.32	224.72
799.64	224.72
799.96	224.70
800.28	224.72
800.60	224.70
800.92	224.70
801.24	224.68
801.56	224.67
801.89	224.66
802.21	224.65
802.53	224.63
802.85	224.64
803.17	224.69
803.49	224.65
803.81	224.63
804.13	224.60
804.45	224.58
804.77	224.58
805.09	224.57
805.41	224.55
805.73	224.53
806.05	224.48
806.37	224.46
806.69	224.45
807.01	224.44
807.33	224.44
807.65	224.40
807.97	224.43
808.28	224.42
808.60	224.41
808.92	224.39
809.24	224.44
809.56	224.41
809.88	224.37
810.20	224.37
810.52	224.38
810.84	224.37
811.16	224.35
811.48	224.34
811.80	224.37
812.12	224.35
812.43	224.35
812.75	224.36
813.07	224.34
813.39	224.33
813.71	224.31
814.03	224.28
814.35	224.28
814.67	224.23
814.98	224.21
815.30	224.21
815.62	224.19
815.94	224.12
816.26	224.13
816.58	224.10
816.89	224.10
817.21	224.06
817.53	224.07
817.85	224.07
818.17	224.07
818.48	224.02
818.80	224.04
819.12	224.03
819.44	224.02
819.76	224.01
820.07	224.01
820.39	224.01
820.71	224.02
821.03	224.02
821.34	224.01
821.66	224.02
821.98	224.03
822.30	224.02
822.61	224.08
822.93	224.06
823.25	224.05
823.57	224.04
823.88	224.06
824.20	224.06
824.52	224.07
824.83	224.05
825.15	224.04
825.47	224.04
825.79	224.04
826.10	224.02
826.42	224.02
826.74	224.03
827.05	224.03
827.37	224.02
827.69	224.02
828.00	224.02
828.32	224.02
828.64	224.00
828.95	224.04
829.27	224.00
829.58	224.00
829.90	224.02
830.22	224.02
830.53	224.00
830.85	223.98
831.17	223.96
831.48	223.95
831.80	223.96
832.11	223.95
832.43	223.93
832.75	223.93
833.06	223.99
833.38	223.96
833.69	223.94
834.01	223.94
834.32	223.93
834.64	223.92
834.96	223.91
835.27	223.92
835.59	223.89
835.90	223.87
836.22	223.86
836.53	223.84
836.85	223.82
837.16	223.92
837.48	223.92
837.79	223.95
838.11	223.95
838.42	223.95
838.74	223.95
839.05	223.95
839.37	223.94
839.68	223.87
840.00	223.87
840.31	223.88
840.63	223.87
840.94	223.86
841.26	223.84
841.57	223.83
841.88	223.83
842.20	223.82
842.51	223.80
842.83	223.79
843.14	223.88
843.46	223.88
843.77	223.81
844.08	223.81
844.40	223.77
844.71	223.77
845.03	223.75
845.34	223.73
845.65	223.73
845.97	223.73
846.28	223.73
846.60	223.73
846.91	223.72
847.22	223.71
847.54	223.73
847.85	223.74
848.16	223.74
848.48	223.72
848.79	223.75
849.10	223.76
849.42	223.78
849.73	223.68
850.04	223.68
850.36	223.64
850.67	223.66
850.98	223.67
851.30	223.67
851.61	223.68
851.92	223.68
852.23	223.71
852.55	223.70
852.86	223.70
853.17	223.71
853.49	223.73
853.80	223.76
854.11	223.75
854.42	223.76
854.74	223.74
855.05	223.75
855.36	223.70
855.67	223.70
855.99	223.69
856.30	223.81
856.61	223.81
856.92	223.82
857.23	223.82
857.55	223.81
857.86	223.80
858.17	223.81
858.48	223.80
858.79	223.78
859.11	223.78
859.42	223.78
859.73	223.76
860.04	223.75
860.35	223.71
860.66	223.68
860.98	223.68
861.29	223.70
861.60	223.69
861.91	223.71
862.22	223.70
862.53	223.69
862.84	223.57
863.16	223.60
863.47	223.58
863.78	223.57
864.09	223.57
864.40	223.58
864.71	223.58
865.02	223.59
865.33	223.59
865.64	223.58
865.95	223.58
866.27	223.65
866.58	223.64
866.89	223.66
867.20	223.66
867.51	223.64
867.82	223.64
868.13	223.67
868.44	223.65
868.75	223.66
869.06	223.66
869.37	223.67
869.68	223.64
869.99	223.66
870.30	223.67
870.61	223.68
870.92	223.65
871.23	223.63
871.54	223.65
871.85	223.66
872.16	223.67
872.47	223.65
872.78	223.60
873.09	223.62
873.40	223.60
873.71	223.60
874.02	223.61
874.33	223.60
874.64	223.57
874.95	223.59
875.26	223.57
875.56	223.57
875.87	223.55
876.18	223.54
876.49	223.65
876.80	223.64
877.11	223.61
877.42	223.62
877.73	223.62
878.04	223.61
878.35	223.61
878.66	223.61
878.96	223.61
879.27	223.60
879.58	223.59
879.89	223.58
880.20	223.60
880.51	223.60
880.82	223.60
881.12	223.60
881.43	223.59
881.74	223.58
882.05	223.57
882.36	223.58
882.67	223.59
882.97	223.47
883.28	223.46
883.59	223.47
883.90	223.47
884.21	223.48
884.51	223.47
884.82	223.44
885.13	223.44
885.44	223.43
885.74	223.43
886.05	223.43
886.36	223.44
886.67	223.40
886.98	223.45
887.28	223.45
887.59	223.45
887.90	223.45
888.20	223.44
888.51	223.46
888.82	223.45
889.13	223.45
889.43	223.54
889.74	223.54
890.05	223.53
890.35	223.52
890.66	223.51
890.97	223.50
891.28	223.50
891.58	223.50
891.89	223.50
892.20	223.49
892.50	223.48
892.81	223.47
893.12	223.47
893.42	223.43
893.73	223.42
894.04	223.43
894.34	223.43
894.65	223.43
894.95	223.42
895.26	223.42
895.57	223.46
895.87	223.36
896.18	223.38
896.48	223.39
896.79	223.38
897.10	223.40
897.40	223.40
897.71	223.42
898.01	223.41
898.32	223.41
898.63	223.41
898.93	223.42
899.24	223.42
899.54	223.41
899.85	223.41
900.15	223.41
900.46	223.40
900.76	223.41
901.07	223.41
901.38	223.40
901.68	223.42
901.99	223.37
902.29	223.38
902.60	223.36
902.90	223.36
903.21	223.36
903.51	223.35
903.82	223.37
904.12	223.37
904.43	223.38
904.73	223.38
905.03	223.37
905.34	223.48
905.64	223.47
905.95	223.47
906.25	223.47
906.56	223.47
906.86	223.46
907.17	223.46
907.47	223.47
907.77	223.46
908.08	223.44
908.38	223.44
908.69	223.44
908.99	223.47
909.30	223.47
909.60	223.47
909.90	223.47
910.21	223.43
910.51	223.42
910.81	223.41
911.12	223.41
911.42	223.41
911.73	223.29
912.03	223.30
912.33	223.32
912.64	223.32
912.94	223.31
913.24	223.29
913.55	223.28
913.85	223.27
914.15	223.29
914.46	223.30
914.76	223.30
915.06	223.30
915.37	223.27
915.67	223.27
915.97	223.27
916.27	223.26
916.58	223.27
916.88	223.26
917.18	223.25
917.49	223.33
917.79	223.34
918.09	223.36
918.39	223.39
918.70	223.37
919.00	223.38
919.30	223.43
919.60	223.43
919.91	223.42
920.21	223.43
920.51	223.42
920.81	223.41
921.12	223.43
921.42	223.43
921.72	223.44
922.02	223.43
922.32	223.44
922.63	223.44
922.93	223.50
923.23	223.52
923.53	223.51
923.83	223.44
924.13	223.45
924.44	223.45
924.74	223.45
925.04	223.47
925.34	223.47
925.64	223.43
925.94	223.44
926.24	223.49
926.55	223.48
926.85	223.49
927.15	223.49
927.45	223.49
927.75	223.49
928.05	223.49
928.35	223.47
928.65	223.49
928.95	223.50
929.26	223.46
929.56	223.47
929.86	223.47
930.16	223.46
930.46	223.45
930.76	223.45
931.06	223.41
931.36	223.38
931.66	223.39
931.96	223.40
932.26	223.40
932.56	223.35
932.86	223.36
933.16	223.36
933.46	223.34
933.76	223.33
934.06	223.35
934.36	223.38
934.66	223.39
934.96	223.37
935.26	223.38
935.56	223.39
935.86	223.37
936.16	223.35
936.46	223.34
936.76	223.33
937.06	223.32
937.36	223.33
937.66	223.33
937.96	223.32
938.26	223.31
938.56	223.30
938.86	223.30
939.16	223.32
939.46	223.32
939.76	223.33
940.06	223.33
940.35	223.30
940.65	223.26
940.95	223.27
941.25	223.24
941.55	223.22
941.85	223.21
942.15	223.22
942.45	223.26
942.75	223.27
943.04	223.27
943.34	223.30
943.64	223.28
943.94	223.27
944.24	223.28
944.54	223.29
944.84	223.28
945.13	223.27
945.43	223.25
945.73	223.24
946.03	223.23
946.33	223.22
946.62	223.22
946.92	223.20
947.22	223.21
947.52	223.23
947.82	223.25
948.11	223.23
948.41	223.21
948.71	223.18
949.01	223.19
949.31	223.19
949.60	223.17
949.90	223.20
950.20	223.19
950.50	223.18
950.79	223.17
951.09	223.19
951.39	223.19
951.69	223.18
951.98	223.21
952.28	223.22
952.58	223.22
952.87	223.22
953.17	223.23
953.47	223.22
953.76	223.22
954.06	223.20
954.36	223.19
954.66	223.19
954.95	223.22
955.25	223.22
955.55	223.23
955.84	223.21
956.14	223.22
956.44	223.24
956.73	223.22
957.03	223.23
957.32	223.23
957.62	223.23
957.92	223.25
958.21	223.24
958.51	223.35
958.81	223.36
959.10	223.36
959.40	223.39
959.69	223.40
959.99	223.41
960.29	223.41
960.58	223.41
960.88	223.44
961.17	223.43
961.47	223.44
961.76	223.42
962.06	223.44
962.36	223.42
962.65	223.43
962.95	223.43
963.24	223.42
963.54	223.42
963.83	223.42
964.13	223.41
964.42	223.40
964.72	223.31
965.01	223.32
965.31	223.31
965.60	223.29
965.90	223.35
966.19	223.32
966.49	223.33
966.78	223.33
967.08	223.32
967.37	223.31
967.67	223.29
967.96	223.31
968.26	223.31
968.55	223.32
968.85	223.32
969.14	223.32
969.43	223.33
969.73	223.32
970.02	223.32
970.32	223.32
970.61	223.32
970.91	223.29
971.20	223.27
971.49	223.27
971.79	223.28
972.08	223.21
972.38	223.22
972.67	223.21
972.96	223.23
973.26	223.22
973.55	223.25
973.85	223.24
974.14	223.22
974.43	223.23
974.73	223.21
975.02	223.20
975.31	223.21
975.61	223.20
975.90	223.19
976.19	223.17
976.49	223.18
976.78	223.18
977.07	223.18
977.37	223.19
977.66	223.20
977.95	223.18
978.24	223.20
978.54	223.21
978.83	223.20
979.12	223.19
979.42	223.19
979.71	223.16
980.00	223.17
980.29	223.17
980.59	223.15
980.88	223.17
981.17	223.17
981.46	223.17
981.76	223.17
982.05	223.20
982.34	223.20
982.63	223.21
982.93	223.21
983.22	223.22
983.51	223.23
983.80	223.24
984.09	223.25
984.39	223.24
984.68	223.23
984.97	223.24
985.26	223.23
985.55	223.23
985.85	223.21
986.14	223.23
986.43	223.24
986.72	223.24
987.01	223.21
987.30	223.22
987.59	223.20
987.89	223.21
988.18	223.17
988.47	223.17
988.76	223.15
989.05	223.14
989.34	223.12
989.63	223.14
989.92	223.13
990.22	223.10
990.51	223.10
990.80	223.09
991.09	223.09
991.38	223.11
991.67	223.10
991.96	223.10
992.25	223.09
992.54	223.06
992.83	223.07
993.12	223.06
993.41	223.07
993.70	223.12
993.99	223.13
994.28	223.15
994.58	223.16
994.87	223.16
995.16	223.16
995.45	223.15
995.74	223.11
996.03	223.12
996.32	223.14
996.61	223.17
996.90	223.16
997.19	223.15
997.48	223.15
997.77	223.13
998.06	223.14
998.34	223.13
998.63	223.13
998.92	223.13
999.21	223.16
999.50	223.16
999.79	223.12
1000.08	223.12
1000.37	223.12
1000.66	223.10
1000.95	223.12
1001.24	223.13
1001.53	223.15
1001.82	223.14
1002.11	223.13
1002.40	223.14
1002.68	223.16
1002.97	223.23
1003.26	223.22
1003.55	223.20
1003.84	223.22
1004.13	223.25
1004.42	223.26
1004.71	223.26
1004.99	223.25
1005.28	223.27
1005.57	223.26
1005.86	223.26
1006.15	223.25
1006.44	223.24
1006.72	223.25
1007.01	223.24
1007.30	223.24
1007.59	223.24
1007.88	223.23
1008.17	223.24
1008.45	223.21
1008.74	223.18
1009.03	223.13
1009.32	223.14
1009.60	223.14
1009.89	223.14
1010.18	223.09
1010.47	223.08
1010.76	223.08
1011.04	223.08
1011.33	223.08
1011.62	223.08
1011.91	223.09
1012.19	223.10
1012.48	223.11
1012.77	223.10
1013.05	223.14
1013.34	223.14
1013.63	223.13
1013.92	223.14
1014.20	223.14
1014.49	223.14
1014.78	223.16
1015.06	223.12
1015.35	223.12
1015.64	223.14
1015.92	223.15
1016.21	223.16
1016.50	223.17
1016.78	223.18
1017.07	223.19
1017.36	223.17
1017.64	223.17
1017.93	223.17
1018.22	223.16
1018.50	223.16
1018.79	223.16
1019.08	223.13
1019.36	223.12
1019.65	223.11
1019.93	223.13
1020.22	223.15
1020.51	223.19
1020.79	223.18
1021.08	222.98
1021.36	223.09
1021.65	223.11
1021.94	223.17
1022.22	223.04
1022.51	222.93
1022.79	223.39
1023.08	223.29
1023.36	224.24
1023.65	222.92
>>>>>End Processed Spectral Data<<<<<
