SpectraSuite Data File
++++++++++++++++++++++++++++++++++++
Date: Thu Oct 01 07:07:52 EDT 2015
User: lab3
Dark Spectrum Present: No
Reference Spectrum Present: No
Number of Sampled Component Spectra: 1
Spectrometers: USB2E7196
Integration Time (usec): 36000 (USB2E7196)
Spectra Averaged: 10000 (USB2E7196)
Boxcar Smoothing: 10 (USB2E7196)
Correct for Electrical Dark: No (USB2E7196)
Strobe/Lamp Enabled: No (USB2E7196)
Correct for Detector Non-linearity: No (USB2E7196)
Correct for Stray Light: No (USB2E7196)
Number of Pixels in Processed Spectrum: 2048
>>>>>Begin Processed Spectral Data<<<<<
339.09	0.00
339.48	210.14
339.86	211.62
340.24	213.05
340.63	214.40
341.01	217.32
341.39	217.12
341.78	218.47
342.16	219.68
342.54	220.11
342.93	208.74
343.31	219.29
343.69	219.83
344.07	220.29
344.46	220.72
344.84	221.11
345.22	221.34
345.60	221.60
345.99	221.79
346.37	221.93
346.75	222.04
347.13	222.12
347.52	222.18
347.90	222.26
348.28	222.30
348.66	222.36
349.05	222.36
349.43	222.41
349.81	222.47
350.19	222.53
350.57	222.59
350.96	222.67
351.34	222.77
351.72	222.86
352.10	222.96
352.48	223.04
352.87	223.09
353.25	223.16
353.63	223.22
354.01	223.29
354.39	223.36
354.77	223.44
355.15	223.54
355.54	223.60
355.92	223.63
356.30	223.71
356.68	223.84
357.06	223.91
357.44	223.97
357.82	224.03
358.20	224.14
358.58	224.20
358.97	224.26
359.35	224.34
359.73	224.42
360.11	224.47
360.49	224.54
360.87	224.58
361.25	224.65
361.63	224.73
362.01	224.78
362.39	224.81
362.77	224.86
363.15	224.89
363.53	224.92
363.91	224.96
364.29	224.99
364.67	224.91
365.05	224.93
365.43	224.96
365.81	224.99
366.19	225.01
366.57	225.05
366.95	225.06
367.33	225.04
367.71	225.03
368.09	225.05
368.47	225.05
368.85	225.04
369.23	225.04
369.61	224.99
369.99	225.01
370.37	225.00
370.75	225.06
371.13	225.03
371.51	224.99
371.89	224.97
372.27	224.95
372.65	224.93
373.03	224.89
373.41	224.85
373.78	224.80
374.16	224.70
374.54	224.63
374.92	224.57
375.30	224.53
375.68	224.46
376.06	224.41
376.44	224.36
376.82	224.31
377.19	224.26
377.57	224.21
377.95	224.12
378.33	224.06
378.71	223.92
379.09	223.86
379.47	223.83
379.84	223.76
380.22	223.70
380.60	223.62
380.98	223.57
381.36	223.52
381.73	223.45
382.11	223.42
382.49	223.38
382.87	223.32
383.25	223.28
383.62	223.35
384.00	223.28
384.38	223.24
384.76	223.22
385.13	223.21
385.51	223.17
385.89	223.12
386.27	223.08
386.64	223.06
387.02	223.01
387.40	222.96
387.78	222.93
388.15	222.91
388.53	222.88
388.91	222.85
389.29	222.82
389.66	222.81
390.04	222.77
390.42	222.76
390.79	222.74
391.17	222.72
391.55	222.59
391.92	222.58
392.30	222.58
392.68	222.54
393.05	222.52
393.43	222.52
393.81	222.52
394.18	222.51
394.56	222.51
394.94	222.54
395.31	222.53
395.69	222.57
396.06	222.60
396.44	222.62
396.82	222.63
397.19	222.70
397.57	222.72
397.95	222.76
398.32	222.75
398.70	222.80
399.07	222.86
399.45	222.89
399.82	222.93
400.20	222.97
400.58	223.03
400.95	223.04
401.33	223.12
401.70	223.25
402.08	223.34
402.45	223.42
402.83	223.52
403.20	223.63
403.58	223.71
403.95	223.84
404.33	223.97
404.71	224.10
405.08	224.28
405.46	224.42
405.83	224.59
406.21	224.77
406.58	224.96
406.96	225.15
407.33	225.37
407.70	225.62
408.08	225.95
408.45	226.23
408.83	226.54
409.20	226.83
409.58	227.09
409.95	227.44
410.33	227.82
410.70	228.18
411.08	228.60
411.45	229.05
411.82	229.50
412.20	230.02
412.57	230.63
412.95	231.11
413.32	231.74
413.69	232.39
414.07	233.08
414.44	233.82
414.82	234.59
415.19	235.48
415.56	236.39
415.94	237.33
416.31	238.39
416.68	239.45
417.06	240.67
417.43	241.82
417.81	243.15
418.18	244.51
418.55	245.99
418.93	247.52
419.30	249.14
419.67	250.85
420.04	252.60
420.42	254.44
420.79	256.56
421.16	258.71
421.54	260.88
421.91	263.16
422.28	265.52
422.66	268.07
423.03	270.50
423.40	273.06
423.77	275.79
424.15	278.59
424.52	281.50
424.89	284.66
425.26	287.79
425.64	290.70
426.01	293.96
426.38	297.30
426.75	300.74
427.13	304.26
427.50	307.93
427.87	311.76
428.24	315.61
428.61	319.31
428.99	323.28
429.36	327.64
429.73	331.82
430.10	335.97
430.47	340.20
430.85	344.56
431.22	349.20
431.59	353.96
431.96	358.60
432.33	363.74
432.70	368.60
433.08	374.36
433.45	379.80
433.82	385.14
434.19	391.11
434.56	396.98
434.93	402.63
435.30	408.23
435.68	414.53
436.05	420.70
436.42	426.86
436.79	432.48
437.16	438.54
437.53	445.04
437.90	451.54
438.27	457.89
438.64	464.79
439.01	471.04
439.38	476.75
439.75	482.26
440.13	488.56
440.50	494.58
440.87	499.33
441.24	504.55
441.61	510.32
441.98	514.56
442.35	519.59
442.72	524.77
443.09	529.74
443.46	532.97
443.83	535.39
444.20	537.46
444.57	540.44
444.94	542.26
445.31	544.14
445.68	545.84
446.05	547.15
446.42	547.11
446.79	546.96
447.16	546.87
447.53	546.82
447.90	545.09
448.27	543.46
448.64	540.82
449.01	539.10
449.37	535.25
449.74	531.74
450.11	527.22
450.48	522.21
450.85	517.17
451.22	512.88
451.59	508.69
451.96	504.87
452.33	499.24
452.70	494.22
453.07	488.09
453.43	481.93
453.80	475.97
454.17	470.24
454.54	464.92
454.91	458.90
455.28	453.23
455.65	447.87
456.02	442.16
456.38	437.56
456.75	431.61
457.12	426.82
457.49	421.98
457.86	417.35
458.23	413.30
458.59	408.82
458.96	404.21
459.33	400.13
459.70	395.98
460.07	392.82
460.43	389.10
460.80	385.61
461.17	382.53
461.54	379.21
461.91	376.11
462.27	372.95
462.64	370.37
463.01	367.42
463.38	364.45
463.74	361.76
464.11	359.36
464.48	357.19
464.85	354.87
465.21	353.10
465.58	351.13
465.95	348.87
466.32	347.06
466.68	345.30
467.05	343.53
467.42	341.82
467.78	339.98
468.15	338.27
468.52	337.01
468.88	335.36
469.25	333.84
469.62	332.64
469.98	331.34
470.35	330.18
470.72	329.13
471.08	328.07
471.45	327.20
471.82	326.23
472.18	325.22
472.55	324.57
472.92	323.77
473.28	323.14
473.65	322.49
474.02	321.88
474.38	321.38
474.75	321.10
475.11	320.69
475.48	320.53
475.85	320.37
476.21	320.33
476.58	320.34
476.94	320.54
477.31	320.67
477.67	320.83
478.04	321.10
478.41	321.45
478.77	321.91
479.14	322.26
479.50	322.83
479.87	323.53
480.23	324.24
480.60	324.91
480.96	325.62
481.33	326.60
481.69	327.57
482.06	328.54
482.42	329.45
482.79	330.54
483.15	331.79
483.52	333.19
483.88	334.55
484.25	335.99
484.61	337.49
484.98	339.10
485.34	340.90
485.71	342.77
486.07	344.77
486.44	346.75
486.80	348.96
487.17	351.22
487.53	353.70
487.90	356.28
488.26	359.07
488.62	362.02
488.99	364.97
489.35	368.06
489.72	371.39
490.08	374.89
490.44	378.49
490.81	382.25
491.17	386.11
491.54	390.22
491.90	394.44
492.26	398.98
492.63	403.77
492.99	408.75
493.36	413.85
493.72	419.22
494.08	424.73
494.45	430.55
494.81	436.58
495.17	442.73
495.54	449.24
495.90	456.06
496.26	463.02
496.63	470.22
496.99	477.70
497.35	485.56
497.72	493.72
498.08	502.03
498.44	510.61
498.80	519.74
499.17	529.10
499.53	538.81
499.89	548.74
500.26	558.84
500.62	569.23
500.98	580.29
501.34	591.51
501.71	603.27
502.07	615.25
502.43	627.63
502.79	640.36
503.16	653.50
503.52	666.82
503.88	680.52
504.24	694.65
504.60	709.07
504.97	723.87
505.33	739.05
505.69	755.16
506.05	771.47
506.41	787.79
506.78	804.41
507.14	821.50
507.50	839.21
507.86	857.29
508.22	875.65
508.59	894.04
508.95	913.15
509.31	932.69
509.67	952.95
510.03	973.41
510.39	994.08
510.75	1015.00
511.12	1036.20
511.48	1057.74
511.84	1079.36
512.20	1101.29
512.56	1124.34
512.92	1147.58
513.28	1170.55
513.64	1193.82
514.00	1217.50
514.37	1241.52
514.73	1265.55
515.09	1289.39
515.45	1313.67
515.81	1338.51
516.17	1363.40
516.53	1387.95
516.89	1412.55
517.25	1437.35
517.61	1462.35
517.97	1487.53
518.33	1512.43
518.69	1537.48
519.05	1562.77
519.41	1588.20
519.77	1613.90
520.13	1638.78
520.49	1663.84
520.85	1689.10
521.21	1714.29
521.57	1740.06
521.93	1765.11
522.29	1791.02
522.65	1816.63
523.01	1842.01
523.37	1866.66
523.73	1891.94
524.09	1917.38
524.45	1942.76
524.81	1967.64
525.17	1992.41
525.53	2016.75
525.89	2041.11
526.25	2065.65
526.61	2089.66
526.97	2113.96
527.33	2138.19
527.68	2162.27
528.04	2185.47
528.40	2208.53
528.76	2231.76
529.12	2253.93
529.48	2276.47
529.84	2297.14
530.20	2318.41
530.56	2339.34
530.91	2360.30
531.27	2380.75
531.63	2400.57
531.99	2419.85
532.35	2438.74
532.71	2457.75
533.07	2477.36
533.42	2495.41
533.78	2513.89
534.14	2532.33
534.50	2549.91
534.86	2568.10
535.21	2584.41
535.57	2600.68
535.93	2616.18
536.29	2630.52
536.65	2645.68
537.00	2659.70
537.36	2674.26
537.72	2687.72
538.08	2700.86
538.44	2712.86
538.79	2725.04
539.15	2735.59
539.51	2746.08
539.87	2756.25
540.22	2764.29
540.58	2772.37
540.94	2781.06
541.29	2788.17
541.65	2794.29
542.01	2799.93
542.37	2803.69
542.72	2809.37
543.08	2814.55
543.44	2819.57
543.79	2823.74
544.15	2827.06
544.51	2830.33
544.87	2832.69
545.22	2834.69
545.58	2835.72
545.94	2837.23
546.29	2837.25
546.65	2837.38
547.01	2837.54
547.36	2837.84
547.72	2838.27
548.07	2837.26
548.43	2835.60
548.79	2833.29
549.14	2831.02
549.50	2829.36
549.86	2826.88
550.21	2821.93
550.57	2817.41
550.92	2811.53
551.28	2806.25
551.64	2800.86
551.99	2795.89
552.35	2790.51
552.70	2784.67
553.06	2779.56
553.41	2773.97
553.77	2767.87
554.13	2762.42
554.48	2756.11
554.84	2748.10
555.19	2740.23
555.55	2731.83
555.90	2723.99
556.26	2717.19
556.61	2709.75
556.97	2700.13
557.32	2691.34
557.68	2683.06
558.03	2674.09
558.39	2665.80
558.74	2657.67
559.10	2648.28
559.45	2638.56
559.81	2629.20
560.16	2619.18
560.52	2608.69
560.87	2599.23
561.23	2589.38
561.58	2579.01
561.94	2568.36
562.29	2557.26
562.64	2546.80
563.00	2536.67
563.35	2526.40
563.71	2515.23
564.06	2503.49
564.42	2492.81
564.77	2481.76
565.12	2470.83
565.48	2459.63
565.83	2449.06
566.19	2438.50
566.54	2427.62
566.89	2415.81
567.25	2403.96
567.60	2392.94
567.96	2381.53
568.31	2368.68
568.66	2355.75
569.02	2343.91
569.37	2331.83
569.72	2320.27
570.08	2307.96
570.43	2295.13
570.78	2282.03
571.14	2268.68
571.49	2256.18
571.84	2243.94
572.20	2230.41
572.55	2217.26
572.90	2204.01
573.26	2189.86
573.61	2175.18
573.96	2160.74
574.31	2146.72
574.67	2132.88
575.02	2118.63
575.37	2103.91
575.72	2089.48
576.08	2075.67
576.43	2060.83
576.78	2046.05
577.13	2032.11
577.49	2018.19
577.84	2004.64
578.19	1990.22
578.54	1975.48
578.90	1960.22
579.25	1944.70
579.60	1930.59
579.95	1916.07
580.30	1901.62
580.66	1887.47
581.01	1872.92
581.36	1858.73
581.71	1845.09
582.06	1830.98
582.42	1816.90
582.77	1803.63
583.12	1789.99
583.47	1776.40
583.82	1762.94
584.17	1749.38
584.53	1735.58
584.88	1721.85
585.23	1707.77
585.58	1694.20
585.93	1681.09
586.28	1668.80
586.63	1656.32
586.98	1643.13
587.34	1630.19
587.69	1616.76
588.04	1603.54
588.39	1591.03
588.74	1578.07
589.09	1564.80
589.44	1551.50
589.79	1538.79
590.14	1525.91
590.49	1513.28
590.84	1500.50
591.19	1488.37
591.54	1475.72
591.89	1462.98
592.25	1450.56
592.60	1437.73
592.95	1425.48
593.30	1413.49
593.65	1401.28
594.00	1389.29
594.35	1378.10
594.70	1366.10
595.05	1355.18
595.40	1344.10
595.75	1332.40
596.10	1321.48
596.45	1310.78
596.80	1300.56
597.15	1290.13
597.50	1279.71
597.85	1269.47
598.19	1259.42
598.54	1248.77
598.89	1238.87
599.24	1229.30
599.59	1219.47
599.94	1210.68
600.29	1201.75
600.64	1192.60
600.99	1182.89
601.34	1173.62
601.69	1163.79
602.04	1155.00
602.39	1146.03
602.74	1137.30
603.08	1128.84
603.43	1119.88
603.78	1110.84
604.13	1101.94
604.48	1092.97
604.83	1084.26
605.18	1075.45
605.53	1066.59
605.87	1057.88
606.22	1049.41
606.57	1040.65
606.92	1032.02
607.27	1023.25
607.62	1014.59
607.96	1006.08
608.31	998.57
608.66	990.62
609.01	983.11
609.36	975.55
609.70	967.77
610.05	959.83
610.40	952.23
610.75	944.76
611.10	937.55
611.44	929.94
611.79	922.64
612.14	914.97
612.49	907.45
612.83	900.40
613.18	893.41
613.53	886.21
613.88	879.11
614.22	872.59
614.57	865.89
614.92	859.19
615.27	852.53
615.61	845.71
615.96	839.12
616.31	832.45
616.65	825.67
617.00	819.15
617.35	812.77
617.70	806.41
618.04	800.12
618.39	793.84
618.74	787.90
619.08	781.78
619.43	775.93
619.78	770.09
620.12	764.06
620.47	758.20
620.82	752.43
621.16	746.97
621.51	741.16
621.85	735.34
622.20	729.57
622.55	723.97
622.89	718.32
623.24	712.73
623.59	707.21
623.93	701.74
624.28	696.41
624.62	691.07
624.97	685.71
625.32	680.48
625.66	675.09
626.01	669.71
626.35	664.46
626.70	659.25
627.04	654.24
627.39	649.27
627.73	644.40
628.08	639.75
628.43	634.99
628.77	630.29
629.12	625.72
629.46	621.33
629.81	616.76
630.15	612.08
630.50	607.55
630.84	603.21
631.19	599.05
631.53	594.94
631.88	590.72
632.22	586.58
632.57	582.68
632.91	578.74
633.26	574.89
633.60	571.11
633.95	567.41
634.29	563.58
634.64	559.70
634.98	555.75
635.32	551.97
635.67	548.31
636.01	544.59
636.36	540.92
636.70	537.38
637.05	533.84
637.39	530.52
637.73	527.06
638.08	523.65
638.42	520.23
638.77	516.65
639.11	513.10
639.45	509.58
639.80	506.05
640.14	502.70
640.49	499.32
640.83	495.83
641.17	492.38
641.52	489.09
641.86	485.81
642.20	482.68
642.55	479.41
642.89	476.21
643.23	473.21
643.58	470.43
643.92	467.55
644.26	464.69
644.61	461.81
644.95	458.94
645.29	456.04
645.64	453.09
645.98	450.29
646.32	447.65
646.66	445.02
647.01	442.36
647.35	439.75
647.69	437.04
648.04	434.46
648.38	431.93
648.72	429.36
649.06	426.85
649.41	424.37
649.75	421.88
650.09	419.43
650.43	416.98
650.78	414.52
651.12	412.05
651.46	409.66
651.80	407.38
652.14	405.17
652.49	402.95
652.83	400.81
653.17	398.65
653.51	396.56
653.85	394.52
654.20	392.44
654.54	390.27
654.88	388.29
655.22	386.37
655.56	384.41
655.90	382.54
656.25	380.68
656.59	378.83
656.93	377.07
657.27	375.35
657.61	373.53
657.95	371.77
658.29	370.03
658.64	368.33
658.98	366.59
659.32	364.87
659.66	363.26
660.00	361.67
660.34	360.11
660.68	358.48
661.02	356.79
661.36	355.22
661.70	353.72
662.05	352.19
662.39	350.66
662.73	349.21
663.07	347.79
663.41	346.38
663.75	345.00
664.09	343.63
664.43	342.18
664.77	340.82
665.11	339.41
665.45	338.07
665.79	336.72
666.13	335.37
666.47	334.01
666.81	332.62
667.15	331.20
667.49	329.89
667.83	328.62
668.17	327.39
668.51	326.19
668.85	325.00
669.19	323.87
669.53	322.68
669.87	321.47
670.21	320.28
670.55	319.10
670.89	318.01
671.23	316.88
671.57	315.76
671.91	314.70
672.25	313.70
672.58	312.69
672.92	311.65
673.26	310.67
673.60	309.71
673.94	308.73
674.28	307.81
674.62	306.88
674.96	305.92
675.30	305.02
675.64	304.09
675.97	303.17
676.31	302.22
676.65	301.30
676.99	300.44
677.33	299.52
677.67	298.66
678.01	297.71
678.34	296.84
678.68	296.03
679.02	295.18
679.36	294.33
679.70	293.50
680.04	292.69
680.37	291.88
680.71	291.09
681.05	290.34
681.39	289.57
681.73	288.75
682.06	287.98
682.40	287.21
682.74	286.47
683.08	285.77
683.42	285.03
683.75	284.37
684.09	283.63
684.43	282.93
684.77	282.22
685.10	281.57
685.44	280.89
685.78	280.21
686.12	279.57
686.45	278.91
686.79	278.25
687.13	277.62
687.46	276.95
687.80	276.31
688.14	275.64
688.48	275.02
688.81	274.40
689.15	273.83
689.49	273.22
689.82	272.63
690.16	271.97
690.50	271.38
690.83	270.79
691.17	270.22
691.51	269.66
691.84	269.13
692.18	268.55
692.52	267.97
692.85	267.40
693.19	266.88
693.52	266.34
693.86	265.81
694.20	265.28
694.53	264.79
694.87	264.28
695.21	263.79
695.54	263.30
695.88	262.79
696.21	262.25
696.55	261.77
696.88	261.28
697.22	260.82
697.56	260.35
697.89	259.83
698.23	259.35
698.56	258.85
698.90	258.39
699.23	257.92
699.57	257.50
699.90	257.06
700.24	256.59
700.58	256.17
700.91	255.76
701.25	255.43
701.58	255.07
701.92	254.69
702.25	254.30
702.59	253.89
702.92	253.51
703.26	253.13
703.59	252.75
703.93	252.45
704.26	252.09
704.60	251.73
704.93	251.38
705.26	251.03
705.60	250.72
705.93	250.36
706.27	250.06
706.60	249.75
706.94	249.45
707.27	249.09
707.61	248.75
707.94	248.40
708.27	247.98
708.61	247.62
708.94	247.27
709.28	246.95
709.61	246.64
709.94	246.35
710.28	246.07
710.61	245.80
710.95	245.43
711.28	245.22
711.61	244.94
711.95	244.69
712.28	244.42
712.61	244.13
712.95	243.93
713.28	243.71
713.61	243.44
713.95	243.16
714.28	242.94
714.61	242.68
714.95	242.45
715.28	242.21
715.61	241.97
715.95	241.75
716.28	241.52
716.61	241.31
716.95	241.08
717.28	240.86
717.61	240.64
717.94	240.42
718.28	240.14
718.61	239.92
718.94	239.70
719.27	239.49
719.61	239.30
719.94	239.08
720.27	238.83
720.60	238.63
720.94	238.44
721.27	238.26
721.60	238.10
721.93	237.91
722.27	237.77
722.60	237.60
722.93	237.41
723.26	237.25
723.59	237.05
723.93	236.90
724.26	236.74
724.59	236.57
724.92	236.42
725.25	236.29
725.59	236.14
725.92	236.00
726.25	235.85
726.58	235.71
726.91	235.55
727.24	235.41
727.57	235.27
727.91	235.11
728.24	234.98
728.57	234.82
728.90	234.70
729.23	234.53
729.56	234.44
729.89	234.31
730.22	234.16
730.55	234.03
730.89	233.89
731.22	233.76
731.55	233.63
731.88	233.50
732.21	233.36
732.54	233.23
732.87	233.11
733.20	233.00
733.53	232.89
733.86	232.79
734.19	232.66
734.52	232.57
734.85	232.54
735.18	232.40
735.51	232.33
735.84	232.22
736.17	232.15
736.50	231.99
736.83	232.01
737.16	231.92
737.49	231.83
737.82	231.73
738.15	231.65
738.48	231.56
738.81	231.45
739.14	231.35
739.47	231.25
739.80	231.15
740.13	231.06
740.46	230.95
740.79	230.84
741.12	230.75
741.45	230.65
741.78	230.50
742.11	230.44
742.44	230.33
742.77	230.26
743.10	230.16
743.43	230.06
743.75	229.87
744.08	229.94
744.41	229.85
744.74	229.76
745.07	229.65
745.40	229.59
745.73	229.56
746.06	229.49
746.39	229.43
746.71	229.35
747.04	229.26
747.37	229.19
747.70	229.14
748.03	229.07
748.36	229.02
748.68	228.95
749.01	228.84
749.34	228.78
749.67	228.71
750.00	228.66
750.33	228.68
750.65	228.62
750.98	228.40
751.31	228.34
751.64	228.29
751.97	228.28
752.29	228.20
752.62	228.08
752.95	228.01
753.28	227.93
753.60	227.87
753.93	227.83
754.26	227.78
754.59	227.68
754.91	227.60
755.24	227.53
755.57	227.51
755.90	227.45
756.22	227.38
756.55	227.31
756.88	227.22
757.20	227.10
757.53	227.02
757.86	226.96
758.19	226.91
758.51	226.85
758.84	226.75
759.17	226.69
759.49	226.65
759.82	226.66
760.15	226.62
760.47	226.57
760.80	226.50
761.13	226.46
761.45	226.42
761.78	226.38
762.11	226.34
762.43	226.24
762.76	226.20
763.08	226.17
763.41	226.13
763.74	226.10
764.06	226.05
764.39	226.02
764.71	225.97
765.04	225.92
765.37	225.87
765.69	225.84
766.02	225.80
766.34	225.75
766.67	225.67
767.00	225.64
767.32	225.66
767.65	225.69
767.97	225.64
768.30	225.61
768.62	225.57
768.95	225.52
769.27	225.49
769.60	225.46
769.92	225.41
770.25	225.36
770.57	225.31
770.90	225.28
771.22	225.23
771.55	225.21
771.87	225.18
772.20	225.15
772.52	225.21
772.85	225.30
773.17	225.28
773.50	225.24
773.82	225.20
774.15	225.11
774.47	225.02
774.80	224.99
775.12	224.95
775.45	224.93
775.77	224.91
776.09	224.89
776.42	224.86
776.74	224.87
777.07	224.84
777.39	224.82
777.72	224.79
778.04	224.78
778.36	224.74
778.69	224.72
779.01	224.71
779.33	224.59
779.66	224.44
779.98	224.41
780.31	224.40
780.63	224.42
780.95	224.42
781.28	224.40
781.60	224.37
781.92	224.36
782.25	224.33
782.57	224.31
782.89	224.28
783.22	224.26
783.54	224.22
783.86	224.20
784.19	224.18
784.51	224.19
784.83	224.16
785.16	224.14
785.48	224.12
785.80	224.10
786.12	224.09
786.45	224.07
786.77	224.06
787.09	224.03
787.42	223.97
787.74	223.96
788.06	223.95
788.38	223.93
788.71	223.90
789.03	223.89
789.35	223.89
789.67	223.86
789.99	223.85
790.32	223.82
790.64	223.82
790.96	223.90
791.28	223.85
791.61	223.83
791.93	223.82
792.25	223.80
792.57	223.86
792.89	223.83
793.21	223.83
793.54	223.80
793.86	223.78
794.18	223.77
794.50	223.74
794.82	223.72
795.14	223.72
795.47	223.72
795.79	223.71
796.11	223.67
796.43	223.66
796.75	223.64
797.07	223.64
797.39	223.62
797.71	223.52
798.04	223.51
798.36	223.51
798.68	223.49
799.00	223.49
799.32	223.43
799.64	223.44
799.96	223.42
800.28	223.43
800.60	223.42
800.92	223.42
801.24	223.40
801.56	223.41
801.89	223.38
802.21	223.37
802.53	223.35
802.85	223.36
803.17	223.41
803.49	223.38
803.81	223.36
804.13	223.34
804.45	223.32
804.77	223.32
805.09	223.31
805.41	223.29
805.73	223.26
806.05	223.23
806.37	223.21
806.69	223.20
807.01	223.18
807.33	223.18
807.65	223.14
807.97	223.18
808.28	223.15
808.60	223.15
808.92	223.13
809.24	223.19
809.56	223.16
809.88	223.12
810.20	223.12
810.52	223.14
810.84	223.12
811.16	223.10
811.48	223.09
811.80	223.12
812.12	223.11
812.43	223.12
812.75	223.12
813.07	223.11
813.39	223.11
813.71	223.09
814.03	223.07
814.35	223.07
814.67	223.02
814.98	223.01
815.30	223.00
815.62	222.98
815.94	222.90
816.26	222.91
816.58	222.89
816.89	222.89
817.21	222.85
817.53	222.86
817.85	222.86
818.17	222.85
818.48	222.80
818.80	222.82
819.12	222.79
819.44	222.76
819.76	222.75
820.07	222.74
820.39	222.74
820.71	222.74
821.03	222.73
821.34	222.72
821.66	222.73
821.98	222.73
822.30	222.72
822.61	222.78
822.93	222.76
823.25	222.75
823.57	222.74
823.88	222.75
824.20	222.74
824.52	222.75
824.83	222.75
825.15	222.73
825.47	222.71
825.79	222.72
826.10	222.71
826.42	222.71
826.74	222.71
827.05	222.70
827.37	222.70
827.69	222.69
828.00	222.69
828.32	222.69
828.64	222.67
828.95	222.72
829.27	222.68
829.58	222.68
829.90	222.69
830.22	222.70
830.53	222.68
830.85	222.67
831.17	222.64
831.48	222.64
831.80	222.64
832.11	222.64
832.43	222.62
832.75	222.62
833.06	222.68
833.38	222.65
833.69	222.65
834.01	222.65
834.32	222.64
834.64	222.63
834.96	222.63
835.27	222.63
835.59	222.59
835.90	222.57
836.22	222.56
836.53	222.54
836.85	222.52
837.16	222.62
837.48	222.62
837.79	222.66
838.11	222.66
838.42	222.65
838.74	222.66
839.05	222.65
839.37	222.65
839.68	222.58
840.00	222.58
840.31	222.59
840.63	222.58
840.94	222.57
841.26	222.56
841.57	222.56
841.88	222.56
842.20	222.55
842.51	222.53
842.83	222.53
843.14	222.63
843.46	222.63
843.77	222.56
844.08	222.56
844.40	222.52
844.71	222.51
845.03	222.50
845.34	222.50
845.65	222.49
845.97	222.49
846.28	222.49
846.60	222.50
846.91	222.47
847.22	222.47
847.54	222.49
847.85	222.50
848.16	222.49
848.48	222.47
848.79	222.50
849.10	222.52
849.42	222.52
849.73	222.42
850.04	222.42
850.36	222.39
850.67	222.40
850.98	222.40
851.30	222.40
851.61	222.40
851.92	222.39
852.23	222.43
852.55	222.43
852.86	222.43
853.17	222.44
853.49	222.46
853.80	222.48
854.11	222.48
854.42	222.49
854.74	222.48
855.05	222.48
855.36	222.43
855.67	222.43
855.99	222.42
856.30	222.54
856.61	222.54
856.92	222.54
857.23	222.54
857.55	222.53
857.86	222.52
858.17	222.53
858.48	222.51
858.79	222.48
859.11	222.49
859.42	222.48
859.73	222.47
860.04	222.46
860.35	222.43
860.66	222.39
860.98	222.39
861.29	222.40
861.60	222.40
861.91	222.42
862.22	222.40
862.53	222.39
862.84	222.27
863.16	222.29
863.47	222.27
863.78	222.26
864.09	222.26
864.40	222.27
864.71	222.27
865.02	222.28
865.33	222.27
865.64	222.25
865.95	222.25
866.27	222.31
866.58	222.30
866.89	222.31
867.20	222.31
867.51	222.30
867.82	222.29
868.13	222.33
868.44	222.30
868.75	222.32
869.06	222.33
869.37	222.34
869.68	222.31
869.99	222.33
870.30	222.33
870.61	222.35
870.92	222.34
871.23	222.33
871.54	222.34
871.85	222.36
872.16	222.38
872.47	222.37
872.78	222.31
873.09	222.32
873.40	222.31
873.71	222.32
874.02	222.33
874.33	222.31
874.64	222.29
874.95	222.31
875.26	222.28
875.56	222.28
875.87	222.28
876.18	222.27
876.49	222.37
876.80	222.37
877.11	222.34
877.42	222.35
877.73	222.35
878.04	222.33
878.35	222.33
878.66	222.33
878.96	222.33
879.27	222.32
879.58	222.32
879.89	222.31
880.20	222.34
880.51	222.33
880.82	222.33
881.12	222.34
881.43	222.31
881.74	222.30
882.05	222.30
882.36	222.30
882.67	222.31
882.97	222.19
883.28	222.19
883.59	222.19
883.90	222.19
884.21	222.21
884.51	222.20
884.82	222.18
885.13	222.18
885.44	222.18
885.74	222.18
886.05	222.18
886.36	222.18
886.67	222.14
886.98	222.19
887.28	222.20
887.59	222.20
887.90	222.20
888.20	222.20
888.51	222.22
888.82	222.20
889.13	222.21
889.43	222.30
889.74	222.29
890.05	222.29
890.35	222.28
890.66	222.26
890.97	222.25
891.28	222.25
891.58	222.25
891.89	222.25
892.20	222.23
892.50	222.22
892.81	222.21
893.12	222.21
893.42	222.16
893.73	222.16
894.04	222.16
894.34	222.17
894.65	222.16
894.95	222.15
895.26	222.16
895.57	222.20
895.87	222.09
896.18	222.11
896.48	222.12
896.79	222.11
897.10	222.13
897.40	222.14
897.71	222.14
898.01	222.14
898.32	222.14
898.63	222.14
898.93	222.15
899.24	222.15
899.54	222.15
899.85	222.14
900.15	222.14
900.46	222.14
900.76	222.14
901.07	222.14
901.38	222.13
901.68	222.15
901.99	222.10
902.29	222.10
902.60	222.09
902.90	222.08
903.21	222.08
903.51	222.07
903.82	222.09
904.12	222.09
904.43	222.09
904.73	222.09
905.03	222.10
905.34	222.20
905.64	222.19
905.95	222.19
906.25	222.19
906.56	222.18
906.86	222.18
907.17	222.17
907.47	222.18
907.77	222.17
908.08	222.14
908.38	222.15
908.69	222.15
908.99	222.17
909.30	222.18
909.60	222.18
909.90	222.18
910.21	222.14
910.51	222.12
910.81	222.12
911.12	222.13
911.42	222.13
911.73	222.01
912.03	222.02
912.33	222.04
912.64	222.03
912.94	222.02
913.24	222.00
913.55	222.00
913.85	221.99
914.15	222.01
914.46	222.02
914.76	222.01
915.06	222.01
915.37	221.99
915.67	221.98
915.97	221.98
916.27	221.96
916.58	221.97
916.88	221.97
917.18	221.97
917.49	222.03
917.79	222.03
918.09	222.04
918.39	222.07
918.70	222.07
919.00	222.07
919.30	222.12
919.60	222.12
919.91	222.11
920.21	222.12
920.51	222.10
920.81	222.09
921.12	222.11
921.42	222.10
921.72	222.11
922.02	222.12
922.32	222.13
922.63	222.13
922.93	222.19
923.23	222.20
923.53	222.19
923.83	222.12
924.13	222.13
924.44	222.13
924.74	222.14
925.04	222.17
925.34	222.16
925.64	222.12
925.94	222.12
926.24	222.18
926.55	222.17
926.85	222.19
927.15	222.18
927.45	222.18
927.75	222.18
928.05	222.18
928.35	222.17
928.65	222.19
928.95	222.19
929.26	222.14
929.56	222.16
929.86	222.17
930.16	222.17
930.46	222.15
930.76	222.15
931.06	222.10
931.36	222.07
931.66	222.09
931.96	222.10
932.26	222.11
932.56	222.06
932.86	222.07
933.16	222.07
933.46	222.06
933.76	222.04
934.06	222.06
934.36	222.09
934.66	222.09
934.96	222.07
935.26	222.08
935.56	222.09
935.86	222.06
936.16	222.04
936.46	222.03
936.76	222.03
937.06	222.01
937.36	222.02
937.66	222.03
937.96	222.02
938.26	222.00
938.56	221.99
938.86	221.99
939.16	222.01
939.46	222.01
939.76	222.02
940.06	222.02
940.35	222.00
940.65	221.95
940.95	221.96
941.25	221.94
941.55	221.93
941.85	221.92
942.15	221.94
942.45	221.97
942.75	221.97
943.04	221.98
943.34	222.00
943.64	221.99
943.94	221.98
944.24	221.98
944.54	221.99
944.84	221.99
945.13	221.97
945.43	221.95
945.73	221.95
946.03	221.94
946.33	221.93
946.62	221.92
946.92	221.92
947.22	221.93
947.52	221.94
947.82	221.95
948.11	221.94
948.41	221.91
948.71	221.89
949.01	221.89
949.31	221.88
949.60	221.87
949.90	221.89
950.20	221.88
950.50	221.88
950.79	221.87
951.09	221.89
951.39	221.89
951.69	221.88
951.98	221.90
952.28	221.91
952.58	221.90
952.87	221.91
953.17	221.92
953.47	221.91
953.76	221.91
954.06	221.89
954.36	221.88
954.66	221.87
954.95	221.90
955.25	221.91
955.55	221.92
955.84	221.91
956.14	221.92
956.44	221.93
956.73	221.91
957.03	221.92
957.32	221.91
957.62	221.91
957.92	221.93
958.21	221.92
958.51	222.03
958.81	222.05
959.10	222.06
959.40	222.08
959.69	222.09
959.99	222.11
960.29	222.11
960.58	222.10
960.88	222.15
961.17	222.13
961.47	222.13
961.76	222.12
962.06	222.14
962.36	222.13
962.65	222.13
962.95	222.14
963.24	222.13
963.54	222.13
963.83	222.14
964.13	222.13
964.42	222.12
964.72	222.03
965.01	222.02
965.31	222.01
965.60	221.98
965.90	222.05
966.19	222.02
966.49	222.03
966.78	222.03
967.08	222.01
967.37	222.01
967.67	222.00
967.96	222.01
968.26	222.00
968.55	222.01
968.85	222.01
969.14	222.00
969.43	222.00
969.73	221.99
970.02	221.98
970.32	221.98
970.61	221.96
970.91	221.93
971.20	221.92
971.49	221.91
971.79	221.92
972.08	221.85
972.38	221.86
972.67	221.84
972.96	221.86
973.26	221.84
973.55	221.87
973.85	221.86
974.14	221.85
974.43	221.86
974.73	221.84
975.02	221.83
975.31	221.83
975.61	221.83
975.90	221.82
976.19	221.81
976.49	221.82
976.78	221.83
977.07	221.83
977.37	221.83
977.66	221.84
977.95	221.83
978.24	221.84
978.54	221.86
978.83	221.85
979.12	221.84
979.42	221.85
979.71	221.82
980.00	221.82
980.29	221.82
980.59	221.81
980.88	221.84
981.17	221.83
981.46	221.83
981.76	221.83
982.05	221.86
982.34	221.87
982.63	221.88
982.93	221.88
983.22	221.90
983.51	221.91
983.80	221.92
984.09	221.94
984.39	221.93
984.68	221.91
984.97	221.92
985.26	221.91
985.55	221.92
985.85	221.90
986.14	221.92
986.43	221.93
986.72	221.92
987.01	221.89
987.30	221.89
987.59	221.89
987.89	221.89
988.18	221.86
988.47	221.85
988.76	221.84
989.05	221.83
989.34	221.82
989.63	221.84
989.92	221.82
990.22	221.81
990.51	221.81
990.80	221.80
991.09	221.81
991.38	221.82
991.67	221.81
991.96	221.81
992.25	221.80
992.54	221.79
992.83	221.79
993.12	221.79
993.41	221.81
993.70	221.84
993.99	221.86
994.28	221.87
994.58	221.89
994.87	221.88
995.16	221.88
995.45	221.87
995.74	221.83
996.03	221.84
996.32	221.86
996.61	221.88
996.90	221.88
997.19	221.87
997.48	221.87
997.77	221.86
998.06	221.86
998.34	221.85
998.63	221.85
998.92	221.86
999.21	221.88
999.50	221.87
999.79	221.84
1000.08	221.83
1000.37	221.83
1000.66	221.82
1000.95	221.84
1001.24	221.85
1001.53	221.86
1001.82	221.85
1002.11	221.83
1002.40	221.84
1002.68	221.86
1002.97	221.94
1003.26	221.93
1003.55	221.91
1003.84	221.92
1004.13	221.96
1004.42	221.95
1004.71	221.95
1004.99	221.94
1005.28	221.96
1005.57	221.95
1005.86	221.94
1006.15	221.93
1006.44	221.92
1006.72	221.93
1007.01	221.91
1007.30	221.91
1007.59	221.90
1007.88	221.91
1008.17	221.91
1008.45	221.89
1008.74	221.84
1009.03	221.79
1009.32	221.79
1009.60	221.79
1009.89	221.78
1010.18	221.74
1010.47	221.73
1010.76	221.73
1011.04	221.73
1011.33	221.72
1011.62	221.73
1011.91	221.74
1012.19	221.75
1012.48	221.75
1012.77	221.75
1013.05	221.79
1013.34	221.79
1013.63	221.79
1013.92	221.79
1014.20	221.79
1014.49	221.80
1014.78	221.81
1015.06	221.78
1015.35	221.78
1015.64	221.80
1015.92	221.82
1016.21	221.83
1016.50	221.83
1016.78	221.84
1017.07	221.85
1017.36	221.83
1017.64	221.82
1017.93	221.82
1018.22	221.81
1018.50	221.81
1018.79	221.80
1019.08	221.77
1019.36	221.77
1019.65	221.76
1019.93	221.79
1020.22	221.81
1020.51	221.86
1020.79	221.85
1021.08	221.68
1021.36	221.68
1021.65	221.78
1021.94	221.69
1022.22	221.90
1022.51	221.61
1022.79	222.28
1023.08	221.90
1023.36	223.06
1023.65	221.55
>>>>>End Processed Spectral Data<<<<<
