SpectraSuite Data File
++++++++++++++++++++++++++++++++++++
Date: Thu Oct 01 02:06:50 EDT 2015
User: lab3
Dark Spectrum Present: No
Reference Spectrum Present: No
Number of Sampled Component Spectra: 1
Spectrometers: USB2E7196
Integration Time (usec): 36000 (USB2E7196)
Spectra Averaged: 10000 (USB2E7196)
Boxcar Smoothing: 10 (USB2E7196)
Correct for Electrical Dark: No (USB2E7196)
Strobe/Lamp Enabled: No (USB2E7196)
Correct for Detector Non-linearity: No (USB2E7196)
Correct for Stray Light: No (USB2E7196)
Number of Pixels in Processed Spectrum: 2048
>>>>>Begin Processed Spectral Data<<<<<
339.09	0.00
339.48	210.51
339.86	212.02
340.24	213.38
340.63	214.78
341.01	217.73
341.39	217.47
341.78	218.94
342.16	220.08
342.54	220.47
342.93	209.09
343.31	219.65
343.69	220.19
344.07	220.65
344.46	221.08
344.84	221.47
345.22	221.70
345.60	221.96
345.99	222.14
346.37	222.28
346.75	222.39
347.13	222.46
347.52	222.53
347.90	222.62
348.28	222.65
348.66	222.71
349.05	222.71
349.43	222.76
349.81	222.82
350.19	222.87
350.57	222.94
350.96	223.02
351.34	223.12
351.72	223.21
352.10	223.32
352.48	223.39
352.87	223.45
353.25	223.52
353.63	223.58
354.01	223.65
354.39	223.73
354.77	223.80
355.15	223.90
355.54	223.96
355.92	224.00
356.30	224.07
356.68	224.20
357.06	224.28
357.44	224.33
357.82	224.40
358.20	224.51
358.58	224.57
358.97	224.63
359.35	224.71
359.73	224.79
360.11	224.85
360.49	224.91
360.87	224.95
361.25	225.01
361.63	225.09
362.01	225.14
362.39	225.17
362.77	225.22
363.15	225.25
363.53	225.28
363.91	225.32
364.29	225.34
364.67	225.26
365.05	225.28
365.43	225.31
365.81	225.34
366.19	225.36
366.57	225.41
366.95	225.41
367.33	225.38
367.71	225.38
368.09	225.39
368.47	225.38
368.85	225.38
369.23	225.38
369.61	225.33
369.99	225.34
370.37	225.34
370.75	225.39
371.13	225.36
371.51	225.32
371.89	225.30
372.27	225.28
372.65	225.25
373.03	225.21
373.41	225.17
373.78	225.12
374.16	225.03
374.54	224.95
374.92	224.90
375.30	224.86
375.68	224.79
376.06	224.75
376.44	224.69
376.82	224.65
377.19	224.60
377.57	224.55
377.95	224.46
378.33	224.40
378.71	224.25
379.09	224.21
379.47	224.17
379.84	224.10
380.22	224.04
380.60	223.97
380.98	223.92
381.36	223.87
381.73	223.80
382.11	223.77
382.49	223.73
382.87	223.67
383.25	223.62
383.62	223.69
384.00	223.62
384.38	223.59
384.76	223.56
385.13	223.55
385.51	223.50
385.89	223.45
386.27	223.42
386.64	223.40
387.02	223.35
387.40	223.30
387.78	223.28
388.15	223.25
388.53	223.22
388.91	223.19
389.29	223.16
389.66	223.15
390.04	223.11
390.42	223.10
390.79	223.09
391.17	223.07
391.55	222.94
391.92	222.92
392.30	222.92
392.68	222.88
393.05	222.86
393.43	222.86
393.81	222.87
394.18	222.85
394.56	222.85
394.94	222.87
395.31	222.87
395.69	222.91
396.06	222.94
396.44	222.96
396.82	222.97
397.19	223.04
397.57	223.05
397.95	223.09
398.32	223.08
398.70	223.12
399.07	223.18
399.45	223.22
399.82	223.26
400.20	223.30
400.58	223.35
400.95	223.36
401.33	223.44
401.70	223.57
402.08	223.67
402.45	223.74
402.83	223.85
403.20	223.95
403.58	224.03
403.95	224.15
404.33	224.28
404.71	224.41
405.08	224.60
405.46	224.74
405.83	224.91
406.21	225.08
406.58	225.27
406.96	225.46
407.33	225.68
407.70	225.92
408.08	226.25
408.45	226.54
408.83	226.85
409.20	227.13
409.58	227.39
409.95	227.73
410.33	228.11
410.70	228.47
411.08	228.88
411.45	229.32
411.82	229.77
412.20	230.28
412.57	230.88
412.95	231.35
413.32	231.98
413.69	232.61
414.07	233.29
414.44	234.02
414.82	234.77
415.19	235.65
415.56	236.54
415.94	237.46
416.31	238.50
416.68	239.54
417.06	240.75
417.43	241.88
417.81	243.19
418.18	244.51
418.55	245.96
418.93	247.47
419.30	249.05
419.67	250.73
420.04	252.45
420.42	254.26
420.79	256.34
421.16	258.44
421.54	260.58
421.91	262.81
422.28	265.13
422.66	267.64
423.03	270.02
423.40	272.52
423.77	275.21
424.15	277.96
424.52	280.82
424.89	283.91
425.26	286.99
425.64	289.85
426.01	293.06
426.38	296.34
426.75	299.72
427.13	303.18
427.50	306.80
427.87	310.56
428.24	314.35
428.61	317.97
428.99	321.88
429.36	326.18
429.73	330.29
430.10	334.37
430.47	338.54
430.85	342.83
431.22	347.40
431.59	352.10
431.96	356.66
432.33	361.73
432.70	366.51
433.08	372.19
433.45	377.55
433.82	382.80
434.19	388.68
434.56	394.45
434.93	400.02
435.30	405.53
435.68	411.73
436.05	417.80
436.42	423.87
436.79	429.39
437.16	435.35
437.53	441.74
437.90	448.12
438.27	454.35
438.64	461.13
439.01	467.25
439.38	472.85
439.75	478.26
440.13	484.44
440.50	490.32
440.87	494.96
441.24	500.06
441.61	505.71
441.98	509.86
442.35	514.79
442.72	519.85
443.09	524.70
443.46	527.85
443.83	530.19
444.20	532.19
444.57	535.09
444.94	536.85
445.31	538.67
445.68	540.31
446.05	541.56
446.42	541.50
446.79	541.33
447.16	541.21
447.53	541.14
447.90	539.41
448.27	537.80
448.64	535.20
449.01	533.50
449.37	529.71
449.74	526.26
450.11	521.81
450.48	516.88
450.85	511.92
451.22	507.72
451.59	503.61
451.96	499.87
452.33	494.35
452.70	489.44
453.07	483.43
453.43	477.40
453.80	471.56
454.17	465.95
454.54	460.75
454.91	454.85
455.28	449.30
455.65	444.07
456.02	438.49
456.38	434.00
456.75	428.18
457.12	423.49
457.49	418.75
457.86	414.22
458.23	410.26
458.59	405.88
458.96	401.36
459.33	397.38
459.70	393.33
460.07	390.24
460.43	386.60
460.80	383.19
461.17	380.18
461.54	376.93
461.91	373.90
462.27	370.82
462.64	368.30
463.01	365.42
463.38	362.50
463.74	359.86
464.11	357.51
464.48	355.38
464.85	353.11
465.21	351.37
465.58	349.46
465.95	347.24
466.32	345.47
466.68	343.74
467.05	342.00
467.42	340.32
467.78	338.50
468.15	336.83
468.52	335.59
468.88	333.96
469.25	332.47
469.62	331.28
469.98	329.99
470.35	328.84
470.72	327.81
471.08	326.76
471.45	325.89
471.82	324.93
472.18	323.94
472.55	323.29
472.92	322.49
473.28	321.86
473.65	321.22
474.02	320.61
474.38	320.11
474.75	319.83
475.11	319.42
475.48	319.26
475.85	319.10
476.21	319.05
476.58	319.06
476.94	319.25
477.31	319.37
477.67	319.52
478.04	319.79
478.41	320.12
478.77	320.58
479.14	320.92
479.50	321.47
479.87	322.16
480.23	322.85
480.60	323.52
480.96	324.22
481.33	325.18
481.69	326.14
482.06	327.09
482.42	327.98
482.79	329.06
483.15	330.29
483.52	331.67
483.88	333.00
484.25	334.42
484.61	335.90
484.98	337.50
485.34	339.28
485.71	341.13
486.07	343.10
486.44	345.06
486.80	347.24
487.17	349.46
487.53	351.92
487.90	354.47
488.26	357.23
488.62	360.14
488.99	363.06
489.35	366.11
489.72	369.40
490.08	372.87
490.44	376.42
490.81	380.14
491.17	383.95
491.54	388.02
491.90	392.19
492.26	396.69
492.63	401.42
492.99	406.34
493.36	411.38
493.72	416.70
494.08	422.15
494.45	427.90
494.81	433.87
495.17	439.95
495.54	446.38
495.90	453.13
496.26	460.00
496.63	467.11
496.99	474.52
497.35	482.27
497.72	490.33
498.08	498.55
498.44	507.03
498.80	516.07
499.17	525.32
499.53	534.92
499.89	544.73
500.26	554.73
500.62	565.00
500.98	575.94
501.34	587.03
501.71	598.66
502.07	610.51
502.43	622.76
502.79	635.34
503.16	648.32
503.52	661.50
503.88	675.04
504.24	689.03
504.60	703.28
504.97	717.94
505.33	732.96
505.69	748.89
506.05	765.01
506.41	781.13
506.78	797.58
507.14	814.49
507.50	832.00
507.86	849.89
508.22	868.05
508.59	886.23
508.95	905.14
509.31	924.48
509.67	944.50
510.03	964.75
510.39	985.21
510.75	1005.90
511.12	1026.90
511.48	1048.22
511.84	1069.62
512.20	1091.34
512.56	1114.15
512.92	1137.20
513.28	1159.95
513.64	1183.02
514.00	1206.51
514.37	1230.31
514.73	1254.14
515.09	1277.79
515.45	1301.88
515.81	1326.52
516.17	1351.22
516.53	1375.58
516.89	1400.03
517.25	1424.66
517.61	1449.47
517.97	1474.51
518.33	1499.28
518.69	1524.18
519.05	1549.34
519.41	1574.64
519.77	1600.21
520.13	1625.01
520.49	1649.96
520.85	1675.13
521.21	1700.22
521.57	1725.90
521.93	1750.88
522.29	1776.71
522.65	1802.25
523.01	1827.58
523.37	1852.17
523.73	1877.41
524.09	1902.82
524.45	1928.15
524.81	1953.00
525.17	1977.75
525.53	2002.07
525.89	2026.42
526.25	2050.98
526.61	2075.00
526.97	2099.31
527.33	2123.55
527.68	2147.60
528.04	2170.81
528.40	2193.89
528.76	2217.17
529.12	2239.40
529.48	2261.98
529.84	2282.74
530.20	2304.07
530.56	2325.05
530.91	2346.11
531.27	2366.66
531.63	2386.57
531.99	2405.93
532.35	2424.97
532.71	2444.12
533.07	2463.85
533.42	2482.08
533.78	2500.68
534.14	2519.23
534.50	2536.94
534.86	2555.28
535.21	2571.77
535.57	2588.23
535.93	2603.94
536.29	2618.44
536.65	2633.78
537.00	2647.98
537.36	2662.71
537.72	2676.38
538.08	2689.77
538.44	2701.99
538.79	2714.38
539.15	2725.13
539.51	2735.83
539.87	2746.16
540.22	2754.38
540.58	2762.71
540.94	2771.57
541.29	2778.93
541.65	2785.31
542.01	2791.17
542.37	2795.17
542.72	2801.12
543.08	2806.50
543.44	2811.73
543.79	2816.13
544.15	2819.64
544.51	2823.14
544.87	2825.78
545.22	2827.96
545.58	2829.13
545.94	2830.79
546.29	2831.02
546.65	2831.38
547.01	2831.79
547.36	2832.33
547.72	2833.01
548.07	2832.19
548.43	2830.74
548.79	2828.67
549.14	2826.64
549.50	2825.23
549.86	2822.92
550.21	2818.15
550.57	2813.85
550.92	2808.19
551.28	2803.14
551.64	2797.98
551.99	2793.22
552.35	2788.03
552.70	2782.43
553.06	2777.61
553.41	2772.29
553.77	2766.38
554.13	2761.14
554.48	2755.00
554.84	2747.18
555.19	2739.54
555.55	2731.33
555.90	2723.69
556.26	2717.05
556.61	2709.76
556.97	2700.29
557.32	2691.73
557.68	2683.61
558.03	2674.81
558.39	2666.68
558.74	2658.74
559.10	2649.58
559.45	2640.08
559.81	2630.89
560.16	2621.04
560.52	2610.70
560.87	2601.38
561.23	2591.70
561.58	2581.54
561.94	2571.11
562.29	2560.17
562.64	2549.85
563.00	2539.87
563.35	2529.76
563.71	2518.73
564.06	2507.17
564.42	2496.67
564.77	2485.79
565.12	2474.99
565.48	2463.96
565.83	2453.61
566.19	2443.21
566.54	2432.46
566.89	2420.79
567.25	2409.06
567.60	2398.20
567.96	2386.91
568.31	2374.21
568.66	2361.44
569.02	2349.71
569.37	2337.76
569.72	2326.36
570.08	2314.20
570.43	2301.55
570.78	2288.57
571.14	2275.37
571.49	2263.00
571.84	2250.90
572.20	2237.49
572.55	2224.47
572.90	2211.34
573.26	2197.27
573.61	2182.66
573.96	2168.32
574.31	2154.34
574.67	2140.62
575.02	2126.46
575.37	2111.85
575.72	2097.54
576.08	2083.85
576.43	2069.10
576.78	2054.39
577.13	2040.52
577.49	2026.67
577.84	2013.18
578.19	1998.85
578.54	1984.17
578.90	1968.96
579.25	1953.49
579.60	1939.45
579.95	1925.04
580.30	1910.66
580.66	1896.56
581.01	1882.09
581.36	1867.98
581.71	1854.44
582.06	1840.38
582.42	1826.36
582.77	1813.12
583.12	1799.54
583.47	1785.99
583.82	1772.56
584.17	1759.04
584.53	1745.33
584.88	1731.63
585.23	1717.58
585.58	1704.05
585.93	1690.95
586.28	1678.70
586.63	1666.25
586.98	1653.09
587.34	1640.15
587.69	1626.72
588.04	1613.51
588.39	1601.01
588.74	1588.02
589.09	1574.74
589.44	1561.46
589.79	1548.75
590.14	1535.87
590.49	1523.19
590.84	1510.39
591.19	1498.25
591.54	1485.60
591.89	1472.80
592.25	1460.36
592.60	1447.51
592.95	1435.22
593.30	1423.23
593.65	1411.01
594.00	1398.98
594.35	1387.76
594.70	1375.74
595.05	1364.79
595.40	1353.69
595.75	1341.95
596.10	1331.00
596.45	1320.27
596.80	1310.00
597.15	1299.51
597.50	1289.06
597.85	1278.79
598.19	1268.72
598.54	1258.04
598.89	1248.10
599.24	1238.48
599.59	1228.59
599.94	1219.75
600.29	1210.78
600.64	1201.58
600.99	1191.82
601.34	1182.53
601.69	1172.62
602.04	1163.80
602.39	1154.80
602.74	1146.04
603.08	1137.53
603.43	1128.54
603.78	1119.44
604.13	1110.49
604.48	1101.47
604.83	1092.72
605.18	1083.88
605.53	1074.97
605.87	1066.18
606.22	1057.67
606.57	1048.89
606.92	1040.21
607.27	1031.39
607.62	1022.67
607.96	1014.12
608.31	1006.54
608.66	998.54
609.01	990.99
609.36	983.38
609.70	975.54
610.05	967.55
610.40	959.92
610.75	952.41
611.10	945.15
611.44	937.50
611.79	930.18
612.14	922.45
612.49	914.89
612.83	907.80
613.18	900.78
613.53	893.53
613.88	886.38
614.22	879.83
614.57	873.10
614.92	866.36
615.27	859.65
615.61	852.80
615.96	846.19
616.31	839.47
616.65	832.66
617.00	826.10
617.35	819.67
617.70	813.27
618.04	806.94
618.39	800.62
618.74	794.64
619.08	788.48
619.43	782.58
619.78	776.70
620.12	770.62
620.47	764.71
620.82	758.90
621.16	753.39
621.51	747.53
621.85	741.67
622.20	735.86
622.55	730.23
622.89	724.55
623.24	718.91
623.59	713.34
623.93	707.82
624.28	702.45
624.62	697.06
624.97	691.65
625.32	686.36
625.66	680.93
626.01	675.49
626.35	670.21
626.70	664.95
627.04	659.88
627.39	654.85
627.73	649.94
628.08	645.26
628.43	640.46
628.77	635.72
629.12	631.13
629.46	626.70
629.81	622.10
630.15	617.36
630.50	612.80
630.84	608.43
631.19	604.24
631.53	600.09
631.88	595.82
632.22	591.65
632.57	587.73
632.91	583.77
633.26	579.88
633.60	576.07
633.95	572.35
634.29	568.51
634.64	564.62
634.98	560.64
635.32	556.81
635.67	553.11
636.01	549.36
636.36	545.64
636.70	542.07
637.05	538.50
637.39	535.13
637.73	531.63
638.08	528.19
638.42	524.72
638.77	521.11
639.11	517.51
639.45	513.96
639.80	510.38
640.14	506.99
640.49	503.57
640.83	500.03
641.17	496.53
641.52	493.21
641.86	489.88
642.20	486.72
642.55	483.41
642.89	480.18
643.23	477.16
643.58	474.36
643.92	471.44
644.26	468.54
644.61	465.64
644.95	462.75
645.29	459.80
645.64	456.83
645.98	453.99
646.32	451.32
646.66	448.66
647.01	445.98
647.35	443.33
647.69	440.58
648.04	437.98
648.38	435.41
648.72	432.79
649.06	430.26
649.41	427.75
649.75	425.23
650.09	422.74
650.43	420.26
650.78	417.75
651.12	415.24
651.46	412.84
651.80	410.52
652.14	408.27
652.49	406.04
652.83	403.87
653.17	401.68
653.51	399.56
653.85	397.49
654.20	395.38
654.54	393.18
654.88	391.18
655.22	389.24
655.56	387.25
655.90	385.36
656.25	383.47
656.59	381.59
656.93	379.81
657.27	378.07
657.61	376.23
657.95	374.45
658.29	372.68
658.64	370.93
658.98	369.17
659.32	367.44
659.66	365.80
660.00	364.19
660.34	362.60
660.68	360.96
661.02	359.25
661.36	357.66
661.70	356.14
662.05	354.60
662.39	353.04
662.73	351.58
663.07	350.13
663.41	348.71
663.75	347.31
664.09	345.91
664.43	344.44
664.77	343.07
665.11	341.63
665.45	340.27
665.79	338.92
666.13	337.55
666.47	336.17
666.81	334.76
667.15	333.32
667.49	331.98
667.83	330.69
668.17	329.44
668.51	328.22
668.85	327.00
669.19	325.87
669.53	324.66
669.87	323.43
670.21	322.22
670.55	321.04
670.89	319.93
671.23	318.79
671.57	317.66
671.91	316.58
672.25	315.57
672.58	314.55
672.92	313.49
673.26	312.50
673.60	311.52
673.94	310.53
674.28	309.60
674.62	308.67
674.96	307.69
675.30	306.78
675.64	305.84
675.97	304.92
676.31	303.95
676.65	303.02
676.99	302.15
677.33	301.23
677.67	300.35
678.01	299.39
678.34	298.50
678.68	297.68
679.02	296.82
679.36	295.96
679.70	295.12
680.04	294.30
680.37	293.47
680.71	292.67
681.05	291.92
681.39	291.14
681.73	290.31
682.06	289.52
682.40	288.75
682.74	288.00
683.08	287.28
683.42	286.54
683.75	285.87
684.09	285.12
684.43	284.42
684.77	283.70
685.10	283.04
685.44	282.35
685.78	281.66
686.12	281.00
686.45	280.34
686.79	279.67
687.13	279.03
687.46	278.36
687.80	277.71
688.14	277.02
688.48	276.39
688.81	275.76
689.15	275.19
689.49	274.56
689.82	273.96
690.16	273.30
690.50	272.70
690.83	272.09
691.17	271.51
691.51	270.94
691.84	270.40
692.18	269.81
692.52	269.23
692.85	268.66
693.19	268.13
693.52	267.59
693.86	267.05
694.20	266.52
694.53	266.01
694.87	265.49
695.21	264.99
695.54	264.49
695.88	263.98
696.21	263.44
696.55	262.95
696.88	262.45
697.22	261.98
697.56	261.50
697.89	260.97
698.23	260.48
698.56	259.97
698.90	259.51
699.23	259.04
699.57	258.60
699.90	258.15
700.24	257.67
700.58	257.22
700.91	256.82
701.25	256.48
701.58	256.10
701.92	255.72
702.25	255.32
702.59	254.91
702.92	254.52
703.26	254.13
703.59	253.74
703.93	253.44
704.26	253.07
704.60	252.70
704.93	252.35
705.26	251.99
705.60	251.68
705.93	251.30
706.27	251.00
706.60	250.68
706.94	250.38
707.27	250.01
707.61	249.67
707.94	249.31
708.27	248.89
708.61	248.51
708.94	248.16
709.28	247.83
709.61	247.52
709.94	247.22
710.28	246.93
710.61	246.65
710.95	246.28
711.28	246.06
711.61	245.78
711.95	245.52
712.28	245.24
712.61	244.95
712.95	244.74
713.28	244.52
713.61	244.24
713.95	243.96
714.28	243.72
714.61	243.47
714.95	243.23
715.28	242.98
715.61	242.73
715.95	242.51
716.28	242.27
716.61	242.06
716.95	241.82
717.28	241.60
717.61	241.37
717.94	241.15
718.28	240.85
718.61	240.64
718.94	240.40
719.27	240.19
719.61	240.00
719.94	239.77
720.27	239.51
720.60	239.31
720.94	239.12
721.27	238.94
721.60	238.77
721.93	238.58
722.27	238.43
722.60	238.27
722.93	238.07
723.26	237.91
723.59	237.71
723.93	237.56
724.26	237.39
724.59	237.22
724.92	237.07
725.25	236.94
725.59	236.77
725.92	236.64
726.25	236.49
726.58	236.34
726.91	236.17
727.24	236.04
727.57	235.89
727.91	235.73
728.24	235.59
728.57	235.44
728.90	235.31
729.23	235.13
729.56	235.03
729.89	234.90
730.22	234.76
730.55	234.62
730.89	234.48
731.22	234.34
731.55	234.21
731.88	234.08
732.21	233.93
732.54	233.81
732.87	233.69
733.20	233.57
733.53	233.46
733.86	233.36
734.19	233.23
734.52	233.13
734.85	233.10
735.18	232.97
735.51	232.88
735.84	232.77
736.17	232.70
736.50	232.54
736.83	232.56
737.16	232.46
737.49	232.37
737.82	232.27
738.15	232.19
738.48	232.10
738.81	232.00
739.14	231.89
739.47	231.79
739.80	231.69
740.13	231.59
740.46	231.48
740.79	231.37
741.12	231.29
741.45	231.18
741.78	231.03
742.11	230.97
742.44	230.85
742.77	230.78
743.10	230.68
743.43	230.58
743.75	230.39
744.08	230.46
744.41	230.37
744.74	230.27
745.07	230.17
745.40	230.11
745.73	230.07
746.06	230.00
746.39	229.93
746.71	229.85
747.04	229.76
747.37	229.69
747.70	229.64
748.03	229.57
748.36	229.51
748.68	229.43
749.01	229.33
749.34	229.27
749.67	229.20
750.00	229.15
750.33	229.16
750.65	229.11
750.98	228.89
751.31	228.82
751.64	228.77
751.97	228.75
752.29	228.68
752.62	228.56
752.95	228.49
753.28	228.41
753.60	228.35
753.93	228.31
754.26	228.25
754.59	228.15
754.91	228.08
755.24	228.01
755.57	227.99
755.90	227.93
756.22	227.86
756.55	227.78
756.88	227.69
757.20	227.56
757.53	227.47
757.86	227.42
758.19	227.37
758.51	227.31
758.84	227.20
759.17	227.14
759.49	227.09
759.82	227.09
760.15	227.06
760.47	227.00
760.80	226.93
761.13	226.89
761.45	226.85
761.78	226.80
762.11	226.76
762.43	226.66
762.76	226.61
763.08	226.58
763.41	226.55
763.74	226.52
764.06	226.47
764.39	226.44
764.71	226.39
765.04	226.34
765.37	226.29
765.69	226.25
766.02	226.21
766.34	226.16
766.67	226.08
767.00	226.06
767.32	226.07
767.65	226.10
767.97	226.05
768.30	226.02
768.62	225.99
768.95	225.93
769.27	225.89
769.60	225.87
769.92	225.82
770.25	225.77
770.57	225.71
770.90	225.68
771.22	225.63
771.55	225.60
771.87	225.58
772.20	225.55
772.52	225.60
772.85	225.69
773.17	225.67
773.50	225.63
773.82	225.58
774.15	225.50
774.47	225.40
774.80	225.36
775.12	225.33
775.45	225.30
775.77	225.28
776.09	225.26
776.42	225.23
776.74	225.24
777.07	225.21
777.39	225.19
777.72	225.15
778.04	225.14
778.36	225.11
778.69	225.09
779.01	225.08
779.33	224.96
779.66	224.82
779.98	224.79
780.31	224.78
780.63	224.80
780.95	224.79
781.28	224.78
781.60	224.75
781.92	224.73
782.25	224.71
782.57	224.69
782.89	224.65
783.22	224.63
783.54	224.59
783.86	224.58
784.19	224.55
784.51	224.56
784.83	224.53
785.16	224.51
785.48	224.49
785.80	224.47
786.12	224.47
786.45	224.45
786.77	224.44
787.09	224.41
787.42	224.36
787.74	224.35
788.06	224.34
788.38	224.32
788.71	224.30
789.03	224.29
789.35	224.28
789.67	224.26
789.99	224.25
790.32	224.22
790.64	224.22
790.96	224.30
791.28	224.25
791.61	224.23
791.93	224.23
792.25	224.20
792.57	224.26
792.89	224.22
793.21	224.22
793.54	224.20
793.86	224.17
794.18	224.16
794.50	224.12
794.82	224.10
795.14	224.11
795.47	224.11
795.79	224.10
796.11	224.06
796.43	224.05
796.75	224.03
797.07	224.03
797.39	224.01
797.71	223.91
798.04	223.91
798.36	223.91
798.68	223.90
799.00	223.89
799.32	223.83
799.64	223.84
799.96	223.82
800.28	223.83
800.60	223.82
800.92	223.82
801.24	223.80
801.56	223.80
801.89	223.78
802.21	223.77
802.53	223.75
802.85	223.76
803.17	223.80
803.49	223.77
803.81	223.75
804.13	223.73
804.45	223.71
804.77	223.71
805.09	223.69
805.41	223.68
805.73	223.65
806.05	223.61
806.37	223.59
806.69	223.58
807.01	223.56
807.33	223.56
807.65	223.51
807.97	223.55
808.28	223.53
808.60	223.52
808.92	223.49
809.24	223.55
809.56	223.53
809.88	223.48
810.20	223.48
810.52	223.50
810.84	223.48
811.16	223.46
811.48	223.44
811.80	223.47
812.12	223.46
812.43	223.48
812.75	223.48
813.07	223.46
813.39	223.46
813.71	223.44
814.03	223.43
814.35	223.43
814.67	223.38
814.98	223.36
815.30	223.35
815.62	223.33
815.94	223.26
816.26	223.27
816.58	223.24
816.89	223.24
817.21	223.21
817.53	223.21
817.85	223.21
818.17	223.21
818.48	223.16
818.80	223.18
819.12	223.16
819.44	223.14
819.76	223.12
820.07	223.12
820.39	223.11
820.71	223.12
821.03	223.11
821.34	223.10
821.66	223.12
821.98	223.13
822.30	223.12
822.61	223.18
822.93	223.16
823.25	223.15
823.57	223.14
823.88	223.15
824.20	223.14
824.52	223.15
824.83	223.14
825.15	223.13
825.47	223.11
825.79	223.12
826.10	223.11
826.42	223.11
826.74	223.11
827.05	223.11
827.37	223.11
827.69	223.09
828.00	223.09
828.32	223.08
828.64	223.07
828.95	223.12
829.27	223.08
829.58	223.08
829.90	223.09
830.22	223.10
830.53	223.08
830.85	223.06
831.17	223.04
831.48	223.03
831.80	223.03
832.11	223.02
832.43	223.01
832.75	223.00
833.06	223.06
833.38	223.03
833.69	223.02
834.01	223.02
834.32	223.01
834.64	223.00
834.96	223.00
835.27	223.00
835.59	222.95
835.90	222.94
836.22	222.93
836.53	222.91
836.85	222.89
837.16	222.99
837.48	222.99
837.79	223.03
838.11	223.02
838.42	223.02
838.74	223.03
839.05	223.03
839.37	223.02
839.68	222.95
840.00	222.95
840.31	222.96
840.63	222.95
840.94	222.94
841.26	222.92
841.57	222.91
841.88	222.92
842.20	222.90
842.51	222.88
842.83	222.88
843.14	222.98
843.46	222.97
843.77	222.91
844.08	222.90
844.40	222.87
844.71	222.85
845.03	222.84
845.34	222.83
845.65	222.82
845.97	222.82
846.28	222.82
846.60	222.83
846.91	222.80
847.22	222.80
847.54	222.82
847.85	222.83
848.16	222.83
848.48	222.80
848.79	222.85
849.10	222.86
849.42	222.87
849.73	222.77
850.04	222.76
850.36	222.72
850.67	222.75
850.98	222.75
851.30	222.76
851.61	222.75
851.92	222.75
852.23	222.78
852.55	222.78
852.86	222.79
853.17	222.80
853.49	222.82
853.80	222.84
854.11	222.84
854.42	222.85
854.74	222.84
855.05	222.85
855.36	222.79
855.67	222.79
855.99	222.79
856.30	222.92
856.61	222.92
856.92	222.92
857.23	222.92
857.55	222.91
857.86	222.90
858.17	222.91
858.48	222.90
858.79	222.87
859.11	222.88
859.42	222.88
859.73	222.86
860.04	222.85
860.35	222.82
860.66	222.79
860.98	222.78
861.29	222.79
861.60	222.78
861.91	222.81
862.22	222.79
862.53	222.77
862.84	222.64
863.16	222.66
863.47	222.64
863.78	222.63
864.09	222.63
864.40	222.64
864.71	222.64
865.02	222.66
865.33	222.64
865.64	222.62
865.95	222.62
866.27	222.68
866.58	222.67
866.89	222.69
867.20	222.69
867.51	222.67
867.82	222.66
868.13	222.69
868.44	222.67
868.75	222.69
869.06	222.69
869.37	222.71
869.68	222.68
869.99	222.70
870.30	222.71
870.61	222.71
870.92	222.70
871.23	222.69
871.54	222.70
871.85	222.72
872.16	222.74
872.47	222.73
872.78	222.67
873.09	222.68
873.40	222.67
873.71	222.68
874.02	222.69
874.33	222.68
874.64	222.65
874.95	222.67
875.26	222.65
875.56	222.65
875.87	222.64
876.18	222.64
876.49	222.73
876.80	222.73
877.11	222.71
877.42	222.71
877.73	222.72
878.04	222.70
878.35	222.69
878.66	222.69
878.96	222.69
879.27	222.68
879.58	222.68
879.89	222.67
880.20	222.70
880.51	222.69
880.82	222.70
881.12	222.71
881.43	222.68
881.74	222.67
882.05	222.66
882.36	222.67
882.67	222.68
882.97	222.57
883.28	222.56
883.59	222.56
883.90	222.57
884.21	222.58
884.51	222.58
884.82	222.56
885.13	222.56
885.44	222.56
885.74	222.56
886.05	222.56
886.36	222.56
886.67	222.52
886.98	222.57
887.28	222.58
887.59	222.58
887.90	222.58
888.20	222.58
888.51	222.60
888.82	222.58
889.13	222.58
889.43	222.67
889.74	222.67
890.05	222.67
890.35	222.65
890.66	222.64
890.97	222.63
891.28	222.62
891.58	222.62
891.89	222.62
892.20	222.61
892.50	222.60
892.81	222.59
893.12	222.59
893.42	222.54
893.73	222.54
894.04	222.54
894.34	222.55
894.65	222.54
894.95	222.54
895.26	222.54
895.57	222.59
895.87	222.49
896.18	222.51
896.48	222.51
896.79	222.51
897.10	222.52
897.40	222.53
897.71	222.54
898.01	222.53
898.32	222.54
898.63	222.54
898.93	222.55
899.24	222.55
899.54	222.55
899.85	222.54
900.15	222.53
900.46	222.53
900.76	222.54
901.07	222.53
901.38	222.52
901.68	222.53
901.99	222.47
902.29	222.48
902.60	222.46
902.90	222.45
903.21	222.45
903.51	222.44
903.82	222.45
904.12	222.45
904.43	222.46
904.73	222.45
905.03	222.45
905.34	222.55
905.64	222.53
905.95	222.53
906.25	222.53
906.56	222.52
906.86	222.53
907.17	222.52
907.47	222.52
907.77	222.51
908.08	222.49
908.38	222.50
908.69	222.51
908.99	222.53
909.30	222.53
909.60	222.53
909.90	222.53
910.21	222.50
910.51	222.49
910.81	222.49
911.12	222.49
911.42	222.49
911.73	222.38
912.03	222.39
912.33	222.42
912.64	222.41
912.94	222.40
913.24	222.39
913.55	222.38
913.85	222.37
914.15	222.39
914.46	222.41
914.76	222.40
915.06	222.39
915.37	222.37
915.67	222.36
915.97	222.36
916.27	222.35
916.58	222.35
916.88	222.35
917.18	222.34
917.49	222.41
917.79	222.40
918.09	222.42
918.39	222.44
918.70	222.43
919.00	222.44
919.30	222.49
919.60	222.48
919.91	222.47
920.21	222.48
920.51	222.45
920.81	222.45
921.12	222.46
921.42	222.46
921.72	222.46
922.02	222.47
922.32	222.48
922.63	222.48
922.93	222.54
923.23	222.55
923.53	222.54
923.83	222.46
924.13	222.47
924.44	222.47
924.74	222.49
925.04	222.51
925.34	222.50
925.64	222.46
925.94	222.45
926.24	222.51
926.55	222.50
926.85	222.52
927.15	222.52
927.45	222.51
927.75	222.51
928.05	222.51
928.35	222.51
928.65	222.52
928.95	222.53
929.26	222.48
929.56	222.50
929.86	222.51
930.16	222.50
930.46	222.49
930.76	222.49
931.06	222.44
931.36	222.41
931.66	222.43
931.96	222.44
932.26	222.45
932.56	222.41
932.86	222.41
933.16	222.41
933.46	222.40
933.76	222.38
934.06	222.40
934.36	222.44
934.66	222.43
934.96	222.42
935.26	222.42
935.56	222.43
935.86	222.40
936.16	222.39
936.46	222.38
936.76	222.38
937.06	222.36
937.36	222.37
937.66	222.37
937.96	222.36
938.26	222.34
938.56	222.34
938.86	222.34
939.16	222.36
939.46	222.37
939.76	222.38
940.06	222.38
940.35	222.36
940.65	222.30
940.95	222.31
941.25	222.29
941.55	222.28
941.85	222.27
942.15	222.29
942.45	222.32
942.75	222.32
943.04	222.33
943.34	222.35
943.64	222.34
943.94	222.32
944.24	222.32
944.54	222.33
944.84	222.33
945.13	222.32
945.43	222.30
945.73	222.30
946.03	222.28
946.33	222.27
946.62	222.26
946.92	222.26
947.22	222.27
947.52	222.28
947.82	222.29
948.11	222.28
948.41	222.26
948.71	222.23
949.01	222.23
949.31	222.23
949.60	222.21
949.90	222.23
950.20	222.23
950.50	222.22
950.79	222.21
951.09	222.23
951.39	222.22
951.69	222.21
951.98	222.23
952.28	222.24
952.58	222.24
952.87	222.24
953.17	222.26
953.47	222.24
953.76	222.24
954.06	222.21
954.36	222.20
954.66	222.20
954.95	222.23
955.25	222.24
955.55	222.25
955.84	222.23
956.14	222.24
956.44	222.25
956.73	222.24
957.03	222.24
957.32	222.24
957.62	222.24
957.92	222.27
958.21	222.25
958.51	222.37
958.81	222.39
959.10	222.40
959.40	222.42
959.69	222.43
959.99	222.44
960.29	222.45
960.58	222.45
960.88	222.49
961.17	222.47
961.47	222.48
961.76	222.46
962.06	222.48
962.36	222.47
962.65	222.48
962.95	222.49
963.24	222.48
963.54	222.48
963.83	222.48
964.13	222.47
964.42	222.46
964.72	222.37
965.01	222.37
965.31	222.37
965.60	222.34
965.90	222.41
966.19	222.38
966.49	222.39
966.78	222.39
967.08	222.38
967.37	222.38
967.67	222.37
967.96	222.39
968.26	222.38
968.55	222.39
968.85	222.39
969.14	222.39
969.43	222.39
969.73	222.38
970.02	222.37
970.32	222.36
970.61	222.35
970.91	222.32
971.20	222.30
971.49	222.29
971.79	222.30
972.08	222.23
972.38	222.24
972.67	222.23
972.96	222.24
973.26	222.22
973.55	222.25
973.85	222.25
974.14	222.24
974.43	222.24
974.73	222.22
975.02	222.21
975.31	222.21
975.61	222.20
975.90	222.20
976.19	222.19
976.49	222.19
976.78	222.20
977.07	222.21
977.37	222.22
977.66	222.23
977.95	222.21
978.24	222.22
978.54	222.24
978.83	222.23
979.12	222.22
979.42	222.22
979.71	222.20
980.00	222.20
980.29	222.20
980.59	222.18
980.88	222.21
981.17	222.21
981.46	222.21
981.76	222.21
982.05	222.24
982.34	222.25
982.63	222.25
982.93	222.25
983.22	222.27
983.51	222.28
983.80	222.29
984.09	222.30
984.39	222.29
984.68	222.27
984.97	222.28
985.26	222.28
985.55	222.28
985.85	222.26
986.14	222.28
986.43	222.29
986.72	222.28
987.01	222.25
987.30	222.25
987.59	222.24
987.89	222.25
988.18	222.21
988.47	222.20
988.76	222.19
989.05	222.18
989.34	222.17
989.63	222.19
989.92	222.18
990.22	222.16
990.51	222.16
990.80	222.16
991.09	222.16
991.38	222.18
991.67	222.17
991.96	222.16
992.25	222.16
992.54	222.14
992.83	222.15
993.12	222.14
993.41	222.16
993.70	222.20
993.99	222.22
994.28	222.23
994.58	222.25
994.87	222.25
995.16	222.24
995.45	222.23
995.74	222.19
996.03	222.21
996.32	222.22
996.61	222.24
996.90	222.24
997.19	222.23
997.48	222.23
997.77	222.23
998.06	222.23
998.34	222.22
998.63	222.23
998.92	222.23
999.21	222.25
999.50	222.25
999.79	222.21
1000.08	222.20
1000.37	222.20
1000.66	222.18
1000.95	222.21
1001.24	222.22
1001.53	222.23
1001.82	222.23
1002.11	222.21
1002.40	222.22
1002.68	222.24
1002.97	222.31
1003.26	222.30
1003.55	222.28
1003.84	222.29
1004.13	222.33
1004.42	222.32
1004.71	222.32
1004.99	222.32
1005.28	222.34
1005.57	222.33
1005.86	222.32
1006.15	222.32
1006.44	222.30
1006.72	222.31
1007.01	222.29
1007.30	222.29
1007.59	222.28
1007.88	222.28
1008.17	222.29
1008.45	222.26
1008.74	222.22
1009.03	222.17
1009.32	222.18
1009.60	222.18
1009.89	222.17
1010.18	222.12
1010.47	222.12
1010.76	222.12
1011.04	222.11
1011.33	222.11
1011.62	222.11
1011.91	222.12
1012.19	222.12
1012.48	222.13
1012.77	222.13
1013.05	222.16
1013.34	222.16
1013.63	222.15
1013.92	222.16
1014.20	222.16
1014.49	222.16
1014.78	222.17
1015.06	222.14
1015.35	222.14
1015.64	222.15
1015.92	222.17
1016.21	222.18
1016.50	222.18
1016.78	222.19
1017.07	222.20
1017.36	222.18
1017.64	222.17
1017.93	222.17
1018.22	222.16
1018.50	222.17
1018.79	222.16
1019.08	222.12
1019.36	222.13
1019.65	222.13
1019.93	222.15
1020.22	222.17
1020.51	222.22
1020.79	222.21
1021.08	222.03
1021.36	222.04
1021.65	222.15
1021.94	222.14
1022.22	222.26
1022.51	222.01
1022.79	222.60
1023.08	222.29
1023.36	223.38
1023.65	221.92
>>>>>End Processed Spectral Data<<<<<
