SpectraSuite Data File
++++++++++++++++++++++++++++++++++++
Date: Thu Oct 01 00:28:32 EDT 2015
User: lab3
Dark Spectrum Present: No
Reference Spectrum Present: No
Number of Sampled Component Spectra: 1
Spectrometers: USB2E7196
Integration Time (usec): 36000 (USB2E7196)
Spectra Averaged: 10000 (USB2E7196)
Boxcar Smoothing: 10 (USB2E7196)
Correct for Electrical Dark: No (USB2E7196)
Strobe/Lamp Enabled: No (USB2E7196)
Correct for Detector Non-linearity: No (USB2E7196)
Correct for Stray Light: No (USB2E7196)
Number of Pixels in Processed Spectrum: 2048
>>>>>Begin Processed Spectral Data<<<<<
339.09	0.00
339.48	209.83
339.86	211.40
340.24	212.75
340.63	214.16
341.01	217.16
341.39	216.86
341.78	218.16
342.16	219.43
342.54	219.89
342.93	208.49
343.31	219.02
343.69	219.56
344.07	220.02
344.46	220.45
344.84	220.83
345.22	221.07
345.60	221.32
345.99	221.52
346.37	221.65
346.75	221.76
347.13	221.84
347.52	221.91
347.90	221.99
348.28	222.02
348.66	222.07
349.05	222.07
349.43	222.12
349.81	222.18
350.19	222.23
350.57	222.29
350.96	222.37
351.34	222.46
351.72	222.55
352.10	222.66
352.48	222.73
352.87	222.79
353.25	222.85
353.63	222.91
354.01	222.97
354.39	223.04
354.77	223.12
355.15	223.22
355.54	223.27
355.92	223.31
356.30	223.38
356.68	223.52
357.06	223.59
357.44	223.64
357.82	223.70
358.20	223.82
358.58	223.88
358.97	223.94
359.35	224.02
359.73	224.11
360.11	224.15
360.49	224.21
360.87	224.26
361.25	224.32
361.63	224.40
362.01	224.46
362.39	224.49
362.77	224.53
363.15	224.56
363.53	224.59
363.91	224.63
364.29	224.65
364.67	224.57
365.05	224.59
365.43	224.62
365.81	224.65
366.19	224.66
366.57	224.71
366.95	224.71
367.33	224.69
367.71	224.68
368.09	224.70
368.47	224.69
368.85	224.68
369.23	224.68
369.61	224.63
369.99	224.64
370.37	224.64
370.75	224.70
371.13	224.67
371.51	224.63
371.89	224.61
372.27	224.58
372.65	224.57
373.03	224.52
373.41	224.48
373.78	224.43
374.16	224.34
374.54	224.26
374.92	224.21
375.30	224.17
375.68	224.11
376.06	224.06
376.44	224.01
376.82	223.97
377.19	223.92
377.57	223.87
377.95	223.79
378.33	223.72
378.71	223.58
379.09	223.53
379.47	223.49
379.84	223.43
380.22	223.37
380.60	223.30
380.98	223.25
381.36	223.19
381.73	223.13
382.11	223.10
382.49	223.06
382.87	223.00
383.25	222.95
383.62	223.03
384.00	222.96
384.38	222.93
384.76	222.90
385.13	222.89
385.51	222.85
385.89	222.79
386.27	222.76
386.64	222.74
387.02	222.69
387.40	222.65
387.78	222.62
388.15	222.59
388.53	222.56
388.91	222.53
389.29	222.49
389.66	222.49
390.04	222.44
390.42	222.44
390.79	222.42
391.17	222.40
391.55	222.26
391.92	222.25
392.30	222.25
392.68	222.21
393.05	222.19
393.43	222.18
393.81	222.19
394.18	222.17
394.56	222.17
394.94	222.19
395.31	222.19
395.69	222.23
396.06	222.25
396.44	222.27
396.82	222.28
397.19	222.36
397.57	222.37
397.95	222.41
398.32	222.41
398.70	222.45
399.07	222.51
399.45	222.54
399.82	222.59
400.20	222.62
400.58	222.68
400.95	222.69
401.33	222.77
401.70	222.90
402.08	222.99
402.45	223.07
402.83	223.17
403.20	223.27
403.58	223.35
403.95	223.48
404.33	223.61
404.71	223.74
405.08	223.91
405.46	224.06
405.83	224.22
406.21	224.39
406.58	224.58
406.96	224.76
407.33	224.98
407.70	225.22
408.08	225.55
408.45	225.83
408.83	226.14
409.20	226.42
409.58	226.68
409.95	227.02
410.33	227.39
410.70	227.74
411.08	228.16
411.45	228.60
411.82	229.04
412.20	229.54
412.57	230.14
412.95	230.62
413.32	231.23
413.69	231.86
414.07	232.54
414.44	233.27
414.82	234.01
415.19	234.88
415.56	235.77
415.94	236.68
416.31	237.71
416.68	238.74
417.06	239.94
417.43	241.06
417.81	242.36
418.18	243.67
418.55	245.12
418.93	246.61
419.30	248.18
419.67	249.85
420.04	251.57
420.42	253.36
420.79	255.43
421.16	257.52
421.54	259.64
421.91	261.86
422.28	264.16
422.66	266.65
423.03	269.02
423.40	271.51
423.77	274.18
424.15	276.91
424.52	279.74
424.89	282.81
425.26	285.87
425.64	288.70
426.01	291.88
426.38	295.15
426.75	298.50
427.13	301.94
427.50	305.53
427.87	309.26
428.24	313.03
428.61	316.63
428.99	320.50
429.36	324.76
429.73	328.83
430.10	332.89
430.47	337.03
430.85	341.29
431.22	345.82
431.59	350.48
431.96	355.01
432.33	360.03
432.70	364.79
433.08	370.42
433.45	375.75
433.82	380.97
434.19	386.80
434.56	392.53
434.93	398.06
435.30	403.52
435.68	409.67
436.05	415.69
436.42	421.72
436.79	427.20
437.16	433.11
437.53	439.44
437.90	445.78
438.27	451.96
438.64	458.67
439.01	464.76
439.38	470.31
439.75	475.68
440.13	481.82
440.50	487.66
440.87	492.26
441.24	497.32
441.61	502.92
441.98	507.04
442.35	511.93
442.72	516.95
443.09	521.77
443.46	524.90
443.83	527.23
444.20	529.22
444.57	532.11
444.94	533.88
445.31	535.69
445.68	537.33
446.05	538.59
446.42	538.54
446.79	538.39
447.16	538.29
447.53	538.24
447.90	536.54
448.27	534.95
448.64	532.37
449.01	530.71
449.37	526.97
449.74	523.56
450.11	519.16
450.48	514.28
450.85	509.37
451.22	505.21
451.59	501.14
451.96	497.44
452.33	491.96
452.70	487.09
453.07	481.14
453.43	475.17
453.80	469.38
454.17	463.83
454.54	458.67
454.91	452.82
455.28	447.32
455.65	442.13
456.02	436.60
456.38	432.15
456.75	426.38
457.12	421.72
457.49	417.02
457.86	412.52
458.23	408.60
458.59	404.25
458.96	399.78
459.33	395.83
459.70	391.80
460.07	388.73
460.43	385.12
460.80	381.73
461.17	378.74
461.54	375.52
461.91	372.51
462.27	369.44
462.64	366.93
463.01	364.07
463.38	361.17
463.74	358.55
464.11	356.22
464.48	354.10
464.85	351.84
465.21	350.11
465.58	348.21
465.95	346.00
466.32	344.23
466.68	342.51
467.05	340.77
467.42	339.11
467.78	337.30
468.15	335.63
468.52	334.39
468.88	332.78
469.25	331.28
469.62	330.10
469.98	328.82
470.35	327.68
470.72	326.65
471.08	325.60
471.45	324.73
471.82	323.77
472.18	322.78
472.55	322.14
472.92	321.34
473.28	320.72
473.65	320.08
474.02	319.47
474.38	318.97
474.75	318.69
475.11	318.27
475.48	318.12
475.85	317.96
476.21	317.90
476.58	317.90
476.94	318.09
477.31	318.21
477.67	318.35
478.04	318.61
478.41	318.94
478.77	319.40
479.14	319.73
479.50	320.29
479.87	320.97
480.23	321.66
480.60	322.32
480.96	323.01
481.33	323.96
481.69	324.91
482.06	325.86
482.42	326.75
482.79	327.82
483.15	329.04
483.52	330.41
483.88	331.74
484.25	333.16
484.61	334.63
484.98	336.21
485.34	337.99
485.71	339.83
486.07	341.79
486.44	343.74
486.80	345.90
487.17	348.12
487.53	350.55
487.90	353.09
488.26	355.84
488.62	358.73
488.99	361.64
489.35	364.68
489.72	367.95
490.08	371.39
490.44	374.93
490.81	378.62
491.17	382.42
491.54	386.47
491.90	390.62
492.26	395.08
492.63	399.78
492.99	404.66
493.36	409.69
493.72	414.97
494.08	420.39
494.45	426.11
494.81	432.06
495.17	438.12
495.54	444.52
495.90	451.23
496.26	458.07
496.63	465.15
496.99	472.51
497.35	480.23
497.72	488.25
498.08	496.44
498.44	504.90
498.80	513.88
499.17	523.09
499.53	532.65
499.89	542.43
500.26	552.38
500.62	562.61
500.98	573.49
501.34	584.53
501.71	596.09
502.07	607.88
502.43	620.04
502.79	632.59
503.16	645.51
503.52	658.63
503.88	672.12
504.24	686.04
504.60	700.25
504.97	714.83
505.33	729.79
505.69	745.64
506.05	761.69
506.41	777.74
506.78	794.12
507.14	810.97
507.50	828.42
507.86	846.25
508.22	864.34
508.59	882.45
508.95	901.29
509.31	920.54
509.67	940.48
510.03	960.67
510.39	981.04
510.75	1001.67
511.12	1022.58
511.48	1043.84
511.84	1065.16
512.20	1086.80
512.56	1109.51
512.92	1132.50
513.28	1155.20
513.64	1178.20
514.00	1201.62
514.37	1225.36
514.73	1249.11
515.09	1272.69
515.45	1296.69
515.81	1321.24
516.17	1345.89
516.53	1370.21
516.89	1394.61
517.25	1419.20
517.61	1443.96
517.97	1468.92
518.33	1493.61
518.69	1518.46
519.05	1543.56
519.41	1568.81
519.77	1594.32
520.13	1619.08
520.49	1643.99
520.85	1669.10
521.21	1694.16
521.57	1719.82
521.93	1744.75
522.29	1770.58
522.65	1796.11
523.01	1821.42
523.37	1846.04
523.73	1871.25
524.09	1896.63
524.45	1921.94
524.81	1946.78
525.17	1971.53
525.53	1995.87
525.89	2020.25
526.25	2044.81
526.61	2068.81
526.97	2093.17
527.33	2117.40
527.68	2141.50
528.04	2164.72
528.40	2187.83
528.76	2211.13
529.12	2233.37
529.48	2255.99
529.84	2276.76
530.20	2298.14
530.56	2319.20
530.91	2340.30
531.27	2360.89
531.63	2380.88
531.99	2400.32
532.35	2419.42
532.71	2438.62
533.07	2458.47
533.42	2476.70
533.78	2495.40
534.14	2514.01
534.50	2531.77
534.86	2550.20
535.21	2566.77
535.57	2583.37
535.93	2599.12
536.29	2613.70
536.65	2629.08
537.00	2643.36
537.36	2658.13
537.72	2671.81
538.08	2685.28
538.44	2697.56
538.79	2710.03
539.15	2720.88
539.51	2731.67
539.87	2742.11
540.22	2750.46
540.58	2758.81
540.94	2767.84
541.29	2775.25
541.65	2781.77
542.01	2787.74
542.37	2791.81
542.72	2797.76
543.08	2803.19
543.44	2808.56
543.79	2813.00
544.15	2816.67
544.51	2820.27
544.87	2823.02
545.22	2825.33
545.58	2826.59
545.94	2828.31
546.29	2828.64
546.65	2829.15
547.01	2829.57
547.36	2830.20
547.72	2830.95
548.07	2830.25
548.43	2828.89
548.79	2826.88
549.14	2824.97
549.50	2823.56
549.86	2821.42
550.21	2816.79
550.57	2812.61
550.92	2807.02
551.28	2802.06
551.64	2796.95
551.99	2792.28
552.35	2787.17
552.70	2781.67
553.06	2776.89
553.41	2771.67
553.77	2765.84
554.13	2760.58
554.48	2754.60
554.84	2746.85
555.19	2739.24
555.55	2731.04
555.90	2723.42
556.26	2716.85
556.61	2709.62
556.97	2700.27
557.32	2691.71
557.68	2683.65
558.03	2674.86
558.39	2666.75
558.74	2658.90
559.10	2649.76
559.45	2640.35
559.81	2631.23
560.16	2621.45
560.52	2611.16
560.87	2601.86
561.23	2592.28
561.58	2582.18
561.94	2571.80
562.29	2560.96
562.64	2550.69
563.00	2540.79
563.35	2530.74
563.71	2519.81
564.06	2508.30
564.42	2497.84
564.77	2487.01
565.12	2476.30
565.48	2465.33
565.83	2455.03
566.19	2444.68
566.54	2434.05
566.89	2422.39
567.25	2410.69
567.60	2399.87
567.96	2388.64
568.31	2376.03
568.66	2363.25
569.02	2351.55
569.37	2339.64
569.72	2328.25
570.08	2316.14
570.43	2303.48
570.78	2290.55
571.14	2277.37
571.49	2265.01
571.84	2252.96
572.20	2239.59
572.55	2226.56
572.90	2213.46
573.26	2199.52
573.61	2184.98
573.96	2170.64
574.31	2156.72
574.67	2143.04
575.02	2128.90
575.37	2114.35
575.72	2100.07
576.08	2086.46
576.43	2071.78
576.78	2057.08
577.13	2043.23
577.49	2029.45
577.84	2016.06
578.19	2001.78
578.54	1987.12
578.90	1971.95
579.25	1956.49
579.60	1942.49
579.95	1928.14
580.30	1913.77
580.66	1899.67
581.01	1885.18
581.36	1871.09
581.71	1857.54
582.06	1843.53
582.42	1829.52
582.77	1816.29
583.12	1802.75
583.47	1789.17
583.82	1775.74
584.17	1762.23
584.53	1748.52
584.88	1734.79
585.23	1720.76
585.58	1707.24
585.93	1694.16
586.28	1681.88
586.63	1669.47
586.98	1656.30
587.34	1643.39
587.69	1629.96
588.04	1616.73
588.39	1604.22
588.74	1591.22
589.09	1577.94
589.44	1564.62
589.79	1551.91
590.14	1539.02
590.49	1526.31
590.84	1513.52
591.19	1501.37
591.54	1488.72
591.89	1475.93
592.25	1463.51
592.60	1450.61
592.95	1438.31
593.30	1426.29
593.65	1414.08
594.00	1402.01
594.35	1390.81
594.70	1378.73
595.05	1367.76
595.40	1356.67
595.75	1344.94
596.10	1333.97
596.45	1323.21
596.80	1312.92
597.15	1302.42
597.50	1291.94
597.85	1281.65
598.19	1271.54
598.54	1260.83
598.89	1250.85
599.24	1241.19
599.59	1231.27
599.94	1222.40
600.29	1213.41
600.64	1204.19
600.99	1194.41
601.34	1185.12
601.69	1175.17
602.04	1166.34
602.39	1157.33
602.74	1148.55
603.08	1140.03
603.43	1131.03
603.78	1121.90
604.13	1112.94
604.48	1103.89
604.83	1095.12
605.18	1086.26
605.53	1077.34
605.87	1068.54
606.22	1060.03
606.57	1051.23
606.92	1042.51
607.27	1033.67
607.62	1024.92
607.96	1016.34
608.31	1008.73
608.66	1000.71
609.01	993.13
609.36	985.50
609.70	977.65
610.05	969.62
610.40	961.94
610.75	954.42
611.10	947.17
611.44	939.50
611.79	932.16
612.14	924.44
612.49	916.84
612.83	909.76
613.18	902.72
613.53	895.48
613.88	888.31
614.22	881.75
614.57	875.02
614.92	868.26
615.27	861.53
615.61	854.67
615.96	848.04
616.31	841.33
616.65	834.50
617.00	827.92
617.35	821.48
617.70	815.06
618.04	808.71
618.39	802.37
618.74	796.38
619.08	790.18
619.43	784.27
619.78	778.39
620.12	772.27
620.47	766.35
620.82	760.48
621.16	754.96
621.51	749.09
621.85	743.21
622.20	737.37
622.55	731.71
622.89	726.03
623.24	720.36
623.59	714.80
623.93	709.26
624.28	703.85
624.62	698.46
624.97	693.03
625.32	687.72
625.66	682.27
626.01	676.83
626.35	671.54
626.70	666.26
627.04	661.16
627.39	656.13
627.73	651.21
628.08	646.51
628.43	641.69
628.77	636.94
629.12	632.32
629.46	627.89
629.81	623.28
630.15	618.54
630.50	613.96
630.84	609.55
631.19	605.34
631.53	601.18
631.88	596.89
632.22	592.72
632.57	588.79
632.91	584.81
633.26	580.92
633.60	577.10
633.95	573.38
634.29	569.52
634.64	565.61
634.98	561.61
635.32	557.78
635.67	554.08
636.01	550.32
636.36	546.59
636.70	543.00
637.05	539.41
637.39	536.03
637.73	532.52
638.08	529.08
638.42	525.61
638.77	521.99
639.11	518.38
639.45	514.81
639.80	511.21
640.14	507.80
640.49	504.36
640.83	500.82
641.17	497.30
641.52	493.96
641.86	490.63
642.20	487.45
642.55	484.13
642.89	480.88
643.23	477.84
643.58	475.04
643.92	472.11
644.26	469.21
644.61	466.30
644.95	463.39
645.29	460.44
645.64	457.45
645.98	454.60
646.32	451.92
646.66	449.24
647.01	446.55
647.35	443.89
647.69	441.14
648.04	438.50
648.38	435.92
648.72	433.29
649.06	430.74
649.41	428.22
649.75	425.69
650.09	423.19
650.43	420.69
650.78	418.17
651.12	415.65
651.46	413.22
651.80	410.89
652.14	408.64
652.49	406.39
652.83	404.21
653.17	402.00
653.51	399.87
653.85	397.81
654.20	395.70
654.54	393.48
654.88	391.47
655.22	389.52
655.56	387.52
655.90	385.62
656.25	383.73
656.59	381.84
656.93	380.05
657.27	378.30
657.61	376.46
657.95	374.67
658.29	372.89
658.64	371.14
658.98	369.37
659.32	367.63
659.66	365.98
660.00	364.36
660.34	362.76
660.68	361.11
661.02	359.39
661.36	357.78
661.70	356.26
662.05	354.71
662.39	353.14
662.73	351.66
663.07	350.22
663.41	348.77
663.75	347.37
664.09	345.97
664.43	344.48
664.77	343.10
665.11	341.65
665.45	340.28
665.79	338.91
666.13	337.54
666.47	336.15
666.81	334.74
667.15	333.29
667.49	331.94
667.83	330.64
668.17	329.39
668.51	328.16
668.85	326.94
669.19	325.79
669.53	324.59
669.87	323.34
670.21	322.14
670.55	320.95
670.89	319.84
671.23	318.68
671.57	317.54
671.91	316.46
672.25	315.45
672.58	314.43
672.92	313.36
673.26	312.37
673.60	311.39
673.94	310.39
674.28	309.46
674.62	308.52
674.96	307.54
675.30	306.63
675.64	305.68
675.97	304.75
676.31	303.79
676.65	302.85
676.99	301.98
677.33	301.04
677.67	300.15
678.01	299.19
678.34	298.30
678.68	297.47
679.02	296.60
679.36	295.74
679.70	294.89
680.04	294.07
680.37	293.24
680.71	292.43
681.05	291.68
681.39	290.89
681.73	290.06
682.06	289.27
682.40	288.49
682.74	287.74
683.08	287.02
683.42	286.27
683.75	285.59
684.09	284.84
684.43	284.14
684.77	283.42
685.10	282.76
685.44	282.07
685.78	281.38
686.12	280.72
686.45	280.05
686.79	279.37
687.13	278.73
687.46	278.06
687.80	277.41
688.14	276.71
688.48	276.08
688.81	275.45
689.15	274.87
689.49	274.24
689.82	273.64
690.16	272.97
690.50	272.37
690.83	271.77
691.17	271.19
691.51	270.62
691.84	270.07
692.18	269.49
692.52	268.89
692.85	268.32
693.19	267.79
693.52	267.24
693.86	266.70
694.20	266.17
694.53	265.66
694.87	265.13
695.21	264.64
695.54	264.14
695.88	263.62
696.21	263.08
696.55	262.58
696.88	262.09
697.22	261.61
697.56	261.13
697.89	260.60
698.23	260.11
698.56	259.59
698.90	259.12
699.23	258.65
699.57	258.21
699.90	257.76
700.24	257.27
700.58	256.84
700.91	256.43
701.25	256.09
701.58	255.72
701.92	255.33
702.25	254.92
702.59	254.51
702.92	254.11
703.26	253.73
703.59	253.33
703.93	253.03
704.26	252.66
704.60	252.28
704.93	251.93
705.26	251.57
705.60	251.25
705.93	250.87
706.27	250.57
706.60	250.25
706.94	249.94
707.27	249.57
707.61	249.22
707.94	248.86
708.27	248.43
708.61	248.05
708.94	247.70
709.28	247.37
709.61	247.05
709.94	246.75
710.28	246.46
710.61	246.18
710.95	245.80
711.28	245.58
711.61	245.30
711.95	245.04
712.28	244.76
712.61	244.46
712.95	244.25
713.28	244.03
713.61	243.75
713.95	243.46
714.28	243.23
714.61	242.96
714.95	242.72
715.28	242.47
715.61	242.22
715.95	242.00
716.28	241.76
716.61	241.54
716.95	241.30
717.28	241.07
717.61	240.83
717.94	240.61
718.28	240.32
718.61	240.10
718.94	239.86
719.27	239.65
719.61	239.46
719.94	239.23
720.27	238.97
720.60	238.77
720.94	238.57
721.27	238.38
721.60	238.22
721.93	238.03
722.27	237.89
722.60	237.72
722.93	237.52
723.26	237.35
723.59	237.15
723.93	236.99
724.26	236.83
724.59	236.66
724.92	236.50
725.25	236.37
725.59	236.21
725.92	236.07
726.25	235.92
726.58	235.76
726.91	235.60
727.24	235.46
727.57	235.31
727.91	235.15
728.24	235.02
728.57	234.86
728.90	234.74
729.23	234.56
729.56	234.46
729.89	234.33
730.22	234.18
730.55	234.05
730.89	233.91
731.22	233.77
731.55	233.63
731.88	233.50
732.21	233.36
732.54	233.23
732.87	233.11
733.20	232.99
733.53	232.88
733.86	232.77
734.19	232.64
734.52	232.54
734.85	232.51
735.18	232.37
735.51	232.28
735.84	232.17
736.17	232.09
736.50	231.93
736.83	231.95
737.16	231.85
737.49	231.76
737.82	231.66
738.15	231.57
738.48	231.48
738.81	231.38
739.14	231.26
739.47	231.16
739.80	231.06
740.13	230.97
740.46	230.86
740.79	230.74
741.12	230.65
741.45	230.54
741.78	230.39
742.11	230.33
742.44	230.22
742.77	230.14
743.10	230.04
743.43	229.95
743.75	229.75
744.08	229.82
744.41	229.73
744.74	229.64
745.07	229.53
745.40	229.47
745.73	229.44
746.06	229.36
746.39	229.31
746.71	229.22
747.04	229.13
747.37	229.06
747.70	229.01
748.03	228.94
748.36	228.89
748.68	228.81
749.01	228.71
749.34	228.64
749.67	228.58
750.00	228.52
750.33	228.54
750.65	228.48
750.98	228.26
751.31	228.20
751.64	228.15
751.97	228.13
752.29	228.06
752.62	227.94
752.95	227.87
753.28	227.78
753.60	227.72
753.93	227.68
754.26	227.63
754.59	227.52
754.91	227.45
755.24	227.37
755.57	227.36
755.90	227.30
756.22	227.23
756.55	227.15
756.88	227.06
757.20	226.93
757.53	226.84
757.86	226.78
758.19	226.74
758.51	226.68
758.84	226.58
759.17	226.51
759.49	226.47
759.82	226.47
760.15	226.43
760.47	226.38
760.80	226.30
761.13	226.27
761.45	226.23
761.78	226.19
762.11	226.15
762.43	226.04
762.76	226.00
763.08	225.96
763.41	225.93
763.74	225.89
764.06	225.85
764.39	225.82
764.71	225.77
765.04	225.72
765.37	225.67
765.69	225.62
766.02	225.58
766.34	225.53
766.67	225.45
767.00	225.43
767.32	225.44
767.65	225.47
767.97	225.42
768.30	225.39
768.62	225.34
768.95	225.29
769.27	225.26
769.60	225.24
769.92	225.18
770.25	225.13
770.57	225.08
770.90	225.04
771.22	225.00
771.55	224.96
771.87	224.94
772.20	224.91
772.52	224.97
772.85	225.06
773.17	225.03
773.50	225.00
773.82	224.95
774.15	224.86
774.47	224.77
774.80	224.73
775.12	224.70
775.45	224.67
775.77	224.64
776.09	224.62
776.42	224.59
776.74	224.60
777.07	224.57
777.39	224.55
777.72	224.51
778.04	224.50
778.36	224.47
778.69	224.44
779.01	224.42
779.33	224.31
779.66	224.16
779.98	224.13
780.31	224.12
780.63	224.14
780.95	224.14
781.28	224.12
781.60	224.09
781.92	224.07
782.25	224.05
782.57	224.03
782.89	224.00
783.22	223.97
783.54	223.92
783.86	223.91
784.19	223.89
784.51	223.90
784.83	223.87
785.16	223.85
785.48	223.83
785.80	223.81
786.12	223.81
786.45	223.79
786.77	223.78
787.09	223.76
787.42	223.70
787.74	223.68
788.06	223.67
788.38	223.65
788.71	223.63
789.03	223.62
789.35	223.62
789.67	223.59
789.99	223.59
790.32	223.56
790.64	223.56
790.96	223.64
791.28	223.59
791.61	223.57
791.93	223.57
792.25	223.54
792.57	223.60
792.89	223.57
793.21	223.56
793.54	223.53
793.86	223.51
794.18	223.49
794.50	223.46
794.82	223.44
795.14	223.44
795.47	223.45
795.79	223.44
796.11	223.40
796.43	223.39
796.75	223.38
797.07	223.37
797.39	223.35
797.71	223.25
798.04	223.24
798.36	223.24
798.68	223.22
799.00	223.22
799.32	223.16
799.64	223.17
799.96	223.15
800.28	223.16
800.60	223.15
800.92	223.15
801.24	223.14
801.56	223.13
801.89	223.11
802.21	223.10
802.53	223.08
802.85	223.09
803.17	223.13
803.49	223.10
803.81	223.08
804.13	223.06
804.45	223.04
804.77	223.04
805.09	223.03
805.41	223.02
805.73	222.99
806.05	222.95
806.37	222.93
806.69	222.91
807.01	222.89
807.33	222.89
807.65	222.84
807.97	222.88
808.28	222.86
808.60	222.85
808.92	222.82
809.24	222.88
809.56	222.85
809.88	222.80
810.20	222.80
810.52	222.82
810.84	222.79
811.16	222.78
811.48	222.76
811.80	222.79
812.12	222.78
812.43	222.80
812.75	222.80
813.07	222.78
813.39	222.78
813.71	222.76
814.03	222.74
814.35	222.75
814.67	222.70
814.98	222.68
815.30	222.67
815.62	222.65
815.94	222.58
816.26	222.59
816.58	222.56
816.89	222.57
817.21	222.54
817.53	222.54
817.85	222.54
818.17	222.54
818.48	222.49
818.80	222.50
819.12	222.47
819.44	222.45
819.76	222.44
820.07	222.43
820.39	222.42
820.71	222.43
821.03	222.42
821.34	222.41
821.66	222.42
821.98	222.43
822.30	222.43
822.61	222.48
822.93	222.46
823.25	222.46
823.57	222.44
823.88	222.45
824.20	222.44
824.52	222.46
824.83	222.45
825.15	222.43
825.47	222.42
825.79	222.43
826.10	222.43
826.42	222.42
826.74	222.43
827.05	222.42
827.37	222.42
827.69	222.41
828.00	222.41
828.32	222.41
828.64	222.39
828.95	222.44
829.27	222.40
829.58	222.40
829.90	222.41
830.22	222.42
830.53	222.39
830.85	222.38
831.17	222.35
831.48	222.34
831.80	222.35
832.11	222.34
832.43	222.32
832.75	222.31
833.06	222.38
833.38	222.34
833.69	222.33
834.01	222.33
834.32	222.33
834.64	222.32
834.96	222.32
835.27	222.31
835.59	222.27
835.90	222.26
836.22	222.25
836.53	222.23
836.85	222.22
837.16	222.33
837.48	222.33
837.79	222.36
838.11	222.36
838.42	222.36
838.74	222.36
839.05	222.36
839.37	222.35
839.68	222.29
840.00	222.29
840.31	222.30
840.63	222.29
840.94	222.28
841.26	222.27
841.57	222.26
841.88	222.27
842.20	222.25
842.51	222.23
842.83	222.24
843.14	222.33
843.46	222.32
843.77	222.26
844.08	222.25
844.40	222.21
844.71	222.20
845.03	222.19
845.34	222.19
845.65	222.18
845.97	222.18
846.28	222.19
846.60	222.19
846.91	222.17
847.22	222.17
847.54	222.19
847.85	222.19
848.16	222.18
848.48	222.16
848.79	222.20
849.10	222.21
849.42	222.21
849.73	222.11
850.04	222.11
850.36	222.07
850.67	222.09
850.98	222.09
851.30	222.09
851.61	222.09
851.92	222.09
852.23	222.12
852.55	222.12
852.86	222.12
853.17	222.13
853.49	222.15
853.80	222.16
854.11	222.16
854.42	222.17
854.74	222.17
855.05	222.17
855.36	222.12
855.67	222.12
855.99	222.12
856.30	222.24
856.61	222.24
856.92	222.24
857.23	222.24
857.55	222.23
857.86	222.22
858.17	222.23
858.48	222.22
858.79	222.19
859.11	222.20
859.42	222.19
859.73	222.18
860.04	222.17
860.35	222.14
860.66	222.11
860.98	222.10
861.29	222.11
861.60	222.11
861.91	222.13
862.22	222.11
862.53	222.09
862.84	221.97
863.16	221.99
863.47	221.97
863.78	221.95
864.09	221.96
864.40	221.97
864.71	221.97
865.02	221.98
865.33	221.97
865.64	221.95
865.95	221.95
866.27	222.01
866.58	222.00
866.89	222.02
867.20	222.02
867.51	222.00
867.82	222.00
868.13	222.03
868.44	222.01
868.75	222.03
869.06	222.03
869.37	222.05
869.68	222.02
869.99	222.03
870.30	222.04
870.61	222.05
870.92	222.04
871.23	222.03
871.54	222.03
871.85	222.06
872.16	222.07
872.47	222.06
872.78	222.00
873.09	222.02
873.40	222.00
873.71	222.01
874.02	222.02
874.33	222.01
874.64	221.98
874.95	222.00
875.26	221.97
875.56	221.97
875.87	221.96
876.18	221.96
876.49	222.06
876.80	222.05
877.11	222.03
877.42	222.03
877.73	222.03
878.04	222.02
878.35	222.01
878.66	222.01
878.96	222.01
879.27	222.00
879.58	221.99
879.89	221.99
880.20	222.02
880.51	222.01
880.82	222.01
881.12	222.02
881.43	222.00
881.74	221.99
882.05	221.98
882.36	221.99
882.67	222.00
882.97	221.88
883.28	221.88
883.59	221.88
883.90	221.88
884.21	221.90
884.51	221.89
884.82	221.88
885.13	221.88
885.44	221.88
885.74	221.88
886.05	221.88
886.36	221.88
886.67	221.84
886.98	221.90
887.28	221.90
887.59	221.90
887.90	221.91
888.20	221.90
888.51	221.92
888.82	221.91
889.13	221.91
889.43	222.01
889.74	222.00
890.05	222.00
890.35	221.99
890.66	221.97
890.97	221.96
891.28	221.96
891.58	221.95
891.89	221.96
892.20	221.94
892.50	221.93
892.81	221.92
893.12	221.92
893.42	221.87
893.73	221.87
894.04	221.87
894.34	221.87
894.65	221.87
894.95	221.86
895.26	221.87
895.57	221.91
895.87	221.81
896.18	221.82
896.48	221.83
896.79	221.83
897.10	221.85
897.40	221.85
897.71	221.86
898.01	221.85
898.32	221.86
898.63	221.86
898.93	221.86
899.24	221.87
899.54	221.86
899.85	221.86
900.15	221.85
900.46	221.85
900.76	221.86
901.07	221.86
901.38	221.85
901.68	221.86
901.99	221.81
902.29	221.82
902.60	221.80
902.90	221.80
903.21	221.79
903.51	221.78
903.82	221.80
904.12	221.80
904.43	221.80
904.73	221.79
905.03	221.80
905.34	221.89
905.64	221.88
905.95	221.88
906.25	221.88
906.56	221.87
906.86	221.87
907.17	221.86
907.47	221.87
907.77	221.86
908.08	221.83
908.38	221.84
908.69	221.84
908.99	221.86
909.30	221.86
909.60	221.87
909.90	221.87
910.21	221.84
910.51	221.82
910.81	221.82
911.12	221.82
911.42	221.82
911.73	221.72
912.03	221.73
912.33	221.75
912.64	221.74
912.94	221.73
913.24	221.72
913.55	221.71
913.85	221.70
914.15	221.72
914.46	221.73
914.76	221.72
915.06	221.72
915.37	221.70
915.67	221.69
915.97	221.69
916.27	221.67
916.58	221.67
916.88	221.67
917.18	221.67
917.49	221.73
917.79	221.73
918.09	221.74
918.39	221.76
918.70	221.75
919.00	221.76
919.30	221.81
919.60	221.80
919.91	221.79
920.21	221.80
920.51	221.78
920.81	221.77
921.12	221.79
921.42	221.78
921.72	221.79
922.02	221.80
922.32	221.81
922.63	221.81
922.93	221.87
923.23	221.88
923.53	221.86
923.83	221.79
924.13	221.81
924.44	221.81
924.74	221.82
925.04	221.85
925.34	221.85
925.64	221.80
925.94	221.81
926.24	221.86
926.55	221.85
926.85	221.87
927.15	221.87
927.45	221.87
927.75	221.87
928.05	221.87
928.35	221.86
928.65	221.87
928.95	221.88
929.26	221.83
929.56	221.85
929.86	221.86
930.16	221.86
930.46	221.84
930.76	221.85
931.06	221.79
931.36	221.77
931.66	221.78
931.96	221.79
932.26	221.80
932.56	221.76
932.86	221.77
933.16	221.77
933.46	221.76
933.76	221.74
934.06	221.76
934.36	221.80
934.66	221.79
934.96	221.77
935.26	221.78
935.56	221.80
935.86	221.77
936.16	221.76
936.46	221.75
936.76	221.75
937.06	221.73
937.36	221.74
937.66	221.74
937.96	221.73
938.26	221.70
938.56	221.70
938.86	221.70
939.16	221.72
939.46	221.73
939.76	221.74
940.06	221.74
940.35	221.72
940.65	221.67
940.95	221.68
941.25	221.65
941.55	221.64
941.85	221.63
942.15	221.66
942.45	221.69
942.75	221.68
943.04	221.69
943.34	221.71
943.64	221.70
943.94	221.69
944.24	221.69
944.54	221.70
944.84	221.70
945.13	221.69
945.43	221.66
945.73	221.66
946.03	221.65
946.33	221.64
946.62	221.63
946.92	221.62
947.22	221.63
947.52	221.64
947.82	221.65
948.11	221.64
948.41	221.62
948.71	221.59
949.01	221.59
949.31	221.58
949.60	221.57
949.90	221.59
950.20	221.58
950.50	221.58
950.79	221.57
951.09	221.59
951.39	221.58
951.69	221.58
951.98	221.60
952.28	221.60
952.58	221.60
952.87	221.60
953.17	221.62
953.47	221.60
953.76	221.60
954.06	221.58
954.36	221.57
954.66	221.57
954.95	221.60
955.25	221.61
955.55	221.62
955.84	221.60
956.14	221.61
956.44	221.61
956.73	221.59
957.03	221.60
957.32	221.60
957.62	221.60
957.92	221.62
958.21	221.60
958.51	221.73
958.81	221.74
959.10	221.75
959.40	221.77
959.69	221.77
959.99	221.79
960.29	221.79
960.58	221.79
960.88	221.83
961.17	221.81
961.47	221.82
961.76	221.81
962.06	221.82
962.36	221.81
962.65	221.82
962.95	221.83
963.24	221.82
963.54	221.82
963.83	221.83
964.13	221.82
964.42	221.81
964.72	221.72
965.01	221.72
965.31	221.71
965.60	221.69
965.90	221.75
966.19	221.73
966.49	221.73
966.78	221.74
967.08	221.72
967.37	221.72
967.67	221.70
967.96	221.72
968.26	221.71
968.55	221.73
968.85	221.72
969.14	221.72
969.43	221.72
969.73	221.71
970.02	221.70
970.32	221.69
970.61	221.67
970.91	221.64
971.20	221.62
971.49	221.61
971.79	221.62
972.08	221.55
972.38	221.56
972.67	221.54
972.96	221.56
973.26	221.54
973.55	221.57
973.85	221.57
974.14	221.56
974.43	221.57
974.73	221.54
975.02	221.53
975.31	221.53
975.61	221.53
975.90	221.52
976.19	221.51
976.49	221.52
976.78	221.53
977.07	221.54
977.37	221.54
977.66	221.56
977.95	221.54
978.24	221.55
978.54	221.57
978.83	221.56
979.12	221.55
979.42	221.56
979.71	221.53
980.00	221.53
980.29	221.54
980.59	221.51
980.88	221.54
981.17	221.54
981.46	221.55
981.76	221.55
982.05	221.58
982.34	221.59
982.63	221.59
982.93	221.59
983.22	221.61
983.51	221.62
983.80	221.63
984.09	221.65
984.39	221.64
984.68	221.63
984.97	221.63
985.26	221.63
985.55	221.63
985.85	221.61
986.14	221.63
986.43	221.64
986.72	221.63
987.01	221.60
987.30	221.59
987.59	221.58
987.89	221.59
988.18	221.55
988.47	221.54
988.76	221.53
989.05	221.52
989.34	221.50
989.63	221.53
989.92	221.51
990.22	221.50
990.51	221.50
990.80	221.49
991.09	221.50
991.38	221.51
991.67	221.50
991.96	221.49
992.25	221.49
992.54	221.47
992.83	221.48
993.12	221.48
993.41	221.50
993.70	221.54
993.99	221.56
994.28	221.57
994.58	221.59
994.87	221.58
995.16	221.58
995.45	221.58
995.74	221.54
996.03	221.55
996.32	221.56
996.61	221.59
996.90	221.58
997.19	221.58
997.48	221.57
997.77	221.57
998.06	221.58
998.34	221.57
998.63	221.57
998.92	221.57
999.21	221.59
999.50	221.59
999.79	221.55
1000.08	221.54
1000.37	221.54
1000.66	221.52
1000.95	221.55
1001.24	221.56
1001.53	221.57
1001.82	221.57
1002.11	221.55
1002.40	221.55
1002.68	221.58
1002.97	221.65
1003.26	221.64
1003.55	221.62
1003.84	221.63
1004.13	221.67
1004.42	221.67
1004.71	221.66
1004.99	221.66
1005.28	221.68
1005.57	221.67
1005.86	221.66
1006.15	221.65
1006.44	221.63
1006.72	221.64
1007.01	221.62
1007.30	221.62
1007.59	221.61
1007.88	221.61
1008.17	221.62
1008.45	221.59
1008.74	221.55
1009.03	221.50
1009.32	221.50
1009.60	221.50
1009.89	221.49
1010.18	221.45
1010.47	221.44
1010.76	221.44
1011.04	221.44
1011.33	221.44
1011.62	221.44
1011.91	221.46
1012.19	221.46
1012.48	221.47
1012.77	221.47
1013.05	221.51
1013.34	221.51
1013.63	221.51
1013.92	221.51
1014.20	221.51
1014.49	221.51
1014.78	221.52
1015.06	221.49
1015.35	221.49
1015.64	221.50
1015.92	221.52
1016.21	221.52
1016.50	221.53
1016.78	221.54
1017.07	221.55
1017.36	221.53
1017.64	221.51
1017.93	221.52
1018.22	221.52
1018.50	221.51
1018.79	221.51
1019.08	221.47
1019.36	221.48
1019.65	221.47
1019.93	221.50
1020.22	221.51
1020.51	221.57
1020.79	221.55
1021.08	221.38
1021.36	221.32
1021.65	221.55
1021.94	221.43
1022.22	221.58
1022.51	221.36
1022.79	222.05
1023.08	221.68
1023.36	222.74
1023.65	221.26
>>>>>End Processed Spectral Data<<<<<
