SpectraSuite Data File
++++++++++++++++++++++++++++++++++++
Date: Thu Oct 01 11:19:47 EDT 2015
User: lab3
Dark Spectrum Present: No
Reference Spectrum Present: No
Number of Sampled Component Spectra: 1
Spectrometers: USB2E7196
Integration Time (usec): 36000 (USB2E7196)
Spectra Averaged: 10000 (USB2E7196)
Boxcar Smoothing: 10 (USB2E7196)
Correct for Electrical Dark: No (USB2E7196)
Strobe/Lamp Enabled: No (USB2E7196)
Correct for Detector Non-linearity: No (USB2E7196)
Correct for Stray Light: No (USB2E7196)
Number of Pixels in Processed Spectrum: 2048
>>>>>Begin Processed Spectral Data<<<<<
339.09	0.00
339.48	211.45
339.86	212.92
340.24	214.30
340.63	215.73
341.01	218.63
341.39	218.39
341.78	219.77
342.16	220.93
342.54	221.48
342.93	209.98
343.31	220.59
343.69	221.13
344.07	221.59
344.46	222.02
344.84	222.41
345.22	222.64
345.60	222.90
345.99	223.09
346.37	223.23
346.75	223.34
347.13	223.42
347.52	223.48
347.90	223.56
348.28	223.60
348.66	223.66
349.05	223.65
349.43	223.70
349.81	223.75
350.19	223.81
350.57	223.88
350.96	223.96
351.34	224.06
351.72	224.15
352.10	224.25
352.48	224.33
352.87	224.38
353.25	224.45
353.63	224.51
354.01	224.58
354.39	224.65
354.77	224.72
355.15	224.83
355.54	224.88
355.92	224.92
356.30	224.99
356.68	225.13
357.06	225.20
357.44	225.25
357.82	225.32
358.20	225.43
358.58	225.49
358.97	225.55
359.35	225.63
359.73	225.71
360.11	225.76
360.49	225.82
360.87	225.87
361.25	225.93
361.63	226.02
362.01	226.06
362.39	226.10
362.77	226.15
363.15	226.17
363.53	226.20
363.91	226.24
364.29	226.26
364.67	226.19
365.05	226.21
365.43	226.25
365.81	226.27
366.19	226.29
366.57	226.34
366.95	226.34
367.33	226.31
367.71	226.31
368.09	226.32
368.47	226.32
368.85	226.31
369.23	226.32
369.61	226.27
369.99	226.28
370.37	226.28
370.75	226.34
371.13	226.30
371.51	226.27
371.89	226.24
372.27	226.22
372.65	226.19
373.03	226.16
373.41	226.11
373.78	226.06
374.16	225.97
374.54	225.89
374.92	225.84
375.30	225.80
375.68	225.73
376.06	225.69
376.44	225.63
376.82	225.59
377.19	225.54
377.57	225.48
377.95	225.40
378.33	225.33
378.71	225.19
379.09	225.14
379.47	225.11
379.84	225.04
380.22	224.98
380.60	224.91
380.98	224.86
381.36	224.81
381.73	224.75
382.11	224.72
382.49	224.67
382.87	224.61
383.25	224.57
383.62	224.64
384.00	224.57
384.38	224.53
384.76	224.51
385.13	224.49
385.51	224.45
385.89	224.40
386.27	224.37
386.64	224.34
387.02	224.30
387.40	224.25
387.78	224.22
388.15	224.20
388.53	224.16
388.91	224.14
389.29	224.10
389.66	224.09
390.04	224.05
390.42	224.05
390.79	224.03
391.17	224.01
391.55	223.88
391.92	223.87
392.30	223.86
392.68	223.83
393.05	223.81
393.43	223.81
393.81	223.81
394.18	223.79
394.56	223.79
394.94	223.82
395.31	223.82
395.69	223.85
396.06	223.88
396.44	223.90
396.82	223.91
397.19	223.99
397.57	224.00
397.95	224.04
398.32	224.04
398.70	224.08
399.07	224.14
399.45	224.17
399.82	224.22
400.20	224.25
400.58	224.31
400.95	224.33
401.33	224.41
401.70	224.54
402.08	224.63
402.45	224.71
402.83	224.82
403.20	224.92
403.58	225.01
403.95	225.14
404.33	225.27
404.71	225.40
405.08	225.58
405.46	225.73
405.83	225.90
406.21	226.08
406.58	226.27
406.96	226.46
407.33	226.69
407.70	226.94
408.08	227.27
408.45	227.57
408.83	227.89
409.20	228.18
409.58	228.44
409.95	228.80
410.33	229.19
410.70	229.55
411.08	229.99
411.45	230.44
411.82	230.90
412.20	231.43
412.57	232.05
412.95	232.55
413.32	233.19
413.69	233.85
414.07	234.55
414.44	235.31
414.82	236.09
415.19	237.00
415.56	237.92
415.94	238.89
416.31	239.97
416.68	241.04
417.06	242.29
417.43	243.47
417.81	244.82
418.18	246.20
418.55	247.71
418.93	249.28
419.30	250.92
419.67	252.67
420.04	254.47
420.42	256.34
420.79	258.50
421.16	260.69
421.54	262.91
421.91	265.23
422.28	267.64
422.66	270.24
423.03	272.72
423.40	275.32
423.77	278.10
424.15	280.96
424.52	283.92
424.89	287.13
425.26	290.33
425.64	293.29
426.01	296.62
426.38	300.02
426.75	303.51
427.13	307.09
427.50	310.82
427.87	314.71
428.24	318.63
428.61	322.39
428.99	326.42
429.36	330.85
429.73	335.08
430.10	339.30
430.47	343.60
430.85	348.02
431.22	352.74
431.59	357.57
431.96	362.28
432.33	367.49
432.70	372.43
433.08	378.27
433.45	383.79
433.82	389.21
434.19	395.28
434.56	401.24
434.93	406.99
435.30	412.67
435.68	419.07
436.05	425.33
436.42	431.59
436.79	437.30
437.16	443.46
437.53	450.07
437.90	456.67
438.27	463.13
438.64	470.16
439.01	476.50
439.38	482.31
439.75	487.92
440.13	494.33
440.50	500.44
440.87	505.27
441.24	510.58
441.61	516.44
441.98	520.75
442.35	525.89
442.72	531.16
443.09	536.21
443.46	539.50
443.83	541.96
444.20	544.06
444.57	547.10
444.94	548.95
445.31	550.87
445.68	552.59
446.05	553.92
446.42	553.87
446.79	553.71
447.16	553.61
447.53	553.55
447.90	551.79
448.27	550.13
448.64	547.43
449.01	545.68
449.37	541.75
449.74	538.19
450.11	533.57
450.48	528.45
450.85	523.31
451.22	518.95
451.59	514.67
451.96	510.79
452.33	505.05
452.70	499.94
453.07	493.68
453.43	487.42
453.80	481.35
454.17	475.51
454.54	470.11
454.91	463.97
455.28	458.20
455.65	452.74
456.02	446.92
456.38	442.23
456.75	436.18
457.12	431.30
457.49	426.36
457.86	421.65
458.23	417.51
458.59	412.94
458.96	408.24
459.33	404.09
459.70	399.86
460.07	396.64
460.43	392.85
460.80	389.30
461.17	386.16
461.54	382.79
461.91	379.63
462.27	376.42
462.64	373.80
463.01	370.79
463.38	367.76
463.74	365.04
464.11	362.60
464.48	360.40
464.85	358.05
465.21	356.24
465.58	354.25
465.95	351.96
466.32	350.14
466.68	348.34
467.05	346.55
467.42	344.81
467.78	342.94
468.15	341.22
468.52	339.94
468.88	338.27
469.25	336.73
469.62	335.52
469.98	334.20
470.35	333.02
470.72	331.97
471.08	330.91
471.45	330.03
471.82	329.05
472.18	328.03
472.55	327.37
472.92	326.56
473.28	325.93
473.65	325.27
474.02	324.67
474.38	324.17
474.75	323.89
475.11	323.48
475.48	323.34
475.85	323.18
476.21	323.15
476.58	323.16
476.94	323.36
477.31	323.50
477.67	323.67
478.04	323.96
478.41	324.31
478.77	324.78
479.14	325.13
479.50	325.71
479.87	326.43
480.23	327.15
480.60	327.83
480.96	328.56
481.33	329.55
481.69	330.53
482.06	331.50
482.42	332.42
482.79	333.52
483.15	334.79
483.52	336.20
483.88	337.57
484.25	339.02
484.61	340.52
484.98	342.15
485.34	343.97
485.71	345.86
486.07	347.89
486.44	349.89
486.80	352.12
487.17	354.40
487.53	356.91
487.90	359.52
488.26	362.35
488.62	365.33
488.99	368.31
489.35	371.43
489.72	374.81
490.08	378.36
490.44	382.00
490.81	385.80
491.17	389.70
491.54	393.86
491.90	398.13
492.26	402.75
492.63	407.59
492.99	412.63
493.36	417.78
493.72	423.20
494.08	428.78
494.45	434.66
494.81	440.76
495.17	446.99
495.54	453.57
495.90	460.47
496.26	467.50
496.63	474.79
496.99	482.38
497.35	490.33
497.72	498.57
498.08	506.97
498.44	515.66
498.80	524.90
499.17	534.37
499.53	544.17
499.89	554.19
500.26	564.41
500.62	574.91
500.98	586.11
501.34	597.46
501.71	609.36
502.07	621.48
502.43	634.02
502.79	646.86
503.16	660.13
503.52	673.59
503.88	687.45
504.24	701.71
504.60	716.25
504.97	731.20
505.33	746.55
505.69	762.85
506.05	779.31
506.41	795.77
506.78	812.55
507.14	829.82
507.50	847.69
507.86	865.95
508.22	884.50
508.59	903.08
508.95	922.35
509.31	942.08
509.67	962.54
510.03	983.18
510.39	1004.04
510.75	1025.15
511.12	1046.57
511.48	1068.25
511.84	1090.07
512.20	1112.23
512.56	1135.50
512.92	1158.89
513.28	1181.98
513.64	1205.43
514.00	1229.30
514.37	1253.47
514.73	1277.71
515.09	1301.72
515.45	1326.18
515.81	1351.19
516.17	1376.21
516.53	1400.90
516.89	1425.65
517.25	1450.58
517.61	1475.72
517.97	1501.07
518.33	1526.13
518.69	1551.30
519.05	1576.76
519.41	1602.34
519.77	1628.15
520.13	1653.14
520.49	1678.33
520.85	1703.77
521.21	1729.06
521.57	1754.93
521.93	1780.09
522.29	1806.03
522.65	1831.72
523.01	1857.17
523.37	1881.84
523.73	1907.18
524.09	1932.72
524.45	1958.17
524.81	1983.09
525.17	2007.92
525.53	2032.26
525.89	2056.61
526.25	2081.18
526.61	2105.23
526.97	2129.50
527.33	2153.74
527.68	2177.77
528.04	2201.02
528.40	2224.03
528.76	2247.24
529.12	2269.38
529.48	2291.87
529.84	2312.52
530.20	2333.73
530.56	2354.55
530.91	2375.47
531.27	2395.92
531.63	2415.62
531.99	2434.77
532.35	2453.60
532.71	2472.52
533.07	2491.97
533.42	2509.97
533.78	2528.31
534.14	2546.66
534.50	2564.14
534.86	2582.19
535.21	2598.36
535.57	2614.37
535.93	2629.81
536.29	2643.99
536.65	2659.08
537.00	2673.03
537.36	2687.49
537.72	2700.91
538.08	2713.87
538.44	2725.76
538.79	2737.73
539.15	2748.11
539.51	2758.43
539.87	2768.38
540.22	2776.16
540.58	2784.17
540.94	2792.60
541.29	2799.58
541.65	2805.48
542.01	2810.92
542.37	2814.54
542.72	2820.19
543.08	2825.25
543.44	2830.06
543.79	2834.14
544.15	2837.15
544.51	2840.21
544.87	2842.35
545.22	2844.13
545.58	2845.05
545.94	2846.41
546.29	2846.29
546.65	2846.19
547.01	2846.26
547.36	2846.38
547.72	2846.67
548.07	2845.45
548.43	2843.60
548.79	2841.12
549.14	2838.65
549.50	2836.96
549.86	2834.16
550.21	2829.01
550.57	2824.30
550.92	2818.22
551.28	2812.77
551.64	2807.34
551.99	2802.18
552.35	2796.64
552.70	2790.62
553.06	2785.35
553.41	2779.57
553.77	2773.25
554.13	2767.77
554.48	2761.16
554.84	2753.00
555.19	2745.04
555.55	2736.56
555.90	2728.68
556.26	2721.73
556.61	2714.13
556.97	2704.24
557.32	2695.40
557.68	2686.87
558.03	2677.80
558.39	2669.47
558.74	2661.09
559.10	2651.57
559.45	2641.66
559.81	2632.16
560.16	2621.96
560.52	2611.38
560.87	2601.83
561.23	2591.80
561.58	2581.24
561.94	2570.50
562.29	2559.24
562.64	2548.62
563.00	2538.30
563.35	2527.89
563.71	2516.57
564.06	2504.75
564.42	2493.95
564.77	2482.78
565.12	2471.72
565.48	2460.41
565.83	2449.71
566.19	2439.10
566.54	2427.95
566.89	2416.07
567.25	2404.10
567.60	2392.96
567.96	2381.40
568.31	2368.34
568.66	2355.38
569.02	2343.47
569.37	2331.25
569.72	2319.59
570.08	2307.22
570.43	2294.34
570.78	2281.07
571.14	2267.61
571.49	2254.99
571.84	2242.65
572.20	2229.05
572.55	2215.82
572.90	2202.47
573.26	2188.10
573.61	2173.22
573.96	2158.79
574.31	2144.66
574.67	2130.69
575.02	2116.34
575.37	2101.49
575.72	2086.97
576.08	2073.02
576.43	2058.05
576.78	2043.23
577.13	2029.24
577.49	2015.13
577.84	2001.43
578.19	1986.90
578.54	1972.10
578.90	1956.74
579.25	1941.15
579.60	1926.92
579.95	1912.30
580.30	1897.75
580.66	1883.56
581.01	1869.01
581.36	1854.73
581.71	1841.06
582.06	1826.86
582.42	1812.78
582.77	1799.45
583.12	1785.72
583.47	1772.11
583.82	1758.62
584.17	1745.04
584.53	1731.24
584.88	1717.51
585.23	1703.35
585.58	1689.76
585.93	1676.60
586.28	1664.31
586.63	1651.75
586.98	1638.54
587.34	1625.55
587.69	1612.08
588.04	1598.93
588.39	1586.38
588.74	1573.37
589.09	1560.07
589.44	1546.80
589.79	1534.03
590.14	1521.18
590.49	1508.58
590.84	1495.80
591.19	1483.64
591.54	1470.95
591.89	1458.18
592.25	1445.70
592.60	1432.95
592.95	1420.71
593.30	1408.77
593.65	1396.54
594.00	1384.61
594.35	1373.39
594.70	1361.48
595.05	1350.60
595.40	1339.44
595.75	1327.74
596.10	1316.86
596.45	1306.20
596.80	1296.01
597.15	1285.61
597.50	1275.19
597.85	1264.96
598.19	1254.93
598.54	1244.31
598.89	1234.47
599.24	1224.90
599.59	1215.15
599.94	1206.38
600.29	1197.49
600.64	1188.33
600.99	1178.62
601.34	1169.36
601.69	1159.56
602.04	1150.79
602.39	1141.83
602.74	1133.14
603.08	1124.70
603.43	1115.74
603.78	1106.75
604.13	1097.86
604.48	1088.92
604.83	1080.24
605.18	1071.47
605.53	1062.62
605.87	1053.93
606.22	1045.46
606.57	1036.75
606.92	1028.16
607.27	1019.40
607.62	1010.77
607.96	1002.30
608.31	994.84
608.66	986.94
609.01	979.45
609.36	971.91
609.70	964.15
610.05	956.24
610.40	948.68
610.75	941.22
611.10	934.01
611.44	926.44
611.79	919.14
612.14	911.48
612.49	904.00
612.83	896.97
613.18	889.97
613.53	882.79
613.88	875.72
614.22	869.20
614.57	862.49
614.92	855.80
615.27	849.15
615.61	842.36
615.96	835.77
616.31	829.13
616.65	822.38
617.00	815.86
617.35	809.52
617.70	803.18
618.04	796.93
618.39	790.66
618.74	784.74
619.08	778.67
619.43	772.84
619.78	767.00
620.12	761.00
620.47	755.17
620.82	749.45
621.16	744.01
621.51	738.21
621.85	732.42
622.20	726.69
622.55	721.14
622.89	715.51
623.24	709.95
623.59	704.44
623.93	699.01
624.28	693.72
624.62	688.40
624.97	683.06
625.32	677.84
625.66	672.48
626.01	667.11
626.35	661.87
626.70	656.69
627.04	651.72
627.39	646.79
627.73	641.97
628.08	637.35
628.43	632.61
628.77	627.93
629.12	623.40
629.46	619.01
629.81	614.42
630.15	609.77
630.50	605.27
630.84	600.99
631.19	596.86
631.53	592.75
631.88	588.56
632.22	584.45
632.57	580.59
632.91	576.66
633.26	572.83
633.60	569.06
633.95	565.37
634.29	561.55
634.64	557.70
634.98	553.79
635.32	550.02
635.67	546.37
636.01	542.69
636.36	539.04
636.70	535.53
637.05	532.04
637.39	528.75
637.73	525.31
638.08	521.91
638.42	518.48
638.77	514.95
639.11	511.41
639.45	507.93
639.80	504.43
640.14	501.13
640.49	497.77
640.83	494.28
641.17	490.88
641.52	487.62
641.86	484.35
642.20	481.24
642.55	477.99
642.89	474.83
643.23	471.86
643.58	469.10
643.92	466.24
644.26	463.39
644.61	460.53
644.95	457.68
645.29	454.79
645.64	451.88
645.98	449.10
646.32	446.50
646.66	443.88
647.01	441.24
647.35	438.64
647.69	435.94
648.04	433.43
648.38	430.93
648.72	428.39
649.06	425.93
649.41	423.46
649.75	421.01
650.09	418.58
650.43	416.16
650.78	413.71
651.12	411.26
651.46	408.91
651.80	406.65
652.14	404.47
652.49	402.29
652.83	400.17
653.17	398.03
653.51	395.95
653.85	393.93
654.20	391.87
654.54	389.73
654.88	387.78
655.22	385.87
655.56	383.91
655.90	382.05
656.25	380.20
656.59	378.37
656.93	376.63
657.27	374.93
657.61	373.12
657.95	371.38
658.29	369.66
658.64	367.95
658.98	366.23
659.32	364.53
659.66	362.95
660.00	361.36
660.34	359.82
660.68	358.21
661.02	356.54
661.36	354.99
661.70	353.50
662.05	351.98
662.39	350.45
662.73	349.03
663.07	347.62
663.41	346.24
663.75	344.87
664.09	343.50
664.43	342.05
664.77	340.71
665.11	339.31
665.45	337.99
665.79	336.66
666.13	335.32
666.47	333.97
666.81	332.60
667.15	331.20
667.49	329.89
667.83	328.64
668.17	327.42
668.51	326.23
668.85	325.05
669.19	323.93
669.53	322.76
669.87	321.55
670.21	320.38
670.55	319.22
670.89	318.14
671.23	317.03
671.57	315.94
671.91	314.89
672.25	313.90
672.58	312.89
672.92	311.86
673.26	310.90
673.60	309.94
673.94	308.96
674.28	308.05
674.62	307.14
674.96	306.18
675.30	305.28
675.64	304.36
675.97	303.46
676.31	302.53
676.65	301.62
676.99	300.77
677.33	299.87
677.67	299.01
678.01	298.07
678.34	297.20
678.68	296.40
679.02	295.56
679.36	294.72
679.70	293.90
680.04	293.10
680.37	292.29
680.71	291.52
681.05	290.79
681.39	290.01
681.73	289.20
682.06	288.43
682.40	287.68
682.74	286.96
683.08	286.26
683.42	285.53
683.75	284.88
684.09	284.14
684.43	283.45
684.77	282.75
685.10	282.11
685.44	281.44
685.78	280.76
686.12	280.12
686.45	279.47
686.79	278.82
687.13	278.19
687.46	277.53
687.80	276.90
688.14	276.23
688.48	275.62
688.81	275.01
689.15	274.44
689.49	273.83
689.82	273.24
690.16	272.59
690.50	272.01
690.83	271.43
691.17	270.86
691.51	270.31
691.84	269.77
692.18	269.20
692.52	268.62
692.85	268.07
693.19	267.55
693.52	267.02
693.86	266.50
694.20	265.98
694.53	265.49
694.87	264.98
695.21	264.50
695.54	264.01
695.88	263.52
696.21	262.99
696.55	262.51
696.88	262.04
697.22	261.57
697.56	261.11
697.89	260.59
698.23	260.12
698.56	259.62
698.90	259.18
699.23	258.72
699.57	258.29
699.90	257.86
700.24	257.39
700.58	256.97
700.91	256.57
701.25	256.25
701.58	255.88
701.92	255.51
702.25	255.12
702.59	254.71
702.92	254.34
703.26	253.96
703.59	253.59
703.93	253.29
704.26	252.94
704.60	252.58
704.93	252.25
705.26	251.90
705.60	251.59
705.93	251.23
706.27	250.94
706.60	250.62
706.94	250.33
707.27	249.98
707.61	249.64
707.94	249.29
708.27	248.88
708.61	248.53
708.94	248.19
709.28	247.88
709.61	247.58
709.94	247.29
710.28	247.01
710.61	246.74
710.95	246.38
711.28	246.17
711.61	245.89
711.95	245.65
712.28	245.38
712.61	245.10
712.95	244.90
713.28	244.68
713.61	244.42
713.95	244.14
714.28	243.92
714.61	243.67
714.95	243.44
715.28	243.20
715.61	242.97
715.95	242.75
716.28	242.52
716.61	242.32
716.95	242.08
717.28	241.87
717.61	241.64
717.94	241.43
718.28	241.15
718.61	240.94
718.94	240.71
719.27	240.51
719.61	240.33
719.94	240.11
720.27	239.86
720.60	239.67
720.94	239.48
721.27	239.31
721.60	239.15
721.93	238.96
722.27	238.82
722.60	238.67
722.93	238.48
723.26	238.31
723.59	238.13
723.93	237.97
724.26	237.82
724.59	237.66
724.92	237.51
725.25	237.39
725.59	237.24
725.92	237.11
726.25	236.97
726.58	236.82
726.91	236.66
727.24	236.53
727.57	236.39
727.91	236.23
728.24	236.10
728.57	235.95
728.90	235.83
729.23	235.66
729.56	235.57
729.89	235.44
730.22	235.30
730.55	235.17
730.89	235.03
731.22	234.90
731.55	234.77
731.88	234.64
732.21	234.50
732.54	234.38
732.87	234.26
733.20	234.15
733.53	234.04
733.86	233.94
734.19	233.81
734.52	233.72
734.85	233.68
735.18	233.56
735.51	233.48
735.84	233.37
736.17	233.30
736.50	233.15
736.83	233.17
737.16	233.08
737.49	232.99
737.82	232.89
738.15	232.81
738.48	232.72
738.81	232.62
739.14	232.52
739.47	232.42
739.80	232.33
740.13	232.24
740.46	232.14
740.79	232.03
741.12	231.94
741.45	231.84
741.78	231.69
742.11	231.64
742.44	231.53
742.77	231.45
743.10	231.35
743.43	231.26
743.75	231.07
744.08	231.14
744.41	231.05
744.74	230.97
745.07	230.86
745.40	230.80
745.73	230.77
746.06	230.70
746.39	230.64
746.71	230.56
747.04	230.47
747.37	230.40
747.70	230.35
748.03	230.28
748.36	230.23
748.68	230.16
749.01	230.05
749.34	229.99
749.67	229.92
750.00	229.87
750.33	229.89
750.65	229.83
750.98	229.62
751.31	229.56
751.64	229.51
751.97	229.50
752.29	229.43
752.62	229.32
752.95	229.25
753.28	229.17
753.60	229.11
753.93	229.07
754.26	229.02
754.59	228.92
754.91	228.85
755.24	228.78
755.57	228.77
755.90	228.71
756.22	228.64
756.55	228.57
756.88	228.49
757.20	228.36
757.53	228.28
757.86	228.22
758.19	228.17
758.51	228.12
758.84	228.01
759.17	227.95
759.49	227.91
759.82	227.91
760.15	227.87
760.47	227.82
760.80	227.74
761.13	227.71
761.45	227.67
761.78	227.63
762.11	227.58
762.43	227.48
762.76	227.44
763.08	227.41
763.41	227.37
763.74	227.33
764.06	227.29
764.39	227.26
764.71	227.21
765.04	227.16
765.37	227.11
765.69	227.07
766.02	227.03
766.34	226.98
766.67	226.90
767.00	226.88
767.32	226.90
767.65	226.93
767.97	226.88
768.30	226.85
768.62	226.81
768.95	226.76
769.27	226.73
769.60	226.70
769.92	226.65
770.25	226.60
770.57	226.55
770.90	226.51
771.22	226.47
771.55	226.43
771.87	226.41
772.20	226.38
772.52	226.43
772.85	226.52
773.17	226.50
773.50	226.46
773.82	226.41
774.15	226.33
774.47	226.23
774.80	226.19
775.12	226.16
775.45	226.13
775.77	226.11
776.09	226.09
776.42	226.07
776.74	226.07
777.07	226.05
777.39	226.03
777.72	226.00
778.04	225.99
778.36	225.96
778.69	225.94
779.01	225.92
779.33	225.81
779.66	225.67
779.98	225.64
780.31	225.63
780.63	225.65
780.95	225.64
781.28	225.62
781.60	225.59
781.92	225.57
782.25	225.55
782.57	225.53
782.89	225.51
783.22	225.48
783.54	225.43
783.86	225.42
784.19	225.40
784.51	225.41
784.83	225.38
785.16	225.36
785.48	225.35
785.80	225.33
786.12	225.32
786.45	225.30
786.77	225.29
787.09	225.27
787.42	225.22
787.74	225.20
788.06	225.19
788.38	225.18
788.71	225.15
789.03	225.14
789.35	225.14
789.67	225.11
789.99	225.11
790.32	225.08
790.64	225.08
790.96	225.16
791.28	225.11
791.61	225.10
791.93	225.09
792.25	225.07
792.57	225.13
792.89	225.10
793.21	225.09
793.54	225.07
793.86	225.05
794.18	225.04
794.50	225.01
794.82	225.00
795.14	225.00
795.47	225.01
795.79	225.00
796.11	224.96
796.43	224.95
796.75	224.93
797.07	224.93
797.39	224.91
797.71	224.82
798.04	224.81
798.36	224.80
798.68	224.79
799.00	224.79
799.32	224.72
799.64	224.73
799.96	224.72
800.28	224.73
800.60	224.71
800.92	224.71
801.24	224.70
801.56	224.69
801.89	224.67
802.21	224.66
802.53	224.64
802.85	224.65
803.17	224.69
803.49	224.66
803.81	224.63
804.13	224.62
804.45	224.60
804.77	224.59
805.09	224.58
805.41	224.56
805.73	224.53
806.05	224.50
806.37	224.48
806.69	224.46
807.01	224.44
807.33	224.43
807.65	224.39
807.97	224.43
808.28	224.41
808.60	224.40
808.92	224.37
809.24	224.43
809.56	224.40
809.88	224.36
810.20	224.36
810.52	224.37
810.84	224.35
811.16	224.34
811.48	224.32
811.80	224.35
812.12	224.34
812.43	224.36
812.75	224.36
813.07	224.34
813.39	224.34
813.71	224.33
814.03	224.31
814.35	224.31
814.67	224.26
814.98	224.25
815.30	224.24
815.62	224.22
815.94	224.14
816.26	224.15
816.58	224.13
816.89	224.13
817.21	224.10
817.53	224.11
817.85	224.10
818.17	224.10
818.48	224.05
818.80	224.07
819.12	224.05
819.44	224.02
819.76	224.01
820.07	224.00
820.39	224.00
820.71	224.00
821.03	224.00
821.34	223.99
821.66	224.00
821.98	224.00
822.30	224.00
822.61	224.06
822.93	224.03
823.25	224.03
823.57	224.01
823.88	224.03
824.20	224.02
824.52	224.04
824.83	224.03
825.15	224.02
825.47	224.00
825.79	224.01
826.10	224.01
826.42	224.00
826.74	224.01
827.05	224.00
827.37	223.99
827.69	223.98
828.00	223.99
828.32	223.98
828.64	223.96
828.95	224.02
829.27	223.98
829.58	223.98
829.90	223.99
830.22	224.00
830.53	223.97
830.85	223.96
831.17	223.93
831.48	223.92
831.80	223.92
832.11	223.91
832.43	223.89
832.75	223.89
833.06	223.95
833.38	223.92
833.69	223.91
834.01	223.91
834.32	223.91
834.64	223.89
834.96	223.89
835.27	223.88
835.59	223.84
835.90	223.82
836.22	223.81
836.53	223.79
836.85	223.77
837.16	223.88
837.48	223.88
837.79	223.91
838.11	223.91
838.42	223.91
838.74	223.92
839.05	223.91
839.37	223.91
839.68	223.84
840.00	223.84
840.31	223.86
840.63	223.84
840.94	223.84
841.26	223.83
841.57	223.82
841.88	223.83
842.20	223.82
842.51	223.80
842.83	223.80
843.14	223.89
843.46	223.89
843.77	223.82
844.08	223.82
844.40	223.78
844.71	223.77
845.03	223.76
845.34	223.74
845.65	223.74
845.97	223.74
846.28	223.74
846.60	223.74
846.91	223.72
847.22	223.72
847.54	223.74
847.85	223.74
848.16	223.73
848.48	223.72
848.79	223.76
849.10	223.77
849.42	223.78
849.73	223.68
850.04	223.68
850.36	223.65
850.67	223.66
850.98	223.66
851.30	223.67
851.61	223.67
851.92	223.67
852.23	223.70
852.55	223.71
852.86	223.71
853.17	223.71
853.49	223.74
853.80	223.76
854.11	223.76
854.42	223.77
854.74	223.76
855.05	223.76
855.36	223.70
855.67	223.70
855.99	223.69
856.30	223.81
856.61	223.81
856.92	223.81
857.23	223.82
857.55	223.80
857.86	223.79
858.17	223.81
858.48	223.79
858.79	223.76
859.11	223.77
859.42	223.76
859.73	223.75
860.04	223.74
860.35	223.71
860.66	223.68
860.98	223.67
861.29	223.68
861.60	223.67
861.91	223.70
862.22	223.69
862.53	223.67
862.84	223.55
863.16	223.57
863.47	223.55
863.78	223.54
864.09	223.54
864.40	223.55
864.71	223.55
865.02	223.57
865.33	223.56
865.64	223.54
865.95	223.54
866.27	223.60
866.58	223.59
866.89	223.60
867.20	223.60
867.51	223.59
867.82	223.58
868.13	223.61
868.44	223.59
868.75	223.60
869.06	223.61
869.37	223.62
869.68	223.60
869.99	223.61
870.30	223.62
870.61	223.63
870.92	223.61
871.23	223.60
871.54	223.61
871.85	223.63
872.16	223.64
872.47	223.63
872.78	223.58
873.09	223.59
873.40	223.58
873.71	223.59
874.02	223.60
874.33	223.59
874.64	223.57
874.95	223.59
875.26	223.57
875.56	223.56
875.87	223.56
876.18	223.55
876.49	223.65
876.80	223.64
877.11	223.62
877.42	223.62
877.73	223.62
878.04	223.61
878.35	223.61
878.66	223.61
878.96	223.61
879.27	223.60
879.58	223.60
879.89	223.59
880.20	223.62
880.51	223.61
880.82	223.61
881.12	223.62
881.43	223.59
881.74	223.59
882.05	223.58
882.36	223.59
882.67	223.59
882.97	223.48
883.28	223.48
883.59	223.47
883.90	223.48
884.21	223.49
884.51	223.49
884.82	223.47
885.13	223.47
885.44	223.46
885.74	223.46
886.05	223.46
886.36	223.45
886.67	223.42
886.98	223.46
887.28	223.47
887.59	223.47
887.90	223.47
888.20	223.47
888.51	223.49
888.82	223.47
889.13	223.48
889.43	223.57
889.74	223.56
890.05	223.56
890.35	223.55
890.66	223.53
890.97	223.52
891.28	223.52
891.58	223.52
891.89	223.52
892.20	223.50
892.50	223.49
892.81	223.49
893.12	223.49
893.42	223.44
893.73	223.44
894.04	223.43
894.34	223.44
894.65	223.44
894.95	223.43
895.26	223.43
895.57	223.47
895.87	223.37
896.18	223.39
896.48	223.40
896.79	223.39
897.10	223.41
897.40	223.41
897.71	223.42
898.01	223.41
898.32	223.43
898.63	223.43
898.93	223.44
899.24	223.44
899.54	223.44
899.85	223.43
900.15	223.42
900.46	223.42
900.76	223.43
901.07	223.43
901.38	223.42
901.68	223.43
901.99	223.38
902.29	223.39
902.60	223.37
902.90	223.37
903.21	223.36
903.51	223.35
903.82	223.37
904.12	223.37
904.43	223.38
904.73	223.37
905.03	223.37
905.34	223.47
905.64	223.46
905.95	223.46
906.25	223.46
906.56	223.45
906.86	223.45
907.17	223.44
907.47	223.45
907.77	223.44
908.08	223.42
908.38	223.43
908.69	223.43
908.99	223.44
909.30	223.45
909.60	223.45
909.90	223.45
910.21	223.42
910.51	223.41
910.81	223.40
911.12	223.41
911.42	223.41
911.73	223.31
912.03	223.32
912.33	223.34
912.64	223.33
912.94	223.32
913.24	223.31
913.55	223.30
913.85	223.29
914.15	223.31
914.46	223.32
914.76	223.30
915.06	223.30
915.37	223.28
915.67	223.27
915.97	223.27
916.27	223.24
916.58	223.25
916.88	223.25
917.18	223.24
917.49	223.31
917.79	223.30
918.09	223.32
918.39	223.34
918.70	223.33
919.00	223.34
919.30	223.39
919.60	223.39
919.91	223.38
920.21	223.38
920.51	223.36
920.81	223.35
921.12	223.37
921.42	223.37
921.72	223.38
922.02	223.38
922.32	223.40
922.63	223.40
922.93	223.46
923.23	223.46
923.53	223.45
923.83	223.38
924.13	223.39
924.44	223.38
924.74	223.40
925.04	223.41
925.34	223.41
925.64	223.36
925.94	223.36
926.24	223.42
926.55	223.41
926.85	223.42
927.15	223.42
927.45	223.42
927.75	223.42
928.05	223.41
928.35	223.41
928.65	223.42
928.95	223.43
929.26	223.38
929.56	223.40
929.86	223.42
930.16	223.41
930.46	223.40
930.76	223.40
931.06	223.35
931.36	223.32
931.66	223.34
931.96	223.36
932.26	223.36
932.56	223.32
932.86	223.32
933.16	223.32
933.46	223.31
933.76	223.30
934.06	223.32
934.36	223.36
934.66	223.36
934.96	223.34
935.26	223.34
935.56	223.36
935.86	223.33
936.16	223.31
936.46	223.31
936.76	223.31
937.06	223.30
937.36	223.30
937.66	223.31
937.96	223.30
938.26	223.28
938.56	223.27
938.86	223.28
939.16	223.30
939.46	223.31
939.76	223.32
940.06	223.31
940.35	223.29
940.65	223.24
940.95	223.25
941.25	223.23
941.55	223.22
941.85	223.21
942.15	223.23
942.45	223.26
942.75	223.26
943.04	223.26
943.34	223.28
943.64	223.27
943.94	223.25
944.24	223.25
944.54	223.26
944.84	223.26
945.13	223.24
945.43	223.22
945.73	223.21
946.03	223.20
946.33	223.20
946.62	223.19
946.92	223.18
947.22	223.19
947.52	223.19
947.82	223.20
948.11	223.19
948.41	223.17
948.71	223.14
949.01	223.14
949.31	223.14
949.60	223.13
949.90	223.15
950.20	223.14
950.50	223.14
950.79	223.13
951.09	223.14
951.39	223.14
951.69	223.13
951.98	223.15
952.28	223.15
952.58	223.15
952.87	223.15
953.17	223.17
953.47	223.15
953.76	223.15
954.06	223.13
954.36	223.12
954.66	223.12
954.95	223.15
955.25	223.16
955.55	223.17
955.84	223.15
956.14	223.15
956.44	223.16
956.73	223.15
957.03	223.16
957.32	223.15
957.62	223.15
957.92	223.17
958.21	223.16
958.51	223.28
958.81	223.29
959.10	223.30
959.40	223.32
959.69	223.33
959.99	223.35
960.29	223.35
960.58	223.35
960.88	223.39
961.17	223.37
961.47	223.38
961.76	223.37
962.06	223.39
962.36	223.37
962.65	223.37
962.95	223.38
963.24	223.37
963.54	223.37
963.83	223.38
964.13	223.37
964.42	223.36
964.72	223.27
965.01	223.28
965.31	223.27
965.60	223.24
965.90	223.31
966.19	223.28
966.49	223.29
966.78	223.29
967.08	223.28
967.37	223.27
967.67	223.25
967.96	223.27
968.26	223.27
968.55	223.28
968.85	223.28
969.14	223.28
969.43	223.28
969.73	223.27
970.02	223.26
970.32	223.26
970.61	223.24
970.91	223.21
971.20	223.19
971.49	223.18
971.79	223.20
972.08	223.12
972.38	223.13
972.67	223.13
972.96	223.14
973.26	223.12
973.55	223.15
973.85	223.15
974.14	223.14
974.43	223.14
974.73	223.12
975.02	223.12
975.31	223.12
975.61	223.11
975.90	223.11
976.19	223.10
976.49	223.11
976.78	223.12
977.07	223.12
977.37	223.13
977.66	223.15
977.95	223.13
978.24	223.14
978.54	223.15
978.83	223.15
979.12	223.14
979.42	223.14
979.71	223.12
980.00	223.12
980.29	223.13
980.59	223.11
980.88	223.14
981.17	223.14
981.46	223.14
981.76	223.14
982.05	223.17
982.34	223.18
982.63	223.18
982.93	223.18
983.22	223.20
983.51	223.20
983.80	223.22
984.09	223.23
984.39	223.22
984.68	223.21
984.97	223.21
985.26	223.20
985.55	223.21
985.85	223.19
986.14	223.20
986.43	223.22
986.72	223.21
987.01	223.18
987.30	223.18
987.59	223.17
987.89	223.18
988.18	223.15
988.47	223.13
988.76	223.12
989.05	223.11
989.34	223.09
989.63	223.11
989.92	223.09
990.22	223.08
990.51	223.08
990.80	223.08
991.09	223.08
991.38	223.10
991.67	223.08
991.96	223.08
992.25	223.08
992.54	223.06
992.83	223.06
993.12	223.06
993.41	223.07
993.70	223.11
993.99	223.13
994.28	223.14
994.58	223.16
994.87	223.15
995.16	223.15
995.45	223.14
995.74	223.10
996.03	223.12
996.32	223.13
996.61	223.15
996.90	223.15
997.19	223.14
997.48	223.14
997.77	223.13
998.06	223.14
998.34	223.13
998.63	223.13
998.92	223.13
999.21	223.15
999.50	223.15
999.79	223.11
1000.08	223.11
1000.37	223.11
1000.66	223.10
1000.95	223.13
1001.24	223.13
1001.53	223.15
1001.82	223.15
1002.11	223.13
1002.40	223.14
1002.68	223.16
1002.97	223.23
1003.26	223.22
1003.55	223.21
1003.84	223.21
1004.13	223.25
1004.42	223.24
1004.71	223.24
1004.99	223.23
1005.28	223.25
1005.57	223.25
1005.86	223.23
1006.15	223.22
1006.44	223.21
1006.72	223.22
1007.01	223.20
1007.30	223.20
1007.59	223.19
1007.88	223.19
1008.17	223.20
1008.45	223.17
1008.74	223.13
1009.03	223.08
1009.32	223.08
1009.60	223.08
1009.89	223.08
1010.18	223.04
1010.47	223.04
1010.76	223.04
1011.04	223.04
1011.33	223.04
1011.62	223.04
1011.91	223.05
1012.19	223.06
1012.48	223.06
1012.77	223.06
1013.05	223.10
1013.34	223.10
1013.63	223.10
1013.92	223.10
1014.20	223.10
1014.49	223.11
1014.78	223.12
1015.06	223.09
1015.35	223.09
1015.64	223.10
1015.92	223.12
1016.21	223.13
1016.50	223.13
1016.78	223.14
1017.07	223.15
1017.36	223.13
1017.64	223.11
1017.93	223.12
1018.22	223.11
1018.50	223.11
1018.79	223.10
1019.08	223.07
1019.36	223.07
1019.65	223.06
1019.93	223.08
1020.22	223.10
1020.51	223.15
1020.79	223.14
1021.08	222.96
1021.36	222.90
1021.65	223.09
1021.94	223.05
1022.22	223.09
1022.51	222.85
1022.79	223.56
1023.08	223.23
1023.36	224.33
1023.65	222.88
>>>>>End Processed Spectral Data<<<<<
