SpectraSuite Data File
++++++++++++++++++++++++++++++++++++
Date: Thu Oct 01 10:30:38 EDT 2015
User: lab3
Dark Spectrum Present: No
Reference Spectrum Present: No
Number of Sampled Component Spectra: 1
Spectrometers: USB2E7196
Integration Time (usec): 36000 (USB2E7196)
Spectra Averaged: 10000 (USB2E7196)
Boxcar Smoothing: 10 (USB2E7196)
Correct for Electrical Dark: No (USB2E7196)
Strobe/Lamp Enabled: No (USB2E7196)
Correct for Detector Non-linearity: No (USB2E7196)
Correct for Stray Light: No (USB2E7196)
Number of Pixels in Processed Spectrum: 2048
>>>>>Begin Processed Spectral Data<<<<<
339.09	0.00
339.48	210.99
339.86	212.46
340.24	213.89
340.63	215.30
341.01	218.22
341.39	217.95
341.78	219.28
342.16	220.47
342.54	220.98
342.93	209.53
343.31	220.12
343.69	220.66
344.07	221.12
344.46	221.54
344.84	221.93
345.22	222.16
345.60	222.42
345.99	222.61
346.37	222.75
346.75	222.86
347.13	222.94
347.52	223.01
347.90	223.09
348.28	223.12
348.66	223.18
349.05	223.18
349.43	223.23
349.81	223.29
350.19	223.34
350.57	223.41
350.96	223.49
351.34	223.59
351.72	223.68
352.10	223.79
352.48	223.87
352.87	223.92
353.25	223.99
353.63	224.05
354.01	224.12
354.39	224.20
354.77	224.27
355.15	224.37
355.54	224.43
355.92	224.46
356.30	224.54
356.68	224.67
357.06	224.75
357.44	224.80
357.82	224.86
358.20	224.97
358.58	225.03
358.97	225.09
359.35	225.17
359.73	225.26
360.11	225.31
360.49	225.36
360.87	225.42
361.25	225.48
361.63	225.56
362.01	225.61
362.39	225.64
362.77	225.69
363.15	225.71
363.53	225.75
363.91	225.78
364.29	225.81
364.67	225.74
365.05	225.76
365.43	225.79
365.81	225.82
366.19	225.84
366.57	225.89
366.95	225.89
367.33	225.87
367.71	225.86
368.09	225.88
368.47	225.88
368.85	225.86
369.23	225.87
369.61	225.82
369.99	225.83
370.37	225.83
370.75	225.88
371.13	225.85
371.51	225.81
371.89	225.79
372.27	225.77
372.65	225.75
373.03	225.71
373.41	225.66
373.78	225.61
374.16	225.52
374.54	225.44
374.92	225.39
375.30	225.35
375.68	225.28
376.06	225.23
376.44	225.18
376.82	225.13
377.19	225.09
377.57	225.04
377.95	224.95
378.33	224.89
378.71	224.75
379.09	224.70
379.47	224.67
379.84	224.60
380.22	224.54
380.60	224.47
380.98	224.42
381.36	224.36
381.73	224.30
382.11	224.27
382.49	224.23
382.87	224.16
383.25	224.11
383.62	224.19
384.00	224.12
384.38	224.08
384.76	224.06
385.13	224.04
385.51	223.99
385.89	223.94
386.27	223.91
386.64	223.88
387.02	223.84
387.40	223.79
387.78	223.76
388.15	223.73
388.53	223.70
388.91	223.67
389.29	223.64
389.66	223.63
390.04	223.59
390.42	223.59
390.79	223.58
391.17	223.56
391.55	223.43
391.92	223.42
392.30	223.42
392.68	223.38
393.05	223.37
393.43	223.36
393.81	223.37
394.18	223.35
394.56	223.35
394.94	223.38
395.31	223.37
395.69	223.41
396.06	223.44
396.44	223.46
396.82	223.47
397.19	223.54
397.57	223.56
397.95	223.60
398.32	223.59
398.70	223.64
399.07	223.69
399.45	223.73
399.82	223.77
400.20	223.81
400.58	223.86
400.95	223.88
401.33	223.96
401.70	224.10
402.08	224.19
402.45	224.27
402.83	224.38
403.20	224.48
403.58	224.56
403.95	224.69
404.33	224.83
404.71	224.96
405.08	225.14
405.46	225.28
405.83	225.45
406.21	225.62
406.58	225.82
406.96	226.01
407.33	226.23
407.70	226.48
408.08	226.81
408.45	227.10
408.83	227.42
409.20	227.70
409.58	227.96
409.95	228.32
410.33	228.71
410.70	229.07
411.08	229.50
411.45	229.95
411.82	230.41
412.20	230.94
412.57	231.56
412.95	232.05
413.32	232.69
413.69	233.35
414.07	234.05
414.44	234.81
414.82	235.58
415.19	236.49
415.56	237.41
415.94	238.37
416.31	239.45
416.68	240.53
417.06	241.78
417.43	242.95
417.81	244.30
418.18	245.68
418.55	247.18
418.93	248.75
419.30	250.39
419.67	252.13
420.04	253.92
420.42	255.79
420.79	257.95
421.16	260.14
421.54	262.35
421.91	264.67
422.28	267.08
422.66	269.68
423.03	272.15
423.40	274.75
423.77	277.53
424.15	280.39
424.52	283.36
424.89	286.57
425.26	289.77
425.64	292.73
426.01	296.06
426.38	299.47
426.75	302.97
427.13	306.55
427.50	310.30
427.87	314.19
428.24	318.12
428.61	321.88
428.99	325.92
429.36	330.37
429.73	334.61
430.10	338.84
430.47	343.15
430.85	347.59
431.22	352.33
431.59	357.18
431.96	361.91
432.33	367.14
432.70	372.09
433.08	377.96
433.45	383.50
433.82	388.95
434.19	395.04
434.56	401.03
434.93	406.80
435.30	412.50
435.68	418.92
436.05	425.21
436.42	431.50
436.79	437.24
437.16	443.42
437.53	450.06
437.90	456.69
438.27	463.18
438.64	470.22
439.01	476.59
439.38	482.41
439.75	488.04
440.13	494.47
440.50	500.60
440.87	505.45
441.24	510.77
441.61	516.63
441.98	520.95
442.35	526.09
442.72	531.36
443.09	536.41
443.46	539.70
443.83	542.13
444.20	544.21
444.57	547.24
444.94	549.06
445.31	550.95
445.68	552.64
446.05	553.93
446.42	553.85
446.79	553.66
447.16	553.52
447.53	553.41
447.90	551.58
448.27	549.87
448.64	547.12
449.01	545.32
449.37	541.34
449.74	537.73
450.11	533.06
450.48	527.90
450.85	522.70
451.22	518.30
451.59	513.99
451.96	510.07
452.33	504.28
452.70	499.14
453.07	492.86
453.43	486.56
453.80	480.47
454.17	474.60
454.54	469.16
454.91	463.01
455.28	457.21
455.65	451.75
456.02	445.92
456.38	441.22
456.75	435.16
457.12	430.27
457.49	425.33
457.86	420.61
458.23	416.47
458.59	411.90
458.96	407.20
459.33	403.05
459.70	398.83
460.07	395.61
460.43	391.83
460.80	388.28
461.17	385.14
461.54	381.76
461.91	378.62
462.27	375.42
462.64	372.80
463.01	369.80
463.38	366.78
463.74	364.06
464.11	361.63
464.48	359.44
464.85	357.08
465.21	355.28
465.58	353.30
465.95	351.01
466.32	349.18
466.68	347.39
467.05	345.60
467.42	343.87
467.78	342.00
468.15	340.28
468.52	339.00
468.88	337.34
469.25	335.81
469.62	334.59
469.98	333.28
470.35	332.11
470.72	331.05
471.08	329.98
471.45	329.10
471.82	328.12
472.18	327.11
472.55	326.46
472.92	325.65
473.28	325.02
473.65	324.37
474.02	323.76
474.38	323.26
474.75	322.99
475.11	322.58
475.48	322.43
475.85	322.28
476.21	322.24
476.58	322.26
476.94	322.46
477.31	322.60
477.67	322.76
478.04	323.05
478.41	323.41
478.77	323.89
479.14	324.24
479.50	324.82
479.87	325.53
480.23	326.25
480.60	326.94
480.96	327.66
481.33	328.65
481.69	329.64
482.06	330.61
482.42	331.53
482.79	332.64
483.15	333.91
483.52	335.32
483.88	336.69
484.25	338.14
484.61	339.65
484.98	341.28
485.34	343.11
485.71	345.00
486.07	347.02
486.44	349.02
486.80	351.25
487.17	353.52
487.53	356.04
487.90	358.65
488.26	361.48
488.62	364.46
488.99	367.45
489.35	370.57
489.72	373.94
490.08	377.50
490.44	381.14
490.81	384.95
491.17	388.85
491.54	393.01
491.90	397.28
492.26	401.90
492.63	406.75
492.99	411.78
493.36	416.94
493.72	422.38
494.08	427.95
494.45	433.85
494.81	439.95
495.17	446.19
495.54	452.77
495.90	459.67
496.26	466.71
496.63	474.00
496.99	481.59
497.35	489.55
497.72	497.79
498.08	506.20
498.44	514.87
498.80	524.11
499.17	533.57
499.53	543.39
499.89	553.43
500.26	563.65
500.62	574.16
500.98	585.37
501.34	596.73
501.71	608.64
502.07	620.77
502.43	633.31
502.79	646.17
503.16	659.46
503.52	672.92
503.88	686.79
504.24	701.09
504.60	715.63
504.97	730.60
505.33	745.97
505.69	762.28
506.05	778.78
506.41	795.26
506.78	812.05
507.14	829.33
507.50	847.21
507.86	865.48
508.22	884.06
508.59	902.65
508.95	921.95
509.31	941.71
509.67	962.19
510.03	982.86
510.39	1003.77
510.75	1024.91
511.12	1046.37
511.48	1068.08
511.84	1089.92
512.20	1112.10
512.56	1135.40
512.92	1158.81
513.28	1181.93
513.64	1205.40
514.00	1229.30
514.37	1253.53
514.73	1277.81
515.09	1301.85
515.45	1326.34
515.81	1351.39
516.17	1376.46
516.53	1401.21
516.89	1426.00
517.25	1450.99
517.61	1476.16
517.97	1501.52
518.33	1526.62
518.69	1551.82
519.05	1577.31
519.41	1602.94
519.77	1628.81
520.13	1653.85
520.49	1679.11
520.85	1704.60
521.21	1729.98
521.57	1755.92
521.93	1781.14
522.29	1807.15
522.65	1832.90
523.01	1858.44
523.37	1883.17
523.73	1908.60
524.09	1934.23
524.45	1959.71
524.81	1984.66
525.17	2009.53
525.53	2033.95
525.89	2058.37
526.25	2083.01
526.61	2107.15
526.97	2131.51
527.33	2155.82
527.68	2179.91
528.04	2203.19
528.40	2226.26
528.76	2249.54
529.12	2271.74
529.48	2294.32
529.84	2315.01
530.20	2336.29
530.56	2357.18
530.91	2378.15
531.27	2398.59
531.63	2418.29
531.99	2437.55
532.35	2456.48
532.71	2475.49
533.07	2495.01
533.42	2513.10
533.78	2531.47
534.14	2549.86
534.50	2567.39
534.86	2585.54
535.21	2601.84
535.57	2617.97
535.93	2633.50
536.29	2647.74
536.65	2662.90
537.00	2676.83
537.36	2691.37
537.72	2704.82
538.08	2717.83
538.44	2729.72
538.79	2741.81
539.15	2752.32
539.51	2762.69
539.87	2772.72
540.22	2780.52
540.58	2788.60
540.94	2797.03
541.29	2804.09
541.65	2810.07
542.01	2815.57
542.37	2819.19
542.72	2824.85
543.08	2829.96
543.44	2834.79
543.79	2838.88
544.15	2841.93
544.51	2845.08
544.87	2847.24
545.22	2849.09
545.58	2850.06
545.94	2851.47
546.29	2851.36
546.65	2851.26
547.01	2851.36
547.36	2851.45
547.72	2851.77
548.07	2850.59
548.43	2848.83
548.79	2846.39
549.14	2843.91
549.50	2842.21
549.86	2839.43
550.21	2834.27
550.57	2829.53
550.92	2823.52
551.28	2818.09
551.64	2812.67
551.99	2807.53
552.35	2802.01
552.70	2796.01
553.06	2790.74
553.41	2785.02
553.77	2778.71
554.13	2773.24
554.48	2766.63
554.84	2758.53
555.19	2750.60
555.55	2742.14
555.90	2734.26
556.26	2727.36
556.61	2719.85
556.97	2710.03
557.32	2701.23
557.68	2692.73
558.03	2683.65
558.39	2675.28
558.74	2666.92
559.10	2657.41
559.45	2647.50
559.81	2638.01
560.16	2627.82
560.52	2617.29
560.87	2607.78
561.23	2597.79
561.58	2587.24
561.94	2576.50
562.29	2565.29
562.64	2554.73
563.00	2544.41
563.35	2533.96
563.71	2522.54
564.06	2510.71
564.42	2499.84
564.77	2488.67
565.12	2477.60
565.48	2466.33
565.83	2455.66
566.19	2445.07
566.54	2433.97
566.89	2422.11
567.25	2410.15
567.60	2398.99
567.96	2387.36
568.31	2374.27
568.66	2361.30
569.02	2349.38
569.37	2337.17
569.72	2325.46
570.08	2313.05
570.43	2300.12
570.78	2286.84
571.14	2273.42
571.49	2260.75
571.84	2248.40
572.20	2234.82
572.55	2221.58
572.90	2208.20
573.26	2193.78
573.61	2178.86
573.96	2164.37
574.31	2150.18
574.67	2136.21
575.02	2121.85
575.37	2107.02
575.72	2092.46
576.08	2078.47
576.43	2063.45
576.78	2048.61
577.13	2034.57
577.49	2020.41
577.84	2006.69
578.19	1992.16
578.54	1977.29
578.90	1961.94
579.25	1946.29
579.60	1932.02
579.95	1917.39
580.30	1902.81
580.66	1888.59
581.01	1874.05
581.36	1859.75
581.71	1846.07
582.06	1831.86
582.42	1817.78
582.77	1804.42
583.12	1790.69
583.47	1777.06
583.82	1763.55
584.17	1749.92
584.53	1736.10
584.88	1722.36
585.23	1708.20
585.58	1694.58
585.93	1681.40
586.28	1669.08
586.63	1656.51
586.98	1643.26
587.34	1630.23
587.69	1616.74
588.04	1603.57
588.39	1590.99
588.74	1577.93
589.09	1564.61
589.44	1551.29
589.79	1538.44
590.14	1525.56
590.49	1512.90
590.84	1500.08
591.19	1487.90
591.54	1475.19
591.89	1462.38
592.25	1449.89
592.60	1437.09
592.95	1424.81
593.30	1412.84
593.65	1400.58
594.00	1388.62
594.35	1377.36
594.70	1365.39
595.05	1354.48
595.40	1343.26
595.75	1331.53
596.10	1320.64
596.45	1309.93
596.80	1299.71
597.15	1289.30
597.50	1278.83
597.85	1268.59
598.19	1258.53
598.54	1247.88
598.89	1238.01
599.24	1228.39
599.59	1218.61
599.94	1209.82
600.29	1200.90
600.64	1191.72
600.99	1181.95
601.34	1172.67
601.69	1162.85
602.04	1154.04
602.39	1145.08
602.74	1136.38
603.08	1127.91
603.43	1118.95
603.78	1109.94
604.13	1101.02
604.48	1092.05
604.83	1083.35
605.18	1074.56
605.53	1065.68
605.87	1056.95
606.22	1048.46
606.57	1039.74
606.92	1031.11
607.27	1022.30
607.62	1013.62
607.96	1005.12
608.31	997.64
608.66	989.73
609.01	982.21
609.36	974.65
609.70	966.85
610.05	958.91
610.40	951.31
610.75	943.79
611.10	936.54
611.44	928.96
611.79	921.62
612.14	913.94
612.49	906.44
612.83	899.40
613.18	892.38
613.53	885.15
613.88	878.06
614.22	871.53
614.57	864.84
614.92	858.14
615.27	851.47
615.61	844.65
615.96	838.03
616.31	831.37
616.65	824.60
617.00	818.07
617.35	811.71
617.70	805.36
618.04	799.08
618.39	792.79
618.74	786.84
619.08	780.75
619.43	774.87
619.78	768.98
620.12	762.94
620.47	757.09
620.82	751.37
621.16	745.90
621.51	740.08
621.85	734.26
622.20	728.50
622.55	722.93
622.89	717.29
623.24	711.71
623.59	706.18
623.93	700.72
624.28	695.39
624.62	690.04
624.97	684.69
625.32	679.44
625.66	674.07
626.01	668.67
626.35	663.42
626.70	658.22
627.04	653.23
627.39	648.28
627.73	643.44
628.08	638.80
628.43	634.03
628.77	629.33
629.12	624.77
629.46	620.36
629.81	615.76
630.15	611.08
630.50	606.56
630.84	602.26
631.19	598.12
631.53	594.01
631.88	589.80
632.22	585.68
632.57	581.79
632.91	577.85
633.26	574.00
633.60	570.21
633.95	566.52
634.29	562.68
634.64	558.82
634.98	554.89
635.32	551.10
635.67	547.44
636.01	543.74
636.36	540.08
636.70	536.55
637.05	533.06
637.39	529.74
637.73	526.28
638.08	522.87
638.42	519.42
638.77	515.87
639.11	512.30
639.45	508.80
639.80	505.29
640.14	501.97
640.49	498.59
640.83	495.10
641.17	491.69
641.52	488.41
641.86	485.11
642.20	481.99
642.55	478.72
642.89	475.55
643.23	472.55
643.58	469.79
643.92	466.91
644.26	464.04
644.61	461.16
644.95	458.30
645.29	455.39
645.64	452.46
645.98	449.68
646.32	447.07
646.66	444.44
647.01	441.80
647.35	439.19
647.69	436.49
648.04	433.96
648.38	431.45
648.72	428.90
649.06	426.44
649.41	423.96
649.75	421.49
650.09	419.05
650.43	416.63
650.78	414.17
651.12	411.70
651.46	409.35
651.80	407.08
652.14	404.89
652.49	402.71
652.83	400.58
653.17	398.43
653.51	396.34
653.85	394.33
654.20	392.23
654.54	390.09
654.88	388.13
655.22	386.20
655.56	384.24
655.90	382.38
656.25	380.52
656.59	378.67
656.93	376.93
657.27	375.22
657.61	373.40
657.95	371.65
658.29	369.92
658.64	368.20
658.98	366.48
659.32	364.77
659.66	363.17
660.00	361.58
660.34	360.02
660.68	358.41
661.02	356.74
661.36	355.19
661.70	353.69
662.05	352.16
662.39	350.63
662.73	349.19
663.07	347.77
663.41	346.37
663.75	345.00
664.09	343.62
664.43	342.17
664.77	340.82
665.11	339.41
665.45	338.08
665.79	336.75
666.13	335.41
666.47	334.06
666.81	332.67
667.15	331.27
667.49	329.95
667.83	328.69
668.17	327.47
668.51	326.27
668.85	325.07
669.19	323.96
669.53	322.79
669.87	321.57
670.21	320.39
670.55	319.23
670.89	318.15
671.23	317.03
671.57	315.93
671.91	314.87
672.25	313.89
672.58	312.88
672.92	311.84
673.26	310.87
673.60	309.91
673.94	308.93
674.28	308.02
674.62	307.09
674.96	306.13
675.30	305.23
675.64	304.30
675.97	303.40
676.31	302.45
676.65	301.53
676.99	300.68
677.33	299.78
677.67	298.92
678.01	297.98
678.34	297.12
678.68	296.31
679.02	295.46
679.36	294.62
679.70	293.79
680.04	292.99
680.37	292.17
680.71	291.40
681.05	290.66
681.39	289.88
681.73	289.08
682.06	288.30
682.40	287.55
682.74	286.82
683.08	286.12
683.42	285.39
683.75	284.73
684.09	283.99
684.43	283.30
684.77	282.60
685.10	281.94
685.44	281.27
685.78	280.59
686.12	279.94
686.45	279.28
686.79	278.63
687.13	278.00
687.46	277.34
687.80	276.70
688.14	276.03
688.48	275.42
688.81	274.80
689.15	274.24
689.49	273.62
689.82	273.02
690.16	272.37
690.50	271.79
690.83	271.20
691.17	270.63
691.51	270.08
691.84	269.54
692.18	268.97
692.52	268.39
692.85	267.83
693.19	267.31
693.52	266.78
693.86	266.25
694.20	265.73
694.53	265.23
694.87	264.72
695.21	264.23
695.54	263.74
695.88	263.24
696.21	262.71
696.55	262.23
696.88	261.75
697.22	261.28
697.56	260.81
697.89	260.30
698.23	259.82
698.56	259.32
698.90	258.87
699.23	258.41
699.57	257.98
699.90	257.55
700.24	257.08
700.58	256.66
700.91	256.26
701.25	255.93
701.58	255.56
701.92	255.19
702.25	254.79
702.59	254.39
702.92	254.01
703.26	253.63
703.59	253.25
703.93	252.96
704.26	252.60
704.60	252.25
704.93	251.90
705.26	251.56
705.60	251.24
705.93	250.88
706.27	250.58
706.60	250.28
706.94	249.98
707.27	249.62
707.61	249.29
707.94	248.94
708.27	248.53
708.61	248.17
708.94	247.83
709.28	247.52
709.61	247.21
709.94	246.93
710.28	246.64
710.61	246.37
710.95	246.01
711.28	245.80
711.61	245.52
711.95	245.28
712.28	245.00
712.61	244.73
712.95	244.52
713.28	244.31
713.61	244.04
713.95	243.77
714.28	243.54
714.61	243.29
714.95	243.06
715.28	242.81
715.61	242.58
715.95	242.36
716.28	242.14
716.61	241.94
716.95	241.71
717.28	241.49
717.61	241.27
717.94	241.05
718.28	240.77
718.61	240.56
718.94	240.33
719.27	240.14
719.61	239.95
719.94	239.73
720.27	239.48
720.60	239.28
720.94	239.09
721.27	238.92
721.60	238.76
721.93	238.58
722.27	238.44
722.60	238.28
722.93	238.09
723.26	237.92
723.59	237.73
723.93	237.57
724.26	237.42
724.59	237.26
724.92	237.10
725.25	236.98
725.59	236.83
725.92	236.70
726.25	236.55
726.58	236.40
726.91	236.25
727.24	236.12
727.57	235.98
727.91	235.83
728.24	235.69
728.57	235.55
728.90	235.42
729.23	235.24
729.56	235.15
729.89	235.02
730.22	234.88
730.55	234.75
730.89	234.62
731.22	234.48
731.55	234.35
731.88	234.23
732.21	234.09
732.54	233.96
732.87	233.84
733.20	233.73
733.53	233.62
733.86	233.52
734.19	233.39
734.52	233.30
734.85	233.27
735.18	233.13
735.51	233.05
735.84	232.95
736.17	232.88
736.50	232.72
736.83	232.74
737.16	232.65
737.49	232.56
737.82	232.47
738.15	232.39
738.48	232.30
738.81	232.20
739.14	232.09
739.47	232.00
739.80	231.90
740.13	231.81
740.46	231.70
740.79	231.60
741.12	231.51
741.45	231.40
741.78	231.26
742.11	231.20
742.44	231.09
742.77	231.02
743.10	230.92
743.43	230.83
743.75	230.64
744.08	230.72
744.41	230.62
744.74	230.53
745.07	230.43
745.40	230.37
745.73	230.34
746.06	230.27
746.39	230.21
746.71	230.13
747.04	230.04
747.37	229.97
747.70	229.92
748.03	229.85
748.36	229.80
748.68	229.73
749.01	229.64
749.34	229.57
749.67	229.51
750.00	229.45
750.33	229.47
750.65	229.41
750.98	229.19
751.31	229.13
751.64	229.08
751.97	229.08
752.29	229.01
752.62	228.90
752.95	228.82
753.28	228.75
753.60	228.68
753.93	228.64
754.26	228.59
754.59	228.49
754.91	228.42
755.24	228.35
755.57	228.34
755.90	228.28
756.22	228.21
756.55	228.13
756.88	228.05
757.20	227.93
757.53	227.84
757.86	227.78
758.19	227.74
758.51	227.68
758.84	227.57
759.17	227.51
759.49	227.47
759.82	227.47
760.15	227.43
760.47	227.38
760.80	227.31
761.13	227.28
761.45	227.23
761.78	227.19
762.11	227.15
762.43	227.05
762.76	227.00
763.08	226.97
763.41	226.93
763.74	226.90
764.06	226.85
764.39	226.82
764.71	226.78
765.04	226.72
765.37	226.67
765.69	226.64
766.02	226.59
766.34	226.54
766.67	226.46
767.00	226.44
767.32	226.45
767.65	226.48
767.97	226.43
768.30	226.40
768.62	226.37
768.95	226.32
769.27	226.28
769.60	226.26
769.92	226.20
770.25	226.15
770.57	226.10
770.90	226.06
771.22	226.02
771.55	225.99
771.87	225.97
772.20	225.94
772.52	226.00
772.85	226.09
773.17	226.07
773.50	226.03
773.82	225.98
774.15	225.90
774.47	225.80
774.80	225.77
775.12	225.73
775.45	225.70
775.77	225.68
776.09	225.66
776.42	225.63
776.74	225.64
777.07	225.61
777.39	225.60
777.72	225.57
778.04	225.56
778.36	225.52
778.69	225.50
779.01	225.48
779.33	225.37
779.66	225.23
779.98	225.20
780.31	225.19
780.63	225.21
780.95	225.21
781.28	225.19
781.60	225.16
781.92	225.14
782.25	225.12
782.57	225.10
782.89	225.08
783.22	225.05
783.54	225.01
783.86	225.00
784.19	224.97
784.51	224.99
784.83	224.95
785.16	224.93
785.48	224.91
785.80	224.90
786.12	224.89
786.45	224.87
786.77	224.86
787.09	224.84
787.42	224.79
787.74	224.77
788.06	224.76
788.38	224.74
788.71	224.72
789.03	224.71
789.35	224.71
789.67	224.68
789.99	224.67
790.32	224.65
790.64	224.65
790.96	224.73
791.28	224.68
791.61	224.67
791.93	224.66
792.25	224.64
792.57	224.70
792.89	224.67
793.21	224.67
793.54	224.64
793.86	224.62
794.18	224.61
794.50	224.57
794.82	224.56
795.14	224.56
795.47	224.57
795.79	224.56
796.11	224.52
796.43	224.51
796.75	224.49
797.07	224.49
797.39	224.47
797.71	224.37
798.04	224.36
798.36	224.35
798.68	224.34
799.00	224.33
799.32	224.27
799.64	224.27
799.96	224.26
800.28	224.27
800.60	224.25
800.92	224.24
801.24	224.23
801.56	224.22
801.89	224.20
802.21	224.19
802.53	224.16
802.85	224.17
803.17	224.21
803.49	224.18
803.81	224.16
804.13	224.15
804.45	224.12
804.77	224.12
805.09	224.11
805.41	224.10
805.73	224.07
806.05	224.03
806.37	224.01
806.69	223.99
807.01	223.98
807.33	223.98
807.65	223.94
807.97	223.98
808.28	223.95
808.60	223.94
808.92	223.92
809.24	223.98
809.56	223.95
809.88	223.90
810.20	223.91
810.52	223.92
810.84	223.89
811.16	223.88
811.48	223.87
811.80	223.89
812.12	223.88
812.43	223.90
812.75	223.90
813.07	223.88
813.39	223.89
813.71	223.86
814.03	223.85
814.35	223.85
814.67	223.81
814.98	223.79
815.30	223.78
815.62	223.76
815.94	223.69
816.26	223.70
816.58	223.68
816.89	223.68
817.21	223.65
817.53	223.65
817.85	223.65
818.17	223.65
818.48	223.60
818.80	223.61
819.12	223.59
819.44	223.57
819.76	223.56
820.07	223.55
820.39	223.54
820.71	223.54
821.03	223.54
821.34	223.52
821.66	223.54
821.98	223.54
822.30	223.54
822.61	223.60
822.93	223.58
823.25	223.57
823.57	223.55
823.88	223.57
824.20	223.56
824.52	223.57
824.83	223.56
825.15	223.55
825.47	223.54
825.79	223.54
826.10	223.54
826.42	223.54
826.74	223.54
827.05	223.53
827.37	223.53
827.69	223.52
828.00	223.53
828.32	223.52
828.64	223.51
828.95	223.56
829.27	223.52
829.58	223.52
829.90	223.53
830.22	223.54
830.53	223.52
830.85	223.50
831.17	223.47
831.48	223.47
831.80	223.48
832.11	223.47
832.43	223.45
832.75	223.45
833.06	223.51
833.38	223.48
833.69	223.48
834.01	223.48
834.32	223.47
834.64	223.46
834.96	223.46
835.27	223.45
835.59	223.42
835.90	223.40
836.22	223.39
836.53	223.37
836.85	223.35
837.16	223.45
837.48	223.45
837.79	223.48
838.11	223.49
838.42	223.48
838.74	223.49
839.05	223.48
839.37	223.47
839.68	223.41
840.00	223.41
840.31	223.42
840.63	223.40
840.94	223.39
841.26	223.38
841.57	223.37
841.88	223.38
842.20	223.36
842.51	223.34
842.83	223.34
843.14	223.44
843.46	223.43
843.77	223.37
844.08	223.37
844.40	223.33
844.71	223.32
845.03	223.31
845.34	223.29
845.65	223.29
845.97	223.29
846.28	223.29
846.60	223.30
846.91	223.28
847.22	223.27
847.54	223.29
847.85	223.30
848.16	223.28
848.48	223.27
848.79	223.31
849.10	223.32
849.42	223.32
849.73	223.22
850.04	223.22
850.36	223.19
850.67	223.20
850.98	223.21
851.30	223.21
851.61	223.21
851.92	223.20
852.23	223.24
852.55	223.24
852.86	223.24
853.17	223.24
853.49	223.26
853.80	223.28
854.11	223.28
854.42	223.29
854.74	223.28
855.05	223.29
855.36	223.23
855.67	223.23
855.99	223.23
856.30	223.36
856.61	223.35
856.92	223.36
857.23	223.36
857.55	223.34
857.86	223.34
858.17	223.35
858.48	223.34
858.79	223.32
859.11	223.32
859.42	223.32
859.73	223.30
860.04	223.30
860.35	223.27
860.66	223.24
860.98	223.24
861.29	223.25
861.60	223.24
861.91	223.27
862.22	223.25
862.53	223.23
862.84	223.11
863.16	223.13
863.47	223.11
863.78	223.10
864.09	223.11
864.40	223.11
864.71	223.11
865.02	223.12
865.33	223.11
865.64	223.09
865.95	223.09
866.27	223.15
866.58	223.14
866.89	223.16
867.20	223.16
867.51	223.14
867.82	223.13
868.13	223.16
868.44	223.13
868.75	223.15
869.06	223.15
869.37	223.16
869.68	223.13
869.99	223.15
870.30	223.15
870.61	223.16
870.92	223.15
871.23	223.14
871.54	223.15
871.85	223.17
872.16	223.19
872.47	223.18
872.78	223.12
873.09	223.13
873.40	223.12
873.71	223.13
874.02	223.14
874.33	223.13
874.64	223.11
874.95	223.13
875.26	223.11
875.56	223.11
875.87	223.10
876.18	223.10
876.49	223.19
876.80	223.18
877.11	223.17
877.42	223.17
877.73	223.17
878.04	223.15
878.35	223.15
878.66	223.15
878.96	223.15
879.27	223.15
879.58	223.14
879.89	223.13
880.20	223.16
880.51	223.15
880.82	223.15
881.12	223.15
881.43	223.13
881.74	223.12
882.05	223.11
882.36	223.12
882.67	223.12
882.97	223.01
883.28	223.01
883.59	223.00
883.90	223.01
884.21	223.02
884.51	223.01
884.82	223.00
885.13	222.99
885.44	222.99
885.74	222.99
886.05	222.99
886.36	222.99
886.67	222.95
886.98	223.00
887.28	223.01
887.59	223.01
887.90	223.02
888.20	223.02
888.51	223.03
888.82	223.01
889.13	223.02
889.43	223.11
889.74	223.11
890.05	223.11
890.35	223.09
890.66	223.08
890.97	223.07
891.28	223.06
891.58	223.06
891.89	223.06
892.20	223.05
892.50	223.04
892.81	223.03
893.12	223.03
893.42	222.98
893.73	222.98
894.04	222.97
894.34	222.98
894.65	222.98
894.95	222.96
895.26	222.97
895.57	223.01
895.87	222.91
896.18	222.93
896.48	222.93
896.79	222.93
897.10	222.94
897.40	222.95
897.71	222.96
898.01	222.95
898.32	222.96
898.63	222.96
898.93	222.97
899.24	222.97
899.54	222.96
899.85	222.96
900.15	222.96
900.46	222.96
900.76	222.96
901.07	222.96
901.38	222.96
901.68	222.97
901.99	222.91
902.29	222.92
902.60	222.91
902.90	222.91
903.21	222.91
903.51	222.90
903.82	222.92
904.12	222.92
904.43	222.92
904.73	222.91
905.03	222.92
905.34	223.02
905.64	223.01
905.95	223.01
906.25	223.01
906.56	223.01
906.86	223.01
907.17	223.00
907.47	223.01
907.77	223.00
908.08	222.98
908.38	222.98
908.69	222.99
908.99	223.00
909.30	223.01
909.60	223.01
909.90	223.01
910.21	222.98
910.51	222.97
910.81	222.97
911.12	222.97
911.42	222.97
911.73	222.87
912.03	222.88
912.33	222.90
912.64	222.89
912.94	222.88
913.24	222.86
913.55	222.85
913.85	222.85
914.15	222.87
914.46	222.88
914.76	222.87
915.06	222.86
915.37	222.84
915.67	222.83
915.97	222.84
916.27	222.82
916.58	222.82
916.88	222.82
917.18	222.81
917.49	222.88
917.79	222.88
918.09	222.89
918.39	222.91
918.70	222.90
919.00	222.91
919.30	222.96
919.60	222.95
919.91	222.94
920.21	222.95
920.51	222.92
920.81	222.91
921.12	222.93
921.42	222.93
921.72	222.93
922.02	222.94
922.32	222.95
922.63	222.95
922.93	223.01
923.23	223.01
923.53	223.00
923.83	222.93
924.13	222.93
924.44	222.93
924.74	222.95
925.04	222.97
925.34	222.96
925.64	222.92
925.94	222.92
926.24	222.98
926.55	222.97
926.85	222.98
927.15	222.99
927.45	222.98
927.75	222.98
928.05	222.98
928.35	222.97
928.65	222.98
928.95	222.98
929.26	222.94
929.56	222.95
929.86	222.97
930.16	222.96
930.46	222.95
930.76	222.95
931.06	222.90
931.36	222.87
931.66	222.89
931.96	222.90
932.26	222.91
932.56	222.86
932.86	222.87
933.16	222.87
933.46	222.86
933.76	222.84
934.06	222.86
934.36	222.90
934.66	222.89
934.96	222.88
935.26	222.88
935.56	222.89
935.86	222.87
936.16	222.85
936.46	222.85
936.76	222.84
937.06	222.83
937.36	222.83
937.66	222.84
937.96	222.83
938.26	222.81
938.56	222.80
938.86	222.81
939.16	222.83
939.46	222.83
939.76	222.84
940.06	222.84
940.35	222.82
940.65	222.77
940.95	222.78
941.25	222.76
941.55	222.74
941.85	222.73
942.15	222.76
942.45	222.78
942.75	222.78
943.04	222.78
943.34	222.81
943.64	222.79
943.94	222.78
944.24	222.78
944.54	222.78
944.84	222.78
945.13	222.76
945.43	222.74
945.73	222.73
946.03	222.73
946.33	222.71
946.62	222.70
946.92	222.70
947.22	222.70
947.52	222.71
947.82	222.72
948.11	222.71
948.41	222.69
948.71	222.66
949.01	222.67
949.31	222.66
949.60	222.65
949.90	222.67
950.20	222.66
950.50	222.66
950.79	222.65
951.09	222.67
951.39	222.67
951.69	222.66
951.98	222.68
952.28	222.68
952.58	222.68
952.87	222.68
953.17	222.70
953.47	222.68
953.76	222.68
954.06	222.66
954.36	222.64
954.66	222.65
954.95	222.67
955.25	222.68
955.55	222.69
955.84	222.67
956.14	222.68
956.44	222.68
956.73	222.67
957.03	222.68
957.32	222.67
957.62	222.67
957.92	222.69
958.21	222.68
958.51	222.80
958.81	222.82
959.10	222.83
959.40	222.85
959.69	222.86
959.99	222.88
960.29	222.89
960.58	222.89
960.88	222.92
961.17	222.91
961.47	222.92
961.76	222.91
962.06	222.93
962.36	222.92
962.65	222.92
962.95	222.93
963.24	222.92
963.54	222.93
963.83	222.93
964.13	222.93
964.42	222.92
964.72	222.83
965.01	222.83
965.31	222.82
965.60	222.79
965.90	222.86
966.19	222.83
966.49	222.84
966.78	222.83
967.08	222.82
967.37	222.82
967.67	222.80
967.96	222.82
968.26	222.81
968.55	222.83
968.85	222.82
969.14	222.82
969.43	222.81
969.73	222.80
970.02	222.80
970.32	222.80
970.61	222.78
970.91	222.75
971.20	222.74
971.49	222.72
971.79	222.74
972.08	222.67
972.38	222.67
972.67	222.66
972.96	222.68
973.26	222.66
973.55	222.69
973.85	222.68
974.14	222.67
974.43	222.68
974.73	222.66
975.02	222.65
975.31	222.65
975.61	222.65
975.90	222.64
976.19	222.63
976.49	222.63
976.78	222.64
977.07	222.64
977.37	222.65
977.66	222.66
977.95	222.65
978.24	222.66
978.54	222.68
978.83	222.67
979.12	222.66
979.42	222.66
979.71	222.64
980.00	222.64
980.29	222.64
980.59	222.62
980.88	222.65
981.17	222.65
981.46	222.65
981.76	222.65
982.05	222.68
982.34	222.69
982.63	222.69
982.93	222.69
983.22	222.72
983.51	222.72
983.80	222.73
984.09	222.74
984.39	222.73
984.68	222.72
984.97	222.73
985.26	222.72
985.55	222.73
985.85	222.71
986.14	222.73
986.43	222.74
986.72	222.74
987.01	222.70
987.30	222.71
987.59	222.70
987.89	222.71
988.18	222.67
988.47	222.66
988.76	222.66
989.05	222.65
989.34	222.63
989.63	222.66
989.92	222.64
990.22	222.62
990.51	222.63
990.80	222.62
991.09	222.63
991.38	222.65
991.67	222.63
991.96	222.63
992.25	222.63
992.54	222.61
992.83	222.61
993.12	222.61
993.41	222.62
993.70	222.67
993.99	222.68
994.28	222.70
994.58	222.71
994.87	222.70
995.16	222.69
995.45	222.69
995.74	222.65
996.03	222.67
996.32	222.68
996.61	222.71
996.90	222.71
997.19	222.70
997.48	222.70
997.77	222.69
998.06	222.69
998.34	222.68
998.63	222.69
998.92	222.69
999.21	222.70
999.50	222.70
999.79	222.66
1000.08	222.66
1000.37	222.66
1000.66	222.64
1000.95	222.67
1001.24	222.68
1001.53	222.69
1001.82	222.69
1002.11	222.66
1002.40	222.66
1002.68	222.68
1002.97	222.76
1003.26	222.74
1003.55	222.72
1003.84	222.73
1004.13	222.76
1004.42	222.76
1004.71	222.76
1004.99	222.75
1005.28	222.78
1005.57	222.77
1005.86	222.76
1006.15	222.75
1006.44	222.74
1006.72	222.75
1007.01	222.73
1007.30	222.73
1007.59	222.72
1007.88	222.72
1008.17	222.73
1008.45	222.71
1008.74	222.67
1009.03	222.62
1009.32	222.62
1009.60	222.62
1009.89	222.62
1010.18	222.58
1010.47	222.57
1010.76	222.58
1011.04	222.57
1011.33	222.57
1011.62	222.58
1011.91	222.59
1012.19	222.60
1012.48	222.60
1012.77	222.60
1013.05	222.63
1013.34	222.63
1013.63	222.63
1013.92	222.64
1014.20	222.63
1014.49	222.64
1014.78	222.65
1015.06	222.62
1015.35	222.62
1015.64	222.64
1015.92	222.65
1016.21	222.66
1016.50	222.66
1016.78	222.67
1017.07	222.68
1017.36	222.66
1017.64	222.64
1017.93	222.64
1018.22	222.64
1018.50	222.64
1018.79	222.64
1019.08	222.60
1019.36	222.61
1019.65	222.60
1019.93	222.63
1020.22	222.64
1020.51	222.69
1020.79	222.68
1021.08	222.57
1021.36	222.48
1021.65	222.66
1021.94	222.59
1022.22	222.61
1022.51	222.43
1022.79	223.16
1023.08	222.77
1023.36	223.87
1023.65	222.42
>>>>>End Processed Spectral Data<<<<<
