SpectraSuite Data File
++++++++++++++++++++++++++++++++++++
Date: Thu Oct 01 08:09:19 EDT 2015
User: lab3
Dark Spectrum Present: No
Reference Spectrum Present: No
Number of Sampled Component Spectra: 1
Spectrometers: USB2E7196
Integration Time (usec): 36000 (USB2E7196)
Spectra Averaged: 10000 (USB2E7196)
Boxcar Smoothing: 10 (USB2E7196)
Correct for Electrical Dark: No (USB2E7196)
Strobe/Lamp Enabled: No (USB2E7196)
Correct for Detector Non-linearity: No (USB2E7196)
Correct for Stray Light: No (USB2E7196)
Number of Pixels in Processed Spectrum: 2048
>>>>>Begin Processed Spectral Data<<<<<
339.09	0.00
339.48	210.26
339.86	211.81
340.24	213.24
340.63	214.66
341.01	217.55
341.39	217.28
341.78	218.62
342.16	219.88
342.54	220.29
342.93	208.92
343.31	219.48
343.69	220.02
344.07	220.48
344.46	220.91
344.84	221.29
345.22	221.53
345.60	221.79
345.99	221.98
346.37	222.12
346.75	222.23
347.13	222.31
347.52	222.38
347.90	222.46
348.28	222.49
348.66	222.54
349.05	222.55
349.43	222.60
349.81	222.65
350.19	222.70
350.57	222.77
350.96	222.85
351.34	222.95
351.72	223.04
352.10	223.14
352.48	223.22
352.87	223.26
353.25	223.33
353.63	223.39
354.01	223.46
354.39	223.53
354.77	223.61
355.15	223.71
355.54	223.76
355.92	223.79
356.30	223.86
356.68	223.99
357.06	224.07
357.44	224.11
357.82	224.17
358.20	224.28
358.58	224.34
358.97	224.40
359.35	224.48
359.73	224.56
360.11	224.61
360.49	224.68
360.87	224.73
361.25	224.79
361.63	224.86
362.01	224.91
362.39	224.94
362.77	224.99
363.15	225.01
363.53	225.05
363.91	225.09
364.29	225.12
364.67	225.04
365.05	225.06
365.43	225.09
365.81	225.12
366.19	225.14
366.57	225.19
366.95	225.19
367.33	225.16
367.71	225.15
368.09	225.17
368.47	225.17
368.85	225.15
369.23	225.16
369.61	225.11
369.99	225.12
370.37	225.12
370.75	225.17
371.13	225.14
371.51	225.10
371.89	225.08
372.27	225.05
372.65	225.03
373.03	224.99
373.41	224.94
373.78	224.89
374.16	224.80
374.54	224.72
374.92	224.67
375.30	224.63
375.68	224.56
376.06	224.51
376.44	224.45
376.82	224.41
377.19	224.36
377.57	224.31
377.95	224.22
378.33	224.16
378.71	224.02
379.09	223.97
379.47	223.93
379.84	223.87
380.22	223.81
380.60	223.74
380.98	223.69
381.36	223.64
381.73	223.58
382.11	223.55
382.49	223.51
382.87	223.45
383.25	223.41
383.62	223.48
384.00	223.42
384.38	223.38
384.76	223.35
385.13	223.34
385.51	223.29
385.89	223.24
386.27	223.21
386.64	223.19
387.02	223.14
387.40	223.10
387.78	223.07
388.15	223.04
388.53	223.01
388.91	222.98
389.29	222.94
389.66	222.93
390.04	222.90
390.42	222.89
390.79	222.87
391.17	222.85
391.55	222.72
391.92	222.71
392.30	222.71
392.68	222.67
393.05	222.66
393.43	222.66
393.81	222.67
394.18	222.65
394.56	222.65
394.94	222.68
395.31	222.67
395.69	222.71
396.06	222.74
396.44	222.76
396.82	222.78
397.19	222.85
397.57	222.86
397.95	222.90
398.32	222.90
398.70	222.94
399.07	223.00
399.45	223.04
399.82	223.08
400.20	223.12
400.58	223.18
400.95	223.19
401.33	223.27
401.70	223.40
402.08	223.50
402.45	223.57
402.83	223.68
403.20	223.78
403.58	223.86
403.95	223.98
404.33	224.12
404.71	224.25
405.08	224.43
405.46	224.58
405.83	224.74
406.21	224.92
406.58	225.12
406.96	225.30
407.33	225.52
407.70	225.76
408.08	226.09
408.45	226.38
408.83	226.70
409.20	226.99
409.58	227.24
409.95	227.59
410.33	227.98
410.70	228.34
411.08	228.76
411.45	229.21
411.82	229.67
412.20	230.19
412.57	230.80
412.95	231.28
413.32	231.92
413.69	232.57
414.07	233.25
414.44	234.00
414.82	234.77
415.19	235.68
415.56	236.59
415.94	237.53
416.31	238.60
416.68	239.66
417.06	240.89
417.43	242.05
417.81	243.39
418.18	244.75
418.55	246.25
418.93	247.79
419.30	249.41
419.67	251.14
420.04	252.90
420.42	254.76
420.79	256.89
421.16	259.06
421.54	261.25
421.91	263.54
422.28	265.92
422.66	268.49
423.03	270.94
423.40	273.51
423.77	276.27
424.15	279.09
424.52	282.03
424.89	285.21
425.26	288.37
425.64	291.30
426.01	294.59
426.38	297.96
426.75	301.42
427.13	304.97
427.50	308.67
427.87	312.52
428.24	316.41
428.61	320.12
428.99	324.13
429.36	328.53
429.73	332.73
430.10	336.91
430.47	341.19
430.85	345.58
431.22	350.26
431.59	355.07
431.96	359.74
432.33	364.92
432.70	369.82
433.08	375.63
433.45	381.12
433.82	386.51
434.19	392.54
434.56	398.47
434.93	404.19
435.30	409.83
435.68	416.20
436.05	422.43
436.42	428.66
436.79	434.34
437.16	440.46
437.53	447.03
437.90	453.59
438.27	460.01
438.64	466.98
439.01	473.28
439.38	479.04
439.75	484.62
440.13	490.98
440.50	497.05
440.87	501.85
441.24	507.12
441.61	512.93
441.98	517.20
442.35	522.28
442.72	527.50
443.09	532.50
443.46	535.74
443.83	538.16
444.20	540.23
444.57	543.22
444.94	545.04
445.31	546.91
445.68	548.59
446.05	549.87
446.42	549.80
446.79	549.62
447.16	549.50
447.53	549.40
447.90	547.61
448.27	545.94
448.64	543.23
449.01	541.47
449.37	537.54
449.74	533.97
450.11	529.36
450.48	524.26
450.85	519.14
451.22	514.79
451.59	510.54
451.96	506.67
452.33	500.96
452.70	495.87
453.07	489.67
453.43	483.45
453.80	477.42
454.17	471.63
454.54	466.25
454.91	460.17
455.28	454.45
455.65	449.05
456.02	443.28
456.38	438.64
456.75	432.65
457.12	427.82
457.49	422.94
457.86	418.28
458.23	414.20
458.59	409.68
458.96	405.03
459.33	400.93
459.70	396.75
460.07	393.56
460.43	389.82
460.80	386.31
461.17	383.21
461.54	379.87
461.91	376.75
462.27	373.59
462.64	371.00
463.01	368.03
463.38	365.04
463.74	362.34
464.11	359.93
464.48	357.75
464.85	355.41
465.21	353.63
465.58	351.66
465.95	349.38
466.32	347.57
466.68	345.79
467.05	344.02
467.42	342.30
467.78	340.45
468.15	338.74
468.52	337.47
468.88	335.81
469.25	334.29
469.62	333.08
469.98	331.77
470.35	330.61
470.72	329.56
471.08	328.49
471.45	327.61
471.82	326.64
472.18	325.63
472.55	324.97
472.92	324.16
473.28	323.53
473.65	322.89
474.02	322.28
474.38	321.78
474.75	321.50
475.11	321.09
475.48	320.94
475.85	320.78
476.21	320.74
476.58	320.75
476.94	320.96
477.31	321.09
477.67	321.25
478.04	321.53
478.41	321.87
478.77	322.35
479.14	322.70
479.50	323.28
479.87	323.99
480.23	324.70
480.60	325.39
480.96	326.10
481.33	327.08
481.69	328.06
482.06	329.02
482.42	329.93
482.79	331.03
483.15	332.29
483.52	333.68
483.88	335.05
484.25	336.49
484.61	338.00
484.98	339.62
485.34	341.43
485.71	343.31
486.07	345.31
486.44	347.30
486.80	349.51
487.17	351.76
487.53	354.26
487.90	356.84
488.26	359.65
488.62	362.61
488.99	365.58
489.35	368.69
489.72	372.04
490.08	375.56
490.44	379.18
490.81	382.96
491.17	386.84
491.54	390.97
491.90	395.20
492.26	399.78
492.63	404.59
492.99	409.59
493.36	414.71
493.72	420.12
494.08	425.66
494.45	431.52
494.81	437.59
495.17	443.78
495.54	450.32
495.90	457.18
496.26	464.17
496.63	471.41
496.99	478.93
497.35	486.83
497.72	495.02
498.08	503.38
498.44	512.00
498.80	521.18
499.17	530.60
499.53	540.35
499.89	550.33
500.26	560.48
500.62	570.92
500.98	582.04
501.34	593.32
501.71	605.13
502.07	617.18
502.43	629.63
502.79	642.41
503.16	655.61
503.52	668.99
503.88	682.76
504.24	696.95
504.60	711.43
504.97	726.30
505.33	741.57
505.69	757.76
506.05	774.15
506.41	790.54
506.78	807.22
507.14	824.39
507.50	842.17
507.86	860.34
508.22	878.80
508.59	897.27
508.95	916.46
509.31	936.10
509.67	956.43
510.03	976.98
510.39	997.75
510.75	1018.77
511.12	1040.08
511.48	1061.70
511.84	1083.42
512.20	1105.46
512.56	1128.61
512.92	1151.92
513.28	1174.97
513.64	1198.33
514.00	1222.12
514.37	1246.23
514.73	1270.37
515.09	1294.30
515.45	1318.68
515.81	1343.62
516.17	1368.61
516.53	1393.27
516.89	1417.96
517.25	1442.86
517.61	1467.93
517.97	1493.20
518.33	1518.20
518.69	1543.33
519.05	1568.71
519.41	1594.23
519.77	1620.01
520.13	1644.98
520.49	1670.15
520.85	1695.50
521.21	1720.77
521.57	1746.62
521.93	1771.77
522.29	1797.74
522.65	1823.44
523.01	1848.91
523.37	1873.62
523.73	1898.95
524.09	1924.48
524.45	1949.93
524.81	1974.87
525.17	1999.71
525.53	2024.12
525.89	2048.53
526.25	2073.13
526.61	2097.21
526.97	2121.56
527.33	2145.84
527.68	2169.93
528.04	2193.17
528.40	2216.28
528.76	2239.55
529.12	2261.76
529.48	2284.33
529.84	2305.05
530.20	2326.33
530.56	2347.25
530.91	2368.23
531.27	2388.69
531.63	2408.49
531.99	2427.76
532.35	2446.70
532.71	2465.74
533.07	2485.33
533.42	2503.40
533.78	2521.86
534.14	2540.30
534.50	2557.89
534.86	2576.09
535.21	2592.43
535.57	2608.70
535.93	2624.25
536.29	2638.58
536.65	2653.74
537.00	2667.76
537.36	2682.31
537.72	2695.78
538.08	2708.90
538.44	2720.88
538.79	2733.08
539.15	2743.64
539.51	2754.11
539.87	2764.22
540.22	2772.18
540.58	2780.28
540.94	2788.91
541.29	2796.01
541.65	2802.12
542.01	2807.73
542.37	2811.44
542.72	2817.12
543.08	2822.26
543.44	2827.21
543.79	2831.35
544.15	2834.59
544.51	2837.82
544.87	2840.13
545.22	2842.07
545.58	2843.09
545.94	2844.54
546.29	2844.50
546.65	2844.54
547.01	2844.69
547.36	2844.93
547.72	2845.34
548.07	2844.29
548.43	2842.57
548.79	2840.22
549.14	2837.86
549.50	2836.21
549.86	2833.64
550.21	2828.61
550.57	2824.01
550.92	2818.10
551.28	2812.75
551.64	2807.36
551.99	2802.32
552.35	2796.91
552.70	2791.03
553.06	2785.90
553.41	2780.27
553.77	2774.12
554.13	2768.69
554.48	2762.29
554.84	2754.26
555.19	2746.37
555.55	2737.93
555.90	2730.11
556.26	2723.28
556.61	2715.83
556.97	2706.12
557.32	2697.32
557.68	2688.96
558.03	2679.96
558.39	2671.63
558.74	2663.44
559.10	2654.01
559.45	2644.22
559.81	2634.79
560.16	2624.71
560.52	2614.19
560.87	2604.72
561.23	2594.84
561.58	2584.40
561.94	2573.71
562.29	2562.56
562.64	2552.06
563.00	2541.86
563.35	2531.50
563.71	2520.24
564.06	2508.47
564.42	2497.73
564.77	2486.65
565.12	2475.68
565.48	2464.45
565.83	2453.87
566.19	2443.31
566.54	2432.36
566.89	2420.54
567.25	2408.66
567.60	2397.58
567.96	2386.06
568.31	2373.12
568.66	2360.16
569.02	2348.29
569.37	2336.15
569.72	2324.53
570.08	2312.18
570.43	2299.30
570.78	2286.11
571.14	2272.74
571.49	2260.15
571.84	2247.85
572.20	2234.28
572.55	2221.08
572.90	2207.77
573.26	2193.50
573.61	2178.70
573.96	2164.22
574.31	2150.12
574.67	2136.23
575.02	2121.91
575.37	2107.17
575.72	2092.68
576.08	2078.80
576.43	2063.88
576.78	2049.07
577.13	2035.08
577.49	2021.06
577.84	2007.44
578.19	1992.98
578.54	1978.18
578.90	1962.88
579.25	1947.28
579.60	1933.11
579.95	1918.56
580.30	1904.04
580.66	1889.86
581.01	1875.33
581.36	1861.08
581.71	1847.39
582.06	1833.22
582.42	1819.16
582.77	1805.84
583.12	1792.16
583.47	1778.54
583.82	1765.04
584.17	1751.43
584.53	1737.64
584.88	1723.89
585.23	1709.76
585.58	1696.19
585.93	1683.06
586.28	1670.74
586.63	1658.24
586.98	1645.01
587.34	1632.03
587.69	1618.55
588.04	1605.33
588.39	1592.77
588.74	1579.75
589.09	1566.46
589.44	1553.14
589.79	1540.36
590.14	1527.45
590.49	1514.79
590.84	1501.98
591.19	1489.82
591.54	1477.14
591.89	1464.34
592.25	1451.87
592.60	1439.05
592.95	1426.75
593.30	1414.75
593.65	1402.51
594.00	1390.52
594.35	1379.29
594.70	1367.28
595.05	1356.37
595.40	1345.23
595.75	1333.50
596.10	1322.58
596.45	1311.87
596.80	1301.63
597.15	1291.20
597.50	1280.76
597.85	1270.51
598.19	1260.45
598.54	1249.79
598.89	1239.89
599.24	1230.29
599.59	1220.46
599.94	1211.65
600.29	1202.71
600.64	1193.53
600.99	1183.80
601.34	1174.51
601.69	1164.67
602.04	1155.87
602.39	1146.89
602.74	1138.16
603.08	1129.70
603.43	1120.74
603.78	1111.69
604.13	1102.77
604.48	1093.78
604.83	1085.06
605.18	1076.25
605.53	1067.37
605.87	1058.62
606.22	1050.13
606.57	1041.38
606.92	1032.73
607.27	1023.95
607.62	1015.26
607.96	1006.75
608.31	999.24
608.66	991.29
609.01	983.76
609.36	976.20
609.70	968.40
610.05	960.44
610.40	952.82
610.75	945.31
611.10	938.08
611.44	930.47
611.79	923.17
612.14	915.49
612.49	907.97
612.83	900.92
613.18	893.91
613.53	886.69
613.88	879.59
614.22	873.07
614.57	866.36
614.92	859.66
615.27	852.98
615.61	846.15
615.96	839.55
616.31	832.88
616.65	826.10
617.00	819.57
617.35	813.18
617.70	806.82
618.04	800.52
618.39	794.24
618.74	788.30
619.08	782.18
619.43	776.30
619.78	770.44
620.12	764.39
620.47	758.53
620.82	752.78
621.16	747.30
621.51	741.48
621.85	735.64
622.20	729.87
622.55	724.28
622.89	718.64
623.24	713.05
623.59	707.51
623.93	702.03
624.28	696.70
624.62	691.35
624.97	685.99
625.32	680.74
625.66	675.34
626.01	669.94
626.35	664.68
626.70	659.46
627.04	654.43
627.39	649.46
627.73	644.59
628.08	639.93
628.43	635.16
628.77	630.45
629.12	625.89
629.46	621.48
629.81	616.89
630.15	612.20
630.50	607.67
630.84	603.33
631.19	599.18
631.53	595.06
631.88	590.82
632.22	586.68
632.57	582.78
632.91	578.84
633.26	574.98
633.60	571.19
633.95	567.50
634.29	563.67
634.64	559.81
634.98	555.85
635.32	552.06
635.67	548.39
636.01	544.68
636.36	541.00
636.70	537.46
637.05	533.93
637.39	530.60
637.73	527.13
638.08	523.72
638.42	520.28
638.77	516.72
639.11	513.17
639.45	509.64
639.80	506.11
640.14	502.76
640.49	499.37
640.83	495.87
641.17	492.42
641.52	489.13
641.86	485.83
642.20	482.70
642.55	479.41
642.89	476.22
643.23	473.21
643.58	470.43
643.92	467.54
644.26	464.68
644.61	461.80
644.95	458.93
645.29	456.01
645.64	453.07
645.98	450.26
646.32	447.62
646.66	444.99
647.01	442.33
647.35	439.73
647.69	437.02
648.04	434.46
648.38	431.93
648.72	429.36
649.06	426.87
649.41	424.40
649.75	421.92
650.09	419.47
650.43	417.03
650.78	414.56
651.12	412.08
651.46	409.70
651.80	407.42
652.14	405.21
652.49	403.01
652.83	400.87
653.17	398.72
653.51	396.61
653.85	394.58
654.20	392.49
654.54	390.32
654.88	388.35
655.22	386.43
655.56	384.46
655.90	382.58
656.25	380.72
656.59	378.86
656.93	377.10
657.27	375.38
657.61	373.57
657.95	371.81
658.29	370.07
658.64	368.35
658.98	366.61
659.32	364.90
659.66	363.29
660.00	361.69
660.34	360.12
660.68	358.51
661.02	356.82
661.36	355.25
661.70	353.75
662.05	352.22
662.39	350.67
662.73	349.23
663.07	347.81
663.41	346.41
663.75	345.03
664.09	343.65
664.43	342.20
664.77	340.84
665.11	339.42
665.45	338.09
665.79	336.75
666.13	335.40
666.47	334.04
666.81	332.65
667.15	331.23
667.49	329.92
667.83	328.65
668.17	327.43
668.51	326.22
668.85	325.03
669.19	323.91
669.53	322.72
669.87	321.51
670.21	320.33
670.55	319.15
670.89	318.06
671.23	316.93
671.57	315.82
671.91	314.76
672.25	313.77
672.58	312.75
672.92	311.71
673.26	310.74
673.60	309.77
673.94	308.79
674.28	307.87
674.62	306.94
674.96	305.98
675.30	305.07
675.64	304.14
675.97	303.23
676.31	302.28
676.65	301.36
676.99	300.51
677.33	299.59
677.67	298.73
678.01	297.78
678.34	296.91
678.68	296.09
679.02	295.24
679.36	294.40
679.70	293.57
680.04	292.76
680.37	291.94
680.71	291.17
681.05	290.43
681.39	289.64
681.73	288.83
682.06	288.06
682.40	287.30
682.74	286.57
683.08	285.86
683.42	285.12
683.75	284.46
684.09	283.72
684.43	283.03
684.77	282.33
685.10	281.67
685.44	281.00
685.78	280.32
686.12	279.67
686.45	279.01
686.79	278.35
687.13	277.72
687.46	277.06
687.80	276.42
688.14	275.74
688.48	275.12
688.81	274.50
689.15	273.93
689.49	273.31
689.82	272.72
690.16	272.06
690.50	271.48
690.83	270.89
691.17	270.31
691.51	269.76
691.84	269.21
692.18	268.64
692.52	268.05
692.85	267.50
693.19	266.97
693.52	266.44
693.86	265.91
694.20	265.39
694.53	264.89
694.87	264.37
695.21	263.88
695.54	263.39
695.88	262.89
696.21	262.36
696.55	261.87
696.88	261.39
697.22	260.92
697.56	260.45
697.89	259.93
698.23	259.44
698.56	258.94
698.90	258.49
699.23	258.03
699.57	257.60
699.90	257.16
700.24	256.69
700.58	256.26
700.91	255.87
701.25	255.53
701.58	255.17
701.92	254.79
702.25	254.40
702.59	253.99
702.92	253.60
703.26	253.23
703.59	252.85
703.93	252.55
704.26	252.19
704.60	251.83
704.93	251.48
705.26	251.13
705.60	250.82
705.93	250.45
706.27	250.15
706.60	249.84
706.94	249.54
707.27	249.18
707.61	248.84
707.94	248.49
708.27	248.07
708.61	247.71
708.94	247.37
709.28	247.05
709.61	246.74
709.94	246.45
710.28	246.16
710.61	245.89
710.95	245.52
711.28	245.31
711.61	245.03
711.95	244.79
712.28	244.51
712.61	244.23
712.95	244.02
713.28	243.81
713.61	243.53
713.95	243.25
714.28	243.03
714.61	242.77
714.95	242.54
715.28	242.29
715.61	242.06
715.95	241.84
716.28	241.60
716.61	241.40
716.95	241.16
717.28	240.94
717.61	240.72
717.94	240.50
718.28	240.22
718.61	240.00
718.94	239.77
719.27	239.57
719.61	239.38
719.94	239.16
720.27	238.90
720.60	238.71
720.94	238.52
721.27	238.34
721.60	238.18
721.93	238.00
722.27	237.85
722.60	237.69
722.93	237.50
723.26	237.34
723.59	237.15
723.93	236.99
724.26	236.84
724.59	236.68
724.92	236.52
725.25	236.40
725.59	236.24
725.92	236.11
726.25	235.96
726.58	235.81
726.91	235.65
727.24	235.53
727.57	235.38
727.91	235.22
728.24	235.09
728.57	234.94
728.90	234.81
729.23	234.64
729.56	234.55
729.89	234.41
730.22	234.27
730.55	234.14
730.89	234.00
731.22	233.86
731.55	233.72
731.88	233.59
732.21	233.45
732.54	233.32
732.87	233.20
733.20	233.09
733.53	232.98
733.86	232.88
734.19	232.75
734.52	232.66
734.85	232.63
735.18	232.49
735.51	232.41
735.84	232.31
736.17	232.24
736.50	232.07
736.83	232.10
737.16	232.01
737.49	231.92
737.82	231.82
738.15	231.75
738.48	231.66
738.81	231.56
739.14	231.45
739.47	231.35
739.80	231.25
740.13	231.17
740.46	231.06
740.79	230.95
741.12	230.87
741.45	230.76
741.78	230.61
742.11	230.56
742.44	230.45
742.77	230.38
743.10	230.28
743.43	230.19
743.75	229.99
744.08	230.06
744.41	229.97
744.74	229.88
745.07	229.78
745.40	229.72
745.73	229.69
746.06	229.62
746.39	229.56
746.71	229.48
747.04	229.40
747.37	229.32
747.70	229.27
748.03	229.20
748.36	229.15
748.68	229.07
749.01	228.97
749.34	228.90
749.67	228.83
750.00	228.78
750.33	228.79
750.65	228.74
750.98	228.52
751.31	228.46
751.64	228.41
751.97	228.40
752.29	228.33
752.62	228.22
752.95	228.14
753.28	228.07
753.60	228.01
753.93	227.96
754.26	227.91
754.59	227.81
754.91	227.74
755.24	227.68
755.57	227.66
755.90	227.60
756.22	227.53
756.55	227.46
756.88	227.38
757.20	227.26
757.53	227.17
757.86	227.11
758.19	227.07
758.51	227.01
758.84	226.91
759.17	226.85
759.49	226.81
759.82	226.81
760.15	226.77
760.47	226.72
760.80	226.65
761.13	226.62
761.45	226.58
761.78	226.53
762.11	226.49
762.43	226.39
762.76	226.34
763.08	226.32
763.41	226.28
763.74	226.24
764.06	226.20
764.39	226.16
764.71	226.12
765.04	226.06
765.37	226.01
765.69	225.96
766.02	225.93
766.34	225.87
766.67	225.79
767.00	225.77
767.32	225.78
767.65	225.81
767.97	225.76
768.30	225.73
768.62	225.69
768.95	225.64
769.27	225.61
769.60	225.59
769.92	225.54
770.25	225.48
770.57	225.43
770.90	225.39
771.22	225.35
771.55	225.32
771.87	225.30
772.20	225.27
772.52	225.33
772.85	225.42
773.17	225.40
773.50	225.36
773.82	225.31
774.15	225.23
774.47	225.13
774.80	225.09
775.12	225.06
775.45	225.03
775.77	225.01
776.09	224.99
776.42	224.96
776.74	224.97
777.07	224.94
777.39	224.92
777.72	224.89
778.04	224.88
778.36	224.84
778.69	224.82
779.01	224.80
779.33	224.69
779.66	224.55
779.98	224.52
780.31	224.50
780.63	224.52
780.95	224.52
781.28	224.51
781.60	224.48
781.92	224.46
782.25	224.44
782.57	224.43
782.89	224.40
783.22	224.37
783.54	224.32
783.86	224.32
784.19	224.29
784.51	224.31
784.83	224.28
785.16	224.26
785.48	224.24
785.80	224.22
786.12	224.21
786.45	224.19
786.77	224.18
787.09	224.16
787.42	224.11
787.74	224.09
788.06	224.08
788.38	224.06
788.71	224.04
789.03	224.03
789.35	224.02
789.67	223.99
789.99	223.99
790.32	223.96
790.64	223.96
790.96	224.04
791.28	223.99
791.61	223.98
791.93	223.97
792.25	223.95
792.57	224.01
792.89	223.98
793.21	223.98
793.54	223.95
793.86	223.93
794.18	223.91
794.50	223.88
794.82	223.86
795.14	223.87
795.47	223.87
795.79	223.86
796.11	223.82
796.43	223.81
796.75	223.79
797.07	223.79
797.39	223.76
797.71	223.67
798.04	223.66
798.36	223.65
798.68	223.64
799.00	223.64
799.32	223.57
799.64	223.58
799.96	223.57
800.28	223.58
800.60	223.57
800.92	223.56
801.24	223.55
801.56	223.55
801.89	223.53
802.21	223.52
802.53	223.49
802.85	223.51
803.17	223.55
803.49	223.51
803.81	223.50
804.13	223.48
804.45	223.46
804.77	223.46
805.09	223.45
805.41	223.43
805.73	223.40
806.05	223.36
806.37	223.34
806.69	223.33
807.01	223.31
807.33	223.31
807.65	223.26
807.97	223.31
808.28	223.28
808.60	223.27
808.92	223.25
809.24	223.31
809.56	223.28
809.88	223.24
810.20	223.24
810.52	223.25
810.84	223.24
811.16	223.22
811.48	223.21
811.80	223.24
812.12	223.23
812.43	223.24
812.75	223.25
813.07	223.23
813.39	223.23
813.71	223.21
814.03	223.19
814.35	223.19
814.67	223.13
814.98	223.13
815.30	223.12
815.62	223.10
815.94	223.02
816.26	223.03
816.58	223.01
816.89	223.01
817.21	222.97
817.53	222.98
817.85	222.98
818.17	222.97
818.48	222.92
818.80	222.94
819.12	222.91
819.44	222.89
819.76	222.87
820.07	222.87
820.39	222.86
820.71	222.87
821.03	222.86
821.34	222.86
821.66	222.86
821.98	222.87
822.30	222.86
822.61	222.92
822.93	222.90
823.25	222.90
823.57	222.89
823.88	222.90
824.20	222.89
824.52	222.91
824.83	222.90
825.15	222.89
825.47	222.88
825.79	222.88
826.10	222.88
826.42	222.87
826.74	222.88
827.05	222.87
827.37	222.87
827.69	222.86
828.00	222.86
828.32	222.86
828.64	222.84
828.95	222.89
829.27	222.86
829.58	222.86
829.90	222.88
830.22	222.88
830.53	222.86
830.85	222.85
831.17	222.82
831.48	222.81
831.80	222.82
832.11	222.81
832.43	222.79
832.75	222.79
833.06	222.85
833.38	222.82
833.69	222.81
834.01	222.81
834.32	222.81
834.64	222.79
834.96	222.79
835.27	222.79
835.59	222.74
835.90	222.73
836.22	222.71
836.53	222.69
836.85	222.68
837.16	222.78
837.48	222.78
837.79	222.82
838.11	222.82
838.42	222.81
838.74	222.83
839.05	222.82
839.37	222.81
839.68	222.74
840.00	222.74
840.31	222.75
840.63	222.74
840.94	222.73
841.26	222.72
841.57	222.71
841.88	222.72
842.20	222.71
842.51	222.69
842.83	222.69
843.14	222.79
843.46	222.78
843.77	222.72
844.08	222.71
844.40	222.67
844.71	222.66
845.03	222.65
845.34	222.64
845.65	222.63
845.97	222.63
846.28	222.64
846.60	222.64
846.91	222.62
847.22	222.62
847.54	222.64
847.85	222.64
848.16	222.63
848.48	222.60
848.79	222.64
849.10	222.66
849.42	222.66
849.73	222.56
850.04	222.56
850.36	222.52
850.67	222.54
850.98	222.54
851.30	222.54
851.61	222.54
851.92	222.54
852.23	222.58
852.55	222.58
852.86	222.58
853.17	222.59
853.49	222.61
853.80	222.63
854.11	222.63
854.42	222.65
854.74	222.64
855.05	222.65
855.36	222.59
855.67	222.59
855.99	222.59
856.30	222.71
856.61	222.71
856.92	222.71
857.23	222.71
857.55	222.70
857.86	222.69
858.17	222.71
858.48	222.69
858.79	222.67
859.11	222.67
859.42	222.67
859.73	222.65
860.04	222.64
860.35	222.61
860.66	222.58
860.98	222.57
861.29	222.58
861.60	222.57
861.91	222.59
862.22	222.58
862.53	222.57
862.84	222.44
863.16	222.46
863.47	222.45
863.78	222.43
864.09	222.44
864.40	222.44
864.71	222.44
865.02	222.45
865.33	222.44
865.64	222.42
865.95	222.42
866.27	222.49
866.58	222.47
866.89	222.49
867.20	222.49
867.51	222.47
867.82	222.46
868.13	222.49
868.44	222.47
868.75	222.49
869.06	222.49
869.37	222.51
869.68	222.48
869.99	222.50
870.30	222.51
870.61	222.51
870.92	222.50
871.23	222.49
871.54	222.50
871.85	222.53
872.16	222.54
872.47	222.53
872.78	222.47
873.09	222.48
873.40	222.47
873.71	222.48
874.02	222.49
874.33	222.48
874.64	222.46
874.95	222.47
875.26	222.45
875.56	222.45
875.87	222.44
876.18	222.44
876.49	222.53
876.80	222.52
877.11	222.50
877.42	222.51
877.73	222.51
878.04	222.49
878.35	222.49
878.66	222.48
878.96	222.48
879.27	222.48
879.58	222.47
879.89	222.46
880.20	222.49
880.51	222.48
880.82	222.48
881.12	222.49
881.43	222.47
881.74	222.45
882.05	222.45
882.36	222.45
882.67	222.46
882.97	222.34
883.28	222.34
883.59	222.33
883.90	222.34
884.21	222.35
884.51	222.35
884.82	222.33
885.13	222.33
885.44	222.33
885.74	222.32
886.05	222.32
886.36	222.32
886.67	222.29
886.98	222.34
887.28	222.34
887.59	222.34
887.90	222.34
888.20	222.34
888.51	222.36
888.82	222.35
889.13	222.35
889.43	222.44
889.74	222.44
890.05	222.43
890.35	222.42
890.66	222.40
890.97	222.39
891.28	222.38
891.58	222.38
891.89	222.38
892.20	222.38
892.50	222.36
892.81	222.35
893.12	222.35
893.42	222.30
893.73	222.30
894.04	222.30
894.34	222.31
894.65	222.31
894.95	222.30
895.26	222.30
895.57	222.34
895.87	222.23
896.18	222.25
896.48	222.26
896.79	222.26
897.10	222.28
897.40	222.28
897.71	222.30
898.01	222.29
898.32	222.29
898.63	222.29
898.93	222.30
899.24	222.31
899.54	222.30
899.85	222.29
900.15	222.29
900.46	222.29
900.76	222.29
901.07	222.29
901.38	222.29
901.68	222.30
901.99	222.25
902.29	222.25
902.60	222.24
902.90	222.23
903.21	222.23
903.51	222.22
903.82	222.24
904.12	222.23
904.43	222.23
904.73	222.23
905.03	222.23
905.34	222.32
905.64	222.31
905.95	222.31
906.25	222.31
906.56	222.31
906.86	222.31
907.17	222.30
907.47	222.31
907.77	222.29
908.08	222.27
908.38	222.27
908.69	222.28
908.99	222.30
909.30	222.30
909.60	222.30
909.90	222.31
910.21	222.28
910.51	222.26
910.81	222.26
911.12	222.27
911.42	222.27
911.73	222.17
912.03	222.18
912.33	222.20
912.64	222.19
912.94	222.18
913.24	222.16
913.55	222.15
913.85	222.14
914.15	222.16
914.46	222.18
914.76	222.16
915.06	222.15
915.37	222.13
915.67	222.13
915.97	222.13
916.27	222.10
916.58	222.11
916.88	222.11
917.18	222.10
917.49	222.17
917.79	222.16
918.09	222.17
918.39	222.20
918.70	222.19
919.00	222.20
919.30	222.25
919.60	222.24
919.91	222.23
920.21	222.24
920.51	222.22
920.81	222.21
921.12	222.23
921.42	222.23
921.72	222.24
922.02	222.24
922.32	222.25
922.63	222.25
922.93	222.31
923.23	222.32
923.53	222.31
923.83	222.24
924.13	222.25
924.44	222.25
924.74	222.26
925.04	222.28
925.34	222.28
925.64	222.23
925.94	222.24
926.24	222.29
926.55	222.28
926.85	222.29
927.15	222.29
927.45	222.29
927.75	222.29
928.05	222.28
928.35	222.28
928.65	222.29
928.95	222.31
929.26	222.25
929.56	222.27
929.86	222.28
930.16	222.27
930.46	222.26
930.76	222.26
931.06	222.21
931.36	222.18
931.66	222.20
931.96	222.22
932.26	222.22
932.56	222.18
932.86	222.19
933.16	222.18
933.46	222.18
933.76	222.16
934.06	222.18
934.36	222.22
934.66	222.21
934.96	222.20
935.26	222.20
935.56	222.22
935.86	222.19
936.16	222.18
936.46	222.17
936.76	222.17
937.06	222.15
937.36	222.16
937.66	222.16
937.96	222.15
938.26	222.13
938.56	222.13
938.86	222.13
939.16	222.15
939.46	222.16
939.76	222.16
940.06	222.17
940.35	222.15
940.65	222.10
940.95	222.11
941.25	222.09
941.55	222.07
941.85	222.06
942.15	222.08
942.45	222.11
942.75	222.11
943.04	222.12
943.34	222.14
943.64	222.13
943.94	222.11
944.24	222.12
944.54	222.13
944.84	222.12
945.13	222.11
945.43	222.09
945.73	222.09
946.03	222.08
946.33	222.07
946.62	222.06
946.92	222.06
947.22	222.06
947.52	222.07
947.82	222.08
948.11	222.07
948.41	222.04
948.71	222.02
949.01	222.02
949.31	222.01
949.60	222.00
949.90	222.02
950.20	222.02
950.50	222.01
950.79	222.00
951.09	222.02
951.39	222.01
951.69	222.00
951.98	222.01
952.28	222.02
952.58	222.02
952.87	222.02
953.17	222.04
953.47	222.02
953.76	222.02
954.06	222.00
954.36	221.99
954.66	221.98
954.95	222.01
955.25	222.02
955.55	222.03
955.84	222.01
956.14	222.02
956.44	222.02
956.73	222.00
957.03	222.01
957.32	222.02
957.62	222.01
957.92	222.03
958.21	222.02
958.51	222.14
958.81	222.16
959.10	222.16
959.40	222.18
959.69	222.20
959.99	222.21
960.29	222.21
960.58	222.22
960.88	222.26
961.17	222.24
961.47	222.25
961.76	222.24
962.06	222.26
962.36	222.25
962.65	222.26
962.95	222.27
963.24	222.25
963.54	222.25
963.83	222.26
964.13	222.25
964.42	222.24
964.72	222.15
965.01	222.15
965.31	222.15
965.60	222.12
965.90	222.18
966.19	222.15
966.49	222.16
966.78	222.16
967.08	222.14
967.37	222.15
967.67	222.13
967.96	222.14
968.26	222.14
968.55	222.15
968.85	222.15
969.14	222.15
969.43	222.15
969.73	222.14
970.02	222.14
970.32	222.13
970.61	222.12
970.91	222.09
971.20	222.07
971.49	222.07
971.79	222.08
972.08	222.01
972.38	222.02
972.67	222.02
972.96	222.03
973.26	222.01
973.55	222.04
973.85	222.04
974.14	222.03
974.43	222.04
974.73	222.02
975.02	222.01
975.31	222.01
975.61	222.01
975.90	222.00
976.19	221.99
976.49	222.00
976.78	222.00
977.07	222.01
977.37	222.01
977.66	222.02
977.95	222.01
978.24	222.02
978.54	222.04
978.83	222.03
979.12	222.02
979.42	222.03
979.71	222.01
980.00	222.00
980.29	222.01
980.59	221.99
980.88	222.02
981.17	222.02
981.46	222.02
981.76	222.01
982.05	222.05
982.34	222.06
982.63	222.05
982.93	222.05
983.22	222.08
983.51	222.08
983.80	222.09
984.09	222.11
984.39	222.10
984.68	222.08
984.97	222.09
985.26	222.08
985.55	222.08
985.85	222.06
986.14	222.07
986.43	222.09
986.72	222.08
987.01	222.05
987.30	222.05
987.59	222.05
987.89	222.05
988.18	222.01
988.47	222.00
988.76	222.00
989.05	221.98
989.34	221.97
989.63	222.00
989.92	221.98
990.22	221.97
990.51	221.96
990.80	221.95
991.09	221.96
991.38	221.97
991.67	221.96
991.96	221.95
992.25	221.96
992.54	221.94
992.83	221.94
993.12	221.93
993.41	221.95
993.70	221.99
993.99	222.01
994.28	222.03
994.58	222.05
994.87	222.04
995.16	222.04
995.45	222.03
995.74	222.00
996.03	222.01
996.32	222.03
996.61	222.05
996.90	222.05
997.19	222.04
997.48	222.04
997.77	222.04
998.06	222.05
998.34	222.03
998.63	222.04
998.92	222.04
999.21	222.05
999.50	222.05
999.79	222.01
1000.08	222.01
1000.37	222.01
1000.66	221.99
1000.95	222.02
1001.24	222.02
1001.53	222.03
1001.82	222.03
1002.11	222.01
1002.40	222.01
1002.68	222.03
1002.97	222.11
1003.26	222.10
1003.55	222.08
1003.84	222.09
1004.13	222.12
1004.42	222.12
1004.71	222.11
1004.99	222.10
1005.28	222.13
1005.57	222.12
1005.86	222.11
1006.15	222.10
1006.44	222.08
1006.72	222.09
1007.01	222.07
1007.30	222.07
1007.59	222.06
1007.88	222.06
1008.17	222.06
1008.45	222.04
1008.74	222.00
1009.03	221.96
1009.32	221.96
1009.60	221.96
1009.89	221.95
1010.18	221.90
1010.47	221.90
1010.76	221.90
1011.04	221.90
1011.33	221.89
1011.62	221.90
1011.91	221.91
1012.19	221.91
1012.48	221.92
1012.77	221.91
1013.05	221.95
1013.34	221.95
1013.63	221.94
1013.92	221.95
1014.20	221.94
1014.49	221.95
1014.78	221.96
1015.06	221.92
1015.35	221.92
1015.64	221.94
1015.92	221.96
1016.21	221.96
1016.50	221.97
1016.78	221.98
1017.07	221.99
1017.36	221.97
1017.64	221.95
1017.93	221.96
1018.22	221.95
1018.50	221.94
1018.79	221.94
1019.08	221.90
1019.36	221.91
1019.65	221.90
1019.93	221.93
1020.22	221.94
1020.51	222.00
1020.79	221.99
1021.08	221.76
1021.36	221.75
1021.65	221.90
1021.94	221.88
1022.22	222.04
1022.51	221.74
1022.79	222.45
1023.08	222.07
1023.36	223.21
1023.65	221.75
>>>>>End Processed Spectral Data<<<<<
