SpectraSuite Data File
++++++++++++++++++++++++++++++++++++
Date: Wed Sep 30 16:41:25 EDT 2015
User: lab3
Dark Spectrum Present: No
Reference Spectrum Present: No
Number of Sampled Component Spectra: 1
Spectrometers: USB2E7196
Integration Time (usec): 36000 (USB2E7196)
Spectra Averaged: 3000 (USB2E7196)
Boxcar Smoothing: 10 (USB2E7196)
Correct for Electrical Dark: No (USB2E7196)
Strobe/Lamp Enabled: No (USB2E7196)
Correct for Detector Non-linearity: No (USB2E7196)
Correct for Stray Light: No (USB2E7196)
Number of Pixels in Processed Spectrum: 2048
>>>>>Begin Processed Spectral Data<<<<<
339.09	0.00
339.48	210.96
339.86	212.45
340.24	213.92
340.63	215.29
341.01	218.15
341.39	217.85
341.78	219.22
342.16	220.40
342.54	220.94
342.93	209.50
343.31	220.08
343.69	220.62
344.07	221.08
344.46	221.50
344.84	221.88
345.22	222.12
345.60	222.37
345.99	222.56
346.37	222.70
346.75	222.81
347.13	222.88
347.52	222.95
347.90	223.03
348.28	223.06
348.66	223.11
349.05	223.11
349.43	223.16
349.81	223.22
350.19	223.27
350.57	223.34
350.96	223.42
351.34	223.51
351.72	223.60
352.10	223.70
352.48	223.78
352.87	223.83
353.25	223.90
353.63	223.97
354.01	224.03
354.39	224.11
354.77	224.18
355.15	224.28
355.54	224.34
355.92	224.38
356.30	224.46
356.68	224.59
357.06	224.67
357.44	224.72
357.82	224.77
358.20	224.88
358.58	224.94
358.97	225.00
359.35	225.08
359.73	225.16
360.11	225.22
360.49	225.27
360.87	225.33
361.25	225.38
361.63	225.47
362.01	225.52
362.39	225.55
362.77	225.60
363.15	225.63
363.53	225.66
363.91	225.70
364.29	225.72
364.67	225.65
365.05	225.68
365.43	225.71
365.81	225.74
366.19	225.77
366.57	225.82
366.95	225.82
367.33	225.80
367.71	225.80
368.09	225.82
368.47	225.81
368.85	225.80
369.23	225.81
369.61	225.76
369.99	225.77
370.37	225.77
370.75	225.83
371.13	225.80
371.51	225.76
371.89	225.74
372.27	225.71
372.65	225.69
373.03	225.65
373.41	225.60
373.78	225.55
374.16	225.46
374.54	225.38
374.92	225.33
375.30	225.29
375.68	225.22
376.06	225.17
376.44	225.12
376.82	225.08
377.19	225.02
377.57	224.98
377.95	224.90
378.33	224.83
378.71	224.69
379.09	224.64
379.47	224.61
379.84	224.54
380.22	224.48
380.60	224.40
380.98	224.35
381.36	224.30
381.73	224.24
382.11	224.22
382.49	224.17
382.87	224.11
383.25	224.06
383.62	224.13
384.00	224.06
384.38	224.02
384.76	224.00
385.13	223.98
385.51	223.94
385.89	223.89
386.27	223.86
386.64	223.83
387.02	223.78
387.40	223.73
387.78	223.72
388.15	223.69
388.53	223.66
388.91	223.64
389.29	223.60
389.66	223.59
390.04	223.54
390.42	223.54
390.79	223.52
391.17	223.50
391.55	223.36
391.92	223.35
392.30	223.35
392.68	223.31
393.05	223.28
393.43	223.28
393.81	223.28
394.18	223.26
394.56	223.26
394.94	223.29
395.31	223.29
395.69	223.31
396.06	223.34
396.44	223.36
396.82	223.36
397.19	223.44
397.57	223.45
397.95	223.50
398.32	223.50
398.70	223.53
399.07	223.60
399.45	223.63
399.82	223.68
400.20	223.71
400.58	223.76
400.95	223.77
401.33	223.84
401.70	223.98
402.08	224.06
402.45	224.13
402.83	224.23
403.20	224.33
403.58	224.42
403.95	224.53
404.33	224.66
404.71	224.78
405.08	224.96
405.46	225.11
405.83	225.26
406.21	225.43
406.58	225.62
406.96	225.79
407.33	226.00
407.70	226.25
408.08	226.58
408.45	226.86
408.83	227.16
409.20	227.44
409.58	227.69
409.95	228.04
410.33	228.41
410.70	228.76
411.08	229.16
411.45	229.59
411.82	230.03
412.20	230.52
412.57	231.12
412.95	231.57
413.32	232.17
413.69	232.80
414.07	233.46
414.44	234.17
414.82	234.91
415.19	235.77
415.56	236.63
415.94	237.53
416.31	238.54
416.68	239.56
417.06	240.73
417.43	241.83
417.81	243.10
418.18	244.40
418.55	245.81
418.93	247.27
419.30	248.80
419.67	250.44
420.04	252.13
420.42	253.88
420.79	255.92
421.16	257.97
421.54	260.05
421.91	262.23
422.28	264.49
422.66	266.92
423.03	269.24
423.40	271.69
423.77	274.30
424.15	276.98
424.52	279.77
424.89	282.79
425.26	285.79
425.64	288.58
426.01	291.70
426.38	294.91
426.75	298.22
427.13	301.61
427.50	305.14
427.87	308.82
428.24	312.54
428.61	316.08
428.99	319.91
429.36	324.11
429.73	328.12
430.10	332.14
430.47	336.23
430.85	340.44
431.22	344.92
431.59	349.53
431.96	354.02
432.33	358.99
432.70	363.70
433.08	369.26
433.45	374.51
433.82	379.67
434.19	385.44
434.56	391.11
434.93	396.57
435.30	401.96
435.68	408.02
436.05	413.95
436.42	419.89
436.79	425.30
437.16	431.15
437.53	437.41
437.90	443.65
438.27	449.74
438.64	456.35
439.01	462.33
439.38	467.78
439.75	473.05
440.13	479.05
440.50	484.76
440.87	489.26
441.24	494.22
441.61	499.68
441.98	503.68
442.35	508.45
442.72	513.34
443.09	518.02
443.46	521.06
443.83	523.31
444.20	525.21
444.57	527.97
444.94	529.61
445.31	531.33
445.68	532.85
446.05	534.03
446.42	533.91
446.79	533.70
447.16	533.55
447.53	533.45
447.90	531.75
448.27	530.16
448.64	527.61
449.01	525.97
449.37	522.26
449.74	518.88
450.11	514.53
450.48	509.72
450.85	504.89
451.22	500.80
451.59	496.79
451.96	493.14
452.33	487.77
452.70	483.00
453.07	477.17
453.43	471.32
453.80	465.66
454.17	460.21
454.54	455.17
454.91	449.44
455.28	444.06
455.65	438.99
456.02	433.59
456.38	429.23
456.75	423.57
457.12	419.04
457.49	414.46
457.86	410.08
458.23	406.26
458.59	402.04
458.96	397.66
459.33	393.82
459.70	389.92
460.07	386.94
460.43	383.42
460.80	380.12
461.17	377.22
461.54	374.10
461.91	371.16
462.27	368.18
462.64	365.74
463.01	362.94
463.38	360.11
463.74	357.53
464.11	355.25
464.48	353.19
464.85	350.98
465.21	349.29
465.58	347.42
465.95	345.26
466.32	343.53
466.68	341.84
467.05	340.15
467.42	338.51
467.78	336.73
468.15	335.09
468.52	333.87
468.88	332.27
469.25	330.79
469.62	329.63
469.98	328.37
470.35	327.25
470.72	326.23
471.08	325.20
471.45	324.36
471.82	323.41
472.18	322.43
472.55	321.79
472.92	321.01
473.28	320.40
473.65	319.77
474.02	319.17
474.38	318.67
474.75	318.38
475.11	317.98
475.48	317.82
475.85	317.64
476.21	317.58
476.58	317.58
476.94	317.75
477.31	317.86
477.67	317.99
478.04	318.24
478.41	318.56
478.77	319.01
479.14	319.33
479.50	319.87
479.87	320.54
480.23	321.22
480.60	321.87
480.96	322.53
481.33	323.47
481.69	324.40
482.06	325.34
482.42	326.22
482.79	327.27
483.15	328.49
483.52	329.85
483.88	331.17
484.25	332.57
484.61	334.03
484.98	335.60
485.34	337.36
485.71	339.17
486.07	341.12
486.44	343.04
486.80	345.19
487.17	347.40
487.53	349.82
487.90	352.33
488.26	355.06
488.62	357.95
488.99	360.82
489.35	363.84
489.72	367.09
490.08	370.51
490.44	374.02
490.81	377.69
491.17	381.46
491.54	385.50
491.90	389.63
492.26	394.07
492.63	398.75
492.99	403.60
493.36	408.60
493.72	413.85
494.08	419.24
494.45	424.92
494.81	430.80
495.17	436.81
495.54	443.16
495.90	449.82
496.26	456.62
496.63	463.66
496.99	470.98
497.35	478.66
497.72	486.62
498.08	494.76
498.44	503.14
498.80	512.06
499.17	521.18
499.53	530.64
499.89	540.32
500.26	550.19
500.62	560.33
500.98	571.14
501.34	582.08
501.71	593.54
502.07	605.22
502.43	617.31
502.79	629.73
503.16	642.54
503.52	655.53
503.88	668.85
504.24	682.62
504.60	696.64
504.97	711.03
505.33	725.83
505.69	741.51
506.05	757.40
506.41	773.31
506.78	789.52
507.14	806.22
507.50	823.47
507.86	841.12
508.22	859.01
508.59	876.95
508.95	895.59
509.31	914.68
509.67	934.44
510.03	954.44
510.39	974.64
510.75	995.03
511.12	1015.70
511.48	1036.72
511.84	1057.88
512.20	1079.36
512.56	1101.94
512.92	1124.68
513.28	1147.13
513.64	1169.91
514.00	1193.13
514.37	1216.63
514.73	1240.15
515.09	1263.51
515.45	1287.27
515.81	1311.61
516.17	1335.97
516.53	1360.06
516.89	1384.23
517.25	1408.59
517.61	1433.11
517.97	1457.90
518.33	1482.50
518.69	1507.30
519.05	1532.34
519.41	1557.46
519.77	1582.90
520.13	1607.56
520.49	1632.41
520.85	1657.48
521.21	1682.39
521.57	1707.92
521.93	1732.74
522.29	1758.37
522.65	1783.78
523.01	1808.99
523.37	1833.41
523.73	1858.53
524.09	1883.85
524.45	1909.06
524.81	1933.80
525.17	1958.38
525.53	1982.60
525.89	2006.75
526.25	2031.08
526.61	2054.85
526.97	2078.96
527.33	2102.95
527.68	2126.80
528.04	2149.88
528.40	2172.78
528.76	2195.89
529.12	2217.98
529.48	2240.56
529.84	2261.30
530.20	2282.52
530.56	2303.41
530.91	2324.50
531.27	2345.05
531.63	2364.94
531.99	2384.29
532.35	2403.49
532.71	2422.88
533.07	2442.73
533.42	2461.11
533.78	2479.87
534.14	2498.61
534.50	2516.47
534.86	2534.95
535.21	2551.63
535.57	2568.14
535.93	2584.01
536.29	2598.59
536.65	2613.92
537.00	2628.22
537.36	2643.18
537.72	2657.11
538.08	2670.75
538.44	2683.27
538.79	2695.98
539.15	2706.92
539.51	2717.73
539.87	2727.93
540.22	2736.01
540.58	2744.33
540.94	2753.22
541.29	2760.56
541.65	2766.99
542.01	2772.95
542.37	2777.06
542.72	2783.05
543.08	2788.52
543.44	2793.79
543.79	2798.50
544.15	2802.31
544.51	2805.96
544.87	2808.66
545.22	2811.02
545.58	2812.34
545.94	2814.13
546.29	2814.46
546.65	2814.90
547.01	2815.50
547.36	2816.32
547.72	2817.41
548.07	2816.91
548.43	2815.79
548.79	2814.05
549.14	2812.23
549.50	2811.03
549.86	2808.84
550.21	2804.46
550.57	2800.54
550.92	2795.17
551.28	2790.41
551.64	2785.47
551.99	2780.90
552.35	2775.94
552.70	2770.50
553.06	2765.71
553.41	2760.38
553.77	2754.47
554.13	2749.35
554.48	2743.22
554.84	2735.60
555.19	2728.00
555.55	2719.74
555.90	2712.04
556.26	2705.41
556.61	2698.21
556.97	2688.82
557.32	2680.61
557.68	2672.45
558.03	2663.74
558.39	2655.86
558.74	2647.95
559.10	2639.03
559.45	2629.69
559.81	2620.51
560.16	2610.78
560.52	2600.65
560.87	2591.54
561.23	2582.05
561.58	2572.17
561.94	2562.15
562.29	2551.45
562.64	2541.30
563.00	2531.61
563.35	2521.76
563.71	2510.83
564.06	2499.57
564.42	2489.26
564.77	2478.48
565.12	2467.80
565.48	2456.80
565.83	2446.39
566.19	2436.17
566.54	2425.34
566.89	2413.76
567.25	2402.35
567.60	2391.68
567.96	2380.61
568.31	2368.23
568.66	2355.83
569.02	2344.37
569.37	2332.70
569.72	2321.59
570.08	2309.76
570.43	2297.34
570.78	2284.56
571.14	2271.82
571.49	2259.68
571.84	2247.79
572.20	2234.54
572.55	2221.92
572.90	2209.10
573.26	2195.45
573.61	2181.20
573.96	2167.24
574.31	2153.56
574.67	2140.02
575.02	2126.01
575.37	2111.62
575.72	2097.56
576.08	2083.91
576.43	2069.21
576.78	2054.53
577.13	2040.66
577.49	2026.90
577.84	2013.57
578.19	1999.49
578.54	1984.95
578.90	1969.87
579.25	1954.58
579.60	1940.81
579.95	1926.55
580.30	1912.38
580.66	1898.44
581.01	1884.00
581.36	1870.07
581.71	1856.75
582.06	1842.88
582.42	1829.19
582.77	1816.18
583.12	1802.62
583.47	1789.30
583.82	1776.08
584.17	1762.71
584.53	1749.22
584.88	1735.78
585.23	1721.92
585.58	1708.61
585.93	1695.59
586.28	1683.48
586.63	1671.13
586.98	1657.95
587.34	1645.06
587.69	1631.73
588.04	1618.64
588.39	1606.21
588.74	1593.16
589.09	1579.90
589.44	1566.70
589.79	1553.98
590.14	1541.16
590.49	1528.59
590.84	1515.83
591.19	1503.66
591.54	1491.06
591.89	1478.31
592.25	1465.84
592.60	1453.03
592.95	1440.71
593.30	1428.80
593.65	1416.64
594.00	1404.79
594.35	1393.64
594.70	1381.61
595.05	1370.56
595.40	1359.32
595.75	1347.56
596.10	1336.69
596.45	1326.05
596.80	1315.75
597.15	1305.25
597.50	1294.71
597.85	1284.36
598.19	1274.23
598.54	1263.62
598.89	1253.71
599.24	1244.05
599.59	1234.15
599.94	1225.30
600.29	1216.30
600.64	1207.07
600.99	1197.24
601.34	1187.84
601.69	1177.93
602.04	1169.17
602.39	1160.29
602.74	1151.70
603.08	1143.32
603.43	1134.40
603.78	1125.31
604.13	1116.39
604.48	1107.41
604.83	1098.72
605.18	1089.98
605.53	1081.14
605.87	1072.32
606.22	1063.76
606.57	1054.98
606.92	1046.24
607.27	1037.36
607.62	1028.62
607.96	1020.06
608.31	1012.57
608.66	1004.66
609.01	997.14
609.36	989.48
609.70	981.59
610.05	973.57
610.40	965.90
610.75	958.30
611.10	950.97
611.44	943.29
611.79	935.90
612.14	928.13
612.49	920.49
612.83	913.33
613.18	906.30
613.53	899.11
613.88	892.00
614.22	885.51
614.57	878.79
614.92	872.04
615.27	865.33
615.61	858.43
615.96	851.77
616.31	845.05
616.65	838.25
617.00	831.68
617.35	825.19
617.70	818.75
618.04	812.46
618.39	806.15
618.74	800.17
619.08	794.02
619.43	788.12
619.78	782.23
620.12	776.16
620.47	770.27
620.82	764.42
621.16	758.88
621.51	752.99
621.85	747.13
622.20	741.32
622.55	735.67
622.89	729.92
623.24	724.22
623.59	718.63
623.93	713.09
624.28	707.72
624.62	702.33
624.97	696.91
625.32	691.60
625.66	686.19
626.01	680.75
626.35	675.45
626.70	670.20
627.04	665.14
627.39	660.15
627.73	655.24
628.08	650.56
628.43	645.70
628.77	640.90
629.12	636.26
629.46	631.81
629.81	627.16
630.15	622.47
630.50	617.92
630.84	613.55
631.19	609.35
631.53	605.17
631.88	600.91
632.22	596.73
632.57	592.77
632.91	588.74
633.26	584.81
633.60	580.97
633.95	577.26
634.29	573.38
634.64	569.44
634.98	565.44
635.32	561.58
635.67	557.91
636.01	554.16
636.36	550.45
636.70	546.89
637.05	543.33
637.39	539.94
637.73	536.41
638.08	532.95
638.42	529.48
638.77	525.88
639.11	522.24
639.45	518.65
639.80	515.06
640.14	511.66
640.49	508.23
640.83	504.68
641.17	501.16
641.52	497.80
641.86	494.45
642.20	491.27
642.55	487.93
642.89	484.68
643.23	481.64
643.58	478.84
643.92	475.87
644.26	472.97
644.61	470.04
644.95	467.13
645.29	464.14
645.64	461.13
645.98	458.26
646.32	455.59
646.66	452.90
647.01	450.18
647.35	447.53
647.69	444.76
648.04	442.14
648.38	439.55
648.72	436.91
649.06	434.35
649.41	431.83
649.75	429.30
650.09	426.80
650.43	424.29
650.78	421.75
651.12	419.21
651.46	416.77
651.80	414.43
652.14	412.16
652.49	409.92
652.83	407.73
653.17	405.52
653.51	403.37
653.85	401.30
654.20	399.17
654.54	396.95
654.88	394.92
655.22	392.93
655.56	390.92
655.90	389.00
656.25	387.11
656.59	385.20
656.93	383.40
657.27	381.64
657.61	379.78
657.95	377.99
658.29	376.19
658.64	374.41
658.98	372.61
659.32	370.85
659.66	369.20
660.00	367.54
660.34	365.93
660.68	364.26
661.02	362.53
661.36	360.93
661.70	359.38
662.05	357.81
662.39	356.23
662.73	354.73
663.07	353.27
663.41	351.82
663.75	350.41
664.09	349.00
664.43	347.49
664.77	346.10
665.11	344.65
665.45	343.29
665.79	341.92
666.13	340.54
666.47	339.15
666.81	337.74
667.15	336.30
667.49	334.94
667.83	333.63
668.17	332.36
668.51	331.11
668.85	329.89
669.19	328.74
669.53	327.51
669.87	326.26
670.21	325.05
670.55	323.83
670.89	322.69
671.23	321.51
671.57	320.36
671.91	319.25
672.25	318.20
672.58	317.15
672.92	316.07
673.26	315.07
673.60	314.08
673.94	313.06
674.28	312.11
674.62	311.16
674.96	310.18
675.30	309.25
675.64	308.28
675.97	307.35
676.31	306.38
676.65	305.43
676.99	304.56
677.33	303.63
677.67	302.75
678.01	301.79
678.34	300.90
678.68	300.07
679.02	299.21
679.36	298.35
679.70	297.49
680.04	296.67
680.37	295.83
680.71	295.01
681.05	294.25
681.39	293.46
681.73	292.62
682.06	291.83
682.40	291.05
682.74	290.30
683.08	289.57
683.42	288.81
683.75	288.14
684.09	287.37
684.43	286.66
684.77	285.94
685.10	285.27
685.44	284.57
685.78	283.88
686.12	283.21
686.45	282.54
686.79	281.87
687.13	281.21
687.46	280.53
687.80	279.88
688.14	279.18
688.48	278.54
688.81	277.92
689.15	277.33
689.49	276.68
689.82	276.06
690.16	275.39
690.50	274.78
690.83	274.16
691.17	273.56
691.51	272.98
691.84	272.41
692.18	271.82
692.52	271.21
692.85	270.61
693.19	270.07
693.52	269.51
693.86	268.96
694.20	268.41
694.53	267.88
694.87	267.34
695.21	266.82
695.54	266.30
695.88	265.76
696.21	265.20
696.55	264.70
696.88	264.20
697.22	263.70
697.56	263.21
697.89	262.67
698.23	262.17
698.56	261.64
698.90	261.17
699.23	260.68
699.57	260.23
699.90	259.77
700.24	259.29
700.58	258.84
700.91	258.42
701.25	258.07
701.58	257.69
701.92	257.31
702.25	256.89
702.59	256.47
702.92	256.07
703.26	255.67
703.59	255.27
703.93	254.95
704.26	254.57
704.60	254.19
704.93	253.83
705.26	253.46
705.60	253.13
705.93	252.75
706.27	252.45
706.60	252.11
706.94	251.79
707.27	251.41
707.61	251.05
707.94	250.68
708.27	250.24
708.61	249.85
708.94	249.49
709.28	249.17
709.61	248.84
709.94	248.53
710.28	248.23
710.61	247.94
710.95	247.56
711.28	247.34
711.61	247.05
711.95	246.78
712.28	246.50
712.61	246.20
712.95	245.97
713.28	245.73
713.61	245.44
713.95	245.15
714.28	244.91
714.61	244.64
714.95	244.39
715.28	244.13
715.61	243.88
715.95	243.65
716.28	243.40
716.61	243.18
716.95	242.94
717.28	242.70
717.61	242.47
717.94	242.24
718.28	241.94
718.61	241.70
718.94	241.46
719.27	241.25
719.61	241.05
719.94	240.81
720.27	240.54
720.60	240.34
720.94	240.13
721.27	239.94
721.60	239.77
721.93	239.58
722.27	239.42
722.60	239.24
722.93	239.04
723.26	238.86
723.59	238.66
723.93	238.49
724.26	238.32
724.59	238.14
724.92	237.98
725.25	237.85
725.59	237.68
725.92	237.54
726.25	237.38
726.58	237.21
726.91	237.05
727.24	236.90
727.57	236.75
727.91	236.58
728.24	236.44
728.57	236.28
728.90	236.14
729.23	235.96
729.56	235.86
729.89	235.72
730.22	235.57
730.55	235.42
730.89	235.28
731.22	235.13
731.55	234.99
731.88	234.86
732.21	234.70
732.54	234.57
732.87	234.45
733.20	234.33
733.53	234.21
733.86	234.10
734.19	233.97
734.52	233.87
734.85	233.83
735.18	233.69
735.51	233.60
735.84	233.49
736.17	233.41
736.50	233.24
736.83	233.26
737.16	233.15
737.49	233.06
737.82	232.96
738.15	232.88
738.48	232.78
738.81	232.66
739.14	232.55
739.47	232.45
739.80	232.33
740.13	232.24
740.46	232.13
740.79	232.01
741.12	231.92
741.45	231.81
741.78	231.66
742.11	231.59
742.44	231.48
742.77	231.39
743.10	231.28
743.43	231.19
743.75	231.00
744.08	231.07
744.41	230.97
744.74	230.88
745.07	230.77
745.40	230.70
745.73	230.66
746.06	230.58
746.39	230.51
746.71	230.43
747.04	230.34
747.37	230.27
747.70	230.21
748.03	230.14
748.36	230.09
748.68	230.01
749.01	229.90
749.34	229.83
749.67	229.76
750.00	229.70
750.33	229.71
750.65	229.64
750.98	229.42
751.31	229.36
751.64	229.30
751.97	229.29
752.29	229.22
752.62	229.10
752.95	229.03
753.28	228.96
753.60	228.89
753.93	228.85
754.26	228.79
754.59	228.68
754.91	228.61
755.24	228.53
755.57	228.51
755.90	228.45
756.22	228.38
756.55	228.30
756.88	228.22
757.20	228.09
757.53	228.01
757.86	227.95
758.19	227.90
758.51	227.84
758.84	227.73
759.17	227.67
759.49	227.62
759.82	227.62
760.15	227.57
760.47	227.52
760.80	227.44
761.13	227.40
761.45	227.36
761.78	227.32
762.11	227.27
762.43	227.17
762.76	227.13
763.08	227.09
763.41	227.06
763.74	227.01
764.06	226.97
764.39	226.93
764.71	226.88
765.04	226.82
765.37	226.78
765.69	226.73
766.02	226.68
766.34	226.64
766.67	226.55
767.00	226.53
767.32	226.54
767.65	226.57
767.97	226.52
768.30	226.49
768.62	226.45
768.95	226.40
769.27	226.36
769.60	226.34
769.92	226.29
770.25	226.23
770.57	226.18
770.90	226.15
771.22	226.11
771.55	226.08
771.87	226.05
772.20	226.01
772.52	226.08
772.85	226.17
773.17	226.14
773.50	226.11
773.82	226.06
774.15	225.98
774.47	225.89
774.80	225.85
775.12	225.81
775.45	225.78
775.77	225.76
776.09	225.74
776.42	225.71
776.74	225.72
777.07	225.69
777.39	225.67
777.72	225.64
778.04	225.62
778.36	225.59
778.69	225.57
779.01	225.56
779.33	225.44
779.66	225.30
779.98	225.27
780.31	225.25
780.63	225.26
780.95	225.26
781.28	225.24
781.60	225.21
781.92	225.19
782.25	225.17
782.57	225.15
782.89	225.12
783.22	225.09
783.54	225.05
783.86	225.05
784.19	225.02
784.51	225.04
784.83	225.01
785.16	224.98
785.48	224.96
785.80	224.94
786.12	224.93
786.45	224.92
786.77	224.90
787.09	224.88
787.42	224.83
787.74	224.81
788.06	224.80
788.38	224.78
788.71	224.76
789.03	224.75
789.35	224.75
789.67	224.72
789.99	224.71
790.32	224.68
790.64	224.67
790.96	224.76
791.28	224.71
791.61	224.69
791.93	224.68
792.25	224.66
792.57	224.73
792.89	224.69
793.21	224.69
793.54	224.67
793.86	224.65
794.18	224.64
794.50	224.61
794.82	224.59
795.14	224.59
795.47	224.60
795.79	224.59
796.11	224.55
796.43	224.54
796.75	224.52
797.07	224.52
797.39	224.49
797.71	224.39
798.04	224.39
798.36	224.39
798.68	224.37
799.00	224.36
799.32	224.29
799.64	224.30
799.96	224.28
800.28	224.29
800.60	224.28
800.92	224.27
801.24	224.25
801.56	224.25
801.89	224.23
802.21	224.22
802.53	224.19
802.85	224.21
803.17	224.24
803.49	224.21
803.81	224.20
804.13	224.18
804.45	224.16
804.77	224.15
805.09	224.14
805.41	224.13
805.73	224.10
806.05	224.07
806.37	224.05
806.69	224.03
807.01	224.01
807.33	224.01
807.65	223.97
807.97	224.01
808.28	223.99
808.60	223.98
808.92	223.96
809.24	224.01
809.56	223.98
809.88	223.94
810.20	223.94
810.52	223.95
810.84	223.92
811.16	223.91
811.48	223.90
811.80	223.93
812.12	223.92
812.43	223.93
812.75	223.93
813.07	223.91
813.39	223.91
813.71	223.89
814.03	223.87
814.35	223.87
814.67	223.82
814.98	223.81
815.30	223.80
815.62	223.77
815.94	223.70
816.26	223.70
816.58	223.68
816.89	223.68
817.21	223.64
817.53	223.65
817.85	223.64
818.17	223.63
818.48	223.58
818.80	223.59
819.12	223.57
819.44	223.55
819.76	223.53
820.07	223.52
820.39	223.52
820.71	223.51
821.03	223.50
821.34	223.49
821.66	223.50
821.98	223.51
822.30	223.50
822.61	223.56
822.93	223.54
823.25	223.53
823.57	223.52
823.88	223.53
824.20	223.52
824.52	223.54
824.83	223.53
825.15	223.52
825.47	223.51
825.79	223.51
826.10	223.50
826.42	223.50
826.74	223.50
827.05	223.50
827.37	223.51
827.69	223.50
828.00	223.50
828.32	223.50
828.64	223.48
828.95	223.53
829.27	223.49
829.58	223.50
829.90	223.51
830.22	223.52
830.53	223.49
830.85	223.47
831.17	223.44
831.48	223.45
831.80	223.46
832.11	223.45
832.43	223.43
832.75	223.42
833.06	223.49
833.38	223.46
833.69	223.45
834.01	223.45
834.32	223.45
834.64	223.43
834.96	223.43
835.27	223.43
835.59	223.39
835.90	223.37
836.22	223.36
836.53	223.33
836.85	223.33
837.16	223.43
837.48	223.43
837.79	223.47
838.11	223.46
838.42	223.45
838.74	223.46
839.05	223.45
839.37	223.45
839.68	223.38
840.00	223.38
840.31	223.39
840.63	223.37
840.94	223.36
841.26	223.35
841.57	223.34
841.88	223.35
842.20	223.34
842.51	223.32
842.83	223.32
843.14	223.42
843.46	223.42
843.77	223.35
844.08	223.35
844.40	223.31
844.71	223.30
845.03	223.29
845.34	223.29
845.65	223.28
845.97	223.29
846.28	223.29
846.60	223.29
846.91	223.27
847.22	223.27
847.54	223.29
847.85	223.29
848.16	223.28
848.48	223.26
848.79	223.30
849.10	223.31
849.42	223.31
849.73	223.21
850.04	223.21
850.36	223.18
850.67	223.20
850.98	223.20
851.30	223.21
851.61	223.21
851.92	223.21
852.23	223.24
852.55	223.24
852.86	223.24
853.17	223.24
853.49	223.27
853.80	223.29
854.11	223.30
854.42	223.31
854.74	223.30
855.05	223.30
855.36	223.25
855.67	223.24
855.99	223.24
856.30	223.37
856.61	223.36
856.92	223.37
857.23	223.36
857.55	223.35
857.86	223.34
858.17	223.36
858.48	223.34
858.79	223.32
859.11	223.33
859.42	223.32
859.73	223.31
860.04	223.29
860.35	223.26
860.66	223.23
860.98	223.22
861.29	223.23
861.60	223.22
861.91	223.24
862.22	223.23
862.53	223.21
862.84	223.09
863.16	223.09
863.47	223.08
863.78	223.06
864.09	223.07
864.40	223.07
864.71	223.07
865.02	223.08
865.33	223.07
865.64	223.05
865.95	223.05
866.27	223.11
866.58	223.10
866.89	223.11
867.20	223.11
867.51	223.10
867.82	223.09
868.13	223.12
868.44	223.10
868.75	223.12
869.06	223.12
869.37	223.14
869.68	223.12
869.99	223.13
870.30	223.13
870.61	223.14
870.92	223.12
871.23	223.11
871.54	223.12
871.85	223.14
872.16	223.16
872.47	223.15
872.78	223.09
873.09	223.10
873.40	223.09
873.71	223.10
874.02	223.10
874.33	223.10
874.64	223.07
874.95	223.09
875.26	223.07
875.56	223.06
875.87	223.05
876.18	223.05
876.49	223.15
876.80	223.13
877.11	223.12
877.42	223.12
877.73	223.13
878.04	223.11
878.35	223.10
878.66	223.11
878.96	223.10
879.27	223.10
879.58	223.09
879.89	223.09
880.20	223.12
880.51	223.12
880.82	223.12
881.12	223.13
881.43	223.10
881.74	223.09
882.05	223.08
882.36	223.09
882.67	223.10
882.97	222.99
883.28	222.98
883.59	222.98
883.90	222.99
884.21	223.00
884.51	222.99
884.82	222.98
885.13	222.98
885.44	222.98
885.74	222.98
886.05	222.97
886.36	222.97
886.67	222.93
886.98	222.98
887.28	223.00
887.59	222.99
887.90	223.00
888.20	223.00
888.51	223.02
888.82	223.00
889.13	223.00
889.43	223.09
889.74	223.08
890.05	223.08
890.35	223.07
890.66	223.05
890.97	223.05
891.28	223.04
891.58	223.04
891.89	223.03
892.20	223.02
892.50	223.00
892.81	223.00
893.12	223.00
893.42	222.94
893.73	222.94
894.04	222.94
894.34	222.94
894.65	222.94
894.95	222.93
895.26	222.94
895.57	222.97
895.87	222.87
896.18	222.89
896.48	222.89
896.79	222.89
897.10	222.91
897.40	222.92
897.71	222.93
898.01	222.91
898.32	222.92
898.63	222.93
898.93	222.94
899.24	222.94
899.54	222.93
899.85	222.93
900.15	222.92
900.46	222.92
900.76	222.93
901.07	222.93
901.38	222.93
901.68	222.94
901.99	222.89
902.29	222.90
902.60	222.89
902.90	222.88
903.21	222.88
903.51	222.86
903.82	222.88
904.12	222.88
904.43	222.88
904.73	222.88
905.03	222.89
905.34	222.98
905.64	222.97
905.95	222.97
906.25	222.97
906.56	222.96
906.86	222.96
907.17	222.95
907.47	222.96
907.77	222.95
908.08	222.92
908.38	222.93
908.69	222.94
908.99	222.96
909.30	222.96
909.60	222.96
909.90	222.96
910.21	222.93
910.51	222.91
910.81	222.91
911.12	222.91
911.42	222.92
911.73	222.81
912.03	222.82
912.33	222.84
912.64	222.83
912.94	222.83
913.24	222.81
913.55	222.80
913.85	222.79
914.15	222.81
914.46	222.83
914.76	222.82
915.06	222.81
915.37	222.78
915.67	222.78
915.97	222.78
916.27	222.77
916.58	222.78
916.88	222.77
917.18	222.76
917.49	222.83
917.79	222.82
918.09	222.84
918.39	222.86
918.70	222.85
919.00	222.86
919.30	222.91
919.60	222.90
919.91	222.89
920.21	222.90
920.51	222.87
920.81	222.86
921.12	222.88
921.42	222.87
921.72	222.88
922.02	222.89
922.32	222.90
922.63	222.90
922.93	222.96
923.23	222.97
923.53	222.96
923.83	222.89
924.13	222.89
924.44	222.89
924.74	222.91
925.04	222.92
925.34	222.92
925.64	222.88
925.94	222.88
926.24	222.94
926.55	222.93
926.85	222.95
927.15	222.95
927.45	222.95
927.75	222.95
928.05	222.95
928.35	222.94
928.65	222.96
928.95	222.96
929.26	222.91
929.56	222.93
929.86	222.94
930.16	222.94
930.46	222.93
930.76	222.93
931.06	222.88
931.36	222.85
931.66	222.86
931.96	222.87
932.26	222.88
932.56	222.83
932.86	222.84
933.16	222.83
933.46	222.82
933.76	222.81
934.06	222.82
934.36	222.85
934.66	222.85
934.96	222.83
935.26	222.83
935.56	222.84
935.86	222.81
936.16	222.80
936.46	222.79
936.76	222.79
937.06	222.77
937.36	222.78
937.66	222.79
937.96	222.78
938.26	222.76
938.56	222.75
938.86	222.76
939.16	222.78
939.46	222.79
939.76	222.80
940.06	222.80
940.35	222.78
940.65	222.74
940.95	222.74
941.25	222.72
941.55	222.71
941.85	222.70
942.15	222.73
942.45	222.75
942.75	222.75
943.04	222.76
943.34	222.78
943.64	222.77
943.94	222.76
944.24	222.76
944.54	222.77
944.84	222.77
945.13	222.75
945.43	222.73
945.73	222.72
946.03	222.71
946.33	222.70
946.62	222.69
946.92	222.69
947.22	222.70
947.52	222.70
947.82	222.71
948.11	222.71
948.41	222.68
948.71	222.65
949.01	222.65
949.31	222.64
949.60	222.62
949.90	222.64
950.20	222.65
950.50	222.64
950.79	222.63
951.09	222.65
951.39	222.64
951.69	222.63
951.98	222.65
952.28	222.65
952.58	222.65
952.87	222.65
953.17	222.67
953.47	222.65
953.76	222.65
954.06	222.63
954.36	222.61
954.66	222.61
954.95	222.65
955.25	222.66
955.55	222.66
955.84	222.65
956.14	222.66
956.44	222.65
956.73	222.64
957.03	222.65
957.32	222.65
957.62	222.66
957.92	222.68
958.21	222.67
958.51	222.78
958.81	222.80
959.10	222.81
959.40	222.83
959.69	222.83
959.99	222.85
960.29	222.86
960.58	222.86
960.88	222.89
961.17	222.88
961.47	222.88
961.76	222.87
962.06	222.89
962.36	222.88
962.65	222.89
962.95	222.90
963.24	222.89
963.54	222.89
963.83	222.90
964.13	222.89
964.42	222.88
964.72	222.79
965.01	222.79
965.31	222.78
965.60	222.75
965.90	222.82
966.19	222.79
966.49	222.80
966.78	222.80
967.08	222.79
967.37	222.79
967.67	222.77
967.96	222.79
968.26	222.78
968.55	222.79
968.85	222.78
969.14	222.77
969.43	222.77
969.73	222.76
970.02	222.75
970.32	222.74
970.61	222.73
970.91	222.70
971.20	222.69
971.49	222.68
971.79	222.69
972.08	222.62
972.38	222.63
972.67	222.62
972.96	222.63
973.26	222.61
973.55	222.64
973.85	222.65
974.14	222.63
974.43	222.64
974.73	222.62
975.02	222.61
975.31	222.61
975.61	222.61
975.90	222.60
976.19	222.60
976.49	222.60
976.78	222.61
977.07	222.61
977.37	222.62
977.66	222.64
977.95	222.62
978.24	222.63
978.54	222.64
978.83	222.64
979.12	222.63
979.42	222.63
979.71	222.61
980.00	222.60
980.29	222.61
980.59	222.58
980.88	222.61
981.17	222.61
981.46	222.61
981.76	222.61
982.05	222.64
982.34	222.64
982.63	222.64
982.93	222.64
983.22	222.67
983.51	222.68
983.80	222.69
984.09	222.71
984.39	222.70
984.68	222.68
984.97	222.69
985.26	222.69
985.55	222.69
985.85	222.68
986.14	222.69
986.43	222.71
986.72	222.71
987.01	222.68
987.30	222.68
987.59	222.67
987.89	222.67
988.18	222.65
988.47	222.64
988.76	222.63
989.05	222.62
989.34	222.60
989.63	222.61
989.92	222.59
990.22	222.58
990.51	222.58
990.80	222.56
991.09	222.57
991.38	222.59
991.67	222.58
991.96	222.57
992.25	222.57
992.54	222.55
992.83	222.55
993.12	222.55
993.41	222.57
993.70	222.61
993.99	222.63
994.28	222.65
994.58	222.67
994.87	222.67
995.16	222.66
995.45	222.65
995.74	222.61
996.03	222.63
996.32	222.64
996.61	222.67
996.90	222.67
997.19	222.66
997.48	222.66
997.77	222.65
998.06	222.65
998.34	222.65
998.63	222.65
998.92	222.65
999.21	222.66
999.50	222.65
999.79	222.62
1000.08	222.61
1000.37	222.61
1000.66	222.59
1000.95	222.62
1001.24	222.63
1001.53	222.65
1001.82	222.65
1002.11	222.62
1002.40	222.63
1002.68	222.65
1002.97	222.72
1003.26	222.71
1003.55	222.69
1003.84	222.70
1004.13	222.74
1004.42	222.73
1004.71	222.73
1004.99	222.72
1005.28	222.74
1005.57	222.73
1005.86	222.73
1006.15	222.72
1006.44	222.70
1006.72	222.72
1007.01	222.70
1007.30	222.70
1007.59	222.69
1007.88	222.69
1008.17	222.69
1008.45	222.67
1008.74	222.63
1009.03	222.58
1009.32	222.58
1009.60	222.58
1009.89	222.57
1010.18	222.53
1010.47	222.53
1010.76	222.52
1011.04	222.52
1011.33	222.52
1011.62	222.53
1011.91	222.53
1012.19	222.54
1012.48	222.54
1012.77	222.54
1013.05	222.58
1013.34	222.58
1013.63	222.57
1013.92	222.58
1014.20	222.58
1014.49	222.58
1014.78	222.60
1015.06	222.57
1015.35	222.57
1015.64	222.59
1015.92	222.60
1016.21	222.61
1016.50	222.61
1016.78	222.62
1017.07	222.64
1017.36	222.62
1017.64	222.60
1017.93	222.61
1018.22	222.60
1018.50	222.60
1018.79	222.59
1019.08	222.55
1019.36	222.55
1019.65	222.55
1019.93	222.57
1020.22	222.58
1020.51	222.64
1020.79	222.62
1021.08	222.38
1021.36	222.36
1021.65	222.58
1021.94	222.59
1022.22	222.58
1022.51	222.44
1022.79	223.05
1023.08	222.72
1023.36	223.83
1023.65	222.37
>>>>>End Processed Spectral Data<<<<<
