SpectraSuite Data File
++++++++++++++++++++++++++++++++++++
Date: Thu Oct 01 00:10:06 EDT 2015
User: lab3
Dark Spectrum Present: No
Reference Spectrum Present: No
Number of Sampled Component Spectra: 1
Spectrometers: USB2E7196
Integration Time (usec): 36000 (USB2E7196)
Spectra Averaged: 10000 (USB2E7196)
Boxcar Smoothing: 10 (USB2E7196)
Correct for Electrical Dark: No (USB2E7196)
Strobe/Lamp Enabled: No (USB2E7196)
Correct for Detector Non-linearity: No (USB2E7196)
Correct for Stray Light: No (USB2E7196)
Number of Pixels in Processed Spectrum: 2048
>>>>>Begin Processed Spectral Data<<<<<
339.09	0.00
339.48	210.24
339.86	211.68
340.24	213.12
340.63	214.52
341.01	217.52
341.39	217.25
341.78	218.55
342.16	219.72
342.54	220.17
342.93	208.82
343.31	219.37
343.69	219.91
344.07	220.38
344.46	220.80
344.84	221.19
345.22	221.42
345.60	221.68
345.99	221.87
346.37	222.01
346.75	222.12
347.13	222.20
347.52	222.28
347.90	222.36
348.28	222.40
348.66	222.46
349.05	222.46
349.43	222.52
349.81	222.57
350.19	222.63
350.57	222.69
350.96	222.78
351.34	222.87
351.72	222.97
352.10	223.07
352.48	223.15
352.87	223.21
353.25	223.27
353.63	223.33
354.01	223.40
354.39	223.47
354.77	223.55
355.15	223.66
355.54	223.71
355.92	223.75
356.30	223.83
356.68	223.96
357.06	224.04
357.44	224.09
357.82	224.15
358.20	224.26
358.58	224.32
358.97	224.39
359.35	224.47
359.73	224.55
360.11	224.60
360.49	224.66
360.87	224.71
361.25	224.77
361.63	224.86
362.01	224.91
362.39	224.94
362.77	224.99
363.15	225.01
363.53	225.05
363.91	225.08
364.29	225.10
364.67	225.03
365.05	225.05
365.43	225.08
365.81	225.11
366.19	225.13
366.57	225.19
366.95	225.19
367.33	225.16
367.71	225.15
368.09	225.18
368.47	225.17
368.85	225.17
369.23	225.17
369.61	225.12
369.99	225.13
370.37	225.13
370.75	225.18
371.13	225.15
371.51	225.11
371.89	225.09
372.27	225.06
372.65	225.04
373.03	225.00
373.41	224.95
373.78	224.90
374.16	224.81
374.54	224.73
374.92	224.68
375.30	224.63
375.68	224.56
376.06	224.51
376.44	224.46
376.82	224.41
377.19	224.35
377.57	224.30
377.95	224.22
378.33	224.16
378.71	224.01
379.09	223.97
379.47	223.93
379.84	223.86
380.22	223.80
380.60	223.73
380.98	223.67
381.36	223.62
381.73	223.56
382.11	223.53
382.49	223.49
382.87	223.42
383.25	223.37
383.62	223.45
384.00	223.38
384.38	223.34
384.76	223.32
385.13	223.30
385.51	223.26
385.89	223.20
386.27	223.17
386.64	223.15
387.02	223.10
387.40	223.06
387.78	223.03
388.15	223.00
388.53	222.97
388.91	222.94
389.29	222.91
389.66	222.89
390.04	222.85
390.42	222.84
390.79	222.83
391.17	222.81
391.55	222.68
391.92	222.66
392.30	222.66
392.68	222.62
393.05	222.60
393.43	222.60
393.81	222.60
394.18	222.58
394.56	222.58
394.94	222.61
395.31	222.60
395.69	222.64
396.06	222.67
396.44	222.69
396.82	222.70
397.19	222.77
397.57	222.78
397.95	222.82
398.32	222.82
398.70	222.87
399.07	222.92
399.45	222.96
399.82	223.00
400.20	223.03
400.58	223.09
400.95	223.10
401.33	223.17
401.70	223.31
402.08	223.40
402.45	223.48
402.83	223.58
403.20	223.68
403.58	223.76
403.95	223.88
404.33	224.01
404.71	224.14
405.08	224.32
405.46	224.46
405.83	224.62
406.21	224.79
406.58	224.98
406.96	225.16
407.33	225.37
407.70	225.62
408.08	225.94
408.45	226.22
408.83	226.54
409.20	226.81
409.58	227.06
409.95	227.41
410.33	227.78
410.70	228.13
411.08	228.55
411.45	228.98
411.82	229.42
412.20	229.93
412.57	230.53
412.95	231.00
413.32	231.62
413.69	232.24
414.07	232.91
414.44	233.65
414.82	234.40
415.19	235.26
415.56	236.15
415.94	237.06
416.31	238.10
416.68	239.13
417.06	240.32
417.43	241.44
417.81	242.74
418.18	244.05
418.55	245.50
418.93	246.99
419.30	248.56
419.67	250.22
420.04	251.93
420.42	253.72
420.79	255.79
421.16	257.88
421.54	260.00
421.91	262.22
422.28	264.51
422.66	266.99
423.03	269.36
423.40	271.85
423.77	274.51
424.15	277.24
424.52	280.08
424.89	283.14
425.26	286.20
425.64	289.03
426.01	292.22
426.38	295.47
426.75	298.83
427.13	302.27
427.50	305.86
427.87	309.59
428.24	313.36
428.61	316.96
428.99	320.84
429.36	325.10
429.73	329.17
430.10	333.23
430.47	337.38
430.85	341.63
431.22	346.17
431.59	350.83
431.96	355.37
432.33	360.39
432.70	365.15
433.08	370.79
433.45	376.11
433.82	381.33
434.19	387.17
434.56	392.90
434.93	398.43
435.30	403.90
435.68	410.05
436.05	416.08
436.42	422.09
436.79	427.57
437.16	433.49
437.53	439.83
437.90	446.16
438.27	452.35
438.64	459.07
439.01	465.15
439.38	470.71
439.75	476.07
440.13	482.20
440.50	488.04
440.87	492.64
441.24	497.71
441.61	503.31
441.98	507.41
442.35	512.29
442.72	517.31
443.09	522.12
443.46	525.23
443.83	527.56
444.20	529.54
444.57	532.42
444.94	534.17
445.31	535.97
445.68	537.58
446.05	538.83
446.42	538.76
446.79	538.60
447.16	538.47
447.53	538.41
447.90	536.69
448.27	535.09
448.64	532.50
449.01	530.81
449.37	527.06
449.74	523.64
450.11	519.22
450.48	514.33
450.85	509.42
451.22	505.26
451.59	501.17
451.96	497.47
452.33	492.00
452.70	487.13
453.07	481.17
453.43	475.20
453.80	469.42
454.17	463.85
454.54	458.70
454.91	452.86
455.28	447.36
455.65	442.16
456.02	436.63
456.38	432.17
456.75	426.41
457.12	421.76
457.49	417.07
457.86	412.58
458.23	408.66
458.59	404.32
458.96	399.84
459.33	395.90
459.70	391.88
460.07	388.82
460.43	385.21
460.80	381.83
461.17	378.84
461.54	375.63
461.91	372.63
462.27	369.57
462.64	367.07
463.01	364.21
463.38	361.32
463.74	358.70
464.11	356.38
464.48	354.27
464.85	352.01
465.21	350.28
465.58	348.38
465.95	346.18
466.32	344.41
466.68	342.69
467.05	340.95
467.42	339.28
467.78	337.48
468.15	335.81
468.52	334.58
468.88	332.96
469.25	331.46
469.62	330.28
469.98	329.00
470.35	327.87
470.72	326.84
471.08	325.80
471.45	324.93
471.82	323.97
472.18	322.98
472.55	322.34
472.92	321.55
473.28	320.92
473.65	320.28
474.02	319.68
474.38	319.19
474.75	318.91
475.11	318.50
475.48	318.35
475.85	318.18
476.21	318.13
476.58	318.13
476.94	318.31
477.31	318.43
477.67	318.58
478.04	318.83
478.41	319.16
478.77	319.62
479.14	319.95
479.50	320.51
479.87	321.18
480.23	321.87
480.60	322.53
480.96	323.22
481.33	324.17
481.69	325.12
482.06	326.06
482.42	326.96
482.79	328.02
483.15	329.25
483.52	330.62
483.88	331.94
484.25	333.36
484.61	334.83
484.98	336.41
485.34	338.18
485.71	340.03
486.07	341.98
486.44	343.93
486.80	346.10
487.17	348.32
487.53	350.76
487.90	353.30
488.26	356.05
488.62	358.95
488.99	361.86
489.35	364.89
489.72	368.17
490.08	371.61
490.44	375.15
490.81	378.85
491.17	382.65
491.54	386.70
491.90	390.84
492.26	395.31
492.63	400.02
492.99	404.91
493.36	409.92
493.72	415.21
494.08	420.63
494.45	426.35
494.81	432.29
495.17	438.34
495.54	444.74
495.90	451.45
496.26	458.29
496.63	465.37
496.99	472.73
497.35	480.44
497.72	488.46
498.08	496.64
498.44	505.09
498.80	514.08
499.17	523.29
499.53	532.84
499.89	542.61
500.26	552.55
500.62	562.78
500.98	573.67
501.34	584.70
501.71	596.28
502.07	608.06
502.43	620.24
502.79	632.77
503.16	645.69
503.52	658.81
503.88	672.29
504.24	686.21
504.60	700.42
504.97	715.01
505.33	729.97
505.69	745.82
506.05	761.86
506.41	777.91
506.78	794.29
507.14	811.13
507.50	828.58
507.86	846.41
508.22	864.49
508.59	882.59
508.95	901.41
509.31	920.66
509.67	940.61
510.03	960.78
510.39	981.14
510.75	1001.76
511.12	1022.65
511.48	1043.91
511.84	1065.23
512.20	1086.85
512.56	1109.57
512.92	1132.54
513.28	1155.23
513.64	1178.22
514.00	1201.62
514.37	1225.35
514.73	1249.10
515.09	1272.69
515.45	1296.70
515.81	1321.26
516.17	1345.89
516.53	1370.19
516.89	1394.59
517.25	1419.16
517.61	1443.91
517.97	1468.88
518.33	1493.59
518.69	1518.44
519.05	1543.54
519.41	1568.79
519.77	1594.30
520.13	1619.06
520.49	1643.95
520.85	1669.07
521.21	1694.13
521.57	1719.79
521.93	1744.73
522.29	1770.53
522.65	1796.04
523.01	1821.37
523.37	1845.98
523.73	1871.21
524.09	1896.61
524.45	1921.92
524.81	1946.77
525.17	1971.53
525.53	1995.86
525.89	2020.24
526.25	2044.82
526.61	2068.85
526.97	2093.18
527.33	2117.43
527.68	2141.52
528.04	2164.75
528.40	2187.88
528.76	2211.17
529.12	2233.43
529.48	2256.08
529.84	2276.87
530.20	2298.24
530.56	2319.27
530.91	2340.37
531.27	2360.98
531.63	2380.97
531.99	2400.43
532.35	2419.53
532.71	2438.73
533.07	2458.58
533.42	2476.83
533.78	2495.52
534.14	2514.15
534.50	2531.95
534.86	2550.38
535.21	2566.97
535.57	2583.56
535.93	2599.33
536.29	2613.93
536.65	2629.34
537.00	2643.63
537.36	2658.43
537.72	2672.17
538.08	2685.64
538.44	2697.94
538.79	2710.42
539.15	2721.27
539.51	2732.06
539.87	2742.49
540.22	2750.84
540.58	2759.22
540.94	2768.23
541.29	2775.67
541.65	2782.16
542.01	2788.11
542.37	2792.21
542.72	2798.23
543.08	2803.69
543.44	2809.06
543.79	2813.53
544.15	2817.17
544.51	2820.78
544.87	2823.53
545.22	2825.85
545.58	2827.13
545.94	2828.89
546.29	2829.22
546.65	2829.70
547.01	2830.17
547.36	2830.81
547.72	2831.58
548.07	2830.90
548.43	2829.55
548.79	2827.57
549.14	2825.67
549.50	2824.29
549.86	2822.13
550.21	2817.47
550.57	2813.28
550.92	2807.70
551.28	2802.76
551.64	2797.70
551.99	2793.03
552.35	2787.93
552.70	2782.41
553.06	2777.66
553.41	2772.43
553.77	2766.60
554.13	2761.41
554.48	2755.36
554.84	2747.62
555.19	2740.06
555.55	2731.88
555.90	2724.28
556.26	2717.71
556.61	2710.49
556.97	2701.13
557.32	2692.61
557.68	2684.57
558.03	2675.82
558.39	2667.73
558.74	2659.88
559.10	2650.76
559.45	2641.35
559.81	2632.26
560.16	2622.47
560.52	2612.18
560.87	2602.93
561.23	2593.33
561.58	2583.25
561.94	2572.90
562.29	2562.07
562.64	2551.81
563.00	2541.92
563.35	2531.88
563.71	2520.92
564.06	2509.41
564.42	2499.00
564.77	2488.18
565.12	2477.45
565.48	2466.49
565.83	2456.19
566.19	2445.84
566.54	2435.17
566.89	2423.52
567.25	2411.83
567.60	2401.03
567.96	2389.82
568.31	2377.17
568.66	2364.44
569.02	2352.78
569.37	2340.89
569.72	2329.51
570.08	2317.42
570.43	2304.81
570.78	2291.88
571.14	2278.74
571.49	2266.41
571.84	2254.33
572.20	2240.96
572.55	2227.97
572.90	2214.87
573.26	2200.87
573.61	2186.33
573.96	2172.02
574.31	2158.10
574.67	2144.41
575.02	2130.29
575.37	2115.74
575.72	2101.48
576.08	2087.83
576.43	2073.12
576.78	2058.44
577.13	2044.56
577.49	2030.75
577.84	2017.30
578.19	2003.01
578.54	1988.35
578.90	1973.18
579.25	1957.72
579.60	1943.72
579.95	1929.35
580.30	1914.98
580.66	1900.91
581.01	1886.45
581.36	1872.35
581.71	1858.81
582.06	1844.77
582.42	1830.75
582.77	1817.52
583.12	1803.94
583.47	1790.39
583.82	1776.96
584.17	1763.43
584.53	1749.75
584.88	1736.04
585.23	1722.00
585.58	1708.48
585.93	1695.39
586.28	1683.11
586.63	1670.69
586.98	1657.50
587.34	1644.57
587.69	1631.14
588.04	1617.91
588.39	1605.40
588.74	1592.38
589.09	1579.10
589.44	1565.81
589.79	1553.09
590.14	1540.21
590.49	1527.53
590.84	1514.73
591.19	1502.58
591.54	1489.91
591.89	1477.09
592.25	1464.64
592.60	1451.77
592.95	1439.46
593.30	1427.45
593.65	1415.23
594.00	1403.16
594.35	1391.96
594.70	1379.90
595.05	1368.93
595.40	1357.83
595.75	1346.09
596.10	1335.13
596.45	1324.37
596.80	1314.09
597.15	1303.59
597.50	1293.09
597.85	1282.81
598.19	1272.70
598.54	1261.99
598.89	1252.03
599.24	1242.38
599.59	1232.46
599.94	1223.59
600.29	1214.61
600.64	1205.38
600.99	1195.59
601.34	1186.30
601.69	1176.34
602.04	1167.49
602.39	1158.47
602.74	1149.69
603.08	1141.17
603.43	1132.16
603.78	1123.04
604.13	1114.07
604.48	1105.02
604.83	1096.25
605.18	1087.37
605.53	1078.44
605.87	1069.64
606.22	1061.12
606.57	1052.33
606.92	1043.61
607.27	1034.77
607.62	1026.01
607.96	1017.43
608.31	1009.82
608.66	1001.80
609.01	994.23
609.36	986.60
609.70	978.75
610.05	970.73
610.40	963.07
610.75	955.52
611.10	948.25
611.44	940.57
611.79	933.21
612.14	925.47
612.49	917.87
612.83	910.76
613.18	903.72
613.53	896.46
613.88	889.28
614.22	882.72
614.57	875.98
614.92	869.22
615.27	862.49
615.61	855.62
615.96	848.98
616.31	842.25
616.65	835.41
617.00	828.81
617.35	822.37
617.70	815.94
618.04	809.59
618.39	803.25
618.74	797.25
619.08	791.06
619.43	785.14
619.78	779.26
620.12	773.16
620.47	767.23
620.82	761.37
621.16	755.84
621.51	749.96
621.85	744.08
622.20	738.24
622.55	732.59
622.89	726.89
623.24	721.22
623.59	715.65
623.93	710.11
624.28	704.72
624.62	699.31
624.97	693.88
625.32	688.57
625.66	683.13
626.01	677.68
626.35	672.38
626.70	667.11
627.04	661.99
627.39	656.95
627.73	652.03
628.08	647.33
628.43	642.51
628.77	637.76
629.12	633.14
629.46	628.71
629.81	624.09
630.15	619.35
630.50	614.76
630.84	610.37
631.19	606.16
631.53	601.99
631.88	597.71
632.22	593.54
632.57	589.60
632.91	585.61
633.26	581.71
633.60	577.89
633.95	574.16
634.29	570.31
634.64	566.40
634.98	562.40
635.32	558.56
635.67	554.85
636.01	551.09
636.36	547.35
636.70	543.77
637.05	540.17
637.39	536.79
637.73	533.27
638.08	529.81
638.42	526.33
638.77	522.71
639.11	519.09
639.45	515.51
639.80	511.92
640.14	508.52
640.49	505.08
640.83	501.52
641.17	498.01
641.52	494.66
641.86	491.32
642.20	488.14
642.55	484.81
642.89	481.57
643.23	478.52
643.58	475.71
643.92	472.77
644.26	469.86
644.61	466.95
644.95	464.05
645.29	461.09
645.64	458.10
645.98	455.24
646.32	452.56
646.66	449.88
647.01	447.18
647.35	444.53
647.69	441.76
648.04	439.14
648.38	436.54
648.72	433.91
649.06	431.36
649.41	428.84
649.75	426.31
650.09	423.81
650.43	421.31
650.78	418.79
651.12	416.27
651.46	413.84
651.80	411.51
652.14	409.26
652.49	407.01
652.83	404.83
653.17	402.63
653.51	400.49
653.85	398.41
654.20	396.29
654.54	394.07
654.88	392.05
655.22	390.09
655.56	388.10
655.90	386.19
656.25	384.30
656.59	382.41
656.93	380.62
657.27	378.87
657.61	377.02
657.95	375.23
658.29	373.45
658.64	371.71
658.98	369.93
659.32	368.18
659.66	366.54
660.00	364.92
660.34	363.31
660.68	361.66
661.02	359.94
661.36	358.34
661.70	356.81
662.05	355.26
662.39	353.69
662.73	352.23
663.07	350.78
663.41	349.34
663.75	347.93
664.09	346.53
664.43	345.04
664.77	343.65
665.11	342.20
665.45	340.84
665.79	339.47
666.13	338.09
666.47	336.69
666.81	335.28
667.15	333.82
667.49	332.47
667.83	331.18
668.17	329.93
668.51	328.69
668.85	327.47
669.19	326.33
669.53	325.12
669.87	323.88
670.21	322.67
670.55	321.48
670.89	320.36
671.23	319.20
671.57	318.06
671.91	316.99
672.25	315.97
672.58	314.94
672.92	313.88
673.26	312.89
673.60	311.90
673.94	310.90
674.28	309.97
674.62	309.03
674.96	308.05
675.30	307.13
675.64	306.19
675.97	305.26
676.31	304.29
676.65	303.35
676.99	302.47
677.33	301.54
677.67	300.65
678.01	299.69
678.34	298.80
678.68	297.98
679.02	297.11
679.36	296.24
679.70	295.39
680.04	294.57
680.37	293.74
680.71	292.93
681.05	292.19
681.39	291.40
681.73	290.57
682.06	289.77
682.40	289.00
682.74	288.24
683.08	287.51
683.42	286.77
683.75	286.10
684.09	285.34
684.43	284.64
684.77	283.92
685.10	283.26
685.44	282.57
685.78	281.87
686.12	281.22
686.45	280.54
686.79	279.88
687.13	279.23
687.46	278.55
687.80	277.91
688.14	277.21
688.48	276.57
688.81	275.94
689.15	275.36
689.49	274.73
689.82	274.13
690.16	273.46
690.50	272.86
690.83	272.25
691.17	271.67
691.51	271.10
691.84	270.55
692.18	269.96
692.52	269.38
692.85	268.80
693.19	268.27
693.52	267.72
693.86	267.18
694.20	266.64
694.53	266.13
694.87	265.61
695.21	265.11
695.54	264.61
695.88	264.10
696.21	263.54
696.55	263.05
696.88	262.55
697.22	262.07
697.56	261.60
697.89	261.07
698.23	260.57
698.56	260.06
698.90	259.59
699.23	259.11
699.57	258.67
699.90	258.22
700.24	257.74
700.58	257.30
700.91	256.89
701.25	256.55
701.58	256.18
701.92	255.79
702.25	255.38
702.59	254.96
702.92	254.57
703.26	254.19
703.59	253.79
703.93	253.48
704.26	253.12
704.60	252.74
704.93	252.39
705.26	252.03
705.60	251.71
705.93	251.34
706.27	251.02
706.60	250.70
706.94	250.39
707.27	250.03
707.61	249.68
707.94	249.32
708.27	248.88
708.61	248.51
708.94	248.15
709.28	247.82
709.61	247.50
709.94	247.21
710.28	246.91
710.61	246.63
710.95	246.25
711.28	246.03
711.61	245.74
711.95	245.48
712.28	245.20
712.61	244.90
712.95	244.69
713.28	244.47
713.61	244.19
713.95	243.90
714.28	243.66
714.61	243.40
714.95	243.16
715.28	242.91
715.61	242.66
715.95	242.44
716.28	242.20
716.61	241.99
716.95	241.75
717.28	241.53
717.61	241.29
717.94	241.07
718.28	240.77
718.61	240.56
718.94	240.31
719.27	240.11
719.61	239.91
719.94	239.68
720.27	239.42
720.60	239.22
720.94	239.02
721.27	238.83
721.60	238.66
721.93	238.47
722.27	238.33
722.60	238.16
722.93	237.96
723.26	237.79
723.59	237.59
723.93	237.43
724.26	237.26
724.59	237.09
724.92	236.94
725.25	236.80
725.59	236.64
725.92	236.51
726.25	236.36
726.58	236.20
726.91	236.04
727.24	235.90
727.57	235.75
727.91	235.59
728.24	235.46
728.57	235.30
728.90	235.18
729.23	235.00
729.56	234.90
729.89	234.76
730.22	234.61
730.55	234.48
730.89	234.34
731.22	234.20
731.55	234.06
731.88	233.93
732.21	233.78
732.54	233.66
732.87	233.53
733.20	233.41
733.53	233.30
733.86	233.19
734.19	233.06
734.52	232.96
734.85	232.93
735.18	232.79
735.51	232.71
735.84	232.60
736.17	232.51
736.50	232.35
736.83	232.37
737.16	232.28
737.49	232.19
737.82	232.08
738.15	232.00
738.48	231.91
738.81	231.80
739.14	231.69
739.47	231.59
739.80	231.49
740.13	231.39
740.46	231.28
740.79	231.17
741.12	231.08
741.45	230.97
741.78	230.82
742.11	230.76
742.44	230.64
742.77	230.57
743.10	230.46
743.43	230.37
743.75	230.17
744.08	230.24
744.41	230.14
744.74	230.06
745.07	229.95
745.40	229.89
745.73	229.85
746.06	229.78
746.39	229.72
746.71	229.64
747.04	229.55
747.37	229.48
747.70	229.43
748.03	229.36
748.36	229.30
748.68	229.22
749.01	229.12
749.34	229.05
749.67	228.99
750.00	228.93
750.33	228.95
750.65	228.89
750.98	228.67
751.31	228.61
751.64	228.55
751.97	228.54
752.29	228.46
752.62	228.35
752.95	228.28
753.28	228.20
753.60	228.13
753.93	228.09
754.26	228.04
754.59	227.94
754.91	227.86
755.24	227.78
755.57	227.77
755.90	227.70
756.22	227.63
756.55	227.55
756.88	227.47
757.20	227.34
757.53	227.25
757.86	227.19
758.19	227.15
758.51	227.09
758.84	226.99
759.17	226.92
759.49	226.88
759.82	226.88
760.15	226.84
760.47	226.78
760.80	226.71
761.13	226.67
761.45	226.63
761.78	226.59
762.11	226.55
762.43	226.44
762.76	226.40
763.08	226.37
763.41	226.34
763.74	226.30
764.06	226.25
764.39	226.22
764.71	226.17
765.04	226.12
765.37	226.07
765.69	226.03
766.02	225.99
766.34	225.93
766.67	225.85
767.00	225.83
767.32	225.85
767.65	225.87
767.97	225.82
768.30	225.79
768.62	225.75
768.95	225.70
769.27	225.66
769.60	225.64
769.92	225.58
770.25	225.53
770.57	225.48
770.90	225.44
771.22	225.39
771.55	225.36
771.87	225.33
772.20	225.30
772.52	225.35
772.85	225.44
773.17	225.42
773.50	225.38
773.82	225.33
774.15	225.25
774.47	225.15
774.80	225.11
775.12	225.08
775.45	225.04
775.77	225.02
776.09	225.00
776.42	224.97
776.74	224.97
777.07	224.95
777.39	224.93
777.72	224.89
778.04	224.88
778.36	224.85
778.69	224.82
779.01	224.81
779.33	224.69
779.66	224.55
779.98	224.51
780.31	224.50
780.63	224.52
780.95	224.52
781.28	224.49
781.60	224.47
781.92	224.44
782.25	224.42
782.57	224.40
782.89	224.37
783.22	224.35
783.54	224.31
783.86	224.30
784.19	224.27
784.51	224.29
784.83	224.26
785.16	224.24
785.48	224.22
785.80	224.20
786.12	224.20
786.45	224.18
786.77	224.17
787.09	224.15
787.42	224.09
787.74	224.07
788.06	224.07
788.38	224.05
788.71	224.03
789.03	224.02
789.35	224.02
789.67	223.99
789.99	223.98
790.32	223.96
790.64	223.95
790.96	224.04
791.28	223.99
791.61	223.97
791.93	223.96
792.25	223.94
792.57	224.00
792.89	223.96
793.21	223.96
793.54	223.94
793.86	223.91
794.18	223.91
794.50	223.88
794.82	223.86
795.14	223.86
795.47	223.87
795.79	223.86
796.11	223.82
796.43	223.81
796.75	223.80
797.07	223.79
797.39	223.78
797.71	223.68
798.04	223.67
798.36	223.66
798.68	223.65
799.00	223.65
799.32	223.58
799.64	223.59
799.96	223.58
800.28	223.58
800.60	223.57
800.92	223.56
801.24	223.54
801.56	223.54
801.89	223.52
802.21	223.51
802.53	223.48
802.85	223.49
803.17	223.53
803.49	223.50
803.81	223.48
804.13	223.46
804.45	223.44
804.77	223.44
805.09	223.43
805.41	223.41
805.73	223.38
806.05	223.35
806.37	223.33
806.69	223.31
807.01	223.29
807.33	223.29
807.65	223.24
807.97	223.29
808.28	223.26
808.60	223.25
808.92	223.23
809.24	223.29
809.56	223.26
809.88	223.22
810.20	223.22
810.52	223.23
810.84	223.21
811.16	223.19
811.48	223.17
811.80	223.20
812.12	223.20
812.43	223.21
812.75	223.21
813.07	223.20
813.39	223.20
813.71	223.18
814.03	223.17
814.35	223.17
814.67	223.11
814.98	223.10
815.30	223.10
815.62	223.07
815.94	223.00
816.26	223.01
816.58	222.99
816.89	222.99
817.21	222.96
817.53	222.96
817.85	222.96
818.17	222.96
818.48	222.91
818.80	222.92
819.12	222.90
819.44	222.87
819.76	222.86
820.07	222.86
820.39	222.85
820.71	222.85
821.03	222.84
821.34	222.83
821.66	222.84
821.98	222.85
822.30	222.85
822.61	222.91
822.93	222.88
823.25	222.88
823.57	222.86
823.88	222.87
824.20	222.86
824.52	222.88
824.83	222.87
825.15	222.85
825.47	222.84
825.79	222.85
826.10	222.84
826.42	222.83
826.74	222.83
827.05	222.83
827.37	222.83
827.69	222.82
828.00	222.83
828.32	222.82
828.64	222.81
828.95	222.86
829.27	222.82
829.58	222.82
829.90	222.83
830.22	222.84
830.53	222.82
830.85	222.81
831.17	222.77
831.48	222.78
831.80	222.78
832.11	222.77
832.43	222.75
832.75	222.75
833.06	222.82
833.38	222.78
833.69	222.78
834.01	222.78
834.32	222.77
834.64	222.76
834.96	222.75
835.27	222.75
835.59	222.71
835.90	222.70
836.22	222.69
836.53	222.66
836.85	222.65
837.16	222.75
837.48	222.76
837.79	222.79
838.11	222.78
838.42	222.78
838.74	222.79
839.05	222.78
839.37	222.78
839.68	222.71
840.00	222.70
840.31	222.72
840.63	222.70
840.94	222.70
841.26	222.69
841.57	222.68
841.88	222.69
842.20	222.67
842.51	222.65
842.83	222.64
843.14	222.73
843.46	222.73
843.77	222.66
844.08	222.65
844.40	222.62
844.71	222.60
845.03	222.59
845.34	222.58
845.65	222.58
845.97	222.58
846.28	222.58
846.60	222.59
846.91	222.56
847.22	222.56
847.54	222.58
847.85	222.58
848.16	222.57
848.48	222.54
848.79	222.58
849.10	222.60
849.42	222.60
849.73	222.50
850.04	222.50
850.36	222.47
850.67	222.48
850.98	222.48
851.30	222.49
851.61	222.49
851.92	222.48
852.23	222.51
852.55	222.52
852.86	222.52
853.17	222.52
853.49	222.55
853.80	222.56
854.11	222.57
854.42	222.58
854.74	222.58
855.05	222.58
855.36	222.53
855.67	222.53
855.99	222.52
856.30	222.65
856.61	222.65
856.92	222.65
857.23	222.64
857.55	222.63
857.86	222.62
858.17	222.64
858.48	222.62
858.79	222.60
859.11	222.61
859.42	222.60
859.73	222.58
860.04	222.57
860.35	222.54
860.66	222.51
860.98	222.50
861.29	222.51
861.60	222.50
861.91	222.52
862.22	222.51
862.53	222.49
862.84	222.37
863.16	222.39
863.47	222.38
863.78	222.36
864.09	222.37
864.40	222.38
864.71	222.38
865.02	222.39
865.33	222.37
865.64	222.36
865.95	222.36
866.27	222.42
866.58	222.41
866.89	222.42
867.20	222.42
867.51	222.40
867.82	222.39
868.13	222.42
868.44	222.40
868.75	222.42
869.06	222.42
869.37	222.43
869.68	222.41
869.99	222.42
870.30	222.43
870.61	222.43
870.92	222.42
871.23	222.40
871.54	222.42
871.85	222.44
872.16	222.46
872.47	222.45
872.78	222.39
873.09	222.40
873.40	222.39
873.71	222.40
874.02	222.41
874.33	222.40
874.64	222.38
874.95	222.40
875.26	222.37
875.56	222.37
875.87	222.37
876.18	222.36
876.49	222.46
876.80	222.45
877.11	222.44
877.42	222.44
877.73	222.45
878.04	222.43
878.35	222.43
878.66	222.43
878.96	222.42
879.27	222.42
879.58	222.41
879.89	222.41
880.20	222.44
880.51	222.43
880.82	222.43
881.12	222.44
881.43	222.42
881.74	222.41
882.05	222.40
882.36	222.41
882.67	222.41
882.97	222.30
883.28	222.29
883.59	222.29
883.90	222.30
884.21	222.31
884.51	222.31
884.82	222.29
885.13	222.29
885.44	222.29
885.74	222.29
886.05	222.29
886.36	222.29
886.67	222.25
886.98	222.31
887.28	222.31
887.59	222.31
887.90	222.31
888.20	222.31
888.51	222.33
888.82	222.31
889.13	222.31
889.43	222.41
889.74	222.40
890.05	222.40
890.35	222.38
890.66	222.36
890.97	222.35
891.28	222.34
891.58	222.34
891.89	222.34
892.20	222.32
892.50	222.31
892.81	222.30
893.12	222.30
893.42	222.24
893.73	222.25
894.04	222.25
894.34	222.26
894.65	222.25
894.95	222.24
895.26	222.25
895.57	222.29
895.87	222.18
896.18	222.20
896.48	222.21
896.79	222.21
897.10	222.22
897.40	222.23
897.71	222.24
898.01	222.24
898.32	222.25
898.63	222.24
898.93	222.25
899.24	222.25
899.54	222.25
899.85	222.25
900.15	222.24
900.46	222.24
900.76	222.25
901.07	222.25
901.38	222.24
901.68	222.25
901.99	222.19
902.29	222.20
902.60	222.19
902.90	222.19
903.21	222.18
903.51	222.17
903.82	222.19
904.12	222.19
904.43	222.19
904.73	222.18
905.03	222.19
905.34	222.29
905.64	222.29
905.95	222.29
906.25	222.28
906.56	222.28
906.86	222.27
907.17	222.26
907.47	222.27
907.77	222.26
908.08	222.24
908.38	222.25
908.69	222.26
908.99	222.28
909.30	222.28
909.60	222.28
909.90	222.29
910.21	222.26
910.51	222.24
910.81	222.25
911.12	222.25
911.42	222.25
911.73	222.14
912.03	222.15
912.33	222.18
912.64	222.16
912.94	222.16
913.24	222.14
913.55	222.13
913.85	222.12
914.15	222.14
914.46	222.16
914.76	222.15
915.06	222.14
915.37	222.12
915.67	222.11
915.97	222.11
916.27	222.09
916.58	222.10
916.88	222.10
917.18	222.09
917.49	222.15
917.79	222.14
918.09	222.16
918.39	222.18
918.70	222.17
919.00	222.18
919.30	222.23
919.60	222.23
919.91	222.22
920.21	222.22
920.51	222.20
920.81	222.19
921.12	222.21
921.42	222.20
921.72	222.21
922.02	222.21
922.32	222.22
922.63	222.23
922.93	222.29
923.23	222.29
923.53	222.28
923.83	222.21
924.13	222.22
924.44	222.22
924.74	222.23
925.04	222.25
925.34	222.25
925.64	222.20
925.94	222.21
926.24	222.27
926.55	222.26
926.85	222.27
927.15	222.27
927.45	222.27
927.75	222.27
928.05	222.27
928.35	222.26
928.65	222.27
928.95	222.28
929.26	222.23
929.56	222.24
929.86	222.26
930.16	222.25
930.46	222.24
930.76	222.24
931.06	222.19
931.36	222.16
931.66	222.18
931.96	222.19
932.26	222.19
932.56	222.14
932.86	222.16
933.16	222.15
933.46	222.14
933.76	222.13
934.06	222.15
934.36	222.17
934.66	222.17
934.96	222.16
935.26	222.16
935.56	222.18
935.86	222.15
936.16	222.13
936.46	222.12
936.76	222.12
937.06	222.10
937.36	222.11
937.66	222.12
937.96	222.11
938.26	222.09
938.56	222.08
938.86	222.09
939.16	222.11
939.46	222.11
939.76	222.12
940.06	222.12
940.35	222.11
940.65	222.05
940.95	222.06
941.25	222.03
941.55	222.02
941.85	222.01
942.15	222.03
942.45	222.06
942.75	222.06
943.04	222.07
943.34	222.08
943.64	222.07
943.94	222.06
944.24	222.05
944.54	222.06
944.84	222.06
945.13	222.04
945.43	222.02
945.73	222.02
946.03	222.01
946.33	222.00
946.62	221.99
946.92	221.99
947.22	221.99
947.52	222.00
947.82	222.01
948.11	222.00
948.41	221.98
948.71	221.95
949.01	221.96
949.31	221.95
949.60	221.94
949.90	221.96
950.20	221.96
950.50	221.95
950.79	221.95
951.09	221.97
951.39	221.96
951.69	221.95
951.98	221.97
952.28	221.98
952.58	221.97
952.87	221.97
953.17	221.99
953.47	221.97
953.76	221.98
954.06	221.96
954.36	221.95
954.66	221.94
954.95	221.97
955.25	221.98
955.55	221.99
955.84	221.98
956.14	221.98
956.44	221.99
956.73	221.98
957.03	221.99
957.32	221.99
957.62	221.98
957.92	222.01
958.21	221.99
958.51	222.11
958.81	222.13
959.10	222.14
959.40	222.16
959.69	222.17
959.99	222.18
960.29	222.19
960.58	222.19
960.88	222.22
961.17	222.21
961.47	222.22
961.76	222.21
962.06	222.23
962.36	222.21
962.65	222.22
962.95	222.23
963.24	222.21
963.54	222.22
963.83	222.22
964.13	222.22
964.42	222.21
964.72	222.11
965.01	222.11
965.31	222.11
965.60	222.08
965.90	222.14
966.19	222.12
966.49	222.12
966.78	222.12
967.08	222.11
967.37	222.11
967.67	222.09
967.96	222.10
968.26	222.10
968.55	222.11
968.85	222.11
969.14	222.10
969.43	222.11
969.73	222.09
970.02	222.09
970.32	222.08
970.61	222.06
970.91	222.03
971.20	222.02
971.49	222.01
971.79	222.02
972.08	221.95
972.38	221.96
972.67	221.95
972.96	221.97
973.26	221.94
973.55	221.98
973.85	221.97
974.14	221.96
974.43	221.97
974.73	221.95
975.02	221.94
975.31	221.94
975.61	221.94
975.90	221.93
976.19	221.92
976.49	221.93
976.78	221.94
977.07	221.93
977.37	221.94
977.66	221.95
977.95	221.94
978.24	221.95
978.54	221.97
978.83	221.96
979.12	221.95
979.42	221.95
979.71	221.93
980.00	221.93
980.29	221.93
980.59	221.91
980.88	221.94
981.17	221.94
981.46	221.94
981.76	221.94
982.05	221.98
982.34	221.98
982.63	221.98
982.93	221.98
983.22	222.01
983.51	222.01
983.80	222.03
984.09	222.04
984.39	222.03
984.68	222.02
984.97	222.03
985.26	222.02
985.55	222.03
985.85	222.01
986.14	222.03
986.43	222.04
986.72	222.04
987.01	222.00
987.30	222.01
987.59	222.00
987.89	222.00
988.18	221.96
988.47	221.96
988.76	221.95
989.05	221.94
989.34	221.92
989.63	221.95
989.92	221.93
990.22	221.91
990.51	221.91
990.80	221.90
991.09	221.91
991.38	221.92
991.67	221.91
991.96	221.90
992.25	221.90
992.54	221.87
992.83	221.88
993.12	221.87
993.41	221.89
993.70	221.94
993.99	221.95
994.28	221.97
994.58	221.99
994.87	221.98
995.16	221.98
995.45	221.97
995.74	221.93
996.03	221.95
996.32	221.96
996.61	221.98
996.90	221.98
997.19	221.98
997.48	221.98
997.77	221.97
998.06	221.98
998.34	221.97
998.63	221.97
998.92	221.97
999.21	221.99
999.50	221.98
999.79	221.95
1000.08	221.94
1000.37	221.94
1000.66	221.93
1000.95	221.95
1001.24	221.96
1001.53	221.97
1001.82	221.97
1002.11	221.95
1002.40	221.95
1002.68	221.98
1002.97	222.05
1003.26	222.04
1003.55	222.02
1003.84	222.03
1004.13	222.06
1004.42	222.06
1004.71	222.06
1004.99	222.06
1005.28	222.08
1005.57	222.07
1005.86	222.06
1006.15	222.05
1006.44	222.03
1006.72	222.04
1007.01	222.02
1007.30	222.02
1007.59	222.01
1007.88	222.01
1008.17	222.02
1008.45	221.99
1008.74	221.95
1009.03	221.90
1009.32	221.91
1009.60	221.91
1009.89	221.90
1010.18	221.86
1010.47	221.85
1010.76	221.85
1011.04	221.85
1011.33	221.85
1011.62	221.86
1011.91	221.86
1012.19	221.87
1012.48	221.87
1012.77	221.87
1013.05	221.91
1013.34	221.91
1013.63	221.90
1013.92	221.91
1014.20	221.90
1014.49	221.91
1014.78	221.92
1015.06	221.89
1015.35	221.89
1015.64	221.90
1015.92	221.92
1016.21	221.93
1016.50	221.93
1016.78	221.94
1017.07	221.95
1017.36	221.93
1017.64	221.92
1017.93	221.93
1018.22	221.92
1018.50	221.91
1018.79	221.91
1019.08	221.87
1019.36	221.88
1019.65	221.87
1019.93	221.90
1020.22	221.91
1020.51	221.97
1020.79	221.96
1021.08	221.72
1021.36	221.70
1021.65	221.90
1021.94	221.84
1022.22	221.94
1022.51	221.71
1022.79	222.40
1023.08	222.04
1023.36	223.22
1023.65	221.67
>>>>>End Processed Spectral Data<<<<<
