SpectraSuite Data File
++++++++++++++++++++++++++++++++++++
Date: Wed Sep 30 14:46:10 EDT 2015
User: lab3
Dark Spectrum Present: No
Reference Spectrum Present: No
Number of Sampled Component Spectra: 1
Spectrometers: USB2E7196
Integration Time (usec): 36000 (USB2E7196)
Spectra Averaged: 1500 (USB2E7196)
Boxcar Smoothing: 10 (USB2E7196)
Correct for Electrical Dark: No (USB2E7196)
Strobe/Lamp Enabled: No (USB2E7196)
Correct for Detector Non-linearity: No (USB2E7196)
Correct for Stray Light: No (USB2E7196)
Number of Pixels in Processed Spectrum: 2048
>>>>>Begin Processed Spectral Data<<<<<
339.09	0.00
339.48	211.30
339.86	212.86
340.24	214.33
340.63	215.82
341.01	218.66
341.39	218.20
341.78	219.64
342.16	220.79
342.54	221.37
342.93	209.94
343.31	220.55
343.69	221.10
344.07	221.56
344.46	221.98
344.84	222.35
345.22	222.59
345.60	222.86
345.99	223.06
346.37	223.20
346.75	223.30
347.13	223.38
347.52	223.45
347.90	223.52
348.28	223.56
348.66	223.60
349.05	223.59
349.43	223.64
349.81	223.70
350.19	223.74
350.57	223.81
350.96	223.89
351.34	223.98
351.72	224.06
352.10	224.17
352.48	224.25
352.87	224.31
353.25	224.37
353.63	224.42
354.01	224.47
354.39	224.55
354.77	224.62
355.15	224.72
355.54	224.77
355.92	224.81
356.30	224.88
356.68	225.01
357.06	225.09
357.44	225.14
357.82	225.20
358.20	225.31
358.58	225.37
358.97	225.44
359.35	225.51
359.73	225.59
360.11	225.63
360.49	225.69
360.87	225.73
361.25	225.79
361.63	225.88
362.01	225.93
362.39	225.96
362.77	226.00
363.15	226.02
363.53	226.06
363.91	226.09
364.29	226.11
364.67	226.04
365.05	226.06
365.43	226.09
365.81	226.12
366.19	226.12
366.57	226.18
366.95	226.17
367.33	226.15
367.71	226.15
368.09	226.17
368.47	226.16
368.85	226.15
369.23	226.15
369.61	226.10
369.99	226.11
370.37	226.12
370.75	226.18
371.13	226.15
371.51	226.11
371.89	226.08
372.27	226.06
372.65	226.04
373.03	226.01
373.41	225.96
373.78	225.91
374.16	225.82
374.54	225.75
374.92	225.70
375.30	225.66
375.68	225.59
376.06	225.54
376.44	225.49
376.82	225.45
377.19	225.40
377.57	225.35
377.95	225.26
378.33	225.20
378.71	225.06
379.09	225.02
379.47	224.99
379.84	224.92
380.22	224.86
380.60	224.79
380.98	224.74
381.36	224.69
381.73	224.63
382.11	224.61
382.49	224.56
382.87	224.50
383.25	224.45
383.62	224.52
384.00	224.46
384.38	224.42
384.76	224.40
385.13	224.37
385.51	224.34
385.89	224.28
386.27	224.24
386.64	224.22
387.02	224.17
387.40	224.11
387.78	224.09
388.15	224.07
388.53	224.03
388.91	224.00
389.29	223.97
389.66	223.96
390.04	223.92
390.42	223.91
390.79	223.90
391.17	223.89
391.55	223.76
391.92	223.75
392.30	223.75
392.68	223.71
393.05	223.70
393.43	223.69
393.81	223.70
394.18	223.68
394.56	223.68
394.94	223.70
395.31	223.71
395.69	223.74
396.06	223.77
396.44	223.79
396.82	223.80
397.19	223.87
397.57	223.88
397.95	223.92
398.32	223.91
398.70	223.95
399.07	224.01
399.45	224.04
399.82	224.08
400.20	224.11
400.58	224.17
400.95	224.18
401.33	224.26
401.70	224.39
402.08	224.48
402.45	224.54
402.83	224.65
403.20	224.74
403.58	224.83
403.95	224.94
404.33	225.08
404.71	225.19
405.08	225.38
405.46	225.51
405.83	225.67
406.21	225.85
406.58	226.04
406.96	226.22
407.33	226.43
407.70	226.67
408.08	227.00
408.45	227.29
408.83	227.59
409.20	227.87
409.58	228.13
409.95	228.47
410.33	228.86
410.70	229.21
411.08	229.62
411.45	230.07
411.82	230.50
412.20	231.01
412.57	231.62
412.95	232.09
413.32	232.71
413.69	233.36
414.07	234.04
414.44	234.78
414.82	235.53
415.19	236.41
415.56	237.29
415.94	238.22
416.31	239.26
416.68	240.31
417.06	241.52
417.43	242.66
417.81	243.97
418.18	245.30
418.55	246.77
418.93	248.29
419.30	249.86
419.67	251.56
420.04	253.28
420.42	255.09
420.79	257.19
421.16	259.30
421.54	261.43
421.91	263.68
422.28	266.01
422.66	268.53
423.03	270.91
423.40	273.45
423.77	276.15
424.15	278.93
424.52	281.81
424.89	284.93
425.26	288.03
425.64	290.92
426.01	294.16
426.38	297.48
426.75	300.90
427.13	304.43
427.50	308.10
427.87	311.95
428.24	315.82
428.61	319.51
428.99	323.51
429.36	327.88
429.73	332.06
430.10	336.23
430.47	340.51
430.85	344.93
431.22	349.59
431.59	354.37
431.96	359.07
432.33	364.28
432.70	369.24
433.08	375.08
433.45	380.58
433.82	386.00
434.19	392.07
434.56	398.02
434.93	403.75
435.30	409.45
435.68	415.81
436.05	422.03
436.42	428.26
436.79	433.92
437.16	440.08
437.53	446.66
437.90	453.23
438.27	459.63
438.64	466.54
439.01	472.81
439.38	478.56
439.75	484.06
440.13	490.29
440.50	496.22
440.87	500.92
441.24	506.05
441.61	511.69
441.98	515.79
442.35	520.73
442.72	525.77
443.09	530.53
443.46	533.58
443.83	535.85
444.20	537.73
444.57	540.49
444.94	542.08
445.31	543.73
445.68	545.18
446.05	546.21
446.42	545.99
446.79	545.67
447.16	545.36
447.53	545.12
447.90	543.22
448.27	541.44
448.64	538.65
449.01	536.84
449.37	532.91
449.74	529.33
450.11	524.71
450.48	519.64
450.85	514.54
451.22	510.21
451.59	505.92
451.96	502.04
452.33	496.42
452.70	491.41
453.07	485.28
453.43	479.15
453.80	473.23
454.17	467.50
454.54	462.17
454.91	456.21
455.28	450.59
455.65	445.27
456.02	439.63
456.38	435.08
456.75	429.20
457.12	424.49
457.49	419.74
457.86	415.20
458.23	411.20
458.59	406.80
458.96	402.31
459.33	398.38
459.70	394.38
460.07	391.34
460.43	387.75
460.80	384.40
461.17	381.47
461.54	378.31
461.91	375.33
462.27	372.31
462.64	369.84
463.01	367.00
463.38	364.15
463.74	361.55
464.11	359.25
464.48	357.17
464.85	354.92
465.21	353.17
465.58	351.24
465.95	349.05
466.32	347.31
466.68	345.60
467.05	343.87
467.42	342.19
467.78	340.37
468.15	338.68
468.52	337.44
468.88	335.78
469.25	334.29
469.62	333.10
469.98	331.82
470.35	330.69
470.72	329.67
471.08	328.63
471.45	327.78
471.82	326.82
472.18	325.81
472.55	325.18
472.92	324.40
473.28	323.78
473.65	323.14
474.02	322.54
474.38	322.03
474.75	321.75
475.11	321.33
475.48	321.18
475.85	321.01
476.21	320.96
476.58	320.98
476.94	321.18
477.31	321.30
477.67	321.45
478.04	321.69
478.41	322.01
478.77	322.45
479.14	322.77
479.50	323.33
479.87	324.02
480.23	324.71
480.60	325.40
480.96	326.11
481.33	327.08
481.69	328.05
482.06	329.00
482.42	329.92
482.79	331.04
483.15	332.33
483.52	333.76
483.88	335.14
484.25	336.62
484.61	338.12
484.98	339.76
485.34	341.60
485.71	343.52
486.07	345.57
486.44	347.62
486.80	349.88
487.17	352.17
487.53	354.70
487.90	357.32
488.26	360.13
488.62	363.11
488.99	366.13
489.35	369.28
489.72	372.71
490.08	376.27
490.44	379.92
490.81	383.74
491.17	387.67
491.54	391.85
491.90	396.10
492.26	400.67
492.63	405.48
492.99	410.51
493.36	415.68
493.72	421.14
494.08	426.74
494.45	432.63
494.81	438.77
495.17	445.00
495.54	451.62
495.90	458.62
496.26	465.71
496.63	472.98
496.99	480.55
497.35	488.41
497.72	496.60
498.08	504.99
498.44	513.61
498.80	522.74
499.17	532.19
499.53	541.95
499.89	551.96
500.26	562.16
500.62	572.55
500.98	583.59
501.34	594.79
501.71	606.46
502.07	618.40
502.43	630.74
502.79	643.52
503.16	656.63
503.52	669.85
503.88	683.54
504.24	697.62
504.60	711.92
504.97	726.66
505.33	741.75
505.69	757.57
506.05	773.66
506.41	789.96
506.78	806.48
507.14	823.56
507.50	840.98
507.86	858.77
508.22	876.83
508.59	895.00
508.95	913.76
509.31	933.00
509.67	952.98
510.03	973.11
510.39	993.34
510.75	1013.77
511.12	1034.54
511.48	1055.49
511.84	1076.78
512.20	1098.30
512.56	1120.69
512.92	1143.19
513.28	1165.65
513.64	1188.37
514.00	1211.48
514.37	1235.18
514.73	1258.82
515.09	1282.29
515.45	1305.97
515.81	1329.92
516.17	1353.94
516.53	1377.88
516.89	1401.61
517.25	1425.31
517.61	1449.20
517.97	1473.39
518.33	1497.57
518.69	1521.93
519.05	1546.66
519.41	1571.31
519.77	1596.34
520.13	1620.60
520.49	1644.95
520.85	1669.23
521.21	1693.53
521.57	1718.35
521.93	1742.32
522.29	1766.75
522.65	1791.06
523.01	1815.41
523.37	1839.19
523.73	1863.58
524.09	1887.71
524.45	1911.99
524.81	1936.10
525.17	1959.69
525.53	1983.07
525.89	2006.33
526.25	2029.55
526.61	2051.41
526.97	2073.57
527.33	2095.53
527.68	2117.44
528.04	2138.99
528.40	2160.47
528.76	2181.61
529.12	2202.01
529.48	2223.19
529.84	2242.24
530.20	2261.83
530.56	2280.81
530.91	2300.41
531.27	2319.44
531.63	2337.73
531.99	2355.54
532.35	2372.89
532.71	2391.10
533.07	2409.62
533.42	2426.39
533.78	2443.68
534.14	2461.37
534.50	2478.28
534.86	2495.60
535.21	2510.96
535.57	2526.21
535.93	2540.98
536.29	2555.17
536.65	2568.94
537.00	2581.34
537.36	2594.73
537.72	2606.90
538.08	2619.15
538.44	2630.13
538.79	2640.54
539.15	2650.00
539.51	2659.43
539.87	2667.81
540.22	2673.68
540.58	2679.63
540.94	2686.33
541.29	2691.89
541.65	2697.22
542.01	2702.29
542.37	2705.34
542.72	2709.76
543.08	2713.29
543.44	2716.50
543.79	2719.06
544.15	2721.17
544.51	2722.86
544.87	2724.55
545.22	2725.68
545.58	2725.55
545.94	2725.41
546.29	2724.14
546.65	2723.20
547.01	2722.04
547.36	2721.32
547.72	2721.13
548.07	2719.61
548.43	2716.54
548.79	2713.23
549.14	2709.83
549.50	2706.65
549.86	2703.27
550.21	2698.80
550.57	2694.60
550.92	2689.19
551.28	2683.68
551.64	2678.12
551.99	2672.72
552.35	2666.13
552.70	2659.77
553.06	2654.29
553.41	2648.47
553.77	2642.40
554.13	2636.30
554.48	2628.91
554.84	2620.63
555.19	2612.13
555.55	2603.07
555.90	2595.14
556.26	2587.37
556.61	2578.78
556.97	2568.75
557.32	2558.94
557.68	2549.18
558.03	2539.06
558.39	2529.92
558.74	2521.49
559.10	2511.62
559.45	2501.64
559.81	2492.12
560.16	2482.06
560.52	2471.63
560.87	2461.37
561.23	2450.65
561.58	2440.32
561.94	2429.94
562.29	2419.11
562.64	2408.82
563.00	2398.73
563.35	2388.52
563.71	2377.51
564.06	2366.77
564.42	2356.30
564.77	2345.69
565.12	2334.97
565.48	2323.96
565.83	2312.48
566.19	2300.63
566.54	2289.43
566.89	2277.42
567.25	2265.41
567.60	2254.35
567.96	2242.75
568.31	2230.12
568.66	2217.94
569.02	2206.01
569.37	2194.51
569.72	2183.81
570.08	2172.04
570.43	2159.85
570.78	2147.52
571.14	2135.15
571.49	2122.46
571.84	2110.03
572.20	2096.76
572.55	2083.54
572.90	2070.78
573.26	2058.46
573.61	2045.30
573.96	2032.46
574.31	2020.04
574.67	2007.55
575.02	1994.03
575.37	1980.52
575.72	1967.49
576.08	1954.50
576.43	1940.93
576.78	1927.37
577.13	1913.52
577.49	1900.02
577.84	1886.74
578.19	1873.54
578.54	1860.01
578.90	1846.19
579.25	1832.15
579.60	1819.34
579.95	1806.65
580.30	1793.75
580.66	1780.25
581.01	1766.84
581.36	1753.11
581.71	1739.82
582.06	1726.72
582.42	1713.99
582.77	1701.23
583.12	1688.74
583.47	1676.58
583.82	1664.00
584.17	1650.67
584.53	1637.63
584.88	1624.81
585.23	1611.86
585.58	1598.92
585.93	1586.43
586.28	1574.56
586.63	1562.60
586.98	1550.09
587.34	1537.75
587.69	1524.86
588.04	1512.41
588.39	1500.40
588.74	1488.13
589.09	1476.28
589.44	1463.70
589.79	1451.24
590.14	1439.01
590.49	1426.72
590.84	1414.49
591.19	1402.93
591.54	1391.38
591.89	1379.61
592.25	1368.28
592.60	1356.68
592.95	1345.45
593.30	1334.06
593.65	1322.83
594.00	1311.72
594.35	1301.11
594.70	1289.70
595.05	1279.19
595.40	1268.40
595.75	1257.42
596.10	1247.15
596.45	1236.42
596.80	1226.45
597.15	1216.63
597.50	1206.68
597.85	1197.13
598.19	1187.58
598.54	1177.68
598.89	1168.39
599.24	1159.40
599.59	1150.39
599.94	1141.92
600.29	1133.11
600.64	1124.40
600.99	1114.99
601.34	1106.20
601.69	1097.20
602.04	1089.09
602.39	1080.56
602.74	1072.51
603.08	1064.74
603.43	1056.72
603.78	1048.66
604.13	1040.61
604.48	1032.42
604.83	1024.51
605.18	1016.41
605.53	1008.21
605.87	1000.05
606.22	992.18
606.57	984.06
606.92	975.79
607.27	967.76
607.62	959.95
607.96	952.20
608.31	945.51
608.66	938.51
609.01	931.52
609.36	924.49
609.70	917.53
610.05	910.39
610.40	903.38
610.75	896.19
611.10	889.47
611.44	882.51
611.79	875.87
612.14	869.13
612.49	862.21
612.83	855.76
613.18	849.49
613.53	843.27
613.88	837.17
614.22	831.32
614.57	825.23
614.92	819.28
615.27	813.42
615.61	807.08
615.96	800.82
616.31	794.76
616.65	788.54
617.00	782.42
617.35	776.35
617.70	770.38
618.04	764.61
618.39	758.67
618.74	753.06
619.08	747.29
619.43	741.64
619.78	736.15
620.12	730.47
620.47	724.99
620.82	719.51
621.16	714.16
621.51	708.64
621.85	703.21
622.20	697.66
622.55	692.16
622.89	686.81
623.24	681.62
623.59	676.52
623.93	671.66
624.28	666.95
624.62	662.25
624.97	657.47
625.32	652.76
625.66	647.88
626.01	642.98
626.35	638.24
626.70	633.46
627.04	629.00
627.39	624.55
627.73	620.07
628.08	615.64
628.43	611.22
628.77	606.91
629.12	602.68
629.46	598.58
629.81	594.39
630.15	590.24
630.50	586.18
630.84	582.15
631.19	578.21
631.53	574.34
631.88	570.46
632.22	566.48
632.57	562.78
632.91	559.14
633.26	555.50
633.60	551.84
633.95	548.33
634.29	544.68
634.64	541.09
634.98	537.42
635.32	533.90
635.67	530.58
636.01	527.27
636.36	523.93
636.70	520.73
637.05	517.57
637.39	514.45
637.73	511.14
638.08	507.91
638.42	504.76
638.77	501.50
639.11	498.14
639.45	494.94
639.80	491.71
640.14	488.59
640.49	485.52
640.83	482.41
641.17	479.38
641.52	476.35
641.86	473.26
642.20	470.36
642.55	467.31
642.89	464.29
643.23	461.41
643.58	458.72
643.92	455.92
644.26	453.19
644.61	450.50
644.95	447.84
645.29	445.09
645.64	442.28
645.98	439.57
646.32	437.00
646.66	434.44
647.01	431.94
647.35	429.57
647.69	427.07
648.04	424.67
648.38	422.22
648.72	419.83
649.06	417.49
649.41	415.19
649.75	412.96
650.09	410.65
650.43	408.38
650.78	406.10
651.12	403.81
651.46	401.59
651.80	399.43
652.14	397.36
652.49	395.34
652.83	393.34
653.17	391.38
653.51	389.49
653.85	387.63
654.20	385.71
654.54	383.67
654.88	381.74
655.22	379.85
655.56	378.02
655.90	376.25
656.25	374.49
656.59	372.71
656.93	371.00
657.27	369.40
657.61	367.71
657.95	366.06
658.29	364.47
658.64	362.89
658.98	361.22
659.32	359.53
659.66	357.95
660.00	356.42
660.34	354.86
660.68	353.30
661.02	351.72
661.36	350.18
661.70	348.70
662.05	347.27
662.39	345.86
662.73	344.51
663.07	343.19
663.41	341.90
663.75	340.59
664.09	339.32
664.43	337.96
664.77	336.64
665.11	335.26
665.45	333.95
665.79	332.66
666.13	331.44
666.47	330.27
666.81	329.03
667.15	327.74
667.49	326.56
667.83	325.38
668.17	324.23
668.51	323.12
668.85	322.04
669.19	320.98
669.53	319.82
669.87	318.62
670.21	317.47
670.55	316.35
670.89	315.32
671.23	314.25
671.57	313.20
671.91	312.24
672.25	311.34
672.58	310.43
672.92	309.48
673.26	308.57
673.60	307.66
673.94	306.76
674.28	305.91
674.62	305.02
674.96	304.10
675.30	303.26
675.64	302.40
675.97	301.55
676.31	300.66
676.65	299.84
676.99	299.10
677.33	298.26
677.67	297.46
678.01	296.59
678.34	295.78
678.68	295.01
679.02	294.21
679.36	293.40
679.70	292.59
680.04	291.81
680.37	291.04
680.71	290.29
681.05	289.59
681.39	288.86
681.73	288.14
682.06	287.44
682.40	286.73
682.74	286.04
683.08	285.38
683.42	284.70
683.75	284.06
684.09	283.36
684.43	282.73
684.77	282.08
685.10	281.46
685.44	280.82
685.78	280.20
686.12	279.60
686.45	278.99
686.79	278.38
687.13	277.77
687.46	277.14
687.80	276.54
688.14	275.91
688.48	275.33
688.81	274.74
689.15	274.19
689.49	273.59
689.82	273.01
690.16	272.36
690.50	271.78
690.83	271.20
691.17	270.62
691.51	270.05
691.84	269.52
692.18	268.96
692.52	268.40
692.85	267.85
693.19	267.35
693.52	266.81
693.86	266.29
694.20	265.78
694.53	265.27
694.87	264.76
695.21	264.26
695.54	263.74
695.88	263.23
696.21	262.71
696.55	262.24
696.88	261.77
697.22	261.31
697.56	260.88
697.89	260.42
698.23	259.99
698.56	259.55
698.90	259.14
699.23	258.71
699.57	258.30
699.90	257.90
700.24	257.44
700.58	257.05
700.91	256.67
701.25	256.36
701.58	256.02
701.92	255.66
702.25	255.29
702.59	254.90
702.92	254.54
703.26	254.17
703.59	253.78
703.93	253.50
704.26	253.16
704.60	252.79
704.93	252.41
705.26	252.06
705.60	251.73
705.93	251.35
706.27	251.05
706.60	250.74
706.94	250.44
707.27	250.09
707.61	249.74
707.94	249.41
708.27	249.00
708.61	248.63
708.94	248.30
709.28	247.99
709.61	247.70
709.94	247.41
710.28	247.14
710.61	246.88
710.95	246.52
711.28	246.30
711.61	246.03
711.95	245.80
712.28	245.52
712.61	245.23
712.95	245.02
713.28	244.79
713.61	244.51
713.95	244.22
714.28	243.99
714.61	243.74
714.95	243.49
715.28	243.24
715.61	243.01
715.95	242.80
716.28	242.57
716.61	242.36
716.95	242.13
717.28	241.91
717.61	241.68
717.94	241.47
718.28	241.20
718.61	241.00
718.94	240.78
719.27	240.58
719.61	240.41
719.94	240.19
720.27	239.94
720.60	239.75
720.94	239.56
721.27	239.38
721.60	239.23
721.93	239.05
722.27	238.91
722.60	238.74
722.93	238.54
723.26	238.38
723.59	238.18
723.93	238.02
724.26	237.86
724.59	237.69
724.92	237.53
725.25	237.41
725.59	237.25
725.92	237.12
726.25	236.97
726.58	236.82
726.91	236.66
727.24	236.53
727.57	236.39
727.91	236.24
728.24	236.11
728.57	235.94
728.90	235.80
729.23	235.65
729.56	235.57
729.89	235.44
730.22	235.30
730.55	235.18
730.89	235.06
731.22	234.93
731.55	234.80
731.88	234.68
732.21	234.53
732.54	234.40
732.87	234.28
733.20	234.17
733.53	234.06
733.86	233.97
734.19	233.84
734.52	233.75
734.85	233.73
735.18	233.60
735.51	233.53
735.84	233.44
736.17	233.36
736.50	233.19
736.83	233.22
737.16	233.13
737.49	233.02
737.82	232.91
738.15	232.83
738.48	232.74
738.81	232.65
739.14	232.54
739.47	232.45
739.80	232.35
740.13	232.27
740.46	232.15
740.79	232.03
741.12	231.93
741.45	231.82
741.78	231.66
742.11	231.59
742.44	231.48
742.77	231.40
743.10	231.30
743.43	231.21
743.75	231.02
744.08	231.08
744.41	231.00
744.74	230.91
745.07	230.80
745.40	230.74
745.73	230.70
746.06	230.64
746.39	230.57
746.71	230.49
747.04	230.40
747.37	230.34
747.70	230.30
748.03	230.23
748.36	230.18
748.68	230.12
749.01	230.01
749.34	229.95
749.67	229.89
750.00	229.83
750.33	229.84
750.65	229.78
750.98	229.57
751.31	229.51
751.64	229.47
751.97	229.47
752.29	229.39
752.62	229.28
752.95	229.20
753.28	229.12
753.60	229.06
753.93	229.02
754.26	228.97
754.59	228.87
754.91	228.79
755.24	228.72
755.57	228.70
755.90	228.64
756.22	228.57
756.55	228.49
756.88	228.41
757.20	228.30
757.53	228.21
757.86	228.14
758.19	228.10
758.51	228.02
758.84	227.92
759.17	227.86
759.49	227.82
759.82	227.82
760.15	227.78
760.47	227.73
760.80	227.65
761.13	227.62
761.45	227.57
761.78	227.53
762.11	227.49
762.43	227.38
762.76	227.34
763.08	227.31
763.41	227.27
763.74	227.23
764.06	227.19
764.39	227.15
764.71	227.11
765.04	227.05
765.37	227.00
765.69	226.96
766.02	226.91
766.34	226.86
766.67	226.78
767.00	226.77
767.32	226.80
767.65	226.82
767.97	226.77
768.30	226.74
768.62	226.71
768.95	226.66
769.27	226.63
769.60	226.60
769.92	226.56
770.25	226.50
770.57	226.46
770.90	226.43
771.22	226.39
771.55	226.35
771.87	226.33
772.20	226.30
772.52	226.36
772.85	226.45
773.17	226.43
773.50	226.39
773.82	226.34
774.15	226.24
774.47	226.15
774.80	226.12
775.12	226.09
775.45	226.06
775.77	226.04
776.09	226.02
776.42	226.00
776.74	226.00
777.07	225.98
777.39	225.96
777.72	225.92
778.04	225.90
778.36	225.88
778.69	225.86
779.01	225.85
779.33	225.74
779.66	225.59
779.98	225.56
780.31	225.55
780.63	225.58
780.95	225.59
781.28	225.57
781.60	225.54
781.92	225.52
782.25	225.50
782.57	225.48
782.89	225.47
783.22	225.44
783.54	225.40
783.86	225.39
784.19	225.37
784.51	225.38
784.83	225.35
785.16	225.33
785.48	225.31
785.80	225.29
786.12	225.28
786.45	225.26
786.77	225.25
787.09	225.22
787.42	225.16
787.74	225.14
788.06	225.12
788.38	225.10
788.71	225.09
789.03	225.07
789.35	225.06
789.67	225.04
789.99	225.04
790.32	225.01
790.64	225.01
790.96	225.08
791.28	225.04
791.61	225.02
791.93	225.03
792.25	225.01
792.57	225.07
792.89	225.03
793.21	225.03
793.54	225.01
793.86	224.98
794.18	224.97
794.50	224.94
794.82	224.93
795.14	224.93
795.47	224.93
795.79	224.93
796.11	224.89
796.43	224.87
796.75	224.85
797.07	224.84
797.39	224.83
797.71	224.73
798.04	224.73
798.36	224.72
798.68	224.71
799.00	224.70
799.32	224.63
799.64	224.64
799.96	224.62
800.28	224.64
800.60	224.62
800.92	224.63
801.24	224.62
801.56	224.62
801.89	224.60
802.21	224.58
802.53	224.56
802.85	224.57
803.17	224.61
803.49	224.58
803.81	224.55
804.13	224.54
804.45	224.51
804.77	224.51
805.09	224.50
805.41	224.48
805.73	224.45
806.05	224.42
806.37	224.40
806.69	224.38
807.01	224.37
807.33	224.38
807.65	224.32
807.97	224.36
808.28	224.34
808.60	224.33
808.92	224.31
809.24	224.36
809.56	224.34
809.88	224.30
810.20	224.29
810.52	224.32
810.84	224.30
811.16	224.28
811.48	224.28
811.80	224.31
812.12	224.31
812.43	224.33
812.75	224.34
813.07	224.32
813.39	224.32
813.71	224.30
814.03	224.27
814.35	224.27
814.67	224.22
814.98	224.21
815.30	224.20
815.62	224.18
815.94	224.11
816.26	224.11
816.58	224.09
816.89	224.09
817.21	224.06
817.53	224.07
817.85	224.07
818.17	224.06
818.48	224.03
818.80	224.03
819.12	223.99
819.44	223.97
819.76	223.95
820.07	223.95
820.39	223.94
820.71	223.95
821.03	223.95
821.34	223.94
821.66	223.95
821.98	223.96
822.30	223.95
822.61	224.01
822.93	224.00
823.25	223.99
823.57	223.97
823.88	223.98
824.20	223.97
824.52	223.99
824.83	223.98
825.15	223.96
825.47	223.96
825.79	223.97
826.10	223.95
826.42	223.94
826.74	223.94
827.05	223.94
827.37	223.94
827.69	223.92
828.00	223.92
828.32	223.92
828.64	223.90
828.95	223.96
829.27	223.93
829.58	223.92
829.90	223.93
830.22	223.94
830.53	223.92
830.85	223.91
831.17	223.87
831.48	223.87
831.80	223.86
832.11	223.86
832.43	223.84
832.75	223.85
833.06	223.91
833.38	223.88
833.69	223.87
834.01	223.87
834.32	223.87
834.64	223.85
834.96	223.85
835.27	223.84
835.59	223.80
835.90	223.78
836.22	223.78
836.53	223.76
836.85	223.74
837.16	223.83
837.48	223.82
837.79	223.86
838.11	223.86
838.42	223.86
838.74	223.85
839.05	223.83
839.37	223.82
839.68	223.75
840.00	223.76
840.31	223.78
840.63	223.76
840.94	223.75
841.26	223.73
841.57	223.73
841.88	223.73
842.20	223.71
842.51	223.69
842.83	223.69
843.14	223.78
843.46	223.77
843.77	223.71
844.08	223.71
844.40	223.67
844.71	223.65
845.03	223.63
845.34	223.63
845.65	223.62
845.97	223.62
846.28	223.63
846.60	223.63
846.91	223.60
847.22	223.60
847.54	223.62
847.85	223.63
848.16	223.63
848.48	223.60
848.79	223.65
849.10	223.66
849.42	223.68
849.73	223.58
850.04	223.58
850.36	223.55
850.67	223.57
850.98	223.57
851.30	223.58
851.61	223.58
851.92	223.57
852.23	223.61
852.55	223.62
852.86	223.62
853.17	223.62
853.49	223.64
853.80	223.66
854.11	223.67
854.42	223.68
854.74	223.68
855.05	223.69
855.36	223.63
855.67	223.63
855.99	223.62
856.30	223.73
856.61	223.73
856.92	223.73
857.23	223.73
857.55	223.73
857.86	223.72
858.17	223.73
858.48	223.72
858.79	223.69
859.11	223.71
859.42	223.70
859.73	223.68
860.04	223.68
860.35	223.65
860.66	223.62
860.98	223.61
861.29	223.61
861.60	223.60
861.91	223.63
862.22	223.62
862.53	223.61
862.84	223.49
863.16	223.50
863.47	223.49
863.78	223.48
864.09	223.49
864.40	223.51
864.71	223.51
865.02	223.52
865.33	223.51
865.64	223.49
865.95	223.48
866.27	223.55
866.58	223.54
866.89	223.54
867.20	223.55
867.51	223.53
867.82	223.53
868.13	223.55
868.44	223.52
868.75	223.53
869.06	223.53
869.37	223.55
869.68	223.52
869.99	223.53
870.30	223.53
870.61	223.54
870.92	223.52
871.23	223.51
871.54	223.53
871.85	223.55
872.16	223.57
872.47	223.57
872.78	223.51
873.09	223.51
873.40	223.50
873.71	223.50
874.02	223.51
874.33	223.49
874.64	223.47
874.95	223.49
875.26	223.46
875.56	223.46
875.87	223.45
876.18	223.45
876.49	223.56
876.80	223.54
877.11	223.51
877.42	223.51
877.73	223.51
878.04	223.48
878.35	223.48
878.66	223.47
878.96	223.47
879.27	223.47
879.58	223.46
879.89	223.45
880.20	223.49
880.51	223.48
880.82	223.49
881.12	223.50
881.43	223.47
881.74	223.46
882.05	223.46
882.36	223.47
882.67	223.48
882.97	223.36
883.28	223.36
883.59	223.36
883.90	223.37
884.21	223.38
884.51	223.38
884.82	223.36
885.13	223.37
885.44	223.37
885.74	223.37
886.05	223.37
886.36	223.37
886.67	223.34
886.98	223.39
887.28	223.41
887.59	223.41
887.90	223.42
888.20	223.41
888.51	223.43
888.82	223.41
889.13	223.42
889.43	223.52
889.74	223.51
890.05	223.51
890.35	223.49
890.66	223.48
890.97	223.48
891.28	223.47
891.58	223.48
891.89	223.47
892.20	223.47
892.50	223.45
892.81	223.45
893.12	223.45
893.42	223.40
893.73	223.39
894.04	223.38
894.34	223.39
894.65	223.39
894.95	223.39
895.26	223.39
895.57	223.43
895.87	223.33
896.18	223.35
896.48	223.36
896.79	223.36
897.10	223.37
897.40	223.37
897.71	223.39
898.01	223.38
898.32	223.40
898.63	223.39
898.93	223.40
899.24	223.40
899.54	223.40
899.85	223.40
900.15	223.40
900.46	223.41
900.76	223.42
901.07	223.41
901.38	223.40
901.68	223.41
901.99	223.36
902.29	223.37
902.60	223.35
902.90	223.35
903.21	223.35
903.51	223.35
903.82	223.36
904.12	223.35
904.43	223.35
904.73	223.34
905.03	223.35
905.34	223.45
905.64	223.44
905.95	223.44
906.25	223.43
906.56	223.42
906.86	223.41
907.17	223.40
907.47	223.40
907.77	223.39
908.08	223.37
908.38	223.38
908.69	223.37
908.99	223.39
909.30	223.40
909.60	223.40
909.90	223.41
910.21	223.39
910.51	223.37
910.81	223.37
911.12	223.38
911.42	223.37
911.73	223.27
912.03	223.28
912.33	223.30
912.64	223.29
912.94	223.28
913.24	223.27
913.55	223.27
913.85	223.27
914.15	223.28
914.46	223.30
914.76	223.28
915.06	223.29
915.37	223.27
915.67	223.27
915.97	223.26
916.27	223.24
916.58	223.25
916.88	223.24
917.18	223.24
917.49	223.30
917.79	223.31
918.09	223.32
918.39	223.35
918.70	223.34
919.00	223.34
919.30	223.39
919.60	223.39
919.91	223.37
920.21	223.38
920.51	223.36
920.81	223.34
921.12	223.36
921.42	223.35
921.72	223.36
922.02	223.36
922.32	223.37
922.63	223.37
922.93	223.42
923.23	223.43
923.53	223.42
923.83	223.35
924.13	223.35
924.44	223.35
924.74	223.35
925.04	223.37
925.34	223.37
925.64	223.33
925.94	223.33
926.24	223.39
926.55	223.38
926.85	223.40
927.15	223.41
927.45	223.40
927.75	223.40
928.05	223.41
928.35	223.40
928.65	223.41
928.95	223.41
929.26	223.37
929.56	223.38
929.86	223.40
930.16	223.39
930.46	223.38
930.76	223.39
931.06	223.34
931.36	223.31
931.66	223.32
931.96	223.34
932.26	223.34
932.56	223.30
932.86	223.31
933.16	223.31
933.46	223.29
933.76	223.27
934.06	223.29
934.36	223.32
934.66	223.31
934.96	223.30
935.26	223.29
935.56	223.30
935.86	223.27
936.16	223.26
936.46	223.25
936.76	223.24
937.06	223.23
937.36	223.24
937.66	223.24
937.96	223.24
938.26	223.21
938.56	223.20
938.86	223.20
939.16	223.22
939.46	223.22
939.76	223.24
940.06	223.24
940.35	223.23
940.65	223.18
940.95	223.19
941.25	223.17
941.55	223.16
941.85	223.16
942.15	223.19
942.45	223.22
942.75	223.21
943.04	223.21
943.34	223.23
943.64	223.22
943.94	223.20
944.24	223.21
944.54	223.22
944.84	223.22
945.13	223.20
945.43	223.18
945.73	223.18
946.03	223.16
946.33	223.15
946.62	223.14
946.92	223.14
947.22	223.14
947.52	223.15
947.82	223.16
948.11	223.15
948.41	223.13
948.71	223.11
949.01	223.11
949.31	223.10
949.60	223.09
949.90	223.11
950.20	223.12
950.50	223.11
950.79	223.11
951.09	223.13
951.39	223.13
951.69	223.12
951.98	223.14
952.28	223.16
952.58	223.16
952.87	223.15
953.17	223.16
953.47	223.15
953.76	223.16
954.06	223.14
954.36	223.12
954.66	223.12
954.95	223.15
955.25	223.15
955.55	223.18
955.84	223.16
956.14	223.16
956.44	223.16
956.73	223.14
957.03	223.14
957.32	223.14
957.62	223.13
957.92	223.14
958.21	223.13
958.51	223.26
958.81	223.26
959.10	223.28
959.40	223.29
959.69	223.29
959.99	223.30
960.29	223.31
960.58	223.31
960.88	223.34
961.17	223.32
961.47	223.33
961.76	223.30
962.06	223.32
962.36	223.32
962.65	223.33
962.95	223.34
963.24	223.33
963.54	223.33
963.83	223.34
964.13	223.33
964.42	223.32
964.72	223.23
965.01	223.24
965.31	223.23
965.60	223.20
965.90	223.26
966.19	223.23
966.49	223.23
966.78	223.23
967.08	223.21
967.37	223.21
967.67	223.19
967.96	223.21
968.26	223.21
968.55	223.21
968.85	223.21
969.14	223.20
969.43	223.20
969.73	223.19
970.02	223.20
970.32	223.18
970.61	223.16
970.91	223.12
971.20	223.11
971.49	223.11
971.79	223.12
972.08	223.05
972.38	223.06
972.67	223.07
972.96	223.08
973.26	223.06
973.55	223.09
973.85	223.09
974.14	223.08
974.43	223.09
974.73	223.08
975.02	223.07
975.31	223.08
975.61	223.09
975.90	223.07
976.19	223.06
976.49	223.07
976.78	223.08
977.07	223.09
977.37	223.09
977.66	223.10
977.95	223.09
978.24	223.11
978.54	223.13
978.83	223.11
979.12	223.10
979.42	223.11
979.71	223.08
980.00	223.08
980.29	223.09
980.59	223.06
980.88	223.07
981.17	223.07
981.46	223.05
981.76	223.05
982.05	223.08
982.34	223.09
982.63	223.08
982.93	223.08
983.22	223.10
983.51	223.11
983.80	223.12
984.09	223.13
984.39	223.11
984.68	223.09
984.97	223.10
985.26	223.09
985.55	223.10
985.85	223.07
986.14	223.10
986.43	223.10
986.72	223.10
987.01	223.08
987.30	223.08
987.59	223.08
987.89	223.09
988.18	223.06
988.47	223.05
988.76	223.06
989.05	223.04
989.34	223.02
989.63	223.04
989.92	223.01
990.22	223.00
990.51	223.00
990.80	222.99
991.09	223.00
991.38	223.02
991.67	223.01
991.96	223.01
992.25	223.01
992.54	223.00
992.83	222.99
993.12	222.99
993.41	223.02
993.70	223.05
993.99	223.06
994.28	223.08
994.58	223.09
994.87	223.08
995.16	223.08
995.45	223.07
995.74	223.04
996.03	223.07
996.32	223.09
996.61	223.11
996.90	223.11
997.19	223.10
997.48	223.11
997.77	223.10
998.06	223.11
998.34	223.10
998.63	223.10
998.92	223.11
999.21	223.13
999.50	223.13
999.79	223.09
1000.08	223.09
1000.37	223.09
1000.66	223.08
1000.95	223.11
1001.24	223.12
1001.53	223.13
1001.82	223.12
1002.11	223.10
1002.40	223.11
1002.68	223.13
1002.97	223.20
1003.26	223.19
1003.55	223.17
1003.84	223.18
1004.13	223.21
1004.42	223.19
1004.71	223.19
1004.99	223.18
1005.28	223.20
1005.57	223.18
1005.86	223.17
1006.15	223.16
1006.44	223.15
1006.72	223.16
1007.01	223.14
1007.30	223.15
1007.59	223.13
1007.88	223.13
1008.17	223.14
1008.45	223.13
1008.74	223.08
1009.03	223.04
1009.32	223.04
1009.60	223.05
1009.89	223.04
1010.18	223.00
1010.47	222.99
1010.76	222.99
1011.04	222.99
1011.33	223.00
1011.62	223.00
1011.91	223.02
1012.19	223.01
1012.48	223.03
1012.77	223.03
1013.05	223.07
1013.34	223.07
1013.63	223.06
1013.92	223.07
1014.20	223.05
1014.49	223.06
1014.78	223.07
1015.06	223.03
1015.35	223.03
1015.64	223.05
1015.92	223.07
1016.21	223.07
1016.50	223.07
1016.78	223.08
1017.07	223.08
1017.36	223.06
1017.64	223.05
1017.93	223.05
1018.22	223.04
1018.50	223.03
1018.79	223.03
1019.08	222.98
1019.36	222.99
1019.65	222.97
1019.93	223.00
1020.22	223.02
1020.51	223.07
1020.79	223.05
1021.08	222.90
1021.36	222.80
1021.65	223.10
1021.94	222.82
1022.22	223.24
1022.51	222.74
1022.79	223.55
1023.08	223.19
1023.36	224.12
1023.65	222.77
>>>>>End Processed Spectral Data<<<<<
