SpectraSuite Data File
++++++++++++++++++++++++++++++++++++
Date: Wed Sep 30 15:31:21 EDT 2015
User: lab3
Dark Spectrum Present: No
Reference Spectrum Present: No
Number of Sampled Component Spectra: 1
Spectrometers: USB2E7196
Integration Time (usec): 36000 (USB2E7196)
Spectra Averaged: 1500 (USB2E7196)
Boxcar Smoothing: 10 (USB2E7196)
Correct for Electrical Dark: No (USB2E7196)
Strobe/Lamp Enabled: No (USB2E7196)
Correct for Detector Non-linearity: No (USB2E7196)
Correct for Stray Light: No (USB2E7196)
Number of Pixels in Processed Spectrum: 2048
>>>>>Begin Processed Spectral Data<<<<<
339.09	0.00
339.48	211.43
339.86	212.86
340.24	214.29
340.63	215.70
341.01	218.39
341.39	218.46
341.78	219.74
342.16	220.87
342.54	221.36
342.93	209.92
343.31	220.53
343.69	221.06
344.07	221.52
344.46	221.94
344.84	222.33
345.22	222.58
345.60	222.82
345.99	223.01
346.37	223.14
346.75	223.24
347.13	223.31
347.52	223.37
347.90	223.46
348.28	223.49
348.66	223.54
349.05	223.54
349.43	223.59
349.81	223.65
350.19	223.70
350.57	223.76
350.96	223.83
351.34	223.93
351.72	224.02
352.10	224.13
352.48	224.20
352.87	224.25
353.25	224.31
353.63	224.38
354.01	224.45
354.39	224.52
354.77	224.60
355.15	224.70
355.54	224.76
355.92	224.79
356.30	224.87
356.68	225.01
357.06	225.09
357.44	225.13
357.82	225.19
358.20	225.29
358.58	225.36
358.97	225.42
359.35	225.50
359.73	225.58
360.11	225.64
360.49	225.70
360.87	225.76
361.25	225.83
361.63	225.91
362.01	225.97
362.39	226.00
362.77	226.05
363.15	226.08
363.53	226.12
363.91	226.16
364.29	226.18
364.67	226.10
365.05	226.13
365.43	226.16
365.81	226.19
366.19	226.22
366.57	226.27
366.95	226.28
367.33	226.26
367.71	226.26
368.09	226.27
368.47	226.26
368.85	226.24
369.23	226.24
369.61	226.20
369.99	226.21
370.37	226.20
370.75	226.25
371.13	226.22
371.51	226.17
371.89	226.14
372.27	226.12
372.65	226.11
373.03	226.07
373.41	226.03
373.78	225.98
374.16	225.88
374.54	225.79
374.92	225.74
375.30	225.70
375.68	225.63
376.06	225.59
376.44	225.53
376.82	225.49
377.19	225.44
377.57	225.38
377.95	225.29
378.33	225.24
378.71	225.10
379.09	225.05
379.47	225.02
379.84	224.96
380.22	224.90
380.60	224.82
380.98	224.76
381.36	224.70
381.73	224.65
382.11	224.62
382.49	224.58
382.87	224.52
383.25	224.47
383.62	224.54
384.00	224.47
384.38	224.42
384.76	224.39
385.13	224.39
385.51	224.36
385.89	224.31
386.27	224.27
386.64	224.24
387.02	224.20
387.40	224.15
387.78	224.12
388.15	224.09
388.53	224.05
388.91	224.03
389.29	223.99
389.66	223.98
390.04	223.94
390.42	223.92
390.79	223.92
391.17	223.89
391.55	223.77
391.92	223.76
392.30	223.76
392.68	223.73
393.05	223.70
393.43	223.70
393.81	223.70
394.18	223.69
394.56	223.69
394.94	223.71
395.31	223.70
395.69	223.74
396.06	223.77
396.44	223.79
396.82	223.80
397.19	223.88
397.57	223.89
397.95	223.93
398.32	223.93
398.70	223.96
399.07	224.02
399.45	224.05
399.82	224.09
400.20	224.12
400.58	224.16
400.95	224.17
401.33	224.24
401.70	224.38
402.08	224.46
402.45	224.55
402.83	224.65
403.20	224.75
403.58	224.83
403.95	224.96
404.33	225.09
404.71	225.22
405.08	225.41
405.46	225.55
405.83	225.71
406.21	225.88
406.58	226.07
406.96	226.25
407.33	226.47
407.70	226.71
408.08	227.04
408.45	227.34
408.83	227.65
409.20	227.93
409.58	228.19
409.95	228.54
410.33	228.91
410.70	229.27
411.08	229.68
411.45	230.12
411.82	230.56
412.20	231.07
412.57	231.67
412.95	232.14
413.32	232.77
413.69	233.41
414.07	234.09
414.44	234.85
414.82	235.60
415.19	236.48
415.56	237.37
415.94	238.31
416.31	239.35
416.68	240.40
417.06	241.61
417.43	242.74
417.81	244.06
418.18	245.39
418.55	246.85
418.93	248.37
419.30	249.96
419.67	251.66
420.04	253.39
420.42	255.21
420.79	257.31
421.16	259.44
421.54	261.60
421.91	263.85
422.28	266.18
422.66	268.72
423.03	271.13
423.40	273.65
423.77	276.37
424.15	279.16
424.52	282.05
424.89	285.21
425.26	288.34
425.64	291.23
426.01	294.50
426.38	297.82
426.75	301.27
427.13	304.80
427.50	308.48
427.87	312.35
428.24	316.24
428.61	319.96
428.99	323.96
429.36	328.35
429.73	332.55
430.10	336.76
430.47	341.04
430.85	345.45
431.22	350.17
431.59	355.00
431.96	359.72
432.33	364.94
432.70	369.89
433.08	375.76
433.45	381.28
433.82	386.73
434.19	392.84
434.56	398.81
434.93	404.56
435.30	410.26
435.68	416.65
436.05	422.90
436.42	429.16
436.79	434.90
437.16	441.08
437.53	447.67
437.90	454.24
438.27	460.66
438.64	467.61
439.01	473.91
439.38	479.64
439.75	485.15
440.13	491.44
440.50	497.42
440.87	502.12
441.24	507.30
441.61	513.02
441.98	517.18
442.35	522.16
442.72	527.23
443.09	532.06
443.46	535.15
443.83	537.45
444.20	539.37
444.57	542.16
444.94	543.75
445.31	545.44
445.68	546.93
446.05	548.05
446.42	547.82
446.79	547.46
447.16	547.16
447.53	546.94
447.90	545.04
448.27	543.27
448.64	540.48
449.01	538.65
449.37	534.64
449.74	530.99
450.11	526.29
450.48	521.16
450.85	516.03
451.22	511.65
451.59	507.35
451.96	503.42
452.33	497.74
452.70	492.70
453.07	486.54
453.43	480.37
453.80	474.38
454.17	468.65
454.54	463.36
454.91	457.40
455.28	451.75
455.65	446.44
456.02	440.75
456.38	436.18
456.75	430.28
457.12	425.57
457.49	420.81
457.86	416.27
458.23	412.29
458.59	407.90
458.96	403.38
459.33	399.42
459.70	395.39
460.07	392.31
460.43	388.68
460.80	385.29
461.17	382.30
461.54	379.11
461.91	376.09
462.27	373.03
462.64	370.53
463.01	367.67
463.38	364.76
463.74	362.12
464.11	359.77
464.48	357.65
464.85	355.37
465.21	353.62
465.58	351.69
465.95	349.46
466.32	347.68
466.68	345.95
467.05	344.20
467.42	342.51
467.78	340.69
468.15	338.99
468.52	337.75
468.88	336.12
469.25	334.60
469.62	333.42
469.98	332.12
470.35	330.97
470.72	329.93
471.08	328.86
471.45	328.01
471.82	327.05
472.18	326.04
472.55	325.40
472.92	324.61
473.28	324.00
473.65	323.37
474.02	322.77
474.38	322.27
474.75	321.99
475.11	321.59
475.48	321.45
475.85	321.29
476.21	321.24
476.58	321.23
476.94	321.43
477.31	321.55
477.67	321.71
478.04	321.97
478.41	322.31
478.77	322.78
479.14	323.13
479.50	323.71
479.87	324.43
480.23	325.15
480.60	325.83
480.96	326.52
481.33	327.49
481.69	328.47
482.06	329.44
482.42	330.35
482.79	331.46
483.15	332.74
483.52	334.17
483.88	335.55
484.25	337.02
484.61	338.53
484.98	340.17
485.34	341.99
485.71	343.91
486.07	345.95
486.44	347.98
486.80	350.21
487.17	352.52
487.53	355.04
487.90	357.66
488.26	360.52
488.62	363.53
488.99	366.55
489.35	369.69
489.72	373.08
490.08	376.65
490.44	380.28
490.81	384.08
491.17	388.00
491.54	392.18
491.90	396.48
492.26	401.11
492.63	405.99
492.99	411.03
493.36	416.19
493.72	421.62
494.08	427.22
494.45	433.11
494.81	439.21
495.17	445.44
495.54	452.03
495.90	458.92
496.26	465.96
496.63	473.23
496.99	480.82
497.35	488.79
497.72	497.01
498.08	505.42
498.44	514.08
498.80	523.25
499.17	532.63
499.53	542.36
499.89	552.31
500.26	562.50
500.62	572.93
500.98	584.02
501.34	595.27
501.71	607.00
502.07	618.96
502.43	631.30
502.79	643.97
503.16	657.09
503.52	670.30
503.88	683.88
504.24	697.91
504.60	712.17
504.97	726.75
505.33	741.81
505.69	757.71
506.05	773.88
506.41	790.10
506.78	806.57
507.14	823.53
507.50	840.91
507.86	858.61
508.22	876.60
508.59	894.68
508.95	913.42
509.31	932.64
509.67	952.59
510.03	972.73
510.39	993.02
510.75	1013.47
511.12	1034.15
511.48	1055.10
511.84	1076.28
512.20	1097.75
512.56	1120.33
512.92	1142.90
513.28	1165.16
513.64	1187.71
514.00	1210.74
514.37	1234.08
514.73	1257.39
515.09	1280.48
515.45	1303.92
515.81	1327.92
516.17	1351.93
516.53	1375.63
516.89	1399.36
517.25	1423.23
517.61	1447.24
517.97	1471.44
518.33	1495.55
518.69	1520.03
519.05	1544.63
519.41	1569.16
519.77	1593.95
520.13	1617.85
520.49	1642.08
520.85	1666.50
521.21	1690.63
521.57	1715.25
521.93	1739.00
522.29	1763.37
522.65	1787.71
523.01	1811.85
523.37	1835.09
523.73	1859.00
524.09	1883.09
524.45	1907.06
524.81	1930.50
525.17	1953.79
525.53	1976.73
525.89	1999.39
526.25	2022.00
526.61	2044.03
526.97	2066.37
527.33	2088.55
527.68	2110.73
528.04	2132.14
528.40	2153.20
528.76	2174.50
529.12	2194.72
529.48	2215.71
529.84	2234.82
530.20	2254.22
530.56	2273.24
530.91	2292.56
531.27	2311.32
531.63	2329.28
531.99	2346.65
532.35	2363.91
532.71	2381.32
533.07	2399.13
533.42	2415.57
533.78	2432.47
534.14	2449.37
534.50	2465.40
534.86	2482.00
535.21	2496.74
535.57	2511.05
535.93	2524.93
536.29	2537.49
536.65	2550.80
537.00	2563.13
537.36	2576.09
537.72	2588.04
538.08	2599.84
538.44	2610.63
538.79	2621.47
539.15	2630.62
539.51	2639.44
539.87	2647.50
540.22	2653.58
540.58	2659.86
540.94	2666.58
541.29	2671.83
541.65	2676.27
542.01	2680.31
542.37	2682.56
542.72	2686.54
543.08	2690.06
543.44	2693.25
543.79	2696.20
544.15	2698.00
544.51	2699.60
544.87	2700.44
545.22	2701.20
545.58	2701.00
545.94	2700.82
546.29	2699.29
546.65	2697.90
547.01	2696.75
547.36	2696.06
547.72	2695.76
548.07	2694.07
548.43	2691.69
548.79	2688.50
549.14	2685.32
549.50	2682.67
549.86	2679.11
550.21	2673.76
550.57	2668.86
550.92	2662.73
551.28	2656.93
551.64	2651.10
551.99	2645.53
552.35	2639.82
552.70	2633.30
553.06	2627.35
553.41	2621.13
553.77	2614.34
554.13	2608.39
554.48	2601.47
554.84	2593.03
555.19	2584.44
555.55	2575.18
555.90	2566.48
556.26	2558.83
556.61	2550.51
556.97	2540.30
557.32	2531.35
557.68	2522.28
558.03	2512.93
558.39	2504.30
558.74	2495.57
559.10	2486.12
559.45	2476.02
559.81	2465.93
560.16	2455.55
560.52	2444.81
560.87	2434.88
561.23	2424.67
561.58	2414.24
561.94	2403.80
562.29	2392.67
562.64	2382.07
563.00	2371.86
563.35	2361.78
563.71	2350.70
564.06	2339.72
564.42	2329.42
564.77	2318.65
565.12	2307.82
565.48	2296.55
565.83	2285.90
566.19	2275.50
566.54	2264.34
566.89	2252.75
567.25	2241.51
567.60	2231.12
567.96	2220.25
568.31	2208.30
568.66	2196.28
569.02	2185.03
569.37	2173.57
569.72	2162.74
570.08	2151.31
570.43	2139.33
570.78	2126.87
571.14	2114.70
571.49	2102.82
571.84	2090.97
572.20	2077.98
572.55	2065.80
572.90	2053.45
573.26	2040.39
573.61	2026.81
573.96	2013.65
574.31	2000.59
574.67	1987.51
575.02	1973.83
575.37	1959.98
575.72	1946.55
576.08	1933.28
576.43	1919.11
576.78	1905.16
577.13	1891.81
577.49	1878.49
577.84	1865.71
578.19	1852.29
578.54	1838.39
578.90	1824.04
579.25	1809.65
579.60	1796.50
579.95	1782.96
580.30	1769.69
580.66	1756.44
581.01	1742.92
581.36	1729.66
581.71	1717.17
582.06	1704.23
582.42	1691.54
582.77	1679.22
583.12	1666.30
583.47	1653.90
583.82	1641.54
584.17	1628.89
584.53	1616.22
584.88	1603.75
585.23	1590.79
585.58	1578.40
585.93	1566.25
586.28	1554.86
586.63	1543.28
586.98	1530.97
587.34	1518.91
587.69	1506.41
588.04	1494.36
588.39	1482.63
588.74	1470.43
589.09	1458.02
589.44	1445.52
589.79	1433.47
590.14	1421.51
590.49	1409.81
590.84	1397.95
591.19	1386.64
591.54	1374.86
591.89	1363.09
592.25	1351.65
592.60	1339.89
592.95	1328.48
593.30	1317.41
593.65	1306.21
594.00	1295.38
594.35	1285.11
594.70	1273.97
595.05	1263.53
595.40	1252.89
595.75	1242.00
596.10	1232.03
596.45	1222.16
596.80	1212.70
597.15	1203.02
597.50	1193.26
597.85	1183.76
598.19	1174.32
598.54	1164.60
598.89	1155.59
599.24	1146.67
599.59	1137.52
599.94	1129.35
600.29	1121.03
600.64	1112.56
600.99	1103.46
601.34	1094.69
601.69	1085.68
602.04	1077.67
602.39	1069.66
602.74	1061.82
603.08	1054.15
603.43	1046.01
603.78	1037.81
604.13	1029.72
604.48	1021.54
604.83	1013.62
605.18	1005.61
605.53	997.71
605.87	989.65
606.22	981.87
606.57	973.88
606.92	965.80
607.27	957.66
607.62	949.82
607.96	942.10
608.31	935.42
608.66	928.40
609.01	921.61
609.36	914.67
609.70	907.55
610.05	900.30
610.40	893.36
610.75	886.45
611.10	879.74
611.44	872.77
611.79	866.05
612.14	859.06
612.49	852.19
612.83	845.66
613.18	839.28
613.53	832.80
613.88	826.49
614.22	820.73
614.57	814.70
614.92	808.61
615.27	802.56
615.61	796.27
615.96	790.26
616.31	784.13
616.65	777.97
617.00	771.95
617.35	766.09
617.70	760.27
618.04	754.59
618.39	748.91
618.74	743.55
619.08	738.06
619.43	732.77
619.78	727.43
620.12	721.99
620.47	716.73
620.82	711.48
621.16	706.48
621.51	701.17
621.85	695.87
622.20	690.63
622.55	685.50
622.89	680.27
623.24	675.07
623.59	670.02
623.93	665.10
624.28	660.37
624.62	655.57
624.97	650.73
625.32	646.01
625.66	641.22
626.01	636.36
626.35	631.65
626.70	626.95
627.04	622.51
627.39	618.10
627.73	613.68
628.08	609.49
628.43	605.05
628.77	600.67
629.12	596.46
629.46	592.43
629.81	588.26
630.15	584.08
630.50	580.05
630.84	576.14
631.19	572.32
631.53	568.57
631.88	564.74
632.22	560.97
632.57	557.38
632.91	553.70
633.26	550.12
633.60	546.61
633.95	543.20
634.29	539.62
634.64	535.99
634.98	532.40
635.32	528.92
635.67	525.64
636.01	522.34
636.36	519.01
636.70	515.81
637.05	512.62
637.39	509.57
637.73	506.35
638.08	503.28
638.42	500.18
638.77	496.93
639.11	493.65
639.45	490.44
639.80	487.26
640.14	484.19
640.49	481.09
640.83	477.88
641.17	474.77
641.52	471.78
641.86	468.82
642.20	465.97
642.55	462.93
642.89	459.99
643.23	457.23
643.58	454.70
643.92	452.02
644.26	449.38
644.61	446.73
644.95	444.12
645.29	441.41
645.64	438.69
645.98	436.13
646.32	433.72
646.66	431.27
647.01	428.83
647.35	426.48
647.69	424.02
648.04	421.72
648.38	419.42
648.72	417.06
649.06	414.78
649.41	412.52
649.75	410.29
650.09	408.06
650.43	405.80
650.78	403.54
651.12	401.29
651.46	399.12
651.80	397.04
652.14	395.00
652.49	393.01
652.83	391.08
653.17	389.10
653.51	387.20
653.85	385.33
654.20	383.39
654.54	381.39
654.88	379.57
655.22	377.76
655.56	375.94
655.90	374.22
656.25	372.49
656.59	370.78
656.93	369.16
657.27	367.59
657.61	365.93
657.95	364.31
658.29	362.69
658.64	361.07
658.98	359.44
659.32	357.83
659.66	356.31
660.00	354.81
660.34	353.36
660.68	351.82
661.02	350.26
661.36	348.81
661.70	347.40
662.05	345.96
662.39	344.52
662.73	343.17
663.07	341.86
663.41	340.56
663.75	339.28
664.09	338.00
664.43	336.65
664.77	335.40
665.11	334.10
665.45	332.85
665.79	331.62
666.13	330.38
666.47	329.14
666.81	327.86
667.15	326.56
667.49	325.31
667.83	324.15
668.17	323.01
668.51	321.87
668.85	320.78
669.19	319.76
669.53	318.66
669.87	317.51
670.21	316.39
670.55	315.28
670.89	314.25
671.23	313.19
671.57	312.14
671.91	311.13
672.25	310.18
672.58	309.24
672.92	308.29
673.26	307.41
673.60	306.52
673.94	305.62
674.28	304.76
674.62	303.91
674.96	303.02
675.30	302.17
675.64	301.32
675.97	300.49
676.31	299.61
676.65	298.77
676.99	298.01
677.33	297.17
677.67	296.38
678.01	295.51
678.34	294.71
678.68	293.96
679.02	293.18
679.36	292.41
679.70	291.62
680.04	290.86
680.37	290.09
680.71	289.35
681.05	288.67
681.39	287.94
681.73	287.20
682.06	286.48
682.40	285.79
682.74	285.10
683.08	284.44
683.42	283.75
683.75	283.14
684.09	282.45
684.43	281.81
684.77	281.17
685.10	280.56
685.44	279.93
685.78	279.31
686.12	278.70
686.45	278.10
686.79	277.50
687.13	276.91
687.46	276.29
687.80	275.71
688.14	275.08
688.48	274.50
688.81	273.93
689.15	273.40
689.49	272.81
689.82	272.24
690.16	271.63
690.50	271.08
690.83	270.51
691.17	269.97
691.51	269.43
691.84	268.89
692.18	268.35
692.52	267.79
692.85	267.26
693.19	266.78
693.52	266.27
693.86	265.76
694.20	265.27
694.53	264.80
694.87	264.29
695.21	263.82
695.54	263.35
695.88	262.87
696.21	262.35
696.55	261.89
696.88	261.42
697.22	260.98
697.56	260.53
697.89	260.04
698.23	259.58
698.56	259.12
698.90	258.71
699.23	258.25
699.57	257.85
699.90	257.43
700.24	256.99
700.58	256.59
700.91	256.21
701.25	255.88
701.58	255.54
701.92	255.17
702.25	254.80
702.59	254.41
702.92	254.05
703.26	253.70
703.59	253.33
703.93	253.05
704.26	252.70
704.60	252.33
704.93	252.00
705.26	251.65
705.60	251.34
705.93	250.98
706.27	250.71
706.60	250.39
706.94	250.09
707.27	249.74
707.61	249.41
707.94	249.07
708.27	248.67
708.61	248.30
708.94	247.98
709.28	247.68
709.61	247.36
709.94	247.09
710.28	246.81
710.61	246.54
710.95	246.18
711.28	245.98
711.61	245.71
711.95	245.47
712.28	245.20
712.61	244.92
712.95	244.72
713.28	244.50
713.61	244.24
713.95	243.96
714.28	243.73
714.61	243.47
714.95	243.24
715.28	242.99
715.61	242.76
715.95	242.55
716.28	242.32
716.61	242.12
716.95	241.89
717.28	241.67
717.61	241.45
717.94	241.24
718.28	240.96
718.61	240.75
718.94	240.53
719.27	240.33
719.61	240.14
719.94	239.93
720.27	239.68
720.60	239.48
720.94	239.30
721.27	239.13
721.60	238.97
721.93	238.79
722.27	238.65
722.60	238.49
722.93	238.29
723.26	238.11
723.59	237.93
723.93	237.77
724.26	237.61
724.59	237.45
724.92	237.31
725.25	237.18
725.59	237.03
725.92	236.90
726.25	236.75
726.58	236.61
726.91	236.44
727.24	236.32
727.57	236.18
727.91	236.02
728.24	235.90
728.57	235.74
728.90	235.61
729.23	235.44
729.56	235.35
729.89	235.22
730.22	235.09
730.55	234.96
730.89	234.84
731.22	234.70
731.55	234.58
731.88	234.45
732.21	234.31
732.54	234.17
732.87	234.06
733.20	233.96
733.53	233.85
733.86	233.75
734.19	233.63
734.52	233.54
734.85	233.51
735.18	233.38
735.51	233.32
735.84	233.22
736.17	233.15
736.50	233.00
736.83	233.02
737.16	232.93
737.49	232.86
737.82	232.75
738.15	232.68
738.48	232.58
738.81	232.49
739.14	232.38
739.47	232.29
739.80	232.20
740.13	232.12
740.46	232.02
740.79	231.91
741.12	231.82
741.45	231.72
741.78	231.57
742.11	231.52
742.44	231.41
742.77	231.34
743.10	231.24
743.43	231.15
743.75	230.96
744.08	231.03
744.41	230.93
744.74	230.85
745.07	230.74
745.40	230.70
745.73	230.67
746.06	230.60
746.39	230.54
746.71	230.46
747.04	230.37
747.37	230.29
747.70	230.24
748.03	230.17
748.36	230.11
748.68	230.04
749.01	229.94
749.34	229.87
749.67	229.80
750.00	229.75
750.33	229.77
750.65	229.72
750.98	229.51
751.31	229.46
751.64	229.39
751.97	229.39
752.29	229.32
752.62	229.19
752.95	229.13
753.28	229.05
753.60	228.99
753.93	228.95
754.26	228.90
754.59	228.79
754.91	228.73
755.24	228.66
755.57	228.64
755.90	228.59
756.22	228.53
756.55	228.46
756.88	228.37
757.20	228.24
757.53	228.16
757.86	228.10
758.19	228.05
758.51	227.99
758.84	227.89
759.17	227.83
759.49	227.79
759.82	227.79
760.15	227.75
760.47	227.70
760.80	227.63
761.13	227.60
761.45	227.57
761.78	227.53
762.11	227.48
762.43	227.39
762.76	227.35
763.08	227.30
763.41	227.26
763.74	227.23
764.06	227.19
764.39	227.15
764.71	227.10
765.04	227.05
765.37	227.01
765.69	226.97
766.02	226.92
766.34	226.88
766.67	226.80
767.00	226.79
767.32	226.80
767.65	226.83
767.97	226.78
768.30	226.75
768.62	226.71
768.95	226.67
769.27	226.63
769.60	226.60
769.92	226.57
770.25	226.52
770.57	226.47
770.90	226.44
771.22	226.40
771.55	226.38
771.87	226.35
772.20	226.32
772.52	226.38
772.85	226.47
773.17	226.44
773.50	226.39
773.82	226.35
774.15	226.26
774.47	226.17
774.80	226.14
775.12	226.11
775.45	226.08
775.77	226.06
776.09	226.05
776.42	226.02
776.74	226.02
777.07	225.99
777.39	225.98
777.72	225.95
778.04	225.94
778.36	225.90
778.69	225.89
779.01	225.88
779.33	225.76
779.66	225.63
779.98	225.61
780.31	225.60
780.63	225.63
780.95	225.64
781.28	225.62
781.60	225.59
781.92	225.57
782.25	225.56
782.57	225.55
782.89	225.53
783.22	225.51
783.54	225.47
783.86	225.46
784.19	225.44
784.51	225.46
784.83	225.43
785.16	225.41
785.48	225.39
785.80	225.37
786.12	225.37
786.45	225.35
786.77	225.34
787.09	225.32
787.42	225.26
787.74	225.24
788.06	225.22
788.38	225.20
788.71	225.17
789.03	225.15
789.35	225.15
789.67	225.12
789.99	225.11
790.32	225.07
790.64	225.07
790.96	225.15
791.28	225.10
791.61	225.08
791.93	225.08
792.25	225.06
792.57	225.11
792.89	225.08
793.21	225.08
793.54	225.05
793.86	225.03
794.18	225.02
794.50	224.98
794.82	224.98
795.14	224.98
795.47	224.99
795.79	224.99
796.11	224.94
796.43	224.93
796.75	224.91
797.07	224.92
797.39	224.89
797.71	224.79
798.04	224.79
798.36	224.78
798.68	224.76
799.00	224.75
799.32	224.69
799.64	224.70
799.96	224.69
800.28	224.69
800.60	224.68
800.92	224.68
801.24	224.67
801.56	224.67
801.89	224.65
802.21	224.64
802.53	224.61
802.85	224.63
803.17	224.66
803.49	224.64
803.81	224.61
804.13	224.60
804.45	224.57
804.77	224.56
805.09	224.55
805.41	224.53
805.73	224.50
806.05	224.45
806.37	224.44
806.69	224.42
807.01	224.39
807.33	224.39
807.65	224.35
807.97	224.39
808.28	224.36
808.60	224.35
808.92	224.32
809.24	224.38
809.56	224.36
809.88	224.31
810.20	224.31
810.52	224.32
810.84	224.30
811.16	224.28
811.48	224.27
811.80	224.30
812.12	224.29
812.43	224.30
812.75	224.31
813.07	224.29
813.39	224.29
813.71	224.28
814.03	224.26
814.35	224.26
814.67	224.22
814.98	224.21
815.30	224.20
815.62	224.18
815.94	224.11
816.26	224.11
816.58	224.09
816.89	224.09
817.21	224.06
817.53	224.06
817.85	224.07
818.17	224.07
818.48	224.02
818.80	224.04
819.12	224.00
819.44	223.99
819.76	223.97
820.07	223.95
820.39	223.94
820.71	223.95
821.03	223.94
821.34	223.92
821.66	223.93
821.98	223.93
822.30	223.92
822.61	223.98
822.93	223.97
823.25	223.96
823.57	223.94
823.88	223.94
824.20	223.94
824.52	223.95
824.83	223.94
825.15	223.94
825.47	223.93
825.79	223.94
826.10	223.93
826.42	223.91
826.74	223.92
827.05	223.92
827.37	223.91
827.69	223.90
828.00	223.90
828.32	223.90
828.64	223.88
828.95	223.93
829.27	223.89
829.58	223.88
829.90	223.90
830.22	223.91
830.53	223.89
830.85	223.87
831.17	223.85
831.48	223.85
831.80	223.85
832.11	223.83
832.43	223.82
832.75	223.82
833.06	223.89
833.38	223.86
833.69	223.86
834.01	223.87
834.32	223.86
834.64	223.85
834.96	223.85
835.27	223.86
835.59	223.82
835.90	223.81
836.22	223.82
836.53	223.79
836.85	223.79
837.16	223.89
837.48	223.90
837.79	223.92
838.11	223.92
838.42	223.92
838.74	223.93
839.05	223.92
839.37	223.91
839.68	223.84
840.00	223.85
840.31	223.86
840.63	223.85
840.94	223.83
841.26	223.82
841.57	223.81
841.88	223.81
842.20	223.80
842.51	223.77
842.83	223.76
843.14	223.85
843.46	223.84
843.77	223.78
844.08	223.77
844.40	223.73
844.71	223.71
845.03	223.70
845.34	223.69
845.65	223.68
845.97	223.69
846.28	223.69
846.60	223.69
846.91	223.67
847.22	223.66
847.54	223.68
847.85	223.69
848.16	223.68
848.48	223.66
848.79	223.69
849.10	223.71
849.42	223.72
849.73	223.61
850.04	223.62
850.36	223.58
850.67	223.60
850.98	223.61
851.30	223.62
851.61	223.61
851.92	223.61
852.23	223.65
852.55	223.64
852.86	223.64
853.17	223.64
853.49	223.67
853.80	223.68
854.11	223.69
854.42	223.70
854.74	223.70
855.05	223.72
855.36	223.66
855.67	223.66
855.99	223.66
856.30	223.79
856.61	223.79
856.92	223.78
857.23	223.79
857.55	223.78
857.86	223.77
858.17	223.78
858.48	223.76
858.79	223.74
859.11	223.75
859.42	223.75
859.73	223.74
860.04	223.73
860.35	223.70
860.66	223.67
860.98	223.66
861.29	223.67
861.60	223.66
861.91	223.68
862.22	223.66
862.53	223.65
862.84	223.52
863.16	223.53
863.47	223.52
863.78	223.50
864.09	223.51
864.40	223.51
864.71	223.52
865.02	223.54
865.33	223.52
865.64	223.50
865.95	223.50
866.27	223.56
866.58	223.55
866.89	223.55
867.20	223.55
867.51	223.54
867.82	223.53
868.13	223.56
868.44	223.54
868.75	223.56
869.06	223.56
869.37	223.57
869.68	223.55
869.99	223.56
870.30	223.57
870.61	223.58
870.92	223.57
871.23	223.56
871.54	223.57
871.85	223.60
872.16	223.62
872.47	223.61
872.78	223.54
873.09	223.54
873.40	223.53
873.71	223.54
874.02	223.55
874.33	223.54
874.64	223.51
874.95	223.53
875.26	223.50
875.56	223.51
875.87	223.51
876.18	223.50
876.49	223.59
876.80	223.57
877.11	223.55
877.42	223.55
877.73	223.54
878.04	223.53
878.35	223.51
878.66	223.51
878.96	223.51
879.27	223.52
879.58	223.51
879.89	223.51
880.20	223.54
880.51	223.53
880.82	223.53
881.12	223.54
881.43	223.51
881.74	223.50
882.05	223.49
882.36	223.49
882.67	223.50
882.97	223.40
883.28	223.39
883.59	223.38
883.90	223.39
884.21	223.40
884.51	223.39
884.82	223.37
885.13	223.38
885.44	223.37
885.74	223.38
886.05	223.38
886.36	223.38
886.67	223.35
886.98	223.41
887.28	223.41
887.59	223.41
887.90	223.41
888.20	223.41
888.51	223.43
888.82	223.42
889.13	223.43
889.43	223.51
889.74	223.51
890.05	223.51
890.35	223.50
890.66	223.48
890.97	223.47
891.28	223.47
891.58	223.46
891.89	223.46
892.20	223.44
892.50	223.43
892.81	223.41
893.12	223.41
893.42	223.34
893.73	223.35
894.04	223.35
894.34	223.36
894.65	223.35
894.95	223.34
895.26	223.34
895.57	223.38
895.87	223.28
896.18	223.30
896.48	223.30
896.79	223.30
897.10	223.32
897.40	223.33
897.71	223.33
898.01	223.33
898.32	223.34
898.63	223.33
898.93	223.35
899.24	223.35
899.54	223.35
899.85	223.35
900.15	223.34
900.46	223.34
900.76	223.35
901.07	223.35
901.38	223.34
901.68	223.35
901.99	223.31
902.29	223.31
902.60	223.30
902.90	223.29
903.21	223.28
903.51	223.27
903.82	223.30
904.12	223.30
904.43	223.30
904.73	223.30
905.03	223.31
905.34	223.40
905.64	223.40
905.95	223.40
906.25	223.40
906.56	223.40
906.86	223.40
907.17	223.39
907.47	223.40
907.77	223.39
908.08	223.37
908.38	223.37
908.69	223.38
908.99	223.41
909.30	223.41
909.60	223.42
909.90	223.43
910.21	223.39
910.51	223.38
910.81	223.37
911.12	223.38
911.42	223.38
911.73	223.27
912.03	223.27
912.33	223.29
912.64	223.29
912.94	223.28
913.24	223.27
913.55	223.25
913.85	223.24
914.15	223.27
914.46	223.29
914.76	223.27
915.06	223.26
915.37	223.23
915.67	223.23
915.97	223.22
916.27	223.20
916.58	223.21
916.88	223.20
917.18	223.20
917.49	223.27
917.79	223.26
918.09	223.28
918.39	223.31
918.70	223.29
919.00	223.30
919.30	223.35
919.60	223.34
919.91	223.33
920.21	223.34
920.51	223.31
920.81	223.30
921.12	223.32
921.42	223.33
921.72	223.34
922.02	223.34
922.32	223.35
922.63	223.36
922.93	223.42
923.23	223.42
923.53	223.41
923.83	223.33
924.13	223.34
924.44	223.33
924.74	223.34
925.04	223.37
925.34	223.37
925.64	223.32
925.94	223.32
926.24	223.37
926.55	223.36
926.85	223.38
927.15	223.38
927.45	223.37
927.75	223.37
928.05	223.37
928.35	223.36
928.65	223.38
928.95	223.39
929.26	223.34
929.56	223.35
929.86	223.35
930.16	223.35
930.46	223.34
930.76	223.36
931.06	223.31
931.36	223.27
931.66	223.29
931.96	223.29
932.26	223.30
932.56	223.27
932.86	223.28
933.16	223.27
933.46	223.26
933.76	223.25
934.06	223.27
934.36	223.31
934.66	223.31
934.96	223.29
935.26	223.30
935.56	223.32
935.86	223.28
936.16	223.27
936.46	223.26
936.76	223.26
937.06	223.23
937.36	223.25
937.66	223.26
937.96	223.25
938.26	223.24
938.56	223.22
938.86	223.22
939.16	223.25
939.46	223.25
939.76	223.26
940.06	223.27
940.35	223.25
940.65	223.19
940.95	223.20
941.25	223.17
941.55	223.16
941.85	223.15
942.15	223.18
942.45	223.21
942.75	223.21
943.04	223.21
943.34	223.24
943.64	223.22
943.94	223.20
944.24	223.20
944.54	223.22
944.84	223.22
945.13	223.21
945.43	223.18
945.73	223.18
946.03	223.16
946.33	223.14
946.62	223.13
946.92	223.14
947.22	223.14
947.52	223.14
947.82	223.16
948.11	223.15
948.41	223.12
948.71	223.09
949.01	223.10
949.31	223.09
949.60	223.08
949.90	223.11
950.20	223.11
950.50	223.10
950.79	223.09
951.09	223.10
951.39	223.09
951.69	223.08
951.98	223.11
952.28	223.12
952.58	223.11
952.87	223.11
953.17	223.13
953.47	223.12
953.76	223.13
954.06	223.10
954.36	223.09
954.66	223.11
954.95	223.14
955.25	223.15
955.55	223.15
955.84	223.13
956.14	223.13
956.44	223.13
956.73	223.12
957.03	223.12
957.32	223.12
957.62	223.13
957.92	223.14
958.21	223.12
958.51	223.25
958.81	223.26
959.10	223.28
959.40	223.31
959.69	223.32
959.99	223.32
960.29	223.33
960.58	223.32
960.88	223.35
961.17	223.32
961.47	223.33
961.76	223.31
962.06	223.33
962.36	223.32
962.65	223.32
962.95	223.34
963.24	223.32
963.54	223.32
963.83	223.33
964.13	223.33
964.42	223.32
964.72	223.22
965.01	223.22
965.31	223.21
965.60	223.17
965.90	223.23
966.19	223.20
966.49	223.20
966.78	223.20
967.08	223.19
967.37	223.19
967.67	223.17
967.96	223.19
968.26	223.19
968.55	223.20
968.85	223.19
969.14	223.18
969.43	223.18
969.73	223.17
970.02	223.16
970.32	223.15
970.61	223.13
970.91	223.11
971.20	223.09
971.49	223.08
971.79	223.09
972.08	223.01
972.38	223.03
972.67	223.01
972.96	223.03
973.26	223.02
973.55	223.05
973.85	223.04
974.14	223.03
974.43	223.04
974.73	223.03
975.02	223.02
975.31	223.02
975.61	223.02
975.90	223.01
976.19	223.00
976.49	223.01
976.78	223.03
977.07	223.04
977.37	223.05
977.66	223.06
977.95	223.04
978.24	223.06
978.54	223.07
978.83	223.07
979.12	223.07
979.42	223.07
979.71	223.04
980.00	223.04
980.29	223.05
980.59	223.02
980.88	223.05
981.17	223.04
981.46	223.04
981.76	223.05
982.05	223.08
982.34	223.10
982.63	223.09
982.93	223.09
983.22	223.11
983.51	223.12
983.80	223.13
984.09	223.15
984.39	223.14
984.68	223.13
984.97	223.14
985.26	223.13
985.55	223.14
985.85	223.12
986.14	223.14
986.43	223.14
986.72	223.13
987.01	223.11
987.30	223.11
987.59	223.11
987.89	223.11
988.18	223.08
988.47	223.07
988.76	223.07
989.05	223.07
989.34	223.05
989.63	223.07
989.92	223.05
990.22	223.03
990.51	223.02
990.80	223.02
991.09	223.03
991.38	223.04
991.67	223.03
991.96	223.02
992.25	223.04
992.54	223.03
992.83	223.05
993.12	223.04
993.41	223.05
993.70	223.09
993.99	223.10
994.28	223.11
994.58	223.14
994.87	223.12
995.16	223.11
995.45	223.10
995.74	223.06
996.03	223.08
996.32	223.10
996.61	223.13
996.90	223.12
997.19	223.10
997.48	223.11
997.77	223.09
998.06	223.10
998.34	223.08
998.63	223.08
998.92	223.08
999.21	223.11
999.50	223.10
999.79	223.07
1000.08	223.06
1000.37	223.07
1000.66	223.05
1000.95	223.08
1001.24	223.09
1001.53	223.11
1001.82	223.11
1002.11	223.09
1002.40	223.09
1002.68	223.11
1002.97	223.17
1003.26	223.16
1003.55	223.15
1003.84	223.15
1004.13	223.19
1004.42	223.18
1004.71	223.18
1004.99	223.17
1005.28	223.18
1005.57	223.17
1005.86	223.16
1006.15	223.15
1006.44	223.13
1006.72	223.14
1007.01	223.11
1007.30	223.11
1007.59	223.10
1007.88	223.10
1008.17	223.10
1008.45	223.07
1008.74	223.03
1009.03	222.99
1009.32	222.98
1009.60	222.99
1009.89	222.98
1010.18	222.94
1010.47	222.92
1010.76	222.93
1011.04	222.93
1011.33	222.92
1011.62	222.94
1011.91	222.94
1012.19	222.95
1012.48	222.96
1012.77	222.96
1013.05	222.99
1013.34	222.99
1013.63	222.98
1013.92	222.98
1014.20	222.97
1014.49	222.98
1014.78	222.99
1015.06	222.95
1015.35	222.95
1015.64	222.96
1015.92	222.98
1016.21	222.99
1016.50	223.00
1016.78	223.01
1017.07	223.01
1017.36	223.00
1017.64	222.98
1017.93	223.00
1018.22	222.99
1018.50	222.99
1018.79	222.98
1019.08	222.95
1019.36	222.96
1019.65	222.96
1019.93	222.99
1020.22	223.01
1020.51	223.07
1020.79	223.07
1021.08	222.96
1021.36	222.80
1021.65	223.10
1021.94	222.98
1022.22	223.10
1022.51	222.79
1022.79	223.52
1023.08	223.25
1023.36	224.20
1023.65	222.97
>>>>>End Processed Spectral Data<<<<<
