SpectraSuite Data File
++++++++++++++++++++++++++++++++++++
Date: Wed Sep 30 16:35:53 EDT 2015
User: lab3
Dark Spectrum Present: No
Reference Spectrum Present: No
Number of Sampled Component Spectra: 1
Spectrometers: USB2E7196
Integration Time (usec): 36000 (USB2E7196)
Spectra Averaged: 3000 (USB2E7196)
Boxcar Smoothing: 10 (USB2E7196)
Correct for Electrical Dark: No (USB2E7196)
Strobe/Lamp Enabled: No (USB2E7196)
Correct for Detector Non-linearity: No (USB2E7196)
Correct for Stray Light: No (USB2E7196)
Number of Pixels in Processed Spectrum: 2048
>>>>>Begin Processed Spectral Data<<<<<
339.09	0.00
339.48	211.30
339.86	212.59
340.24	214.02
340.63	215.43
341.01	218.28
341.39	218.15
341.78	219.40
342.16	220.70
342.54	221.12
342.93	209.70
343.31	220.30
343.69	220.82
344.07	221.28
344.46	221.71
344.84	222.10
345.22	222.33
345.60	222.59
345.99	222.78
346.37	222.91
346.75	223.02
347.13	223.10
347.52	223.17
347.90	223.25
348.28	223.29
348.66	223.34
349.05	223.34
349.43	223.39
349.81	223.44
350.19	223.49
350.57	223.56
350.96	223.64
351.34	223.74
351.72	223.83
352.10	223.94
352.48	224.01
352.87	224.06
353.25	224.12
353.63	224.18
354.01	224.25
354.39	224.32
354.77	224.40
355.15	224.49
355.54	224.54
355.92	224.56
356.30	224.63
356.68	224.77
357.06	224.84
357.44	224.89
357.82	224.96
358.20	225.06
358.58	225.13
358.97	225.20
359.35	225.27
359.73	225.35
360.11	225.40
360.49	225.46
360.87	225.51
361.25	225.58
361.63	225.66
362.01	225.71
362.39	225.74
362.77	225.79
363.15	225.83
363.53	225.86
363.91	225.90
364.29	225.92
364.67	225.84
365.05	225.87
365.43	225.90
365.81	225.92
366.19	225.94
366.57	225.98
366.95	225.98
367.33	225.96
367.71	225.96
368.09	225.98
368.47	225.97
368.85	225.96
369.23	225.97
369.61	225.92
369.99	225.94
370.37	225.93
370.75	225.98
371.13	225.96
371.51	225.91
371.89	225.89
372.27	225.88
372.65	225.85
373.03	225.81
373.41	225.76
373.78	225.71
374.16	225.62
374.54	225.55
374.92	225.49
375.30	225.44
375.68	225.37
376.06	225.33
376.44	225.27
376.82	225.23
377.19	225.18
377.57	225.13
377.95	225.04
378.33	224.99
378.71	224.85
379.09	224.79
379.47	224.76
379.84	224.70
380.22	224.64
380.60	224.57
380.98	224.52
381.36	224.47
381.73	224.41
382.11	224.39
382.49	224.34
382.87	224.29
383.25	224.23
383.62	224.30
384.00	224.24
384.38	224.20
384.76	224.18
385.13	224.17
385.51	224.13
385.89	224.07
386.27	224.04
386.64	224.01
387.02	223.97
387.40	223.92
387.78	223.89
388.15	223.86
388.53	223.83
388.91	223.81
389.29	223.76
389.66	223.76
390.04	223.72
390.42	223.71
390.79	223.69
391.17	223.68
391.55	223.55
391.92	223.53
392.30	223.53
392.68	223.49
393.05	223.48
393.43	223.47
393.81	223.47
394.18	223.45
394.56	223.45
394.94	223.48
395.31	223.48
395.69	223.52
396.06	223.53
396.44	223.55
396.82	223.56
397.19	223.64
397.57	223.65
397.95	223.69
398.32	223.69
398.70	223.73
399.07	223.78
399.45	223.81
399.82	223.86
400.20	223.88
400.58	223.94
400.95	223.95
401.33	224.03
401.70	224.16
402.08	224.25
402.45	224.32
402.83	224.42
403.20	224.52
403.58	224.60
403.95	224.73
404.33	224.86
404.71	224.98
405.08	225.16
405.46	225.30
405.83	225.45
406.21	225.62
406.58	225.81
406.96	225.99
407.33	226.21
407.70	226.44
408.08	226.77
408.45	227.05
408.83	227.36
409.20	227.63
409.58	227.88
409.95	228.22
410.33	228.59
410.70	228.93
411.08	229.34
411.45	229.77
411.82	230.20
412.20	230.69
412.57	231.29
412.95	231.75
413.32	232.36
413.69	232.98
414.07	233.64
414.44	234.36
414.82	235.09
415.19	235.95
415.56	236.82
415.94	237.72
416.31	238.74
416.68	239.75
417.06	240.92
417.43	242.02
417.81	243.29
418.18	244.59
418.55	246.01
418.93	247.47
419.30	249.01
419.67	250.64
420.04	252.33
420.42	254.08
420.79	256.13
421.16	258.18
421.54	260.26
421.91	262.43
422.28	264.70
422.66	267.14
423.03	269.45
423.40	271.89
423.77	274.51
424.15	277.19
424.52	279.98
424.89	283.01
425.26	286.02
425.64	288.80
426.01	291.93
426.38	295.14
426.75	298.45
427.13	301.84
427.50	305.37
427.87	309.05
428.24	312.77
428.61	316.32
428.99	320.15
429.36	324.35
429.73	328.38
430.10	332.39
430.47	336.49
430.85	340.72
431.22	345.21
431.59	349.82
431.96	354.30
432.33	359.27
432.70	363.98
433.08	369.55
433.45	374.82
433.82	380.00
434.19	385.78
434.56	391.45
434.93	396.92
435.30	402.32
435.68	408.40
436.05	414.33
436.42	420.27
436.79	425.69
437.16	431.53
437.53	437.78
437.90	444.01
438.27	450.10
438.64	456.73
439.01	462.70
439.38	468.15
439.75	473.42
440.13	479.42
440.50	485.14
440.87	489.63
441.24	494.57
441.61	500.03
441.98	504.03
442.35	508.80
442.72	513.68
443.09	518.38
443.46	521.39
443.83	523.65
444.20	525.55
444.57	528.31
444.94	529.95
445.31	531.68
445.68	533.22
446.05	534.38
446.42	534.25
446.79	534.03
447.16	533.87
447.53	533.76
447.90	532.05
448.27	530.45
448.64	527.89
449.01	526.23
449.37	522.51
449.74	519.13
450.11	514.76
450.48	509.95
450.85	505.11
451.22	501.02
451.59	497.00
451.96	493.35
452.33	487.98
452.70	483.21
453.07	477.35
453.43	471.50
453.80	465.83
454.17	460.38
454.54	455.34
454.91	449.62
455.28	444.24
455.65	439.16
456.02	433.77
456.38	429.41
456.75	423.77
457.12	419.22
457.49	414.63
457.86	410.27
458.23	406.45
458.59	402.21
458.96	397.84
459.33	393.99
459.70	390.07
460.07	387.10
460.43	383.58
460.80	380.30
461.17	377.39
461.54	374.26
461.91	371.32
462.27	368.34
462.64	365.90
463.01	363.11
463.38	360.28
463.74	357.70
464.11	355.41
464.48	353.34
464.85	351.13
465.21	349.44
465.58	347.57
465.95	345.41
466.32	343.68
466.68	341.99
467.05	340.30
467.42	338.65
467.78	336.89
468.15	335.24
468.52	334.03
468.88	332.44
469.25	330.97
469.62	329.81
469.98	328.55
470.35	327.43
470.72	326.41
471.08	325.39
471.45	324.54
471.82	323.61
472.18	322.63
472.55	321.99
472.92	321.22
473.28	320.60
473.65	319.97
474.02	319.37
474.38	318.87
474.75	318.59
475.11	318.19
475.48	318.03
475.85	317.87
476.21	317.81
476.58	317.80
476.94	317.98
477.31	318.08
477.67	318.22
478.04	318.47
478.41	318.79
478.77	319.24
479.14	319.57
479.50	320.11
479.87	320.79
480.23	321.46
480.60	322.11
480.96	322.79
481.33	323.72
481.69	324.66
482.06	325.59
482.42	326.47
482.79	327.53
483.15	328.74
483.52	330.10
483.88	331.43
484.25	332.84
484.61	334.30
484.98	335.88
485.34	337.64
485.71	339.47
486.07	341.42
486.44	343.36
486.80	345.51
487.17	347.72
487.53	350.14
487.90	352.68
488.26	355.40
488.62	358.28
488.99	361.17
489.35	364.20
489.72	367.45
490.08	370.88
490.44	374.39
490.81	378.08
491.17	381.84
491.54	385.86
491.90	390.00
492.26	394.44
492.63	399.12
492.99	403.99
493.36	408.99
493.72	414.23
494.08	419.62
494.45	425.32
494.81	431.20
495.17	437.22
495.54	443.58
495.90	450.25
496.26	457.06
496.63	464.09
496.99	471.41
497.35	479.09
497.72	487.06
498.08	495.19
498.44	503.58
498.80	512.51
499.17	521.65
499.53	531.11
499.89	540.80
500.26	550.68
500.62	560.84
500.98	571.64
501.34	582.59
501.71	594.06
502.07	605.74
502.43	617.83
502.79	630.25
503.16	643.06
503.52	656.05
503.88	669.38
504.24	683.17
504.60	697.21
504.97	711.60
505.33	726.40
505.69	742.08
506.05	757.96
506.41	773.88
506.78	790.09
507.14	806.81
507.50	824.08
507.86	841.70
508.22	859.58
508.59	877.53
508.95	896.16
509.31	915.22
509.67	935.00
510.03	954.97
510.39	975.16
510.75	995.55
511.12	1016.23
511.48	1037.22
511.84	1058.37
512.20	1079.85
512.56	1102.43
512.92	1125.14
513.28	1147.57
513.64	1170.34
514.00	1193.54
514.37	1217.03
514.73	1240.54
515.09	1263.89
515.45	1287.65
515.81	1311.95
516.17	1336.30
516.53	1360.37
516.89	1384.55
517.25	1408.86
517.61	1433.40
517.97	1458.15
518.33	1482.74
518.69	1507.48
519.05	1532.53
519.41	1557.64
519.77	1583.03
520.13	1607.69
520.49	1632.55
520.85	1657.62
521.21	1682.51
521.57	1708.01
521.93	1732.78
522.29	1758.35
522.65	1783.72
523.01	1808.90
523.37	1833.28
523.73	1858.37
524.09	1883.70
524.45	1908.87
524.81	1933.58
525.17	1958.09
525.53	1982.29
525.89	2006.40
526.25	2030.73
526.61	2054.42
526.97	2078.48
527.33	2102.45
527.68	2126.21
528.04	2149.23
528.40	2172.06
528.76	2195.14
529.12	2217.19
529.48	2239.74
529.84	2260.48
530.20	2281.64
530.56	2302.48
530.91	2323.55
531.27	2344.05
531.63	2363.85
531.99	2383.14
532.35	2402.29
532.71	2421.62
533.07	2441.40
533.42	2459.72
533.78	2478.38
534.14	2497.08
534.50	2514.87
534.86	2533.26
535.21	2549.92
535.57	2566.40
535.93	2582.19
536.29	2596.67
536.65	2611.98
537.00	2626.18
537.36	2641.03
537.72	2654.94
538.08	2668.55
538.44	2681.00
538.79	2693.66
539.15	2704.54
539.51	2715.29
539.87	2725.45
540.22	2733.48
540.58	2741.79
540.94	2750.61
541.29	2757.95
541.65	2764.34
542.01	2770.29
542.37	2774.37
542.72	2780.29
543.08	2785.70
543.44	2790.94
543.79	2795.66
544.15	2799.39
544.51	2803.02
544.87	2805.67
545.22	2807.97
545.58	2809.24
545.94	2811.01
546.29	2811.31
546.65	2811.70
547.01	2812.29
547.36	2813.04
547.72	2814.07
548.07	2813.49
548.43	2812.37
548.79	2810.59
549.14	2808.73
549.50	2807.49
549.86	2805.27
550.21	2800.86
550.57	2796.91
550.92	2791.54
551.28	2786.69
551.64	2781.73
551.99	2777.12
552.35	2772.20
552.70	2766.73
553.06	2761.94
553.41	2756.58
553.77	2750.62
554.13	2745.51
554.48	2739.32
554.84	2731.71
555.19	2724.11
555.55	2715.86
555.90	2708.14
556.26	2701.54
556.61	2694.34
556.97	2684.93
557.32	2676.68
557.68	2668.52
558.03	2659.80
558.39	2651.89
558.74	2644.02
559.10	2635.13
559.45	2625.81
559.81	2616.57
560.16	2606.81
560.52	2596.67
560.87	2587.58
561.23	2578.11
561.58	2568.23
561.94	2558.19
562.29	2547.50
562.64	2537.37
563.00	2527.68
563.35	2517.87
563.71	2506.89
564.06	2495.60
564.42	2485.27
564.77	2474.51
565.12	2463.82
565.48	2452.81
565.83	2442.45
566.19	2432.24
566.54	2421.37
566.89	2409.81
567.25	2398.44
567.60	2387.80
567.96	2376.70
568.31	2364.28
568.66	2351.87
569.02	2340.44
569.37	2328.78
569.72	2317.68
570.08	2305.85
570.43	2293.43
570.78	2280.61
571.14	2267.92
571.49	2255.80
571.84	2243.92
572.20	2230.72
572.55	2218.11
572.90	2205.30
573.26	2191.63
573.61	2177.36
573.96	2163.44
574.31	2149.77
574.67	2136.24
575.02	2122.22
575.37	2107.89
575.72	2093.84
576.08	2080.18
576.43	2065.49
576.78	2050.85
577.13	2037.00
577.49	2023.28
577.84	2009.95
578.19	1995.88
578.54	1981.37
578.90	1966.34
579.25	1951.10
579.60	1937.32
579.95	1923.10
580.30	1908.96
580.66	1895.05
581.01	1880.62
581.36	1866.71
581.71	1853.43
582.06	1839.56
582.42	1825.94
582.77	1812.92
583.12	1799.39
583.47	1786.10
583.82	1772.88
584.17	1759.55
584.53	1746.10
584.88	1732.65
585.23	1718.85
585.58	1705.58
585.93	1692.57
586.28	1680.46
586.63	1668.10
586.98	1654.95
587.34	1642.07
587.69	1628.75
588.04	1615.69
588.39	1603.30
588.74	1590.27
589.09	1577.03
589.44	1563.86
589.79	1551.12
590.14	1538.33
590.49	1525.79
590.84	1513.08
591.19	1500.97
591.54	1488.41
591.89	1475.66
592.25	1463.20
592.60	1450.40
592.95	1438.12
593.30	1426.22
593.65	1414.09
594.00	1402.27
594.35	1391.15
594.70	1379.15
595.05	1368.14
595.40	1356.94
595.75	1345.22
596.10	1334.36
596.45	1323.73
596.80	1313.48
597.15	1303.01
597.50	1292.50
597.85	1282.21
598.19	1272.11
598.54	1261.52
598.89	1251.61
599.24	1241.97
599.59	1232.14
599.94	1223.32
600.29	1214.34
600.64	1205.14
600.99	1195.33
601.34	1185.96
601.69	1176.08
602.04	1167.35
602.39	1158.50
602.74	1149.92
603.08	1141.55
603.43	1132.66
603.78	1123.63
604.13	1114.73
604.48	1105.79
604.83	1097.13
605.18	1088.39
605.53	1079.55
605.87	1070.74
606.22	1062.22
606.57	1053.45
606.92	1044.73
607.27	1035.85
607.62	1027.12
607.96	1018.57
608.31	1011.11
608.66	1003.22
609.01	995.73
609.36	988.08
609.70	980.19
610.05	972.17
610.40	964.51
610.75	956.94
611.10	949.58
611.44	941.92
611.79	934.55
612.14	926.79
612.49	919.18
612.83	912.06
613.18	905.03
613.53	897.85
613.88	890.76
614.22	884.29
614.57	877.58
614.92	870.87
615.27	864.18
615.61	857.30
615.96	850.65
616.31	843.94
616.65	837.16
617.00	830.60
617.35	824.13
617.70	817.72
618.04	811.42
618.39	805.14
618.74	799.17
619.08	793.03
619.43	787.15
619.78	781.26
620.12	775.20
620.47	769.34
620.82	763.51
621.16	757.99
621.51	752.12
621.85	746.27
622.20	740.46
622.55	734.84
622.89	729.09
623.24	723.41
623.59	717.82
623.93	712.30
624.28	706.97
624.62	701.60
624.97	696.18
625.32	690.88
625.66	685.48
626.01	680.04
626.35	674.75
626.70	669.51
627.04	664.49
627.39	659.50
627.73	654.59
628.08	649.92
628.43	645.07
628.77	640.29
629.12	635.66
629.46	631.23
629.81	626.59
630.15	621.91
630.50	617.36
630.84	612.99
631.19	608.79
631.53	604.61
631.88	600.36
632.22	596.20
632.57	592.26
632.91	588.26
633.26	584.35
633.60	580.52
633.95	576.82
634.29	572.93
634.64	569.03
634.98	565.03
635.32	561.18
635.67	557.49
636.01	553.77
636.36	550.06
636.70	546.50
637.05	542.94
637.39	539.56
637.73	536.04
638.08	532.60
638.42	529.14
638.77	525.53
639.11	521.90
639.45	518.32
639.80	514.74
640.14	511.34
640.49	507.90
640.83	504.35
641.17	500.84
641.52	497.50
641.86	494.16
642.20	491.00
642.55	487.68
642.89	484.44
643.23	481.40
643.58	478.61
643.92	475.67
644.26	472.77
644.61	469.86
644.95	466.94
645.29	463.97
645.64	460.98
645.98	458.12
646.32	455.45
646.66	452.77
647.01	450.05
647.35	447.41
647.69	444.65
648.04	442.03
648.38	439.45
648.72	436.80
649.06	434.26
649.41	431.73
649.75	429.22
650.09	426.72
650.43	424.21
650.78	421.69
651.12	419.15
651.46	416.71
651.80	414.38
652.14	412.13
652.49	409.88
652.83	407.70
653.17	405.51
653.51	403.37
653.85	401.31
654.20	399.18
654.54	396.96
654.88	394.93
655.22	392.95
655.56	390.95
655.90	389.04
656.25	387.14
656.59	385.23
656.93	383.43
657.27	381.68
657.61	379.82
657.95	378.03
658.29	376.24
658.64	374.47
658.98	372.68
659.32	370.92
659.66	369.26
660.00	367.62
660.34	366.00
660.68	364.33
661.02	362.60
661.36	361.00
661.70	359.46
662.05	357.90
662.39	356.32
662.73	354.83
663.07	353.36
663.41	351.92
663.75	350.51
664.09	349.08
664.43	347.59
664.77	346.20
665.11	344.74
665.45	343.37
665.79	342.01
666.13	340.63
666.47	339.24
666.81	337.82
667.15	336.37
667.49	335.02
667.83	333.72
668.17	332.45
668.51	331.19
668.85	329.96
669.19	328.80
669.53	327.58
669.87	326.33
670.21	325.11
670.55	323.89
670.89	322.75
671.23	321.59
671.57	320.43
671.91	319.33
672.25	318.29
672.58	317.24
672.92	316.17
673.26	315.16
673.60	314.17
673.94	313.15
674.28	312.21
674.62	311.25
674.96	310.26
675.30	309.33
675.64	308.38
675.97	307.45
676.31	306.49
676.65	305.54
676.99	304.66
677.33	303.73
677.67	302.85
678.01	301.89
678.34	301.01
678.68	300.16
679.02	299.30
679.36	298.44
679.70	297.58
680.04	296.75
680.37	295.90
680.71	295.09
681.05	294.34
681.39	293.54
681.73	292.72
682.06	291.93
682.40	291.15
682.74	290.39
683.08	289.66
683.42	288.92
683.75	288.24
684.09	287.48
684.43	286.77
684.77	286.05
685.10	285.37
685.44	284.68
685.78	283.99
686.12	283.33
686.45	282.66
686.79	281.98
687.13	281.33
687.46	280.66
687.80	280.01
688.14	279.31
688.48	278.66
688.81	278.02
689.15	277.43
689.49	276.79
689.82	276.17
690.16	275.50
690.50	274.88
690.83	274.27
691.17	273.67
691.51	273.09
691.84	272.53
692.18	271.93
692.52	271.32
692.85	270.73
693.19	270.19
693.52	269.64
693.86	269.09
694.20	268.55
694.53	268.02
694.87	267.48
695.21	266.97
695.54	266.46
695.88	265.93
696.21	265.38
696.55	264.86
696.88	264.35
697.22	263.86
697.56	263.37
697.89	262.83
698.23	262.33
698.56	261.82
698.90	261.35
699.23	260.85
699.57	260.41
699.90	259.95
700.24	259.46
700.58	259.01
700.91	258.59
701.25	258.25
701.58	257.86
701.92	257.47
702.25	257.06
702.59	256.63
702.92	256.23
703.26	255.84
703.59	255.45
703.93	255.14
704.26	254.77
704.60	254.38
704.93	254.01
705.26	253.64
705.60	253.31
705.93	252.93
706.27	252.62
706.60	252.29
706.94	251.97
707.27	251.59
707.61	251.22
707.94	250.86
708.27	250.43
708.61	250.04
708.94	249.67
709.28	249.34
709.61	249.02
709.94	248.71
710.28	248.41
710.61	248.12
710.95	247.73
711.28	247.50
711.61	247.21
711.95	246.95
712.28	246.66
712.61	246.35
712.95	246.12
713.28	245.89
713.61	245.60
713.95	245.30
714.28	245.06
714.61	244.79
714.95	244.54
715.28	244.28
715.61	244.04
715.95	243.80
716.28	243.55
716.61	243.34
716.95	243.10
717.28	242.87
717.61	242.63
717.94	242.41
718.28	242.12
718.61	241.89
718.94	241.66
719.27	241.44
719.61	241.24
719.94	241.01
720.27	240.74
720.60	240.53
720.94	240.34
721.27	240.15
721.60	239.98
721.93	239.78
722.27	239.63
722.60	239.46
722.93	239.26
723.26	239.08
723.59	238.87
723.93	238.69
724.26	238.52
724.59	238.34
724.92	238.18
725.25	238.03
725.59	237.86
725.92	237.72
726.25	237.56
726.58	237.39
726.91	237.23
727.24	237.09
727.57	236.93
727.91	236.76
728.24	236.62
728.57	236.45
728.90	236.32
729.23	236.14
729.56	236.03
729.89	235.90
730.22	235.74
730.55	235.60
730.89	235.46
731.22	235.31
731.55	235.18
731.88	235.03
732.21	234.88
732.54	234.75
732.87	234.62
733.20	234.50
733.53	234.38
733.86	234.28
734.19	234.14
734.52	234.05
734.85	234.01
735.18	233.87
735.51	233.78
735.84	233.67
736.17	233.59
736.50	233.42
736.83	233.43
737.16	233.33
737.49	233.24
737.82	233.13
738.15	233.04
738.48	232.94
738.81	232.84
739.14	232.73
739.47	232.62
739.80	232.52
740.13	232.43
740.46	232.32
740.79	232.19
741.12	232.10
741.45	231.98
741.78	231.83
742.11	231.77
742.44	231.65
742.77	231.57
743.10	231.47
743.43	231.37
743.75	231.17
744.08	231.24
744.41	231.14
744.74	231.05
745.07	230.94
745.40	230.89
745.73	230.85
746.06	230.77
746.39	230.71
746.71	230.62
747.04	230.52
747.37	230.45
747.70	230.41
748.03	230.33
748.36	230.27
748.68	230.18
749.01	230.08
749.34	230.00
749.67	229.92
750.00	229.87
750.33	229.88
750.65	229.82
750.98	229.61
751.31	229.55
751.64	229.49
751.97	229.48
752.29	229.40
752.62	229.28
752.95	229.20
753.28	229.12
753.60	229.05
753.93	229.01
754.26	228.95
754.59	228.84
754.91	228.77
755.24	228.70
755.57	228.68
755.90	228.61
756.22	228.55
756.55	228.47
756.88	228.38
757.20	228.25
757.53	228.17
757.86	228.11
758.19	228.06
758.51	228.00
758.84	227.89
759.17	227.82
759.49	227.79
759.82	227.78
760.15	227.75
760.47	227.70
760.80	227.63
761.13	227.60
761.45	227.56
761.78	227.52
762.11	227.48
762.43	227.37
762.76	227.33
763.08	227.30
763.41	227.26
763.74	227.22
764.06	227.18
764.39	227.14
764.71	227.10
765.04	227.04
765.37	227.00
765.69	226.96
766.02	226.92
766.34	226.87
766.67	226.79
767.00	226.76
767.32	226.78
767.65	226.80
767.97	226.75
768.30	226.71
768.62	226.67
768.95	226.61
769.27	226.59
769.60	226.56
769.92	226.50
770.25	226.45
770.57	226.40
770.90	226.36
771.22	226.32
771.55	226.28
771.87	226.25
772.20	226.21
772.52	226.27
772.85	226.36
773.17	226.32
773.50	226.29
773.82	226.24
774.15	226.15
774.47	226.05
774.80	226.02
775.12	225.99
775.45	225.96
775.77	225.95
776.09	225.93
776.42	225.90
776.74	225.91
777.07	225.88
777.39	225.86
777.72	225.84
778.04	225.82
778.36	225.79
778.69	225.76
779.01	225.74
779.33	225.62
779.66	225.48
779.98	225.45
780.31	225.43
780.63	225.45
780.95	225.45
781.28	225.43
781.60	225.40
781.92	225.37
782.25	225.35
782.57	225.32
782.89	225.29
783.22	225.26
783.54	225.22
783.86	225.21
784.19	225.18
784.51	225.19
784.83	225.16
785.16	225.14
785.48	225.13
785.80	225.11
786.12	225.11
786.45	225.09
786.77	225.08
787.09	225.06
787.42	225.00
787.74	224.98
788.06	224.97
788.38	224.96
788.71	224.94
789.03	224.93
789.35	224.93
789.67	224.90
789.99	224.90
790.32	224.86
790.64	224.86
790.96	224.94
791.28	224.89
791.61	224.87
791.93	224.87
792.25	224.84
792.57	224.90
792.89	224.87
793.21	224.86
793.54	224.84
793.86	224.82
794.18	224.81
794.50	224.77
794.82	224.76
795.14	224.76
795.47	224.77
795.79	224.75
796.11	224.72
796.43	224.71
796.75	224.69
797.07	224.69
797.39	224.67
797.71	224.56
798.04	224.56
798.36	224.55
798.68	224.53
799.00	224.53
799.32	224.46
799.64	224.47
799.96	224.47
800.28	224.47
800.60	224.46
800.92	224.46
801.24	224.45
801.56	224.45
801.89	224.42
802.21	224.41
802.53	224.39
802.85	224.40
803.17	224.44
803.49	224.41
803.81	224.39
804.13	224.38
804.45	224.35
804.77	224.35
805.09	224.34
805.41	224.33
805.73	224.30
806.05	224.26
806.37	224.24
806.69	224.22
807.01	224.20
807.33	224.20
807.65	224.15
807.97	224.19
808.28	224.16
808.60	224.16
808.92	224.13
809.24	224.19
809.56	224.17
809.88	224.12
810.20	224.12
810.52	224.13
810.84	224.10
811.16	224.10
811.48	224.08
811.80	224.10
812.12	224.09
812.43	224.11
812.75	224.11
813.07	224.09
813.39	224.09
813.71	224.07
814.03	224.05
814.35	224.05
814.67	224.00
814.98	223.99
815.30	223.99
815.62	223.96
815.94	223.88
816.26	223.89
816.58	223.86
816.89	223.86
817.21	223.83
817.53	223.84
817.85	223.84
818.17	223.83
818.48	223.79
818.80	223.81
819.12	223.78
819.44	223.76
819.76	223.74
820.07	223.73
820.39	223.72
820.71	223.73
821.03	223.72
821.34	223.71
821.66	223.71
821.98	223.72
822.30	223.71
822.61	223.77
822.93	223.75
823.25	223.75
823.57	223.73
823.88	223.74
824.20	223.73
824.52	223.74
824.83	223.74
825.15	223.72
825.47	223.71
825.79	223.72
826.10	223.70
826.42	223.71
826.74	223.71
827.05	223.70
827.37	223.69
827.69	223.69
828.00	223.69
828.32	223.68
828.64	223.66
828.95	223.71
829.27	223.68
829.58	223.67
829.90	223.68
830.22	223.68
830.53	223.67
830.85	223.65
831.17	223.62
831.48	223.62
831.80	223.62
832.11	223.62
832.43	223.60
832.75	223.60
833.06	223.66
833.38	223.64
833.69	223.63
834.01	223.64
834.32	223.64
834.64	223.62
834.96	223.62
835.27	223.62
835.59	223.58
835.90	223.56
836.22	223.56
836.53	223.54
836.85	223.53
837.16	223.63
837.48	223.63
837.79	223.67
838.11	223.67
838.42	223.66
838.74	223.67
839.05	223.66
839.37	223.65
839.68	223.59
840.00	223.58
840.31	223.59
840.63	223.58
840.94	223.56
841.26	223.55
841.57	223.55
841.88	223.55
842.20	223.54
842.51	223.53
842.83	223.52
843.14	223.61
843.46	223.61
843.77	223.54
844.08	223.54
844.40	223.50
844.71	223.48
845.03	223.47
845.34	223.46
845.65	223.45
845.97	223.45
846.28	223.45
846.60	223.46
846.91	223.44
847.22	223.43
847.54	223.45
847.85	223.46
848.16	223.46
848.48	223.43
848.79	223.47
849.10	223.48
849.42	223.49
849.73	223.39
850.04	223.38
850.36	223.35
850.67	223.35
850.98	223.36
851.30	223.37
851.61	223.38
851.92	223.37
852.23	223.41
852.55	223.42
852.86	223.42
853.17	223.43
853.49	223.44
853.80	223.46
854.11	223.47
854.42	223.48
854.74	223.47
855.05	223.48
855.36	223.42
855.67	223.43
855.99	223.42
856.30	223.55
856.61	223.54
856.92	223.54
857.23	223.55
857.55	223.54
857.86	223.53
858.17	223.54
858.48	223.53
858.79	223.50
859.11	223.51
859.42	223.50
859.73	223.49
860.04	223.48
860.35	223.45
860.66	223.42
860.98	223.42
861.29	223.42
861.60	223.41
861.91	223.43
862.22	223.41
862.53	223.39
862.84	223.26
863.16	223.28
863.47	223.27
863.78	223.26
864.09	223.27
864.40	223.27
864.71	223.27
865.02	223.28
865.33	223.26
865.64	223.24
865.95	223.24
866.27	223.30
866.58	223.29
866.89	223.31
867.20	223.30
867.51	223.28
867.82	223.28
868.13	223.32
868.44	223.29
868.75	223.32
869.06	223.32
869.37	223.33
869.68	223.30
869.99	223.32
870.30	223.32
870.61	223.32
870.92	223.30
871.23	223.29
871.54	223.31
871.85	223.33
872.16	223.34
872.47	223.34
872.78	223.27
873.09	223.27
873.40	223.26
873.71	223.26
874.02	223.27
874.33	223.26
874.64	223.23
874.95	223.25
875.26	223.22
875.56	223.22
875.87	223.21
876.18	223.20
876.49	223.30
876.80	223.29
877.11	223.27
877.42	223.27
877.73	223.27
878.04	223.25
878.35	223.26
878.66	223.26
878.96	223.26
879.27	223.26
879.58	223.25
879.89	223.25
880.20	223.27
880.51	223.27
880.82	223.27
881.12	223.28
881.43	223.26
881.74	223.25
882.05	223.24
882.36	223.25
882.67	223.26
882.97	223.15
883.28	223.14
883.59	223.14
883.90	223.15
884.21	223.16
884.51	223.16
884.82	223.14
885.13	223.14
885.44	223.14
885.74	223.13
886.05	223.12
886.36	223.12
886.67	223.09
886.98	223.13
887.28	223.14
887.59	223.15
887.90	223.15
888.20	223.15
888.51	223.17
888.82	223.16
889.13	223.16
889.43	223.25
889.74	223.25
890.05	223.24
890.35	223.23
890.66	223.21
890.97	223.20
891.28	223.19
891.58	223.19
891.89	223.19
892.20	223.18
892.50	223.17
892.81	223.17
893.12	223.17
893.42	223.12
893.73	223.12
894.04	223.12
894.34	223.12
894.65	223.12
894.95	223.11
895.26	223.11
895.57	223.16
895.87	223.06
896.18	223.07
896.48	223.08
896.79	223.08
897.10	223.10
897.40	223.10
897.71	223.11
898.01	223.10
898.32	223.11
898.63	223.10
898.93	223.11
899.24	223.10
899.54	223.10
899.85	223.09
900.15	223.08
900.46	223.08
900.76	223.09
901.07	223.08
901.38	223.07
901.68	223.08
901.99	223.02
902.29	223.03
902.60	223.02
902.90	223.02
903.21	223.02
903.51	223.01
903.82	223.02
904.12	223.02
904.43	223.04
904.73	223.03
905.03	223.04
905.34	223.14
905.64	223.13
905.95	223.13
906.25	223.14
906.56	223.14
906.86	223.14
907.17	223.13
907.47	223.14
907.77	223.13
908.08	223.12
908.38	223.13
908.69	223.14
908.99	223.16
909.30	223.16
909.60	223.16
909.90	223.17
910.21	223.14
910.51	223.13
910.81	223.12
911.12	223.13
911.42	223.13
911.73	223.02
912.03	223.04
912.33	223.05
912.64	223.04
912.94	223.03
913.24	223.00
913.55	223.00
913.85	222.99
914.15	223.01
914.46	223.03
914.76	223.01
915.06	223.00
915.37	222.98
915.67	222.97
915.97	222.97
916.27	222.96
916.58	222.96
916.88	222.96
917.18	222.96
917.49	223.02
917.79	223.02
918.09	223.04
918.39	223.06
918.70	223.05
919.00	223.06
919.30	223.12
919.60	223.11
919.91	223.10
920.21	223.10
920.51	223.08
920.81	223.07
921.12	223.09
921.42	223.08
921.72	223.09
922.02	223.09
922.32	223.11
922.63	223.11
922.93	223.16
923.23	223.16
923.53	223.15
923.83	223.08
924.13	223.08
924.44	223.08
924.74	223.09
925.04	223.11
925.34	223.11
925.64	223.07
925.94	223.07
926.24	223.13
926.55	223.12
926.85	223.14
927.15	223.14
927.45	223.13
927.75	223.13
928.05	223.14
928.35	223.13
928.65	223.14
928.95	223.15
929.26	223.10
929.56	223.12
929.86	223.13
930.16	223.13
930.46	223.12
930.76	223.12
931.06	223.08
931.36	223.04
931.66	223.06
931.96	223.06
932.26	223.07
932.56	223.03
932.86	223.03
933.16	223.04
933.46	223.03
933.76	223.02
934.06	223.03
934.36	223.06
934.66	223.06
934.96	223.05
935.26	223.05
935.56	223.06
935.86	223.04
936.16	223.02
936.46	223.02
936.76	223.01
937.06	223.00
937.36	223.01
937.66	223.01
937.96	223.00
938.26	222.98
938.56	222.96
938.86	222.96
939.16	222.99
939.46	222.99
939.76	223.00
940.06	223.00
940.35	222.98
940.65	222.93
940.95	222.94
941.25	222.91
941.55	222.90
941.85	222.89
942.15	222.91
942.45	222.94
942.75	222.93
943.04	222.93
943.34	222.95
943.64	222.94
943.94	222.93
944.24	222.93
944.54	222.94
944.84	222.94
945.13	222.93
945.43	222.91
945.73	222.90
946.03	222.89
946.33	222.88
946.62	222.87
946.92	222.87
947.22	222.87
947.52	222.89
947.82	222.90
948.11	222.89
948.41	222.87
948.71	222.83
949.01	222.84
949.31	222.83
949.60	222.82
949.90	222.85
950.20	222.84
950.50	222.84
950.79	222.83
951.09	222.85
951.39	222.84
951.69	222.83
951.98	222.85
952.28	222.85
952.58	222.85
952.87	222.85
953.17	222.87
953.47	222.86
953.76	222.85
954.06	222.83
954.36	222.82
954.66	222.82
954.95	222.85
955.25	222.86
955.55	222.87
955.84	222.86
956.14	222.86
956.44	222.88
956.73	222.86
957.03	222.87
957.32	222.87
957.62	222.86
957.92	222.89
958.21	222.88
958.51	223.00
958.81	223.02
959.10	223.03
959.40	223.05
959.69	223.06
959.99	223.07
960.29	223.08
960.58	223.08
960.88	223.12
961.17	223.10
961.47	223.10
961.76	223.09
962.06	223.11
962.36	223.10
962.65	223.10
962.95	223.11
963.24	223.10
963.54	223.10
963.83	223.11
964.13	223.10
964.42	223.08
964.72	222.99
965.01	222.99
965.31	222.98
965.60	222.95
965.90	223.02
966.19	222.99
966.49	222.99
966.78	222.98
967.08	222.97
967.37	222.97
967.67	222.95
967.96	222.96
968.26	222.96
968.55	222.97
968.85	222.96
969.14	222.96
969.43	222.96
969.73	222.94
970.02	222.94
970.32	222.94
970.61	222.92
970.91	222.90
971.20	222.88
971.49	222.87
971.79	222.88
972.08	222.80
972.38	222.82
972.67	222.81
972.96	222.82
973.26	222.80
973.55	222.83
973.85	222.83
974.14	222.82
974.43	222.82
974.73	222.80
975.02	222.80
975.31	222.79
975.61	222.79
975.90	222.78
976.19	222.77
976.49	222.78
976.78	222.78
977.07	222.78
977.37	222.79
977.66	222.80
977.95	222.79
978.24	222.80
978.54	222.82
978.83	222.81
979.12	222.80
979.42	222.81
979.71	222.79
980.00	222.79
980.29	222.80
980.59	222.77
980.88	222.80
981.17	222.80
981.46	222.80
981.76	222.80
982.05	222.84
982.34	222.85
982.63	222.85
982.93	222.85
983.22	222.88
983.51	222.89
983.80	222.90
984.09	222.92
984.39	222.91
984.68	222.89
984.97	222.90
985.26	222.89
985.55	222.90
985.85	222.88
986.14	222.90
986.43	222.91
986.72	222.91
987.01	222.87
987.30	222.88
987.59	222.88
987.89	222.88
988.18	222.85
988.47	222.84
988.76	222.82
989.05	222.81
989.34	222.80
989.63	222.82
989.92	222.80
990.22	222.79
990.51	222.79
990.80	222.78
991.09	222.79
991.38	222.80
991.67	222.78
991.96	222.78
992.25	222.78
992.54	222.76
992.83	222.76
993.12	222.76
993.41	222.77
993.70	222.81
993.99	222.82
994.28	222.85
994.58	222.86
994.87	222.85
995.16	222.85
995.45	222.84
995.74	222.80
996.03	222.81
996.32	222.82
996.61	222.84
996.90	222.85
997.19	222.84
997.48	222.84
997.77	222.83
998.06	222.83
998.34	222.82
998.63	222.81
998.92	222.83
999.21	222.84
999.50	222.83
999.79	222.79
1000.08	222.79
1000.37	222.78
1000.66	222.77
1000.95	222.79
1001.24	222.80
1001.53	222.82
1001.82	222.82
1002.11	222.79
1002.40	222.80
1002.68	222.82
1002.97	222.89
1003.26	222.88
1003.55	222.87
1003.84	222.88
1004.13	222.91
1004.42	222.91
1004.71	222.91
1004.99	222.90
1005.28	222.91
1005.57	222.91
1005.86	222.89
1006.15	222.89
1006.44	222.87
1006.72	222.89
1007.01	222.87
1007.30	222.86
1007.59	222.85
1007.88	222.84
1008.17	222.85
1008.45	222.83
1008.74	222.79
1009.03	222.74
1009.32	222.74
1009.60	222.74
1009.89	222.74
1010.18	222.70
1010.47	222.69
1010.76	222.68
1011.04	222.69
1011.33	222.69
1011.62	222.70
1011.91	222.71
1012.19	222.71
1012.48	222.71
1012.77	222.71
1013.05	222.75
1013.34	222.75
1013.63	222.75
1013.92	222.75
1014.20	222.75
1014.49	222.76
1014.78	222.77
1015.06	222.73
1015.35	222.73
1015.64	222.75
1015.92	222.76
1016.21	222.78
1016.50	222.78
1016.78	222.79
1017.07	222.80
1017.36	222.77
1017.64	222.76
1017.93	222.77
1018.22	222.76
1018.50	222.76
1018.79	222.75
1019.08	222.72
1019.36	222.73
1019.65	222.72
1019.93	222.75
1020.22	222.77
1020.51	222.82
1020.79	222.81
1021.08	222.63
1021.36	222.55
1021.65	222.66
1021.94	222.76
1022.22	222.87
1022.51	222.62
1022.79	223.25
1023.08	222.91
1023.36	224.04
1023.65	222.57
>>>>>End Processed Spectral Data<<<<<
