SpectraSuite Data File
++++++++++++++++++++++++++++++++++++
Date: Wed Sep 30 15:42:25 EDT 2015
User: lab3
Dark Spectrum Present: No
Reference Spectrum Present: No
Number of Sampled Component Spectra: 1
Spectrometers: USB2E7196
Integration Time (usec): 36000 (USB2E7196)
Spectra Averaged: 1500 (USB2E7196)
Boxcar Smoothing: 10 (USB2E7196)
Correct for Electrical Dark: No (USB2E7196)
Strobe/Lamp Enabled: No (USB2E7196)
Correct for Detector Non-linearity: No (USB2E7196)
Correct for Stray Light: No (USB2E7196)
Number of Pixels in Processed Spectrum: 2048
>>>>>Begin Processed Spectral Data<<<<<
339.09	0.00
339.48	211.56
339.86	213.06
340.24	214.32
340.63	215.83
341.01	218.72
341.39	218.37
341.78	219.83
342.16	220.97
342.54	221.56
342.93	210.05
343.31	220.66
343.69	221.20
344.07	221.66
344.46	222.09
344.84	222.48
345.22	222.71
345.60	222.97
345.99	223.16
346.37	223.31
346.75	223.41
347.13	223.49
347.52	223.57
347.90	223.65
348.28	223.68
348.66	223.73
349.05	223.74
349.43	223.79
349.81	223.84
350.19	223.90
350.57	223.96
350.96	224.03
351.34	224.13
351.72	224.22
352.10	224.32
352.48	224.39
352.87	224.44
353.25	224.51
353.63	224.57
354.01	224.64
354.39	224.71
354.77	224.78
355.15	224.88
355.54	224.93
355.92	224.97
356.30	225.04
356.68	225.18
357.06	225.25
357.44	225.31
357.82	225.37
358.20	225.48
358.58	225.54
358.97	225.61
359.35	225.70
359.73	225.78
360.11	225.84
360.49	225.92
360.87	225.97
361.25	226.03
361.63	226.12
362.01	226.17
362.39	226.20
362.77	226.26
363.15	226.29
363.53	226.32
363.91	226.36
364.29	226.38
364.67	226.32
365.05	226.34
365.43	226.37
365.81	226.40
366.19	226.41
366.57	226.45
366.95	226.46
367.33	226.43
367.71	226.42
368.09	226.43
368.47	226.42
368.85	226.41
369.23	226.42
369.61	226.36
369.99	226.37
370.37	226.36
370.75	226.41
371.13	226.38
371.51	226.34
371.89	226.31
372.27	226.29
372.65	226.27
373.03	226.22
373.41	226.18
373.78	226.14
374.16	226.05
374.54	225.97
374.92	225.92
375.30	225.88
375.68	225.82
376.06	225.77
376.44	225.71
376.82	225.66
377.19	225.61
377.57	225.56
377.95	225.47
378.33	225.41
378.71	225.27
379.09	225.22
379.47	225.19
379.84	225.12
380.22	225.05
380.60	224.98
380.98	224.93
381.36	224.88
381.73	224.81
382.11	224.78
382.49	224.74
382.87	224.68
383.25	224.63
383.62	224.69
384.00	224.63
384.38	224.59
384.76	224.57
385.13	224.55
385.51	224.51
385.89	224.46
386.27	224.43
386.64	224.42
387.02	224.38
387.40	224.32
387.78	224.29
388.15	224.26
388.53	224.23
388.91	224.20
389.29	224.16
389.66	224.16
390.04	224.12
390.42	224.11
390.79	224.09
391.17	224.07
391.55	223.95
391.92	223.93
392.30	223.94
392.68	223.90
393.05	223.88
393.43	223.88
393.81	223.88
394.18	223.85
394.56	223.84
394.94	223.87
395.31	223.88
395.69	223.92
396.06	223.95
396.44	223.97
396.82	223.97
397.19	224.04
397.57	224.05
397.95	224.09
398.32	224.09
398.70	224.14
399.07	224.20
399.45	224.23
399.82	224.27
400.20	224.29
400.58	224.36
400.95	224.38
401.33	224.44
401.70	224.57
402.08	224.67
402.45	224.74
402.83	224.84
403.20	224.92
403.58	225.00
403.95	225.13
404.33	225.26
404.71	225.38
405.08	225.58
405.46	225.71
405.83	225.87
406.21	226.04
406.58	226.23
406.96	226.41
407.33	226.63
407.70	226.87
408.08	227.19
408.45	227.47
408.83	227.77
409.20	228.06
409.58	228.32
409.95	228.67
410.33	229.05
410.70	229.40
411.08	229.83
411.45	230.27
411.82	230.71
412.20	231.22
412.57	231.83
412.95	232.31
413.32	232.93
413.69	233.56
414.07	234.24
414.44	234.98
414.82	235.72
415.19	236.59
415.56	237.48
415.94	238.42
416.31	239.45
416.68	240.50
417.06	241.70
417.43	242.84
417.81	244.14
418.18	245.46
418.55	246.91
418.93	248.42
419.30	250.00
419.67	251.70
420.04	253.43
420.42	255.24
420.79	257.33
421.16	259.44
421.54	261.58
421.91	263.83
422.28	266.15
422.66	268.68
423.03	271.08
423.40	273.60
423.77	276.30
424.15	279.08
424.52	281.97
424.89	285.10
425.26	288.21
425.64	291.10
426.01	294.35
426.38	297.67
426.75	301.11
427.13	304.62
427.50	308.29
427.87	312.10
428.24	315.95
428.61	319.65
428.99	323.64
429.36	328.01
429.73	332.20
430.10	336.37
430.47	340.64
430.85	345.02
431.22	349.70
431.59	354.51
431.96	359.20
432.33	364.40
432.70	369.33
433.08	375.15
433.45	380.64
433.82	386.04
434.19	392.10
434.56	398.04
434.93	403.78
435.30	409.44
435.68	415.80
436.05	422.03
436.42	428.26
436.79	433.94
437.16	440.08
437.53	446.64
437.90	453.19
438.27	459.58
438.64	466.52
439.01	472.79
439.38	478.50
439.75	484.02
440.13	490.28
440.50	496.23
440.87	500.92
441.24	506.08
441.61	511.79
441.98	515.96
442.35	520.92
442.72	525.94
443.09	530.77
443.46	533.87
443.83	536.16
444.20	538.07
444.57	540.88
444.94	542.50
445.31	544.18
445.68	545.66
446.05	546.76
446.42	546.53
446.79	546.18
447.16	545.89
447.53	545.65
447.90	543.74
448.27	541.97
448.64	539.18
449.01	537.30
449.37	533.29
449.74	529.64
450.11	524.95
450.48	519.86
450.85	514.71
451.22	510.35
451.59	506.08
451.96	502.18
452.33	496.52
452.70	491.48
453.07	485.35
453.43	479.20
453.80	473.26
454.17	467.55
454.54	462.28
454.91	456.32
455.28	450.69
455.65	445.42
456.02	439.78
456.38	435.26
456.75	429.41
457.12	424.70
457.49	419.95
457.86	415.44
458.23	411.47
458.59	407.11
458.96	402.59
459.33	398.63
459.70	394.62
460.07	391.54
460.43	387.92
460.80	384.54
461.17	381.57
461.54	378.36
461.91	375.36
462.27	372.29
462.64	369.79
463.01	366.92
463.38	364.00
463.74	361.37
464.11	359.04
464.48	356.94
464.85	354.69
465.21	352.96
465.58	351.05
465.95	348.85
466.32	347.08
466.68	345.36
467.05	343.63
467.42	341.94
467.78	340.14
468.15	338.48
468.52	337.23
468.88	335.60
469.25	334.11
469.62	332.94
469.98	331.65
470.35	330.52
470.72	329.49
471.08	328.45
471.45	327.59
471.82	326.62
472.18	325.63
472.55	324.98
472.92	324.19
473.28	323.58
473.65	322.95
474.02	322.34
474.38	321.85
474.75	321.58
475.11	321.16
475.48	321.02
475.85	320.86
476.21	320.83
476.58	320.82
476.94	321.02
477.31	321.14
477.67	321.29
478.04	321.56
478.41	321.90
478.77	322.38
479.14	322.74
479.50	323.31
479.87	324.03
480.23	324.73
480.60	325.42
480.96	326.12
481.33	327.09
481.69	328.07
482.06	329.04
482.42	329.96
482.79	331.06
483.15	332.31
483.52	333.72
483.88	335.07
484.25	336.53
484.61	338.05
484.98	339.68
485.34	341.49
485.71	343.39
486.07	345.42
486.44	347.42
486.80	349.65
487.17	351.95
487.53	354.46
487.90	357.08
488.26	359.91
488.62	362.89
488.99	365.88
489.35	369.01
489.72	372.39
490.08	375.94
490.44	379.59
490.81	383.40
491.17	387.31
491.54	391.48
491.90	395.75
492.26	400.35
492.63	405.19
492.99	410.22
493.36	415.37
493.72	420.79
494.08	426.36
494.45	432.23
494.81	438.30
495.17	444.51
495.54	451.05
495.90	457.93
496.26	464.95
496.63	472.19
496.99	479.74
497.35	487.68
497.72	495.88
498.08	504.23
498.44	512.84
498.80	521.99
499.17	531.37
499.53	541.07
499.89	551.01
500.26	561.16
500.62	571.56
500.98	582.64
501.34	593.83
501.71	605.58
502.07	617.54
502.43	629.86
502.79	642.53
503.16	655.64
503.52	668.87
503.88	682.44
504.24	696.47
504.60	710.73
504.97	725.32
505.33	740.36
505.69	756.28
506.05	772.42
506.41	788.55
506.78	804.97
507.14	821.93
507.50	839.36
507.86	857.15
508.22	875.20
508.59	893.28
508.95	912.07
509.31	931.26
509.67	951.14
510.03	971.27
510.39	991.57
510.75	1012.04
511.12	1032.79
511.48	1053.80
511.84	1074.99
512.20	1096.49
512.56	1119.08
512.92	1141.69
513.28	1164.04
513.64	1186.73
514.00	1209.85
514.37	1233.21
514.73	1256.51
515.09	1279.66
515.45	1303.17
515.81	1327.22
516.17	1351.28
516.53	1375.06
516.89	1398.91
517.25	1422.88
517.61	1446.99
517.97	1471.32
518.33	1495.45
518.69	1519.77
519.05	1544.32
519.41	1568.86
519.77	1593.71
520.13	1617.74
520.49	1641.99
520.85	1666.42
521.21	1690.59
521.57	1715.34
521.93	1739.35
522.29	1764.14
522.65	1788.64
523.01	1813.00
523.37	1836.52
523.73	1860.68
524.09	1885.02
524.45	1909.18
524.81	1932.82
525.17	1956.31
525.53	1979.43
525.89	2002.47
526.25	2025.55
526.61	2048.03
526.97	2070.86
527.33	2093.51
527.68	2116.00
528.04	2137.79
528.40	2159.28
528.76	2181.05
529.12	2201.73
529.48	2222.89
529.84	2242.19
530.20	2261.94
530.56	2281.32
530.91	2300.91
531.27	2319.91
531.63	2338.21
531.99	2355.99
532.35	2373.68
532.71	2391.47
533.07	2409.66
533.42	2426.40
533.78	2443.51
534.14	2460.70
534.50	2476.91
534.86	2493.74
535.21	2508.84
535.57	2523.63
535.93	2537.82
536.29	2550.67
536.65	2564.33
537.00	2576.93
537.36	2590.24
537.72	2602.51
538.08	2614.44
538.44	2625.33
538.79	2636.43
539.15	2645.79
539.51	2655.00
539.87	2663.53
540.22	2669.97
540.58	2676.65
540.94	2683.77
541.29	2689.55
541.65	2694.32
542.01	2698.73
542.37	2701.27
542.72	2705.62
543.08	2709.50
543.44	2713.16
543.79	2716.42
544.15	2718.65
544.51	2720.87
544.87	2722.04
545.22	2723.06
545.58	2723.08
545.94	2723.43
546.29	2722.37
546.65	2721.37
547.01	2720.52
547.36	2719.88
547.72	2719.64
548.07	2717.94
548.43	2715.73
548.79	2712.74
549.14	2709.68
549.50	2707.32
549.86	2703.93
550.21	2698.52
550.57	2693.57
550.92	2687.30
551.28	2681.48
551.64	2675.63
551.99	2670.01
552.35	2664.12
552.70	2657.65
553.06	2651.86
553.41	2645.62
553.77	2638.78
554.13	2632.87
554.48	2625.94
554.84	2617.63
555.19	2609.30
555.55	2600.37
555.90	2591.96
556.26	2584.68
556.61	2576.82
556.97	2566.83
557.32	2558.10
557.68	2549.32
558.03	2540.07
558.39	2531.60
558.74	2523.07
559.10	2513.66
559.45	2503.74
559.81	2494.08
560.16	2483.90
560.52	2473.44
560.87	2463.96
561.23	2454.11
561.58	2443.88
561.94	2433.57
562.29	2422.71
562.64	2412.34
563.00	2402.34
563.35	2392.19
563.71	2380.98
564.06	2369.67
564.42	2359.20
564.77	2348.28
565.12	2337.46
565.48	2326.39
565.83	2315.90
566.19	2305.64
566.54	2294.74
566.89	2283.27
567.25	2271.94
567.60	2261.36
567.96	2250.26
568.31	2237.98
568.66	2225.75
569.02	2214.38
569.37	2202.82
569.72	2191.75
570.08	2180.03
570.43	2167.77
570.78	2155.22
571.14	2142.77
571.49	2130.81
571.84	2119.06
572.20	2106.13
572.55	2093.85
572.90	2081.36
573.26	2068.03
573.61	2054.13
573.96	2040.61
574.31	2027.30
574.67	2014.15
575.02	2000.52
575.37	1986.62
575.72	1972.97
576.08	1959.65
576.43	1945.38
576.78	1931.23
577.13	1917.81
577.49	1904.53
577.84	1891.68
578.19	1878.09
578.54	1864.09
578.90	1849.65
579.25	1835.03
579.60	1821.78
579.95	1808.09
580.30	1794.53
580.66	1781.17
581.01	1767.45
581.36	1754.11
581.71	1741.44
582.06	1728.23
582.42	1715.29
582.77	1702.84
583.12	1689.91
583.47	1677.31
583.82	1664.78
584.17	1652.10
584.53	1639.30
584.88	1626.57
585.23	1613.45
585.58	1600.89
585.93	1588.62
586.28	1577.08
586.63	1565.32
586.98	1552.84
587.34	1540.60
587.69	1527.94
588.04	1515.64
588.39	1503.87
588.74	1491.55
589.09	1479.03
589.44	1466.51
589.79	1454.40
590.14	1442.35
590.49	1430.51
590.84	1418.50
591.19	1407.04
591.54	1395.15
591.89	1383.15
592.25	1371.47
592.60	1359.47
592.95	1347.89
593.30	1336.71
593.65	1325.35
594.00	1314.31
594.35	1303.86
594.70	1292.61
595.05	1282.23
595.40	1271.66
595.75	1260.65
596.10	1250.48
596.45	1240.50
596.80	1230.90
597.15	1221.14
597.50	1211.30
597.85	1201.66
598.19	1192.21
598.54	1182.34
598.89	1173.11
599.24	1164.10
599.59	1154.89
599.94	1146.63
600.29	1138.22
600.64	1129.60
600.99	1120.43
601.34	1111.64
601.69	1102.49
602.04	1094.37
602.39	1086.18
602.74	1078.20
603.08	1070.41
603.43	1062.16
603.78	1053.80
604.13	1045.54
604.48	1037.19
604.83	1029.13
605.18	1020.97
605.53	1012.77
605.87	1004.59
606.22	996.68
606.57	988.56
606.92	980.42
607.27	972.15
607.62	964.10
607.96	956.19
608.31	949.31
608.66	942.07
609.01	935.10
609.36	928.02
609.70	920.72
610.05	913.27
610.40	906.17
610.75	899.11
611.10	892.28
611.44	885.20
611.79	878.38
612.14	871.22
612.49	864.23
612.83	857.66
613.18	851.19
613.53	844.56
613.88	838.08
614.22	832.14
614.57	825.97
614.92	819.80
615.27	813.63
615.61	807.30
615.96	801.15
616.31	794.96
616.65	788.72
617.00	782.67
617.35	776.75
617.70	770.86
618.04	765.09
618.39	759.29
618.74	753.81
619.08	748.17
619.43	742.74
619.78	737.29
620.12	731.73
620.47	726.31
620.82	720.98
621.16	715.88
621.51	710.49
621.85	705.11
622.20	699.77
622.55	694.60
622.89	689.29
623.24	684.09
623.59	678.97
623.93	673.92
624.28	669.04
624.62	664.10
624.97	659.14
625.32	654.29
625.66	649.34
626.01	644.36
626.35	639.52
626.70	634.74
627.04	630.15
627.39	625.59
627.73	621.12
628.08	616.83
628.43	612.34
628.77	607.91
629.12	603.64
629.46	599.54
629.81	595.28
630.15	590.99
630.50	586.81
630.84	582.79
631.19	578.94
631.53	575.10
631.88	571.20
632.22	567.36
632.57	563.74
632.91	560.04
633.26	556.41
633.60	552.86
633.95	549.44
634.29	545.87
634.64	542.26
634.98	538.58
635.32	535.04
635.67	531.67
636.01	528.29
636.36	524.89
636.70	521.63
637.05	518.36
637.39	515.26
637.73	512.00
638.08	508.85
638.42	505.65
638.77	502.34
639.11	498.99
639.45	495.71
639.80	492.40
640.14	489.28
640.49	486.13
640.83	482.85
641.17	479.64
641.52	476.55
641.86	473.47
642.20	470.56
642.55	467.47
642.89	464.48
643.23	461.64
643.58	459.09
643.92	456.37
644.26	453.69
644.61	451.00
644.95	448.33
645.29	445.57
645.64	442.79
645.98	440.16
646.32	437.70
646.66	435.22
647.01	432.75
647.35	430.31
647.69	427.80
648.04	425.44
648.38	423.06
648.72	420.64
649.06	418.33
649.41	416.00
649.75	413.70
650.09	411.43
650.43	409.15
650.78	406.81
651.12	404.47
651.46	402.24
651.80	400.11
652.14	398.04
652.49	395.99
652.83	394.00
653.17	392.00
653.51	390.03
653.85	388.13
654.20	386.16
654.54	384.13
654.88	382.27
655.22	380.43
655.56	378.59
655.90	376.83
656.25	375.08
656.59	373.34
656.93	371.69
657.27	370.05
657.61	368.33
657.95	366.69
658.29	365.05
658.64	363.42
658.98	361.77
659.32	360.14
659.66	358.62
660.00	357.10
660.34	355.62
660.68	354.09
661.02	352.52
661.36	351.07
661.70	349.65
662.05	348.21
662.39	346.76
662.73	345.39
663.07	344.05
663.41	342.74
663.75	341.44
664.09	340.15
664.43	338.77
664.77	337.51
665.11	336.18
665.45	334.93
665.79	333.67
666.13	332.39
666.47	331.11
666.81	329.81
667.15	328.49
667.49	327.22
667.83	326.02
668.17	324.84
668.51	323.67
668.85	322.54
669.19	321.48
669.53	320.36
669.87	319.20
670.21	318.08
670.55	316.96
670.89	315.92
671.23	314.86
671.57	313.81
671.91	312.80
672.25	311.84
672.58	310.87
672.92	309.90
673.26	309.00
673.60	308.08
673.94	307.15
674.28	306.28
674.62	305.42
674.96	304.52
675.30	303.66
675.64	302.79
675.97	301.92
676.31	301.03
676.65	300.17
676.99	299.37
677.33	298.51
677.67	297.68
678.01	296.78
678.34	295.95
678.68	295.18
679.02	294.38
679.36	293.60
679.70	292.81
680.04	292.04
680.37	291.25
680.71	290.52
681.05	289.83
681.39	289.10
681.73	288.33
682.06	287.60
682.40	286.89
682.74	286.19
683.08	285.52
683.42	284.83
683.75	284.19
684.09	283.48
684.43	282.83
684.77	282.17
685.10	281.56
685.44	280.92
685.78	280.27
686.12	279.67
686.45	279.04
686.79	278.42
687.13	277.81
687.46	277.19
687.80	276.60
688.14	275.95
688.48	275.37
688.81	274.77
689.15	274.22
689.49	273.63
689.82	273.07
690.16	272.44
690.50	271.89
690.83	271.32
691.17	270.77
691.51	270.22
691.84	269.70
692.18	269.15
692.52	268.59
692.85	268.05
693.19	267.53
693.52	267.02
693.86	266.52
694.20	266.03
694.53	265.55
694.87	265.04
695.21	264.56
695.54	264.08
695.88	263.60
696.21	263.08
696.55	262.60
696.88	262.13
697.22	261.67
697.56	261.21
697.89	260.70
698.23	260.23
698.56	259.76
698.90	259.32
699.23	258.87
699.57	258.46
699.90	258.03
700.24	257.59
700.58	257.18
700.91	256.78
701.25	256.45
701.58	256.08
701.92	255.71
702.25	255.32
702.59	254.92
702.92	254.55
703.26	254.19
703.59	253.82
703.93	253.53
704.26	253.18
704.60	252.82
704.93	252.48
705.26	252.13
705.60	251.82
705.93	251.46
706.27	251.16
706.60	250.85
706.94	250.55
707.27	250.20
707.61	249.85
707.94	249.50
708.27	249.09
708.61	248.73
708.94	248.40
709.28	248.09
709.61	247.79
709.94	247.50
710.28	247.21
710.61	246.94
710.95	246.59
711.28	246.38
711.61	246.11
711.95	245.88
712.28	245.60
712.61	245.32
712.95	245.12
713.28	244.92
713.61	244.66
713.95	244.38
714.28	244.16
714.61	243.93
714.95	243.69
715.28	243.45
715.61	243.22
715.95	243.00
716.28	242.76
716.61	242.56
716.95	242.33
717.28	242.12
717.61	241.89
717.94	241.67
718.28	241.39
718.61	241.18
718.94	240.95
719.27	240.76
719.61	240.57
719.94	240.34
720.27	240.09
720.60	239.89
720.94	239.70
721.27	239.51
721.60	239.34
721.93	239.17
722.27	239.03
722.60	238.87
722.93	238.68
723.26	238.52
723.59	238.32
723.93	238.16
724.26	238.00
724.59	237.85
724.92	237.69
725.25	237.57
725.59	237.41
725.92	237.28
726.25	237.13
726.58	236.98
726.91	236.82
727.24	236.70
727.57	236.55
727.91	236.40
728.24	236.27
728.57	236.12
728.90	235.99
729.23	235.82
729.56	235.73
729.89	235.59
730.22	235.45
730.55	235.32
730.89	235.19
731.22	235.05
731.55	234.92
731.88	234.79
732.21	234.64
732.54	234.52
732.87	234.39
733.20	234.28
733.53	234.17
733.86	234.07
734.19	233.94
734.52	233.85
734.85	233.81
735.18	233.66
735.51	233.59
735.84	233.49
736.17	233.40
736.50	233.24
736.83	233.26
737.16	233.16
737.49	233.08
737.82	232.98
738.15	232.91
738.48	232.82
738.81	232.71
739.14	232.62
739.47	232.52
739.80	232.42
740.13	232.34
740.46	232.23
740.79	232.12
741.12	232.04
741.45	231.93
741.78	231.78
742.11	231.73
742.44	231.61
742.77	231.53
743.10	231.44
743.43	231.36
743.75	231.16
744.08	231.24
744.41	231.15
744.74	231.06
745.07	230.96
745.40	230.90
745.73	230.87
746.06	230.79
746.39	230.74
746.71	230.66
747.04	230.58
747.37	230.52
747.70	230.47
748.03	230.41
748.36	230.36
748.68	230.29
749.01	230.19
749.34	230.12
749.67	230.05
750.00	230.00
750.33	230.02
750.65	229.96
750.98	229.75
751.31	229.68
751.64	229.63
751.97	229.62
752.29	229.55
752.62	229.43
752.95	229.37
753.28	229.29
753.60	229.22
753.93	229.19
754.26	229.13
754.59	229.03
754.91	228.95
755.24	228.89
755.57	228.87
755.90	228.82
756.22	228.76
756.55	228.68
756.88	228.60
757.20	228.47
757.53	228.39
757.86	228.34
758.19	228.29
758.51	228.23
758.84	228.14
759.17	228.07
759.49	228.03
759.82	228.02
760.15	227.99
760.47	227.94
760.80	227.86
761.13	227.82
761.45	227.79
761.78	227.75
762.11	227.70
762.43	227.61
762.76	227.57
763.08	227.54
763.41	227.51
763.74	227.47
764.06	227.44
764.39	227.41
764.71	227.36
765.04	227.31
765.37	227.27
765.69	227.23
766.02	227.19
766.34	227.14
766.67	227.08
767.00	227.06
767.32	227.07
767.65	227.10
767.97	227.06
768.30	227.02
768.62	226.98
768.95	226.93
769.27	226.89
769.60	226.86
769.92	226.81
770.25	226.76
770.57	226.71
770.90	226.67
771.22	226.62
771.55	226.58
771.87	226.56
772.20	226.53
772.52	226.59
772.85	226.69
773.17	226.66
773.50	226.61
773.82	226.56
774.15	226.48
774.47	226.39
774.80	226.35
775.12	226.32
775.45	226.30
775.77	226.28
776.09	226.26
776.42	226.23
776.74	226.24
777.07	226.21
777.39	226.19
777.72	226.16
778.04	226.15
778.36	226.12
778.69	226.09
779.01	226.07
779.33	225.94
779.66	225.79
779.98	225.77
780.31	225.76
780.63	225.78
780.95	225.78
781.28	225.76
781.60	225.73
781.92	225.70
782.25	225.68
782.57	225.67
782.89	225.64
783.22	225.61
783.54	225.56
783.86	225.55
784.19	225.53
784.51	225.54
784.83	225.51
785.16	225.49
785.48	225.48
785.80	225.46
786.12	225.46
786.45	225.44
786.77	225.43
787.09	225.41
787.42	225.35
787.74	225.34
788.06	225.32
788.38	225.32
788.71	225.30
789.03	225.29
789.35	225.27
789.67	225.25
789.99	225.25
790.32	225.23
790.64	225.22
790.96	225.31
791.28	225.25
791.61	225.23
791.93	225.22
792.25	225.20
792.57	225.25
792.89	225.22
793.21	225.22
793.54	225.19
793.86	225.17
794.18	225.16
794.50	225.12
794.82	225.10
795.14	225.10
795.47	225.10
795.79	225.09
796.11	225.06
796.43	225.04
796.75	225.02
797.07	225.02
797.39	225.00
797.71	224.90
798.04	224.89
798.36	224.89
798.68	224.87
799.00	224.86
799.32	224.80
799.64	224.79
799.96	224.78
800.28	224.79
800.60	224.78
800.92	224.78
801.24	224.76
801.56	224.77
801.89	224.74
802.21	224.74
802.53	224.71
802.85	224.73
803.17	224.77
803.49	224.74
803.81	224.72
804.13	224.70
804.45	224.68
804.77	224.69
805.09	224.68
805.41	224.67
805.73	224.64
806.05	224.61
806.37	224.61
806.69	224.59
807.01	224.57
807.33	224.56
807.65	224.52
807.97	224.56
808.28	224.55
808.60	224.52
808.92	224.50
809.24	224.55
809.56	224.53
809.88	224.49
810.20	224.49
810.52	224.51
810.84	224.49
811.16	224.46
811.48	224.45
811.80	224.49
812.12	224.48
812.43	224.50
812.75	224.49
813.07	224.47
813.39	224.47
813.71	224.46
814.03	224.44
814.35	224.43
814.67	224.38
814.98	224.36
815.30	224.36
815.62	224.35
815.94	224.28
816.26	224.28
816.58	224.25
816.89	224.25
817.21	224.22
817.53	224.22
817.85	224.22
818.17	224.21
818.48	224.16
818.80	224.17
819.12	224.15
819.44	224.14
819.76	224.13
820.07	224.12
820.39	224.12
820.71	224.13
821.03	224.13
821.34	224.12
821.66	224.13
821.98	224.14
822.30	224.12
822.61	224.18
822.93	224.16
823.25	224.15
823.57	224.13
823.88	224.14
824.20	224.14
824.52	224.16
824.83	224.15
825.15	224.14
825.47	224.14
825.79	224.15
826.10	224.13
826.42	224.13
826.74	224.13
827.05	224.11
827.37	224.11
827.69	224.10
828.00	224.11
828.32	224.10
828.64	224.10
828.95	224.15
829.27	224.11
829.58	224.10
829.90	224.13
830.22	224.13
830.53	224.11
830.85	224.09
831.17	224.07
831.48	224.06
831.80	224.06
832.11	224.03
832.43	224.00
832.75	224.00
833.06	224.06
833.38	224.03
833.69	224.02
834.01	224.03
834.32	224.02
834.64	224.00
834.96	224.00
835.27	223.99
835.59	223.96
835.90	223.95
836.22	223.95
836.53	223.93
836.85	223.91
837.16	224.02
837.48	224.02
837.79	224.06
838.11	224.06
838.42	224.05
838.74	224.07
839.05	224.08
839.37	224.07
839.68	224.01
840.00	224.01
840.31	224.02
840.63	224.00
840.94	223.98
841.26	223.97
841.57	223.97
841.88	223.99
842.20	223.98
842.51	223.95
842.83	223.95
843.14	224.03
843.46	224.03
843.77	223.96
844.08	223.95
844.40	223.92
844.71	223.91
845.03	223.89
845.34	223.88
845.65	223.86
845.97	223.86
846.28	223.86
846.60	223.85
846.91	223.84
847.22	223.83
847.54	223.86
847.85	223.86
848.16	223.85
848.48	223.81
848.79	223.85
849.10	223.86
849.42	223.86
849.73	223.76
850.04	223.75
850.36	223.72
850.67	223.73
850.98	223.72
851.30	223.72
851.61	223.73
851.92	223.71
852.23	223.75
852.55	223.76
852.86	223.77
853.17	223.78
853.49	223.79
853.80	223.81
854.11	223.81
854.42	223.81
854.74	223.81
855.05	223.81
855.36	223.75
855.67	223.75
855.99	223.76
856.30	223.88
856.61	223.88
856.92	223.88
857.23	223.89
857.55	223.88
857.86	223.88
858.17	223.89
858.48	223.88
858.79	223.86
859.11	223.87
859.42	223.86
859.73	223.85
860.04	223.84
860.35	223.81
860.66	223.78
860.98	223.78
861.29	223.79
861.60	223.79
861.91	223.82
862.22	223.80
862.53	223.78
862.84	223.65
863.16	223.67
863.47	223.66
863.78	223.64
864.09	223.65
864.40	223.66
864.71	223.65
865.02	223.67
865.33	223.64
865.64	223.62
865.95	223.63
866.27	223.69
866.58	223.67
866.89	223.69
867.20	223.68
867.51	223.67
867.82	223.67
868.13	223.69
868.44	223.67
868.75	223.69
869.06	223.70
869.37	223.71
869.68	223.69
869.99	223.70
870.30	223.70
870.61	223.71
870.92	223.70
871.23	223.69
871.54	223.70
871.85	223.73
872.16	223.75
872.47	223.73
872.78	223.67
873.09	223.68
873.40	223.67
873.71	223.68
874.02	223.68
874.33	223.67
874.64	223.65
874.95	223.67
875.26	223.65
875.56	223.65
875.87	223.63
876.18	223.63
876.49	223.73
876.80	223.72
877.11	223.70
877.42	223.71
877.73	223.71
878.04	223.69
878.35	223.69
878.66	223.69
878.96	223.69
879.27	223.69
879.58	223.68
879.89	223.67
880.20	223.71
880.51	223.70
880.82	223.70
881.12	223.71
881.43	223.67
881.74	223.67
882.05	223.66
882.36	223.67
882.67	223.68
882.97	223.56
883.28	223.55
883.59	223.56
883.90	223.56
884.21	223.57
884.51	223.56
884.82	223.55
885.13	223.54
885.44	223.54
885.74	223.54
886.05	223.53
886.36	223.53
886.67	223.49
886.98	223.55
887.28	223.56
887.59	223.56
887.90	223.57
888.20	223.57
888.51	223.58
888.82	223.57
889.13	223.57
889.43	223.67
889.74	223.67
890.05	223.66
890.35	223.64
890.66	223.63
890.97	223.62
891.28	223.61
891.58	223.61
891.89	223.61
892.20	223.60
892.50	223.59
892.81	223.59
893.12	223.59
893.42	223.53
893.73	223.53
894.04	223.52
894.34	223.53
894.65	223.52
894.95	223.51
895.26	223.51
895.57	223.57
895.87	223.46
896.18	223.48
896.48	223.48
896.79	223.48
897.10	223.50
897.40	223.50
897.71	223.52
898.01	223.51
898.32	223.52
898.63	223.52
898.93	223.53
899.24	223.53
899.54	223.52
899.85	223.52
900.15	223.52
900.46	223.53
900.76	223.54
901.07	223.54
901.38	223.54
901.68	223.56
901.99	223.50
902.29	223.50
902.60	223.49
902.90	223.48
903.21	223.49
903.51	223.47
903.82	223.48
904.12	223.49
904.43	223.49
904.73	223.49
905.03	223.49
905.34	223.59
905.64	223.58
905.95	223.59
906.25	223.60
906.56	223.59
906.86	223.58
907.17	223.56
907.47	223.57
907.77	223.55
908.08	223.52
908.38	223.53
908.69	223.54
908.99	223.56
909.30	223.56
909.60	223.57
909.90	223.57
910.21	223.55
910.51	223.52
910.81	223.52
911.12	223.53
911.42	223.53
911.73	223.42
912.03	223.43
912.33	223.43
912.64	223.42
912.94	223.41
913.24	223.40
913.55	223.39
913.85	223.38
914.15	223.40
914.46	223.41
914.76	223.41
915.06	223.39
915.37	223.36
915.67	223.35
915.97	223.35
916.27	223.33
916.58	223.33
916.88	223.33
917.18	223.32
917.49	223.39
917.79	223.38
918.09	223.41
918.39	223.44
918.70	223.42
919.00	223.42
919.30	223.47
919.60	223.46
919.91	223.46
920.21	223.46
920.51	223.44
920.81	223.45
921.12	223.47
921.42	223.48
921.72	223.48
922.02	223.49
922.32	223.51
922.63	223.51
922.93	223.57
923.23	223.57
923.53	223.56
923.83	223.49
924.13	223.50
924.44	223.49
924.74	223.51
925.04	223.53
925.34	223.54
925.64	223.49
925.94	223.49
926.24	223.55
926.55	223.54
926.85	223.55
927.15	223.55
927.45	223.54
927.75	223.55
928.05	223.55
928.35	223.54
928.65	223.55
928.95	223.56
929.26	223.51
929.56	223.54
929.86	223.55
930.16	223.55
930.46	223.54
930.76	223.55
931.06	223.49
931.36	223.47
931.66	223.49
931.96	223.50
932.26	223.52
932.56	223.47
932.86	223.48
933.16	223.49
933.46	223.48
933.76	223.47
934.06	223.48
934.36	223.52
934.66	223.51
934.96	223.50
935.26	223.49
935.56	223.51
935.86	223.47
936.16	223.46
936.46	223.45
936.76	223.44
937.06	223.43
937.36	223.44
937.66	223.44
937.96	223.43
938.26	223.40
938.56	223.39
938.86	223.40
939.16	223.42
939.46	223.43
939.76	223.44
940.06	223.44
940.35	223.42
940.65	223.37
940.95	223.38
941.25	223.36
941.55	223.35
941.85	223.35
942.15	223.37
942.45	223.39
942.75	223.39
943.04	223.40
943.34	223.42
943.64	223.41
943.94	223.40
944.24	223.40
944.54	223.42
944.84	223.41
945.13	223.40
945.43	223.38
945.73	223.36
946.03	223.34
946.33	223.34
946.62	223.33
946.92	223.34
947.22	223.34
947.52	223.35
947.82	223.35
948.11	223.34
948.41	223.32
948.71	223.29
949.01	223.30
949.31	223.29
949.60	223.27
949.90	223.28
950.20	223.27
950.50	223.27
950.79	223.26
951.09	223.28
951.39	223.28
951.69	223.26
951.98	223.28
952.28	223.29
952.58	223.28
952.87	223.28
953.17	223.28
953.47	223.27
953.76	223.26
954.06	223.25
954.36	223.23
954.66	223.23
954.95	223.26
955.25	223.26
955.55	223.27
955.84	223.26
956.14	223.26
956.44	223.27
956.73	223.26
957.03	223.26
957.32	223.26
957.62	223.26
957.92	223.29
958.21	223.27
958.51	223.38
958.81	223.40
959.10	223.41
959.40	223.44
959.69	223.44
959.99	223.46
960.29	223.47
960.58	223.47
960.88	223.50
961.17	223.48
961.47	223.49
961.76	223.48
962.06	223.50
962.36	223.50
962.65	223.50
962.95	223.52
963.24	223.50
963.54	223.50
963.83	223.50
964.13	223.49
964.42	223.49
964.72	223.41
965.01	223.40
965.31	223.40
965.60	223.37
965.90	223.45
966.19	223.41
966.49	223.41
966.78	223.41
967.08	223.40
967.37	223.41
967.67	223.39
967.96	223.41
968.26	223.39
968.55	223.40
968.85	223.40
969.14	223.40
969.43	223.41
969.73	223.41
970.02	223.40
970.32	223.39
970.61	223.37
970.91	223.33
971.20	223.32
971.49	223.31
971.79	223.31
972.08	223.23
972.38	223.25
972.67	223.24
972.96	223.26
973.26	223.23
973.55	223.26
973.85	223.26
974.14	223.24
974.43	223.25
974.73	223.23
975.02	223.21
975.31	223.21
975.61	223.21
975.90	223.20
976.19	223.19
976.49	223.20
976.78	223.20
977.07	223.21
977.37	223.21
977.66	223.23
977.95	223.22
978.24	223.24
978.54	223.25
978.83	223.25
979.12	223.24
979.42	223.25
979.71	223.23
980.00	223.23
980.29	223.24
980.59	223.22
980.88	223.25
981.17	223.25
981.46	223.25
981.76	223.24
982.05	223.28
982.34	223.28
982.63	223.29
982.93	223.29
983.22	223.32
983.51	223.32
983.80	223.33
984.09	223.34
984.39	223.33
984.68	223.32
984.97	223.33
985.26	223.33
985.55	223.33
985.85	223.30
986.14	223.32
986.43	223.33
986.72	223.33
987.01	223.30
987.30	223.30
987.59	223.30
987.89	223.30
988.18	223.27
988.47	223.26
988.76	223.26
989.05	223.25
989.34	223.23
989.63	223.25
989.92	223.23
990.22	223.21
990.51	223.21
990.80	223.20
991.09	223.21
991.38	223.21
991.67	223.21
991.96	223.21
992.25	223.21
992.54	223.19
992.83	223.19
993.12	223.19
993.41	223.21
993.70	223.25
993.99	223.26
994.28	223.28
994.58	223.30
994.87	223.28
995.16	223.28
995.45	223.28
995.74	223.26
996.03	223.28
996.32	223.30
996.61	223.32
996.90	223.31
997.19	223.30
997.48	223.30
997.77	223.28
998.06	223.29
998.34	223.28
998.63	223.28
998.92	223.29
999.21	223.30
999.50	223.30
999.79	223.25
1000.08	223.25
1000.37	223.25
1000.66	223.22
1000.95	223.25
1001.24	223.26
1001.53	223.27
1001.82	223.26
1002.11	223.24
1002.40	223.24
1002.68	223.27
1002.97	223.34
1003.26	223.33
1003.55	223.32
1003.84	223.33
1004.13	223.36
1004.42	223.36
1004.71	223.35
1004.99	223.35
1005.28	223.37
1005.57	223.37
1005.86	223.36
1006.15	223.35
1006.44	223.33
1006.72	223.35
1007.01	223.34
1007.30	223.33
1007.59	223.32
1007.88	223.32
1008.17	223.33
1008.45	223.31
1008.74	223.27
1009.03	223.24
1009.32	223.23
1009.60	223.24
1009.89	223.22
1010.18	223.18
1010.47	223.18
1010.76	223.18
1011.04	223.18
1011.33	223.18
1011.62	223.19
1011.91	223.20
1012.19	223.20
1012.48	223.22
1012.77	223.21
1013.05	223.24
1013.34	223.25
1013.63	223.24
1013.92	223.24
1014.20	223.23
1014.49	223.22
1014.78	223.23
1015.06	223.18
1015.35	223.19
1015.64	223.21
1015.92	223.22
1016.21	223.23
1016.50	223.23
1016.78	223.24
1017.07	223.24
1017.36	223.22
1017.64	223.20
1017.93	223.20
1018.22	223.19
1018.50	223.18
1018.79	223.18
1019.08	223.15
1019.36	223.15
1019.65	223.13
1019.93	223.16
1020.22	223.16
1020.51	223.22
1020.79	223.21
1021.08	222.95
1021.36	222.93
1021.65	223.31
1021.94	223.22
1022.22	223.14
1022.51	222.85
1022.79	223.67
1023.08	223.08
1023.36	224.38
1023.65	222.96
>>>>>End Processed Spectral Data<<<<<
