SpectraSuite Data File
++++++++++++++++++++++++++++++++++++
Date: Wed Sep 30 18:08:13 EDT 2015
User: lab3
Dark Spectrum Present: No
Reference Spectrum Present: No
Number of Sampled Component Spectra: 1
Spectrometers: USB2E7196
Integration Time (usec): 36000 (USB2E7196)
Spectra Averaged: 3000 (USB2E7196)
Boxcar Smoothing: 10 (USB2E7196)
Correct for Electrical Dark: No (USB2E7196)
Strobe/Lamp Enabled: No (USB2E7196)
Correct for Detector Non-linearity: No (USB2E7196)
Correct for Stray Light: No (USB2E7196)
Number of Pixels in Processed Spectrum: 2048
>>>>>Begin Processed Spectral Data<<<<<
339.09	0.00
339.48	210.89
339.86	212.43
340.24	213.66
340.63	215.32
341.01	218.06
341.39	217.74
341.78	219.22
342.16	220.42
342.54	220.89
342.93	209.45
343.31	220.04
343.69	220.58
344.07	221.04
344.46	221.47
344.84	221.86
345.22	222.10
345.60	222.36
345.99	222.55
346.37	222.69
346.75	222.80
347.13	222.88
347.52	222.95
347.90	223.04
348.28	223.07
348.66	223.13
349.05	223.13
349.43	223.18
349.81	223.24
350.19	223.30
350.57	223.36
350.96	223.45
351.34	223.54
351.72	223.64
352.10	223.75
352.48	223.83
352.87	223.88
353.25	223.95
353.63	224.02
354.01	224.09
354.39	224.16
354.77	224.25
355.15	224.35
355.54	224.41
355.92	224.44
356.30	224.52
356.68	224.66
357.06	224.75
357.44	224.79
357.82	224.85
358.20	224.97
358.58	225.03
358.97	225.09
359.35	225.17
359.73	225.25
360.11	225.31
360.49	225.36
360.87	225.41
361.25	225.47
361.63	225.55
362.01	225.60
362.39	225.63
362.77	225.67
363.15	225.71
363.53	225.74
363.91	225.78
364.29	225.81
364.67	225.73
365.05	225.75
365.43	225.78
365.81	225.80
366.19	225.81
366.57	225.86
366.95	225.86
367.33	225.84
367.71	225.83
368.09	225.85
368.47	225.85
368.85	225.84
369.23	225.85
369.61	225.80
369.99	225.82
370.37	225.82
370.75	225.88
371.13	225.84
371.51	225.80
371.89	225.77
372.27	225.75
372.65	225.72
373.03	225.68
373.41	225.64
373.78	225.60
374.16	225.50
374.54	225.43
374.92	225.37
375.30	225.33
375.68	225.27
376.06	225.22
376.44	225.16
376.82	225.11
377.19	225.06
377.57	225.01
377.95	224.92
378.33	224.85
378.71	224.70
379.09	224.65
379.47	224.61
379.84	224.55
380.22	224.49
380.60	224.42
380.98	224.36
381.36	224.31
381.73	224.24
382.11	224.21
382.49	224.17
382.87	224.11
383.25	224.06
383.62	224.13
384.00	224.06
384.38	224.02
384.76	223.99
385.13	223.98
385.51	223.94
385.89	223.89
386.27	223.85
386.64	223.83
387.02	223.78
387.40	223.73
387.78	223.70
388.15	223.67
388.53	223.64
388.91	223.61
389.29	223.58
389.66	223.57
390.04	223.53
390.42	223.53
390.79	223.51
391.17	223.50
391.55	223.36
391.92	223.36
392.30	223.35
392.68	223.32
393.05	223.30
393.43	223.29
393.81	223.29
394.18	223.27
394.56	223.27
394.94	223.29
395.31	223.29
395.69	223.32
396.06	223.35
396.44	223.38
396.82	223.39
397.19	223.46
397.57	223.47
397.95	223.50
398.32	223.49
398.70	223.53
399.07	223.59
399.45	223.62
399.82	223.66
400.20	223.69
400.58	223.75
400.95	223.76
401.33	223.83
401.70	223.96
402.08	224.05
402.45	224.13
402.83	224.24
403.20	224.34
403.58	224.42
403.95	224.54
404.33	224.65
404.71	224.77
405.08	224.95
405.46	225.09
405.83	225.25
406.21	225.41
406.58	225.60
406.96	225.78
407.33	225.99
407.70	226.22
408.08	226.54
408.45	226.81
408.83	227.11
409.20	227.39
409.58	227.64
409.95	227.98
410.33	228.34
410.70	228.68
411.08	229.09
411.45	229.52
411.82	229.95
412.20	230.45
412.57	231.04
412.95	231.50
413.32	232.10
413.69	232.72
414.07	233.38
414.44	234.10
414.82	234.83
415.19	235.69
415.56	236.56
415.94	237.45
416.31	238.46
416.68	239.47
417.06	240.64
417.43	241.74
417.81	243.02
418.18	244.30
418.55	245.72
418.93	247.19
419.30	248.73
419.67	250.35
420.04	252.03
420.42	253.79
420.79	255.83
421.16	257.88
421.54	259.97
421.91	262.14
422.28	264.40
422.66	266.84
423.03	269.16
423.40	271.60
423.77	274.23
424.15	276.91
424.52	279.69
424.89	282.71
425.26	285.71
425.64	288.50
426.01	291.64
426.38	294.84
426.75	298.15
427.13	301.54
427.50	305.10
427.87	308.78
428.24	312.50
428.61	316.05
428.99	319.89
429.36	324.09
429.73	328.13
430.10	332.15
430.47	336.25
430.85	340.47
431.22	344.95
431.59	349.58
431.96	354.09
432.33	359.08
432.70	363.80
433.08	369.40
433.45	374.67
433.82	379.85
434.19	385.65
434.56	391.34
434.93	396.83
435.30	402.25
435.68	408.35
436.05	414.31
436.42	420.28
436.79	425.73
437.16	431.60
437.53	437.89
437.90	444.15
438.27	450.28
438.64	456.94
439.01	462.94
439.38	468.42
439.75	473.70
440.13	479.74
440.50	485.48
440.87	490.00
441.24	494.96
441.61	500.44
441.98	504.46
442.35	509.23
442.72	514.11
443.09	518.78
443.46	521.80
443.83	524.03
444.20	525.91
444.57	528.64
444.94	530.26
445.31	531.95
445.68	533.45
446.05	534.56
446.42	534.39
446.79	534.13
447.16	533.92
447.53	533.74
447.90	531.97
448.27	530.31
448.64	527.67
449.01	525.96
449.37	522.18
449.74	518.74
450.11	514.33
450.48	509.46
450.85	504.56
451.22	500.40
451.59	496.33
451.96	492.61
452.33	487.20
452.70	482.37
453.07	476.46
453.43	470.56
453.80	464.85
454.17	459.37
454.54	454.30
454.91	448.55
455.28	443.14
455.65	438.03
456.02	432.60
456.38	428.23
456.75	422.56
457.12	417.99
457.49	413.39
457.86	408.99
458.23	405.15
458.59	400.90
458.96	396.54
459.33	392.70
459.70	388.79
460.07	385.81
460.43	382.29
460.80	379.00
461.17	376.09
461.54	372.97
461.91	370.04
462.27	367.06
462.64	364.61
463.01	361.82
463.38	358.99
463.74	356.43
464.11	354.15
464.48	352.10
464.85	349.89
465.21	348.20
465.58	346.34
465.95	344.18
466.32	342.46
466.68	340.76
467.05	339.07
467.42	337.43
467.78	335.66
468.15	334.03
468.52	332.81
468.88	331.23
469.25	329.75
469.62	328.59
469.98	327.34
470.35	326.22
470.72	325.22
471.08	324.19
471.45	323.33
471.82	322.39
472.18	321.42
472.55	320.78
472.92	320.00
473.28	319.39
473.65	318.77
474.02	318.17
474.38	317.69
474.75	317.41
475.11	317.00
475.48	316.85
475.85	316.68
476.21	316.63
476.58	316.63
476.94	316.81
477.31	316.92
477.67	317.05
478.04	317.30
478.41	317.62
478.77	318.07
479.14	318.39
479.50	318.94
479.87	319.61
480.23	320.29
480.60	320.93
480.96	321.61
481.33	322.54
481.69	323.46
482.06	324.38
482.42	325.26
482.79	326.31
483.15	327.52
483.52	328.87
483.88	330.18
484.25	331.58
484.61	333.04
484.98	334.60
485.34	336.35
485.71	338.17
486.07	340.10
486.44	342.03
486.80	344.17
487.17	346.36
487.53	348.78
487.90	351.28
488.26	354.00
488.62	356.85
488.99	359.72
489.35	362.73
489.72	365.97
490.08	369.39
490.44	372.89
490.81	376.55
491.17	380.29
491.54	384.31
491.90	388.41
492.26	392.83
492.63	397.50
492.99	402.35
493.36	407.33
493.72	412.56
494.08	417.94
494.45	423.62
494.81	429.49
495.17	435.49
495.54	441.84
495.90	448.49
496.26	455.28
496.63	462.31
496.99	469.63
497.35	477.31
497.72	485.26
498.08	493.38
498.44	501.75
498.80	510.66
499.17	519.79
499.53	529.25
499.89	538.95
500.26	548.83
500.62	558.97
500.98	569.78
501.34	580.71
501.71	592.17
502.07	603.89
502.43	616.00
502.79	628.43
503.16	641.27
503.52	654.29
503.88	667.66
504.24	681.46
504.60	695.54
504.97	709.98
505.33	724.84
505.69	740.59
506.05	756.55
506.41	772.54
506.78	788.85
507.14	805.64
507.50	822.98
507.86	840.73
508.22	858.71
508.59	876.74
508.95	895.51
509.31	914.73
509.67	934.61
510.03	954.72
510.39	975.08
510.75	995.64
511.12	1016.45
511.48	1037.62
511.84	1058.93
512.20	1080.57
512.56	1103.35
512.92	1126.26
513.28	1148.90
513.64	1171.89
514.00	1195.32
514.37	1219.03
514.73	1242.78
515.09	1266.37
515.45	1290.40
515.81	1314.98
516.17	1339.63
516.53	1364.01
516.89	1388.46
517.25	1413.12
517.61	1437.99
517.97	1463.07
518.33	1487.94
518.69	1513.05
519.05	1538.42
519.41	1563.91
519.77	1589.68
520.13	1614.70
520.49	1639.92
520.85	1665.35
521.21	1690.66
521.57	1716.58
521.93	1741.81
522.29	1767.84
522.65	1793.68
523.01	1819.31
523.37	1844.18
523.73	1869.78
524.09	1895.58
524.45	1921.26
524.81	1946.42
525.17	1971.46
525.53	1996.13
525.89	2020.80
526.25	2045.66
526.61	2069.92
526.97	2094.52
527.33	2119.06
527.68	2143.41
528.04	2167.04
528.40	2190.51
528.76	2214.19
529.12	2236.81
529.48	2259.92
529.84	2281.23
530.20	2302.98
530.56	2324.41
530.91	2346.05
531.27	2367.11
531.63	2387.52
531.99	2407.40
532.35	2427.16
532.71	2447.10
533.07	2467.51
533.42	2486.45
533.78	2505.71
534.14	2525.01
534.50	2543.43
534.86	2562.48
535.21	2579.74
535.57	2596.80
535.93	2613.26
536.29	2628.33
536.65	2644.28
537.00	2659.08
537.36	2674.55
537.72	2689.05
538.08	2703.22
538.44	2716.22
538.79	2729.44
539.15	2740.91
539.51	2752.28
539.87	2763.03
540.22	2771.54
540.58	2780.42
540.94	2789.75
541.29	2797.67
541.65	2804.63
542.01	2811.10
542.37	2815.66
542.72	2822.19
543.08	2828.09
543.44	2833.78
543.79	2838.96
544.15	2843.17
544.51	2847.28
544.87	2850.37
545.22	2853.15
545.58	2854.88
545.94	2857.16
546.29	2857.92
546.65	2858.67
547.01	2859.71
547.36	2860.87
547.72	2862.35
548.07	2862.16
548.43	2861.42
548.79	2860.00
549.14	2858.47
549.50	2857.60
549.86	2855.69
550.21	2851.52
550.57	2847.87
550.92	2842.77
551.28	2838.22
551.64	2833.55
551.99	2829.25
552.35	2824.61
552.70	2819.44
553.06	2814.95
553.41	2809.86
553.77	2804.11
554.13	2799.32
554.48	2793.34
554.84	2785.90
555.19	2778.53
555.55	2770.52
555.90	2763.09
556.26	2756.68
556.61	2749.71
556.97	2740.50
557.32	2732.47
557.68	2724.45
558.03	2715.85
558.39	2708.05
558.74	2700.30
559.10	2691.49
559.45	2682.24
559.81	2673.11
560.16	2663.41
560.52	2653.39
560.87	2644.39
561.23	2635.02
561.58	2625.19
561.94	2615.17
562.29	2604.51
562.64	2594.37
563.00	2584.65
563.35	2574.75
563.71	2563.76
564.06	2552.42
564.42	2542.02
564.77	2531.22
565.12	2520.53
565.48	2509.57
565.83	2499.26
566.19	2489.04
566.54	2478.20
566.89	2466.56
567.25	2455.08
567.60	2444.37
567.96	2433.13
568.31	2420.61
568.66	2408.10
569.02	2396.50
569.37	2384.73
569.72	2373.53
570.08	2361.57
570.43	2349.00
570.78	2336.05
571.14	2323.18
571.49	2310.93
571.84	2298.93
572.20	2285.53
572.55	2272.71
572.90	2259.68
573.26	2245.73
573.61	2231.17
573.96	2216.99
574.31	2203.11
574.67	2189.41
575.02	2175.19
575.37	2160.62
575.72	2146.29
576.08	2132.40
576.43	2117.49
576.78	2102.58
577.13	2088.47
577.49	2074.52
577.84	2060.99
578.19	2046.66
578.54	2031.85
578.90	2016.48
579.25	2000.86
579.60	1986.81
579.95	1972.29
580.30	1957.87
580.66	1943.68
581.01	1929.01
581.36	1914.80
581.71	1901.21
582.06	1887.01
582.42	1873.07
582.77	1859.72
583.12	1845.90
583.47	1832.26
583.82	1818.72
584.17	1805.03
584.53	1791.25
584.88	1777.48
585.23	1763.32
585.58	1749.71
585.93	1736.40
586.28	1724.03
586.63	1711.40
586.98	1697.94
587.34	1684.76
587.69	1671.11
588.04	1657.74
588.39	1645.02
588.74	1631.67
589.09	1618.14
589.44	1604.64
589.79	1591.56
590.14	1578.48
590.49	1565.60
590.84	1552.55
591.19	1540.11
591.54	1527.24
591.89	1514.20
592.25	1501.42
592.60	1488.27
592.95	1475.67
593.30	1463.51
593.65	1451.07
594.00	1438.94
594.35	1427.50
594.70	1415.20
595.05	1403.88
595.40	1392.36
595.75	1380.32
596.10	1369.12
596.45	1358.19
596.80	1347.68
597.15	1336.96
597.50	1326.17
597.85	1315.63
598.19	1305.30
598.54	1294.42
598.89	1284.24
599.24	1274.31
599.59	1264.18
599.94	1255.09
600.29	1245.83
600.64	1236.34
600.99	1226.21
601.34	1216.57
601.69	1206.42
602.04	1197.43
602.39	1188.32
602.74	1179.48
603.08	1170.87
603.43	1161.75
603.78	1152.42
604.13	1143.23
604.48	1133.97
604.83	1125.02
605.18	1115.97
605.53	1106.82
605.87	1097.74
606.22	1088.95
606.57	1079.92
606.92	1070.92
607.27	1061.78
607.62	1052.79
607.96	1043.98
608.31	1036.29
608.66	1028.12
609.01	1020.35
609.36	1012.45
609.70	1004.33
610.05	996.06
610.40	988.14
610.75	980.30
611.10	972.73
611.44	964.79
611.79	957.16
612.14	949.14
612.49	941.28
612.83	933.94
613.18	926.69
613.53	919.26
613.88	911.91
614.22	905.23
614.57	898.31
614.92	891.36
615.27	884.43
615.61	877.31
615.96	870.45
616.31	863.49
616.65	856.48
617.00	849.70
617.35	843.03
617.70	836.41
618.04	829.89
618.39	823.39
618.74	817.22
619.08	810.88
619.43	804.80
619.78	798.72
620.12	792.44
620.47	786.36
620.82	780.34
621.16	774.65
621.51	768.57
621.85	762.51
622.20	756.51
622.55	750.69
622.89	744.75
623.24	738.88
623.59	733.12
623.93	727.41
624.28	721.87
624.62	716.31
624.97	710.71
625.32	705.23
625.66	699.63
626.01	694.01
626.35	688.55
626.70	683.11
627.04	677.92
627.39	672.76
627.73	667.70
628.08	662.88
628.43	657.87
628.77	652.92
629.12	648.16
629.46	643.58
629.81	638.81
630.15	633.98
630.50	629.28
630.84	624.78
631.19	620.45
631.53	616.13
631.88	611.72
632.22	607.43
632.57	603.34
632.91	599.20
633.26	595.14
633.60	591.18
633.95	587.38
634.29	583.36
634.64	579.33
634.98	575.19
635.32	571.20
635.67	567.39
636.01	563.55
636.36	559.72
636.70	556.04
637.05	552.33
637.39	548.83
637.73	545.19
638.08	541.63
638.42	538.04
638.77	534.31
639.11	530.56
639.45	526.85
639.80	523.16
640.14	519.67
640.49	516.13
640.83	512.47
641.17	508.83
641.52	505.39
641.86	501.92
642.20	498.65
642.55	495.22
642.89	491.87
643.23	488.73
643.58	485.84
643.92	482.79
644.26	479.81
644.61	476.80
644.95	473.79
645.29	470.72
645.64	467.62
645.98	464.68
646.32	461.92
646.66	459.16
647.01	456.36
647.35	453.62
647.69	450.76
648.04	448.07
648.38	445.39
648.72	442.66
649.06	440.04
649.41	437.44
649.75	434.85
650.09	432.27
650.43	429.67
650.78	427.06
651.12	424.44
651.46	421.93
651.80	419.51
652.14	417.18
652.49	414.86
652.83	412.61
653.17	410.33
653.51	408.13
653.85	406.00
654.20	403.80
654.54	401.51
654.88	399.41
655.22	397.37
655.56	395.29
655.90	393.33
656.25	391.36
656.59	389.39
656.93	387.53
657.27	385.71
657.61	383.79
657.95	381.93
658.29	380.09
658.64	378.27
658.98	376.42
659.32	374.61
659.66	372.89
660.00	371.19
660.34	369.54
660.68	367.81
661.02	366.03
661.36	364.38
661.70	362.79
662.05	361.17
662.39	359.55
662.73	358.01
663.07	356.50
663.41	355.02
663.75	353.58
664.09	352.12
664.43	350.58
664.77	349.15
665.11	347.66
665.45	346.26
665.79	344.84
666.13	343.42
666.47	341.99
666.81	340.53
667.15	339.05
667.49	337.66
667.83	336.32
668.17	335.01
668.51	333.71
668.85	332.45
669.19	331.25
669.53	329.98
669.87	328.69
670.21	327.44
670.55	326.18
670.89	325.01
671.23	323.81
671.57	322.61
671.91	321.48
672.25	320.42
672.58	319.34
672.92	318.24
673.26	317.21
673.60	316.18
673.94	315.14
674.28	314.16
674.62	313.16
674.96	312.14
675.30	311.18
675.64	310.21
675.97	309.25
676.31	308.26
676.65	307.30
676.99	306.40
677.33	305.44
677.67	304.53
678.01	303.54
678.34	302.62
678.68	301.76
679.02	300.87
679.36	299.97
679.70	299.09
680.04	298.23
680.37	297.36
680.71	296.53
681.05	295.75
681.39	294.93
681.73	294.09
682.06	293.27
682.40	292.47
682.74	291.69
683.08	290.93
683.42	290.15
683.75	289.45
684.09	288.66
684.43	287.93
684.77	287.19
685.10	286.50
685.44	285.78
685.78	285.06
686.12	284.38
686.45	283.68
686.79	282.99
687.13	282.32
687.46	281.61
687.80	280.93
688.14	280.22
688.48	279.57
688.81	278.91
689.15	278.31
689.49	277.65
689.82	277.01
690.16	276.33
690.50	275.71
690.83	275.08
691.17	274.47
691.51	273.87
691.84	273.29
692.18	272.68
692.52	272.07
692.85	271.47
693.19	270.91
693.52	270.35
693.86	269.78
694.20	269.22
694.53	268.69
694.87	268.13
695.21	267.61
695.54	267.07
695.88	266.53
696.21	265.97
696.55	265.46
696.88	264.95
697.22	264.45
697.56	263.94
697.89	263.38
698.23	262.87
698.56	262.35
698.90	261.86
699.23	261.36
699.57	260.91
699.90	260.43
700.24	259.93
700.58	259.47
700.91	259.03
701.25	258.68
701.58	258.28
701.92	257.89
702.25	257.46
702.59	257.03
702.92	256.62
703.26	256.21
703.59	255.79
703.93	255.46
704.26	255.08
704.60	254.69
704.93	254.31
705.26	253.93
705.60	253.59
705.93	253.21
706.27	252.89
706.60	252.55
706.94	252.22
707.27	251.83
707.61	251.47
707.94	251.10
708.27	250.65
708.61	250.26
708.94	249.88
709.28	249.54
709.61	249.21
709.94	248.90
710.28	248.59
710.61	248.30
710.95	247.92
711.28	247.68
711.61	247.38
711.95	247.12
712.28	246.83
712.61	246.52
712.95	246.28
713.28	246.05
713.61	245.76
713.95	245.47
714.28	245.22
714.61	244.96
714.95	244.70
715.28	244.44
715.61	244.19
715.95	243.95
716.28	243.70
716.61	243.48
716.95	243.23
717.28	243.00
717.61	242.75
717.94	242.51
718.28	242.21
718.61	241.99
718.94	241.74
719.27	241.53
719.61	241.33
719.94	241.09
720.27	240.82
720.60	240.60
720.94	240.40
721.27	240.21
721.60	240.03
721.93	239.83
722.27	239.67
722.60	239.50
722.93	239.29
723.26	239.11
723.59	238.90
723.93	238.73
724.26	238.55
724.59	238.37
724.92	238.21
725.25	238.08
725.59	237.90
725.92	237.76
726.25	237.59
726.58	237.43
726.91	237.26
727.24	237.12
727.57	236.96
727.91	236.80
728.24	236.65
728.57	236.48
728.90	236.35
729.23	236.17
729.56	236.06
729.89	235.93
730.22	235.78
730.55	235.64
730.89	235.50
731.22	235.35
731.55	235.21
731.88	235.07
732.21	234.92
732.54	234.78
732.87	234.65
733.20	234.54
733.53	234.42
733.86	234.31
734.19	234.17
734.52	234.06
734.85	234.01
735.18	233.87
735.51	233.79
735.84	233.67
736.17	233.59
736.50	233.42
736.83	233.43
737.16	233.31
737.49	233.22
737.82	233.12
738.15	233.03
738.48	232.93
738.81	232.82
739.14	232.71
739.47	232.60
739.80	232.49
740.13	232.39
740.46	232.28
740.79	232.17
741.12	232.06
741.45	231.95
741.78	231.79
742.11	231.73
742.44	231.61
742.77	231.53
743.10	231.41
743.43	231.32
743.75	231.12
744.08	231.19
744.41	231.09
744.74	230.99
745.07	230.88
745.40	230.81
745.73	230.76
746.06	230.68
746.39	230.61
746.71	230.52
747.04	230.44
747.37	230.35
747.70	230.30
748.03	230.23
748.36	230.17
748.68	230.09
749.01	229.98
749.34	229.91
749.67	229.84
750.00	229.79
750.33	229.79
750.65	229.73
750.98	229.51
751.31	229.45
751.64	229.39
751.97	229.39
752.29	229.31
752.62	229.20
752.95	229.13
753.28	229.05
753.60	228.98
753.93	228.94
754.26	228.88
754.59	228.78
754.91	228.70
755.24	228.63
755.57	228.61
755.90	228.56
756.22	228.49
756.55	228.41
756.88	228.33
757.20	228.20
757.53	228.12
757.86	228.05
758.19	228.00
758.51	227.94
758.84	227.82
759.17	227.76
759.49	227.71
759.82	227.70
760.15	227.66
760.47	227.61
760.80	227.53
761.13	227.50
761.45	227.45
761.78	227.41
762.11	227.37
762.43	227.27
762.76	227.22
763.08	227.19
763.41	227.15
763.74	227.11
764.06	227.07
764.39	227.03
764.71	226.99
765.04	226.93
765.37	226.88
765.69	226.84
766.02	226.80
766.34	226.75
766.67	226.68
767.00	226.65
767.32	226.68
767.65	226.70
767.97	226.64
768.30	226.62
768.62	226.57
768.95	226.52
769.27	226.48
769.60	226.45
769.92	226.40
770.25	226.35
770.57	226.30
770.90	226.25
771.22	226.21
771.55	226.18
771.87	226.15
772.20	226.12
772.52	226.17
772.85	226.26
773.17	226.24
773.50	226.19
773.82	226.14
774.15	226.05
774.47	225.96
774.80	225.93
775.12	225.89
775.45	225.86
775.77	225.83
776.09	225.82
776.42	225.79
776.74	225.79
777.07	225.76
777.39	225.74
777.72	225.70
778.04	225.69
778.36	225.65
778.69	225.62
779.01	225.61
779.33	225.50
779.66	225.35
779.98	225.32
780.31	225.31
780.63	225.33
780.95	225.33
781.28	225.30
781.60	225.27
781.92	225.26
782.25	225.24
782.57	225.22
782.89	225.19
783.22	225.16
783.54	225.11
783.86	225.10
784.19	225.07
784.51	225.09
784.83	225.05
785.16	225.03
785.48	225.02
785.80	225.00
786.12	224.99
786.45	224.96
786.77	224.96
787.09	224.93
787.42	224.87
787.74	224.86
788.06	224.84
788.38	224.83
788.71	224.80
789.03	224.78
789.35	224.77
789.67	224.75
789.99	224.74
790.32	224.72
790.64	224.72
790.96	224.80
791.28	224.74
791.61	224.72
791.93	224.71
792.25	224.68
792.57	224.73
792.89	224.70
793.21	224.69
793.54	224.66
793.86	224.63
794.18	224.63
794.50	224.59
794.82	224.58
795.14	224.58
795.47	224.59
795.79	224.57
796.11	224.54
796.43	224.52
796.75	224.51
797.07	224.50
797.39	224.48
797.71	224.39
798.04	224.39
798.36	224.38
798.68	224.37
799.00	224.37
799.32	224.32
799.64	224.32
799.96	224.31
800.28	224.32
800.60	224.30
800.92	224.30
801.24	224.28
801.56	224.27
801.89	224.25
802.21	224.24
802.53	224.21
802.85	224.22
803.17	224.27
803.49	224.24
803.81	224.22
804.13	224.20
804.45	224.18
804.77	224.17
805.09	224.16
805.41	224.15
805.73	224.11
806.05	224.07
806.37	224.05
806.69	224.04
807.01	224.02
807.33	224.02
807.65	223.97
807.97	224.01
808.28	223.99
808.60	223.98
808.92	223.96
809.24	224.01
809.56	223.97
809.88	223.92
810.20	223.92
810.52	223.93
810.84	223.92
811.16	223.90
811.48	223.89
811.80	223.92
812.12	223.91
812.43	223.93
812.75	223.93
813.07	223.92
813.39	223.91
813.71	223.89
814.03	223.87
814.35	223.87
814.67	223.82
814.98	223.81
815.30	223.80
815.62	223.79
815.94	223.71
816.26	223.72
816.58	223.70
816.89	223.70
817.21	223.66
817.53	223.67
817.85	223.66
818.17	223.66
818.48	223.61
818.80	223.63
819.12	223.60
819.44	223.58
819.76	223.56
820.07	223.56
820.39	223.56
820.71	223.56
821.03	223.56
821.34	223.55
821.66	223.56
821.98	223.57
822.30	223.57
822.61	223.63
822.93	223.60
823.25	223.60
823.57	223.58
823.88	223.60
824.20	223.59
824.52	223.60
824.83	223.59
825.15	223.58
825.47	223.56
825.79	223.57
826.10	223.56
826.42	223.55
826.74	223.55
827.05	223.54
827.37	223.55
827.69	223.54
828.00	223.54
828.32	223.53
828.64	223.51
828.95	223.57
829.27	223.54
829.58	223.54
829.90	223.56
830.22	223.56
830.53	223.54
830.85	223.53
831.17	223.50
831.48	223.50
831.80	223.51
832.11	223.50
832.43	223.49
832.75	223.49
833.06	223.55
833.38	223.52
833.69	223.51
834.01	223.52
834.32	223.52
834.64	223.50
834.96	223.50
835.27	223.49
835.59	223.45
835.90	223.43
836.22	223.42
836.53	223.39
836.85	223.37
837.16	223.47
837.48	223.46
837.79	223.50
838.11	223.49
838.42	223.48
838.74	223.49
839.05	223.48
839.37	223.47
839.68	223.41
840.00	223.40
840.31	223.41
840.63	223.40
840.94	223.38
841.26	223.36
841.57	223.35
841.88	223.36
842.20	223.35
842.51	223.33
842.83	223.33
843.14	223.42
843.46	223.42
843.77	223.35
844.08	223.35
844.40	223.31
844.71	223.31
845.03	223.30
845.34	223.29
845.65	223.27
845.97	223.27
846.28	223.27
846.60	223.27
846.91	223.25
847.22	223.25
847.54	223.27
847.85	223.28
848.16	223.27
848.48	223.25
848.79	223.29
849.10	223.30
849.42	223.31
849.73	223.21
850.04	223.21
850.36	223.18
850.67	223.19
850.98	223.20
851.30	223.21
851.61	223.20
851.92	223.20
852.23	223.24
852.55	223.24
852.86	223.24
853.17	223.24
853.49	223.26
853.80	223.29
854.11	223.29
854.42	223.30
854.74	223.29
855.05	223.30
855.36	223.24
855.67	223.24
855.99	223.23
856.30	223.36
856.61	223.35
856.92	223.35
857.23	223.35
857.55	223.34
857.86	223.33
858.17	223.34
858.48	223.32
858.79	223.30
859.11	223.31
859.42	223.30
859.73	223.28
860.04	223.28
860.35	223.24
860.66	223.21
860.98	223.20
861.29	223.22
861.60	223.20
861.91	223.23
862.22	223.21
862.53	223.20
862.84	223.07
863.16	223.10
863.47	223.08
863.78	223.07
864.09	223.08
864.40	223.09
864.71	223.09
865.02	223.11
865.33	223.09
865.64	223.07
865.95	223.08
866.27	223.14
866.58	223.13
866.89	223.14
867.20	223.15
867.51	223.13
867.82	223.12
868.13	223.15
868.44	223.13
868.75	223.15
869.06	223.16
869.37	223.17
869.68	223.14
869.99	223.16
870.30	223.17
870.61	223.17
870.92	223.15
871.23	223.14
871.54	223.15
871.85	223.17
872.16	223.19
872.47	223.18
872.78	223.13
873.09	223.13
873.40	223.12
873.71	223.13
874.02	223.14
874.33	223.13
874.64	223.11
874.95	223.13
875.26	223.11
875.56	223.11
875.87	223.10
876.18	223.09
876.49	223.18
876.80	223.17
877.11	223.16
877.42	223.16
877.73	223.17
878.04	223.15
878.35	223.14
878.66	223.14
878.96	223.13
879.27	223.12
879.58	223.12
879.89	223.11
880.20	223.14
880.51	223.13
880.82	223.13
881.12	223.13
881.43	223.10
881.74	223.08
882.05	223.08
882.36	223.08
882.67	223.09
882.97	222.98
883.28	222.97
883.59	222.97
883.90	222.98
884.21	222.99
884.51	222.98
884.82	222.97
885.13	222.96
885.44	222.97
885.74	222.97
886.05	222.96
886.36	222.96
886.67	222.92
886.98	222.97
887.28	222.98
887.59	222.98
887.90	222.99
888.20	222.99
888.51	223.00
888.82	222.99
889.13	223.00
889.43	223.08
889.74	223.08
890.05	223.07
890.35	223.06
890.66	223.04
890.97	223.03
891.28	223.02
891.58	223.02
891.89	223.02
892.20	223.00
892.50	222.99
892.81	222.99
893.12	222.99
893.42	222.93
893.73	222.94
894.04	222.94
894.34	222.95
894.65	222.94
894.95	222.92
895.26	222.93
895.57	222.97
895.87	222.86
896.18	222.88
896.48	222.89
896.79	222.88
897.10	222.90
897.40	222.91
897.71	222.92
898.01	222.90
898.32	222.91
898.63	222.91
898.93	222.92
899.24	222.93
899.54	222.92
899.85	222.92
900.15	222.91
900.46	222.92
900.76	222.93
901.07	222.93
901.38	222.93
901.68	222.94
901.99	222.88
902.29	222.89
902.60	222.88
902.90	222.88
903.21	222.88
903.51	222.87
903.82	222.88
904.12	222.88
904.43	222.90
904.73	222.89
905.03	222.90
905.34	222.99
905.64	222.99
905.95	222.99
906.25	222.99
906.56	222.98
906.86	222.98
907.17	222.96
907.47	222.97
907.77	222.96
908.08	222.94
908.38	222.96
908.69	222.97
908.99	222.99
909.30	222.99
909.60	223.00
909.90	223.00
910.21	222.97
910.51	222.95
910.81	222.95
911.12	222.96
911.42	222.95
911.73	222.85
912.03	222.85
912.33	222.87
912.64	222.86
912.94	222.85
913.24	222.84
913.55	222.83
913.85	222.82
914.15	222.84
914.46	222.85
914.76	222.84
915.06	222.83
915.37	222.81
915.67	222.80
915.97	222.79
916.27	222.77
916.58	222.77
916.88	222.78
917.18	222.77
917.49	222.84
917.79	222.83
918.09	222.84
918.39	222.87
918.70	222.85
919.00	222.86
919.30	222.91
919.60	222.90
919.91	222.89
920.21	222.89
920.51	222.87
920.81	222.86
921.12	222.87
921.42	222.86
921.72	222.87
922.02	222.87
922.32	222.89
922.63	222.89
922.93	222.96
923.23	222.96
923.53	222.95
923.83	222.88
924.13	222.90
924.44	222.90
924.74	222.91
925.04	222.93
925.34	222.94
925.64	222.88
925.94	222.88
926.24	222.94
926.55	222.94
926.85	222.95
927.15	222.95
927.45	222.95
927.75	222.96
928.05	222.96
928.35	222.95
928.65	222.96
928.95	222.97
929.26	222.92
929.56	222.94
929.86	222.95
930.16	222.94
930.46	222.93
930.76	222.93
931.06	222.89
931.36	222.86
931.66	222.88
931.96	222.90
932.26	222.90
932.56	222.85
932.86	222.86
933.16	222.86
933.46	222.84
933.76	222.82
934.06	222.84
934.36	222.88
934.66	222.88
934.96	222.86
935.26	222.87
935.56	222.88
935.86	222.85
936.16	222.84
936.46	222.83
936.76	222.83
937.06	222.81
937.36	222.81
937.66	222.82
937.96	222.81
938.26	222.79
938.56	222.77
938.86	222.78
939.16	222.80
939.46	222.80
939.76	222.81
940.06	222.81
940.35	222.78
940.65	222.73
940.95	222.73
941.25	222.71
941.55	222.69
941.85	222.69
942.15	222.70
942.45	222.72
942.75	222.72
943.04	222.73
943.34	222.75
943.64	222.75
943.94	222.74
944.24	222.74
944.54	222.74
944.84	222.75
945.13	222.74
945.43	222.72
945.73	222.71
946.03	222.70
946.33	222.68
946.62	222.68
946.92	222.67
947.22	222.68
947.52	222.68
947.82	222.69
948.11	222.67
948.41	222.65
948.71	222.62
949.01	222.62
949.31	222.61
949.60	222.60
949.90	222.61
950.20	222.60
950.50	222.59
950.79	222.58
951.09	222.60
951.39	222.59
951.69	222.58
951.98	222.60
952.28	222.61
952.58	222.61
952.87	222.61
953.17	222.62
953.47	222.61
953.76	222.61
954.06	222.59
954.36	222.58
954.66	222.58
954.95	222.61
955.25	222.62
955.55	222.64
955.84	222.62
956.14	222.62
956.44	222.63
956.73	222.62
957.03	222.63
957.32	222.63
957.62	222.62
957.92	222.64
958.21	222.63
958.51	222.76
958.81	222.77
959.10	222.79
959.40	222.81
959.69	222.82
959.99	222.84
960.29	222.84
960.58	222.84
960.88	222.88
961.17	222.87
961.47	222.88
961.76	222.87
962.06	222.89
962.36	222.88
962.65	222.87
962.95	222.88
963.24	222.87
963.54	222.87
963.83	222.88
964.13	222.87
964.42	222.87
964.72	222.78
965.01	222.77
965.31	222.77
965.60	222.74
965.90	222.80
966.19	222.78
966.49	222.79
966.78	222.79
967.08	222.78
967.37	222.78
967.67	222.77
967.96	222.78
968.26	222.78
968.55	222.79
968.85	222.79
969.14	222.79
969.43	222.80
969.73	222.80
970.02	222.80
970.32	222.79
970.61	222.78
970.91	222.74
971.20	222.73
971.49	222.72
971.79	222.73
972.08	222.65
972.38	222.67
972.67	222.67
972.96	222.69
973.26	222.66
973.55	222.70
973.85	222.70
974.14	222.69
974.43	222.70
974.73	222.67
975.02	222.67
975.31	222.67
975.61	222.67
975.90	222.65
976.19	222.65
976.49	222.65
976.78	222.66
977.07	222.67
977.37	222.67
977.66	222.68
977.95	222.67
978.24	222.68
978.54	222.69
978.83	222.69
979.12	222.68
979.42	222.68
979.71	222.66
980.00	222.65
980.29	222.66
980.59	222.64
980.88	222.67
981.17	222.67
981.46	222.67
981.76	222.66
982.05	222.70
982.34	222.71
982.63	222.71
982.93	222.71
983.22	222.74
983.51	222.74
983.80	222.76
984.09	222.78
984.39	222.77
984.68	222.76
984.97	222.76
985.26	222.76
985.55	222.75
985.85	222.73
986.14	222.75
986.43	222.75
986.72	222.74
987.01	222.71
987.30	222.72
987.59	222.71
987.89	222.71
988.18	222.68
988.47	222.67
988.76	222.66
989.05	222.65
989.34	222.63
989.63	222.65
989.92	222.63
990.22	222.61
990.51	222.61
990.80	222.60
991.09	222.61
991.38	222.61
991.67	222.60
991.96	222.59
992.25	222.60
992.54	222.58
992.83	222.59
993.12	222.58
993.41	222.59
993.70	222.64
993.99	222.66
994.28	222.67
994.58	222.68
994.87	222.67
995.16	222.67
995.45	222.66
995.74	222.62
996.03	222.63
996.32	222.65
996.61	222.67
996.90	222.67
997.19	222.66
997.48	222.66
997.77	222.66
998.06	222.66
998.34	222.65
998.63	222.65
998.92	222.65
999.21	222.67
999.50	222.67
999.79	222.63
1000.08	222.61
1000.37	222.61
1000.66	222.60
1000.95	222.62
1001.24	222.63
1001.53	222.65
1001.82	222.65
1002.11	222.63
1002.40	222.63
1002.68	222.66
1002.97	222.72
1003.26	222.70
1003.55	222.69
1003.84	222.70
1004.13	222.74
1004.42	222.74
1004.71	222.74
1004.99	222.73
1005.28	222.75
1005.57	222.74
1005.86	222.74
1006.15	222.73
1006.44	222.71
1006.72	222.72
1007.01	222.70
1007.30	222.70
1007.59	222.68
1007.88	222.68
1008.17	222.69
1008.45	222.67
1008.74	222.62
1009.03	222.57
1009.32	222.58
1009.60	222.57
1009.89	222.56
1010.18	222.52
1010.47	222.51
1010.76	222.51
1011.04	222.51
1011.33	222.51
1011.62	222.52
1011.91	222.53
1012.19	222.54
1012.48	222.55
1012.77	222.55
1013.05	222.58
1013.34	222.58
1013.63	222.58
1013.92	222.60
1014.20	222.59
1014.49	222.59
1014.78	222.60
1015.06	222.57
1015.35	222.58
1015.64	222.60
1015.92	222.61
1016.21	222.61
1016.50	222.61
1016.78	222.62
1017.07	222.63
1017.36	222.61
1017.64	222.60
1017.93	222.61
1018.22	222.59
1018.50	222.59
1018.79	222.59
1019.08	222.55
1019.36	222.56
1019.65	222.54
1019.93	222.57
1020.22	222.58
1020.51	222.64
1020.79	222.62
1021.08	222.42
1021.36	222.45
1021.65	222.55
1021.94	222.52
1022.22	222.68
1022.51	222.33
1022.79	223.02
1023.08	222.64
1023.36	223.91
1023.65	222.21
>>>>>End Processed Spectral Data<<<<<
