SpectraSuite Data File
++++++++++++++++++++++++++++++++++++
Date: Tue Oct 06 19:33:20 EDT 2015
User: lab3
Dark Spectrum Present: No
Reference Spectrum Present: No
Number of Sampled Component Spectra: 1
Spectrometers: USB2E7196
Integration Time (usec): 66000 (USB2E7196)
Spectra Averaged: 5000 (USB2E7196)
Boxcar Smoothing: 10 (USB2E7196)
Correct for Electrical Dark: No (USB2E7196)
Strobe/Lamp Enabled: No (USB2E7196)
Correct for Detector Non-linearity: No (USB2E7196)
Correct for Stray Light: No (USB2E7196)
Number of Pixels in Processed Spectrum: 2048
>>>>>Begin Processed Spectral Data<<<<<
339.09	0.00
339.48	214.70
339.86	216.13
340.24	217.61
340.63	218.98
341.01	222.95
341.39	221.67
341.78	223.15
342.16	224.52
342.54	224.76
342.93	213.23
343.31	224.00
343.69	224.54
344.07	225.01
344.46	225.45
344.84	225.86
345.22	226.06
345.60	226.34
345.99	226.54
346.37	226.69
346.75	226.81
347.13	226.90
347.52	227.00
347.90	227.12
348.28	227.17
348.66	227.26
349.05	227.25
349.43	227.33
349.81	227.41
350.19	227.47
350.57	227.55
350.96	227.65
351.34	227.76
351.72	227.87
352.10	227.99
352.48	228.06
352.87	228.12
353.25	228.19
353.63	228.24
354.01	228.30
354.39	228.38
354.77	228.46
355.15	228.58
355.54	228.62
355.92	228.63
356.30	228.71
356.68	228.89
357.06	228.97
357.44	229.00
357.82	229.07
358.20	229.29
358.58	229.34
358.97	229.40
359.35	229.50
359.73	229.59
360.11	229.64
360.49	229.71
360.87	229.76
361.25	229.83
361.63	229.94
362.01	230.00
362.39	230.02
362.77	230.07
363.15	230.09
363.53	230.13
363.91	230.17
364.29	230.19
364.67	230.05
365.05	230.08
365.43	230.12
365.81	230.16
366.19	230.10
366.57	230.18
366.95	230.18
367.33	230.14
367.71	230.13
368.09	230.17
368.47	230.16
368.85	230.15
369.23	230.17
369.61	230.10
369.99	230.14
370.37	230.14
370.75	230.26
371.13	230.23
371.51	230.18
371.89	230.17
372.27	230.15
372.65	230.14
373.03	230.10
373.41	230.05
373.78	230.00
374.16	229.87
374.54	229.78
374.92	229.73
375.30	229.69
375.68	229.61
376.06	229.57
376.44	229.51
376.82	229.47
377.19	229.43
377.57	229.38
377.95	229.26
378.33	229.20
378.71	229.00
379.09	228.96
379.47	228.94
379.84	228.88
380.22	228.81
380.60	228.74
380.98	228.70
381.36	228.64
381.73	228.58
382.11	228.57
382.49	228.53
382.87	228.46
383.25	228.42
383.62	228.59
384.00	228.52
384.38	228.48
384.76	228.49
385.13	228.50
385.51	228.47
385.89	228.41
386.27	228.39
386.64	228.38
387.02	228.33
387.40	228.28
387.78	228.26
388.15	228.25
388.53	228.22
388.91	228.19
389.29	228.17
389.66	228.18
390.04	228.13
390.42	228.14
390.79	228.15
391.17	228.14
391.55	227.92
391.92	227.92
392.30	227.94
392.68	227.89
393.05	227.88
393.43	227.88
393.81	227.90
394.18	227.88
394.56	227.89
394.94	227.95
395.31	227.96
395.69	228.03
396.06	228.08
396.44	228.12
396.82	228.14
397.19	228.27
397.57	228.29
397.95	228.37
398.32	228.36
398.70	228.43
399.07	228.52
399.45	228.59
399.82	228.66
400.20	228.71
400.58	228.81
400.95	228.82
401.33	228.95
401.70	229.17
402.08	229.32
402.45	229.45
402.83	229.61
403.20	229.78
403.58	229.91
403.95	230.11
404.33	230.33
404.71	230.54
405.08	230.85
405.46	231.09
405.83	231.36
406.21	231.65
406.58	231.97
406.96	232.29
407.33	232.65
407.70	233.07
408.08	233.63
408.45	234.13
408.83	234.67
409.20	235.16
409.58	235.61
409.95	236.22
410.33	236.89
410.70	237.52
411.08	238.26
411.45	239.05
411.82	239.86
412.20	240.77
412.57	241.85
412.95	242.71
413.32	243.83
413.69	244.99
414.07	246.23
414.44	247.57
414.82	248.94
415.19	250.55
415.56	252.19
415.94	253.89
416.31	255.80
416.68	257.72
417.06	259.94
417.43	262.02
417.81	264.42
418.18	266.86
418.55	269.53
418.93	272.31
419.30	275.21
419.67	278.28
420.04	281.45
420.42	284.76
420.79	288.58
421.16	292.43
421.54	296.33
421.91	300.41
422.28	304.65
422.66	309.21
423.03	313.55
423.40	318.11
423.77	322.99
424.15	327.98
424.52	333.15
424.89	338.74
425.26	344.30
425.64	349.45
426.01	355.23
426.38	361.14
426.75	367.22
427.13	373.43
427.50	379.94
427.87	386.70
428.24	393.51
428.61	400.04
428.99	407.06
429.36	414.80
429.73	422.18
430.10	429.53
430.47	437.05
430.85	444.83
431.22	453.11
431.59	461.62
431.96	469.92
432.33	479.14
432.70	487.92
433.08	498.30
433.45	508.10
433.82	517.78
434.19	528.62
434.56	539.31
434.93	549.68
435.30	559.96
435.68	571.60
436.05	582.98
436.42	594.38
436.79	604.82
437.16	616.14
437.53	628.25
437.90	640.37
438.27	652.28
438.64	665.13
439.01	676.80
439.38	687.49
439.75	697.85
440.13	709.63
440.50	720.83
440.87	729.80
441.24	739.65
441.61	750.44
441.98	758.44
442.35	767.93
442.72	777.59
443.09	786.77
443.46	792.78
443.83	797.35
444.20	801.14
444.57	806.59
444.94	809.86
445.31	813.23
445.68	816.14
446.05	818.31
446.42	818.05
446.79	817.53
447.16	817.14
447.53	816.81
447.90	813.39
448.27	810.12
448.64	804.94
449.01	801.40
449.37	793.96
449.74	787.18
450.11	778.42
450.48	768.78
450.85	759.14
451.22	750.84
451.59	742.64
451.96	735.23
452.33	724.52
452.70	714.97
453.07	703.39
453.43	691.82
453.80	680.54
454.17	669.73
454.54	659.76
454.91	648.50
455.28	637.84
455.65	627.80
456.02	617.16
456.38	608.61
456.75	597.65
457.12	588.81
457.49	579.91
457.86	571.46
458.23	564.02
458.59	555.83
458.96	547.42
459.33	540.05
459.70	532.55
460.07	526.81
460.43	520.04
460.80	513.72
461.17	508.22
461.54	502.29
461.91	496.72
462.27	491.05
462.64	486.41
463.01	481.13
463.38	475.79
463.74	470.98
464.11	466.69
464.48	462.83
464.85	458.67
465.21	455.46
465.58	451.92
465.95	447.90
466.32	444.70
466.68	441.57
467.05	438.41
467.42	435.33
467.78	432.04
468.15	429.01
468.52	426.80
468.88	423.85
469.25	421.17
469.62	419.04
469.98	416.74
470.35	414.68
470.72	412.81
471.08	410.93
471.45	409.35
471.82	407.58
472.18	405.74
472.55	404.54
472.92	403.04
473.28	401.87
473.65	400.62
474.02	399.41
474.38	398.39
474.75	397.78
475.11	396.95
475.48	396.56
475.85	396.13
476.21	395.86
476.58	395.68
476.94	395.84
477.31	395.87
477.67	395.93
478.04	396.23
478.41	396.64
478.77	397.24
479.14	397.60
479.50	398.35
479.87	399.32
480.23	400.27
480.60	401.18
480.96	402.09
481.33	403.50
481.69	404.88
482.06	406.24
482.42	407.50
482.79	409.05
483.15	410.88
483.52	412.94
483.88	414.89
484.25	416.97
484.61	419.15
484.98	421.51
485.34	424.17
485.71	426.93
486.07	429.90
486.44	432.82
486.80	436.10
487.17	439.48
487.53	443.15
487.90	446.99
488.26	451.17
488.62	455.58
488.99	459.96
489.35	464.57
489.72	469.54
490.08	474.76
490.44	480.10
490.81	485.67
491.17	491.40
491.54	497.56
491.90	503.85
492.26	510.57
492.63	517.61
492.99	524.97
493.36	532.47
493.72	540.36
494.08	548.45
494.45	556.95
494.81	565.82
495.17	574.95
495.54	584.57
495.90	594.64
496.26	604.89
496.63	615.45
496.99	626.40
497.35	637.84
497.72	649.58
498.08	661.65
498.44	674.04
498.80	687.12
499.17	700.48
499.53	714.31
499.89	728.58
500.26	743.06
500.62	757.89
500.98	773.58
501.34	789.29
501.71	805.82
502.07	822.65
502.43	839.96
502.79	857.46
503.16	875.48
503.52	893.69
503.88	912.36
504.24	931.47
504.60	950.84
504.97	970.87
505.33	991.37
505.69	1012.91
506.05	1034.73
506.41	1056.45
506.78	1078.34
507.14	1100.82
507.50	1123.77
507.86	1147.13
508.22	1170.74
508.59	1194.24
508.95	1218.82
509.31	1243.91
509.67	1269.60
510.03	1295.23
510.39	1320.84
510.75	1346.56
511.12	1372.68
511.48	1399.00
511.84	1425.34
512.20	1452.05
512.56	1479.83
512.92	1507.44
513.28	1534.46
513.64	1561.88
514.00	1589.72
514.37	1617.84
514.73	1645.99
515.09	1673.50
515.45	1701.36
515.81	1729.43
516.17	1757.26
516.53	1784.45
516.89	1811.44
517.25	1838.81
517.61	1865.95
517.97	1893.81
518.33	1921.07
518.69	1948.22
519.05	1975.86
519.41	2003.64
519.77	2031.42
520.13	2057.72
520.49	2084.11
520.85	2110.91
521.21	2137.14
521.57	2163.66
521.93	2189.18
522.29	2215.37
522.65	2241.45
523.01	2267.20
523.37	2292.21
523.73	2318.00
524.09	2343.56
524.45	2368.81
524.81	2393.36
525.17	2417.88
525.53	2441.58
525.89	2465.67
526.25	2489.45
526.61	2511.52
526.97	2533.70
527.33	2555.76
527.68	2577.57
528.04	2599.05
528.40	2619.25
528.76	2639.62
529.12	2659.58
529.48	2680.13
529.84	2697.90
530.20	2716.07
530.56	2733.45
530.91	2751.06
531.27	2768.07
531.63	2784.09
531.99	2799.92
532.35	2815.50
532.71	2830.56
533.07	2845.97
533.42	2859.41
533.78	2873.11
534.14	2887.92
534.50	2901.55
534.86	2915.64
535.21	2927.58
535.57	2939.33
535.93	2950.90
536.29	2960.56
536.65	2970.12
537.00	2978.27
537.36	2987.84
537.72	2996.42
538.08	3004.48
538.44	3011.34
538.79	3017.89
539.15	3023.05
539.51	3027.38
539.87	3030.45
540.22	3031.99
540.58	3033.82
540.94	3036.56
541.29	3038.00
541.65	3038.07
542.01	3037.68
542.37	3035.67
542.72	3035.26
543.08	3033.06
543.44	3031.12
543.79	3028.90
544.15	3025.85
544.51	3022.85
544.87	3018.81
545.22	3013.73
545.58	3008.47
545.94	3003.39
546.29	2996.75
546.65	2990.39
547.01	2984.24
547.36	2978.61
547.72	2973.05
548.07	2965.67
548.43	2957.09
548.79	2948.30
549.14	2939.67
549.50	2931.16
549.86	2921.66
550.21	2910.47
550.57	2900.56
550.92	2888.71
551.28	2877.26
551.64	2866.14
551.99	2854.69
552.35	2842.75
552.70	2830.70
553.06	2819.13
553.41	2807.09
553.77	2794.82
554.13	2782.51
554.48	2768.96
554.84	2754.46
555.19	2740.47
555.55	2726.34
555.90	2712.72
556.26	2699.34
556.61	2684.84
556.97	2669.26
557.32	2654.20
557.68	2639.46
558.03	2624.33
558.39	2610.24
558.74	2596.75
559.10	2581.18
559.45	2565.83
559.81	2551.18
560.16	2536.14
560.52	2520.80
560.87	2505.67
561.23	2490.11
561.58	2475.17
561.94	2459.74
562.29	2443.79
562.64	2427.95
563.00	2412.21
563.35	2396.59
563.71	2380.61
564.06	2364.74
564.42	2349.41
564.77	2334.12
565.12	2318.47
565.48	2302.51
565.83	2286.81
566.19	2271.03
566.54	2255.58
566.89	2239.53
567.25	2223.39
567.60	2208.11
567.96	2192.03
568.31	2174.60
568.66	2158.18
569.02	2142.28
569.37	2126.97
569.72	2112.29
570.08	2097.10
570.43	2081.28
570.78	2065.28
571.14	2049.09
571.49	2032.91
571.84	2017.06
572.20	1999.89
572.55	1983.61
572.90	1967.45
573.26	1951.23
573.61	1934.37
573.96	1918.03
574.31	1901.52
574.67	1884.75
575.02	1867.65
575.37	1850.61
575.72	1834.43
576.08	1817.83
576.43	1800.53
576.78	1783.40
577.13	1766.53
577.49	1749.88
577.84	1733.76
578.19	1717.09
578.54	1700.50
578.90	1683.78
579.25	1666.89
579.60	1651.32
579.95	1635.41
580.30	1619.38
580.66	1603.09
581.01	1586.84
581.36	1570.72
581.71	1555.49
582.06	1540.26
582.42	1524.83
582.77	1509.93
583.12	1495.24
583.47	1480.52
583.82	1465.95
584.17	1450.88
584.53	1435.86
584.88	1421.19
585.23	1406.33
585.58	1391.91
585.93	1377.35
586.28	1363.90
586.63	1350.24
586.98	1336.09
587.34	1322.37
587.69	1308.47
588.04	1294.92
588.39	1281.72
588.74	1268.06
589.09	1254.52
589.44	1240.67
589.79	1227.43
590.14	1214.23
590.49	1201.09
590.84	1188.22
591.19	1175.72
591.54	1163.32
591.89	1150.48
592.25	1138.01
592.60	1125.40
592.95	1112.94
593.30	1100.92
593.65	1088.57
594.00	1076.52
594.35	1065.43
594.70	1053.57
595.05	1042.40
595.40	1031.01
595.75	1019.44
596.10	1008.58
596.45	997.70
596.80	987.21
597.15	976.72
597.50	966.22
597.85	955.96
598.19	945.74
598.54	935.50
598.89	925.85
599.24	916.62
599.59	907.15
599.94	898.39
600.29	889.61
600.64	880.63
600.99	871.50
601.34	862.70
601.69	853.38
602.04	845.04
602.39	836.56
602.74	828.30
603.08	820.18
603.43	812.03
603.78	803.87
604.13	795.77
604.48	787.73
604.83	779.93
605.18	772.20
605.53	764.64
605.87	757.03
606.22	749.53
606.57	741.95
606.92	734.31
607.27	726.70
607.62	719.31
607.96	712.20
608.31	705.60
608.66	698.93
609.01	692.54
609.36	686.09
609.70	679.57
610.05	673.08
610.40	666.80
610.75	660.49
611.10	654.42
611.44	648.35
611.79	642.41
612.14	636.37
612.49	630.44
612.83	624.81
613.18	619.24
613.53	613.65
613.88	608.24
614.22	603.20
614.57	598.08
614.92	593.05
615.27	588.17
615.61	583.16
615.96	578.16
616.31	573.20
616.65	568.39
617.00	563.71
617.35	559.11
617.70	554.51
618.04	550.04
618.39	545.70
618.74	541.62
619.08	537.49
619.43	533.51
619.78	529.47
620.12	525.40
620.47	521.57
620.82	517.83
621.16	514.11
621.51	510.45
621.85	506.80
622.20	503.22
622.55	499.61
622.89	496.06
623.24	492.70
623.59	489.40
623.93	486.19
624.28	483.14
624.62	480.26
624.97	477.40
625.32	474.46
625.66	471.47
626.01	468.46
626.35	465.62
626.70	462.72
627.04	460.02
627.39	457.29
627.73	454.64
628.08	452.05
628.43	449.47
628.77	446.83
629.12	444.32
629.46	441.92
629.81	439.67
630.15	437.35
630.50	435.05
630.84	432.79
631.19	430.58
631.53	428.45
631.88	426.16
632.22	423.98
632.57	422.09
632.91	420.15
633.26	418.30
633.60	416.46
633.95	414.72
634.29	412.84
634.64	411.04
634.98	409.11
635.32	407.38
635.67	405.80
636.01	404.21
636.36	402.67
636.70	401.22
637.05	399.59
637.39	398.14
637.73	396.67
638.08	395.29
638.42	393.94
638.77	392.45
639.11	390.95
639.45	389.48
639.80	387.96
640.14	386.55
640.49	385.12
640.83	383.71
641.17	382.35
641.52	381.02
641.86	379.73
642.20	378.59
642.55	377.27
642.89	375.95
643.23	374.73
643.58	373.63
643.92	372.37
644.26	371.21
644.61	370.08
644.95	368.92
645.29	367.68
645.64	366.43
645.98	365.32
646.32	364.33
646.66	363.27
647.01	362.24
647.35	361.30
647.69	360.32
648.04	359.42
648.38	358.45
648.72	357.53
649.06	356.62
649.41	355.65
649.75	354.75
650.09	353.89
650.43	353.00
650.78	352.08
651.12	351.21
651.46	350.35
651.80	349.51
652.14	348.73
652.49	348.01
652.83	347.23
653.17	346.40
653.51	345.62
653.85	344.94
654.20	344.21
654.54	343.38
654.88	342.60
655.22	341.88
655.56	341.13
655.90	340.41
656.25	339.71
656.59	339.03
656.93	338.40
657.27	337.81
657.61	337.14
657.95	336.52
658.29	335.88
658.64	335.27
658.98	334.60
659.32	333.95
659.66	333.33
660.00	332.76
660.34	332.19
660.68	331.56
661.02	330.87
661.36	330.24
661.70	329.65
662.05	329.07
662.39	328.51
662.73	328.02
663.07	327.58
663.41	327.09
663.75	326.55
664.09	326.00
664.43	325.33
664.77	324.79
665.11	324.19
665.45	323.64
665.79	323.12
666.13	322.58
666.47	322.03
666.81	321.44
667.15	320.82
667.49	320.34
667.83	319.90
668.17	319.43
668.51	319.00
668.85	318.58
669.19	318.20
669.53	317.66
669.87	317.10
670.21	316.53
670.55	316.00
670.89	315.58
671.23	315.13
671.57	314.74
671.91	314.38
672.25	314.03
672.58	313.69
672.92	313.25
673.26	312.91
673.60	312.55
673.94	312.18
674.28	311.85
674.62	311.48
674.96	311.03
675.30	310.65
675.64	310.20
675.97	309.74
676.31	309.26
676.65	308.84
676.99	308.51
677.33	308.07
677.67	307.67
678.01	307.18
678.34	306.76
678.68	306.36
679.02	305.90
679.36	305.45
679.70	304.99
680.04	304.60
680.37	304.17
680.71	303.78
681.05	303.41
681.39	302.98
681.73	302.51
682.06	302.09
682.40	301.70
682.74	301.35
683.08	301.04
683.42	300.66
683.75	300.32
684.09	299.85
684.43	299.47
684.77	299.06
685.10	298.67
685.44	298.29
685.78	297.88
686.12	297.48
686.45	297.07
686.79	296.63
687.13	296.23
687.46	295.78
687.80	295.37
688.14	294.90
688.48	294.48
688.81	294.06
689.15	293.69
689.49	293.24
689.82	292.80
690.16	292.26
690.50	291.80
690.83	291.35
691.17	290.89
691.51	290.46
691.84	290.07
692.18	289.63
692.52	289.16
692.85	288.70
693.19	288.32
693.52	287.88
693.86	287.44
694.20	287.00
694.53	286.56
694.87	286.08
695.21	285.62
695.54	285.17
695.88	284.71
696.21	284.21
696.55	283.76
696.88	283.31
697.22	282.88
697.56	282.47
697.89	281.98
698.23	281.56
698.56	281.10
698.90	280.67
699.23	280.21
699.57	279.80
699.90	279.37
700.24	278.90
700.58	278.49
700.91	278.12
701.25	277.87
701.58	277.54
701.92	277.20
702.25	276.82
702.59	276.40
702.92	276.01
703.26	275.59
703.59	275.18
703.93	274.91
704.26	274.52
704.60	274.10
704.93	273.71
705.26	273.29
705.60	272.94
705.93	272.49
706.27	272.17
706.60	271.83
706.94	271.50
707.27	271.08
707.61	270.68
707.94	270.25
708.27	269.69
708.61	269.23
708.94	268.79
709.28	268.40
709.61	268.03
709.94	267.68
710.28	267.33
710.61	267.00
710.95	266.48
711.28	266.23
711.61	265.87
711.95	265.55
712.28	265.19
712.61	264.81
712.95	264.56
713.28	264.26
713.61	263.88
713.95	263.48
714.28	263.15
714.61	262.78
714.95	262.45
715.28	262.11
715.61	261.80
715.95	261.50
716.28	261.16
716.61	260.88
716.95	260.54
717.28	260.22
717.61	259.90
717.94	259.61
718.28	259.18
718.61	258.88
718.94	258.55
719.27	258.26
719.61	257.99
719.94	257.65
720.27	257.27
720.60	256.99
720.94	256.71
721.27	256.43
721.60	256.18
721.93	255.90
722.27	255.67
722.60	255.40
722.93	255.09
723.26	254.84
723.59	254.53
723.93	254.29
724.26	254.05
724.59	253.79
724.92	253.54
725.25	253.35
725.59	253.10
725.92	252.87
726.25	252.62
726.58	252.38
726.91	252.12
727.24	251.90
727.57	251.65
727.91	251.38
728.24	251.17
728.57	250.93
728.90	250.71
729.23	250.43
729.56	250.29
729.89	250.08
730.22	249.84
730.55	249.62
730.89	249.40
731.22	249.17
731.55	248.96
731.88	248.75
732.21	248.51
732.54	248.29
732.87	248.09
733.20	247.91
733.53	247.71
733.86	247.54
734.19	247.33
734.52	247.17
734.85	247.12
735.18	246.91
735.51	246.77
735.84	246.60
736.17	246.48
736.50	246.20
736.83	246.23
737.16	246.05
737.49	245.89
737.82	245.70
738.15	245.54
738.48	245.36
738.81	245.18
739.14	244.98
739.47	244.80
739.80	244.62
740.13	244.46
740.46	244.25
740.79	244.05
741.12	243.87
741.45	243.67
741.78	243.40
742.11	243.28
742.44	243.06
742.77	242.91
743.10	242.72
743.43	242.55
743.75	242.20
744.08	242.31
744.41	242.13
744.74	241.97
745.07	241.78
745.40	241.66
745.73	241.58
746.06	241.44
746.39	241.32
746.71	241.16
747.04	240.99
747.37	240.85
747.70	240.74
748.03	240.61
748.36	240.50
748.68	240.36
749.01	240.18
749.34	240.06
749.67	239.92
750.00	239.81
750.33	239.82
750.65	239.70
750.98	239.31
751.31	239.20
751.64	239.09
751.97	239.08
752.29	238.93
752.62	238.72
752.95	238.59
753.28	238.45
753.60	238.32
753.93	238.24
754.26	238.14
754.59	237.96
754.91	237.83
755.24	237.69
755.57	237.58
755.90	237.45
756.22	237.32
756.55	237.18
756.88	237.03
757.20	236.79
757.53	236.63
757.86	236.52
758.19	236.42
758.51	236.30
758.84	236.11
759.17	235.99
759.49	235.91
759.82	235.89
760.15	235.81
760.47	235.71
760.80	235.55
761.13	235.47
761.45	235.39
761.78	235.30
762.11	235.21
762.43	235.09
762.76	234.99
763.08	234.92
763.41	234.85
763.74	234.77
764.06	234.68
764.39	234.61
764.71	234.52
765.04	234.41
765.37	234.32
765.69	234.24
766.02	234.15
766.34	234.05
766.67	233.90
767.00	233.86
767.32	233.88
767.65	233.93
767.97	233.84
768.30	233.78
768.62	233.70
768.95	233.62
769.27	233.54
769.60	233.50
769.92	233.40
770.25	233.30
770.57	233.21
770.90	233.14
771.22	233.06
771.55	233.01
771.87	232.96
772.20	232.89
772.52	232.98
772.85	233.15
773.17	233.09
773.50	233.01
773.82	232.92
774.15	232.78
774.47	232.61
774.80	232.53
775.12	232.47
775.45	232.42
775.77	232.37
776.09	232.33
776.42	232.28
776.74	232.29
777.07	232.24
777.39	232.20
777.72	232.14
778.04	232.12
778.36	232.05
778.69	232.01
779.01	231.98
779.33	231.78
779.66	231.53
779.98	231.47
780.31	231.44
780.63	231.48
780.95	231.46
781.28	231.42
781.60	231.37
781.92	231.32
782.25	231.28
782.57	231.24
782.89	231.20
783.22	231.15
783.54	231.07
783.86	231.05
784.19	231.00
784.51	231.02
784.83	230.97
785.16	230.93
785.48	230.89
785.80	230.86
786.12	230.84
786.45	230.80
786.77	230.79
787.09	230.74
787.42	230.64
787.74	230.60
788.06	230.58
788.38	230.55
788.71	230.51
789.03	230.49
789.35	230.48
789.67	230.43
789.99	230.41
790.32	230.36
790.64	230.36
790.96	230.50
791.28	230.40
791.61	230.36
791.93	230.35
792.25	230.31
792.57	230.40
792.89	230.35
793.21	230.33
793.54	230.29
793.86	230.24
794.18	230.23
794.50	230.17
794.82	230.14
795.14	230.14
795.47	230.15
795.79	230.12
796.11	230.06
796.43	230.03
796.75	230.00
797.07	229.98
797.39	229.94
797.71	229.76
798.04	229.75
798.36	229.74
798.68	229.71
799.00	229.70
799.32	229.59
799.64	229.59
799.96	229.56
800.28	229.58
800.60	229.55
800.92	229.54
801.24	229.52
801.56	229.51
801.89	229.48
802.21	229.46
802.53	229.41
802.85	229.43
803.17	229.49
803.49	229.44
803.81	229.41
804.13	229.37
804.45	229.33
804.77	229.33
805.09	229.31
805.41	229.27
805.73	229.22
806.05	229.16
806.37	229.13
806.69	229.10
807.01	229.06
807.33	229.06
807.65	228.97
807.97	229.04
808.28	229.00
808.60	228.97
808.92	228.93
809.24	229.03
809.56	228.97
809.88	228.89
810.20	228.89
810.52	228.91
810.84	228.88
811.16	228.84
811.48	228.81
811.80	228.86
812.12	228.84
812.43	228.86
812.75	228.86
813.07	228.83
813.39	228.82
813.71	228.77
814.03	228.75
814.35	228.75
814.67	228.65
814.98	228.63
815.30	228.62
815.62	228.58
815.94	228.44
816.26	228.44
816.58	228.41
816.89	228.40
817.21	228.35
817.53	228.35
817.85	228.35
818.17	228.33
818.48	228.25
818.80	228.27
819.12	228.22
819.44	228.18
819.76	228.15
820.07	228.13
820.39	228.12
820.71	228.13
821.03	228.11
821.34	228.09
821.66	228.11
821.98	228.11
822.30	228.09
822.61	228.20
822.93	228.16
823.25	228.15
823.57	228.12
823.88	228.13
824.20	228.13
824.52	228.14
824.83	228.13
825.15	228.11
825.47	228.08
825.79	228.09
826.10	228.08
826.42	228.07
826.74	228.07
827.05	228.07
827.37	228.06
827.69	228.05
828.00	228.05
828.32	228.04
828.64	228.00
828.95	228.09
829.27	228.03
829.58	228.02
829.90	228.04
830.22	228.05
830.53	228.01
830.85	227.98
831.17	227.92
831.48	227.91
831.80	227.91
832.11	227.89
832.43	227.85
832.75	227.85
833.06	227.96
833.38	227.91
833.69	227.89
834.01	227.89
834.32	227.88
834.64	227.86
834.96	227.85
835.27	227.84
835.59	227.77
835.90	227.74
836.22	227.73
836.53	227.69
836.85	227.66
837.16	227.84
837.48	227.84
837.79	227.90
838.11	227.89
838.42	227.89
838.74	227.90
839.05	227.89
839.37	227.87
839.68	227.75
840.00	227.74
840.31	227.76
840.63	227.74
840.94	227.72
841.26	227.70
841.57	227.68
841.88	227.70
842.20	227.67
842.51	227.64
842.83	227.63
843.14	227.80
843.46	227.79
843.77	227.67
844.08	227.66
844.40	227.60
844.71	227.59
845.03	227.57
845.34	227.55
845.65	227.54
845.97	227.54
846.28	227.55
846.60	227.57
846.91	227.53
847.22	227.52
847.54	227.56
847.85	227.57
848.16	227.56
848.48	227.52
848.79	227.59
849.10	227.61
849.42	227.61
849.73	227.44
850.04	227.44
850.36	227.37
850.67	227.40
850.98	227.40
851.30	227.41
851.61	227.41
851.92	227.40
852.23	227.45
852.55	227.46
852.86	227.46
853.17	227.47
853.49	227.51
853.80	227.54
854.11	227.55
854.42	227.57
854.74	227.55
855.05	227.56
855.36	227.46
855.67	227.46
855.99	227.46
856.30	227.67
856.61	227.66
856.92	227.67
857.23	227.67
857.55	227.65
857.86	227.63
858.17	227.66
858.48	227.63
858.79	227.58
859.11	227.60
859.42	227.58
859.73	227.55
860.04	227.54
860.35	227.48
860.66	227.42
860.98	227.40
861.29	227.42
861.60	227.41
861.91	227.44
862.22	227.41
862.53	227.39
862.84	227.17
863.16	227.21
863.47	227.17
863.78	227.14
864.09	227.16
864.40	227.16
864.71	227.16
865.02	227.18
865.33	227.15
865.64	227.12
865.95	227.12
866.27	227.23
866.58	227.21
866.89	227.23
867.20	227.23
867.51	227.20
867.82	227.19
868.13	227.24
868.44	227.20
868.75	227.24
869.06	227.25
869.37	227.27
869.68	227.22
869.99	227.26
870.30	227.27
870.61	227.28
870.92	227.25
871.23	227.24
871.54	227.26
871.85	227.31
872.16	227.33
872.47	227.32
872.78	227.21
873.09	227.23
873.40	227.21
873.71	227.23
874.02	227.23
874.33	227.22
874.64	227.17
874.95	227.20
875.26	227.16
875.56	227.17
875.87	227.15
876.18	227.14
876.49	227.31
876.80	227.30
877.11	227.26
877.42	227.27
877.73	227.27
878.04	227.24
878.35	227.24
878.66	227.24
878.96	227.23
879.27	227.23
879.58	227.21
879.89	227.21
880.20	227.26
880.51	227.25
880.82	227.25
881.12	227.26
881.43	227.22
881.74	227.20
882.05	227.19
882.36	227.20
882.67	227.21
882.97	227.02
883.28	227.01
883.59	227.00
883.90	227.02
884.21	227.04
884.51	227.03
884.82	227.00
885.13	226.99
885.44	226.99
885.74	226.99
886.05	226.98
886.36	226.98
886.67	226.91
886.98	227.01
887.28	227.02
887.59	227.02
887.90	227.03
888.20	227.02
888.51	227.06
888.82	227.03
889.13	227.04
889.43	227.20
889.74	227.19
890.05	227.19
890.35	227.17
890.66	227.14
890.97	227.12
891.28	227.11
891.58	227.11
891.89	227.11
892.20	227.09
892.50	227.07
892.81	227.06
893.12	227.07
893.42	226.97
893.73	226.97
894.04	226.97
894.34	226.98
894.65	226.98
894.95	226.96
895.26	226.96
895.57	227.04
895.87	226.86
896.18	226.89
896.48	226.90
896.79	226.90
897.10	226.92
897.40	226.94
897.71	226.96
898.01	226.94
898.32	226.96
898.63	226.96
898.93	226.97
899.24	226.98
899.54	226.97
899.85	226.96
900.15	226.95
900.46	226.94
900.76	226.96
901.07	226.96
901.38	226.94
901.68	226.96
901.99	226.87
902.29	226.88
902.60	226.87
902.90	226.85
903.21	226.84
903.51	226.82
903.82	226.85
904.12	226.85
904.43	226.86
904.73	226.85
905.03	226.86
905.34	227.03
905.64	227.02
905.95	227.03
906.25	227.03
906.56	227.02
906.86	227.02
907.17	227.00
907.47	227.02
907.77	227.00
908.08	226.97
908.38	226.98
908.69	226.99
908.99	227.02
909.30	227.03
909.60	227.03
909.90	227.03
910.21	226.98
910.51	226.95
910.81	226.95
911.12	226.96
911.42	226.96
911.73	226.76
912.03	226.78
912.33	226.81
912.64	226.80
912.94	226.77
913.24	226.74
913.55	226.73
913.85	226.71
914.15	226.75
914.46	226.77
914.76	226.76
915.06	226.74
915.37	226.71
915.67	226.69
915.97	226.69
916.27	226.67
916.58	226.68
916.88	226.67
917.18	226.66
917.49	226.78
917.79	226.77
918.09	226.81
918.39	226.85
918.70	226.83
919.00	226.85
919.30	226.93
919.60	226.93
919.91	226.91
920.21	226.92
920.51	226.88
920.81	226.87
921.12	226.90
921.42	226.89
921.72	226.90
922.02	226.92
922.32	226.94
922.63	226.95
922.93	227.05
923.23	227.06
923.53	227.04
923.83	226.92
924.13	226.93
924.44	226.92
924.74	226.95
925.04	226.98
925.34	226.98
925.64	226.90
925.94	226.91
926.24	227.01
926.55	226.99
926.85	227.02
927.15	227.02
927.45	227.01
927.75	227.01
928.05	227.01
928.35	227.00
928.65	227.02
928.95	227.03
929.26	226.95
929.56	226.98
929.86	227.00
930.16	226.99
930.46	226.98
930.76	226.98
931.06	226.90
931.36	226.85
931.66	226.88
931.96	226.90
932.26	226.91
932.56	226.83
932.86	226.85
933.16	226.84
933.46	226.83
933.76	226.80
934.06	226.83
934.36	226.89
934.66	226.89
934.96	226.86
935.26	226.87
935.56	226.89
935.86	226.85
936.16	226.83
936.46	226.82
936.76	226.81
937.06	226.78
937.36	226.79
937.66	226.80
937.96	226.79
938.26	226.75
938.56	226.74
938.86	226.75
939.16	226.78
939.46	226.80
939.76	226.81
940.06	226.82
940.35	226.78
940.65	226.69
940.95	226.71
941.25	226.66
941.55	226.64
941.85	226.62
942.15	226.67
942.45	226.71
942.75	226.71
943.04	226.72
943.34	226.76
943.64	226.74
943.94	226.71
944.24	226.71
944.54	226.73
944.84	226.73
945.13	226.71
945.43	226.67
945.73	226.66
946.03	226.64
946.33	226.62
946.62	226.61
946.92	226.61
947.22	226.62
947.52	226.64
947.82	226.66
948.11	226.64
948.41	226.60
948.71	226.54
949.01	226.55
949.31	226.54
949.60	226.52
949.90	226.55
950.20	226.55
950.50	226.55
950.79	226.53
951.09	226.55
951.39	226.55
951.69	226.53
951.98	226.57
952.28	226.59
952.58	226.58
952.87	226.58
953.17	226.61
953.47	226.59
953.76	226.58
954.06	226.55
954.36	226.53
954.66	226.53
954.95	226.59
955.25	226.60
955.55	226.61
955.84	226.58
956.14	226.59
956.44	226.60
956.73	226.58
957.03	226.59
957.32	226.59
957.62	226.59
957.92	226.62
958.21	226.60
958.51	226.80
958.81	226.83
959.10	226.85
959.40	226.89
959.69	226.90
959.99	226.92
960.29	226.92
960.58	226.92
960.88	226.99
961.17	226.96
961.47	226.97
961.76	226.96
962.06	227.00
962.36	226.98
962.65	226.99
962.95	227.00
963.24	226.98
963.54	226.99
963.83	227.00
964.13	226.99
964.42	226.97
964.72	226.82
965.01	226.82
965.31	226.80
965.60	226.76
965.90	226.87
966.19	226.83
966.49	226.84
966.78	226.83
967.08	226.81
967.37	226.81
967.67	226.77
967.96	226.81
968.26	226.79
968.55	226.82
968.85	226.82
969.14	226.81
969.43	226.82
969.73	226.80
970.02	226.79
970.32	226.78
970.61	226.76
970.91	226.70
971.20	226.68
971.49	226.67
971.79	226.69
972.08	226.55
972.38	226.58
972.67	226.57
972.96	226.60
973.26	226.56
973.55	226.62
973.85	226.61
974.14	226.59
974.43	226.61
974.73	226.57
975.02	226.56
975.31	226.55
975.61	226.55
975.90	226.54
976.19	226.52
976.49	226.54
976.78	226.55
977.07	226.55
977.37	226.57
977.66	226.59
977.95	226.57
978.24	226.58
978.54	226.62
978.83	226.61
979.12	226.59
979.42	226.60
979.71	226.56
980.00	226.56
980.29	226.56
980.59	226.53
980.88	226.57
981.17	226.57
981.46	226.57
981.76	226.58
982.05	226.64
982.34	226.65
982.63	226.65
982.93	226.65
983.22	226.69
983.51	226.70
983.80	226.72
984.09	226.75
984.39	226.73
984.68	226.70
984.97	226.71
985.26	226.69
985.55	226.71
985.85	226.67
986.14	226.71
986.43	226.72
986.72	226.72
987.01	226.66
987.30	226.67
987.59	226.66
987.89	226.66
988.18	226.61
988.47	226.59
988.76	226.57
989.05	226.56
989.34	226.52
989.63	226.56
989.92	226.53
990.22	226.50
990.51	226.50
990.80	226.49
991.09	226.51
991.38	226.53
991.67	226.51
991.96	226.50
992.25	226.50
992.54	226.46
992.83	226.46
993.12	226.46
993.41	226.48
993.70	226.56
993.99	226.58
994.28	226.61
994.58	226.64
994.87	226.62
995.16	226.62
995.45	226.61
995.74	226.55
996.03	226.58
996.32	226.60
996.61	226.64
996.90	226.64
997.19	226.63
997.48	226.62
997.77	226.61
998.06	226.63
998.34	226.61
998.63	226.62
998.92	226.63
999.21	226.66
999.50	226.65
999.79	226.59
1000.08	226.58
1000.37	226.58
1000.66	226.55
1000.95	226.60
1001.24	226.61
1001.53	226.63
1001.82	226.62
1002.11	226.58
1002.40	226.59
1002.68	226.63
1002.97	226.76
1003.26	226.73
1003.55	226.70
1003.84	226.72
1004.13	226.77
1004.42	226.76
1004.71	226.76
1004.99	226.75
1005.28	226.79
1005.57	226.77
1005.86	226.76
1006.15	226.74
1006.44	226.72
1006.72	226.74
1007.01	226.71
1007.30	226.71
1007.59	226.70
1007.88	226.69
1008.17	226.70
1008.45	226.66
1008.74	226.59
1009.03	226.50
1009.32	226.51
1009.60	226.51
1009.89	226.50
1010.18	226.42
1010.47	226.41
1010.76	226.41
1011.04	226.41
1011.33	226.40
1011.62	226.41
1011.91	226.43
1012.19	226.43
1012.48	226.44
1012.77	226.43
1013.05	226.49
1013.34	226.49
1013.63	226.48
1013.92	226.50
1014.20	226.48
1014.49	226.50
1014.78	226.53
1015.06	226.47
1015.35	226.47
1015.64	226.50
1015.92	226.53
1016.21	226.54
1016.50	226.54
1016.78	226.57
1017.07	226.58
1017.36	226.55
1017.64	226.52
1017.93	226.53
1018.22	226.52
1018.50	226.52
1018.79	226.52
1019.08	226.46
1019.36	226.47
1019.65	226.46
1019.93	226.50
1020.22	226.53
1020.51	226.62
1020.79	226.60
1021.08	226.30
1021.36	226.25
1021.65	226.57
1021.94	226.44
1022.22	226.61
1022.51	226.18
1022.79	227.40
1023.08	226.82
1023.36	228.68
1023.65	226.09
>>>>>End Processed Spectral Data<<<<<
