SpectraSuite Data File
++++++++++++++++++++++++++++++++++++
Date: Wed Oct 07 04:00:11 EDT 2015
User: lab3
Dark Spectrum Present: No
Reference Spectrum Present: No
Number of Sampled Component Spectra: 1
Spectrometers: USB2E7196
Integration Time (usec): 66000 (USB2E7196)
Spectra Averaged: 10000 (USB2E7196)
Boxcar Smoothing: 10 (USB2E7196)
Correct for Electrical Dark: No (USB2E7196)
Strobe/Lamp Enabled: No (USB2E7196)
Correct for Detector Non-linearity: No (USB2E7196)
Correct for Stray Light: No (USB2E7196)
Number of Pixels in Processed Spectrum: 2048
>>>>>Begin Processed Spectral Data<<<<<
339.09	0.00
339.48	213.84
339.86	215.35
340.24	216.66
340.63	218.10
341.01	222.20
341.39	220.79
341.78	222.36
342.16	223.72
342.54	223.87
342.93	212.43
343.31	223.16
343.69	223.70
344.07	224.16
344.46	224.61
344.84	225.01
345.22	225.21
345.60	225.50
345.99	225.71
346.37	225.85
346.75	225.97
347.13	226.07
347.52	226.17
347.90	226.29
348.28	226.35
348.66	226.43
349.05	226.43
349.43	226.51
349.81	226.58
350.19	226.65
350.57	226.74
350.96	226.84
351.34	226.96
351.72	227.07
352.10	227.20
352.48	227.27
352.87	227.33
353.25	227.40
353.63	227.45
354.01	227.51
354.39	227.59
354.77	227.67
355.15	227.79
355.54	227.83
355.92	227.84
356.30	227.91
356.68	228.10
357.06	228.18
357.44	228.22
357.82	228.27
358.20	228.49
358.58	228.54
358.97	228.61
359.35	228.70
359.73	228.79
360.11	228.84
360.49	228.91
360.87	228.96
361.25	229.03
361.63	229.13
362.01	229.19
362.39	229.22
362.77	229.27
363.15	229.29
363.53	229.33
363.91	229.37
364.29	229.39
364.67	229.24
365.05	229.26
365.43	229.31
365.81	229.35
366.19	229.30
366.57	229.38
366.95	229.38
367.33	229.34
367.71	229.33
368.09	229.37
368.47	229.36
368.85	229.35
369.23	229.37
369.61	229.29
369.99	229.33
370.37	229.33
370.75	229.45
371.13	229.42
371.51	229.37
371.89	229.36
372.27	229.34
372.65	229.33
373.03	229.29
373.41	229.24
373.78	229.19
374.16	229.06
374.54	228.96
374.92	228.90
375.30	228.87
375.68	228.79
376.06	228.75
376.44	228.68
376.82	228.65
377.19	228.60
377.57	228.56
377.95	228.45
378.33	228.38
378.71	228.17
379.09	228.13
379.47	228.11
379.84	228.04
380.22	227.98
380.60	227.90
380.98	227.86
381.36	227.81
381.73	227.74
382.11	227.74
382.49	227.70
382.87	227.64
383.25	227.60
383.62	227.78
384.00	227.70
384.38	227.68
384.76	227.67
385.13	227.69
385.51	227.66
385.89	227.61
386.27	227.58
386.64	227.58
387.02	227.53
387.40	227.48
387.78	227.47
388.15	227.45
388.53	227.42
388.91	227.40
389.29	227.37
389.66	227.38
390.04	227.33
390.42	227.34
390.79	227.35
391.17	227.33
391.55	227.12
391.92	227.11
392.30	227.13
392.68	227.09
393.05	227.07
393.43	227.08
393.81	227.10
394.18	227.09
394.56	227.10
394.94	227.16
395.31	227.17
395.69	227.25
396.06	227.29
396.44	227.34
396.82	227.36
397.19	227.50
397.57	227.52
397.95	227.60
398.32	227.59
398.70	227.67
399.07	227.77
399.45	227.84
399.82	227.91
400.20	227.96
400.58	228.05
400.95	228.08
401.33	228.21
401.70	228.44
402.08	228.59
402.45	228.72
402.83	228.89
403.20	229.06
403.58	229.20
403.95	229.41
404.33	229.64
404.71	229.86
405.08	230.18
405.46	230.43
405.83	230.72
406.21	231.02
406.58	231.35
406.96	231.68
407.33	232.07
407.70	232.50
408.08	233.09
408.45	233.61
408.83	234.17
409.20	234.69
409.58	235.16
409.95	235.80
410.33	236.50
410.70	237.16
411.08	237.94
411.45	238.76
411.82	239.60
412.20	240.56
412.57	241.69
412.95	242.60
413.32	243.78
413.69	244.99
414.07	246.28
414.44	247.68
414.82	249.10
415.19	250.77
415.56	252.48
415.94	254.26
416.31	256.24
416.68	258.24
417.06	260.55
417.43	262.72
417.81	265.20
418.18	267.74
418.55	270.51
418.93	273.39
419.30	276.41
419.67	279.60
420.04	282.88
420.42	286.32
420.79	290.28
421.16	294.27
421.54	298.31
421.91	302.55
422.28	306.95
422.66	311.69
423.03	316.19
423.40	320.91
423.77	325.96
424.15	331.13
424.52	336.50
424.89	342.30
425.26	348.07
425.64	353.41
426.01	359.41
426.38	365.54
426.75	371.85
427.13	378.31
427.50	385.08
427.87	392.10
428.24	399.17
428.61	405.94
428.99	413.25
429.36	421.29
429.73	428.96
430.10	436.61
430.47	444.46
430.85	452.56
431.22	461.17
431.59	470.02
431.96	478.68
432.33	488.29
432.70	497.44
433.08	508.27
433.45	518.48
433.82	528.59
434.19	539.92
434.56	551.08
434.93	561.90
435.30	572.63
435.68	584.81
436.05	596.72
436.42	608.66
436.79	619.57
437.16	631.45
437.53	644.11
437.90	656.77
438.27	669.22
438.64	682.69
439.01	694.93
439.38	706.15
439.75	717.00
440.13	729.36
440.50	741.12
440.87	750.55
441.24	760.91
441.61	772.27
441.98	780.69
442.35	790.67
442.72	800.83
443.09	810.50
443.46	816.83
443.83	821.64
444.20	825.67
444.57	831.40
444.94	834.84
445.31	838.42
445.68	841.51
446.05	843.86
446.42	843.64
446.79	843.13
447.16	842.73
447.53	842.42
447.90	838.85
448.27	835.48
448.64	830.09
449.01	826.41
449.37	818.62
449.74	811.55
450.11	802.39
450.48	792.32
450.85	782.21
451.22	773.54
451.59	764.97
451.96	757.20
452.33	746.02
452.70	736.03
453.07	723.91
453.43	711.82
453.80	700.00
454.17	688.68
454.54	678.26
454.91	666.49
455.28	655.34
455.65	644.83
456.02	633.67
456.38	624.70
456.75	613.23
457.12	603.97
457.49	594.65
457.86	585.83
458.23	578.04
458.59	569.48
458.96	560.70
459.33	552.99
459.70	545.14
460.07	539.14
460.43	532.08
460.80	525.50
461.17	519.77
461.54	513.58
461.91	507.77
462.27	501.87
462.64	497.04
463.01	491.54
463.38	485.99
463.74	481.00
464.11	476.54
464.48	472.51
464.85	468.18
465.21	464.85
465.58	461.16
465.95	456.99
466.32	453.68
466.68	450.44
467.05	447.18
467.42	444.00
467.78	440.60
468.15	437.46
468.52	435.14
468.88	432.08
469.25	429.28
469.62	427.07
469.98	424.68
470.35	422.54
470.72	420.60
471.08	418.65
471.45	417.01
471.82	415.17
472.18	413.25
472.55	412.01
472.92	410.46
473.28	409.25
473.65	407.95
474.02	406.70
474.38	405.63
474.75	404.98
475.11	404.12
475.48	403.70
475.85	403.23
476.21	402.95
476.58	402.75
476.94	402.90
477.31	402.91
477.67	402.95
478.04	403.24
478.41	403.64
478.77	404.22
479.14	404.57
479.50	405.34
479.87	406.33
480.23	407.28
480.60	408.19
480.96	409.10
481.33	410.52
481.69	411.91
482.06	413.28
482.42	414.53
482.79	416.10
483.15	417.96
483.52	420.06
483.88	422.05
484.25	424.17
484.61	426.40
484.98	428.79
485.34	431.50
485.71	434.32
486.07	437.35
486.44	440.32
486.80	443.68
487.17	447.13
487.53	450.87
487.90	454.79
488.26	459.05
488.62	463.57
488.99	468.07
489.35	472.80
489.72	477.88
490.08	483.23
490.44	488.70
490.81	494.39
491.17	500.26
491.54	506.56
491.90	512.99
492.26	519.88
492.63	527.11
492.99	534.66
493.36	542.37
493.72	550.47
494.08	558.80
494.45	567.53
494.81	576.65
495.17	586.03
495.54	595.93
495.90	606.28
496.26	616.81
496.63	627.66
496.99	638.90
497.35	650.67
497.72	662.74
498.08	675.14
498.44	687.87
498.80	701.32
499.17	715.05
499.53	729.26
499.89	743.90
500.26	758.78
500.62	774.01
500.98	790.15
501.34	806.31
501.71	823.28
502.07	840.55
502.43	858.32
502.79	876.34
503.16	894.84
503.52	913.55
503.88	932.71
504.24	952.33
504.60	972.21
504.97	992.76
505.33	1013.82
505.69	1035.94
506.05	1058.34
506.41	1080.66
506.78	1103.16
507.14	1126.21
507.50	1149.77
507.86	1173.71
508.22	1197.90
508.59	1222.00
508.95	1247.17
509.31	1272.84
509.67	1299.19
510.03	1325.50
510.39	1351.70
510.75	1378.00
511.12	1404.65
511.48	1431.59
511.84	1458.48
512.20	1485.81
512.56	1514.20
512.92	1542.39
513.28	1569.92
513.64	1597.89
514.00	1626.29
514.37	1654.94
514.73	1683.66
515.09	1711.68
515.45	1740.01
515.81	1768.63
516.17	1796.95
516.53	1824.61
516.89	1851.99
517.25	1879.76
517.61	1907.26
517.97	1935.43
518.33	1963.08
518.69	1990.65
519.05	2018.61
519.41	2046.73
519.77	2074.92
520.13	2101.55
520.49	2128.21
520.85	2155.29
521.21	2181.71
521.57	2208.45
521.93	2234.14
522.29	2260.48
522.65	2286.71
523.01	2312.63
523.37	2337.69
523.73	2363.60
524.09	2389.20
524.45	2414.59
524.81	2439.21
525.17	2463.80
525.53	2487.48
525.89	2511.58
526.25	2535.40
526.61	2557.41
526.97	2579.49
527.33	2601.30
527.68	2622.99
528.04	2644.33
528.40	2664.46
528.76	2684.70
529.12	2704.44
529.48	2724.89
529.84	2742.47
530.20	2760.38
530.56	2777.57
530.91	2794.96
531.27	2811.66
531.63	2827.35
531.99	2842.70
532.35	2857.89
532.71	2872.59
533.07	2887.76
533.42	2900.90
533.78	2914.20
534.14	2928.64
534.50	2941.94
534.86	2955.72
535.21	2967.19
535.57	2978.54
535.93	2989.59
536.29	2998.72
536.65	3007.81
537.00	3015.51
537.36	3024.57
537.72	3032.74
538.08	3040.36
538.44	3046.68
538.79	3052.81
539.15	3057.63
539.51	3061.65
539.87	3064.33
540.22	3065.42
540.58	3066.73
540.94	3068.86
541.29	3069.79
541.65	3069.40
542.01	3068.51
542.37	3065.95
542.72	3065.07
543.08	3062.36
543.44	3059.83
543.79	3057.28
544.15	3053.78
544.51	3050.13
544.87	3045.62
545.22	3040.05
545.58	3034.21
545.94	3028.63
546.29	3021.43
546.65	3014.50
547.01	3007.78
547.36	3001.63
547.72	2995.56
548.07	2987.68
548.43	2978.60
548.79	2969.25
549.14	2960.09
549.50	2951.14
549.86	2941.19
550.21	2929.54
550.57	2919.24
550.92	2907.14
551.28	2895.19
551.64	2883.60
551.99	2871.82
552.35	2859.47
552.70	2847.02
553.06	2835.08
553.41	2822.71
553.77	2810.09
554.13	2797.42
554.48	2783.63
554.84	2768.71
555.19	2754.22
555.55	2739.74
555.90	2725.80
556.26	2712.04
556.61	2697.17
556.97	2681.19
557.32	2665.77
557.68	2650.71
558.03	2635.13
558.39	2620.54
558.74	2606.75
559.10	2590.88
559.45	2575.11
559.81	2560.03
560.16	2544.55
560.52	2528.70
560.87	2513.14
561.23	2497.19
561.58	2481.88
561.94	2466.02
562.29	2449.72
562.64	2433.58
563.00	2417.47
563.35	2401.50
563.71	2385.20
564.06	2369.01
564.42	2353.38
564.77	2337.85
565.12	2321.89
565.48	2305.64
565.83	2289.57
566.19	2273.32
566.54	2257.41
566.89	2241.03
567.25	2224.68
567.60	2209.19
567.96	2193.04
568.31	2175.42
568.66	2158.64
569.02	2142.44
569.37	2126.83
569.72	2111.82
570.08	2096.35
570.43	2080.25
570.78	2063.95
571.14	2047.52
571.49	2031.13
571.84	2014.96
572.20	1997.50
572.55	1980.86
572.90	1964.43
573.26	1948.09
573.61	1931.10
573.96	1914.65
574.31	1897.98
574.67	1880.92
575.02	1863.55
575.37	1846.20
575.72	1829.78
576.08	1813.00
576.43	1795.46
576.78	1778.15
577.13	1761.09
577.49	1744.25
577.84	1727.97
578.19	1711.18
578.54	1694.43
578.90	1677.51
579.25	1660.42
579.60	1644.65
579.95	1628.55
580.30	1612.38
580.66	1595.91
581.01	1579.54
581.36	1563.23
581.71	1547.85
582.06	1532.54
582.42	1516.99
582.77	1501.94
583.12	1487.06
583.47	1472.27
583.82	1457.58
584.17	1442.38
584.53	1427.26
584.88	1412.48
585.23	1397.52
585.58	1383.01
585.93	1368.32
586.28	1354.71
586.63	1340.99
586.98	1326.73
587.34	1312.95
587.69	1298.97
588.04	1285.27
588.39	1271.92
588.74	1258.15
589.09	1244.52
589.44	1230.56
589.79	1217.26
590.14	1204.00
590.49	1190.80
590.84	1177.81
591.19	1165.27
591.54	1152.86
591.89	1140.02
592.25	1127.52
592.60	1114.88
592.95	1102.38
593.30	1090.38
593.65	1078.08
594.00	1066.03
594.35	1054.96
594.70	1043.10
595.05	1031.89
595.40	1020.55
595.75	1009.03
596.10	998.20
596.45	987.33
596.80	976.92
597.15	966.45
597.50	955.97
597.85	945.79
598.19	935.64
598.54	925.45
598.89	915.83
599.24	906.60
599.59	897.15
599.94	888.42
600.29	879.71
600.64	870.76
600.99	861.71
601.34	853.03
601.69	843.79
602.04	835.54
602.39	827.17
602.74	819.04
603.08	811.02
603.43	803.02
603.78	794.99
604.13	786.99
604.48	779.04
604.83	771.34
605.18	763.70
605.53	756.23
605.87	748.76
606.22	741.40
606.57	733.96
606.92	726.48
607.27	719.01
607.62	711.72
607.96	704.71
608.31	698.23
608.66	691.63
609.01	685.34
609.36	678.99
609.70	672.63
610.05	666.23
610.40	660.06
610.75	653.81
611.10	647.81
611.44	641.84
611.79	636.00
612.14	630.05
612.49	624.21
612.83	618.67
613.18	613.18
613.53	607.67
613.88	602.33
614.22	597.37
614.57	592.34
614.92	587.43
615.27	582.64
615.61	577.69
615.96	572.81
616.31	567.92
616.65	563.18
617.00	558.57
617.35	554.04
617.70	549.52
618.04	545.14
618.39	540.87
618.74	536.85
619.08	532.80
619.43	528.89
619.78	524.93
620.12	520.92
620.47	517.14
620.82	513.49
621.16	509.84
621.51	506.24
621.85	502.63
622.20	499.10
622.55	495.55
622.89	492.06
623.24	488.75
623.59	485.50
623.93	482.34
624.28	479.32
624.62	476.49
624.97	473.68
625.32	470.79
625.66	467.86
626.01	464.90
626.35	462.12
626.70	459.28
627.04	456.64
627.39	453.98
627.73	451.39
628.08	448.83
628.43	446.30
628.77	443.71
629.12	441.22
629.46	438.85
629.81	436.63
630.15	434.33
630.50	432.07
630.84	429.85
631.19	427.67
631.53	425.59
631.88	423.33
632.22	421.17
632.57	419.31
632.91	417.39
633.26	415.55
633.60	413.72
633.95	411.99
634.29	410.13
634.64	408.33
634.98	406.41
635.32	404.69
635.67	403.13
636.01	401.56
636.36	400.05
636.70	398.60
637.05	397.00
637.39	395.55
637.73	394.10
638.08	392.72
638.42	391.38
638.77	389.90
639.11	388.40
639.45	386.96
639.80	385.46
640.14	384.05
640.49	382.64
640.83	381.23
641.17	379.87
641.52	378.56
641.86	377.29
642.20	376.16
642.55	374.84
642.89	373.54
643.23	372.32
643.58	371.22
643.92	369.97
644.26	368.82
644.61	367.70
644.95	366.55
645.29	365.34
645.64	364.11
645.98	363.00
646.32	362.02
646.66	360.95
647.01	359.92
647.35	359.00
647.69	358.03
648.04	357.14
648.38	356.17
648.72	355.26
649.06	354.34
649.41	353.39
649.75	352.50
650.09	351.64
650.43	350.76
650.78	349.84
651.12	348.98
651.46	348.13
651.80	347.30
652.14	346.53
652.49	345.82
652.83	345.04
653.17	344.23
653.51	343.45
653.85	342.79
654.20	342.07
654.54	341.26
654.88	340.49
655.22	339.78
655.56	339.04
655.90	338.34
656.25	337.65
656.59	336.99
656.93	336.37
657.27	335.79
657.61	335.13
657.95	334.54
658.29	333.93
658.64	333.33
658.98	332.67
659.32	332.02
659.66	331.40
660.00	330.84
660.34	330.28
660.68	329.66
661.02	328.99
661.36	328.37
661.70	327.79
662.05	327.23
662.39	326.67
662.73	326.21
663.07	325.77
663.41	325.30
663.75	324.77
664.09	324.25
664.43	323.61
664.77	323.08
665.11	322.49
665.45	321.96
665.79	321.45
666.13	320.93
666.47	320.40
666.81	319.84
667.15	319.24
667.49	318.77
667.83	318.35
668.17	317.90
668.51	317.49
668.85	317.09
669.19	316.74
669.53	316.21
669.87	315.66
670.21	315.12
670.55	314.60
670.89	314.20
671.23	313.75
671.57	313.35
671.91	313.00
672.25	312.66
672.58	312.33
672.92	311.91
673.26	311.57
673.60	311.23
673.94	310.86
674.28	310.53
674.62	310.17
674.96	309.73
675.30	309.36
675.64	308.93
675.97	308.48
676.31	308.00
676.65	307.60
676.99	307.28
677.33	306.84
677.67	306.45
678.01	305.97
678.34	305.57
678.68	305.19
679.02	304.75
679.36	304.31
679.70	303.86
680.04	303.47
680.37	303.05
680.71	302.66
681.05	302.31
681.39	301.90
681.73	301.44
682.06	301.03
682.40	300.64
682.74	300.29
683.08	299.99
683.42	299.61
683.75	299.26
684.09	298.80
684.43	298.42
684.77	298.01
685.10	297.64
685.44	297.25
685.78	296.84
686.12	296.44
686.45	296.03
686.79	295.60
687.13	295.20
687.46	294.75
687.80	294.34
688.14	293.86
688.48	293.45
688.81	293.03
689.15	292.66
689.49	292.22
689.82	291.78
690.16	291.24
690.50	290.79
690.83	290.34
691.17	289.88
691.51	289.46
691.84	289.06
692.18	288.62
692.52	288.15
692.85	287.70
693.19	287.32
693.52	286.88
693.86	286.43
694.20	286.00
694.53	285.57
694.87	285.09
695.21	284.64
695.54	284.19
695.88	283.72
696.21	283.22
696.55	282.78
696.88	282.32
697.22	281.90
697.56	281.49
697.89	281.01
698.23	280.59
698.56	280.14
698.90	279.72
699.23	279.26
699.57	278.85
699.90	278.42
700.24	277.96
700.58	277.55
700.91	277.19
701.25	276.94
701.58	276.61
701.92	276.26
702.25	275.88
702.59	275.47
702.92	275.08
703.26	274.66
703.59	274.24
703.93	273.97
704.26	273.57
704.60	273.15
704.93	272.75
705.26	272.34
705.60	271.98
705.93	271.53
706.27	271.21
706.60	270.86
706.94	270.54
707.27	270.11
707.61	269.71
707.94	269.27
708.27	268.71
708.61	268.24
708.94	267.81
709.28	267.42
709.61	267.04
709.94	266.69
710.28	266.34
710.61	266.01
710.95	265.50
711.28	265.25
711.61	264.89
711.95	264.57
712.28	264.20
712.61	263.82
712.95	263.56
713.28	263.27
713.61	262.88
713.95	262.48
714.28	262.16
714.61	261.78
714.95	261.45
715.28	261.11
715.61	260.78
715.95	260.48
716.28	260.15
716.61	259.86
716.95	259.52
717.28	259.21
717.61	258.88
717.94	258.58
718.28	258.16
718.61	257.85
718.94	257.51
719.27	257.22
719.61	256.95
719.94	256.62
720.27	256.24
720.60	255.95
720.94	255.67
721.27	255.39
721.60	255.15
721.93	254.86
722.27	254.64
722.60	254.36
722.93	254.06
723.26	253.81
723.59	253.50
723.93	253.26
724.26	253.01
724.59	252.74
724.92	252.51
725.25	252.31
725.59	252.07
725.92	251.84
726.25	251.60
726.58	251.35
726.91	251.09
727.24	250.87
727.57	250.63
727.91	250.36
728.24	250.14
728.57	249.90
728.90	249.69
729.23	249.40
729.56	249.26
729.89	249.05
730.22	248.82
730.55	248.60
730.89	248.38
731.22	248.15
731.55	247.94
731.88	247.73
732.21	247.48
732.54	247.26
732.87	247.06
733.20	246.87
733.53	246.68
733.86	246.51
734.19	246.29
734.52	246.13
734.85	246.09
735.18	245.88
735.51	245.74
735.84	245.57
736.17	245.45
736.50	245.17
736.83	245.20
737.16	245.02
737.49	244.85
737.82	244.66
738.15	244.50
738.48	244.32
738.81	244.13
739.14	243.94
739.47	243.76
739.80	243.58
740.13	243.41
740.46	243.20
740.79	243.00
741.12	242.83
741.45	242.63
741.78	242.35
742.11	242.22
742.44	242.00
742.77	241.85
743.10	241.66
743.43	241.49
743.75	241.14
744.08	241.25
744.41	241.08
744.74	240.92
745.07	240.73
745.40	240.63
745.73	240.55
746.06	240.42
746.39	240.31
746.71	240.15
747.04	239.99
747.37	239.84
747.70	239.73
748.03	239.60
748.36	239.49
748.68	239.35
749.01	239.16
749.34	239.05
749.67	238.91
750.00	238.81
750.33	238.82
750.65	238.71
750.98	238.31
751.31	238.20
751.64	238.10
751.97	238.08
752.29	237.93
752.62	237.72
752.95	237.59
753.28	237.44
753.60	237.32
753.93	237.24
754.26	237.15
754.59	236.98
754.91	236.84
755.24	236.71
755.57	236.60
755.90	236.48
756.22	236.34
756.55	236.20
756.88	236.05
757.20	235.81
757.53	235.66
757.86	235.54
758.19	235.44
758.51	235.33
758.84	235.13
759.17	235.01
759.49	234.93
759.82	234.91
760.15	234.83
760.47	234.73
760.80	234.58
761.13	234.50
761.45	234.41
761.78	234.33
762.11	234.24
762.43	234.12
762.76	234.03
763.08	233.97
763.41	233.90
763.74	233.83
764.06	233.74
764.39	233.67
764.71	233.58
765.04	233.48
765.37	233.38
765.69	233.30
766.02	233.23
766.34	233.13
766.67	232.98
767.00	232.93
767.32	232.96
767.65	233.01
767.97	232.92
768.30	232.85
768.62	232.78
768.95	232.69
769.27	232.63
769.60	232.58
769.92	232.48
770.25	232.38
770.57	232.28
770.90	232.22
771.22	232.14
771.55	232.08
771.87	232.04
772.20	231.97
772.52	232.07
772.85	232.22
773.17	232.17
773.50	232.10
773.82	232.01
774.15	231.87
774.47	231.70
774.80	231.63
775.12	231.57
775.45	231.51
775.77	231.47
776.09	231.43
776.42	231.38
776.74	231.39
777.07	231.34
777.39	231.31
777.72	231.25
778.04	231.22
778.36	231.16
778.69	231.11
779.01	231.08
779.33	230.88
779.66	230.63
779.98	230.58
780.31	230.55
780.63	230.59
780.95	230.58
781.28	230.54
781.60	230.48
781.92	230.44
782.25	230.40
782.57	230.36
782.89	230.32
783.22	230.26
783.54	230.19
783.86	230.17
784.19	230.12
784.51	230.14
784.83	230.08
785.16	230.05
785.48	230.02
785.80	229.98
786.12	229.96
786.45	229.93
786.77	229.91
787.09	229.86
787.42	229.76
787.74	229.73
788.06	229.71
788.38	229.67
788.71	229.63
789.03	229.61
789.35	229.60
789.67	229.55
789.99	229.53
790.32	229.48
790.64	229.47
790.96	229.61
791.28	229.52
791.61	229.49
791.93	229.47
792.25	229.43
792.57	229.53
792.89	229.48
793.21	229.46
793.54	229.41
793.86	229.37
794.18	229.35
794.50	229.29
794.82	229.26
795.14	229.27
795.47	229.28
795.79	229.26
796.11	229.19
796.43	229.16
796.75	229.14
797.07	229.12
797.39	229.09
797.71	228.91
798.04	228.90
798.36	228.89
798.68	228.86
799.00	228.85
799.32	228.74
799.64	228.74
799.96	228.72
800.28	228.74
800.60	228.72
800.92	228.71
801.24	228.69
801.56	228.68
801.89	228.64
802.21	228.63
802.53	228.58
802.85	228.60
803.17	228.66
803.49	228.61
803.81	228.57
804.13	228.54
804.45	228.50
804.77	228.49
805.09	228.47
805.41	228.44
805.73	228.39
806.05	228.32
806.37	228.29
806.69	228.25
807.01	228.21
807.33	228.21
807.65	228.12
807.97	228.18
808.28	228.14
808.60	228.11
808.92	228.07
809.24	228.16
809.56	228.11
809.88	228.02
810.20	228.02
810.52	228.04
810.84	228.01
811.16	227.97
811.48	227.94
811.80	227.99
812.12	227.97
812.43	227.99
812.75	228.00
813.07	227.97
813.39	227.96
813.71	227.92
814.03	227.89
814.35	227.89
814.67	227.80
814.98	227.78
815.30	227.76
815.62	227.72
815.94	227.59
816.26	227.60
816.58	227.56
816.89	227.56
817.21	227.50
817.53	227.50
817.85	227.50
818.17	227.48
818.48	227.40
818.80	227.43
819.12	227.38
819.44	227.33
819.76	227.30
820.07	227.29
820.39	227.28
820.71	227.29
821.03	227.28
821.34	227.25
821.66	227.27
821.98	227.27
822.30	227.25
822.61	227.36
822.93	227.32
823.25	227.32
823.57	227.29
823.88	227.31
824.20	227.29
824.52	227.31
824.83	227.30
825.15	227.27
825.47	227.25
825.79	227.26
826.10	227.25
826.42	227.23
826.74	227.23
827.05	227.22
827.37	227.22
827.69	227.20
828.00	227.20
828.32	227.19
828.64	227.15
828.95	227.24
829.27	227.17
829.58	227.17
829.90	227.19
830.22	227.20
830.53	227.16
830.85	227.13
831.17	227.07
831.48	227.06
831.80	227.06
832.11	227.04
832.43	227.01
832.75	227.00
833.06	227.11
833.38	227.05
833.69	227.04
834.01	227.04
834.32	227.03
834.64	227.00
834.96	227.00
835.27	226.99
835.59	226.93
835.90	226.89
836.22	226.89
836.53	226.84
836.85	226.81
837.16	226.99
837.48	226.99
837.79	227.05
838.11	227.06
838.42	227.05
838.74	227.07
839.05	227.05
839.37	227.04
839.68	226.92
840.00	226.91
840.31	226.93
840.63	226.91
840.94	226.89
841.26	226.87
841.57	226.86
841.88	226.87
842.20	226.84
842.51	226.80
842.83	226.80
843.14	226.96
843.46	226.95
843.77	226.84
844.08	226.82
844.40	226.76
844.71	226.74
845.03	226.71
845.34	226.69
845.65	226.69
845.97	226.69
846.28	226.69
846.60	226.70
846.91	226.67
847.22	226.66
847.54	226.69
847.85	226.70
848.16	226.68
848.48	226.64
848.79	226.72
849.10	226.74
849.42	226.75
849.73	226.57
850.04	226.57
850.36	226.50
850.67	226.54
850.98	226.54
851.30	226.56
851.61	226.55
851.92	226.55
852.23	226.60
852.55	226.60
852.86	226.61
853.17	226.62
853.49	226.66
853.80	226.69
854.11	226.69
854.42	226.71
854.74	226.70
855.05	226.70
855.36	226.61
855.67	226.60
855.99	226.60
856.30	226.81
856.61	226.80
856.92	226.81
857.23	226.81
857.55	226.78
857.86	226.76
858.17	226.79
858.48	226.76
858.79	226.72
859.11	226.73
859.42	226.71
859.73	226.68
860.04	226.67
860.35	226.61
860.66	226.56
860.98	226.54
861.29	226.57
861.60	226.55
861.91	226.59
862.22	226.56
862.53	226.53
862.84	226.32
863.16	226.35
863.47	226.32
863.78	226.29
864.09	226.30
864.40	226.31
864.71	226.31
865.02	226.33
865.33	226.31
865.64	226.27
865.95	226.27
866.27	226.38
866.58	226.36
866.89	226.39
867.20	226.39
867.51	226.36
867.82	226.34
868.13	226.39
868.44	226.35
868.75	226.39
869.06	226.40
869.37	226.42
869.68	226.37
869.99	226.40
870.30	226.41
870.61	226.43
870.92	226.40
871.23	226.38
871.54	226.40
871.85	226.44
872.16	226.46
872.47	226.45
872.78	226.34
873.09	226.36
873.40	226.34
873.71	226.35
874.02	226.36
874.33	226.35
874.64	226.31
874.95	226.34
875.26	226.30
875.56	226.29
875.87	226.28
876.18	226.27
876.49	226.45
876.80	226.43
877.11	226.39
877.42	226.40
877.73	226.41
878.04	226.37
878.35	226.37
878.66	226.37
878.96	226.37
879.27	226.36
879.58	226.35
879.89	226.34
880.20	226.38
880.51	226.37
880.82	226.37
881.12	226.38
881.43	226.34
881.74	226.32
882.05	226.32
882.36	226.32
882.67	226.34
882.97	226.14
883.28	226.13
883.59	226.12
883.90	226.14
884.21	226.16
884.51	226.15
884.82	226.13
885.13	226.12
885.44	226.12
885.74	226.12
886.05	226.11
886.36	226.12
886.67	226.05
886.98	226.15
887.28	226.16
887.59	226.16
887.90	226.17
888.20	226.16
888.51	226.19
888.82	226.16
889.13	226.18
889.43	226.34
889.74	226.33
890.05	226.32
890.35	226.30
890.66	226.27
890.97	226.25
891.28	226.23
891.58	226.23
891.89	226.23
892.20	226.21
892.50	226.19
892.81	226.18
893.12	226.18
893.42	226.08
893.73	226.09
894.04	226.08
894.34	226.09
894.65	226.09
894.95	226.07
895.26	226.08
895.57	226.15
895.87	225.97
896.18	226.01
896.48	226.02
896.79	226.02
897.10	226.04
897.40	226.06
897.71	226.07
898.01	226.06
898.32	226.07
898.63	226.07
898.93	226.09
899.24	226.09
899.54	226.08
899.85	226.08
900.15	226.07
900.46	226.07
900.76	226.08
901.07	226.08
901.38	226.07
901.68	226.09
901.99	226.00
902.29	226.01
902.60	226.00
902.90	225.98
903.21	225.98
903.51	225.96
903.82	225.99
904.12	225.99
904.43	226.01
904.73	226.00
905.03	226.01
905.34	226.18
905.64	226.17
905.95	226.17
906.25	226.18
906.56	226.17
906.86	226.17
907.17	226.15
907.47	226.16
907.77	226.14
908.08	226.10
908.38	226.12
908.69	226.13
908.99	226.16
909.30	226.17
909.60	226.17
909.90	226.17
910.21	226.11
910.51	226.08
910.81	226.08
911.12	226.09
911.42	226.09
911.73	225.90
912.03	225.91
912.33	225.95
912.64	225.93
912.94	225.92
913.24	225.89
913.55	225.88
913.85	225.87
914.15	225.91
914.46	225.93
914.76	225.91
915.06	225.90
915.37	225.87
915.67	225.85
915.97	225.86
916.27	225.83
916.58	225.85
916.88	225.84
917.18	225.83
917.49	225.95
917.79	225.94
918.09	225.97
918.39	226.02
918.70	226.00
919.00	226.01
919.30	226.10
919.60	226.09
919.91	226.07
920.21	226.08
920.51	226.04
920.81	226.03
921.12	226.06
921.42	226.05
921.72	226.06
922.02	226.07
922.32	226.10
922.63	226.11
922.93	226.20
923.23	226.21
923.53	226.19
923.83	226.07
924.13	226.09
924.44	226.08
924.74	226.10
925.04	226.14
925.34	226.14
925.64	226.07
925.94	226.07
926.24	226.17
926.55	226.15
926.85	226.18
927.15	226.18
927.45	226.18
927.75	226.18
928.05	226.18
928.35	226.17
928.65	226.19
928.95	226.20
929.26	226.12
929.56	226.15
929.86	226.17
930.16	226.16
930.46	226.14
930.76	226.15
931.06	226.06
931.36	226.01
931.66	226.04
931.96	226.06
932.26	226.07
932.56	225.99
932.86	226.00
933.16	226.00
933.46	225.98
933.76	225.96
934.06	225.99
934.36	226.04
934.66	226.04
934.96	226.01
935.26	226.02
935.56	226.04
935.86	225.99
936.16	225.97
936.46	225.96
936.76	225.95
937.06	225.92
937.36	225.94
937.66	225.95
937.96	225.93
938.26	225.89
938.56	225.88
938.86	225.89
939.16	225.92
939.46	225.94
939.76	225.95
940.06	225.95
940.35	225.92
940.65	225.83
940.95	225.85
941.25	225.81
941.55	225.78
941.85	225.77
942.15	225.81
942.45	225.86
942.75	225.86
943.04	225.87
943.34	225.90
943.64	225.88
943.94	225.86
944.24	225.86
944.54	225.87
944.84	225.87
945.13	225.85
945.43	225.81
945.73	225.79
946.03	225.78
946.33	225.76
946.62	225.74
946.92	225.74
947.22	225.75
947.52	225.77
947.82	225.79
948.11	225.77
948.41	225.73
948.71	225.68
949.01	225.69
949.31	225.67
949.60	225.66
949.90	225.69
950.20	225.68
950.50	225.67
950.79	225.66
951.09	225.69
951.39	225.69
951.69	225.67
951.98	225.70
952.28	225.71
952.58	225.72
952.87	225.72
953.17	225.74
953.47	225.72
953.76	225.72
954.06	225.68
954.36	225.66
954.66	225.67
954.95	225.72
955.25	225.73
955.55	225.75
955.84	225.72
956.14	225.73
956.44	225.74
956.73	225.72
957.03	225.73
957.32	225.73
957.62	225.72
957.92	225.76
958.21	225.75
958.51	225.96
958.81	225.98
959.10	226.00
959.40	226.03
959.69	226.05
959.99	226.07
960.29	226.08
960.58	226.08
960.88	226.14
961.17	226.11
961.47	226.13
961.76	226.11
962.06	226.14
962.36	226.12
962.65	226.13
962.95	226.14
963.24	226.12
963.54	226.13
963.83	226.14
964.13	226.12
964.42	226.11
964.72	225.95
965.01	225.95
965.31	225.94
965.60	225.89
965.90	226.00
966.19	225.95
966.49	225.97
966.78	225.96
967.08	225.94
967.37	225.95
967.67	225.91
967.96	225.95
968.26	225.94
968.55	225.96
968.85	225.96
969.14	225.95
969.43	225.96
969.73	225.94
970.02	225.93
970.32	225.92
970.61	225.90
970.91	225.85
971.20	225.82
971.49	225.81
971.79	225.83
972.08	225.70
972.38	225.72
972.67	225.71
972.96	225.74
973.26	225.70
973.55	225.76
973.85	225.75
974.14	225.73
974.43	225.74
974.73	225.71
975.02	225.69
975.31	225.69
975.61	225.69
975.90	225.68
976.19	225.66
976.49	225.67
976.78	225.69
977.07	225.69
977.37	225.70
977.66	225.72
977.95	225.69
978.24	225.71
978.54	225.74
978.83	225.73
979.12	225.72
979.42	225.72
979.71	225.69
980.00	225.68
980.29	225.69
980.59	225.65
980.88	225.70
981.17	225.70
981.46	225.70
981.76	225.70
982.05	225.75
982.34	225.77
982.63	225.76
982.93	225.76
983.22	225.81
983.51	225.81
983.80	225.83
984.09	225.86
984.39	225.85
984.68	225.82
984.97	225.83
985.26	225.81
985.55	225.83
985.85	225.79
986.14	225.82
986.43	225.84
986.72	225.84
987.01	225.78
987.30	225.78
987.59	225.77
987.89	225.78
988.18	225.72
988.47	225.71
988.76	225.69
989.05	225.68
989.34	225.65
989.63	225.69
989.92	225.66
990.22	225.64
990.51	225.64
990.80	225.63
991.09	225.64
991.38	225.67
991.67	225.65
991.96	225.64
992.25	225.64
992.54	225.60
992.83	225.60
993.12	225.60
993.41	225.63
993.70	225.71
993.99	225.74
994.28	225.76
994.58	225.79
994.87	225.78
995.16	225.78
995.45	225.77
995.74	225.70
996.03	225.73
996.32	225.76
996.61	225.79
996.90	225.79
997.19	225.78
997.48	225.78
997.77	225.76
998.06	225.77
998.34	225.76
998.63	225.76
998.92	225.77
999.21	225.80
999.50	225.80
999.79	225.74
1000.08	225.73
1000.37	225.73
1000.66	225.70
1000.95	225.75
1001.24	225.77
1001.53	225.79
1001.82	225.79
1002.11	225.75
1002.40	225.76
1002.68	225.80
1002.97	225.93
1003.26	225.91
1003.55	225.88
1003.84	225.90
1004.13	225.96
1004.42	225.95
1004.71	225.94
1004.99	225.93
1005.28	225.96
1005.57	225.95
1005.86	225.93
1006.15	225.92
1006.44	225.89
1006.72	225.92
1007.01	225.89
1007.30	225.89
1007.59	225.87
1007.88	225.87
1008.17	225.88
1008.45	225.84
1008.74	225.77
1009.03	225.68
1009.32	225.68
1009.60	225.68
1009.89	225.67
1010.18	225.59
1010.47	225.59
1010.76	225.58
1011.04	225.58
1011.33	225.57
1011.62	225.59
1011.91	225.60
1012.19	225.61
1012.48	225.61
1012.77	225.61
1013.05	225.67
1013.34	225.67
1013.63	225.66
1013.92	225.67
1014.20	225.65
1014.49	225.67
1014.78	225.68
1015.06	225.63
1015.35	225.63
1015.64	225.66
1015.92	225.69
1016.21	225.70
1016.50	225.71
1016.78	225.73
1017.07	225.75
1017.36	225.72
1017.64	225.69
1017.93	225.70
1018.22	225.68
1018.50	225.68
1018.79	225.67
1019.08	225.61
1019.36	225.62
1019.65	225.61
1019.93	225.65
1020.22	225.68
1020.51	225.77
1020.79	225.75
1021.08	225.39
1021.36	225.36
1021.65	225.65
1021.94	225.62
1022.22	225.78
1022.51	225.29
1022.79	226.51
1023.08	225.95
1023.36	227.77
1023.65	225.23
>>>>>End Processed Spectral Data<<<<<
