SpectraSuite Data File
++++++++++++++++++++++++++++++++++++
Date: Wed Oct 07 05:30:17 EDT 2015
User: lab3
Dark Spectrum Present: No
Reference Spectrum Present: No
Number of Sampled Component Spectra: 1
Spectrometers: USB2E7196
Integration Time (usec): 66000 (USB2E7196)
Spectra Averaged: 10000 (USB2E7196)
Boxcar Smoothing: 10 (USB2E7196)
Correct for Electrical Dark: No (USB2E7196)
Strobe/Lamp Enabled: No (USB2E7196)
Correct for Detector Non-linearity: No (USB2E7196)
Correct for Stray Light: No (USB2E7196)
Number of Pixels in Processed Spectrum: 2048
>>>>>Begin Processed Spectral Data<<<<<
339.09	0.00
339.48	213.15
339.86	214.67
340.24	216.05
340.63	217.48
341.01	221.66
341.39	220.21
341.78	221.76
342.16	223.04
342.54	223.28
342.93	211.83
343.31	222.53
343.69	223.07
344.07	223.54
344.46	223.99
344.84	224.40
345.22	224.59
345.60	224.87
345.99	225.08
346.37	225.22
346.75	225.34
347.13	225.43
347.52	225.53
347.90	225.66
348.28	225.71
348.66	225.80
349.05	225.79
349.43	225.87
349.81	225.95
350.19	226.01
350.57	226.10
350.96	226.20
351.34	226.31
351.72	226.42
352.10	226.55
352.48	226.62
352.87	226.67
353.25	226.73
353.63	226.79
354.01	226.85
354.39	226.92
354.77	227.00
355.15	227.13
355.54	227.17
355.92	227.17
356.30	227.25
356.68	227.43
357.06	227.52
357.44	227.56
357.82	227.61
358.20	227.83
358.58	227.89
358.97	227.95
359.35	228.05
359.73	228.15
360.11	228.20
360.49	228.26
360.87	228.31
361.25	228.39
361.63	228.50
362.01	228.56
362.39	228.59
362.77	228.64
363.15	228.66
363.53	228.69
363.91	228.73
364.29	228.76
364.67	228.60
365.05	228.62
365.43	228.67
365.81	228.71
366.19	228.66
366.57	228.75
366.95	228.75
367.33	228.70
367.71	228.70
368.09	228.73
368.47	228.73
368.85	228.72
369.23	228.74
369.61	228.66
369.99	228.70
370.37	228.71
370.75	228.83
371.13	228.80
371.51	228.75
371.89	228.74
372.27	228.73
372.65	228.71
373.03	228.67
373.41	228.63
373.78	228.58
374.16	228.45
374.54	228.35
374.92	228.30
375.30	228.26
375.68	228.18
376.06	228.14
376.44	228.09
376.82	228.05
377.19	228.01
377.57	227.96
377.95	227.85
378.33	227.79
378.71	227.58
379.09	227.54
379.47	227.52
379.84	227.46
380.22	227.39
380.60	227.32
380.98	227.28
381.36	227.22
381.73	227.16
382.11	227.15
382.49	227.12
382.87	227.05
383.25	227.01
383.62	227.19
384.00	227.12
384.38	227.09
384.76	227.09
385.13	227.10
385.51	227.06
385.89	227.02
386.27	226.99
386.64	226.99
387.02	226.94
387.40	226.89
387.78	226.88
388.15	226.86
388.53	226.83
388.91	226.81
389.29	226.78
389.66	226.79
390.04	226.75
390.42	226.76
390.79	226.76
391.17	226.75
391.55	226.53
391.92	226.53
392.30	226.54
392.68	226.50
393.05	226.48
393.43	226.49
393.81	226.51
394.18	226.50
394.56	226.50
394.94	226.56
395.31	226.57
395.69	226.64
396.06	226.69
396.44	226.74
396.82	226.76
397.19	226.90
397.57	226.92
397.95	227.00
398.32	226.99
398.70	227.06
399.07	227.17
399.45	227.24
399.82	227.31
400.20	227.37
400.58	227.47
400.95	227.49
401.33	227.62
401.70	227.85
402.08	228.01
402.45	228.14
402.83	228.31
403.20	228.49
403.58	228.63
403.95	228.84
404.33	229.07
404.71	229.29
405.08	229.61
405.46	229.87
405.83	230.15
406.21	230.46
406.58	230.80
406.96	231.14
407.33	231.52
407.70	231.96
408.08	232.55
408.45	233.08
408.83	233.64
409.20	234.16
409.58	234.63
409.95	235.28
410.33	235.98
410.70	236.65
411.08	237.43
411.45	238.26
411.82	239.11
412.20	240.07
412.57	241.21
412.95	242.13
413.32	243.31
413.69	244.53
414.07	245.83
414.44	247.24
414.82	248.67
415.19	250.36
415.56	252.07
415.94	253.87
416.31	255.87
416.68	257.88
417.06	260.21
417.43	262.38
417.81	264.88
418.18	267.44
418.55	270.22
418.93	273.12
419.30	276.15
419.67	279.36
420.04	282.66
420.42	286.11
420.79	290.09
421.16	294.11
421.54	298.16
421.91	302.42
422.28	306.84
422.66	311.59
423.03	316.11
423.40	320.85
423.77	325.92
424.15	331.11
424.52	336.49
424.89	342.33
425.26	348.11
425.64	353.48
426.01	359.50
426.38	365.66
426.75	371.99
427.13	378.48
427.50	385.26
427.87	392.31
428.24	399.40
428.61	406.20
428.99	413.52
429.36	421.59
429.73	429.29
430.10	436.96
430.47	444.83
430.85	452.95
431.22	461.59
431.59	470.46
431.96	479.13
432.33	488.77
432.70	497.94
433.08	508.79
433.45	519.03
433.82	529.17
434.19	540.54
434.56	551.72
434.93	562.57
435.30	573.33
435.68	585.54
436.05	597.49
436.42	609.47
436.79	620.42
437.16	632.33
437.53	645.03
437.90	657.75
438.27	670.23
438.64	683.75
439.01	696.03
439.38	707.31
439.75	718.22
440.13	730.66
440.50	742.48
440.87	751.96
441.24	762.39
441.61	773.80
441.98	782.27
442.35	792.33
442.72	802.56
443.09	812.32
443.46	818.71
443.83	823.59
444.20	827.67
444.57	833.50
444.94	837.02
445.31	840.67
445.68	843.84
446.05	846.29
446.42	846.14
446.79	845.72
447.16	845.41
447.53	845.17
447.90	841.66
448.27	838.36
448.64	833.03
449.01	829.41
449.37	821.67
449.74	814.64
450.11	805.53
450.48	795.49
450.85	785.39
451.22	776.76
451.59	768.21
451.96	760.48
452.33	749.27
452.70	739.27
453.07	727.14
453.43	715.02
453.80	703.17
454.17	691.81
454.54	681.37
454.91	669.55
455.28	658.36
455.65	647.82
456.02	636.60
456.38	627.58
456.75	616.05
457.12	606.75
457.49	597.38
457.86	588.48
458.23	580.64
458.59	572.03
458.96	563.17
459.33	555.42
459.70	547.50
460.07	541.46
460.43	534.35
460.80	527.73
461.17	521.96
461.54	515.74
461.91	509.87
462.27	503.91
462.64	499.04
463.01	493.51
463.38	487.91
463.74	482.88
464.11	478.40
464.48	474.34
464.85	469.98
465.21	466.63
465.58	462.92
465.95	458.72
466.32	455.38
466.68	452.12
467.05	448.83
467.42	445.62
467.78	442.20
468.15	439.03
468.52	436.70
468.88	433.60
469.25	430.79
469.62	428.56
469.98	426.14
470.35	424.00
470.72	422.02
471.08	420.06
471.45	418.40
471.82	416.54
472.18	414.60
472.55	413.33
472.92	411.76
473.28	410.53
473.65	409.22
474.02	407.94
474.38	406.85
474.75	406.20
475.11	405.32
475.48	404.90
475.85	404.43
476.21	404.14
476.58	403.93
476.94	404.07
477.31	404.08
477.67	404.12
478.04	404.39
478.41	404.79
478.77	405.36
479.14	405.70
479.50	406.47
479.87	407.46
480.23	408.43
480.60	409.34
480.96	410.24
481.33	411.67
481.69	413.06
482.06	414.43
482.42	415.68
482.79	417.26
483.15	419.10
483.52	421.20
483.88	423.19
484.25	425.31
484.61	427.54
484.98	429.95
485.34	432.66
485.71	435.48
486.07	438.53
486.44	441.50
486.80	444.88
487.17	448.33
487.53	452.06
487.90	455.98
488.26	460.26
488.62	464.78
488.99	469.28
489.35	474.03
489.72	479.14
490.08	484.50
490.44	489.98
490.81	495.68
491.17	501.55
491.54	507.86
491.90	514.30
492.26	521.19
492.63	528.42
492.99	535.99
493.36	543.72
493.72	551.82
494.08	560.16
494.45	568.91
494.81	578.06
495.17	587.44
495.54	597.37
495.90	607.72
496.26	618.27
496.63	629.15
496.99	640.39
497.35	652.18
497.72	664.27
498.08	676.70
498.44	689.48
498.80	702.97
499.17	716.74
499.53	730.98
499.89	745.66
500.26	760.57
500.62	775.83
500.98	792.02
501.34	808.23
501.71	825.21
502.07	842.53
502.43	860.33
502.79	878.41
503.16	896.95
503.52	915.70
503.88	934.89
504.24	954.55
504.60	974.47
504.97	995.04
505.33	1016.14
505.69	1038.33
506.05	1060.74
506.41	1083.14
506.78	1105.72
507.14	1128.81
507.50	1152.43
507.86	1176.42
508.22	1200.66
508.59	1224.78
508.95	1249.95
509.31	1275.69
509.67	1302.07
510.03	1328.45
510.39	1354.68
510.75	1381.01
511.12	1407.67
511.48	1434.70
511.84	1461.65
512.20	1488.97
512.56	1517.41
512.92	1545.67
513.28	1573.24
513.64	1601.28
514.00	1629.69
514.37	1658.39
514.73	1687.16
515.09	1715.25
515.45	1743.58
515.81	1772.24
516.17	1800.66
516.53	1828.39
516.89	1855.78
517.25	1883.48
517.61	1910.97
517.97	1939.16
518.33	1966.83
518.69	1994.44
519.05	2022.35
519.41	2050.47
519.77	2078.76
520.13	2105.42
520.49	2132.02
520.85	2159.08
521.21	2185.46
521.57	2212.17
521.93	2237.75
522.29	2264.08
522.65	2290.21
523.01	2316.09
523.37	2341.13
523.73	2366.95
524.09	2392.45
524.45	2417.81
524.81	2442.52
525.17	2467.12
525.53	2490.69
525.89	2514.78
526.25	2538.56
526.61	2560.54
526.97	2582.59
527.33	2604.29
527.68	2625.97
528.04	2647.30
528.40	2667.49
528.76	2687.69
529.12	2707.34
529.48	2727.79
529.84	2745.42
530.20	2763.33
530.56	2780.59
530.91	2797.94
531.27	2814.54
531.63	2830.27
531.99	2845.54
532.35	2860.65
532.71	2875.32
533.07	2890.53
533.42	2903.68
533.78	2916.92
534.14	2931.38
534.50	2944.67
534.86	2958.50
535.21	2969.90
535.57	2981.22
535.93	2992.11
536.29	3001.30
536.65	3010.33
537.00	3018.06
537.36	3026.95
537.72	3035.03
538.08	3042.65
538.44	3048.89
538.79	3055.05
539.15	3059.90
539.51	3063.98
539.87	3066.69
540.22	3067.70
540.58	3068.98
540.94	3070.88
541.29	3071.81
541.65	3071.26
542.01	3070.32
542.37	3067.64
542.72	3066.77
543.08	3064.03
543.44	3061.41
543.79	3058.77
544.15	3055.27
544.51	3051.57
544.87	3047.03
545.22	3041.41
545.58	3035.31
545.94	3029.65
546.29	3022.45
546.65	3015.37
547.01	3008.49
547.36	3002.23
547.72	2996.13
548.07	2988.21
548.43	2979.15
548.79	2969.68
549.14	2960.47
549.50	2951.42
549.86	2941.46
550.21	2929.70
550.57	2919.31
550.92	2907.26
551.28	2895.27
551.64	2883.64
551.99	2871.84
552.35	2859.52
552.70	2847.16
553.06	2835.35
553.41	2823.04
553.77	2810.41
554.13	2797.85
554.48	2784.10
554.84	2769.09
555.19	2754.52
555.55	2739.99
555.90	2726.02
556.26	2712.27
556.61	2697.43
556.97	2681.43
557.32	2665.87
557.68	2650.76
558.03	2635.18
558.39	2620.50
558.74	2606.60
559.10	2590.82
559.45	2574.90
559.81	2559.66
560.16	2543.98
560.52	2527.97
560.87	2512.33
561.23	2496.20
561.58	2480.71
561.94	2464.81
562.29	2448.49
562.64	2432.37
563.00	2416.23
563.35	2400.32
563.71	2383.98
564.06	2367.81
564.42	2352.19
564.77	2336.69
565.12	2320.78
565.48	2304.53
565.83	2288.38
566.19	2272.12
566.54	2256.02
566.89	2239.58
567.25	2223.22
567.60	2207.76
567.96	2191.72
568.31	2174.10
568.66	2157.23
569.02	2141.02
569.37	2125.38
569.72	2110.30
570.08	2094.80
570.43	2078.64
570.78	2062.22
571.14	2045.79
571.49	2029.33
571.84	2013.07
572.20	1995.56
572.55	1978.79
572.90	1962.21
573.26	1945.83
573.61	1928.75
573.96	1912.25
574.31	1895.58
574.67	1878.50
575.02	1861.06
575.37	1843.61
575.72	1827.11
576.08	1810.42
576.43	1792.76
576.78	1775.42
577.13	1758.34
577.49	1741.43
577.84	1725.10
578.19	1708.33
578.54	1691.49
578.90	1674.52
579.25	1657.40
579.60	1641.61
579.95	1625.51
580.30	1609.37
580.66	1592.92
581.01	1576.60
581.36	1560.29
581.71	1544.90
582.06	1529.59
582.42	1514.09
582.77	1498.97
583.12	1484.09
583.47	1469.30
583.82	1454.69
584.17	1439.48
584.53	1424.38
584.88	1409.64
585.23	1394.70
585.58	1380.21
585.93	1365.54
586.28	1351.96
586.63	1338.26
586.98	1324.02
587.34	1310.24
587.69	1296.28
588.04	1282.58
588.39	1269.17
588.74	1255.43
589.09	1241.78
589.44	1227.81
589.79	1214.53
590.14	1201.27
590.49	1188.03
590.84	1175.02
591.19	1162.42
591.54	1150.00
591.89	1137.19
592.25	1124.69
592.60	1112.08
592.95	1099.60
593.30	1087.63
593.65	1075.30
594.00	1063.28
594.35	1052.18
594.70	1040.37
595.05	1029.18
595.40	1017.89
595.75	1006.44
596.10	995.66
596.45	984.78
596.80	974.41
597.15	963.96
597.50	953.48
597.85	943.39
598.19	933.29
598.54	923.16
598.89	913.53
599.24	904.32
599.59	894.84
599.94	886.09
600.29	877.39
600.64	868.45
600.99	859.41
601.34	850.74
601.69	841.56
602.04	833.31
602.39	824.96
602.74	816.84
603.08	808.84
603.43	800.83
603.78	792.86
604.13	784.88
604.48	776.92
604.83	769.29
605.18	761.63
605.53	754.19
605.87	746.74
606.22	739.40
606.57	731.99
606.92	724.56
607.27	717.13
607.62	709.86
607.96	702.88
608.31	696.44
608.66	689.81
609.01	683.50
609.36	677.15
609.70	670.79
610.05	664.39
610.40	658.20
610.75	651.97
611.10	645.99
611.44	640.00
611.79	634.18
612.14	628.24
612.49	622.40
612.83	616.86
613.18	611.40
613.53	605.93
613.88	600.58
614.22	595.63
614.57	590.61
614.92	585.71
615.27	580.91
615.61	575.98
615.96	571.15
616.31	566.29
616.65	561.58
617.00	556.99
617.35	552.51
617.70	548.03
618.04	543.67
618.39	539.40
618.74	535.42
619.08	531.38
619.43	527.48
619.78	523.56
620.12	519.56
620.47	515.79
620.82	512.12
621.16	508.48
621.51	504.89
621.85	501.30
622.20	497.75
622.55	494.24
622.89	490.76
623.24	487.46
623.59	484.23
623.93	481.07
624.28	478.04
624.62	475.21
624.97	472.41
625.32	469.53
625.66	466.63
626.01	463.68
626.35	460.91
626.70	458.08
627.04	455.47
627.39	452.83
627.73	450.25
628.08	447.70
628.43	445.18
628.77	442.60
629.12	440.12
629.46	437.76
629.81	435.55
630.15	433.25
630.50	430.98
630.84	428.76
631.19	426.58
631.53	424.51
631.88	422.26
632.22	420.08
632.57	418.21
632.91	416.30
633.26	414.46
633.60	412.63
633.95	410.90
634.29	409.03
634.64	407.22
634.98	405.32
635.32	403.60
635.67	402.05
636.01	400.48
636.36	398.98
636.70	397.53
637.05	395.93
637.39	394.50
637.73	393.04
638.08	391.67
638.42	390.33
638.77	388.86
639.11	387.37
639.45	385.93
639.80	384.44
640.14	383.02
640.49	381.61
640.83	380.20
641.17	378.86
641.52	377.53
641.86	376.26
642.20	375.13
642.55	373.81
642.89	372.52
643.23	371.29
643.58	370.19
643.92	368.95
644.26	367.79
644.61	366.68
644.95	365.54
645.29	364.34
645.64	363.12
645.98	362.01
646.32	361.04
646.66	359.99
647.01	358.96
647.35	358.04
647.69	357.06
648.04	356.18
648.38	355.21
648.72	354.30
649.06	353.37
649.41	352.43
649.75	351.55
650.09	350.68
650.43	349.82
650.78	348.89
651.12	348.04
651.46	347.20
651.80	346.37
652.14	345.58
652.49	344.87
652.83	344.10
653.17	343.29
653.51	342.50
653.85	341.84
654.20	341.12
654.54	340.31
654.88	339.56
655.22	338.86
655.56	338.12
655.90	337.43
656.25	336.75
656.59	336.09
656.93	335.46
657.27	334.89
657.61	334.23
657.95	333.64
658.29	333.02
658.64	332.43
658.98	331.77
659.32	331.13
659.66	330.51
660.00	329.96
660.34	329.40
660.68	328.78
661.02	328.11
661.36	327.48
661.70	326.90
662.05	326.33
662.39	325.77
662.73	325.31
663.07	324.89
663.41	324.42
663.75	323.90
664.09	323.38
664.43	322.76
664.77	322.23
665.11	321.65
665.45	321.12
665.79	320.62
666.13	320.10
666.47	319.57
666.81	319.01
667.15	318.41
667.49	317.94
667.83	317.54
668.17	317.09
668.51	316.68
668.85	316.29
669.19	315.95
669.53	315.44
669.87	314.90
670.21	314.34
670.55	313.83
670.89	313.42
671.23	312.96
671.57	312.56
671.91	312.21
672.25	311.88
672.58	311.56
672.92	311.13
673.26	310.79
673.60	310.45
673.94	310.09
674.28	309.76
674.62	309.39
674.96	308.96
675.30	308.60
675.64	308.17
675.97	307.73
676.31	307.25
676.65	306.84
676.99	306.52
677.33	306.09
677.67	305.70
678.01	305.23
678.34	304.84
678.68	304.47
679.02	304.01
679.36	303.56
679.70	303.10
680.04	302.71
680.37	302.29
680.71	301.91
681.05	301.56
681.39	301.16
681.73	300.70
682.06	300.28
682.40	299.88
682.74	299.53
683.08	299.23
683.42	298.85
683.75	298.51
684.09	298.05
684.43	297.68
684.77	297.28
685.10	296.91
685.44	296.50
685.78	296.08
686.12	295.70
686.45	295.29
686.79	294.86
687.13	294.46
687.46	294.02
687.80	293.60
688.14	293.14
688.48	292.72
688.81	292.30
689.15	291.94
689.49	291.50
689.82	291.06
690.16	290.52
690.50	290.07
690.83	289.62
691.17	289.16
691.51	288.73
691.84	288.33
692.18	287.88
692.52	287.42
692.85	286.99
693.19	286.61
693.52	286.18
693.86	285.74
694.20	285.31
694.53	284.88
694.87	284.41
695.21	283.95
695.54	283.51
695.88	283.04
696.21	282.54
696.55	282.09
696.88	281.64
697.22	281.23
697.56	280.81
697.89	280.34
698.23	279.92
698.56	279.47
698.90	279.07
699.23	278.61
699.57	278.20
699.90	277.77
700.24	277.29
700.58	276.89
700.91	276.52
701.25	276.27
701.58	275.95
701.92	275.60
702.25	275.21
702.59	274.80
702.92	274.41
703.26	274.00
703.59	273.58
703.93	273.31
704.26	272.90
704.60	272.48
704.93	272.08
705.26	271.66
705.60	271.29
705.93	270.83
706.27	270.51
706.60	270.17
706.94	269.84
707.27	269.41
707.61	269.02
707.94	268.59
708.27	268.02
708.61	267.55
708.94	267.13
709.28	266.73
709.61	266.34
709.94	265.99
710.28	265.64
710.61	265.31
710.95	264.80
711.28	264.55
711.61	264.19
711.95	263.88
712.28	263.51
712.61	263.13
712.95	262.88
713.28	262.59
713.61	262.19
713.95	261.79
714.28	261.47
714.61	261.10
714.95	260.76
715.28	260.42
715.61	260.11
715.95	259.80
716.28	259.47
716.61	259.19
716.95	258.85
717.28	258.53
717.61	258.20
717.94	257.91
718.28	257.48
718.61	257.18
718.94	256.84
719.27	256.56
719.61	256.29
719.94	255.96
720.27	255.58
720.60	255.30
720.94	255.01
721.27	254.73
721.60	254.49
721.93	254.21
722.27	253.98
722.60	253.71
722.93	253.40
723.26	253.15
723.59	252.85
723.93	252.61
724.26	252.37
724.59	252.10
724.92	251.86
725.25	251.66
725.59	251.42
725.92	251.20
726.25	250.95
726.58	250.70
726.91	250.45
727.24	250.23
727.57	249.98
727.91	249.71
728.24	249.50
728.57	249.26
728.90	249.05
729.23	248.76
729.56	248.63
729.89	248.41
730.22	248.18
730.55	247.97
730.89	247.75
731.22	247.52
731.55	247.30
731.88	247.10
732.21	246.86
732.54	246.63
732.87	246.43
733.20	246.25
733.53	246.05
733.86	245.87
734.19	245.66
734.52	245.50
734.85	245.45
735.18	245.24
735.51	245.11
735.84	244.93
736.17	244.80
736.50	244.52
736.83	244.56
737.16	244.38
737.49	244.21
737.82	244.02
738.15	243.86
738.48	243.68
738.81	243.49
739.14	243.30
739.47	243.11
739.80	242.93
740.13	242.77
740.46	242.57
740.79	242.36
741.12	242.18
741.45	241.98
741.78	241.70
742.11	241.58
742.44	241.36
742.77	241.22
743.10	241.02
743.43	240.85
743.75	240.50
744.08	240.62
744.41	240.44
744.74	240.27
745.07	240.08
745.40	239.98
745.73	239.91
746.06	239.78
746.39	239.67
746.71	239.51
747.04	239.35
747.37	239.21
747.70	239.10
748.03	238.97
748.36	238.86
748.68	238.73
749.01	238.54
749.34	238.42
749.67	238.28
750.00	238.18
750.33	238.19
750.65	238.08
750.98	237.68
751.31	237.57
751.64	237.47
751.97	237.45
752.29	237.30
752.62	237.09
752.95	236.96
753.28	236.81
753.60	236.68
753.93	236.60
754.26	236.51
754.59	236.33
754.91	236.20
755.24	236.06
755.57	235.96
755.90	235.84
756.22	235.71
756.55	235.56
756.88	235.41
757.20	235.17
757.53	235.01
757.86	234.90
758.19	234.80
758.51	234.68
758.84	234.49
759.17	234.37
759.49	234.28
759.82	234.26
760.15	234.19
760.47	234.09
760.80	233.94
761.13	233.87
761.45	233.78
761.78	233.69
762.11	233.61
762.43	233.49
762.76	233.40
763.08	233.33
763.41	233.26
763.74	233.20
764.06	233.11
764.39	233.03
764.71	232.95
765.04	232.84
765.37	232.75
765.69	232.66
766.02	232.59
766.34	232.49
766.67	232.34
767.00	232.30
767.32	232.32
767.65	232.36
767.97	232.27
768.30	232.21
768.62	232.14
768.95	232.04
769.27	231.97
769.60	231.93
769.92	231.83
770.25	231.73
770.57	231.63
770.90	231.56
771.22	231.49
771.55	231.43
771.87	231.39
772.20	231.32
772.52	231.42
772.85	231.58
773.17	231.53
773.50	231.46
773.82	231.38
774.15	231.23
774.47	231.06
774.80	230.98
775.12	230.93
775.45	230.87
775.77	230.84
776.09	230.80
776.42	230.74
776.74	230.75
777.07	230.70
777.39	230.67
777.72	230.61
778.04	230.58
778.36	230.52
778.69	230.48
779.01	230.45
779.33	230.24
779.66	229.99
779.98	229.94
780.31	229.90
780.63	229.93
780.95	229.93
781.28	229.89
781.60	229.83
781.92	229.80
782.25	229.76
782.57	229.72
782.89	229.66
783.22	229.61
783.54	229.54
783.86	229.52
784.19	229.48
784.51	229.50
784.83	229.44
785.16	229.40
785.48	229.37
785.80	229.33
786.12	229.32
786.45	229.28
786.77	229.27
787.09	229.22
787.42	229.12
787.74	229.09
788.06	229.07
788.38	229.03
788.71	228.99
789.03	228.97
789.35	228.96
789.67	228.91
789.99	228.89
790.32	228.84
790.64	228.83
790.96	228.98
791.28	228.88
791.61	228.85
791.93	228.83
792.25	228.79
792.57	228.89
792.89	228.83
793.21	228.81
793.54	228.77
793.86	228.72
794.18	228.71
794.50	228.65
794.82	228.63
795.14	228.63
795.47	228.63
795.79	228.60
796.11	228.54
796.43	228.51
796.75	228.49
797.07	228.47
797.39	228.43
797.71	228.26
798.04	228.25
798.36	228.24
798.68	228.21
799.00	228.20
799.32	228.09
799.64	228.10
799.96	228.07
800.28	228.09
800.60	228.06
800.92	228.05
801.24	228.03
801.56	228.02
801.89	227.98
802.21	227.97
802.53	227.92
802.85	227.94
803.17	228.02
803.49	227.96
803.81	227.92
804.13	227.89
804.45	227.85
804.77	227.85
805.09	227.82
805.41	227.79
805.73	227.74
806.05	227.67
806.37	227.64
806.69	227.61
807.01	227.57
807.33	227.56
807.65	227.48
807.97	227.54
808.28	227.50
808.60	227.48
808.92	227.43
809.24	227.53
809.56	227.48
809.88	227.39
810.20	227.39
810.52	227.42
810.84	227.38
811.16	227.34
811.48	227.31
811.80	227.36
812.12	227.34
812.43	227.37
812.75	227.37
813.07	227.34
813.39	227.33
813.71	227.29
814.03	227.26
814.35	227.26
814.67	227.17
814.98	227.14
815.30	227.13
815.62	227.09
815.94	226.96
816.26	226.97
816.58	226.92
816.89	226.92
817.21	226.87
817.53	226.87
817.85	226.87
818.17	226.86
818.48	226.77
818.80	226.80
819.12	226.75
819.44	226.71
819.76	226.67
820.07	226.66
820.39	226.65
820.71	226.66
821.03	226.65
821.34	226.63
821.66	226.65
821.98	226.65
822.30	226.64
822.61	226.75
822.93	226.71
823.25	226.70
823.57	226.66
823.88	226.68
824.20	226.67
824.52	226.69
824.83	226.67
825.15	226.64
825.47	226.62
825.79	226.63
826.10	226.62
826.42	226.61
826.74	226.61
827.05	226.60
827.37	226.59
827.69	226.57
828.00	226.57
828.32	226.55
828.64	226.52
828.95	226.61
829.27	226.54
829.58	226.53
829.90	226.56
830.22	226.57
830.53	226.53
830.85	226.50
831.17	226.45
831.48	226.44
831.80	226.45
832.11	226.43
832.43	226.39
832.75	226.39
833.06	226.50
833.38	226.44
833.69	226.43
834.01	226.43
834.32	226.42
834.64	226.40
834.96	226.39
835.27	226.39
835.59	226.32
835.90	226.28
836.22	226.28
836.53	226.23
836.85	226.20
837.16	226.39
837.48	226.38
837.79	226.44
838.11	226.44
838.42	226.43
838.74	226.45
839.05	226.44
839.37	226.43
839.68	226.30
840.00	226.29
840.31	226.31
840.63	226.28
840.94	226.26
841.26	226.24
841.57	226.23
841.88	226.25
842.20	226.22
842.51	226.19
842.83	226.18
843.14	226.34
843.46	226.33
843.77	226.22
844.08	226.21
844.40	226.15
844.71	226.12
845.03	226.10
845.34	226.08
845.65	226.07
845.97	226.07
846.28	226.08
846.60	226.09
846.91	226.05
847.22	226.05
847.54	226.08
847.85	226.09
848.16	226.07
848.48	226.03
848.79	226.10
849.10	226.12
849.42	226.13
849.73	225.95
850.04	225.95
850.36	225.89
850.67	225.91
850.98	225.92
851.30	225.93
851.61	225.92
851.92	225.92
852.23	225.97
852.55	225.98
852.86	225.98
853.17	225.99
853.49	226.02
853.80	226.06
854.11	226.06
854.42	226.08
854.74	226.07
855.05	226.07
855.36	225.97
855.67	225.97
855.99	225.96
856.30	226.18
856.61	226.17
856.92	226.17
857.23	226.18
857.55	226.16
857.86	226.14
858.17	226.17
858.48	226.14
858.79	226.09
859.11	226.10
859.42	226.09
859.73	226.06
860.04	226.04
860.35	225.99
860.66	225.93
860.98	225.92
861.29	225.94
861.60	225.93
861.91	225.97
862.22	225.94
862.53	225.91
862.84	225.69
863.16	225.73
863.47	225.70
863.78	225.67
864.09	225.68
864.40	225.69
864.71	225.69
865.02	225.72
865.33	225.70
865.64	225.66
865.95	225.66
866.27	225.78
866.58	225.76
866.89	225.78
867.20	225.78
867.51	225.75
867.82	225.73
868.13	225.79
868.44	225.75
868.75	225.79
869.06	225.80
869.37	225.82
869.68	225.77
869.99	225.80
870.30	225.81
870.61	225.82
870.92	225.79
871.23	225.77
871.54	225.79
871.85	225.83
872.16	225.85
872.47	225.84
872.78	225.73
873.09	225.75
873.40	225.73
873.71	225.74
874.02	225.76
874.33	225.74
874.64	225.69
874.95	225.73
875.26	225.69
875.56	225.68
875.87	225.66
876.18	225.66
876.49	225.84
876.80	225.82
877.11	225.78
877.42	225.79
877.73	225.79
878.04	225.76
878.35	225.75
878.66	225.75
878.96	225.75
879.27	225.74
879.58	225.73
879.89	225.72
880.20	225.76
880.51	225.76
880.82	225.76
881.12	225.77
881.43	225.73
881.74	225.71
882.05	225.69
882.36	225.70
882.67	225.72
882.97	225.51
883.28	225.50
883.59	225.50
883.90	225.52
884.21	225.54
884.51	225.53
884.82	225.50
885.13	225.50
885.44	225.50
885.74	225.50
886.05	225.49
886.36	225.49
886.67	225.43
886.98	225.52
887.28	225.53
887.59	225.53
887.90	225.54
888.20	225.53
888.51	225.57
888.82	225.54
889.13	225.55
889.43	225.71
889.74	225.71
890.05	225.70
890.35	225.68
890.66	225.64
890.97	225.63
891.28	225.61
891.58	225.61
891.89	225.61
892.20	225.59
892.50	225.57
892.81	225.56
893.12	225.56
893.42	225.46
893.73	225.46
894.04	225.46
894.34	225.47
894.65	225.47
894.95	225.46
895.26	225.46
895.57	225.54
895.87	225.36
896.18	225.40
896.48	225.41
896.79	225.41
897.10	225.44
897.40	225.44
897.71	225.47
898.01	225.45
898.32	225.47
898.63	225.46
898.93	225.48
899.24	225.49
899.54	225.48
899.85	225.47
900.15	225.47
900.46	225.46
900.76	225.47
901.07	225.47
901.38	225.46
901.68	225.48
901.99	225.38
902.29	225.39
902.60	225.37
902.90	225.36
903.21	225.36
903.51	225.33
903.82	225.37
904.12	225.37
904.43	225.38
904.73	225.37
905.03	225.38
905.34	225.55
905.64	225.54
905.95	225.54
906.25	225.54
906.56	225.54
906.86	225.54
907.17	225.52
907.47	225.53
907.77	225.52
908.08	225.48
908.38	225.49
908.69	225.51
908.99	225.54
909.30	225.55
909.60	225.55
909.90	225.54
910.21	225.49
910.51	225.46
910.81	225.47
911.12	225.48
911.42	225.48
911.73	225.29
912.03	225.31
912.33	225.34
912.64	225.33
912.94	225.31
913.24	225.28
913.55	225.27
913.85	225.26
914.15	225.29
914.46	225.32
914.76	225.30
915.06	225.29
915.37	225.26
915.67	225.24
915.97	225.24
916.27	225.22
916.58	225.23
916.88	225.23
917.18	225.21
917.49	225.32
917.79	225.32
918.09	225.35
918.39	225.40
918.70	225.38
919.00	225.40
919.30	225.48
919.60	225.48
919.91	225.46
920.21	225.46
920.51	225.42
920.81	225.41
921.12	225.44
921.42	225.43
921.72	225.44
922.02	225.45
922.32	225.48
922.63	225.49
922.93	225.59
923.23	225.59
923.53	225.58
923.83	225.46
924.13	225.47
924.44	225.46
924.74	225.49
925.04	225.53
925.34	225.52
925.64	225.44
925.94	225.45
926.24	225.55
926.55	225.54
926.85	225.57
927.15	225.57
927.45	225.56
927.75	225.56
928.05	225.56
928.35	225.55
928.65	225.57
928.95	225.59
929.26	225.50
929.56	225.53
929.86	225.56
930.16	225.55
930.46	225.53
930.76	225.54
931.06	225.45
931.36	225.40
931.66	225.43
931.96	225.45
932.26	225.46
932.56	225.38
932.86	225.39
933.16	225.39
933.46	225.38
933.76	225.35
934.06	225.38
934.36	225.44
934.66	225.43
934.96	225.41
935.26	225.41
935.56	225.44
935.86	225.38
936.16	225.36
936.46	225.34
936.76	225.33
937.06	225.31
937.36	225.32
937.66	225.33
937.96	225.31
938.26	225.27
938.56	225.26
938.86	225.27
939.16	225.31
939.46	225.32
939.76	225.33
940.06	225.33
940.35	225.29
940.65	225.21
940.95	225.22
941.25	225.18
941.55	225.16
941.85	225.15
942.15	225.19
942.45	225.24
942.75	225.24
943.04	225.25
943.34	225.28
943.64	225.26
943.94	225.24
944.24	225.24
944.54	225.25
944.84	225.25
945.13	225.23
945.43	225.19
945.73	225.17
946.03	225.16
946.33	225.14
946.62	225.13
946.92	225.13
947.22	225.13
947.52	225.15
947.82	225.17
948.11	225.15
948.41	225.11
948.71	225.05
949.01	225.06
949.31	225.05
949.60	225.03
949.90	225.06
950.20	225.05
950.50	225.05
950.79	225.03
951.09	225.06
951.39	225.06
951.69	225.05
951.98	225.08
952.28	225.10
952.58	225.09
952.87	225.10
953.17	225.12
953.47	225.10
953.76	225.10
954.06	225.07
954.36	225.05
954.66	225.05
954.95	225.10
955.25	225.11
955.55	225.13
955.84	225.10
956.14	225.11
956.44	225.12
956.73	225.10
957.03	225.11
957.32	225.11
957.62	225.10
957.92	225.14
958.21	225.12
958.51	225.33
958.81	225.35
959.10	225.37
959.40	225.41
959.69	225.42
959.99	225.45
960.29	225.46
960.58	225.45
960.88	225.52
961.17	225.50
961.47	225.51
961.76	225.50
962.06	225.53
962.36	225.51
962.65	225.51
962.95	225.53
963.24	225.51
963.54	225.51
963.83	225.52
964.13	225.50
964.42	225.49
964.72	225.34
965.01	225.34
965.31	225.32
965.60	225.27
965.90	225.39
966.19	225.34
966.49	225.35
966.78	225.35
967.08	225.33
967.37	225.33
967.67	225.29
967.96	225.33
968.26	225.32
968.55	225.35
968.85	225.34
969.14	225.34
969.43	225.34
969.73	225.32
970.02	225.31
970.32	225.30
970.61	225.27
970.91	225.21
971.20	225.19
971.49	225.18
971.79	225.20
972.08	225.06
972.38	225.08
972.67	225.07
972.96	225.10
973.26	225.06
973.55	225.12
973.85	225.11
974.14	225.09
974.43	225.10
974.73	225.06
975.02	225.05
975.31	225.04
975.61	225.05
975.90	225.03
976.19	225.02
976.49	225.03
976.78	225.05
977.07	225.05
977.37	225.06
977.66	225.08
977.95	225.06
978.24	225.08
978.54	225.11
978.83	225.10
979.12	225.08
979.42	225.08
979.71	225.04
980.00	225.04
980.29	225.05
980.59	225.01
980.88	225.07
981.17	225.07
981.46	225.07
981.76	225.07
982.05	225.13
982.34	225.14
982.63	225.14
982.93	225.14
983.22	225.19
983.51	225.19
983.80	225.22
984.09	225.24
984.39	225.23
984.68	225.20
984.97	225.21
985.26	225.20
985.55	225.22
985.85	225.19
986.14	225.21
986.43	225.23
986.72	225.23
987.01	225.17
987.30	225.17
987.59	225.16
987.89	225.17
988.18	225.11
988.47	225.09
988.76	225.07
989.05	225.06
989.34	225.03
989.63	225.07
989.92	225.04
990.22	225.01
990.51	225.01
990.80	225.00
991.09	225.01
991.38	225.04
991.67	225.01
991.96	225.00
992.25	225.00
992.54	224.97
992.83	224.97
993.12	224.97
993.41	224.99
993.70	225.07
993.99	225.10
994.28	225.12
994.58	225.15
994.87	225.14
995.16	225.14
995.45	225.12
995.74	225.06
996.03	225.09
996.32	225.11
996.61	225.15
996.90	225.15
997.19	225.14
997.48	225.14
997.77	225.12
998.06	225.14
998.34	225.12
998.63	225.12
998.92	225.13
999.21	225.16
999.50	225.16
999.79	225.10
1000.08	225.09
1000.37	225.09
1000.66	225.06
1000.95	225.11
1001.24	225.12
1001.53	225.15
1001.82	225.15
1002.11	225.11
1002.40	225.12
1002.68	225.16
1002.97	225.29
1003.26	225.27
1003.55	225.24
1003.84	225.26
1004.13	225.32
1004.42	225.31
1004.71	225.32
1004.99	225.30
1005.28	225.34
1005.57	225.32
1005.86	225.31
1006.15	225.29
1006.44	225.27
1006.72	225.29
1007.01	225.26
1007.30	225.26
1007.59	225.24
1007.88	225.24
1008.17	225.25
1008.45	225.22
1008.74	225.14
1009.03	225.05
1009.32	225.06
1009.60	225.06
1009.89	225.04
1010.18	224.97
1010.47	224.96
1010.76	224.96
1011.04	224.96
1011.33	224.95
1011.62	224.97
1011.91	224.98
1012.19	224.99
1012.48	225.00
1012.77	224.99
1013.05	225.05
1013.34	225.05
1013.63	225.04
1013.92	225.05
1014.20	225.04
1014.49	225.05
1014.78	225.07
1015.06	225.01
1015.35	225.01
1015.64	225.04
1015.92	225.07
1016.21	225.08
1016.50	225.08
1016.78	225.10
1017.07	225.12
1017.36	225.09
1017.64	225.06
1017.93	225.07
1018.22	225.05
1018.50	225.05
1018.79	225.05
1019.08	224.98
1019.36	224.99
1019.65	224.98
1019.93	225.02
1020.22	225.05
1020.51	225.15
1020.79	225.13
1021.08	224.76
1021.36	224.74
1021.65	225.04
1021.94	224.94
1022.22	225.17
1022.51	224.68
1022.79	225.90
1023.08	225.35
1023.36	227.19
1023.65	224.66
>>>>>End Processed Spectral Data<<<<<
