SpectraSuite Data File
++++++++++++++++++++++++++++++++++++
Date: Tue Oct 06 15:18:33 EDT 2015
User: lab3
Dark Spectrum Present: No
Reference Spectrum Present: No
Number of Sampled Component Spectra: 1
Spectrometers: USB2E7196
Integration Time (usec): 66000 (USB2E7196)
Spectra Averaged: 400 (USB2E7196)
Boxcar Smoothing: 10 (USB2E7196)
Correct for Electrical Dark: No (USB2E7196)
Strobe/Lamp Enabled: No (USB2E7196)
Correct for Detector Non-linearity: No (USB2E7196)
Correct for Stray Light: No (USB2E7196)
Number of Pixels in Processed Spectrum: 2048
>>>>>Begin Processed Spectral Data<<<<<
339.09	0.00
339.48	214.73
339.86	216.27
340.24	217.76
340.63	219.06
341.01	223.13
341.39	221.40
341.78	222.80
342.16	224.55
342.54	224.66
342.93	213.29
343.31	224.05
343.69	224.59
344.07	225.05
344.46	225.49
344.84	225.89
345.22	226.09
345.60	226.38
345.99	226.63
346.37	226.77
346.75	226.90
347.13	226.99
347.52	227.08
347.90	227.21
348.28	227.26
348.66	227.35
349.05	227.35
349.43	227.43
349.81	227.51
350.19	227.58
350.57	227.67
350.96	227.77
351.34	227.90
351.72	228.01
352.10	228.15
352.48	228.22
352.87	228.28
353.25	228.36
353.63	228.43
354.01	228.48
354.39	228.57
354.77	228.66
355.15	228.78
355.54	228.83
355.92	228.85
356.30	228.94
356.68	229.12
357.06	229.20
357.44	229.25
357.82	229.32
358.20	229.54
358.58	229.60
358.97	229.67
359.35	229.75
359.73	229.87
360.11	229.90
360.49	229.98
360.87	230.02
361.25	230.10
361.63	230.22
362.01	230.28
362.39	230.31
362.77	230.39
363.15	230.41
363.53	230.45
363.91	230.48
364.29	230.50
364.67	230.37
365.05	230.39
365.43	230.43
365.81	230.46
366.19	230.39
366.57	230.47
366.95	230.49
367.33	230.45
367.71	230.43
368.09	230.48
368.47	230.48
368.85	230.47
369.23	230.47
369.61	230.39
369.99	230.42
370.37	230.43
370.75	230.54
371.13	230.50
371.51	230.45
371.89	230.45
372.27	230.43
372.65	230.39
373.03	230.34
373.41	230.30
373.78	230.27
374.16	230.15
374.54	230.04
374.92	229.98
375.30	229.96
375.68	229.88
376.06	229.84
376.44	229.77
376.82	229.73
377.19	229.68
377.57	229.62
377.95	229.52
378.33	229.44
378.71	229.22
379.09	229.18
379.47	229.17
379.84	229.07
380.22	229.02
380.60	228.95
380.98	228.93
381.36	228.88
381.73	228.80
382.11	228.80
382.49	228.75
382.87	228.67
383.25	228.64
383.62	228.82
384.00	228.74
384.38	228.72
384.76	228.72
385.13	228.71
385.51	228.68
385.89	228.62
386.27	228.58
386.64	228.57
387.02	228.53
387.40	228.49
387.78	228.48
388.15	228.45
388.53	228.42
388.91	228.38
389.29	228.33
389.66	228.34
390.04	228.30
390.42	228.32
390.79	228.32
391.17	228.30
391.55	228.08
391.92	228.07
392.30	228.09
392.68	228.04
393.05	228.03
393.43	228.05
393.81	228.07
394.18	228.07
394.56	228.07
394.94	228.12
395.31	228.09
395.69	228.17
396.06	228.22
396.44	228.26
396.82	228.29
397.19	228.42
397.57	228.43
397.95	228.51
398.32	228.50
398.70	228.57
399.07	228.66
399.45	228.71
399.82	228.78
400.20	228.83
400.58	228.94
400.95	228.96
401.33	229.08
401.70	229.32
402.08	229.47
402.45	229.59
402.83	229.77
403.20	229.94
403.58	230.08
403.95	230.27
404.33	230.48
404.71	230.71
405.08	231.01
405.46	231.27
405.83	231.54
406.21	231.82
406.58	232.16
406.96	232.48
407.33	232.86
407.70	233.29
408.08	233.87
408.45	234.37
408.83	234.91
409.20	235.42
409.58	235.88
409.95	236.49
410.33	237.19
410.70	237.84
411.08	238.60
411.45	239.39
411.82	240.21
412.20	241.15
412.57	242.26
412.95	243.16
413.32	244.29
413.69	245.48
414.07	246.73
414.44	248.10
414.82	249.50
415.19	251.14
415.56	252.83
415.94	254.56
416.31	256.51
416.68	258.48
417.06	260.75
417.43	262.87
417.81	265.31
418.18	267.80
418.55	270.53
418.93	273.37
419.30	276.36
419.67	279.52
420.04	282.77
420.42	286.15
420.79	290.05
421.16	294.01
421.54	298.00
421.91	302.20
422.28	306.58
422.66	311.29
423.03	315.75
423.40	320.42
423.77	325.44
424.15	330.57
424.52	335.88
424.89	341.64
425.26	347.36
425.64	352.69
426.01	358.66
426.38	364.75
426.75	371.01
427.13	377.41
427.50	384.14
427.87	391.09
428.24	398.14
428.61	404.86
428.99	412.11
429.36	420.09
429.73	427.70
430.10	435.27
430.47	443.02
430.85	451.05
431.22	459.61
431.59	468.38
431.96	476.96
432.33	486.47
432.70	495.51
433.08	506.25
433.45	516.34
433.82	526.29
434.19	537.49
434.56	548.49
434.93	559.16
435.30	569.74
435.68	581.73
436.05	593.45
436.42	605.18
436.79	615.91
437.16	627.59
437.53	640.04
437.90	652.50
438.27	664.74
438.64	677.98
439.01	689.95
439.38	700.98
439.75	711.63
440.13	723.79
440.50	735.35
440.87	744.54
441.24	754.74
441.61	765.89
441.98	774.05
442.35	783.83
442.72	793.78
443.09	803.19
443.46	809.38
443.83	814.06
444.20	817.94
444.57	823.60
444.94	826.97
445.31	830.45
445.68	833.43
446.05	835.66
446.42	835.36
446.79	834.86
447.16	834.43
447.53	834.04
447.90	830.49
448.27	827.03
448.64	821.67
449.01	817.91
449.37	810.16
449.74	803.23
450.11	794.18
450.48	784.28
450.85	774.40
451.22	765.82
451.59	757.43
451.96	749.89
452.33	738.84
452.70	729.01
453.07	717.12
453.43	705.27
453.80	693.69
454.17	682.61
454.54	672.33
454.91	660.77
455.28	649.85
455.65	639.50
456.02	628.67
456.38	619.87
456.75	608.69
457.12	599.66
457.49	590.53
457.86	581.87
458.23	574.23
458.59	565.81
458.96	557.24
459.33	549.63
459.70	541.91
460.07	536.04
460.43	529.09
460.80	522.60
461.17	516.93
461.54	510.86
461.91	505.17
462.27	499.37
462.64	494.64
463.01	489.23
463.38	483.79
463.74	478.85
464.11	474.51
464.48	470.55
464.85	466.28
465.21	463.03
465.58	459.40
465.95	455.31
466.32	452.02
466.68	448.78
467.05	445.55
467.42	442.37
467.78	438.99
468.15	435.88
468.52	433.60
468.88	430.57
469.25	427.81
469.62	425.57
469.98	423.20
470.35	421.07
470.72	419.15
471.08	417.20
471.45	415.57
471.82	413.74
472.18	411.83
472.55	410.57
472.92	408.99
473.28	407.77
473.65	406.46
474.02	405.23
474.38	404.20
474.75	403.57
475.11	402.73
475.48	402.34
475.85	401.89
476.21	401.63
476.58	401.46
476.94	401.64
477.31	401.70
477.67	401.80
478.04	402.09
478.41	402.52
478.77	403.15
479.14	403.53
479.50	404.33
479.87	405.32
480.23	406.33
480.60	407.29
480.96	408.25
481.33	409.68
481.69	411.12
482.06	412.53
482.42	413.85
482.79	415.49
483.15	417.36
483.52	419.49
483.88	421.53
484.25	423.70
484.61	425.98
484.98	428.43
485.34	431.16
485.71	434.04
486.07	437.09
486.44	440.12
486.80	443.53
487.17	447.01
487.53	450.82
487.90	454.78
488.26	459.13
488.62	463.69
488.99	468.20
489.35	472.96
489.72	478.07
490.08	483.47
490.44	488.98
490.81	494.74
491.17	500.64
491.54	506.95
491.90	513.38
492.26	520.25
492.63	527.49
492.99	535.02
493.36	542.71
493.72	550.85
494.08	559.11
494.45	567.74
494.81	576.80
495.17	586.11
495.54	595.88
495.90	606.09
496.26	616.50
496.63	627.23
496.99	638.31
497.35	649.92
497.72	661.79
498.08	674.02
498.44	686.56
498.80	699.80
499.17	713.36
499.53	727.36
499.89	741.78
500.26	756.31
500.62	771.26
500.98	787.05
501.34	802.80
501.71	819.38
502.07	836.24
502.43	853.55
502.79	870.98
503.16	889.03
503.52	907.24
503.88	925.88
504.24	944.94
504.60	964.21
504.97	984.09
505.33	1004.40
505.69	1025.74
506.05	1047.22
506.41	1068.62
506.78	1090.16
507.14	1112.27
507.50	1134.90
507.86	1157.87
508.22	1180.94
508.59	1203.79
508.95	1227.76
509.31	1252.14
509.67	1277.13
510.03	1302.01
510.39	1326.89
510.75	1351.81
511.12	1377.05
511.48	1402.30
511.84	1427.57
512.20	1453.14
512.56	1479.58
512.92	1505.88
513.28	1531.60
513.64	1557.68
514.00	1584.02
514.37	1610.66
514.73	1637.29
515.09	1663.02
515.45	1689.19
515.81	1715.48
516.17	1741.44
516.53	1766.69
516.89	1791.90
517.25	1817.36
517.61	1842.61
517.97	1868.35
518.33	1893.30
518.69	1918.18
519.05	1943.53
519.41	1968.88
519.77	1994.13
520.13	2018.09
520.49	2042.10
520.85	2066.37
521.21	2090.04
521.57	2113.98
521.93	2136.87
522.29	2160.43
522.65	2183.76
523.01	2206.77
523.37	2229.24
523.73	2252.39
524.09	2275.14
524.45	2297.40
524.81	2319.00
525.17	2340.42
525.53	2361.12
525.89	2382.30
526.25	2402.90
526.61	2422.05
526.97	2441.25
527.33	2460.26
527.68	2478.75
528.04	2496.89
528.40	2513.72
528.76	2530.84
529.12	2547.39
529.48	2564.43
529.84	2578.98
530.20	2594.02
530.56	2608.02
530.91	2622.09
531.27	2635.54
531.63	2648.28
531.99	2660.63
532.35	2672.58
532.71	2683.95
533.07	2695.74
533.42	2705.68
533.78	2715.94
534.14	2726.97
534.50	2736.88
534.86	2747.48
535.21	2755.96
535.57	2764.17
535.93	2772.41
536.29	2779.14
536.65	2785.53
537.00	2790.37
537.36	2796.19
537.72	2801.05
538.08	2805.48
538.44	2808.73
538.79	2811.89
539.15	2813.79
539.51	2815.24
539.87	2815.61
540.22	2814.36
540.58	2813.28
540.94	2813.01
541.29	2811.63
541.65	2808.77
542.01	2805.63
542.37	2800.85
542.72	2797.85
543.08	2793.23
543.44	2788.73
543.79	2783.33
544.15	2777.52
544.51	2772.07
544.87	2765.58
545.22	2758.23
545.58	2750.86
545.94	2743.74
546.29	2735.24
546.65	2726.68
547.01	2718.07
547.36	2709.87
547.72	2701.91
548.07	2692.35
548.43	2681.79
548.79	2670.89
549.14	2660.51
549.50	2650.25
549.86	2639.16
550.21	2626.43
550.57	2614.80
550.92	2601.39
551.28	2588.65
551.64	2576.18
551.99	2563.42
552.35	2550.37
552.70	2537.19
553.06	2524.41
553.41	2511.30
553.77	2497.74
554.13	2484.45
554.48	2470.17
554.84	2455.18
555.19	2440.88
555.55	2426.39
555.90	2412.22
556.26	2398.57
556.61	2383.83
556.97	2368.03
557.32	2352.58
557.68	2337.51
558.03	2322.18
558.39	2307.73
558.74	2293.82
559.10	2278.16
559.45	2262.87
559.81	2248.23
560.16	2233.34
560.52	2218.25
560.87	2203.32
561.23	2188.05
561.58	2173.24
561.94	2158.13
562.29	2142.59
562.64	2127.11
563.00	2111.87
563.35	2096.86
563.71	2081.36
564.06	2066.09
564.42	2051.29
564.77	2036.53
565.12	2021.67
565.48	2006.63
565.83	1991.96
566.19	1977.31
566.54	1962.97
566.89	1947.88
567.25	1932.54
567.60	1918.03
567.96	1902.93
568.31	1886.59
568.66	1871.23
569.02	1856.40
569.37	1842.07
569.72	1828.33
570.08	1814.22
570.43	1799.53
570.78	1784.66
571.14	1769.73
571.49	1754.75
571.84	1740.26
572.20	1724.80
572.55	1709.99
572.90	1695.13
573.26	1680.16
573.61	1664.55
573.96	1649.41
574.31	1634.40
574.67	1619.43
575.02	1604.11
575.37	1588.77
575.72	1574.18
576.08	1559.49
576.43	1544.25
576.78	1529.16
577.13	1514.14
577.49	1499.46
577.84	1485.16
578.19	1470.42
578.54	1455.71
578.90	1441.09
579.25	1426.30
579.60	1412.56
579.95	1398.58
580.30	1384.69
580.66	1370.49
581.01	1356.59
581.36	1342.76
581.71	1329.47
582.06	1316.13
582.42	1302.68
582.77	1289.72
583.12	1277.01
583.47	1264.15
583.82	1251.55
584.17	1238.53
584.53	1225.71
584.88	1213.00
585.23	1200.28
585.58	1187.98
585.93	1175.57
586.28	1164.03
586.63	1152.32
586.98	1140.37
587.34	1128.70
587.69	1116.85
588.04	1105.50
588.39	1094.29
588.74	1082.78
589.09	1071.45
589.44	1059.85
589.79	1048.86
590.14	1037.78
590.49	1026.80
590.84	1016.17
591.19	1005.62
591.54	995.26
591.89	984.48
592.25	974.12
592.60	963.63
592.95	953.30
593.30	943.23
593.65	932.89
594.00	922.87
594.35	913.61
594.70	903.85
595.05	894.66
595.40	885.26
595.75	875.71
596.10	866.67
596.45	857.65
596.80	848.98
597.15	840.29
597.50	831.74
597.85	823.37
598.19	814.95
598.54	806.49
598.89	798.49
599.24	790.90
599.59	783.11
599.94	775.87
600.29	768.59
600.64	761.29
600.99	753.92
601.34	746.71
601.69	739.02
602.04	732.08
602.39	725.06
602.74	718.25
603.08	711.57
603.43	704.90
603.78	698.19
604.13	691.59
604.48	685.08
604.83	678.73
605.18	672.43
605.53	666.28
605.87	660.17
606.22	654.10
606.57	648.00
606.92	641.82
607.27	635.72
607.62	629.80
607.96	624.08
608.31	618.74
608.66	613.36
609.01	608.21
609.36	603.05
609.70	597.84
610.05	592.61
610.40	587.58
610.75	582.56
611.10	577.77
611.44	572.96
611.79	568.27
612.14	563.45
612.49	558.73
612.83	554.24
613.18	549.82
613.53	545.44
613.88	541.14
614.22	537.14
614.57	533.03
614.92	529.02
615.27	525.14
615.61	521.24
615.96	517.35
616.31	513.48
616.65	509.73
617.00	506.09
617.35	502.51
617.70	498.95
618.04	495.46
618.39	492.02
618.74	488.81
619.08	485.57
619.43	482.47
619.78	479.32
620.12	476.19
620.47	473.21
620.82	470.30
621.16	467.39
621.51	464.55
621.85	461.79
622.20	459.08
622.55	456.29
622.89	453.58
623.24	451.03
623.59	448.49
623.93	446.04
624.28	443.68
624.62	441.53
624.97	439.40
625.32	437.18
625.66	434.94
626.01	432.67
626.35	430.50
626.70	428.27
627.04	426.28
627.39	424.20
627.73	422.20
628.08	420.27
628.43	418.38
628.77	416.38
629.12	414.48
629.46	412.69
629.81	411.01
630.15	409.24
630.50	407.46
630.84	405.76
631.19	404.10
631.53	402.51
631.88	400.75
632.22	399.05
632.57	397.62
632.91	396.16
633.26	394.79
633.60	393.45
633.95	392.15
634.29	390.73
634.64	389.38
634.98	387.90
635.32	386.57
635.67	385.37
636.01	384.18
636.36	383.02
636.70	381.94
637.05	380.72
637.39	379.62
637.73	378.56
638.08	377.54
638.42	376.56
638.77	375.44
639.11	374.31
639.45	373.21
639.80	372.06
640.14	370.97
640.49	369.85
640.83	368.74
641.17	367.70
641.52	366.64
641.86	365.64
642.20	364.79
642.55	363.78
642.89	362.79
643.23	361.83
643.58	361.00
643.92	359.98
644.26	359.06
644.61	358.21
644.95	357.26
645.29	356.29
645.64	355.26
645.98	354.36
646.32	353.53
646.66	352.68
647.01	351.83
647.35	351.08
647.69	350.29
648.04	349.58
648.38	348.79
648.72	348.06
649.06	347.31
649.41	346.52
649.75	345.78
650.09	345.07
650.43	344.35
650.78	343.59
651.12	342.86
651.46	342.13
651.80	341.41
652.14	340.73
652.49	340.13
652.83	339.45
653.17	338.76
653.51	338.07
653.85	337.49
654.20	336.88
654.54	336.17
654.88	335.49
655.22	334.87
655.56	334.21
655.90	333.57
656.25	332.92
656.59	332.29
656.93	331.67
657.27	331.12
657.61	330.50
657.95	329.94
658.29	329.38
658.64	328.83
658.98	328.22
659.32	327.64
659.66	327.06
660.00	326.57
660.34	326.03
660.68	325.47
661.02	324.85
661.36	324.26
661.70	323.70
662.05	323.16
662.39	322.60
662.73	322.14
663.07	321.71
663.41	321.24
663.75	320.72
664.09	320.22
664.43	319.58
664.77	319.04
665.11	318.46
665.45	317.91
665.79	317.41
666.13	316.86
666.47	316.30
666.81	315.74
667.15	315.13
667.49	314.67
667.83	314.25
668.17	313.76
668.51	313.34
668.85	312.92
669.19	312.55
669.53	312.03
669.87	311.47
670.21	310.93
670.55	310.42
670.89	310.04
671.23	309.56
671.57	309.18
671.91	308.84
672.25	308.47
672.58	308.15
672.92	307.70
673.26	307.37
673.60	307.00
673.94	306.60
674.28	306.26
674.62	305.86
674.96	305.39
675.30	305.00
675.64	304.55
675.97	304.10
676.31	303.58
676.65	303.15
676.99	302.81
677.33	302.36
677.67	301.96
678.01	301.47
678.34	301.05
678.68	300.62
679.02	300.13
679.36	299.68
679.70	299.20
680.04	298.78
680.37	298.35
680.71	297.96
681.05	297.58
681.39	297.14
681.73	296.66
682.06	296.23
682.40	295.82
682.74	295.45
683.08	295.15
683.42	294.79
683.75	294.44
684.09	293.99
684.43	293.60
684.77	293.18
685.10	292.80
685.44	292.40
685.78	292.02
686.12	291.63
686.45	291.24
686.79	290.80
687.13	290.42
687.46	289.95
687.80	289.54
688.14	289.08
688.48	288.66
688.81	288.25
689.15	287.90
689.49	287.47
689.82	287.04
690.16	286.50
690.50	286.05
690.83	285.60
691.17	285.14
691.51	284.72
691.84	284.35
692.18	283.92
692.52	283.48
692.85	283.04
693.19	282.66
693.52	282.25
693.86	281.82
694.20	281.39
694.53	281.00
694.87	280.55
695.21	280.12
695.54	279.71
695.88	279.27
696.21	278.78
696.55	278.35
696.88	277.92
697.22	277.50
697.56	277.11
697.89	276.65
698.23	276.27
698.56	275.84
698.90	275.43
699.23	274.98
699.57	274.60
699.90	274.20
700.24	273.76
700.58	273.36
700.91	273.02
701.25	272.79
701.58	272.50
701.92	272.18
702.25	271.83
702.59	271.44
702.92	271.08
703.26	270.71
703.59	270.33
703.93	270.11
704.26	269.75
704.60	269.37
704.93	269.02
705.26	268.61
705.60	268.29
705.93	267.87
706.27	267.59
706.60	267.27
706.94	266.96
707.27	266.55
707.61	266.17
707.94	265.78
708.27	265.27
708.61	264.82
708.94	264.42
709.28	264.06
709.61	263.69
709.94	263.32
710.28	262.99
710.61	262.69
710.95	262.20
711.28	261.98
711.61	261.64
711.95	261.36
712.28	261.03
712.61	260.68
712.95	260.45
713.28	260.19
713.61	259.83
713.95	259.45
714.28	259.19
714.61	258.87
714.95	258.57
715.28	258.25
715.61	257.97
715.95	257.70
716.28	257.39
716.61	257.15
716.95	256.88
717.28	256.60
717.61	256.29
717.94	256.03
718.28	255.63
718.61	255.37
718.94	255.05
719.27	254.80
719.61	254.56
719.94	254.27
720.27	253.91
720.60	253.66
720.94	253.40
721.27	253.14
721.60	252.91
721.93	252.66
722.27	252.47
722.60	252.24
722.93	251.96
723.26	251.73
723.59	251.45
723.93	251.22
724.26	251.01
724.59	250.78
724.92	250.57
725.25	250.40
725.59	250.19
725.92	250.00
726.25	249.78
726.58	249.55
726.91	249.31
727.24	249.13
727.57	248.91
727.91	248.66
728.24	248.48
728.57	248.27
728.90	248.09
729.23	247.83
729.56	247.71
729.89	247.54
730.22	247.36
730.55	247.16
730.89	246.98
731.22	246.78
731.55	246.59
731.88	246.41
732.21	246.19
732.54	245.98
732.87	245.79
733.20	245.63
733.53	245.46
733.86	245.32
734.19	245.13
734.52	244.99
734.85	244.95
735.18	244.76
735.51	244.65
735.84	244.49
736.17	244.37
736.50	244.12
736.83	244.15
737.16	243.98
737.49	243.83
737.82	243.66
738.15	243.51
738.48	243.36
738.81	243.18
739.14	243.01
739.47	242.84
739.80	242.68
740.13	242.54
740.46	242.36
740.79	242.18
741.12	242.03
741.45	241.83
741.78	241.59
742.11	241.49
742.44	241.29
742.77	241.18
743.10	241.01
743.43	240.86
743.75	240.53
744.08	240.68
744.41	240.53
744.74	240.39
745.07	240.23
745.40	240.12
745.73	240.06
746.06	239.94
746.39	239.84
746.71	239.70
747.04	239.55
747.37	239.41
747.70	239.31
748.03	239.18
748.36	239.11
748.68	238.99
749.01	238.82
749.34	238.71
749.67	238.60
750.00	238.52
750.33	238.53
750.65	238.44
750.98	238.04
751.31	237.95
751.64	237.85
751.97	237.84
752.29	237.72
752.62	237.54
752.95	237.41
753.28	237.29
753.60	237.18
753.93	237.12
754.26	237.04
754.59	236.91
754.91	236.78
755.24	236.64
755.57	236.54
755.90	236.45
756.22	236.30
756.55	236.17
756.88	236.01
757.20	235.79
757.53	235.62
757.86	235.53
758.19	235.44
758.51	235.34
758.84	235.15
759.17	235.04
759.49	234.96
759.82	234.98
760.15	234.90
760.47	234.82
760.80	234.68
761.13	234.64
761.45	234.54
761.78	234.48
762.11	234.41
762.43	234.31
762.76	234.20
763.08	234.17
763.41	234.10
763.74	234.05
764.06	233.96
764.39	233.90
764.71	233.83
765.04	233.74
765.37	233.64
765.69	233.57
766.02	233.52
766.34	233.43
766.67	233.29
767.00	233.25
767.32	233.28
767.65	233.34
767.97	233.23
768.30	233.18
768.62	233.11
768.95	233.03
769.27	232.95
769.60	232.93
769.92	232.83
770.25	232.74
770.57	232.64
770.90	232.59
771.22	232.53
771.55	232.46
771.87	232.41
772.20	232.36
772.52	232.46
772.85	232.61
773.17	232.56
773.50	232.50
773.82	232.43
774.15	232.28
774.47	232.11
774.80	232.05
775.12	232.01
775.45	231.94
775.77	231.91
776.09	231.90
776.42	231.86
776.74	231.87
777.07	231.84
777.39	231.82
777.72	231.77
778.04	231.76
778.36	231.72
778.69	231.70
779.01	231.68
779.33	231.48
779.66	231.25
779.98	231.22
780.31	231.19
780.63	231.23
780.95	231.22
781.28	231.18
781.60	231.14
781.92	231.10
782.25	231.07
782.57	231.05
782.89	231.00
783.22	230.96
783.54	230.90
783.86	230.88
784.19	230.84
784.51	230.86
784.83	230.80
785.16	230.78
785.48	230.74
785.80	230.71
786.12	230.68
786.45	230.64
786.77	230.62
787.09	230.58
787.42	230.48
787.74	230.46
788.06	230.43
788.38	230.39
788.71	230.34
789.03	230.32
789.35	230.32
789.67	230.29
789.99	230.26
790.32	230.22
790.64	230.21
790.96	230.35
791.28	230.26
791.61	230.23
791.93	230.19
792.25	230.16
792.57	230.26
792.89	230.23
793.21	230.21
793.54	230.16
793.86	230.13
794.18	230.12
794.50	230.07
794.82	230.05
795.14	230.07
795.47	230.10
795.79	230.09
796.11	230.01
796.43	229.98
796.75	229.96
797.07	229.93
797.39	229.90
797.71	229.72
798.04	229.72
798.36	229.70
798.68	229.68
799.00	229.68
799.32	229.56
799.64	229.57
799.96	229.56
800.28	229.57
800.60	229.55
800.92	229.52
801.24	229.49
801.56	229.49
801.89	229.45
802.21	229.42
802.53	229.37
802.85	229.40
803.17	229.45
803.49	229.40
803.81	229.37
804.13	229.34
804.45	229.29
804.77	229.27
805.09	229.24
805.41	229.21
805.73	229.17
806.05	229.11
806.37	229.08
806.69	229.04
807.01	228.99
807.33	228.98
807.65	228.92
807.97	228.99
808.28	228.95
808.60	228.92
808.92	228.87
809.24	228.97
809.56	228.93
809.88	228.85
810.20	228.86
810.52	228.89
810.84	228.86
811.16	228.85
811.48	228.84
811.80	228.90
812.12	228.90
812.43	228.92
812.75	228.91
813.07	228.88
813.39	228.88
813.71	228.84
814.03	228.81
814.35	228.82
814.67	228.72
814.98	228.69
815.30	228.68
815.62	228.63
815.94	228.51
816.26	228.50
816.58	228.46
816.89	228.45
817.21	228.40
817.53	228.40
817.85	228.41
818.17	228.38
818.48	228.29
818.80	228.31
819.12	228.28
819.44	228.24
819.76	228.21
820.07	228.18
820.39	228.19
820.71	228.19
821.03	228.16
821.34	228.16
821.66	228.17
821.98	228.18
822.30	228.19
822.61	228.29
822.93	228.26
823.25	228.25
823.57	228.22
823.88	228.22
824.20	228.20
824.52	228.22
824.83	228.21
825.15	228.20
825.47	228.18
825.79	228.17
826.10	228.15
826.42	228.15
826.74	228.16
827.05	228.16
827.37	228.18
827.69	228.15
828.00	228.16
828.32	228.14
828.64	228.12
828.95	228.20
829.27	228.15
829.58	228.15
829.90	228.18
830.22	228.18
830.53	228.16
830.85	228.14
831.17	228.07
831.48	228.09
831.80	228.09
832.11	228.07
832.43	228.07
832.75	228.06
833.06	228.18
833.38	228.11
833.69	228.10
834.01	228.09
834.32	228.09
834.64	228.06
834.96	228.04
835.27	228.03
835.59	227.97
835.90	227.94
836.22	227.93
836.53	227.88
836.85	227.85
837.16	228.01
837.48	228.01
837.79	228.06
838.11	228.04
838.42	228.04
838.74	228.06
839.05	228.02
839.37	228.02
839.68	227.90
840.00	227.89
840.31	227.90
840.63	227.88
840.94	227.87
841.26	227.86
841.57	227.85
841.88	227.87
842.20	227.84
842.51	227.80
842.83	227.79
843.14	227.95
843.46	227.95
843.77	227.84
844.08	227.84
844.40	227.78
844.71	227.76
845.03	227.74
845.34	227.70
845.65	227.71
845.97	227.70
846.28	227.70
846.60	227.72
846.91	227.69
847.22	227.67
847.54	227.70
847.85	227.71
848.16	227.68
848.48	227.64
848.79	227.71
849.10	227.72
849.42	227.73
849.73	227.58
850.04	227.56
850.36	227.50
850.67	227.52
850.98	227.53
851.30	227.53
851.61	227.51
851.92	227.50
852.23	227.55
852.55	227.55
852.86	227.56
853.17	227.56
853.49	227.59
853.80	227.63
854.11	227.64
854.42	227.67
854.74	227.65
855.05	227.65
855.36	227.55
855.67	227.55
855.99	227.54
856.30	227.74
856.61	227.74
856.92	227.74
857.23	227.75
857.55	227.72
857.86	227.71
858.17	227.75
858.48	227.72
858.79	227.67
859.11	227.67
859.42	227.65
859.73	227.62
860.04	227.61
860.35	227.57
860.66	227.50
860.98	227.48
861.29	227.52
861.60	227.51
861.91	227.56
862.22	227.54
862.53	227.50
862.84	227.29
863.16	227.34
863.47	227.31
863.78	227.29
864.09	227.32
864.40	227.32
864.71	227.30
865.02	227.33
865.33	227.31
865.64	227.29
865.95	227.29
866.27	227.40
866.58	227.38
866.89	227.39
867.20	227.38
867.51	227.35
867.82	227.34
868.13	227.39
868.44	227.35
868.75	227.38
869.06	227.38
869.37	227.39
869.68	227.32
869.99	227.35
870.30	227.35
870.61	227.35
870.92	227.34
871.23	227.33
871.54	227.37
871.85	227.41
872.16	227.42
872.47	227.40
872.78	227.31
873.09	227.32
873.40	227.28
873.71	227.30
874.02	227.31
874.33	227.29
874.64	227.22
874.95	227.24
875.26	227.20
875.56	227.21
875.87	227.20
876.18	227.19
876.49	227.38
876.80	227.36
877.11	227.33
877.42	227.32
877.73	227.33
878.04	227.28
878.35	227.28
878.66	227.29
878.96	227.30
879.27	227.29
879.58	227.27
879.89	227.28
880.20	227.34
880.51	227.32
880.82	227.33
881.12	227.35
881.43	227.31
881.74	227.29
882.05	227.28
882.36	227.28
882.67	227.30
882.97	227.09
883.28	227.09
883.59	227.08
883.90	227.11
884.21	227.13
884.51	227.13
884.82	227.10
885.13	227.11
885.44	227.10
885.74	227.12
886.05	227.12
886.36	227.12
886.67	227.06
886.98	227.17
887.28	227.18
887.59	227.17
887.90	227.20
888.20	227.20
888.51	227.23
888.82	227.21
889.13	227.23
889.43	227.42
889.74	227.41
890.05	227.41
890.35	227.39
890.66	227.36
890.97	227.34
891.28	227.32
891.58	227.32
891.89	227.32
892.20	227.30
892.50	227.29
892.81	227.27
893.12	227.28
893.42	227.18
893.73	227.18
894.04	227.18
894.34	227.19
894.65	227.19
894.95	227.19
895.26	227.20
895.57	227.27
895.87	227.07
896.18	227.11
896.48	227.12
896.79	227.13
897.10	227.15
897.40	227.17
897.71	227.18
898.01	227.18
898.32	227.21
898.63	227.21
898.93	227.22
899.24	227.25
899.54	227.24
899.85	227.23
900.15	227.23
900.46	227.24
900.76	227.25
901.07	227.24
901.38	227.24
901.68	227.27
901.99	227.17
902.29	227.18
902.60	227.14
902.90	227.12
903.21	227.09
903.51	227.06
903.82	227.09
904.12	227.10
904.43	227.09
904.73	227.08
905.03	227.07
905.34	227.24
905.64	227.22
905.95	227.21
906.25	227.21
906.56	227.19
906.86	227.17
907.17	227.14
907.47	227.15
907.77	227.10
908.08	227.05
908.38	227.04
908.69	227.06
908.99	227.12
909.30	227.14
909.60	227.15
909.90	227.16
910.21	227.11
910.51	227.07
910.81	227.06
911.12	227.06
911.42	227.08
911.73	226.88
912.03	226.91
912.33	226.95
912.64	226.95
912.94	226.93
913.24	226.93
913.55	226.93
913.85	226.93
914.15	226.97
914.46	226.99
914.76	226.99
915.06	226.98
915.37	226.94
915.67	226.93
915.97	226.94
916.27	226.92
916.58	226.94
916.88	226.96
917.18	226.94
917.49	227.07
917.79	227.05
918.09	227.10
918.39	227.14
918.70	227.12
919.00	227.11
919.30	227.19
919.60	227.19
919.91	227.17
920.21	227.18
920.51	227.14
920.81	227.13
921.12	227.18
921.42	227.17
921.72	227.18
922.02	227.19
922.32	227.21
922.63	227.19
922.93	227.27
923.23	227.29
923.53	227.26
923.83	227.13
924.13	227.15
924.44	227.12
924.74	227.15
925.04	227.20
925.34	227.20
925.64	227.14
925.94	227.15
926.24	227.24
926.55	227.23
926.85	227.28
927.15	227.28
927.45	227.26
927.75	227.26
928.05	227.25
928.35	227.25
928.65	227.26
928.95	227.29
929.26	227.23
929.56	227.27
929.86	227.29
930.16	227.28
930.46	227.27
930.76	227.28
931.06	227.19
931.36	227.13
931.66	227.16
931.96	227.19
932.26	227.21
932.56	227.13
932.86	227.15
933.16	227.14
933.46	227.14
933.76	227.10
934.06	227.15
934.36	227.21
934.66	227.19
934.96	227.18
935.26	227.19
935.56	227.21
935.86	227.14
936.16	227.13
936.46	227.12
936.76	227.12
937.06	227.08
937.36	227.12
937.66	227.14
937.96	227.12
938.26	227.05
938.56	227.02
938.86	227.03
939.16	227.07
939.46	227.07
939.76	227.08
940.06	227.09
940.35	227.03
940.65	226.96
940.95	226.97
941.25	226.93
941.55	226.90
941.85	226.87
942.15	226.92
942.45	226.97
942.75	226.96
943.04	226.96
943.34	226.99
943.64	226.95
943.94	226.93
944.24	226.93
944.54	226.96
944.84	226.96
945.13	226.94
945.43	226.89
945.73	226.89
946.03	226.89
946.33	226.87
946.62	226.86
946.92	226.84
947.22	226.85
947.52	226.88
947.82	226.90
948.11	226.89
948.41	226.86
948.71	226.80
949.01	226.81
949.31	226.81
949.60	226.80
949.90	226.82
950.20	226.82
950.50	226.84
950.79	226.82
951.09	226.85
951.39	226.83
951.69	226.82
951.98	226.85
952.28	226.85
952.58	226.83
952.87	226.83
953.17	226.86
953.47	226.86
953.76	226.84
954.06	226.81
954.36	226.77
954.66	226.76
954.95	226.83
955.25	226.82
955.55	226.83
955.84	226.81
956.14	226.82
956.44	226.82
956.73	226.80
957.03	226.81
957.32	226.80
957.62	226.81
957.92	226.85
958.21	226.81
958.51	227.00
958.81	227.03
959.10	227.04
959.40	227.08
959.69	227.08
959.99	227.10
960.29	227.10
960.58	227.10
960.88	227.17
961.17	227.14
961.47	227.17
961.76	227.16
962.06	227.19
962.36	227.16
962.65	227.18
962.95	227.18
963.24	227.16
963.54	227.16
963.83	227.17
964.13	227.14
964.42	227.13
964.72	226.98
965.01	226.97
965.31	226.97
965.60	226.90
965.90	227.01
966.19	226.97
966.49	226.98
966.78	226.95
967.08	226.92
967.37	226.91
967.67	226.86
967.96	226.87
968.26	226.84
968.55	226.85
968.85	226.83
969.14	226.82
969.43	226.82
969.73	226.80
970.02	226.78
970.32	226.77
970.61	226.76
970.91	226.71
971.20	226.69
971.49	226.66
971.79	226.71
972.08	226.59
972.38	226.61
972.67	226.61
972.96	226.65
973.26	226.63
973.55	226.69
973.85	226.69
974.14	226.68
974.43	226.70
974.73	226.69
975.02	226.68
975.31	226.68
975.61	226.69
975.90	226.68
976.19	226.67
976.49	226.70
976.78	226.69
977.07	226.70
977.37	226.71
977.66	226.75
977.95	226.72
978.24	226.73
978.54	226.77
978.83	226.76
979.12	226.75
979.42	226.74
979.71	226.71
980.00	226.71
980.29	226.72
980.59	226.69
980.88	226.72
981.17	226.74
981.46	226.75
981.76	226.75
982.05	226.81
982.34	226.82
982.63	226.82
982.93	226.81
983.22	226.85
983.51	226.86
983.80	226.88
984.09	226.89
984.39	226.90
984.68	226.86
984.97	226.87
985.26	226.86
985.55	226.88
985.85	226.83
986.14	226.86
986.43	226.89
986.72	226.89
987.01	226.85
987.30	226.84
987.59	226.83
987.89	226.83
988.18	226.75
988.47	226.75
988.76	226.73
989.05	226.73
989.34	226.69
989.63	226.74
989.92	226.70
990.22	226.68
990.51	226.67
990.80	226.65
991.09	226.67
991.38	226.69
991.67	226.68
991.96	226.67
992.25	226.67
992.54	226.63
992.83	226.62
993.12	226.61
993.41	226.63
993.70	226.71
993.99	226.75
994.28	226.79
994.58	226.81
994.87	226.79
995.16	226.78
995.45	226.77
995.74	226.69
996.03	226.72
996.32	226.75
996.61	226.78
996.90	226.79
997.19	226.78
997.48	226.77
997.77	226.76
998.06	226.78
998.34	226.74
998.63	226.74
998.92	226.76
999.21	226.80
999.50	226.80
999.79	226.72
1000.08	226.70
1000.37	226.70
1000.66	226.67
1000.95	226.73
1001.24	226.75
1001.53	226.77
1001.82	226.79
1002.11	226.75
1002.40	226.77
1002.68	226.81
1002.97	226.94
1003.26	226.93
1003.55	226.91
1003.84	226.93
1004.13	226.98
1004.42	226.99
1004.71	227.00
1004.99	226.97
1005.28	226.99
1005.57	226.97
1005.86	226.97
1006.15	226.97
1006.44	226.93
1006.72	226.97
1007.01	226.94
1007.30	226.93
1007.59	226.91
1007.88	226.91
1008.17	226.91
1008.45	226.87
1008.74	226.80
1009.03	226.72
1009.32	226.71
1009.60	226.70
1009.89	226.67
1010.18	226.59
1010.47	226.59
1010.76	226.60
1011.04	226.61
1011.33	226.62
1011.62	226.63
1011.91	226.64
1012.19	226.64
1012.48	226.65
1012.77	226.64
1013.05	226.69
1013.34	226.70
1013.63	226.69
1013.92	226.70
1014.20	226.69
1014.49	226.71
1014.78	226.73
1015.06	226.67
1015.35	226.68
1015.64	226.71
1015.92	226.74
1016.21	226.76
1016.50	226.76
1016.78	226.77
1017.07	226.79
1017.36	226.75
1017.64	226.71
1017.93	226.72
1018.22	226.70
1018.50	226.69
1018.79	226.67
1019.08	226.60
1019.36	226.60
1019.65	226.59
1019.93	226.62
1020.22	226.66
1020.51	226.74
1020.79	226.71
1021.08	226.43
1021.36	226.20
1021.65	226.55
1021.94	226.35
1022.22	226.74
1022.51	226.31
1022.79	227.20
1023.08	227.07
1023.36	228.73
1023.65	226.34
>>>>>End Processed Spectral Data<<<<<
