SpectraSuite Data File
++++++++++++++++++++++++++++++++++++
Date: Tue Oct 06 19:08:34 EDT 2015
User: lab3
Dark Spectrum Present: No
Reference Spectrum Present: No
Number of Sampled Component Spectra: 1
Spectrometers: USB2E7196
Integration Time (usec): 66000 (USB2E7196)
Spectra Averaged: 3000 (USB2E7196)
Boxcar Smoothing: 10 (USB2E7196)
Correct for Electrical Dark: No (USB2E7196)
Strobe/Lamp Enabled: No (USB2E7196)
Correct for Detector Non-linearity: No (USB2E7196)
Correct for Stray Light: No (USB2E7196)
Number of Pixels in Processed Spectrum: 2048
>>>>>Begin Processed Spectral Data<<<<<
339.09	0.00
339.48	214.86
339.86	216.37
340.24	217.66
340.63	219.09
341.01	223.24
341.39	221.77
341.78	223.27
342.16	224.63
342.54	224.86
342.93	213.37
343.31	224.15
343.69	224.69
344.07	225.15
344.46	225.59
344.84	225.99
345.22	226.19
345.60	226.47
345.99	226.67
346.37	226.81
346.75	226.93
347.13	227.02
347.52	227.11
347.90	227.22
348.28	227.27
348.66	227.36
349.05	227.35
349.43	227.42
349.81	227.50
350.19	227.56
350.57	227.64
350.96	227.73
351.34	227.84
351.72	227.94
352.10	228.06
352.48	228.13
352.87	228.19
353.25	228.25
353.63	228.30
354.01	228.36
354.39	228.44
354.77	228.52
355.15	228.64
355.54	228.68
355.92	228.69
356.30	228.78
356.68	228.96
357.06	229.03
357.44	229.07
357.82	229.13
358.20	229.34
358.58	229.40
358.97	229.46
359.35	229.56
359.73	229.65
360.11	229.70
360.49	229.77
360.87	229.82
361.25	229.90
361.63	230.01
362.01	230.07
362.39	230.09
362.77	230.15
363.15	230.17
363.53	230.21
363.91	230.25
364.29	230.26
364.67	230.11
365.05	230.14
365.43	230.19
365.81	230.22
366.19	230.17
366.57	230.25
366.95	230.25
367.33	230.21
367.71	230.20
368.09	230.24
368.47	230.23
368.85	230.22
369.23	230.24
369.61	230.16
369.99	230.19
370.37	230.21
370.75	230.32
371.13	230.28
371.51	230.22
371.89	230.21
372.27	230.20
372.65	230.18
373.03	230.14
373.41	230.09
373.78	230.04
374.16	229.91
374.54	229.81
374.92	229.76
375.30	229.72
375.68	229.64
376.06	229.59
376.44	229.53
376.82	229.50
377.19	229.46
377.57	229.41
377.95	229.31
378.33	229.24
378.71	229.04
379.09	229.01
379.47	228.99
379.84	228.93
380.22	228.86
380.60	228.77
380.98	228.73
381.36	228.68
381.73	228.62
382.11	228.61
382.49	228.57
382.87	228.51
383.25	228.47
383.62	228.65
384.00	228.58
384.38	228.55
384.76	228.54
385.13	228.55
385.51	228.51
385.89	228.45
386.27	228.42
386.64	228.42
387.02	228.36
387.40	228.31
387.78	228.29
388.15	228.28
388.53	228.25
388.91	228.23
389.29	228.19
389.66	228.20
390.04	228.16
390.42	228.17
390.79	228.17
391.17	228.15
391.55	227.94
391.92	227.93
392.30	227.94
392.68	227.90
393.05	227.88
393.43	227.89
393.81	227.92
394.18	227.90
394.56	227.91
394.94	227.97
395.31	227.98
395.69	228.05
396.06	228.10
396.44	228.14
396.82	228.17
397.19	228.30
397.57	228.33
397.95	228.40
398.32	228.40
398.70	228.47
399.07	228.58
399.45	228.64
399.82	228.71
400.20	228.76
400.58	228.86
400.95	228.88
401.33	229.00
401.70	229.23
402.08	229.37
402.45	229.50
402.83	229.67
403.20	229.83
403.58	229.95
403.95	230.16
404.33	230.38
404.71	230.59
405.08	230.89
405.46	231.13
405.83	231.40
406.21	231.69
406.58	232.01
406.96	232.32
407.33	232.69
407.70	233.10
408.08	233.67
408.45	234.17
408.83	234.69
409.20	235.18
409.58	235.62
409.95	236.23
410.33	236.89
410.70	237.51
411.08	238.25
411.45	239.04
411.82	239.83
412.20	240.74
412.57	241.82
412.95	242.67
413.32	243.79
413.69	244.94
414.07	246.15
414.44	247.48
414.82	248.84
415.19	250.44
415.56	252.06
415.94	253.74
416.31	255.64
416.68	257.54
417.06	259.74
417.43	261.81
417.81	264.18
418.18	266.60
418.55	269.24
418.93	271.97
419.30	274.84
419.67	277.88
420.04	281.01
420.42	284.28
420.79	288.05
421.16	291.85
421.54	295.70
421.91	299.74
422.28	303.93
422.66	308.44
423.03	312.72
423.40	317.21
423.77	322.01
424.15	326.93
424.52	332.03
424.89	337.54
425.26	343.01
425.64	348.09
426.01	353.78
426.38	359.60
426.75	365.60
427.13	371.71
427.50	378.12
427.87	384.78
428.24	391.48
428.61	397.89
428.99	404.81
429.36	412.40
429.73	419.63
430.10	426.85
430.47	434.22
430.85	441.85
431.22	449.98
431.59	458.32
431.96	466.45
432.33	475.50
432.70	484.10
433.08	494.27
433.45	503.86
433.82	513.32
434.19	523.94
434.56	534.41
434.93	544.57
435.30	554.62
435.68	566.01
436.05	577.14
436.42	588.28
436.79	598.47
437.16	609.57
437.53	621.43
437.90	633.28
438.27	644.93
438.64	657.51
439.01	668.93
439.38	679.41
439.75	689.57
440.13	701.12
440.50	712.10
440.87	720.91
441.24	730.62
441.61	741.25
441.98	749.14
442.35	758.49
442.72	768.01
443.09	777.11
443.46	783.07
443.83	787.64
444.20	791.44
444.57	796.91
444.94	800.19
445.31	803.61
445.68	806.59
446.05	808.88
446.42	808.76
446.79	808.41
447.16	808.19
447.53	808.01
447.90	804.78
448.27	801.75
448.64	796.79
449.01	793.45
449.37	786.29
449.74	779.77
450.11	771.30
450.48	761.97
450.85	752.61
451.22	744.56
451.59	736.62
451.96	729.47
452.33	719.02
452.70	709.73
453.07	698.42
453.43	687.13
453.80	676.08
454.17	665.50
454.54	655.74
454.91	644.67
455.28	634.24
455.65	624.40
456.02	613.97
456.38	605.57
456.75	594.78
457.12	586.07
457.49	577.29
457.86	568.98
458.23	561.64
458.59	553.56
458.96	545.28
459.33	538.01
459.70	530.60
460.07	524.94
460.43	518.26
460.80	512.02
461.17	506.58
461.54	500.73
461.91	495.21
462.27	489.61
462.64	485.02
463.01	479.79
463.38	474.51
463.74	469.73
464.11	465.49
464.48	461.66
464.85	457.55
465.21	454.38
465.58	450.87
465.95	446.90
466.32	443.73
466.68	440.63
467.05	437.49
467.42	434.44
467.78	431.19
468.15	428.19
468.52	426.00
468.88	423.09
469.25	420.42
469.62	418.31
469.98	416.03
470.35	413.99
470.72	412.13
471.08	410.27
471.45	408.70
471.82	406.96
472.18	405.13
472.55	403.93
472.92	402.45
473.28	401.30
473.65	400.06
474.02	398.86
474.38	397.86
474.75	397.26
475.11	396.46
475.48	396.07
475.85	395.64
476.21	395.39
476.58	395.21
476.94	395.38
477.31	395.42
477.67	395.48
478.04	395.79
478.41	396.20
478.77	396.78
479.14	397.15
479.50	397.90
479.87	398.88
480.23	399.82
480.60	400.72
480.96	401.63
481.33	403.02
481.69	404.38
482.06	405.73
482.42	406.96
482.79	408.50
483.15	410.31
483.52	412.36
483.88	414.29
484.25	416.35
484.61	418.50
484.98	420.83
485.34	423.46
485.71	426.20
486.07	429.14
486.44	432.02
486.80	435.28
487.17	438.62
487.53	442.24
487.90	446.04
488.26	450.19
488.62	454.54
488.99	458.87
489.35	463.43
489.72	468.33
490.08	473.50
490.44	478.77
490.81	484.25
491.17	489.90
491.54	495.97
491.90	502.15
492.26	508.77
492.63	515.70
492.99	522.94
493.36	530.30
493.72	538.07
494.08	546.03
494.45	554.38
494.81	563.10
495.17	572.06
495.54	581.51
495.90	591.37
496.26	601.42
496.63	611.77
496.99	622.49
497.35	633.72
497.72	645.22
498.08	657.05
498.44	669.18
498.80	681.98
499.17	695.07
499.53	708.61
499.89	722.57
500.26	736.72
500.62	751.20
500.98	766.53
501.34	781.84
501.71	797.97
502.07	814.39
502.43	831.25
502.79	848.32
503.16	865.87
503.52	883.61
503.88	901.78
504.24	920.39
504.60	939.23
504.97	958.69
505.33	978.60
505.69	999.55
506.05	1020.70
506.41	1041.76
506.78	1062.97
507.14	1084.75
507.50	1106.96
507.86	1129.56
508.22	1152.40
508.59	1175.13
508.95	1198.89
509.31	1223.08
509.67	1247.87
510.03	1272.62
510.39	1297.28
510.75	1322.04
511.12	1347.19
511.48	1372.51
511.84	1397.81
512.20	1423.46
512.56	1450.15
512.92	1476.62
513.28	1502.50
513.64	1528.83
514.00	1555.48
514.37	1582.37
514.73	1609.32
515.09	1635.60
515.45	1662.21
515.81	1688.97
516.17	1715.50
516.53	1741.40
516.89	1767.15
517.25	1793.16
517.61	1818.99
517.97	1845.45
518.33	1871.34
518.69	1897.11
519.05	1923.30
519.41	1949.65
519.77	1976.00
520.13	2000.85
520.49	2025.76
520.85	2051.03
521.21	2075.68
521.57	2100.64
521.93	2124.65
522.29	2149.23
522.65	2173.69
523.01	2197.81
523.37	2221.20
523.73	2245.29
524.09	2269.16
524.45	2292.68
524.81	2315.56
525.17	2338.27
525.53	2360.27
525.89	2382.62
526.25	2404.61
526.61	2425.02
526.97	2445.42
527.33	2465.66
527.68	2485.66
528.04	2505.36
528.40	2523.81
528.76	2542.45
529.12	2560.63
529.48	2579.39
529.84	2595.39
530.20	2611.79
530.56	2627.42
530.91	2643.29
531.27	2658.58
531.63	2672.85
531.99	2687.01
532.35	2700.85
532.71	2714.22
533.07	2727.92
533.42	2739.76
533.78	2751.79
534.14	2764.77
534.50	2776.63
534.86	2788.99
535.21	2799.32
535.57	2809.46
535.93	2819.39
536.29	2827.48
536.65	2835.53
537.00	2842.16
537.36	2850.20
537.72	2857.28
538.08	2863.86
538.44	2869.32
538.79	2874.45
539.15	2878.30
539.51	2881.29
539.87	2883.10
540.22	2883.44
540.58	2884.02
540.94	2885.44
541.29	2885.66
541.65	2884.58
542.01	2883.17
542.37	2880.09
542.72	2878.54
543.08	2875.29
543.44	2872.31
543.79	2869.06
544.15	2865.01
544.51	2861.09
544.87	2856.14
545.22	2850.23
545.58	2844.20
545.94	2838.31
546.29	2830.94
546.65	2823.86
547.01	2816.91
547.36	2810.42
547.72	2804.07
548.07	2796.01
548.43	2786.85
548.79	2777.49
549.14	2768.39
549.50	2759.34
549.86	2749.46
550.21	2737.97
550.57	2727.61
550.92	2715.53
551.28	2703.89
551.64	2692.50
551.99	2680.80
552.35	2668.67
552.70	2656.48
553.06	2644.68
553.41	2632.42
553.77	2620.02
554.13	2607.59
554.48	2594.07
554.84	2579.74
555.19	2565.87
555.55	2551.91
555.90	2538.44
556.26	2525.22
556.61	2510.89
556.97	2495.58
557.32	2480.73
557.68	2466.26
558.03	2451.49
558.39	2437.66
558.74	2424.36
559.10	2409.20
559.45	2394.22
559.81	2379.96
560.16	2365.29
560.52	2350.40
560.87	2335.73
561.23	2320.68
561.58	2306.23
561.94	2291.31
562.29	2275.87
562.64	2260.59
563.00	2245.41
563.35	2230.34
563.71	2214.94
564.06	2199.68
564.42	2185.02
564.77	2170.37
565.12	2155.37
565.48	2140.16
565.83	2125.16
566.19	2110.08
566.54	2095.24
566.89	2079.95
567.25	2064.55
567.60	2049.99
567.96	2034.68
568.31	2018.17
568.66	2002.64
569.02	1987.56
569.37	1973.08
569.72	1959.24
570.08	1944.88
570.43	1929.95
570.78	1914.88
571.14	1899.63
571.49	1884.43
571.84	1869.47
572.20	1853.32
572.55	1838.01
572.90	1822.77
573.26	1807.50
573.61	1791.65
573.96	1776.38
574.31	1760.92
574.67	1745.25
575.02	1729.29
575.37	1713.40
575.72	1698.26
576.08	1682.74
576.43	1666.62
576.78	1650.67
577.13	1634.91
577.49	1619.43
577.84	1604.41
578.19	1588.89
578.54	1573.44
578.90	1557.91
579.25	1542.26
579.60	1527.80
579.95	1513.03
580.30	1498.19
580.66	1483.11
581.01	1468.09
581.36	1453.21
581.71	1439.11
582.06	1425.00
582.42	1410.73
582.77	1396.93
583.12	1383.33
583.47	1369.72
583.82	1356.27
584.17	1342.38
584.53	1328.55
584.88	1315.00
585.23	1301.29
585.58	1288.02
585.93	1274.63
586.28	1262.24
586.63	1249.67
586.98	1236.70
587.34	1224.10
587.69	1211.33
588.04	1198.92
588.39	1186.77
588.74	1174.20
589.09	1161.78
589.44	1149.11
589.79	1136.99
590.14	1124.93
590.49	1112.92
590.84	1101.18
591.19	1089.71
591.54	1078.36
591.89	1066.61
592.25	1055.24
592.60	1043.74
592.95	1032.36
593.30	1021.38
593.65	1010.09
594.00	999.09
594.35	988.99
594.70	978.19
595.05	968.02
595.40	957.64
595.75	947.14
596.10	937.25
596.45	927.36
596.80	917.80
597.15	908.23
597.50	898.66
597.85	889.32
598.19	879.98
598.54	870.68
598.89	861.88
599.24	853.48
599.59	844.89
599.94	836.93
600.29	828.98
600.64	820.84
600.99	812.58
601.34	804.59
601.69	796.12
602.04	788.54
602.39	780.83
602.74	773.33
603.08	765.99
603.43	758.61
603.78	751.21
604.13	743.88
604.48	736.63
604.83	729.59
605.18	722.63
605.53	715.81
605.87	708.95
606.22	702.19
606.57	695.35
606.92	688.43
607.27	681.55
607.62	674.89
607.96	668.46
608.31	662.51
608.66	656.49
609.01	650.71
609.36	644.89
609.70	639.03
610.05	633.17
610.40	627.50
610.75	621.80
611.10	616.32
611.44	610.86
611.79	605.50
612.14	600.07
612.49	594.73
612.83	589.66
613.18	584.64
613.53	579.62
613.88	574.75
614.22	570.23
614.57	565.62
614.92	561.09
615.27	556.71
615.61	552.20
615.96	547.71
616.31	543.26
616.65	538.95
617.00	534.77
617.35	530.65
617.70	526.53
618.04	522.54
618.39	518.65
618.74	515.00
619.08	511.31
619.43	507.74
619.78	504.11
620.12	500.47
620.47	497.06
620.82	493.72
621.16	490.40
621.51	487.12
621.85	483.86
622.20	480.68
622.55	477.42
622.89	474.24
623.24	471.25
623.59	468.30
623.93	465.43
624.28	462.70
624.62	460.14
624.97	457.61
625.32	454.98
625.66	452.32
626.01	449.64
626.35	447.12
626.70	444.52
627.04	442.12
627.39	439.68
627.73	437.33
628.08	435.03
628.43	432.74
628.77	430.38
629.12	428.13
629.46	426.00
629.81	424.01
630.15	421.94
630.50	419.89
630.84	417.88
631.19	415.91
631.53	414.02
631.88	411.96
632.22	410.01
632.57	408.33
632.91	406.62
633.26	404.98
633.60	403.34
633.95	401.79
634.29	400.13
634.64	398.53
634.98	396.79
635.32	395.24
635.67	393.84
636.01	392.43
636.36	391.07
636.70	389.79
637.05	388.34
637.39	387.05
637.73	385.74
638.08	384.51
638.42	383.32
638.77	382.00
639.11	380.66
639.45	379.35
639.80	377.99
640.14	376.72
640.49	375.43
640.83	374.15
641.17	372.92
641.52	371.72
641.86	370.56
642.20	369.54
642.55	368.34
642.89	367.16
643.23	366.05
643.58	365.06
643.92	363.90
644.26	362.85
644.61	361.83
644.95	360.78
645.29	359.66
645.64	358.50
645.98	357.47
646.32	356.56
646.66	355.58
647.01	354.64
647.35	353.78
647.69	352.89
648.04	352.07
648.38	351.19
648.72	350.36
649.06	349.50
649.41	348.62
649.75	347.79
650.09	347.00
650.43	346.17
650.78	345.32
651.12	344.52
651.46	343.72
651.80	342.94
652.14	342.22
652.49	341.55
652.83	340.83
653.17	340.07
653.51	339.34
653.85	338.71
654.20	338.03
654.54	337.25
654.88	336.50
655.22	335.83
655.56	335.13
655.90	334.44
656.25	333.78
656.59	333.13
656.93	332.52
657.27	331.95
657.61	331.32
657.95	330.74
658.29	330.14
658.64	329.56
658.98	328.92
659.32	328.29
659.66	327.70
660.00	327.15
660.34	326.59
660.68	325.99
661.02	325.34
661.36	324.73
661.70	324.18
662.05	323.64
662.39	323.08
662.73	322.62
663.07	322.19
663.41	321.72
663.75	321.20
664.09	320.69
664.43	320.06
664.77	319.54
665.11	318.95
665.45	318.42
665.79	317.94
666.13	317.42
666.47	316.89
666.81	316.33
667.15	315.74
667.49	315.29
667.83	314.88
668.17	314.44
668.51	314.02
668.85	313.61
669.19	313.26
669.53	312.73
669.87	312.19
670.21	311.65
670.55	311.15
670.89	310.75
671.23	310.31
671.57	309.93
671.91	309.58
672.25	309.25
672.58	308.92
672.92	308.48
673.26	308.14
673.60	307.79
673.94	307.43
674.28	307.11
674.62	306.75
674.96	306.32
675.30	305.94
675.64	305.51
675.97	305.07
676.31	304.59
676.65	304.19
676.99	303.89
677.33	303.47
677.67	303.10
678.01	302.64
678.34	302.24
678.68	301.86
679.02	301.42
679.36	300.99
679.70	300.55
680.04	300.17
680.37	299.77
680.71	299.40
681.05	299.05
681.39	298.64
681.73	298.19
682.06	297.77
682.40	297.38
682.74	297.04
683.08	296.76
683.42	296.41
683.75	296.07
684.09	295.62
684.43	295.25
684.77	294.84
685.10	294.46
685.44	294.08
685.78	293.68
686.12	293.30
686.45	292.91
686.79	292.48
687.13	292.08
687.46	291.65
687.80	291.25
688.14	290.79
688.48	290.39
688.81	289.98
689.15	289.64
689.49	289.22
689.82	288.79
690.16	288.27
690.50	287.82
690.83	287.39
691.17	286.95
691.51	286.54
691.84	286.17
692.18	285.75
692.52	285.30
692.85	284.88
693.19	284.52
693.52	284.10
693.86	283.69
694.20	283.27
694.53	282.86
694.87	282.41
695.21	281.98
695.54	281.56
695.88	281.12
696.21	280.64
696.55	280.21
696.88	279.79
697.22	279.38
697.56	279.00
697.89	278.55
698.23	278.16
698.56	277.72
698.90	277.33
699.23	276.89
699.57	276.50
699.90	276.10
700.24	275.65
700.58	275.26
700.91	274.92
701.25	274.69
701.58	274.39
701.92	274.06
702.25	273.70
702.59	273.31
702.92	272.94
703.26	272.55
703.59	272.17
703.93	271.93
704.26	271.57
704.60	271.18
704.93	270.80
705.26	270.40
705.60	270.07
705.93	269.64
706.27	269.35
706.60	269.02
706.94	268.72
707.27	268.32
707.61	267.96
707.94	267.55
708.27	267.03
708.61	266.59
708.94	266.18
709.28	265.82
709.61	265.46
709.94	265.14
710.28	264.81
710.61	264.50
710.95	264.01
711.28	263.79
711.61	263.44
711.95	263.15
712.28	262.81
712.61	262.46
712.95	262.24
713.28	261.97
713.61	261.61
713.95	261.24
714.28	260.93
714.61	260.58
714.95	260.27
715.28	259.95
715.61	259.66
715.95	259.38
716.28	259.07
716.61	258.81
716.95	258.49
717.28	258.19
717.61	257.89
717.94	257.61
718.28	257.20
718.61	256.91
718.94	256.60
719.27	256.33
719.61	256.09
719.94	255.77
720.27	255.40
720.60	255.14
720.94	254.87
721.27	254.62
721.60	254.40
721.93	254.13
722.27	253.92
722.60	253.66
722.93	253.38
723.26	253.16
723.59	252.87
723.93	252.65
724.26	252.43
724.59	252.18
724.92	251.96
725.25	251.79
725.59	251.57
725.92	251.36
726.25	251.13
726.58	250.90
726.91	250.67
727.24	250.47
727.57	250.24
727.91	249.99
728.24	249.79
728.57	249.55
728.90	249.35
729.23	249.08
729.56	248.95
729.89	248.75
730.22	248.52
730.55	248.32
730.89	248.11
731.22	247.90
731.55	247.70
731.88	247.50
732.21	247.27
732.54	247.07
732.87	246.88
733.20	246.70
733.53	246.52
733.86	246.35
734.19	246.15
734.52	246.01
734.85	245.97
735.18	245.77
735.51	245.65
735.84	245.50
736.17	245.39
736.50	245.13
736.83	245.17
737.16	245.00
737.49	244.84
737.82	244.67
738.15	244.52
738.48	244.36
738.81	244.18
739.14	243.99
739.47	243.81
739.80	243.65
740.13	243.50
740.46	243.31
740.79	243.12
741.12	242.94
741.45	242.75
741.78	242.49
742.11	242.38
742.44	242.17
742.77	242.03
743.10	241.84
743.43	241.69
743.75	241.34
744.08	241.47
744.41	241.32
744.74	241.16
745.07	240.98
745.40	240.87
745.73	240.80
746.06	240.68
746.39	240.58
746.71	240.43
747.04	240.27
747.37	240.13
747.70	240.03
748.03	239.90
748.36	239.81
748.68	239.68
749.01	239.50
749.34	239.39
749.67	239.26
750.00	239.16
750.33	239.17
750.65	239.07
750.98	238.69
751.31	238.58
751.64	238.49
751.97	238.47
752.29	238.34
752.62	238.15
752.95	238.02
753.28	237.88
753.60	237.76
753.93	237.69
754.26	237.60
754.59	237.44
754.91	237.32
755.24	237.19
755.57	237.08
755.90	236.97
756.22	236.85
756.55	236.71
756.88	236.56
757.20	236.34
757.53	236.19
757.86	236.08
758.19	235.99
758.51	235.88
758.84	235.70
759.17	235.58
759.49	235.49
759.82	235.48
760.15	235.40
760.47	235.31
760.80	235.16
761.13	235.09
761.45	235.00
761.78	234.91
762.11	234.84
762.43	234.72
762.76	234.64
763.08	234.58
763.41	234.51
763.74	234.45
764.06	234.36
764.39	234.29
764.71	234.20
765.04	234.10
765.37	234.00
765.69	233.92
766.02	233.84
766.34	233.75
766.67	233.61
767.00	233.57
767.32	233.60
767.65	233.65
767.97	233.57
768.30	233.51
768.62	233.45
768.95	233.36
769.27	233.29
769.60	233.25
769.92	233.15
770.25	233.05
770.57	232.96
770.90	232.90
771.22	232.83
771.55	232.78
771.87	232.74
772.20	232.67
772.52	232.77
772.85	232.93
773.17	232.88
773.50	232.82
773.82	232.73
774.15	232.58
774.47	232.42
774.80	232.35
775.12	232.29
775.45	232.24
775.77	232.20
776.09	232.16
776.42	232.11
776.74	232.12
777.07	232.07
777.39	232.04
777.72	231.98
778.04	231.96
778.36	231.89
778.69	231.85
779.01	231.83
779.33	231.63
779.66	231.38
779.98	231.33
780.31	231.30
780.63	231.34
780.95	231.34
781.28	231.29
781.60	231.24
781.92	231.20
782.25	231.16
782.57	231.13
782.89	231.08
783.22	231.03
783.54	230.96
783.86	230.94
784.19	230.90
784.51	230.92
784.83	230.86
785.16	230.83
785.48	230.80
785.80	230.76
786.12	230.74
786.45	230.72
786.77	230.70
787.09	230.65
787.42	230.55
787.74	230.52
788.06	230.50
788.38	230.47
788.71	230.42
789.03	230.40
789.35	230.39
789.67	230.35
789.99	230.33
790.32	230.29
790.64	230.28
790.96	230.42
791.28	230.33
791.61	230.30
791.93	230.28
792.25	230.24
792.57	230.34
792.89	230.28
793.21	230.27
793.54	230.23
793.86	230.19
794.18	230.17
794.50	230.12
794.82	230.09
795.14	230.10
795.47	230.11
795.79	230.09
796.11	230.03
796.43	230.00
796.75	229.98
797.07	229.95
797.39	229.92
797.71	229.74
798.04	229.74
798.36	229.73
798.68	229.70
799.00	229.70
799.32	229.59
799.64	229.61
799.96	229.58
800.28	229.60
800.60	229.57
800.92	229.57
801.24	229.54
801.56	229.54
801.89	229.49
802.21	229.49
802.53	229.44
802.85	229.46
803.17	229.54
803.49	229.48
803.81	229.46
804.13	229.43
804.45	229.39
804.77	229.39
805.09	229.37
805.41	229.34
805.73	229.28
806.05	229.22
806.37	229.18
806.69	229.15
807.01	229.12
807.33	229.11
807.65	229.03
807.97	229.09
808.28	229.06
808.60	229.03
808.92	228.98
809.24	229.08
809.56	229.03
809.88	228.94
810.20	228.94
810.52	228.97
810.84	228.92
811.16	228.90
811.48	228.87
811.80	228.91
812.12	228.90
812.43	228.93
812.75	228.94
813.07	228.91
813.39	228.90
813.71	228.86
814.03	228.83
814.35	228.83
814.67	228.74
814.98	228.72
815.30	228.72
815.62	228.67
815.94	228.54
816.26	228.54
816.58	228.50
816.89	228.50
817.21	228.44
817.53	228.44
817.85	228.43
818.17	228.42
818.48	228.34
818.80	228.36
819.12	228.31
819.44	228.26
819.76	228.23
820.07	228.22
820.39	228.20
820.71	228.20
821.03	228.20
821.34	228.17
821.66	228.18
821.98	228.18
822.30	228.16
822.61	228.27
822.93	228.23
823.25	228.22
823.57	228.19
823.88	228.21
824.20	228.20
824.52	228.22
824.83	228.20
825.15	228.17
825.47	228.15
825.79	228.16
826.10	228.15
826.42	228.14
826.74	228.14
827.05	228.13
827.37	228.13
827.69	228.11
828.00	228.11
828.32	228.10
828.64	228.07
828.95	228.16
829.27	228.10
829.58	228.09
829.90	228.11
830.22	228.11
830.53	228.07
830.85	228.04
831.17	227.99
831.48	227.98
831.80	227.98
832.11	227.97
832.43	227.93
832.75	227.93
833.06	228.02
833.38	227.97
833.69	227.97
834.01	227.96
834.32	227.95
834.64	227.93
834.96	227.92
835.27	227.92
835.59	227.85
835.90	227.81
836.22	227.80
836.53	227.76
836.85	227.73
837.16	227.91
837.48	227.91
837.79	227.97
838.11	227.97
838.42	227.96
838.74	227.97
839.05	227.96
839.37	227.94
839.68	227.83
840.00	227.83
840.31	227.84
840.63	227.82
840.94	227.81
841.26	227.79
841.57	227.78
841.88	227.79
842.20	227.77
842.51	227.74
842.83	227.74
843.14	227.90
843.46	227.89
843.77	227.78
844.08	227.77
844.40	227.70
844.71	227.69
845.03	227.67
845.34	227.65
845.65	227.65
845.97	227.65
846.28	227.65
846.60	227.66
846.91	227.62
847.22	227.62
847.54	227.65
847.85	227.66
848.16	227.64
848.48	227.60
848.79	227.66
849.10	227.68
849.42	227.68
849.73	227.52
850.04	227.52
850.36	227.45
850.67	227.49
850.98	227.50
851.30	227.51
851.61	227.50
851.92	227.50
852.23	227.55
852.55	227.56
852.86	227.56
853.17	227.57
853.49	227.61
853.80	227.63
854.11	227.64
854.42	227.66
854.74	227.63
855.05	227.64
855.36	227.55
855.67	227.55
855.99	227.54
856.30	227.74
856.61	227.74
856.92	227.74
857.23	227.74
857.55	227.71
857.86	227.69
858.17	227.72
858.48	227.69
858.79	227.65
859.11	227.66
859.42	227.64
859.73	227.61
860.04	227.60
860.35	227.55
860.66	227.48
860.98	227.47
861.29	227.50
861.60	227.49
861.91	227.54
862.22	227.51
862.53	227.48
862.84	227.27
863.16	227.30
863.47	227.26
863.78	227.23
864.09	227.24
864.40	227.26
864.71	227.25
865.02	227.28
865.33	227.25
865.64	227.21
865.95	227.22
866.27	227.33
866.58	227.31
866.89	227.34
867.20	227.34
867.51	227.30
867.82	227.28
868.13	227.33
868.44	227.29
868.75	227.32
869.06	227.33
869.37	227.35
869.68	227.30
869.99	227.34
870.30	227.35
870.61	227.36
870.92	227.33
871.23	227.31
871.54	227.33
871.85	227.37
872.16	227.39
872.47	227.37
872.78	227.27
873.09	227.28
873.40	227.26
873.71	227.28
874.02	227.29
874.33	227.27
874.64	227.23
874.95	227.27
875.26	227.23
875.56	227.22
875.87	227.20
876.18	227.20
876.49	227.37
876.80	227.35
877.11	227.32
877.42	227.33
877.73	227.34
878.04	227.31
878.35	227.31
878.66	227.31
878.96	227.31
879.27	227.31
879.58	227.29
879.89	227.28
880.20	227.33
880.51	227.33
880.82	227.33
881.12	227.34
881.43	227.30
881.74	227.28
882.05	227.28
882.36	227.29
882.67	227.30
882.97	227.11
883.28	227.10
883.59	227.10
883.90	227.12
884.21	227.14
884.51	227.12
884.82	227.09
885.13	227.09
885.44	227.08
885.74	227.08
886.05	227.07
886.36	227.08
886.67	227.01
886.98	227.09
887.28	227.11
887.59	227.10
887.90	227.11
888.20	227.12
888.51	227.15
888.82	227.12
889.13	227.13
889.43	227.29
889.74	227.28
890.05	227.28
890.35	227.25
890.66	227.22
890.97	227.21
891.28	227.19
891.58	227.19
891.89	227.20
892.20	227.18
892.50	227.16
892.81	227.15
893.12	227.15
893.42	227.05
893.73	227.06
894.04	227.06
894.34	227.07
894.65	227.06
894.95	227.04
895.26	227.05
895.57	227.12
895.87	226.94
896.18	226.97
896.48	226.99
896.79	226.98
897.10	227.01
897.40	227.02
897.71	227.04
898.01	227.02
898.32	227.03
898.63	227.03
898.93	227.04
899.24	227.05
899.54	227.05
899.85	227.04
900.15	227.03
900.46	227.02
900.76	227.03
901.07	227.03
901.38	227.02
901.68	227.04
901.99	226.95
902.29	226.96
902.60	226.95
902.90	226.93
903.21	226.92
903.51	226.90
903.82	226.94
904.12	226.94
904.43	226.95
904.73	226.94
905.03	226.95
905.34	227.12
905.64	227.12
905.95	227.12
906.25	227.12
906.56	227.11
906.86	227.11
907.17	227.09
907.47	227.11
907.77	227.09
908.08	227.05
908.38	227.06
908.69	227.07
908.99	227.10
909.30	227.12
909.60	227.12
909.90	227.11
910.21	227.06
910.51	227.03
910.81	227.04
911.12	227.05
911.42	227.05
911.73	226.86
912.03	226.86
912.33	226.90
912.64	226.89
912.94	226.87
913.24	226.84
913.55	226.83
913.85	226.82
914.15	226.86
914.46	226.88
914.76	226.86
915.06	226.85
915.37	226.81
915.67	226.79
915.97	226.80
916.27	226.78
916.58	226.79
916.88	226.78
917.18	226.77
917.49	226.89
917.79	226.89
918.09	226.92
918.39	226.97
918.70	226.95
919.00	226.96
919.30	227.05
919.60	227.05
919.91	227.03
920.21	227.04
920.51	227.01
920.81	227.00
921.12	227.03
921.42	227.02
921.72	227.03
922.02	227.04
922.32	227.07
922.63	227.07
922.93	227.17
923.23	227.18
923.53	227.16
923.83	227.04
924.13	227.06
924.44	227.05
924.74	227.06
925.04	227.10
925.34	227.10
925.64	227.02
925.94	227.02
926.24	227.12
926.55	227.10
926.85	227.13
927.15	227.13
927.45	227.13
927.75	227.13
928.05	227.13
928.35	227.12
928.65	227.14
928.95	227.15
929.26	227.07
929.56	227.10
929.86	227.12
930.16	227.11
930.46	227.09
930.76	227.10
931.06	227.03
931.36	226.97
931.66	227.00
931.96	227.02
932.26	227.03
932.56	226.96
932.86	226.97
933.16	226.96
933.46	226.94
933.76	226.91
934.06	226.95
934.36	227.00
934.66	227.00
934.96	226.97
935.26	226.97
935.56	227.00
935.86	226.95
936.16	226.93
936.46	226.91
936.76	226.90
937.06	226.87
937.36	226.88
937.66	226.89
937.96	226.87
938.26	226.84
938.56	226.82
938.86	226.83
939.16	226.87
939.46	226.88
939.76	226.90
940.06	226.90
940.35	226.86
940.65	226.77
940.95	226.79
941.25	226.75
941.55	226.73
941.85	226.72
942.15	226.76
942.45	226.81
942.75	226.81
943.04	226.82
943.34	226.86
943.64	226.85
943.94	226.82
944.24	226.81
944.54	226.83
944.84	226.82
945.13	226.79
945.43	226.76
945.73	226.75
946.03	226.73
946.33	226.71
946.62	226.70
946.92	226.70
947.22	226.70
947.52	226.72
947.82	226.74
948.11	226.71
948.41	226.67
948.71	226.62
949.01	226.63
949.31	226.62
949.60	226.60
949.90	226.63
950.20	226.63
950.50	226.63
950.79	226.61
951.09	226.64
951.39	226.65
951.69	226.63
951.98	226.67
952.28	226.68
952.58	226.68
952.87	226.68
953.17	226.71
953.47	226.69
953.76	226.68
954.06	226.65
954.36	226.63
954.66	226.63
954.95	226.68
955.25	226.69
955.55	226.70
955.84	226.67
956.14	226.68
956.44	226.69
956.73	226.67
957.03	226.68
957.32	226.68
957.62	226.67
957.92	226.71
958.21	226.67
958.51	226.87
958.81	226.89
959.10	226.91
959.40	226.95
959.69	226.97
959.99	227.00
960.29	227.00
960.58	227.00
960.88	227.07
961.17	227.04
961.47	227.06
961.76	227.04
962.06	227.08
962.36	227.05
962.65	227.07
962.95	227.08
963.24	227.06
963.54	227.06
963.83	227.07
964.13	227.06
964.42	227.05
964.72	226.90
965.01	226.90
965.31	226.89
965.60	226.84
965.90	226.95
966.19	226.90
966.49	226.92
966.78	226.91
967.08	226.89
967.37	226.88
967.67	226.85
967.96	226.88
968.26	226.87
968.55	226.90
968.85	226.88
969.14	226.88
969.43	226.88
969.73	226.87
970.02	226.87
970.32	226.85
970.61	226.82
970.91	226.77
971.20	226.75
971.49	226.73
971.79	226.75
972.08	226.62
972.38	226.64
972.67	226.63
972.96	226.66
973.26	226.62
973.55	226.68
973.85	226.67
974.14	226.65
974.43	226.66
974.73	226.63
975.02	226.63
975.31	226.62
975.61	226.61
975.90	226.60
976.19	226.58
976.49	226.59
976.78	226.61
977.07	226.61
977.37	226.62
977.66	226.63
977.95	226.61
978.24	226.63
978.54	226.66
978.83	226.66
979.12	226.64
979.42	226.65
979.71	226.61
980.00	226.61
980.29	226.61
980.59	226.58
980.88	226.62
981.17	226.62
981.46	226.62
981.76	226.63
982.05	226.69
982.34	226.70
982.63	226.71
982.93	226.71
983.22	226.76
983.51	226.76
983.80	226.79
984.09	226.82
984.39	226.81
984.68	226.79
984.97	226.79
985.26	226.78
985.55	226.80
985.85	226.76
986.14	226.80
986.43	226.82
986.72	226.82
987.01	226.77
987.30	226.77
987.59	226.76
987.89	226.77
988.18	226.71
988.47	226.69
988.76	226.68
989.05	226.66
989.34	226.62
989.63	226.67
989.92	226.64
990.22	226.61
990.51	226.61
990.80	226.60
991.09	226.61
991.38	226.63
991.67	226.61
991.96	226.60
992.25	226.60
992.54	226.56
992.83	226.56
993.12	226.56
993.41	226.59
993.70	226.66
993.99	226.69
994.28	226.72
994.58	226.75
994.87	226.74
995.16	226.74
995.45	226.73
995.74	226.66
996.03	226.69
996.32	226.72
996.61	226.76
996.90	226.76
997.19	226.75
997.48	226.75
997.77	226.73
998.06	226.75
998.34	226.74
998.63	226.74
998.92	226.75
999.21	226.77
999.50	226.77
999.79	226.71
1000.08	226.70
1000.37	226.70
1000.66	226.67
1000.95	226.72
1001.24	226.73
1001.53	226.76
1001.82	226.76
1002.11	226.72
1002.40	226.73
1002.68	226.76
1002.97	226.89
1003.26	226.88
1003.55	226.85
1003.84	226.86
1004.13	226.92
1004.42	226.91
1004.71	226.91
1004.99	226.90
1005.28	226.94
1005.57	226.92
1005.86	226.90
1006.15	226.88
1006.44	226.86
1006.72	226.88
1007.01	226.84
1007.30	226.84
1007.59	226.82
1007.88	226.81
1008.17	226.83
1008.45	226.78
1008.74	226.71
1009.03	226.63
1009.32	226.62
1009.60	226.63
1009.89	226.62
1010.18	226.54
1010.47	226.53
1010.76	226.53
1011.04	226.53
1011.33	226.52
1011.62	226.53
1011.91	226.55
1012.19	226.56
1012.48	226.56
1012.77	226.56
1013.05	226.62
1013.34	226.62
1013.63	226.62
1013.92	226.63
1014.20	226.63
1014.49	226.64
1014.78	226.65
1015.06	226.58
1015.35	226.58
1015.64	226.60
1015.92	226.62
1016.21	226.64
1016.50	226.64
1016.78	226.67
1017.07	226.68
1017.36	226.64
1017.64	226.62
1017.93	226.64
1018.22	226.63
1018.50	226.63
1018.79	226.62
1019.08	226.55
1019.36	226.56
1019.65	226.55
1019.93	226.59
1020.22	226.61
1020.51	226.70
1020.79	226.68
1021.08	226.42
1021.36	226.22
1021.65	226.58
1021.94	226.56
1022.22	226.78
1022.51	226.25
1022.79	227.44
1023.08	226.77
1023.36	228.70
1023.65	226.18
>>>>>End Processed Spectral Data<<<<<
