SpectraSuite Data File
++++++++++++++++++++++++++++++++++++
Date: Wed Oct 07 09:26:50 EDT 2015
User: lab3
Dark Spectrum Present: No
Reference Spectrum Present: No
Number of Sampled Component Spectra: 1
Spectrometers: USB2E7196
Integration Time (usec): 66000 (USB2E7196)
Spectra Averaged: 10000 (USB2E7196)
Boxcar Smoothing: 10 (USB2E7196)
Correct for Electrical Dark: No (USB2E7196)
Strobe/Lamp Enabled: No (USB2E7196)
Correct for Detector Non-linearity: No (USB2E7196)
Correct for Stray Light: No (USB2E7196)
Number of Pixels in Processed Spectrum: 2048
>>>>>Begin Processed Spectral Data<<<<<
339.09	0.00
339.48	212.49
339.86	214.01
340.24	215.35
340.63	216.77
341.01	220.97
341.39	219.46
341.78	221.00
342.16	222.35
342.54	222.51
342.93	211.16
343.31	221.82
343.69	222.36
344.07	222.83
344.46	223.28
344.84	223.69
345.22	223.88
345.60	224.17
345.99	224.38
346.37	224.52
346.75	224.65
347.13	224.74
347.52	224.83
347.90	224.96
348.28	225.02
348.66	225.11
349.05	225.10
349.43	225.18
349.81	225.26
350.19	225.32
350.57	225.41
350.96	225.51
351.34	225.63
351.72	225.74
352.10	225.86
352.48	225.93
352.87	225.98
353.25	226.05
353.63	226.10
354.01	226.16
354.39	226.24
354.77	226.32
355.15	226.45
355.54	226.49
355.92	226.50
356.30	226.58
356.68	226.77
357.06	226.85
357.44	226.89
357.82	226.95
358.20	227.17
358.58	227.23
358.97	227.29
359.35	227.39
359.73	227.48
360.11	227.53
360.49	227.60
360.87	227.65
361.25	227.72
361.63	227.83
362.01	227.89
362.39	227.92
362.77	227.97
363.15	227.99
363.53	228.03
363.91	228.07
364.29	228.09
364.67	227.94
365.05	227.96
365.43	228.00
365.81	228.04
366.19	227.99
366.57	228.07
366.95	228.07
367.33	228.03
367.71	228.02
368.09	228.06
368.47	228.05
368.85	228.04
369.23	228.07
369.61	227.99
369.99	228.02
370.37	228.03
370.75	228.15
371.13	228.12
371.51	228.07
371.89	228.05
372.27	228.04
372.65	228.03
373.03	227.99
373.41	227.94
373.78	227.89
374.16	227.76
374.54	227.66
374.92	227.61
375.30	227.58
375.68	227.50
376.06	227.46
376.44	227.40
376.82	227.37
377.19	227.32
377.57	227.27
377.95	227.16
378.33	227.10
378.71	226.88
379.09	226.85
379.47	226.83
379.84	226.76
380.22	226.69
380.60	226.62
380.98	226.57
381.36	226.52
381.73	226.45
382.11	226.44
382.49	226.41
382.87	226.34
383.25	226.30
383.62	226.48
384.00	226.40
384.38	226.37
384.76	226.38
385.13	226.39
385.51	226.36
385.89	226.31
386.27	226.28
386.64	226.28
387.02	226.23
387.40	226.18
387.78	226.17
388.15	226.16
388.53	226.13
388.91	226.11
389.29	226.08
389.66	226.10
390.04	226.06
390.42	226.07
390.79	226.07
391.17	226.06
391.55	225.84
391.92	225.85
392.30	225.86
392.68	225.81
393.05	225.79
393.43	225.81
393.81	225.83
394.18	225.81
394.56	225.83
394.94	225.89
395.31	225.89
395.69	225.97
396.06	226.02
396.44	226.06
396.82	226.09
397.19	226.22
397.57	226.25
397.95	226.32
398.32	226.32
398.70	226.39
399.07	226.50
399.45	226.57
399.82	226.64
400.20	226.70
400.58	226.79
400.95	226.82
401.33	226.95
401.70	227.19
402.08	227.34
402.45	227.48
402.83	227.66
403.20	227.84
403.58	227.98
403.95	228.20
404.33	228.43
404.71	228.66
405.08	228.98
405.46	229.25
405.83	229.54
406.21	229.85
406.58	230.19
406.96	230.53
407.33	230.92
407.70	231.37
408.08	231.97
408.45	232.50
408.83	233.08
409.20	233.61
409.58	234.09
409.95	234.74
410.33	235.46
410.70	236.14
411.08	236.94
411.45	237.79
411.82	238.66
412.20	239.64
412.57	240.81
412.95	241.75
413.32	242.95
413.69	244.20
414.07	245.52
414.44	246.96
414.82	248.43
415.19	250.15
415.56	251.90
415.94	253.73
416.31	255.77
416.68	257.82
417.06	260.19
417.43	262.42
417.81	264.98
418.18	267.59
418.55	270.43
418.93	273.39
419.30	276.48
419.67	279.76
420.04	283.13
420.42	286.65
420.79	290.71
421.16	294.82
421.54	298.96
421.91	303.30
422.28	307.82
422.66	312.68
423.03	317.29
423.40	322.14
423.77	327.32
424.15	332.62
424.52	338.13
424.89	344.09
425.26	350.01
425.64	355.50
426.01	361.66
426.38	367.96
426.75	374.45
427.13	381.08
427.50	388.03
427.87	395.25
428.24	402.52
428.61	409.50
428.99	417.02
429.36	425.30
429.73	433.20
430.10	441.08
430.47	449.16
430.85	457.52
431.22	466.40
431.59	475.52
431.96	484.46
432.33	494.38
432.70	503.83
433.08	515.00
433.45	525.54
433.82	535.98
434.19	547.69
434.56	559.22
434.93	570.39
435.30	581.49
435.68	594.06
436.05	606.38
436.42	618.72
436.79	630.02
437.16	642.31
437.53	655.40
437.90	668.51
438.27	681.38
438.64	695.31
439.01	708.00
439.38	719.64
439.75	730.86
440.13	743.68
440.50	755.87
440.87	765.65
441.24	776.39
441.61	788.15
441.98	796.87
442.35	807.22
442.72	817.74
443.09	827.76
443.46	834.32
443.83	839.30
444.20	843.47
444.57	849.41
444.94	852.98
445.31	856.67
445.68	859.87
446.05	862.32
446.42	862.10
446.79	861.57
447.16	861.15
447.53	860.82
447.90	857.10
448.27	853.60
448.64	848.02
449.01	844.19
449.37	836.12
449.74	828.79
450.11	819.32
450.48	808.90
450.85	798.44
451.22	789.47
451.59	780.61
451.96	772.58
452.33	761.01
452.70	750.65
453.07	738.14
453.43	725.63
453.80	713.41
454.17	701.70
454.54	690.92
454.91	678.76
455.28	667.23
455.65	656.37
456.02	644.83
456.38	635.56
456.75	623.70
457.12	614.16
457.49	604.53
457.86	595.41
458.23	587.36
458.59	578.53
458.96	569.46
459.33	561.51
459.70	553.40
460.07	547.22
460.43	539.96
460.80	533.18
461.17	527.28
461.54	520.91
461.91	514.92
462.27	508.82
462.64	503.86
463.01	498.22
463.38	492.52
463.74	487.40
464.11	482.82
464.48	478.69
464.85	474.23
465.21	470.82
465.58	467.04
465.95	462.76
466.32	459.36
466.68	456.04
467.05	452.69
467.42	449.43
467.78	445.94
468.15	442.71
468.52	440.34
468.88	437.19
469.25	434.32
469.62	432.05
469.98	429.59
470.35	427.39
470.72	425.38
471.08	423.37
471.45	421.69
471.82	419.79
472.18	417.81
472.55	416.54
472.92	414.94
473.28	413.68
473.65	412.34
474.02	411.03
474.38	409.92
474.75	409.25
475.11	408.34
475.48	407.90
475.85	407.41
476.21	407.11
476.58	406.89
476.94	407.03
477.31	407.03
477.67	407.05
478.04	407.32
478.41	407.71
478.77	408.28
479.14	408.61
479.50	409.38
479.87	410.37
480.23	411.34
480.60	412.25
480.96	413.17
481.33	414.61
481.69	416.02
482.06	417.40
482.42	418.65
482.79	420.24
483.15	422.11
483.52	424.23
483.88	426.25
484.25	428.40
484.61	430.65
484.98	433.09
485.34	435.83
485.71	438.68
486.07	441.78
486.44	444.81
486.80	448.24
487.17	451.72
487.53	455.52
487.90	459.50
488.26	463.83
488.62	468.41
488.99	472.99
489.35	477.81
489.72	482.99
490.08	488.44
490.44	494.00
490.81	499.79
491.17	505.76
491.54	512.18
491.90	518.72
492.26	525.73
492.63	533.08
492.99	540.79
493.36	548.67
493.72	556.92
494.08	565.42
494.45	574.33
494.81	583.64
495.17	593.20
495.54	603.32
495.90	613.89
496.26	624.63
496.63	635.71
496.99	647.17
497.35	659.18
497.72	671.51
498.08	684.18
498.44	697.20
498.80	710.93
499.17	724.95
499.53	739.45
499.89	754.39
500.26	769.60
500.62	785.16
500.98	801.65
501.34	818.17
501.71	835.46
502.07	853.09
502.43	871.22
502.79	889.67
503.16	908.57
503.52	927.67
503.88	947.22
504.24	967.27
504.60	987.57
504.97	1008.52
505.33	1030.01
505.69	1052.61
506.05	1075.45
506.41	1098.28
506.78	1121.28
507.14	1144.80
507.50	1168.87
507.86	1193.30
508.22	1217.97
508.59	1242.53
508.95	1268.15
509.31	1294.32
509.67	1321.21
510.03	1348.09
510.39	1374.79
510.75	1401.58
511.12	1428.67
511.48	1456.15
511.84	1483.53
512.20	1511.30
512.56	1540.20
512.92	1568.93
513.28	1596.93
513.64	1625.35
514.00	1654.21
514.37	1683.34
514.73	1712.58
515.09	1741.08
515.45	1769.82
515.81	1798.94
516.17	1827.75
516.53	1855.87
516.89	1883.66
517.25	1911.73
517.61	1939.63
517.97	1968.14
518.33	1996.21
518.69	2024.19
519.05	2052.45
519.41	2080.89
519.77	2109.50
520.13	2136.48
520.49	2163.40
520.85	2190.79
521.21	2217.55
521.57	2244.61
521.93	2270.51
522.29	2297.10
522.65	2323.51
523.01	2349.68
523.37	2374.96
523.73	2401.09
524.09	2426.86
524.45	2452.48
524.81	2477.42
525.17	2502.20
525.53	2526.01
525.89	2550.29
526.25	2574.31
526.61	2596.49
526.97	2618.68
527.33	2640.50
527.68	2662.37
528.04	2683.81
528.40	2704.12
528.76	2724.41
529.12	2744.14
529.48	2764.69
529.84	2782.40
530.20	2800.36
530.56	2817.67
530.91	2834.99
531.27	2851.61
531.63	2867.34
531.99	2882.54
532.35	2897.57
532.71	2912.24
533.07	2927.41
533.42	2940.47
533.78	2953.68
534.14	2968.05
534.50	2981.35
534.86	2995.24
535.21	3006.62
535.57	3017.91
535.93	3028.74
536.29	3037.85
536.65	3046.81
537.00	3054.45
537.36	3063.24
537.72	3071.25
538.08	3078.80
538.44	3084.97
538.79	3091.02
539.15	3095.81
539.51	3099.85
539.87	3102.49
540.22	3103.36
540.58	3104.53
540.94	3106.38
541.29	3107.23
541.65	3106.63
542.01	3105.54
542.37	3102.65
542.72	3101.58
543.08	3098.70
543.44	3095.97
543.79	3093.16
544.15	3089.53
544.51	3085.58
544.87	3080.88
545.22	3075.09
545.58	3068.77
545.94	3062.92
546.29	3055.52
546.65	3048.23
547.01	3041.15
547.36	3034.71
547.72	3028.44
548.07	3020.32
548.43	3011.02
548.79	3001.28
549.14	2991.82
549.50	2982.55
549.86	2972.42
550.21	2960.41
550.57	2949.83
550.92	2937.56
551.28	2925.34
551.64	2913.43
551.99	2901.44
552.35	2888.89
552.70	2876.28
553.06	2864.24
553.41	2851.73
553.77	2838.80
554.13	2825.91
554.48	2811.97
554.84	2796.70
555.19	2781.81
555.55	2767.00
555.90	2752.74
556.26	2738.73
556.61	2723.64
556.97	2707.36
557.32	2691.55
557.68	2676.16
558.03	2660.25
558.39	2645.21
558.74	2631.06
559.10	2614.96
559.45	2598.83
559.81	2583.35
560.16	2567.42
560.52	2551.16
560.87	2535.26
561.23	2518.96
561.58	2503.26
561.94	2487.08
562.29	2470.51
562.64	2454.12
563.00	2437.74
563.35	2421.57
563.71	2404.98
564.06	2388.54
564.42	2372.68
564.77	2356.94
565.12	2340.81
565.48	2324.30
565.83	2307.94
566.19	2291.44
566.54	2275.16
566.89	2258.47
567.25	2241.88
567.60	2226.22
567.96	2209.98
568.31	2192.13
568.66	2175.00
569.02	2158.55
569.37	2142.68
569.72	2127.37
570.08	2111.66
570.43	2095.26
570.78	2078.62
571.14	2061.97
571.49	2045.28
571.84	2028.81
572.20	2011.08
572.55	1994.05
572.90	1977.27
573.26	1960.73
573.61	1943.49
573.96	1926.77
574.31	1909.90
574.67	1892.61
575.02	1874.90
575.37	1857.17
575.72	1840.42
576.08	1823.51
576.43	1805.66
576.78	1788.10
577.13	1770.84
577.49	1753.74
577.84	1737.23
578.19	1720.25
578.54	1703.19
578.90	1686.04
579.25	1668.67
579.60	1652.67
579.95	1636.36
580.30	1620.02
580.66	1603.33
581.01	1586.76
581.36	1570.20
581.71	1554.57
582.06	1539.03
582.42	1523.34
582.77	1508.08
583.12	1493.04
583.47	1478.07
583.82	1463.25
584.17	1447.83
584.53	1432.53
584.88	1417.63
585.23	1402.53
585.58	1387.87
585.93	1373.03
586.28	1359.25
586.63	1345.38
586.98	1330.97
587.34	1317.05
587.69	1302.91
588.04	1289.04
588.39	1275.49
588.74	1261.60
589.09	1247.84
589.44	1233.70
589.79	1220.29
590.14	1206.87
590.49	1193.48
590.84	1180.30
591.19	1167.59
591.54	1155.05
591.89	1142.10
592.25	1129.45
592.60	1116.68
592.95	1104.05
593.30	1091.93
593.65	1079.49
594.00	1067.38
594.35	1056.21
594.70	1044.27
595.05	1032.96
595.40	1021.57
595.75	1009.99
596.10	999.10
596.45	988.10
596.80	977.65
597.15	967.10
597.50	956.52
597.85	946.36
598.19	936.17
598.54	925.92
598.89	916.20
599.24	906.91
599.59	897.36
599.94	888.53
600.29	879.80
600.64	870.82
600.99	861.72
601.34	853.01
601.69	843.73
602.04	835.45
602.39	827.07
602.74	818.92
603.08	810.87
603.43	802.85
603.78	794.83
604.13	786.80
604.48	778.80
604.83	771.14
605.18	763.44
605.53	755.97
605.87	748.51
606.22	741.16
606.57	733.73
606.92	726.27
607.27	718.83
607.62	711.53
607.96	704.51
608.31	698.04
608.66	691.38
609.01	685.05
609.36	678.67
609.70	672.29
610.05	665.87
610.40	659.67
610.75	653.41
611.10	647.41
611.44	641.41
611.79	635.57
612.14	629.60
612.49	623.73
612.83	618.17
613.18	612.67
613.53	607.15
613.88	601.78
614.22	596.80
614.57	591.76
614.92	586.86
615.27	582.06
615.61	577.11
615.96	572.26
616.31	567.37
616.65	562.63
617.00	558.01
617.35	553.50
617.70	548.99
618.04	544.59
618.39	540.31
618.74	536.30
619.08	532.24
619.43	528.32
619.78	524.37
620.12	520.34
620.47	516.54
620.82	512.87
621.16	509.22
621.51	505.61
621.85	502.00
622.20	498.44
622.55	494.90
622.89	491.38
623.24	488.04
623.59	484.79
623.93	481.62
624.28	478.57
624.62	475.73
624.97	472.90
625.32	470.01
625.66	467.07
626.01	464.09
626.35	461.31
626.70	458.46
627.04	455.82
627.39	453.17
627.73	450.58
628.08	448.02
628.43	445.48
628.77	442.87
629.12	440.37
629.46	437.99
629.81	435.76
630.15	433.44
630.50	431.17
630.84	428.93
631.19	426.74
631.53	424.66
631.88	422.38
632.22	420.19
632.57	418.31
632.91	416.37
633.26	414.53
633.60	412.68
633.95	410.94
634.29	409.05
634.64	407.23
634.98	405.29
635.32	403.55
635.67	401.98
636.01	400.40
636.36	398.87
636.70	397.40
637.05	395.78
637.39	394.33
637.73	392.86
638.08	391.46
638.42	390.10
638.77	388.61
639.11	387.10
639.45	385.64
639.80	384.14
640.14	382.70
640.49	381.28
640.83	379.86
641.17	378.49
641.52	377.16
641.86	375.87
642.20	374.73
642.55	373.40
642.89	372.08
643.23	370.84
643.58	369.74
643.92	368.48
644.26	367.33
644.61	366.20
644.95	365.04
645.29	363.84
645.64	362.60
645.98	361.50
646.32	360.51
646.66	359.45
647.01	358.41
647.35	357.49
647.69	356.50
648.04	355.61
648.38	354.64
648.72	353.72
649.06	352.80
649.41	351.86
649.75	350.97
650.09	350.11
650.43	349.23
650.78	348.28
651.12	347.43
651.46	346.59
651.80	345.76
652.14	344.97
652.49	344.26
652.83	343.48
653.17	342.67
653.51	341.88
653.85	341.22
654.20	340.50
654.54	339.69
654.88	338.93
655.22	338.22
655.56	337.48
655.90	336.78
656.25	336.10
656.59	335.43
656.93	334.80
657.27	334.24
657.61	333.58
657.95	333.00
658.29	332.38
658.64	331.78
658.98	331.12
659.32	330.48
659.66	329.87
660.00	329.31
660.34	328.75
660.68	328.13
661.02	327.46
661.36	326.82
661.70	326.25
662.05	325.68
662.39	325.12
662.73	324.67
663.07	324.24
663.41	323.77
663.75	323.26
664.09	322.75
664.43	322.12
664.77	321.60
665.11	321.02
665.45	320.50
665.79	319.99
666.13	319.48
666.47	318.96
666.81	318.40
667.15	317.80
667.49	317.33
667.83	316.92
668.17	316.47
668.51	316.07
668.85	315.69
669.19	315.36
669.53	314.85
669.87	314.30
670.21	313.76
670.55	313.25
670.89	312.85
671.23	312.40
671.57	312.00
671.91	311.65
672.25	311.33
672.58	311.00
672.92	310.58
673.26	310.25
673.60	309.92
673.94	309.55
674.28	309.23
674.62	308.86
674.96	308.44
675.30	308.08
675.64	307.66
675.97	307.22
676.31	306.74
676.65	306.34
676.99	306.03
677.33	305.59
677.67	305.21
678.01	304.73
678.34	304.33
678.68	303.96
679.02	303.51
679.36	303.07
679.70	302.62
680.04	302.23
680.37	301.81
680.71	301.42
681.05	301.08
681.39	300.68
681.73	300.23
682.06	299.81
682.40	299.43
682.74	299.08
683.08	298.77
683.42	298.39
683.75	298.05
684.09	297.59
684.43	297.22
684.77	296.82
685.10	296.45
685.44	296.05
685.78	295.63
686.12	295.24
686.45	294.83
686.79	294.41
687.13	294.01
687.46	293.57
687.80	293.15
688.14	292.68
688.48	292.27
688.81	291.85
689.15	291.48
689.49	291.03
689.82	290.60
690.16	290.06
690.50	289.62
690.83	289.16
691.17	288.71
691.51	288.28
691.84	287.88
692.18	287.44
692.52	286.98
692.85	286.54
693.19	286.15
693.52	285.72
693.86	285.27
694.20	284.84
694.53	284.41
694.87	283.94
695.21	283.48
695.54	283.03
695.88	282.56
696.21	282.06
696.55	281.62
696.88	281.16
697.22	280.74
697.56	280.33
697.89	279.85
698.23	279.42
698.56	278.97
698.90	278.55
699.23	278.10
699.57	277.69
699.90	277.27
700.24	276.80
700.58	276.39
700.91	276.03
701.25	275.77
701.58	275.44
701.92	275.10
702.25	274.71
702.59	274.29
702.92	273.91
703.26	273.49
703.59	273.07
703.93	272.80
704.26	272.40
704.60	271.97
704.93	271.56
705.26	271.14
705.60	270.78
705.93	270.32
706.27	270.00
706.60	269.65
706.94	269.32
707.27	268.88
707.61	268.48
707.94	268.05
708.27	267.48
708.61	267.01
708.94	266.58
709.28	266.18
709.61	265.79
709.94	265.44
710.28	265.09
710.61	264.76
710.95	264.24
711.28	263.99
711.61	263.62
711.95	263.31
712.28	262.93
712.61	262.55
712.95	262.30
713.28	262.00
713.61	261.61
713.95	261.21
714.28	260.89
714.61	260.51
714.95	260.17
715.28	259.83
715.61	259.50
715.95	259.20
716.28	258.86
716.61	258.58
716.95	258.24
717.28	257.91
717.61	257.58
717.94	257.29
718.28	256.85
718.61	256.55
718.94	256.21
719.27	255.93
719.61	255.65
719.94	255.32
720.27	254.94
720.60	254.65
720.94	254.36
721.27	254.08
721.60	253.84
721.93	253.56
722.27	253.34
722.60	253.06
722.93	252.75
723.26	252.51
723.59	252.19
723.93	251.95
724.26	251.71
724.59	251.45
724.92	251.21
725.25	251.02
725.59	250.77
725.92	250.55
726.25	250.30
726.58	250.05
726.91	249.79
727.24	249.57
727.57	249.33
727.91	249.06
728.24	248.85
728.57	248.60
728.90	248.39
729.23	248.10
729.56	247.96
729.89	247.75
730.22	247.51
730.55	247.30
730.89	247.07
731.22	246.84
731.55	246.63
731.88	246.42
732.21	246.16
732.54	245.94
732.87	245.74
733.20	245.55
733.53	245.37
733.86	245.19
734.19	244.97
734.52	244.81
734.85	244.77
735.18	244.55
735.51	244.42
735.84	244.23
736.17	244.11
736.50	243.83
736.83	243.86
737.16	243.68
737.49	243.51
737.82	243.32
738.15	243.16
738.48	242.98
738.81	242.79
739.14	242.60
739.47	242.41
739.80	242.23
740.13	242.07
740.46	241.86
740.79	241.66
741.12	241.48
741.45	241.27
741.78	240.99
742.11	240.87
742.44	240.65
742.77	240.50
743.10	240.31
743.43	240.14
743.75	239.78
744.08	239.89
744.41	239.72
744.74	239.56
745.07	239.37
745.40	239.27
745.73	239.19
746.06	239.06
746.39	238.95
746.71	238.79
747.04	238.63
747.37	238.48
747.70	238.37
748.03	238.24
748.36	238.13
748.68	237.99
749.01	237.80
749.34	237.68
749.67	237.55
750.00	237.45
750.33	237.46
750.65	237.35
750.98	236.95
751.31	236.85
751.64	236.74
751.97	236.72
752.29	236.57
752.62	236.36
752.95	236.23
753.28	236.08
753.60	235.95
753.93	235.87
754.26	235.78
754.59	235.60
754.91	235.47
755.24	235.33
755.57	235.22
755.90	235.11
756.22	234.97
756.55	234.82
756.88	234.67
757.20	234.44
757.53	234.28
757.86	234.16
758.19	234.06
758.51	233.95
758.84	233.75
759.17	233.63
759.49	233.55
759.82	233.53
760.15	233.46
760.47	233.36
760.80	233.21
761.13	233.13
761.45	233.04
761.78	232.95
762.11	232.87
762.43	232.75
762.76	232.66
763.08	232.59
763.41	232.53
763.74	232.46
764.06	232.38
764.39	232.30
764.71	232.22
765.04	232.12
765.37	232.03
765.69	231.95
766.02	231.87
766.34	231.77
766.67	231.63
767.00	231.59
767.32	231.62
767.65	231.66
767.97	231.57
768.30	231.51
768.62	231.44
768.95	231.36
769.27	231.29
769.60	231.25
769.92	231.15
770.25	231.05
770.57	230.94
770.90	230.88
771.22	230.80
771.55	230.75
771.87	230.70
772.20	230.64
772.52	230.73
772.85	230.90
773.17	230.84
773.50	230.77
773.82	230.68
774.15	230.53
774.47	230.36
774.80	230.29
775.12	230.23
775.45	230.18
775.77	230.14
776.09	230.10
776.42	230.05
776.74	230.06
777.07	230.01
777.39	229.97
777.72	229.91
778.04	229.88
778.36	229.82
778.69	229.78
779.01	229.75
779.33	229.54
779.66	229.28
779.98	229.23
780.31	229.20
780.63	229.24
780.95	229.23
781.28	229.18
781.60	229.13
781.92	229.09
782.25	229.05
782.57	229.01
782.89	228.96
783.22	228.91
783.54	228.84
783.86	228.82
784.19	228.78
784.51	228.80
784.83	228.74
785.16	228.71
785.48	228.67
785.80	228.63
786.12	228.62
786.45	228.59
786.77	228.57
787.09	228.52
787.42	228.42
787.74	228.40
788.06	228.38
788.38	228.34
788.71	228.30
789.03	228.28
789.35	228.27
789.67	228.22
789.99	228.20
790.32	228.15
790.64	228.14
790.96	228.28
791.28	228.19
791.61	228.15
791.93	228.14
792.25	228.10
792.57	228.20
792.89	228.15
793.21	228.13
793.54	228.09
793.86	228.04
794.18	228.02
794.50	227.96
794.82	227.94
795.14	227.93
795.47	227.95
795.79	227.92
796.11	227.85
796.43	227.82
796.75	227.80
797.07	227.78
797.39	227.75
797.71	227.57
798.04	227.56
798.36	227.55
798.68	227.52
799.00	227.51
799.32	227.39
799.64	227.40
799.96	227.37
800.28	227.39
800.60	227.36
800.92	227.36
801.24	227.33
801.56	227.33
801.89	227.29
802.21	227.27
802.53	227.22
802.85	227.25
803.17	227.32
803.49	227.26
803.81	227.22
804.13	227.19
804.45	227.15
804.77	227.15
805.09	227.13
805.41	227.10
805.73	227.04
806.05	226.98
806.37	226.95
806.69	226.92
807.01	226.88
807.33	226.87
807.65	226.78
807.97	226.85
808.28	226.80
808.60	226.78
808.92	226.74
809.24	226.84
809.56	226.79
809.88	226.70
810.20	226.70
810.52	226.73
810.84	226.69
811.16	226.65
811.48	226.62
811.80	226.67
812.12	226.65
812.43	226.67
812.75	226.67
813.07	226.64
813.39	226.63
813.71	226.59
814.03	226.56
814.35	226.56
814.67	226.47
814.98	226.45
815.30	226.44
815.62	226.40
815.94	226.26
816.26	226.27
816.58	226.22
816.89	226.22
817.21	226.16
817.53	226.16
817.85	226.16
818.17	226.14
818.48	226.06
818.80	226.08
819.12	226.04
819.44	226.00
819.76	225.97
820.07	225.95
820.39	225.94
820.71	225.95
821.03	225.93
821.34	225.91
821.66	225.93
821.98	225.93
822.30	225.92
822.61	226.02
822.93	225.98
823.25	225.97
823.57	225.94
823.88	225.96
824.20	225.95
824.52	225.97
824.83	225.95
825.15	225.92
825.47	225.90
825.79	225.91
826.10	225.89
826.42	225.88
826.74	225.89
827.05	225.87
827.37	225.87
827.69	225.85
828.00	225.85
828.32	225.84
828.64	225.81
828.95	225.90
829.27	225.83
829.58	225.83
829.90	225.85
830.22	225.85
830.53	225.81
830.85	225.79
831.17	225.73
831.48	225.73
831.80	225.73
832.11	225.71
832.43	225.68
832.75	225.67
833.06	225.77
833.38	225.71
833.69	225.70
834.01	225.70
834.32	225.70
834.64	225.67
834.96	225.66
835.27	225.66
835.59	225.58
835.90	225.55
836.22	225.54
836.53	225.50
836.85	225.47
837.16	225.65
837.48	225.65
837.79	225.71
838.11	225.70
838.42	225.70
838.74	225.72
839.05	225.70
839.37	225.69
839.68	225.57
840.00	225.56
840.31	225.58
840.63	225.56
840.94	225.53
841.26	225.51
841.57	225.51
841.88	225.52
842.20	225.49
842.51	225.46
842.83	225.45
843.14	225.62
843.46	225.61
843.77	225.49
844.08	225.48
844.40	225.42
844.71	225.40
845.03	225.38
845.34	225.36
845.65	225.35
845.97	225.36
846.28	225.36
846.60	225.37
846.91	225.34
847.22	225.33
847.54	225.37
847.85	225.38
848.16	225.36
848.48	225.32
848.79	225.39
849.10	225.41
849.42	225.42
849.73	225.24
850.04	225.24
850.36	225.17
850.67	225.20
850.98	225.21
851.30	225.22
851.61	225.22
851.92	225.21
852.23	225.26
852.55	225.27
852.86	225.27
853.17	225.28
853.49	225.32
853.80	225.35
854.11	225.35
854.42	225.37
854.74	225.36
855.05	225.37
855.36	225.27
855.67	225.27
855.99	225.26
856.30	225.48
856.61	225.48
856.92	225.48
857.23	225.48
857.55	225.45
857.86	225.43
858.17	225.46
858.48	225.43
858.79	225.38
859.11	225.39
859.42	225.37
859.73	225.35
860.04	225.33
860.35	225.27
860.66	225.21
860.98	225.20
861.29	225.22
861.60	225.20
861.91	225.24
862.22	225.21
862.53	225.18
862.84	224.96
863.16	225.00
863.47	224.97
863.78	224.94
864.09	224.95
864.40	224.96
864.71	224.95
865.02	224.98
865.33	224.96
865.64	224.93
865.95	224.92
866.27	225.04
866.58	225.02
866.89	225.05
867.20	225.05
867.51	225.02
867.82	225.00
868.13	225.07
868.44	225.02
868.75	225.06
869.06	225.07
869.37	225.09
869.68	225.04
869.99	225.07
870.30	225.09
870.61	225.11
870.92	225.07
871.23	225.06
871.54	225.08
871.85	225.12
872.16	225.14
872.47	225.13
872.78	225.02
873.09	225.04
873.40	225.01
873.71	225.03
874.02	225.04
874.33	225.02
874.64	224.97
874.95	225.01
875.26	224.96
875.56	224.95
875.87	224.94
876.18	224.93
876.49	225.11
876.80	225.09
877.11	225.05
877.42	225.06
877.73	225.07
878.04	225.03
878.35	225.03
878.66	225.03
878.96	225.03
879.27	225.02
879.58	225.01
879.89	225.00
880.20	225.05
880.51	225.04
880.82	225.05
881.12	225.05
881.43	225.02
881.74	225.00
882.05	224.99
882.36	225.00
882.67	225.02
882.97	224.81
883.28	224.80
883.59	224.80
883.90	224.81
884.21	224.83
884.51	224.83
884.82	224.80
885.13	224.79
885.44	224.79
885.74	224.79
886.05	224.79
886.36	224.79
886.67	224.72
886.98	224.81
887.28	224.83
887.59	224.83
887.90	224.84
888.20	224.84
888.51	224.87
888.82	224.84
889.13	224.85
889.43	225.02
889.74	225.01
890.05	225.00
890.35	224.98
890.66	224.95
890.97	224.93
891.28	224.92
891.58	224.92
891.89	224.92
892.20	224.90
892.50	224.88
892.81	224.87
893.12	224.87
893.42	224.78
893.73	224.78
894.04	224.78
894.34	224.79
894.65	224.79
894.95	224.76
895.26	224.77
895.57	224.85
895.87	224.66
896.18	224.69
896.48	224.70
896.79	224.70
897.10	224.73
897.40	224.74
897.71	224.77
898.01	224.75
898.32	224.77
898.63	224.76
898.93	224.78
899.24	224.78
899.54	224.77
899.85	224.77
900.15	224.76
900.46	224.76
900.76	224.77
901.07	224.77
901.38	224.76
901.68	224.78
901.99	224.69
902.29	224.70
902.60	224.68
902.90	224.67
903.21	224.66
903.51	224.64
903.82	224.68
904.12	224.68
904.43	224.69
904.73	224.67
905.03	224.68
905.34	224.85
905.64	224.84
905.95	224.84
906.25	224.84
906.56	224.83
906.86	224.83
907.17	224.81
907.47	224.82
907.77	224.80
908.08	224.76
908.38	224.78
908.69	224.79
908.99	224.82
909.30	224.84
909.60	224.83
909.90	224.83
910.21	224.78
910.51	224.75
910.81	224.75
911.12	224.76
911.42	224.76
911.73	224.57
912.03	224.58
912.33	224.62
912.64	224.61
912.94	224.59
913.24	224.56
913.55	224.55
913.85	224.54
914.15	224.58
914.46	224.60
914.76	224.58
915.06	224.57
915.37	224.53
915.67	224.52
915.97	224.52
916.27	224.49
916.58	224.50
916.88	224.50
917.18	224.49
917.49	224.61
917.79	224.60
918.09	224.63
918.39	224.67
918.70	224.66
919.00	224.67
919.30	224.76
919.60	224.75
919.91	224.74
920.21	224.74
920.51	224.70
920.81	224.69
921.12	224.72
921.42	224.71
921.72	224.73
922.02	224.74
922.32	224.76
922.63	224.77
922.93	224.87
923.23	224.88
923.53	224.87
923.83	224.75
924.13	224.77
924.44	224.76
924.74	224.78
925.04	224.82
925.34	224.81
925.64	224.73
925.94	224.73
926.24	224.84
926.55	224.83
926.85	224.86
927.15	224.86
927.45	224.85
927.75	224.85
928.05	224.85
928.35	224.84
928.65	224.86
928.95	224.88
929.26	224.79
929.56	224.82
929.86	224.85
930.16	224.83
930.46	224.81
930.76	224.82
931.06	224.73
931.36	224.68
931.66	224.71
931.96	224.73
932.26	224.74
932.56	224.66
932.86	224.68
933.16	224.67
933.46	224.66
933.76	224.63
934.06	224.67
934.36	224.73
934.66	224.72
934.96	224.69
935.26	224.70
935.56	224.72
935.86	224.68
936.16	224.65
936.46	224.64
936.76	224.63
937.06	224.61
937.36	224.62
937.66	224.63
937.96	224.62
938.26	224.58
938.56	224.56
938.86	224.57
939.16	224.60
939.46	224.62
939.76	224.63
940.06	224.63
940.35	224.59
940.65	224.50
940.95	224.52
941.25	224.47
941.55	224.45
941.85	224.43
942.15	224.47
942.45	224.53
942.75	224.53
943.04	224.53
943.34	224.57
943.64	224.56
943.94	224.53
944.24	224.53
944.54	224.55
944.84	224.55
945.13	224.53
945.43	224.49
945.73	224.48
946.03	224.46
946.33	224.45
946.62	224.43
946.92	224.43
947.22	224.44
947.52	224.46
947.82	224.48
948.11	224.46
948.41	224.43
948.71	224.37
949.01	224.39
949.31	224.37
949.60	224.35
949.90	224.37
950.20	224.37
950.50	224.36
950.79	224.35
951.09	224.37
951.39	224.37
951.69	224.35
951.98	224.39
952.28	224.40
952.58	224.40
952.87	224.40
953.17	224.43
953.47	224.41
953.76	224.40
954.06	224.36
954.36	224.34
954.66	224.34
954.95	224.38
955.25	224.39
955.55	224.41
955.84	224.38
956.14	224.40
956.44	224.41
956.73	224.38
957.03	224.40
957.32	224.40
957.62	224.39
957.92	224.43
958.21	224.41
958.51	224.62
958.81	224.64
959.10	224.66
959.40	224.70
959.69	224.72
959.99	224.75
960.29	224.75
960.58	224.75
960.88	224.82
961.17	224.80
961.47	224.81
961.76	224.79
962.06	224.83
962.36	224.80
962.65	224.81
962.95	224.82
963.24	224.80
963.54	224.81
963.83	224.82
964.13	224.81
964.42	224.79
964.72	224.63
965.01	224.63
965.31	224.61
965.60	224.56
965.90	224.68
966.19	224.63
966.49	224.65
966.78	224.65
967.08	224.62
967.37	224.62
967.67	224.59
967.96	224.62
968.26	224.61
968.55	224.64
968.85	224.63
969.14	224.62
969.43	224.62
969.73	224.60
970.02	224.59
970.32	224.58
970.61	224.56
970.91	224.50
971.20	224.47
971.49	224.45
971.79	224.48
972.08	224.34
972.38	224.36
972.67	224.35
972.96	224.38
973.26	224.34
973.55	224.40
973.85	224.39
974.14	224.38
974.43	224.39
974.73	224.36
975.02	224.34
975.31	224.34
975.61	224.34
975.90	224.33
976.19	224.32
976.49	224.34
976.78	224.35
977.07	224.35
977.37	224.37
977.66	224.39
977.95	224.36
978.24	224.38
978.54	224.41
978.83	224.40
979.12	224.39
979.42	224.39
979.71	224.35
980.00	224.35
980.29	224.36
980.59	224.32
980.88	224.37
981.17	224.36
981.46	224.36
981.76	224.36
982.05	224.42
982.34	224.43
982.63	224.43
982.93	224.43
983.22	224.48
983.51	224.48
983.80	224.51
984.09	224.54
984.39	224.52
984.68	224.49
984.97	224.50
985.26	224.49
985.55	224.50
985.85	224.47
986.14	224.50
986.43	224.51
986.72	224.51
987.01	224.45
987.30	224.45
987.59	224.44
987.89	224.45
988.18	224.39
988.47	224.38
988.76	224.36
989.05	224.35
989.34	224.32
989.63	224.36
989.92	224.33
990.22	224.31
990.51	224.31
990.80	224.29
991.09	224.31
991.38	224.33
991.67	224.32
991.96	224.31
992.25	224.31
992.54	224.27
992.83	224.27
993.12	224.28
993.41	224.31
993.70	224.39
993.99	224.41
994.28	224.45
994.58	224.48
994.87	224.46
995.16	224.46
995.45	224.44
995.74	224.38
996.03	224.40
996.32	224.43
996.61	224.47
996.90	224.47
997.19	224.45
997.48	224.46
997.77	224.43
998.06	224.45
998.34	224.43
998.63	224.44
998.92	224.44
999.21	224.47
999.50	224.47
999.79	224.40
1000.08	224.39
1000.37	224.39
1000.66	224.36
1000.95	224.41
1001.24	224.42
1001.53	224.44
1001.82	224.44
1002.11	224.39
1002.40	224.41
1002.68	224.45
1002.97	224.58
1003.26	224.56
1003.55	224.53
1003.84	224.55
1004.13	224.60
1004.42	224.60
1004.71	224.59
1004.99	224.58
1005.28	224.62
1005.57	224.60
1005.86	224.59
1006.15	224.57
1006.44	224.54
1006.72	224.57
1007.01	224.53
1007.30	224.54
1007.59	224.52
1007.88	224.52
1008.17	224.53
1008.45	224.49
1008.74	224.41
1009.03	224.33
1009.32	224.33
1009.60	224.34
1009.89	224.32
1010.18	224.25
1010.47	224.24
1010.76	224.24
1011.04	224.24
1011.33	224.23
1011.62	224.25
1011.91	224.27
1012.19	224.28
1012.48	224.28
1012.77	224.28
1013.05	224.34
1013.34	224.34
1013.63	224.33
1013.92	224.35
1014.20	224.33
1014.49	224.35
1014.78	224.36
1015.06	224.30
1015.35	224.31
1015.64	224.33
1015.92	224.36
1016.21	224.37
1016.50	224.37
1016.78	224.40
1017.07	224.41
1017.36	224.38
1017.64	224.35
1017.93	224.37
1018.22	224.35
1018.50	224.35
1018.79	224.35
1019.08	224.28
1019.36	224.29
1019.65	224.28
1019.93	224.32
1020.22	224.35
1020.51	224.44
1020.79	224.42
1021.08	224.14
1021.36	224.04
1021.65	224.32
1021.94	224.20
1022.22	224.42
1022.51	224.06
1022.79	225.19
1023.08	224.60
1023.36	226.52
1023.65	223.83
>>>>>End Processed Spectral Data<<<<<
