SpectraSuite Data File
++++++++++++++++++++++++++++++++++++
Date: Tue Oct 06 23:07:20 EDT 2015
User: lab3
Dark Spectrum Present: No
Reference Spectrum Present: No
Number of Sampled Component Spectra: 1
Spectrometers: USB2E7196
Integration Time (usec): 66000 (USB2E7196)
Spectra Averaged: 10000 (USB2E7196)
Boxcar Smoothing: 10 (USB2E7196)
Correct for Electrical Dark: No (USB2E7196)
Strobe/Lamp Enabled: No (USB2E7196)
Correct for Detector Non-linearity: No (USB2E7196)
Correct for Stray Light: No (USB2E7196)
Number of Pixels in Processed Spectrum: 2048
>>>>>Begin Processed Spectral Data<<<<<
339.09	0.00
339.48	213.86
339.86	215.31
340.24	216.63
340.63	218.12
341.01	222.25
341.39	220.83
341.78	222.32
342.16	223.62
342.54	223.85
342.93	212.42
343.31	223.15
343.69	223.69
344.07	224.16
344.46	224.61
344.84	225.01
345.22	225.21
345.60	225.49
345.99	225.70
346.37	225.84
346.75	225.97
347.13	226.06
347.52	226.16
347.90	226.28
348.28	226.33
348.66	226.42
349.05	226.42
349.43	226.49
349.81	226.57
350.19	226.64
350.57	226.72
350.96	226.82
351.34	226.93
351.72	227.04
352.10	227.16
352.48	227.23
352.87	227.28
353.25	227.35
353.63	227.40
354.01	227.46
354.39	227.54
354.77	227.62
355.15	227.73
355.54	227.77
355.92	227.78
356.30	227.86
356.68	228.04
357.06	228.12
357.44	228.16
357.82	228.21
358.20	228.43
358.58	228.49
358.97	228.56
359.35	228.65
359.73	228.75
360.11	228.80
360.49	228.87
360.87	228.92
361.25	228.99
361.63	229.10
362.01	229.16
362.39	229.19
362.77	229.24
363.15	229.26
363.53	229.30
363.91	229.34
364.29	229.37
364.67	229.21
365.05	229.24
365.43	229.28
365.81	229.32
366.19	229.27
366.57	229.35
366.95	229.35
367.33	229.31
367.71	229.30
368.09	229.33
368.47	229.32
368.85	229.31
369.23	229.34
369.61	229.26
369.99	229.30
370.37	229.30
370.75	229.42
371.13	229.39
371.51	229.34
371.89	229.33
372.27	229.31
372.65	229.30
373.03	229.26
373.41	229.21
373.78	229.16
374.16	229.03
374.54	228.93
374.92	228.87
375.30	228.84
375.68	228.77
376.06	228.72
376.44	228.66
376.82	228.63
377.19	228.58
377.57	228.54
377.95	228.43
378.33	228.37
378.71	228.16
379.09	228.12
379.47	228.10
379.84	228.04
380.22	227.97
380.60	227.90
380.98	227.86
381.36	227.80
381.73	227.74
382.11	227.73
382.49	227.70
382.87	227.64
383.25	227.59
383.62	227.76
384.00	227.69
384.38	227.66
384.76	227.66
385.13	227.68
385.51	227.65
385.89	227.59
386.27	227.56
386.64	227.56
387.02	227.51
387.40	227.46
387.78	227.44
388.15	227.42
388.53	227.39
388.91	227.37
389.29	227.34
389.66	227.35
390.04	227.30
390.42	227.32
390.79	227.32
391.17	227.31
391.55	227.09
391.92	227.09
392.30	227.10
392.68	227.05
393.05	227.03
393.43	227.04
393.81	227.06
394.18	227.05
394.56	227.06
394.94	227.12
395.31	227.12
395.69	227.20
396.06	227.24
396.44	227.29
396.82	227.31
397.19	227.45
397.57	227.47
397.95	227.54
398.32	227.54
398.70	227.61
399.07	227.71
399.45	227.78
399.82	227.85
400.20	227.90
400.58	228.00
400.95	228.02
401.33	228.15
401.70	228.38
402.08	228.52
402.45	228.65
402.83	228.82
403.20	228.99
403.58	229.12
403.95	229.33
404.33	229.56
404.71	229.77
405.08	230.08
405.46	230.33
405.83	230.60
406.21	230.89
406.58	231.21
406.96	231.54
407.33	231.92
407.70	232.34
408.08	232.92
408.45	233.42
408.83	233.97
409.20	234.47
409.58	234.92
409.95	235.55
410.33	236.23
410.70	236.87
411.08	237.63
411.45	238.44
411.82	239.25
412.20	240.18
412.57	241.29
412.95	242.17
413.32	243.32
413.69	244.50
414.07	245.75
414.44	247.12
414.82	248.51
415.19	250.14
415.56	251.80
415.94	253.53
416.31	255.47
416.68	257.42
417.06	259.67
417.43	261.78
417.81	264.21
418.18	266.69
418.55	269.38
418.93	272.19
419.30	275.14
419.67	278.25
420.04	281.45
420.42	284.80
420.79	288.67
421.16	292.57
421.54	296.51
421.91	300.64
422.28	304.94
422.66	309.55
423.03	313.95
423.40	318.55
423.77	323.47
424.15	328.52
424.52	333.74
424.89	339.41
425.26	345.02
425.64	350.22
426.01	356.06
426.38	362.03
426.75	368.18
427.13	374.46
427.50	381.03
427.87	387.86
428.24	394.74
428.61	401.32
428.99	408.41
429.36	416.21
429.73	423.66
430.10	431.08
430.47	438.68
430.85	446.53
431.22	454.88
431.59	463.46
431.96	471.83
432.33	481.13
432.70	489.98
433.08	500.46
433.45	510.34
433.82	520.11
434.19	531.06
434.56	541.84
434.93	552.29
435.30	562.66
435.68	574.42
436.05	585.92
436.42	597.43
436.79	607.96
437.16	619.41
437.53	631.63
437.90	643.87
438.27	655.89
438.64	668.88
439.01	680.70
439.38	691.52
439.75	702.01
440.13	713.97
440.50	725.33
440.87	734.44
441.24	744.46
441.61	755.44
441.98	763.58
442.35	773.25
442.72	783.10
443.09	792.49
443.46	798.65
443.83	803.35
444.20	807.28
444.57	812.89
444.94	816.30
445.31	819.82
445.68	822.89
446.05	825.25
446.42	825.13
446.79	824.74
447.16	824.47
447.53	824.26
447.90	820.92
448.27	817.77
448.64	812.66
449.01	809.21
449.37	801.78
449.74	795.04
450.11	786.29
450.48	776.65
450.85	766.95
451.22	758.64
451.59	750.44
451.96	743.02
452.33	732.26
452.70	722.66
453.07	710.99
453.43	699.32
453.80	687.92
454.17	676.99
454.54	666.91
454.91	655.52
455.28	644.75
455.65	634.57
456.02	623.77
456.38	615.09
456.75	603.96
457.12	594.99
457.49	585.94
457.86	577.36
458.23	569.80
458.59	561.48
458.96	552.94
459.33	545.44
459.70	537.80
460.07	531.96
460.43	525.09
460.80	518.66
461.17	513.09
461.54	507.05
461.91	501.38
462.27	495.62
462.64	490.91
463.01	485.53
463.38	480.11
463.74	475.22
464.11	470.86
464.48	466.93
464.85	462.70
465.21	459.46
465.58	455.85
465.95	451.77
466.32	448.52
466.68	445.35
467.05	442.14
467.42	439.03
467.78	435.69
468.15	432.61
468.52	430.35
468.88	427.34
469.25	424.61
469.62	422.45
469.98	420.11
470.35	418.01
470.72	416.11
471.08	414.20
471.45	412.59
471.82	410.79
472.18	408.90
472.55	407.68
472.92	406.15
473.28	404.97
473.65	403.69
474.02	402.46
474.38	401.41
474.75	400.79
475.11	399.94
475.48	399.53
475.85	399.08
476.21	398.81
476.58	398.63
476.94	398.77
477.31	398.79
477.67	398.84
478.04	399.13
478.41	399.53
478.77	400.12
479.14	400.48
479.50	401.23
479.87	402.21
480.23	403.16
480.60	404.07
480.96	404.97
481.33	406.38
481.69	407.76
482.06	409.11
482.42	410.35
482.79	411.91
483.15	413.73
483.52	415.79
483.88	417.75
484.25	419.84
484.61	422.02
484.98	424.39
485.34	427.06
485.71	429.84
486.07	432.83
486.44	435.76
486.80	439.08
487.17	442.46
487.53	446.14
487.90	450.00
488.26	454.21
488.62	458.65
488.99	463.05
489.35	467.70
489.72	472.70
490.08	477.96
490.44	483.33
490.81	488.93
491.17	494.69
491.54	500.87
491.90	507.19
492.26	513.94
492.63	521.02
492.99	528.42
493.36	535.97
493.72	543.91
494.08	552.06
494.45	560.61
494.81	569.56
495.17	578.74
495.54	588.43
495.90	598.55
496.26	608.86
496.63	619.50
496.99	630.52
497.35	642.05
497.72	653.87
498.08	666.02
498.44	678.50
498.80	691.68
499.17	705.15
499.53	719.08
499.89	733.44
500.26	748.02
500.62	762.95
500.98	778.75
501.34	794.58
501.71	811.19
502.07	828.13
502.43	845.54
502.79	863.17
503.16	881.29
503.52	899.64
503.88	918.41
504.24	937.64
504.60	957.12
504.97	977.24
505.33	997.87
505.69	1019.57
506.05	1041.50
506.41	1063.39
506.78	1085.43
507.14	1108.01
507.50	1131.11
507.86	1154.59
508.22	1178.33
508.59	1201.96
508.95	1226.62
509.31	1251.84
509.67	1277.68
510.03	1303.48
510.39	1329.20
510.75	1355.03
511.12	1381.21
511.48	1407.70
511.84	1434.12
512.20	1460.93
512.56	1488.84
512.92	1516.56
513.28	1543.64
513.64	1571.17
514.00	1599.10
514.37	1627.30
514.73	1655.58
515.09	1683.18
515.45	1711.09
515.81	1739.26
516.17	1767.20
516.53	1794.50
516.89	1821.51
517.25	1848.86
517.61	1876.00
517.97	1903.83
518.33	1931.12
518.69	1958.32
519.05	1985.89
519.41	2013.69
519.77	2041.57
520.13	2067.88
520.49	2094.22
520.85	2120.97
521.21	2147.11
521.57	2173.59
521.93	2199.00
522.29	2225.08
522.65	2251.01
523.01	2276.68
523.37	2301.55
523.73	2327.20
524.09	2352.53
524.45	2377.69
524.81	2402.18
525.17	2426.63
525.53	2450.11
525.89	2474.08
526.25	2497.73
526.61	2519.63
526.97	2541.62
527.33	2563.38
527.68	2585.04
528.04	2606.34
528.40	2626.48
528.76	2646.70
529.12	2666.37
529.48	2686.80
529.84	2704.43
530.20	2722.40
530.56	2739.65
530.91	2757.07
531.27	2773.80
531.63	2789.64
531.99	2805.15
532.35	2820.47
532.71	2835.29
533.07	2850.58
533.42	2863.87
533.78	2877.31
534.14	2891.91
534.50	2905.33
534.86	2919.24
535.21	2930.87
535.57	2942.36
535.93	2953.55
536.29	2962.91
536.65	2972.21
537.00	2980.12
537.36	2989.35
537.72	2997.70
538.08	3005.55
538.44	3012.11
538.79	3018.46
539.15	3023.49
539.51	3027.69
539.87	3030.61
540.22	3031.89
540.58	3033.43
540.94	3035.70
541.29	3036.90
541.65	3036.70
542.01	3036.06
542.37	3033.72
542.72	3033.10
543.08	3030.66
543.44	3028.40
543.79	3026.04
544.15	3022.77
544.51	3019.44
544.87	3015.17
545.22	3009.86
545.58	3004.22
545.94	2998.87
546.29	2992.02
546.65	2985.32
547.01	2978.87
547.36	2973.00
547.72	2967.21
548.07	2959.65
548.43	2950.88
548.79	2941.84
549.14	2932.98
549.50	2924.29
549.86	2914.67
550.21	2903.29
550.57	2893.25
550.92	2881.40
551.28	2869.72
551.64	2858.45
551.99	2846.93
552.35	2834.91
552.70	2822.79
553.06	2811.15
553.41	2799.08
553.77	2786.73
554.13	2774.41
554.48	2760.83
554.84	2746.12
555.19	2731.89
555.55	2717.66
555.90	2704.01
556.26	2690.52
556.61	2675.96
556.97	2660.28
557.32	2645.08
557.68	2630.24
558.03	2614.97
558.39	2600.70
558.74	2587.13
559.10	2571.58
559.45	2556.02
559.81	2541.14
560.16	2525.91
560.52	2510.35
560.87	2495.03
561.23	2479.27
561.58	2464.14
561.94	2448.58
562.29	2432.58
562.64	2416.73
563.00	2400.90
563.35	2385.23
563.71	2369.21
564.06	2353.28
564.42	2337.89
564.77	2322.62
565.12	2306.95
565.48	2290.97
565.83	2275.14
566.19	2259.21
566.54	2243.52
566.89	2227.42
567.25	2211.32
567.60	2196.04
567.96	2180.13
568.31	2162.73
568.66	2146.21
569.02	2130.27
569.37	2114.91
569.72	2100.13
570.08	2084.89
570.43	2069.02
570.78	2052.92
571.14	2036.71
571.49	2020.51
571.84	2004.57
572.20	1987.33
572.55	1970.91
572.90	1954.64
573.26	1938.48
573.61	1921.63
573.96	1905.31
574.31	1888.83
574.67	1871.98
575.02	1854.84
575.37	1837.71
575.72	1821.49
576.08	1804.95
576.43	1787.56
576.78	1770.46
577.13	1753.61
577.49	1736.95
577.84	1720.82
578.19	1704.22
578.54	1687.62
578.90	1670.89
579.25	1653.98
579.60	1638.41
579.95	1622.49
580.30	1606.52
580.66	1590.23
581.01	1574.06
581.36	1557.96
581.71	1542.77
582.06	1527.62
582.42	1512.23
582.77	1497.31
583.12	1482.60
583.47	1467.96
583.82	1453.49
584.17	1438.42
584.53	1423.43
584.88	1408.82
585.23	1394.02
585.58	1379.67
585.93	1365.12
586.28	1351.68
586.63	1338.09
586.98	1323.97
587.34	1310.32
587.69	1296.47
588.04	1282.94
588.39	1269.71
588.74	1256.08
589.09	1242.58
589.44	1228.75
589.79	1215.58
590.14	1202.42
590.49	1189.32
590.84	1176.44
591.19	1163.97
591.54	1151.65
591.89	1138.92
592.25	1126.51
592.60	1113.98
592.95	1101.59
593.30	1089.67
593.65	1077.41
594.00	1065.45
594.35	1054.44
594.70	1042.68
595.05	1031.55
595.40	1020.28
595.75	1008.84
596.10	998.08
596.45	987.26
596.80	976.90
597.15	966.48
597.50	956.04
597.85	945.93
598.19	935.82
598.54	925.68
598.89	916.10
599.24	906.91
599.59	897.48
599.94	888.77
600.29	880.07
600.64	871.15
600.99	862.12
601.34	853.44
601.69	844.23
602.04	835.98
602.39	827.62
602.74	819.47
603.08	811.44
603.43	803.41
603.78	795.38
604.13	787.39
604.48	779.44
604.83	771.76
605.18	764.12
605.53	756.66
605.87	749.17
606.22	741.79
606.57	734.34
606.92	726.85
607.27	719.36
607.62	712.07
607.96	705.06
608.31	698.58
608.66	691.97
609.01	685.65
609.36	679.28
609.70	672.89
610.05	666.47
610.40	660.28
610.75	654.04
611.10	648.04
611.44	642.03
611.79	636.18
612.14	630.22
612.49	624.35
612.83	618.79
613.18	613.30
613.53	607.80
613.88	602.44
614.22	597.46
614.57	592.42
614.92	587.49
615.27	582.68
615.61	577.71
615.96	572.82
616.31	567.93
616.65	563.19
617.00	558.57
617.35	554.06
617.70	549.54
618.04	545.13
618.39	540.86
618.74	536.86
619.08	532.80
619.43	528.88
619.78	524.92
620.12	520.91
620.47	517.12
620.82	513.45
621.16	509.80
621.51	506.19
621.85	502.58
622.20	499.04
622.55	495.49
622.89	491.99
623.24	488.68
623.59	485.43
623.93	482.27
624.28	479.24
624.62	476.40
624.97	473.59
625.32	470.69
625.66	467.76
626.01	464.80
626.35	462.02
626.70	459.17
627.04	456.53
627.39	453.87
627.73	451.27
628.08	448.72
628.43	446.19
628.77	443.60
629.12	441.12
629.46	438.76
629.81	436.55
630.15	434.25
630.50	431.98
630.84	429.77
631.19	427.58
631.53	425.50
631.88	423.24
632.22	421.08
632.57	419.23
632.91	417.31
633.26	415.48
633.60	413.66
633.95	411.94
634.29	410.08
634.64	408.29
634.98	406.38
635.32	404.66
635.67	403.11
636.01	401.55
636.36	400.04
636.70	398.60
637.05	397.00
637.39	395.57
637.73	394.13
638.08	392.77
638.42	391.44
638.77	389.98
639.11	388.49
639.45	387.05
639.80	385.57
640.14	384.17
640.49	382.77
640.83	381.37
641.17	380.03
641.52	378.71
641.86	377.43
642.20	376.31
642.55	375.00
642.89	373.72
643.23	372.50
643.58	371.42
643.92	370.17
644.26	369.02
644.61	367.91
644.95	366.76
645.29	365.55
645.64	364.33
645.98	363.23
646.32	362.25
646.66	361.19
647.01	360.17
647.35	359.24
647.69	358.28
648.04	357.39
648.38	356.42
648.72	355.52
649.06	354.61
649.41	353.67
649.75	352.78
650.09	351.93
650.43	351.05
650.78	350.13
651.12	349.27
651.46	348.43
651.80	347.60
652.14	346.82
652.49	346.11
652.83	345.33
653.17	344.53
653.51	343.74
653.85	343.08
654.20	342.36
654.54	341.55
654.88	340.78
655.22	340.07
655.56	339.33
655.90	338.63
656.25	337.94
656.59	337.27
656.93	336.64
657.27	336.06
657.61	335.40
657.95	334.81
658.29	334.19
658.64	333.58
658.98	332.92
659.32	332.28
659.66	331.66
660.00	331.11
660.34	330.54
660.68	329.92
661.02	329.25
661.36	328.62
661.70	328.04
662.05	327.47
662.39	326.92
662.73	326.45
663.07	326.01
663.41	325.53
663.75	324.99
664.09	324.46
664.43	323.82
664.77	323.29
665.11	322.69
665.45	322.16
665.79	321.65
666.13	321.12
666.47	320.58
666.81	320.00
667.15	319.38
667.49	318.91
667.83	318.49
668.17	318.03
668.51	317.61
668.85	317.20
669.19	316.85
669.53	316.31
669.87	315.76
670.21	315.20
670.55	314.68
670.89	314.28
671.23	313.82
671.57	313.42
671.91	313.07
672.25	312.73
672.58	312.39
672.92	311.96
673.26	311.62
673.60	311.27
673.94	310.90
674.28	310.57
674.62	310.19
674.96	309.76
675.30	309.38
675.64	308.94
675.97	308.49
676.31	308.00
676.65	307.59
676.99	307.27
677.33	306.84
677.67	306.44
678.01	305.97
678.34	305.56
678.68	305.17
679.02	304.71
679.36	304.26
679.70	303.81
680.04	303.41
680.37	303.00
680.71	302.61
681.05	302.25
681.39	301.84
681.73	301.38
682.06	300.96
682.40	300.56
682.74	300.21
683.08	299.91
683.42	299.53
683.75	299.19
684.09	298.72
684.43	298.34
684.77	297.94
685.10	297.55
685.44	297.15
685.78	296.74
686.12	296.35
686.45	295.93
686.79	295.49
687.13	295.09
687.46	294.64
687.80	294.23
688.14	293.75
688.48	293.34
688.81	292.92
689.15	292.55
689.49	292.10
689.82	291.67
690.16	291.12
690.50	290.68
690.83	290.22
691.17	289.76
691.51	289.33
691.84	288.93
692.18	288.49
692.52	288.03
692.85	287.59
693.19	287.21
693.52	286.77
693.86	286.33
694.20	285.90
694.53	285.46
694.87	284.99
695.21	284.53
695.54	284.09
695.88	283.63
696.21	283.13
696.55	282.68
696.88	282.22
697.22	281.80
697.56	281.39
697.89	280.92
698.23	280.50
698.56	280.04
698.90	279.63
699.23	279.17
699.57	278.76
699.90	278.33
700.24	277.86
700.58	277.46
700.91	277.09
701.25	276.83
701.58	276.52
701.92	276.17
702.25	275.79
702.59	275.37
702.92	274.98
703.26	274.57
703.59	274.15
703.93	273.89
704.26	273.50
704.60	273.07
704.93	272.67
705.26	272.26
705.60	271.90
705.93	271.45
706.27	271.13
706.60	270.78
706.94	270.46
707.27	270.03
707.61	269.64
707.94	269.21
708.27	268.64
708.61	268.18
708.94	267.74
709.28	267.35
709.61	266.97
709.94	266.62
710.28	266.27
710.61	265.95
710.95	265.42
711.28	265.18
711.61	264.82
711.95	264.51
712.28	264.14
712.61	263.77
712.95	263.51
713.28	263.22
713.61	262.83
713.95	262.44
714.28	262.12
714.61	261.75
714.95	261.42
715.28	261.08
715.61	260.76
715.95	260.46
716.28	260.13
716.61	259.84
716.95	259.50
717.28	259.19
717.61	258.87
717.94	258.58
718.28	258.15
718.61	257.85
718.94	257.51
719.27	257.22
719.61	256.95
719.94	256.63
720.27	256.25
720.60	255.97
720.94	255.68
721.27	255.40
721.60	255.16
721.93	254.88
722.27	254.65
722.60	254.38
722.93	254.08
723.26	253.84
723.59	253.54
723.93	253.30
724.26	253.06
724.59	252.79
724.92	252.55
725.25	252.35
725.59	252.11
725.92	251.89
726.25	251.65
726.58	251.40
726.91	251.14
727.24	250.92
727.57	250.68
727.91	250.41
728.24	250.21
728.57	249.96
728.90	249.75
729.23	249.47
729.56	249.33
729.89	249.11
730.22	248.88
730.55	248.66
730.89	248.44
731.22	248.22
731.55	248.01
731.88	247.80
732.21	247.56
732.54	247.33
732.87	247.13
733.20	246.95
733.53	246.76
733.86	246.58
734.19	246.37
734.52	246.21
734.85	246.16
735.18	245.95
735.51	245.81
735.84	245.64
736.17	245.52
736.50	245.24
736.83	245.27
737.16	245.09
737.49	244.92
737.82	244.73
738.15	244.57
738.48	244.39
738.81	244.20
739.14	244.01
739.47	243.83
739.80	243.64
740.13	243.48
740.46	243.27
740.79	243.07
741.12	242.89
741.45	242.68
741.78	242.41
742.11	242.29
742.44	242.07
742.77	241.92
743.10	241.72
743.43	241.55
743.75	241.20
744.08	241.32
744.41	241.14
744.74	240.98
745.07	240.79
745.40	240.69
745.73	240.61
746.06	240.48
746.39	240.36
746.71	240.21
747.04	240.04
747.37	239.90
747.70	239.79
748.03	239.66
748.36	239.56
748.68	239.41
749.01	239.23
749.34	239.11
749.67	238.98
750.00	238.87
750.33	238.88
750.65	238.77
750.98	238.38
751.31	238.26
751.64	238.16
751.97	238.14
752.29	237.98
752.62	237.78
752.95	237.65
753.28	237.50
753.60	237.37
753.93	237.30
754.26	237.20
754.59	237.02
754.91	236.89
755.24	236.75
755.57	236.64
755.90	236.52
756.22	236.39
756.55	236.24
756.88	236.09
757.20	235.85
757.53	235.69
757.86	235.57
758.19	235.48
758.51	235.36
758.84	235.16
759.17	235.05
759.49	234.96
759.82	234.94
760.15	234.86
760.47	234.76
760.80	234.61
761.13	234.54
761.45	234.45
761.78	234.36
762.11	234.27
762.43	234.16
762.76	234.07
763.08	234.01
763.41	233.94
763.74	233.87
764.06	233.78
764.39	233.70
764.71	233.62
765.04	233.51
765.37	233.41
765.69	233.33
766.02	233.25
766.34	233.15
766.67	233.01
767.00	232.96
767.32	232.98
767.65	233.02
767.97	232.93
768.30	232.87
768.62	232.80
768.95	232.71
769.27	232.63
769.60	232.59
769.92	232.49
770.25	232.38
770.57	232.29
770.90	232.22
771.22	232.14
771.55	232.08
771.87	232.04
772.20	231.97
772.52	232.07
772.85	232.23
773.17	232.17
773.50	232.10
773.82	232.01
774.15	231.86
774.47	231.69
774.80	231.62
775.12	231.56
775.45	231.50
775.77	231.46
776.09	231.42
776.42	231.37
776.74	231.38
777.07	231.33
777.39	231.29
777.72	231.23
778.04	231.22
778.36	231.15
778.69	231.11
779.01	231.08
779.33	230.88
779.66	230.63
779.98	230.58
780.31	230.55
780.63	230.58
780.95	230.58
781.28	230.54
781.60	230.48
781.92	230.44
782.25	230.40
782.57	230.36
782.89	230.32
783.22	230.26
783.54	230.19
783.86	230.17
784.19	230.12
784.51	230.14
784.83	230.08
785.16	230.04
785.48	230.01
785.80	229.97
786.12	229.96
786.45	229.92
786.77	229.90
787.09	229.85
787.42	229.75
787.74	229.72
788.06	229.70
788.38	229.67
788.71	229.62
789.03	229.60
789.35	229.59
789.67	229.54
789.99	229.53
790.32	229.48
790.64	229.47
790.96	229.61
791.28	229.52
791.61	229.48
791.93	229.47
792.25	229.43
792.57	229.53
792.89	229.47
793.21	229.46
793.54	229.41
793.86	229.37
794.18	229.35
794.50	229.29
794.82	229.26
795.14	229.26
795.47	229.27
795.79	229.25
796.11	229.18
796.43	229.16
796.75	229.13
797.07	229.11
797.39	229.07
797.71	228.90
798.04	228.88
798.36	228.88
798.68	228.84
799.00	228.84
799.32	228.72
799.64	228.73
799.96	228.70
800.28	228.72
800.60	228.70
800.92	228.69
801.24	228.67
801.56	228.66
801.89	228.62
802.21	228.60
802.53	228.55
802.85	228.58
803.17	228.64
803.49	228.59
803.81	228.55
804.13	228.53
804.45	228.49
804.77	228.48
805.09	228.46
805.41	228.43
805.73	228.38
806.05	228.31
806.37	228.28
806.69	228.25
807.01	228.21
807.33	228.20
807.65	228.12
807.97	228.18
808.28	228.14
808.60	228.12
808.92	228.07
809.24	228.17
809.56	228.12
809.88	228.04
810.20	228.04
810.52	228.06
810.84	228.02
811.16	227.99
811.48	227.96
811.80	228.01
812.12	227.99
812.43	228.02
812.75	228.02
813.07	227.99
813.39	227.98
813.71	227.94
814.03	227.91
814.35	227.91
814.67	227.83
814.98	227.80
815.30	227.79
815.62	227.75
815.94	227.61
816.26	227.62
816.58	227.57
816.89	227.57
817.21	227.52
817.53	227.52
817.85	227.52
818.17	227.50
818.48	227.41
818.80	227.43
819.12	227.39
819.44	227.35
819.76	227.31
820.07	227.30
820.39	227.29
820.71	227.30
821.03	227.28
821.34	227.26
821.66	227.28
821.98	227.28
822.30	227.27
822.61	227.37
822.93	227.33
823.25	227.32
823.57	227.30
823.88	227.31
824.20	227.29
824.52	227.31
824.83	227.29
825.15	227.27
825.47	227.24
825.79	227.25
826.10	227.23
826.42	227.22
826.74	227.22
827.05	227.21
827.37	227.20
827.69	227.18
828.00	227.18
828.32	227.16
828.64	227.13
828.95	227.22
829.27	227.15
829.58	227.14
829.90	227.16
830.22	227.17
830.53	227.13
830.85	227.11
831.17	227.05
831.48	227.04
831.80	227.05
832.11	227.03
832.43	227.00
832.75	226.99
833.06	227.09
833.38	227.04
833.69	227.03
834.01	227.03
834.32	227.02
834.64	227.00
834.96	226.99
835.27	226.98
835.59	226.92
835.90	226.88
836.22	226.88
836.53	226.83
836.85	226.80
837.16	226.99
837.48	226.99
837.79	227.04
838.11	227.04
838.42	227.03
838.74	227.05
839.05	227.03
839.37	227.02
839.68	226.90
840.00	226.89
840.31	226.91
840.63	226.89
840.94	226.87
841.26	226.85
841.57	226.84
841.88	226.85
842.20	226.82
842.51	226.79
842.83	226.78
843.14	226.95
843.46	226.94
843.77	226.82
844.08	226.81
844.40	226.75
844.71	226.73
845.03	226.71
845.34	226.69
845.65	226.69
845.97	226.69
846.28	226.70
846.60	226.71
846.91	226.68
847.22	226.67
847.54	226.71
847.85	226.71
848.16	226.69
848.48	226.65
848.79	226.73
849.10	226.75
849.42	226.75
849.73	226.57
850.04	226.57
850.36	226.51
850.67	226.54
850.98	226.54
851.30	226.56
851.61	226.55
851.92	226.55
852.23	226.60
852.55	226.61
852.86	226.61
853.17	226.62
853.49	226.66
853.80	226.69
854.11	226.70
854.42	226.72
854.74	226.70
855.05	226.71
855.36	226.61
855.67	226.61
855.99	226.61
856.30	226.83
856.61	226.82
856.92	226.82
857.23	226.82
857.55	226.80
857.86	226.78
858.17	226.81
858.48	226.78
858.79	226.73
859.11	226.75
859.42	226.73
859.73	226.70
860.04	226.68
860.35	226.63
860.66	226.57
860.98	226.56
861.29	226.58
861.60	226.56
861.91	226.60
862.22	226.58
862.53	226.54
862.84	226.33
863.16	226.36
863.47	226.33
863.78	226.29
864.09	226.31
864.40	226.32
864.71	226.31
865.02	226.34
865.33	226.31
865.64	226.28
865.95	226.28
866.27	226.39
866.58	226.37
866.89	226.39
867.20	226.39
867.51	226.36
867.82	226.34
868.13	226.40
868.44	226.36
868.75	226.39
869.06	226.40
869.37	226.42
869.68	226.38
869.99	226.41
870.30	226.42
870.61	226.43
870.92	226.41
871.23	226.39
871.54	226.41
871.85	226.45
872.16	226.47
872.47	226.46
872.78	226.35
873.09	226.37
873.40	226.35
873.71	226.36
874.02	226.37
874.33	226.35
874.64	226.31
874.95	226.34
875.26	226.29
875.56	226.29
875.87	226.27
876.18	226.27
876.49	226.44
876.80	226.42
877.11	226.38
877.42	226.39
877.73	226.39
878.04	226.36
878.35	226.35
878.66	226.35
878.96	226.35
879.27	226.34
879.58	226.33
879.89	226.31
880.20	226.36
880.51	226.35
880.82	226.36
881.12	226.37
881.43	226.33
881.74	226.32
882.05	226.31
882.36	226.32
882.67	226.33
882.97	226.14
883.28	226.13
883.59	226.12
883.90	226.14
884.21	226.16
884.51	226.15
884.82	226.12
885.13	226.12
885.44	226.12
885.74	226.13
886.05	226.12
886.36	226.13
886.67	226.06
886.98	226.15
887.28	226.16
887.59	226.16
887.90	226.16
888.20	226.16
888.51	226.19
888.82	226.16
889.13	226.17
889.43	226.33
889.74	226.32
890.05	226.32
890.35	226.30
890.66	226.27
890.97	226.25
891.28	226.23
891.58	226.23
891.89	226.23
892.20	226.21
892.50	226.19
892.81	226.18
893.12	226.18
893.42	226.09
893.73	226.09
894.04	226.09
894.34	226.10
894.65	226.10
894.95	226.08
895.26	226.09
895.57	226.16
895.87	225.98
896.18	226.02
896.48	226.03
896.79	226.03
897.10	226.06
897.40	226.07
897.71	226.09
898.01	226.08
898.32	226.09
898.63	226.09
898.93	226.11
899.24	226.11
899.54	226.10
899.85	226.10
900.15	226.09
900.46	226.09
900.76	226.10
901.07	226.10
901.38	226.09
901.68	226.11
901.99	226.02
902.29	226.03
902.60	226.01
902.90	226.00
903.21	225.99
903.51	225.97
903.82	226.00
904.12	226.00
904.43	226.01
904.73	226.00
905.03	226.01
905.34	226.18
905.64	226.17
905.95	226.18
906.25	226.17
906.56	226.17
906.86	226.16
907.17	226.15
907.47	226.16
907.77	226.14
908.08	226.10
908.38	226.12
908.69	226.13
908.99	226.16
909.30	226.17
909.60	226.17
909.90	226.17
910.21	226.11
910.51	226.09
910.81	226.09
911.12	226.10
911.42	226.10
911.73	225.91
912.03	225.92
912.33	225.96
912.64	225.94
912.94	225.93
913.24	225.90
913.55	225.88
913.85	225.87
914.15	225.91
914.46	225.93
914.76	225.91
915.06	225.90
915.37	225.87
915.67	225.85
915.97	225.85
916.27	225.83
916.58	225.84
916.88	225.84
917.18	225.83
917.49	225.95
917.79	225.94
918.09	225.96
918.39	226.00
918.70	225.99
919.00	226.00
919.30	226.09
919.60	226.08
919.91	226.07
920.21	226.07
920.51	226.03
920.81	226.02
921.12	226.05
921.42	226.04
921.72	226.05
922.02	226.07
922.32	226.09
922.63	226.10
922.93	226.20
923.23	226.21
923.53	226.19
923.83	226.07
924.13	226.09
924.44	226.08
924.74	226.10
925.04	226.14
925.34	226.14
925.64	226.06
925.94	226.06
926.24	226.16
926.55	226.15
926.85	226.17
927.15	226.17
927.45	226.17
927.75	226.17
928.05	226.17
928.35	226.16
928.65	226.18
928.95	226.19
929.26	226.11
929.56	226.14
929.86	226.17
930.16	226.15
930.46	226.13
930.76	226.14
931.06	226.05
931.36	226.01
931.66	226.03
931.96	226.06
932.26	226.07
932.56	225.99
932.86	226.00
933.16	226.00
933.46	225.98
933.76	225.96
934.06	225.99
934.36	226.05
934.66	226.04
934.96	226.01
935.26	226.02
935.56	226.04
935.86	225.99
936.16	225.96
936.46	225.95
936.76	225.94
937.06	225.91
937.36	225.93
937.66	225.94
937.96	225.92
938.26	225.88
938.56	225.87
938.86	225.88
939.16	225.92
939.46	225.93
939.76	225.95
940.06	225.95
940.35	225.92
940.65	225.83
940.95	225.84
941.25	225.80
941.55	225.78
941.85	225.76
942.15	225.81
942.45	225.86
942.75	225.86
943.04	225.87
943.34	225.90
943.64	225.89
943.94	225.86
944.24	225.86
944.54	225.88
944.84	225.88
945.13	225.86
945.43	225.82
945.73	225.81
946.03	225.79
946.33	225.78
946.62	225.77
946.92	225.77
947.22	225.78
947.52	225.80
947.82	225.83
948.11	225.81
948.41	225.77
948.71	225.71
949.01	225.72
949.31	225.71
949.60	225.69
949.90	225.72
950.20	225.71
950.50	225.70
950.79	225.69
951.09	225.71
951.39	225.71
951.69	225.69
951.98	225.72
952.28	225.74
952.58	225.73
952.87	225.73
953.17	225.76
953.47	225.73
953.76	225.72
954.06	225.69
954.36	225.67
954.66	225.67
954.95	225.72
955.25	225.73
955.55	225.75
955.84	225.72
956.14	225.73
956.44	225.74
956.73	225.72
957.03	225.73
957.32	225.73
957.62	225.72
957.92	225.77
958.21	225.74
958.51	225.95
958.81	225.97
959.10	225.99
959.40	226.02
959.69	226.04
959.99	226.07
960.29	226.07
960.58	226.07
960.88	226.14
961.17	226.11
961.47	226.13
961.76	226.11
962.06	226.14
962.36	226.11
962.65	226.12
962.95	226.14
963.24	226.12
963.54	226.12
963.83	226.14
964.13	226.12
964.42	226.10
964.72	225.95
965.01	225.95
965.31	225.94
965.60	225.89
965.90	226.00
966.19	225.96
966.49	225.97
966.78	225.97
967.08	225.95
967.37	225.95
967.67	225.91
967.96	225.95
968.26	225.94
968.55	225.96
968.85	225.95
969.14	225.95
969.43	225.95
969.73	225.94
970.02	225.93
970.32	225.92
970.61	225.89
970.91	225.84
971.20	225.81
971.49	225.80
971.79	225.82
972.08	225.69
972.38	225.71
972.67	225.70
972.96	225.73
973.26	225.69
973.55	225.74
973.85	225.74
974.14	225.72
974.43	225.73
974.73	225.69
975.02	225.68
975.31	225.68
975.61	225.67
975.90	225.66
976.19	225.64
976.49	225.65
976.78	225.67
977.07	225.67
977.37	225.69
977.66	225.71
977.95	225.69
978.24	225.70
978.54	225.74
978.83	225.73
979.12	225.71
979.42	225.72
979.71	225.67
980.00	225.67
980.29	225.68
980.59	225.64
980.88	225.69
981.17	225.69
981.46	225.69
981.76	225.69
982.05	225.75
982.34	225.77
982.63	225.76
982.93	225.76
983.22	225.80
983.51	225.81
983.80	225.83
984.09	225.85
984.39	225.84
984.68	225.81
984.97	225.82
985.26	225.80
985.55	225.82
985.85	225.79
986.14	225.82
986.43	225.84
986.72	225.83
987.01	225.78
987.30	225.78
987.59	225.77
987.89	225.77
988.18	225.71
988.47	225.70
988.76	225.69
989.05	225.67
989.34	225.64
989.63	225.69
989.92	225.66
990.22	225.63
990.51	225.63
990.80	225.62
991.09	225.63
991.38	225.66
991.67	225.63
991.96	225.62
992.25	225.62
992.54	225.58
992.83	225.59
993.12	225.59
993.41	225.62
993.70	225.70
993.99	225.73
994.28	225.76
994.58	225.79
994.87	225.77
995.16	225.76
995.45	225.75
995.74	225.68
996.03	225.71
996.32	225.74
996.61	225.78
996.90	225.78
997.19	225.77
997.48	225.77
997.77	225.75
998.06	225.77
998.34	225.75
998.63	225.76
998.92	225.76
999.21	225.79
999.50	225.79
999.79	225.72
1000.08	225.72
1000.37	225.71
1000.66	225.69
1000.95	225.74
1001.24	225.75
1001.53	225.78
1001.82	225.78
1002.11	225.74
1002.40	225.76
1002.68	225.79
1002.97	225.92
1003.26	225.90
1003.55	225.88
1003.84	225.89
1004.13	225.95
1004.42	225.94
1004.71	225.94
1004.99	225.93
1005.28	225.96
1005.57	225.95
1005.86	225.94
1006.15	225.92
1006.44	225.89
1006.72	225.91
1007.01	225.88
1007.30	225.88
1007.59	225.86
1007.88	225.86
1008.17	225.87
1008.45	225.83
1008.74	225.75
1009.03	225.66
1009.32	225.67
1009.60	225.67
1009.89	225.66
1010.18	225.58
1010.47	225.58
1010.76	225.57
1011.04	225.57
1011.33	225.57
1011.62	225.58
1011.91	225.60
1012.19	225.60
1012.48	225.61
1012.77	225.61
1013.05	225.67
1013.34	225.67
1013.63	225.66
1013.92	225.68
1014.20	225.67
1014.49	225.68
1014.78	225.70
1015.06	225.64
1015.35	225.64
1015.64	225.67
1015.92	225.69
1016.21	225.71
1016.50	225.72
1016.78	225.74
1017.07	225.76
1017.36	225.72
1017.64	225.70
1017.93	225.71
1018.22	225.69
1018.50	225.68
1018.79	225.68
1019.08	225.61
1019.36	225.62
1019.65	225.61
1019.93	225.65
1020.22	225.68
1020.51	225.77
1020.79	225.75
1021.08	225.40
1021.36	225.33
1021.65	225.69
1021.94	225.54
1022.22	225.81
1022.51	225.34
1022.79	226.51
1023.08	225.88
1023.36	227.78
1023.65	225.26
>>>>>End Processed Spectral Data<<<<<
