SpectraSuite Data File
++++++++++++++++++++++++++++++++++++
Date: Tue Oct 06 11:50:58 EDT 2015
User: lab3
Dark Spectrum Present: No
Reference Spectrum Present: No
Number of Sampled Component Spectra: 1
Spectrometers: USB2E7196
Integration Time (usec): 66000 (USB2E7196)
Spectra Averaged: 1000 (USB2E7196)
Boxcar Smoothing: 10 (USB2E7196)
Correct for Electrical Dark: No (USB2E7196)
Strobe/Lamp Enabled: No (USB2E7196)
Correct for Detector Non-linearity: No (USB2E7196)
Correct for Stray Light: No (USB2E7196)
Number of Pixels in Processed Spectrum: 2048
>>>>>Begin Processed Spectral Data<<<<<
339.09	0.00
339.48	216.37
339.86	217.83
340.24	219.39
340.63	220.72
341.01	224.92
341.39	223.62
341.78	225.04
342.16	226.49
342.54	226.80
342.93	215.04
343.31	225.91
343.69	226.46
344.07	226.94
344.46	227.40
344.84	227.82
345.22	228.02
345.60	228.29
345.99	228.50
346.37	228.64
346.75	228.74
347.13	228.83
347.52	228.92
347.90	229.04
348.28	229.10
348.66	229.19
349.05	229.20
349.43	229.27
349.81	229.34
350.19	229.40
350.57	229.49
350.96	229.58
351.34	229.67
351.72	229.77
352.10	229.89
352.48	229.96
352.87	230.00
353.25	230.07
353.63	230.13
354.01	230.19
354.39	230.28
354.77	230.38
355.15	230.49
355.54	230.53
355.92	230.55
356.30	230.63
356.68	230.81
357.06	230.89
357.44	230.92
357.82	230.99
358.20	231.20
358.58	231.25
358.97	231.31
359.35	231.41
359.73	231.50
360.11	231.55
360.49	231.61
360.87	231.67
361.25	231.73
361.63	231.83
362.01	231.89
362.39	231.90
362.77	231.94
363.15	231.95
363.53	231.99
363.91	232.02
364.29	232.04
364.67	231.89
365.05	231.92
365.43	231.95
365.81	231.98
366.19	231.92
366.57	232.00
366.95	231.99
367.33	231.94
367.71	231.93
368.09	231.96
368.47	231.95
368.85	231.93
369.23	231.95
369.61	231.87
369.99	231.90
370.37	231.90
370.75	232.02
371.13	231.98
371.51	231.93
371.89	231.92
372.27	231.89
372.65	231.86
373.03	231.81
373.41	231.76
373.78	231.71
374.16	231.58
374.54	231.49
374.92	231.43
375.30	231.39
375.68	231.31
376.06	231.28
376.44	231.22
376.82	231.19
377.19	231.14
377.57	231.09
377.95	230.99
378.33	230.92
378.71	230.71
379.09	230.67
379.47	230.64
379.84	230.58
380.22	230.51
380.60	230.44
380.98	230.40
381.36	230.35
381.73	230.27
382.11	230.27
382.49	230.23
382.87	230.17
383.25	230.13
383.62	230.30
384.00	230.21
384.38	230.18
384.76	230.16
385.13	230.17
385.51	230.14
385.89	230.08
386.27	230.05
386.64	230.04
387.02	229.99
387.40	229.95
387.78	229.93
388.15	229.91
388.53	229.88
388.91	229.85
389.29	229.82
389.66	229.84
390.04	229.79
390.42	229.80
390.79	229.80
391.17	229.79
391.55	229.57
391.92	229.57
392.30	229.59
392.68	229.55
393.05	229.54
393.43	229.55
393.81	229.58
394.18	229.57
394.56	229.59
394.94	229.66
395.31	229.67
395.69	229.73
396.06	229.79
396.44	229.84
396.82	229.87
397.19	229.99
397.57	230.01
397.95	230.08
398.32	230.09
398.70	230.16
399.07	230.26
399.45	230.33
399.82	230.41
400.20	230.46
400.58	230.56
400.95	230.58
401.33	230.71
401.70	230.93
402.08	231.08
402.45	231.21
402.83	231.37
403.20	231.54
403.58	231.67
403.95	231.88
404.33	232.10
404.71	232.33
405.08	232.63
405.46	232.89
405.83	233.17
406.21	233.46
406.58	233.79
406.96	234.12
407.33	234.50
407.70	234.93
408.08	235.51
408.45	236.00
408.83	236.54
409.20	237.04
409.58	237.50
409.95	238.12
410.33	238.79
410.70	239.44
411.08	240.21
411.45	241.01
411.82	241.82
412.20	242.75
412.57	243.84
412.95	244.73
413.32	245.87
413.69	247.05
414.07	248.29
414.44	249.67
414.82	251.08
415.19	252.73
415.56	254.39
415.94	256.13
416.31	258.09
416.68	260.07
417.06	262.35
417.43	264.48
417.81	266.92
418.18	269.42
418.55	272.14
418.93	274.98
419.30	277.97
419.67	281.13
420.04	284.40
420.42	287.81
420.79	291.73
421.16	295.70
421.54	299.73
421.91	303.94
422.28	308.32
422.66	313.03
423.03	317.48
423.40	322.19
423.77	327.22
424.15	332.35
424.52	337.68
424.89	343.46
425.26	349.20
425.64	354.53
426.01	360.51
426.38	366.66
426.75	372.94
427.13	379.35
427.50	386.06
427.87	393.03
428.24	400.04
428.61	406.77
428.99	414.01
429.36	422.01
429.73	429.68
430.10	437.26
430.47	445.07
430.85	453.18
431.22	461.79
431.59	470.60
431.96	479.22
432.33	488.80
432.70	497.91
433.08	508.74
433.45	518.94
433.82	528.96
434.19	540.16
434.56	551.17
434.93	561.86
435.30	572.47
435.68	584.51
436.05	596.30
436.42	608.08
436.79	618.83
437.16	630.44
437.53	642.90
437.90	655.42
438.27	667.61
438.64	680.69
439.01	692.64
439.38	703.70
439.75	714.33
440.13	726.45
440.50	737.96
440.87	747.07
441.24	757.07
441.61	768.09
441.98	776.16
442.35	785.77
442.72	795.54
443.09	804.92
443.46	811.07
443.83	815.63
444.20	819.36
444.57	824.92
444.94	828.26
445.31	831.56
445.68	834.36
446.05	836.41
446.42	836.02
446.79	835.37
447.16	834.77
447.53	834.34
447.90	830.74
448.27	827.16
448.64	821.70
449.01	818.02
449.37	810.34
449.74	803.44
450.11	794.47
450.48	784.65
450.85	774.69
451.22	766.03
451.59	757.62
451.96	750.12
452.33	739.15
452.70	729.34
453.07	717.52
453.43	705.77
453.80	694.36
454.17	683.42
454.54	673.24
454.91	661.74
455.28	650.82
455.65	640.47
456.02	629.64
456.38	620.90
456.75	609.65
457.12	600.57
457.49	591.38
457.86	582.76
458.23	575.19
458.59	566.85
458.96	558.31
459.33	550.79
459.70	543.12
460.07	537.20
460.43	530.27
460.80	523.76
461.17	518.05
461.54	511.94
461.91	506.25
462.27	500.46
462.64	495.74
463.01	490.33
463.38	484.93
463.74	480.07
464.11	475.77
464.48	471.86
464.85	467.62
465.21	464.37
465.58	460.75
465.95	456.63
466.32	453.34
466.68	450.10
467.05	446.83
467.42	443.66
467.78	440.28
468.15	437.17
468.52	434.90
468.88	431.91
469.25	429.17
469.62	427.00
469.98	424.60
470.35	422.46
470.72	420.53
471.08	418.52
471.45	416.85
471.82	414.96
472.18	413.02
472.55	411.77
472.92	410.21
473.28	408.99
473.65	407.68
474.02	406.46
474.38	405.43
474.75	404.83
475.11	403.94
475.48	403.54
475.85	403.12
476.21	402.88
476.58	402.71
476.94	402.91
477.31	402.96
477.67	403.08
478.04	403.39
478.41	403.81
478.77	404.43
479.14	404.79
479.50	405.59
479.87	406.59
480.23	407.59
480.60	408.55
480.96	409.51
481.33	410.96
481.69	412.39
482.06	413.81
482.42	415.15
482.79	416.79
483.15	418.70
483.52	420.83
483.88	422.90
484.25	425.10
484.61	427.42
484.98	429.87
485.34	432.66
485.71	435.55
486.07	438.63
486.44	441.69
486.80	445.10
487.17	448.58
487.53	452.42
487.90	456.41
488.26	460.76
488.62	465.36
488.99	469.96
489.35	474.82
489.72	480.04
490.08	485.49
490.44	491.04
490.81	496.80
491.17	502.71
491.54	509.00
491.90	515.46
492.26	522.27
492.63	529.45
492.99	536.90
493.36	544.65
493.72	552.78
494.08	561.05
494.45	569.77
494.81	578.87
495.17	588.19
495.54	598.02
495.90	608.27
496.26	618.74
496.63	629.43
496.99	640.55
497.35	652.09
497.72	664.01
498.08	676.37
498.44	688.96
498.80	702.39
499.17	716.11
499.53	730.28
499.89	744.90
500.26	759.60
500.62	774.58
500.98	790.26
501.34	806.11
501.71	822.73
502.07	839.61
502.43	856.96
502.79	874.38
503.16	892.24
503.52	910.31
503.88	928.88
504.24	947.85
504.60	967.07
504.97	986.76
505.33	1006.88
505.69	1028.01
506.05	1049.20
506.41	1070.18
506.78	1091.46
507.14	1113.58
507.50	1136.12
507.86	1159.17
508.22	1182.32
508.59	1205.26
508.95	1229.00
509.31	1253.22
509.67	1277.91
510.03	1302.49
510.39	1327.35
510.75	1352.36
511.12	1377.59
511.48	1402.69
511.84	1427.86
512.20	1453.36
512.56	1479.48
512.92	1505.39
513.28	1530.73
513.64	1556.54
514.00	1582.36
514.37	1608.51
514.73	1634.40
515.09	1659.71
515.45	1685.15
515.81	1710.54
516.17	1736.00
516.53	1760.82
516.89	1785.64
517.25	1810.61
517.61	1835.44
517.97	1860.45
518.33	1884.68
518.69	1908.76
519.05	1933.00
519.41	1957.22
519.77	1981.34
520.13	2004.93
520.49	2028.44
520.85	2052.18
521.21	2075.36
521.57	2099.08
521.93	2121.44
522.29	2144.17
522.65	2166.52
523.01	2188.78
523.37	2210.30
523.73	2232.16
524.09	2254.06
524.45	2275.67
524.81	2296.55
525.17	2317.01
525.53	2336.84
525.89	2357.28
526.25	2376.89
526.61	2395.46
526.97	2414.13
527.33	2432.41
527.68	2449.61
528.04	2466.22
528.40	2481.72
528.76	2497.78
529.12	2512.49
529.48	2527.97
529.84	2542.11
530.20	2556.97
530.56	2570.78
530.91	2584.77
531.27	2597.72
531.63	2609.60
531.99	2620.90
532.35	2631.10
532.71	2641.05
533.07	2651.39
533.42	2660.09
533.78	2669.56
534.14	2679.48
534.50	2687.92
534.86	2696.44
535.21	2702.92
535.57	2709.83
535.93	2717.08
536.29	2723.00
536.65	2728.94
537.00	2732.76
537.36	2737.03
537.72	2739.76
538.08	2742.22
538.44	2743.49
538.79	2745.34
539.15	2746.39
539.51	2747.03
539.87	2747.68
540.22	2746.73
540.58	2746.06
540.94	2745.20
541.29	2743.23
541.65	2739.65
542.01	2736.22
542.37	2731.70
542.72	2729.08
543.08	2724.73
543.44	2720.26
543.79	2714.28
544.15	2707.99
544.51	2702.59
544.87	2695.31
545.22	2687.50
545.58	2679.63
545.94	2672.29
546.29	2663.48
546.65	2654.54
547.01	2645.67
547.36	2636.41
547.72	2627.24
548.07	2616.59
548.43	2605.74
548.79	2593.93
549.14	2582.99
549.50	2571.83
549.86	2560.26
550.21	2547.06
550.57	2535.06
550.92	2520.86
551.28	2507.70
551.64	2495.19
551.99	2482.38
552.35	2469.51
552.70	2456.72
553.06	2444.22
553.41	2430.97
553.77	2417.11
554.13	2403.24
554.48	2388.78
554.84	2374.10
555.19	2360.03
555.55	2345.53
555.90	2330.94
556.26	2317.27
556.61	2302.52
556.97	2287.02
557.32	2271.90
557.68	2256.84
558.03	2241.44
558.39	2227.02
558.74	2212.68
559.10	2196.49
559.45	2180.88
559.81	2166.17
560.16	2151.15
560.52	2135.78
560.87	2121.01
561.23	2105.76
561.58	2090.87
561.94	2075.24
562.29	2059.81
562.64	2044.26
563.00	2028.99
563.35	2014.45
563.71	1999.46
564.06	1984.45
564.42	1969.94
564.77	1955.27
565.12	1941.08
565.48	1926.78
565.83	1912.70
566.19	1898.51
566.54	1884.64
566.89	1869.73
567.25	1854.38
567.60	1840.07
567.96	1825.22
568.31	1809.78
568.66	1795.10
569.02	1780.65
569.37	1766.45
569.72	1752.42
570.08	1738.47
570.43	1724.22
570.78	1709.32
571.14	1694.43
571.49	1679.99
571.84	1666.27
572.20	1651.37
572.55	1636.78
572.90	1621.73
573.26	1606.50
573.61	1591.21
573.96	1576.59
574.31	1562.50
574.67	1548.66
575.02	1533.93
575.37	1519.14
575.72	1504.58
576.08	1490.40
576.43	1476.02
576.78	1461.80
577.13	1447.61
577.49	1433.58
577.84	1419.59
578.19	1405.60
578.54	1391.82
578.90	1378.04
579.25	1363.65
579.60	1350.36
579.95	1337.08
580.30	1323.74
580.66	1310.56
581.01	1297.57
581.36	1284.36
581.71	1271.09
582.06	1257.78
582.42	1244.69
582.77	1232.03
583.12	1219.58
583.47	1206.99
583.82	1194.66
584.17	1182.20
584.53	1170.01
584.88	1157.92
585.23	1145.79
585.58	1134.04
585.93	1122.29
586.28	1111.07
586.63	1099.84
586.98	1088.49
587.34	1077.47
587.69	1066.35
588.04	1055.51
588.39	1044.84
588.74	1033.87
589.09	1023.33
589.44	1012.59
589.79	1002.37
590.14	992.28
590.49	982.24
590.84	972.44
591.19	962.69
591.54	953.00
591.89	942.87
592.25	933.02
592.60	923.11
592.95	913.45
593.30	903.76
593.65	893.99
594.00	884.54
594.35	875.84
594.70	866.56
595.05	858.01
595.40	849.24
595.75	840.20
596.10	831.84
596.45	823.33
596.80	815.06
597.15	806.83
597.50	798.62
597.85	790.71
598.19	782.78
598.54	774.76
598.89	767.01
599.24	759.67
599.59	752.36
599.94	745.57
600.29	738.54
600.64	731.68
600.99	724.74
601.34	717.96
601.69	710.68
602.04	703.99
602.39	697.35
602.74	690.88
603.08	684.62
603.43	678.36
603.78	672.17
604.13	666.15
604.48	660.09
604.83	654.24
605.18	648.40
605.53	642.68
605.87	636.96
606.22	631.40
606.57	625.81
606.92	620.11
607.27	614.50
607.62	609.18
607.96	603.94
608.31	599.05
608.66	594.09
609.01	589.28
609.36	584.60
609.70	579.81
610.05	575.05
610.40	570.40
610.75	565.74
611.10	561.36
611.44	556.87
611.79	552.55
612.14	548.24
612.49	543.89
612.83	539.70
613.18	535.70
613.53	531.78
613.88	527.87
614.22	524.18
614.57	520.35
614.92	516.60
615.27	512.92
615.61	509.27
615.96	505.67
616.31	502.10
616.65	498.56
617.00	495.16
617.35	491.83
617.70	488.55
618.04	485.39
618.39	482.24
618.74	479.26
619.08	476.15
619.43	473.11
619.78	470.15
620.12	467.27
620.47	464.54
620.82	461.78
621.16	459.08
621.51	456.51
621.85	454.02
622.20	451.56
622.55	449.12
622.89	446.70
623.24	444.41
623.59	442.13
623.93	439.94
624.28	437.82
624.62	435.90
624.97	433.98
625.32	431.90
625.66	429.79
626.01	427.73
626.35	425.84
626.70	423.91
627.04	422.12
627.39	420.28
627.73	418.46
628.08	416.75
628.43	415.06
628.77	413.31
629.12	411.69
629.46	410.05
629.81	408.54
630.15	406.90
630.50	405.31
630.84	403.83
631.19	402.40
631.53	400.98
631.88	399.36
632.22	397.84
632.57	396.64
632.91	395.42
633.26	394.25
633.60	393.02
633.95	391.86
634.29	390.61
634.64	389.45
634.98	388.16
635.32	387.01
635.67	385.93
636.01	384.88
636.36	383.83
636.70	382.92
637.05	381.82
637.39	380.91
637.73	379.97
638.08	379.08
638.42	378.16
638.77	377.18
639.11	376.16
639.45	375.15
639.80	374.10
640.14	373.12
640.49	372.14
640.83	371.17
641.17	370.24
641.52	369.33
641.86	368.43
642.20	367.69
642.55	366.77
642.89	365.88
643.23	365.00
643.58	364.23
643.92	363.26
644.26	362.39
644.61	361.59
644.95	360.75
645.29	359.86
645.64	358.95
645.98	358.10
646.32	357.40
646.66	356.64
647.01	355.85
647.35	355.11
647.69	354.33
648.04	353.62
648.38	352.86
648.72	352.15
649.06	351.46
649.41	350.72
649.75	350.00
650.09	349.35
650.43	348.66
650.78	347.94
651.12	347.28
651.46	346.63
651.80	345.96
652.14	345.30
652.49	344.70
652.83	344.06
653.17	343.42
653.51	342.78
653.85	342.23
654.20	341.64
654.54	340.97
654.88	340.36
655.22	339.74
655.56	339.04
655.90	338.37
656.25	337.69
656.59	337.04
656.93	336.47
657.27	335.94
657.61	335.32
657.95	334.77
658.29	334.20
658.64	333.66
658.98	333.05
659.32	332.43
659.66	331.86
660.00	331.31
660.34	330.78
660.68	330.19
661.02	329.56
661.36	328.96
661.70	328.42
662.05	327.88
662.39	327.38
662.73	326.96
663.07	326.54
663.41	326.06
663.75	325.52
664.09	325.00
664.43	324.39
664.77	323.88
665.11	323.27
665.45	322.70
665.79	322.17
666.13	321.61
666.47	321.09
666.81	320.52
667.15	319.92
667.49	319.39
667.83	318.94
668.17	318.45
668.51	317.98
668.85	317.53
669.19	317.15
669.53	316.63
669.87	316.09
670.21	315.59
670.55	315.10
670.89	314.74
671.23	314.26
671.57	313.83
671.91	313.42
672.25	313.03
672.58	312.66
672.92	312.18
673.26	311.78
673.60	311.35
673.94	310.95
674.28	310.58
674.62	310.19
674.96	309.71
675.30	309.30
675.64	308.85
675.97	308.36
676.31	307.82
676.65	307.34
676.99	306.96
677.33	306.47
677.67	306.02
678.01	305.44
678.34	304.99
678.68	304.53
679.02	304.03
679.36	303.58
679.70	303.08
680.04	302.65
680.37	302.21
680.71	301.77
681.05	301.35
681.39	300.88
681.73	300.38
682.06	299.90
682.40	299.44
682.74	299.04
683.08	298.71
683.42	298.26
683.75	297.84
684.09	297.30
684.43	296.83
684.77	296.37
685.10	295.96
685.44	295.55
685.78	295.12
686.12	294.70
686.45	294.23
686.79	293.77
687.13	293.34
687.46	292.86
687.80	292.40
688.14	291.89
688.48	291.44
688.81	290.99
689.15	290.63
689.49	290.18
689.82	289.70
690.16	289.15
690.50	288.68
690.83	288.21
691.17	287.76
691.51	287.34
691.84	286.95
692.18	286.50
692.52	286.01
692.85	285.56
693.19	285.17
693.52	284.75
693.86	284.31
694.20	283.86
694.53	283.42
694.87	282.94
695.21	282.48
695.54	282.05
695.88	281.60
696.21	281.08
696.55	280.62
696.88	280.17
697.22	279.72
697.56	279.31
697.89	278.83
698.23	278.41
698.56	277.94
698.90	277.51
699.23	277.03
699.57	276.62
699.90	276.18
700.24	275.69
700.58	275.28
700.91	274.90
701.25	274.65
701.58	274.32
701.92	274.01
702.25	273.66
702.59	273.25
702.92	272.87
703.26	272.48
703.59	272.09
703.93	271.86
704.26	271.49
704.60	271.09
704.93	270.71
705.26	270.29
705.60	269.94
705.93	269.50
706.27	269.19
706.60	268.84
706.94	268.53
707.27	268.13
707.61	267.75
707.94	267.34
708.27	266.80
708.61	266.34
708.94	265.92
709.28	265.53
709.61	265.15
709.94	264.81
710.28	264.48
710.61	264.17
710.95	263.70
711.28	263.49
711.61	263.17
711.95	262.89
712.28	262.57
712.61	262.23
712.95	262.02
713.28	261.76
713.61	261.40
713.95	261.04
714.28	260.76
714.61	260.43
714.95	260.13
715.28	259.83
715.61	259.55
715.95	259.28
716.28	258.98
716.61	258.73
716.95	258.42
717.28	258.11
717.61	257.79
717.94	257.49
718.28	257.08
718.61	256.79
718.94	256.48
719.27	256.23
719.61	255.98
719.94	255.69
720.27	255.33
720.60	255.08
720.94	254.81
721.27	254.57
721.60	254.36
721.93	254.11
722.27	253.92
722.60	253.69
722.93	253.43
723.26	253.19
723.59	252.93
723.93	252.73
724.26	252.53
724.59	252.30
724.92	252.09
725.25	251.93
725.59	251.72
725.92	251.54
726.25	251.32
726.58	251.13
726.91	250.89
727.24	250.71
727.57	250.50
727.91	250.26
728.24	250.08
728.57	249.86
728.90	249.69
729.23	249.44
729.56	249.33
729.89	249.14
730.22	248.94
730.55	248.75
730.89	248.55
731.22	248.34
731.55	248.15
731.88	247.97
732.21	247.74
732.54	247.53
732.87	247.34
733.20	247.17
733.53	246.97
733.86	246.82
734.19	246.62
734.52	246.47
734.85	246.42
735.18	246.21
735.51	246.10
735.84	245.94
736.17	245.82
736.50	245.57
736.83	245.60
737.16	245.43
737.49	245.29
737.82	245.12
738.15	244.98
738.48	244.82
738.81	244.66
739.14	244.50
739.47	244.35
739.80	244.19
740.13	244.05
740.46	243.88
740.79	243.71
741.12	243.57
741.45	243.39
741.78	243.15
742.11	243.05
742.44	242.85
742.77	242.74
743.10	242.56
743.43	242.42
743.75	242.11
744.08	242.24
744.41	242.10
744.74	241.95
745.07	241.79
745.40	241.71
745.73	241.66
746.06	241.55
746.39	241.43
746.71	241.31
747.04	241.17
747.37	241.04
747.70	240.94
748.03	240.81
748.36	240.71
748.68	240.60
749.01	240.43
749.34	240.32
749.67	240.19
750.00	240.10
750.33	240.10
750.65	239.99
750.98	239.64
751.31	239.53
751.64	239.44
751.97	239.42
752.29	239.28
752.62	239.08
752.95	238.95
753.28	238.82
753.60	238.70
753.93	238.63
754.26	238.56
754.59	238.41
754.91	238.29
755.24	238.17
755.57	238.14
755.90	238.04
756.22	237.93
756.55	237.80
756.88	237.66
757.20	237.45
757.53	237.31
757.86	237.20
758.19	237.13
758.51	237.03
758.84	236.85
759.17	236.76
759.49	236.69
759.82	236.69
760.15	236.62
760.47	236.54
760.80	236.40
761.13	236.33
761.45	236.25
761.78	236.18
762.11	236.10
762.43	235.94
762.76	235.87
763.08	235.83
763.41	235.77
763.74	235.71
764.06	235.62
764.39	235.55
764.71	235.48
765.04	235.39
765.37	235.29
765.69	235.21
766.02	235.14
766.34	235.06
766.67	234.92
767.00	234.87
767.32	234.90
767.65	234.95
767.97	234.86
768.30	234.80
768.62	234.72
768.95	234.64
769.27	234.57
769.60	234.55
769.92	234.44
770.25	234.35
770.57	234.26
770.90	234.21
771.22	234.14
771.55	234.09
771.87	234.04
772.20	234.01
772.52	234.11
772.85	234.27
773.17	234.22
773.50	234.15
773.82	234.08
774.15	233.93
774.47	233.76
774.80	233.70
775.12	233.66
775.45	233.62
775.77	233.60
776.09	233.57
776.42	233.51
776.74	233.53
777.07	233.48
777.39	233.45
777.72	233.40
778.04	233.39
778.36	233.33
778.69	233.30
779.01	233.27
779.33	233.08
779.66	232.84
779.98	232.79
780.31	232.77
780.63	232.81
780.95	232.81
781.28	232.78
781.60	232.72
781.92	232.69
782.25	232.65
782.57	232.60
782.89	232.56
783.22	232.51
783.54	232.43
783.86	232.42
784.19	232.38
784.51	232.40
784.83	232.34
785.16	232.31
785.48	232.28
785.80	232.24
786.12	232.23
786.45	232.20
786.77	232.19
787.09	232.15
787.42	232.04
787.74	232.02
788.06	232.00
788.38	231.98
788.71	231.93
789.03	231.91
789.35	231.92
789.67	231.87
789.99	231.86
790.32	231.82
790.64	231.81
790.96	231.94
791.28	231.85
791.61	231.82
791.93	231.80
792.25	231.76
792.57	231.86
792.89	231.81
793.21	231.79
793.54	231.75
793.86	231.72
794.18	231.72
794.50	231.66
794.82	231.64
795.14	231.65
795.47	231.67
795.79	231.66
796.11	231.58
796.43	231.56
796.75	231.54
797.07	231.53
797.39	231.50
797.71	231.33
798.04	231.34
798.36	231.33
798.68	231.32
799.00	231.31
799.32	231.21
799.64	231.22
799.96	231.19
800.28	231.21
800.60	231.18
800.92	231.18
801.24	231.16
801.56	231.15
801.89	231.10
802.21	231.09
802.53	231.05
802.85	231.06
803.17	231.12
803.49	231.07
803.81	231.03
804.13	231.00
804.45	230.97
804.77	230.96
805.09	230.94
805.41	230.90
805.73	230.85
806.05	230.78
806.37	230.74
806.69	230.71
807.01	230.67
807.33	230.67
807.65	230.59
807.97	230.66
808.28	230.62
808.60	230.60
808.92	230.55
809.24	230.64
809.56	230.60
809.88	230.52
810.20	230.52
810.52	230.54
810.84	230.51
811.16	230.47
811.48	230.43
811.80	230.49
812.12	230.48
812.43	230.50
812.75	230.50
813.07	230.47
813.39	230.46
813.71	230.43
814.03	230.39
814.35	230.40
814.67	230.30
814.98	230.28
815.30	230.27
815.62	230.23
815.94	230.11
816.26	230.12
816.58	230.08
816.89	230.08
817.21	230.03
817.53	230.03
817.85	230.03
818.17	230.01
818.48	229.93
818.80	229.94
819.12	229.90
819.44	229.86
819.76	229.83
820.07	229.82
820.39	229.80
820.71	229.81
821.03	229.79
821.34	229.78
821.66	229.79
821.98	229.79
822.30	229.79
822.61	229.88
822.93	229.85
823.25	229.84
823.57	229.81
823.88	229.83
824.20	229.81
824.52	229.83
824.83	229.82
825.15	229.79
825.47	229.78
825.79	229.79
826.10	229.77
826.42	229.76
826.74	229.77
827.05	229.77
827.37	229.77
827.69	229.75
828.00	229.73
828.32	229.72
828.64	229.69
828.95	229.77
829.27	229.72
829.58	229.71
829.90	229.72
830.22	229.73
830.53	229.70
830.85	229.68
831.17	229.63
831.48	229.63
831.80	229.63
832.11	229.61
832.43	229.57
832.75	229.57
833.06	229.66
833.38	229.61
833.69	229.59
834.01	229.59
834.32	229.58
834.64	229.58
834.96	229.57
835.27	229.56
835.59	229.50
835.90	229.47
836.22	229.46
836.53	229.43
836.85	229.40
837.16	229.57
837.48	229.58
837.79	229.63
838.11	229.64
838.42	229.63
838.74	229.65
839.05	229.64
839.37	229.64
839.68	229.53
840.00	229.52
840.31	229.54
840.63	229.52
840.94	229.51
841.26	229.48
841.57	229.47
841.88	229.48
842.20	229.45
842.51	229.42
842.83	229.41
843.14	229.57
843.46	229.57
843.77	229.47
844.08	229.45
844.40	229.39
844.71	229.38
845.03	229.35
845.34	229.33
845.65	229.33
845.97	229.33
846.28	229.33
846.60	229.35
846.91	229.32
847.22	229.32
847.54	229.34
847.85	229.36
848.16	229.35
848.48	229.32
848.79	229.38
849.10	229.41
849.42	229.41
849.73	229.24
850.04	229.24
850.36	229.16
850.67	229.20
850.98	229.20
851.30	229.21
851.61	229.20
851.92	229.20
852.23	229.24
852.55	229.25
852.86	229.25
853.17	229.25
853.49	229.29
853.80	229.32
854.11	229.35
854.42	229.36
854.74	229.33
855.05	229.34
855.36	229.24
855.67	229.24
855.99	229.24
856.30	229.45
856.61	229.44
856.92	229.45
857.23	229.44
857.55	229.42
857.86	229.40
858.17	229.43
858.48	229.40
858.79	229.37
859.11	229.38
859.42	229.37
859.73	229.34
860.04	229.32
860.35	229.26
860.66	229.20
860.98	229.19
861.29	229.22
861.60	229.20
861.91	229.24
862.22	229.22
862.53	229.20
862.84	229.00
863.16	229.03
863.47	229.00
863.78	228.98
864.09	228.99
864.40	229.01
864.71	229.00
865.02	229.01
865.33	228.99
865.64	228.96
865.95	228.96
866.27	229.07
866.58	229.04
866.89	229.07
867.20	229.06
867.51	229.04
867.82	229.02
868.13	229.09
868.44	229.04
868.75	229.07
869.06	229.08
869.37	229.10
869.68	229.06
869.99	229.08
870.30	229.09
870.61	229.10
870.92	229.07
871.23	229.05
871.54	229.07
871.85	229.12
872.16	229.13
872.47	229.12
872.78	229.02
873.09	229.04
873.40	229.03
873.71	229.04
874.02	229.05
874.33	229.03
874.64	228.98
874.95	229.02
875.26	228.99
875.56	228.97
875.87	228.94
876.18	228.94
876.49	229.12
876.80	229.10
877.11	229.07
877.42	229.09
877.73	229.09
878.04	229.07
878.35	229.05
878.66	229.05
878.96	229.05
879.27	229.05
879.58	229.04
879.89	229.01
880.20	229.07
880.51	229.06
880.82	229.07
881.12	229.07
881.43	229.04
881.74	229.02
882.05	229.01
882.36	229.03
882.67	229.04
882.97	228.85
883.28	228.85
883.59	228.84
883.90	228.86
884.21	228.89
884.51	228.88
884.82	228.85
885.13	228.85
885.44	228.84
885.74	228.83
886.05	228.82
886.36	228.83
886.67	228.76
886.98	228.85
887.28	228.86
887.59	228.86
887.90	228.86
888.20	228.85
888.51	228.89
888.82	228.86
889.13	228.86
889.43	229.03
889.74	229.01
890.05	229.01
890.35	228.97
890.66	228.94
890.97	228.92
891.28	228.92
891.58	228.93
891.89	228.93
892.20	228.91
892.50	228.89
892.81	228.89
893.12	228.88
893.42	228.78
893.73	228.78
894.04	228.79
894.34	228.79
894.65	228.78
894.95	228.76
895.26	228.77
895.57	228.84
895.87	228.65
896.18	228.68
896.48	228.68
896.79	228.69
897.10	228.72
897.40	228.72
897.71	228.74
898.01	228.72
898.32	228.74
898.63	228.73
898.93	228.75
899.24	228.76
899.54	228.75
899.85	228.75
900.15	228.73
900.46	228.73
900.76	228.75
901.07	228.75
901.38	228.75
901.68	228.77
901.99	228.68
902.29	228.70
902.60	228.67
902.90	228.66
903.21	228.65
903.51	228.64
903.82	228.67
904.12	228.66
904.43	228.67
904.73	228.66
905.03	228.66
905.34	228.82
905.64	228.80
905.95	228.80
906.25	228.81
906.56	228.81
906.86	228.81
907.17	228.78
907.47	228.79
907.77	228.77
908.08	228.72
908.38	228.73
908.69	228.74
908.99	228.77
909.30	228.79
909.60	228.79
909.90	228.78
910.21	228.74
910.51	228.73
910.81	228.72
911.12	228.72
911.42	228.72
911.73	228.55
912.03	228.57
912.33	228.60
912.64	228.60
912.94	228.58
913.24	228.55
913.55	228.55
913.85	228.54
914.15	228.57
914.46	228.60
914.76	228.59
915.06	228.58
915.37	228.54
915.67	228.52
915.97	228.52
916.27	228.51
916.58	228.52
916.88	228.51
917.18	228.50
917.49	228.63
917.79	228.62
918.09	228.65
918.39	228.69
918.70	228.68
919.00	228.69
919.30	228.77
919.60	228.76
919.91	228.74
920.21	228.75
920.51	228.72
920.81	228.71
921.12	228.73
921.42	228.72
921.72	228.74
922.02	228.75
922.32	228.76
922.63	228.77
922.93	228.86
923.23	228.87
923.53	228.85
923.83	228.74
924.13	228.75
924.44	228.75
924.74	228.78
925.04	228.80
925.34	228.79
925.64	228.72
925.94	228.73
926.24	228.82
926.55	228.80
926.85	228.83
927.15	228.83
927.45	228.83
927.75	228.83
928.05	228.83
928.35	228.82
928.65	228.85
928.95	228.87
929.26	228.78
929.56	228.81
929.86	228.83
930.16	228.81
930.46	228.79
930.76	228.80
931.06	228.71
931.36	228.67
931.66	228.68
931.96	228.71
932.26	228.71
932.56	228.64
932.86	228.65
933.16	228.64
933.46	228.63
933.76	228.61
934.06	228.65
934.36	228.70
934.66	228.70
934.96	228.67
935.26	228.67
935.56	228.70
935.86	228.66
936.16	228.64
936.46	228.63
936.76	228.62
937.06	228.60
937.36	228.60
937.66	228.61
937.96	228.60
938.26	228.57
938.56	228.55
938.86	228.56
939.16	228.60
939.46	228.61
939.76	228.63
940.06	228.63
940.35	228.60
940.65	228.51
940.95	228.53
941.25	228.49
941.55	228.46
941.85	228.44
942.15	228.49
942.45	228.54
942.75	228.53
943.04	228.54
943.34	228.59
943.64	228.58
943.94	228.56
944.24	228.56
944.54	228.58
944.84	228.57
945.13	228.56
945.43	228.53
945.73	228.53
946.03	228.51
946.33	228.49
946.62	228.47
946.92	228.47
947.22	228.48
947.52	228.49
947.82	228.52
948.11	228.51
948.41	228.47
948.71	228.41
949.01	228.42
949.31	228.41
949.60	228.37
949.90	228.42
950.20	228.41
950.50	228.40
950.79	228.39
951.09	228.43
951.39	228.42
951.69	228.39
951.98	228.41
952.28	228.42
952.58	228.41
952.87	228.42
953.17	228.45
953.47	228.42
953.76	228.42
954.06	228.40
954.36	228.37
954.66	228.37
954.95	228.42
955.25	228.42
955.55	228.44
955.84	228.41
956.14	228.43
956.44	228.44
956.73	228.42
957.03	228.43
957.32	228.43
957.62	228.43
957.92	228.47
958.21	228.46
958.51	228.67
958.81	228.69
959.10	228.71
959.40	228.76
959.69	228.78
959.99	228.80
960.29	228.80
960.58	228.79
960.88	228.86
961.17	228.84
961.47	228.85
961.76	228.84
962.06	228.89
962.36	228.85
962.65	228.85
962.95	228.86
963.24	228.84
963.54	228.84
963.83	228.85
964.13	228.83
964.42	228.82
964.72	228.66
965.01	228.66
965.31	228.65
965.60	228.59
965.90	228.70
966.19	228.66
966.49	228.67
966.78	228.67
967.08	228.64
967.37	228.65
967.67	228.61
967.96	228.64
968.26	228.62
968.55	228.64
968.85	228.63
969.14	228.62
969.43	228.62
969.73	228.60
970.02	228.59
970.32	228.59
970.61	228.55
970.91	228.51
971.20	228.48
971.49	228.46
971.79	228.48
972.08	228.35
972.38	228.36
972.67	228.35
972.96	228.38
973.26	228.35
973.55	228.39
973.85	228.39
974.14	228.37
974.43	228.39
974.73	228.36
975.02	228.36
975.31	228.35
975.61	228.35
975.90	228.35
976.19	228.33
976.49	228.33
976.78	228.35
977.07	228.35
977.37	228.36
977.66	228.38
977.95	228.36
978.24	228.39
978.54	228.43
978.83	228.43
979.12	228.41
979.42	228.41
979.71	228.37
980.00	228.37
980.29	228.38
980.59	228.35
980.88	228.40
981.17	228.40
981.46	228.41
981.76	228.41
982.05	228.46
982.34	228.47
982.63	228.48
982.93	228.48
983.22	228.53
983.51	228.53
983.80	228.55
984.09	228.57
984.39	228.55
984.68	228.52
984.97	228.53
985.26	228.53
985.55	228.54
985.85	228.52
986.14	228.54
986.43	228.55
986.72	228.55
987.01	228.50
987.30	228.50
987.59	228.49
987.89	228.50
988.18	228.46
988.47	228.44
988.76	228.42
989.05	228.41
989.34	228.37
989.63	228.43
989.92	228.40
990.22	228.39
990.51	228.38
990.80	228.36
991.09	228.36
991.38	228.39
991.67	228.36
991.96	228.36
992.25	228.37
992.54	228.34
992.83	228.33
993.12	228.32
993.41	228.34
993.70	228.42
993.99	228.45
994.28	228.48
994.58	228.51
994.87	228.50
995.16	228.49
995.45	228.48
995.74	228.42
996.03	228.44
996.32	228.47
996.61	228.52
996.90	228.53
997.19	228.52
997.48	228.51
997.77	228.50
998.06	228.50
998.34	228.48
998.63	228.47
998.92	228.49
999.21	228.52
999.50	228.52
999.79	228.45
1000.08	228.43
1000.37	228.42
1000.66	228.41
1000.95	228.45
1001.24	228.48
1001.53	228.50
1001.82	228.50
1002.11	228.45
1002.40	228.45
1002.68	228.48
1002.97	228.62
1003.26	228.59
1003.55	228.57
1003.84	228.59
1004.13	228.65
1004.42	228.64
1004.71	228.64
1004.99	228.63
1005.28	228.66
1005.57	228.64
1005.86	228.62
1006.15	228.60
1006.44	228.57
1006.72	228.59
1007.01	228.55
1007.30	228.54
1007.59	228.52
1007.88	228.51
1008.17	228.53
1008.45	228.50
1008.74	228.44
1009.03	228.34
1009.32	228.35
1009.60	228.36
1009.89	228.34
1010.18	228.26
1010.47	228.25
1010.76	228.26
1011.04	228.26
1011.33	228.26
1011.62	228.28
1011.91	228.30
1012.19	228.31
1012.48	228.33
1012.77	228.32
1013.05	228.39
1013.34	228.38
1013.63	228.38
1013.92	228.39
1014.20	228.37
1014.49	228.36
1014.78	228.38
1015.06	228.31
1015.35	228.32
1015.64	228.34
1015.92	228.36
1016.21	228.39
1016.50	228.39
1016.78	228.40
1017.07	228.40
1017.36	228.37
1017.64	228.35
1017.93	228.36
1018.22	228.34
1018.50	228.34
1018.79	228.34
1019.08	228.28
1019.36	228.29
1019.65	228.28
1019.93	228.34
1020.22	228.37
1020.51	228.47
1020.79	228.45
1021.08	228.13
1021.36	228.24
1021.65	228.52
1021.94	228.30
1022.22	228.39
1022.51	228.00
1022.79	229.52
1023.08	228.50
1023.36	230.46
1023.65	227.94
>>>>>End Processed Spectral Data<<<<<
