SpectraSuite Data File
++++++++++++++++++++++++++++++++++++
Date: Tue Oct 06 12:39:16 EDT 2015
User: lab3
Dark Spectrum Present: No
Reference Spectrum Present: No
Number of Sampled Component Spectra: 1
Spectrometers: USB2E7196
Integration Time (usec): 66000 (USB2E7196)
Spectra Averaged: 1000 (USB2E7196)
Boxcar Smoothing: 10 (USB2E7196)
Correct for Electrical Dark: No (USB2E7196)
Strobe/Lamp Enabled: No (USB2E7196)
Correct for Detector Non-linearity: No (USB2E7196)
Correct for Stray Light: No (USB2E7196)
Number of Pixels in Processed Spectrum: 2048
>>>>>Begin Processed Spectral Data<<<<<
339.09	0.00
339.48	216.91
339.86	218.39
340.24	219.85
340.63	221.26
341.01	225.16
341.39	223.89
341.78	225.39
342.16	226.71
342.54	226.84
342.93	215.28
343.31	226.16
343.69	226.69
344.07	227.15
344.46	227.59
344.84	227.99
345.22	228.19
345.60	228.47
345.99	228.67
346.37	228.81
346.75	228.93
347.13	229.02
347.52	229.10
347.90	229.23
348.28	229.28
348.66	229.37
349.05	229.37
349.43	229.46
349.81	229.53
350.19	229.60
350.57	229.69
350.96	229.79
351.34	229.89
351.72	230.01
352.10	230.13
352.48	230.20
352.87	230.25
353.25	230.32
353.63	230.37
354.01	230.44
354.39	230.51
354.77	230.60
355.15	230.71
355.54	230.76
355.92	230.78
356.30	230.86
356.68	231.04
357.06	231.11
357.44	231.15
357.82	231.21
358.20	231.41
358.58	231.47
358.97	231.51
359.35	231.60
359.73	231.70
360.11	231.75
360.49	231.81
360.87	231.86
361.25	231.93
361.63	232.03
362.01	232.09
362.39	232.12
362.77	232.17
363.15	232.19
363.53	232.22
363.91	232.26
364.29	232.28
364.67	232.15
365.05	232.18
365.43	232.22
365.81	232.26
366.19	232.21
366.57	232.30
366.95	232.32
367.33	232.29
367.71	232.28
368.09	232.31
368.47	232.30
368.85	232.29
369.23	232.33
369.61	232.27
369.99	232.31
370.37	232.30
370.75	232.42
371.13	232.38
371.51	232.34
371.89	232.32
372.27	232.30
372.65	232.28
373.03	232.24
373.41	232.19
373.78	232.15
374.16	232.02
374.54	231.92
374.92	231.86
375.30	231.82
375.68	231.75
376.06	231.70
376.44	231.65
376.82	231.62
377.19	231.57
377.57	231.50
377.95	231.39
378.33	231.33
378.71	231.12
379.09	231.08
379.47	231.06
379.84	231.00
380.22	230.93
380.60	230.86
380.98	230.81
381.36	230.75
381.73	230.68
382.11	230.68
382.49	230.64
382.87	230.57
383.25	230.53
383.62	230.69
384.00	230.62
384.38	230.58
384.76	230.58
385.13	230.59
385.51	230.56
385.89	230.51
386.27	230.48
386.64	230.47
387.02	230.43
387.40	230.37
387.78	230.35
388.15	230.33
388.53	230.30
388.91	230.27
389.29	230.24
389.66	230.25
390.04	230.22
390.42	230.23
390.79	230.23
391.17	230.21
391.55	229.99
391.92	230.00
392.30	230.01
392.68	229.96
393.05	229.94
393.43	229.95
393.81	229.97
394.18	229.95
394.56	229.95
394.94	230.00
395.31	230.00
395.69	230.07
396.06	230.12
396.44	230.16
396.82	230.18
397.19	230.31
397.57	230.33
397.95	230.40
398.32	230.39
398.70	230.45
399.07	230.55
399.45	230.61
399.82	230.67
400.20	230.72
400.58	230.81
400.95	230.82
401.33	230.93
401.70	231.15
402.08	231.29
402.45	231.42
402.83	231.58
403.20	231.74
403.58	231.86
403.95	232.07
404.33	232.27
404.71	232.48
405.08	232.77
405.46	233.00
405.83	233.26
406.21	233.54
406.58	233.86
406.96	234.17
407.33	234.54
407.70	234.95
408.08	235.51
408.45	235.99
408.83	236.52
409.20	237.02
409.58	237.47
409.95	238.08
410.33	238.73
410.70	239.36
411.08	240.09
411.45	240.87
411.82	241.65
412.20	242.55
412.57	243.62
412.95	244.48
413.32	245.59
413.69	246.72
414.07	247.94
414.44	249.25
414.82	250.61
415.19	252.19
415.56	253.80
415.94	255.48
416.31	257.37
416.68	259.26
417.06	261.45
417.43	263.48
417.81	265.83
418.18	268.24
418.55	270.86
418.93	273.61
419.30	276.47
419.67	279.51
420.04	282.63
420.42	285.92
420.79	289.67
421.16	293.49
421.54	297.36
421.91	301.41
422.28	305.60
422.66	310.14
423.03	314.42
423.40	318.95
423.77	323.77
424.15	328.70
424.52	333.82
424.89	339.37
425.26	344.86
425.64	349.97
426.01	355.70
426.38	361.57
426.75	367.58
427.13	373.74
427.50	380.20
427.87	386.87
428.24	393.56
428.61	400.03
428.99	406.96
429.36	414.62
429.73	421.94
430.10	429.24
430.47	436.70
430.85	444.44
431.22	452.66
431.59	461.11
431.96	469.34
432.33	478.49
432.70	487.22
433.08	497.60
433.45	507.36
433.82	516.94
434.19	527.67
434.56	538.23
434.93	548.46
435.30	558.60
435.68	570.14
436.05	581.41
436.42	592.67
436.79	602.96
437.16	614.05
437.53	626.00
437.90	637.97
438.27	649.62
438.64	662.16
439.01	673.62
439.38	684.20
439.75	694.38
440.13	705.95
440.50	716.94
440.87	725.68
441.24	735.27
441.61	745.78
441.98	753.49
442.35	762.62
442.72	771.99
443.09	781.00
443.46	786.88
443.83	791.25
444.20	794.80
444.57	800.11
444.94	803.34
445.31	806.50
445.68	809.19
446.05	811.20
446.42	810.84
446.79	810.24
447.16	809.69
447.53	809.32
447.90	805.84
448.27	802.44
448.64	797.19
449.01	793.67
449.37	786.37
449.74	779.80
450.11	771.27
450.48	761.82
450.85	752.27
451.22	743.96
451.59	735.92
451.96	728.75
452.33	718.28
452.70	708.87
453.07	697.55
453.43	686.25
453.80	675.27
454.17	664.79
454.54	655.01
454.91	643.95
455.28	633.44
455.65	623.56
456.02	613.23
456.38	604.86
456.75	594.04
457.12	585.34
457.49	576.54
457.86	568.28
458.23	561.05
458.59	553.01
458.96	544.86
459.33	537.65
459.70	530.30
460.07	524.60
460.43	517.93
460.80	511.69
461.17	506.24
461.54	500.41
461.91	494.93
462.27	489.38
462.64	484.86
463.01	479.69
463.38	474.52
463.74	469.81
464.11	465.67
464.48	461.95
464.85	457.87
465.21	454.75
465.58	451.30
465.95	447.35
466.32	444.19
466.68	441.09
467.05	437.97
467.42	434.93
467.78	431.71
468.15	428.74
468.52	426.58
468.88	423.73
469.25	421.12
469.62	419.04
469.98	416.76
470.35	414.72
470.72	412.90
471.08	411.01
471.45	409.43
471.82	407.64
472.18	405.80
472.55	404.62
472.92	403.16
473.28	401.98
473.65	400.72
474.02	399.61
474.38	398.63
474.75	398.04
475.11	397.22
475.48	396.85
475.85	396.47
476.21	396.24
476.58	396.09
476.94	396.28
477.31	396.33
477.67	396.48
478.04	396.78
478.41	397.18
478.77	397.78
479.14	398.14
479.50	398.90
479.87	399.87
480.23	400.84
480.60	401.76
480.96	402.72
481.33	404.13
481.69	405.49
482.06	406.87
482.42	408.16
482.79	409.73
483.15	411.57
483.52	413.65
483.88	415.66
484.25	417.80
484.61	420.04
484.98	422.42
485.34	425.11
485.71	427.91
486.07	430.91
486.44	433.82
486.80	437.13
487.17	440.50
487.53	444.21
487.90	448.04
488.26	452.26
488.62	456.66
488.99	461.11
489.35	465.81
489.72	470.86
490.08	476.17
490.44	481.57
490.81	487.13
491.17	492.84
491.54	498.92
491.90	505.13
492.26	511.79
492.63	518.74
492.99	525.96
493.36	533.45
493.72	541.34
494.08	549.39
494.45	557.81
494.81	566.66
495.17	575.67
495.54	585.24
495.90	595.19
496.26	605.39
496.63	615.82
496.99	626.59
497.35	637.81
497.72	649.39
498.08	661.42
498.44	673.72
498.80	686.79
499.17	700.17
499.53	714.02
499.89	728.19
500.26	742.49
500.62	757.09
500.98	772.34
501.34	787.79
501.71	803.98
502.07	820.46
502.43	837.36
502.79	854.35
503.16	871.84
503.52	889.53
503.88	907.72
504.24	926.32
504.60	945.23
504.97	964.55
505.33	984.33
505.69	1005.06
506.05	1025.80
506.41	1046.51
506.78	1067.54
507.14	1089.38
507.50	1111.64
507.86	1134.35
508.22	1157.13
508.59	1179.72
508.95	1203.21
509.31	1227.15
509.67	1251.72
510.03	1276.06
510.39	1300.90
510.75	1325.70
511.12	1350.64
511.48	1375.52
511.84	1400.58
512.20	1426.07
512.56	1451.92
512.92	1477.60
513.28	1502.92
513.64	1528.66
514.00	1554.37
514.37	1580.27
514.73	1605.90
515.09	1631.11
515.45	1656.58
515.81	1682.12
516.17	1707.80
516.53	1732.74
516.89	1757.60
517.25	1782.57
517.61	1807.49
517.97	1832.51
518.33	1857.09
518.69	1881.54
519.05	1906.21
519.41	1930.74
519.77	1955.24
520.13	1979.51
520.49	2003.51
520.85	2027.59
521.21	2051.50
521.57	2075.54
521.93	2098.63
522.29	2122.06
522.65	2145.07
523.01	2167.83
523.37	2189.76
523.73	2212.07
524.09	2234.56
524.45	2257.07
524.81	2278.54
525.17	2299.97
525.53	2320.72
525.89	2341.76
526.25	2362.31
526.61	2381.74
526.97	2401.42
527.33	2420.43
527.68	2438.62
528.04	2456.23
528.40	2472.82
528.76	2489.93
529.12	2505.92
529.48	2522.31
529.84	2537.52
530.20	2553.61
530.56	2568.59
530.91	2583.53
531.27	2597.56
531.63	2610.61
531.99	2623.35
532.35	2634.65
532.71	2645.90
533.07	2657.35
533.42	2667.43
533.78	2678.28
534.14	2689.24
534.50	2698.75
534.86	2708.41
535.21	2716.14
535.57	2724.20
535.93	2732.60
536.29	2739.76
536.65	2747.03
537.00	2752.22
537.36	2757.86
537.72	2761.86
538.08	2765.56
538.44	2768.45
538.79	2771.66
539.15	2774.19
539.51	2776.06
539.87	2778.52
540.22	2779.00
540.58	2780.09
540.94	2780.61
541.29	2779.73
541.65	2777.36
542.01	2775.13
542.37	2771.90
542.72	2770.36
543.08	2767.41
543.44	2764.16
543.79	2759.23
544.15	2754.22
544.51	2749.88
544.87	2743.66
545.22	2736.95
545.58	2730.58
545.94	2724.89
546.29	2717.27
546.65	2709.14
547.01	2701.02
547.36	2692.58
547.72	2684.02
548.07	2674.23
548.43	2664.30
548.79	2653.28
549.14	2643.30
549.50	2633.09
549.86	2622.36
550.21	2609.84
550.57	2598.49
550.92	2585.55
551.28	2573.38
551.64	2561.45
551.99	2549.50
552.35	2537.54
552.70	2525.32
553.06	2513.41
553.41	2500.26
553.77	2487.01
554.13	2473.91
554.48	2460.06
554.84	2445.78
555.19	2432.44
555.55	2418.24
555.90	2404.25
556.26	2391.20
556.61	2377.41
556.97	2362.69
557.32	2348.28
557.68	2333.97
558.03	2319.18
558.39	2305.14
558.74	2291.22
559.10	2275.45
559.45	2260.31
559.81	2245.80
560.16	2231.00
560.52	2215.86
560.87	2201.58
561.23	2186.72
561.58	2172.14
561.94	2156.93
562.29	2141.93
562.64	2126.67
563.00	2111.62
563.35	2097.12
563.71	2082.41
564.06	2067.42
564.42	2052.92
564.77	2038.45
565.12	2024.52
565.48	2010.28
565.83	1995.83
566.19	1981.52
566.54	1967.56
566.89	1952.42
567.25	1936.88
567.60	1922.52
567.96	1907.55
568.31	1892.10
568.66	1877.49
569.02	1862.94
569.37	1848.58
569.72	1834.37
570.08	1820.21
570.43	1805.87
570.78	1790.82
571.14	1775.73
571.49	1761.00
571.84	1747.00
572.20	1731.76
572.55	1716.72
572.90	1701.27
573.26	1685.82
573.61	1670.12
573.96	1655.07
574.31	1640.63
574.67	1626.66
575.02	1611.81
575.37	1596.73
575.72	1581.51
576.08	1566.71
576.43	1551.89
576.78	1537.15
577.13	1522.52
577.49	1507.82
577.84	1493.20
578.19	1478.73
578.54	1464.35
578.90	1449.80
579.25	1434.85
579.60	1420.98
579.95	1407.08
580.30	1393.35
580.66	1379.70
581.01	1366.22
581.36	1352.54
581.71	1338.88
582.06	1325.19
582.42	1311.71
582.77	1298.68
583.12	1285.83
583.47	1272.81
583.82	1260.02
584.17	1247.15
584.53	1234.41
584.88	1221.99
585.23	1209.32
585.58	1196.96
585.93	1184.61
586.28	1172.87
586.63	1161.02
586.98	1149.12
587.34	1137.50
587.69	1125.72
588.04	1114.23
588.39	1102.93
588.74	1091.53
589.09	1080.49
589.44	1068.93
589.79	1057.96
590.14	1047.07
590.49	1036.38
590.84	1025.92
591.19	1015.48
591.54	1005.11
591.89	994.46
592.25	983.92
592.60	973.38
592.95	963.07
593.30	952.81
593.65	942.51
594.00	932.46
594.35	923.04
594.70	913.16
595.05	903.98
595.40	894.61
595.75	885.05
596.10	876.04
596.45	866.87
596.80	858.13
597.15	849.35
597.50	840.58
597.85	832.16
598.19	823.69
598.54	815.22
598.89	806.93
599.24	799.07
599.59	791.33
599.94	784.01
600.29	776.48
600.64	769.04
600.99	761.59
601.34	754.31
601.69	746.53
602.04	739.33
602.39	732.23
602.74	725.30
603.08	718.50
603.43	711.71
603.78	705.00
604.13	698.46
604.48	691.92
604.83	685.60
605.18	679.25
605.53	673.00
605.87	666.66
606.22	660.58
606.57	654.47
606.92	648.21
607.27	642.16
607.62	636.44
607.96	630.80
608.31	625.44
608.66	619.93
609.01	614.71
609.36	609.69
609.70	604.53
610.05	599.37
610.40	594.33
610.75	589.23
611.10	584.47
611.44	579.60
611.79	574.87
612.14	570.14
612.49	565.37
612.83	560.83
613.18	556.52
613.53	552.24
613.88	547.93
614.22	543.88
614.57	539.70
614.92	535.56
615.27	531.56
615.61	527.56
615.96	523.70
616.31	519.81
616.65	515.89
617.00	512.15
617.35	508.48
617.70	504.91
618.04	501.45
618.39	497.94
618.74	494.58
619.08	491.15
619.43	487.81
619.78	484.59
620.12	481.45
620.47	478.42
620.82	475.37
621.16	472.40
621.51	469.56
621.85	466.77
622.20	464.04
622.55	461.28
622.89	458.57
623.24	456.00
623.59	453.47
623.93	451.00
624.28	448.57
624.62	446.38
624.97	444.15
625.32	441.80
625.66	439.43
626.01	437.13
626.35	435.03
626.70	432.84
627.04	430.83
627.39	428.70
627.73	426.62
628.08	424.68
628.43	422.78
628.77	420.84
629.12	419.00
629.46	417.11
629.81	415.38
630.15	413.59
630.50	411.81
630.84	410.10
631.19	408.47
631.53	406.88
631.88	405.10
632.22	403.41
632.57	402.06
632.91	400.70
633.26	399.36
633.60	397.95
633.95	396.63
634.29	395.20
634.64	393.84
634.98	392.36
635.32	391.02
635.67	389.79
636.01	388.55
636.36	387.35
636.70	386.30
637.05	385.08
637.39	383.98
637.73	382.85
638.08	381.79
638.42	380.71
638.77	379.54
639.11	378.36
639.45	377.26
639.80	376.10
640.14	374.96
640.49	373.82
640.83	372.73
641.17	371.63
641.52	370.58
641.86	369.60
642.20	368.76
642.55	367.73
642.89	366.73
643.23	365.75
643.58	364.86
643.92	363.83
644.26	362.88
644.61	362.00
644.95	361.11
645.29	360.17
645.64	359.22
645.98	358.33
646.32	357.53
646.66	356.66
647.01	355.77
647.35	354.96
647.69	354.17
648.04	353.41
648.38	352.60
648.72	351.85
649.06	351.10
649.41	350.29
649.75	349.52
650.09	348.80
650.43	348.08
650.78	347.32
651.12	346.57
651.46	345.85
651.80	345.14
652.14	344.44
652.49	343.77
652.83	343.06
653.17	342.39
653.51	341.73
653.85	341.15
654.20	340.52
654.54	339.83
654.88	339.16
655.22	338.52
655.56	337.82
655.90	337.15
656.25	336.48
656.59	335.84
656.93	335.29
657.27	334.73
657.61	334.05
657.95	333.47
658.29	332.90
658.64	332.39
658.98	331.78
659.32	331.18
659.66	330.62
660.00	330.06
660.34	329.50
660.68	328.91
661.02	328.28
661.36	327.68
661.70	327.13
662.05	326.61
662.39	326.11
662.73	325.69
663.07	325.27
663.41	324.79
663.75	324.26
664.09	323.72
664.43	323.12
664.77	322.65
665.11	322.05
665.45	321.51
665.79	320.97
666.13	320.43
666.47	319.90
666.81	319.34
667.15	318.75
667.49	318.28
667.83	317.85
668.17	317.40
668.51	316.97
668.85	316.54
669.19	316.14
669.53	315.61
669.87	315.11
670.21	314.62
670.55	314.15
670.89	313.81
671.23	313.36
671.57	312.96
671.91	312.58
672.25	312.22
672.58	311.87
672.92	311.41
673.26	311.01
673.60	310.63
673.94	310.24
674.28	309.88
674.62	309.49
674.96	309.03
675.30	308.62
675.64	308.19
675.97	307.76
676.31	307.26
676.65	306.84
676.99	306.48
677.33	306.01
677.67	305.57
678.01	305.03
678.34	304.61
678.68	304.19
679.02	303.71
679.36	303.27
679.70	302.80
680.04	302.36
680.37	301.93
680.71	301.50
681.05	301.09
681.39	300.66
681.73	300.18
682.06	299.71
682.40	299.29
682.74	298.91
683.08	298.56
683.42	298.12
683.75	297.72
684.09	297.19
684.43	296.75
684.77	296.29
685.10	295.91
685.44	295.51
685.78	295.07
686.12	294.66
686.45	294.22
686.79	293.76
687.13	293.35
687.46	292.90
687.80	292.47
688.14	291.99
688.48	291.56
688.81	291.15
689.15	290.80
689.49	290.33
689.82	289.87
690.16	289.34
690.50	288.92
690.83	288.47
691.17	288.02
691.51	287.62
691.84	287.25
692.18	286.79
692.52	286.32
692.85	285.90
693.19	285.53
693.52	285.14
693.86	284.74
694.20	284.33
694.53	283.93
694.87	283.48
695.21	283.05
695.54	282.63
695.88	282.18
696.21	281.68
696.55	281.26
696.88	280.85
697.22	280.43
697.56	280.04
697.89	279.58
698.23	279.17
698.56	278.72
698.90	278.30
699.23	277.85
699.57	277.44
699.90	277.00
700.24	276.53
700.58	276.11
700.91	275.75
701.25	275.50
701.58	275.17
701.92	274.84
702.25	274.49
702.59	274.09
702.92	273.71
703.26	273.35
703.59	272.96
703.93	272.70
704.26	272.35
704.60	271.95
704.93	271.57
705.26	271.18
705.60	270.84
705.93	270.41
706.27	270.10
706.60	269.80
706.94	269.51
707.27	269.11
707.61	268.75
707.94	268.35
708.27	267.83
708.61	267.38
708.94	266.98
709.28	266.61
709.61	266.25
709.94	265.93
710.28	265.61
710.61	265.32
710.95	264.86
711.28	264.65
711.61	264.32
711.95	264.04
712.28	263.71
712.61	263.36
712.95	263.15
713.28	262.90
713.61	262.52
713.95	262.17
714.28	261.88
714.61	261.53
714.95	261.23
715.28	260.92
715.61	260.62
715.95	260.36
716.28	260.04
716.61	259.76
716.95	259.44
717.28	259.12
717.61	258.80
717.94	258.50
718.28	258.09
718.61	257.80
718.94	257.50
719.27	257.24
719.61	257.01
719.94	256.71
720.27	256.35
720.60	256.09
720.94	255.83
721.27	255.59
721.60	255.38
721.93	255.11
722.27	254.93
722.60	254.71
722.93	254.43
723.26	254.22
723.59	253.97
723.93	253.77
724.26	253.56
724.59	253.32
724.92	253.11
725.25	252.94
725.59	252.72
725.92	252.53
726.25	252.30
726.58	252.08
726.91	251.84
727.24	251.64
727.57	251.42
727.91	251.17
728.24	250.97
728.57	250.76
728.90	250.58
729.23	250.33
729.56	250.21
729.89	250.02
730.22	249.81
730.55	249.60
730.89	249.40
731.22	249.17
731.55	248.97
731.88	248.79
732.21	248.57
732.54	248.37
732.87	248.17
733.20	248.01
733.53	247.84
733.86	247.68
734.19	247.47
734.52	247.33
734.85	247.29
735.18	247.10
735.51	246.97
735.84	246.82
736.17	246.70
736.50	246.43
736.83	246.46
737.16	246.31
737.49	246.16
737.82	245.98
738.15	245.88
738.48	245.72
738.81	245.55
739.14	245.37
739.47	245.20
739.80	245.05
740.13	244.90
740.46	244.72
740.79	244.54
741.12	244.39
741.45	244.21
741.78	243.95
742.11	243.85
742.44	243.65
742.77	243.52
743.10	243.35
743.43	243.20
743.75	242.88
744.08	242.99
744.41	242.83
744.74	242.69
745.07	242.50
745.40	242.39
745.73	242.34
746.06	242.22
746.39	242.11
746.71	241.98
747.04	241.81
747.37	241.67
747.70	241.58
748.03	241.45
748.36	241.36
748.68	241.24
749.01	241.08
749.34	240.97
749.67	240.84
750.00	240.75
750.33	240.76
750.65	240.67
750.98	240.30
751.31	240.20
751.64	240.11
751.97	240.11
752.29	239.97
752.62	239.78
752.95	239.65
753.28	239.52
753.60	239.40
753.93	239.36
754.26	239.27
754.59	239.12
754.91	239.01
755.24	238.88
755.57	238.76
755.90	238.64
756.22	238.51
756.55	238.38
756.88	238.24
757.20	238.02
757.53	237.86
757.86	237.76
758.19	237.67
758.51	237.56
758.84	237.37
759.17	237.26
759.49	237.17
759.82	237.15
760.15	237.08
760.47	236.99
760.80	236.84
761.13	236.77
761.45	236.68
761.78	236.60
762.11	236.53
762.43	236.43
762.76	236.35
763.08	236.30
763.41	236.24
763.74	236.16
764.06	236.07
764.39	236.01
764.71	235.93
765.04	235.82
765.37	235.74
765.69	235.67
766.02	235.60
766.34	235.52
766.67	235.38
767.00	235.34
767.32	235.36
767.65	235.41
767.97	235.32
768.30	235.26
768.62	235.19
768.95	235.10
769.27	235.04
769.60	235.01
769.92	234.91
770.25	234.82
770.57	234.73
770.90	234.68
771.22	234.61
771.55	234.57
771.87	234.53
772.20	234.48
772.52	234.58
772.85	234.74
773.17	234.69
773.50	234.64
773.82	234.56
774.15	234.43
774.47	234.26
774.80	234.20
775.12	234.15
775.45	234.11
775.77	234.08
776.09	234.05
776.42	234.00
776.74	234.02
777.07	233.98
777.39	233.96
777.72	233.90
778.04	233.89
778.36	233.83
778.69	233.79
779.01	233.76
779.33	233.56
779.66	233.33
779.98	233.28
780.31	233.25
780.63	233.29
780.95	233.29
781.28	233.26
781.60	233.21
781.92	233.18
782.25	233.15
782.57	233.11
782.89	233.06
783.22	233.02
783.54	232.94
783.86	232.91
784.19	232.87
784.51	232.89
784.83	232.83
785.16	232.79
785.48	232.76
785.80	232.73
786.12	232.72
786.45	232.68
786.77	232.67
787.09	232.62
787.42	232.53
787.74	232.50
788.06	232.48
788.38	232.44
788.71	232.40
789.03	232.36
789.35	232.35
789.67	232.30
789.99	232.28
790.32	232.23
790.64	232.22
790.96	232.36
791.28	232.27
791.61	232.24
791.93	232.23
792.25	232.18
792.57	232.26
792.89	232.21
793.21	232.20
793.54	232.15
793.86	232.11
794.18	232.09
794.50	232.02
794.82	231.99
795.14	231.99
795.47	232.00
795.79	231.98
796.11	231.91
796.43	231.88
796.75	231.85
797.07	231.85
797.39	231.82
797.71	231.64
798.04	231.62
798.36	231.60
798.68	231.56
799.00	231.56
799.32	231.46
799.64	231.47
799.96	231.45
800.28	231.47
800.60	231.45
800.92	231.43
801.24	231.40
801.56	231.41
801.89	231.37
802.21	231.36
802.53	231.32
802.85	231.34
803.17	231.41
803.49	231.37
803.81	231.34
804.13	231.30
804.45	231.27
804.77	231.28
805.09	231.27
805.41	231.24
805.73	231.21
806.05	231.14
806.37	231.12
806.69	231.08
807.01	231.04
807.33	231.05
807.65	230.97
807.97	231.03
808.28	230.99
808.60	230.98
808.92	230.93
809.24	231.02
809.56	230.98
809.88	230.91
810.20	230.90
810.52	230.92
810.84	230.88
811.16	230.85
811.48	230.82
811.80	230.87
812.12	230.86
812.43	230.87
812.75	230.88
813.07	230.84
813.39	230.84
813.71	230.80
814.03	230.77
814.35	230.77
814.67	230.69
814.98	230.66
815.30	230.63
815.62	230.60
815.94	230.48
816.26	230.48
816.58	230.44
816.89	230.44
817.21	230.38
817.53	230.39
817.85	230.39
818.17	230.36
818.48	230.28
818.80	230.29
819.12	230.25
819.44	230.21
819.76	230.18
820.07	230.18
820.39	230.16
820.71	230.16
821.03	230.15
821.34	230.13
821.66	230.14
821.98	230.15
822.30	230.14
822.61	230.24
822.93	230.21
823.25	230.20
823.57	230.16
823.88	230.18
824.20	230.16
824.52	230.18
824.83	230.17
825.15	230.15
825.47	230.13
825.79	230.14
826.10	230.12
826.42	230.11
826.74	230.10
827.05	230.10
827.37	230.10
827.69	230.08
828.00	230.08
828.32	230.07
828.64	230.04
828.95	230.12
829.27	230.06
829.58	230.05
829.90	230.07
830.22	230.07
830.53	230.04
830.85	230.02
831.17	229.96
831.48	229.97
831.80	229.97
832.11	229.95
832.43	229.90
832.75	229.90
833.06	230.00
833.38	229.95
833.69	229.93
834.01	229.94
834.32	229.93
834.64	229.91
834.96	229.90
835.27	229.88
835.59	229.82
835.90	229.79
836.22	229.78
836.53	229.75
836.85	229.72
837.16	229.90
837.48	229.90
837.79	229.95
838.11	229.94
838.42	229.94
838.74	229.95
839.05	229.94
839.37	229.93
839.68	229.82
840.00	229.80
840.31	229.83
840.63	229.81
840.94	229.78
841.26	229.76
841.57	229.76
841.88	229.77
842.20	229.75
842.51	229.72
842.83	229.71
843.14	229.86
843.46	229.86
843.77	229.75
844.08	229.73
844.40	229.69
844.71	229.66
845.03	229.65
845.34	229.64
845.65	229.63
845.97	229.63
846.28	229.64
846.60	229.65
846.91	229.62
847.22	229.61
847.54	229.65
847.85	229.66
848.16	229.64
848.48	229.61
848.79	229.67
849.10	229.69
849.42	229.70
849.73	229.54
850.04	229.54
850.36	229.47
850.67	229.51
850.98	229.51
851.30	229.53
851.61	229.53
851.92	229.52
852.23	229.59
852.55	229.59
852.86	229.59
853.17	229.60
853.49	229.63
853.80	229.65
854.11	229.66
854.42	229.69
854.74	229.68
855.05	229.68
855.36	229.61
855.67	229.61
855.99	229.61
856.30	229.82
856.61	229.81
856.92	229.82
857.23	229.82
857.55	229.79
857.86	229.78
858.17	229.79
858.48	229.77
858.79	229.73
859.11	229.74
859.42	229.72
859.73	229.71
860.04	229.71
860.35	229.66
860.66	229.61
860.98	229.59
861.29	229.62
861.60	229.61
861.91	229.64
862.22	229.60
862.53	229.56
862.84	229.34
863.16	229.38
863.47	229.35
863.78	229.32
864.09	229.34
864.40	229.34
864.71	229.34
865.02	229.37
865.33	229.35
865.64	229.31
865.95	229.32
866.27	229.42
866.58	229.39
866.89	229.42
867.20	229.41
867.51	229.37
867.82	229.35
868.13	229.40
868.44	229.36
868.75	229.40
869.06	229.40
869.37	229.43
869.68	229.38
869.99	229.41
870.30	229.42
870.61	229.43
870.92	229.40
871.23	229.38
871.54	229.39
871.85	229.43
872.16	229.45
872.47	229.44
872.78	229.35
873.09	229.36
873.40	229.33
873.71	229.34
874.02	229.36
874.33	229.34
874.64	229.30
874.95	229.34
875.26	229.31
875.56	229.32
875.87	229.30
876.18	229.30
876.49	229.47
876.80	229.46
877.11	229.41
877.42	229.43
877.73	229.43
878.04	229.40
878.35	229.39
878.66	229.39
878.96	229.38
879.27	229.37
879.58	229.36
879.89	229.36
880.20	229.41
880.51	229.40
880.82	229.40
881.12	229.41
881.43	229.36
881.74	229.34
882.05	229.31
882.36	229.32
882.67	229.34
882.97	229.15
883.28	229.13
883.59	229.14
883.90	229.15
884.21	229.19
884.51	229.18
884.82	229.15
885.13	229.15
885.44	229.15
885.74	229.15
886.05	229.14
886.36	229.14
886.67	229.07
886.98	229.15
887.28	229.18
887.59	229.18
887.90	229.18
888.20	229.19
888.51	229.23
888.82	229.21
889.13	229.21
889.43	229.37
889.74	229.35
890.05	229.35
890.35	229.33
890.66	229.29
890.97	229.27
891.28	229.26
891.58	229.26
891.89	229.25
892.20	229.24
892.50	229.22
892.81	229.22
893.12	229.21
893.42	229.14
893.73	229.13
894.04	229.12
894.34	229.14
894.65	229.14
894.95	229.12
895.26	229.13
895.57	229.20
895.87	229.02
896.18	229.06
896.48	229.08
896.79	229.08
897.10	229.10
897.40	229.12
897.71	229.15
898.01	229.13
898.32	229.16
898.63	229.16
898.93	229.18
899.24	229.18
899.54	229.18
899.85	229.16
900.15	229.15
900.46	229.14
900.76	229.15
901.07	229.14
901.38	229.13
901.68	229.14
901.99	229.05
902.29	229.07
902.60	229.04
902.90	229.02
903.21	229.01
903.51	229.00
903.82	229.03
904.12	229.03
904.43	229.04
904.73	229.03
905.03	229.05
905.34	229.20
905.64	229.19
905.95	229.20
906.25	229.20
906.56	229.21
906.86	229.20
907.17	229.18
907.47	229.20
907.77	229.18
908.08	229.13
908.38	229.14
908.69	229.15
908.99	229.19
909.30	229.20
909.60	229.19
909.90	229.18
910.21	229.12
910.51	229.09
910.81	229.08
911.12	229.08
911.42	229.08
911.73	228.90
912.03	228.92
912.33	228.96
912.64	228.95
912.94	228.93
913.24	228.91
913.55	228.89
913.85	228.87
914.15	228.89
914.46	228.93
914.76	228.91
915.06	228.90
915.37	228.86
915.67	228.86
915.97	228.86
916.27	228.83
916.58	228.84
916.88	228.83
917.18	228.81
917.49	228.93
917.79	228.92
918.09	228.94
918.39	228.98
918.70	228.95
919.00	228.96
919.30	229.04
919.60	229.02
919.91	229.01
920.21	229.02
920.51	228.99
920.81	228.99
921.12	229.02
921.42	229.01
921.72	229.03
922.02	229.04
922.32	229.07
922.63	229.08
922.93	229.19
923.23	229.20
923.53	229.19
923.83	229.08
924.13	229.09
924.44	229.09
924.74	229.11
925.04	229.16
925.34	229.15
925.64	229.07
925.94	229.08
926.24	229.19
926.55	229.18
926.85	229.21
927.15	229.20
927.45	229.19
927.75	229.19
928.05	229.18
928.35	229.16
928.65	229.18
928.95	229.20
929.26	229.11
929.56	229.15
929.86	229.17
930.16	229.15
930.46	229.13
930.76	229.14
931.06	229.05
931.36	229.00
931.66	229.03
931.96	229.05
932.26	229.06
932.56	228.99
932.86	229.01
933.16	229.00
933.46	228.98
933.76	228.97
934.06	229.00
934.36	229.07
934.66	229.06
934.96	229.03
935.26	229.04
935.56	229.06
935.86	229.03
936.16	229.00
936.46	228.99
936.76	228.99
937.06	228.96
937.36	228.99
937.66	229.00
937.96	228.98
938.26	228.95
938.56	228.94
938.86	228.94
939.16	228.98
939.46	228.99
939.76	229.01
940.06	228.99
940.35	228.96
940.65	228.87
940.95	228.90
941.25	228.86
941.55	228.83
941.85	228.82
942.15	228.86
942.45	228.91
942.75	228.92
943.04	228.93
943.34	228.98
943.64	228.96
943.94	228.92
944.24	228.93
944.54	228.95
944.84	228.94
945.13	228.92
945.43	228.88
945.73	228.87
946.03	228.86
946.33	228.84
946.62	228.82
946.92	228.82
947.22	228.83
947.52	228.84
947.82	228.87
948.11	228.85
948.41	228.82
948.71	228.77
949.01	228.78
949.31	228.76
949.60	228.74
949.90	228.76
950.20	228.76
950.50	228.75
950.79	228.73
951.09	228.76
951.39	228.76
951.69	228.75
951.98	228.78
952.28	228.80
952.58	228.81
952.87	228.82
953.17	228.85
953.47	228.83
953.76	228.83
954.06	228.79
954.36	228.76
954.66	228.75
954.95	228.80
955.25	228.80
955.55	228.81
955.84	228.79
956.14	228.80
956.44	228.82
956.73	228.80
957.03	228.80
957.32	228.79
957.62	228.79
957.92	228.83
958.21	228.81
958.51	229.00
958.81	229.01
959.10	229.03
959.40	229.06
959.69	229.07
959.99	229.08
960.29	229.08
960.58	229.09
960.88	229.15
961.17	229.13
961.47	229.14
961.76	229.13
962.06	229.16
962.36	229.13
962.65	229.14
962.95	229.15
963.24	229.15
963.54	229.16
963.83	229.17
964.13	229.16
964.42	229.13
964.72	228.98
965.01	228.98
965.31	228.96
965.60	228.92
965.90	229.02
966.19	229.00
966.49	229.01
966.78	229.01
967.08	229.00
967.37	229.00
967.67	228.95
967.96	228.98
968.26	228.96
968.55	228.99
968.85	228.98
969.14	228.96
969.43	228.95
969.73	228.93
970.02	228.91
970.32	228.90
970.61	228.88
970.91	228.84
971.20	228.81
971.49	228.80
971.79	228.82
972.08	228.70
972.38	228.72
972.67	228.71
972.96	228.73
973.26	228.70
973.55	228.74
973.85	228.75
974.14	228.73
974.43	228.76
974.73	228.72
975.02	228.70
975.31	228.71
975.61	228.70
975.90	228.69
976.19	228.68
976.49	228.70
976.78	228.72
977.07	228.72
977.37	228.73
977.66	228.75
977.95	228.72
978.24	228.74
978.54	228.77
978.83	228.76
979.12	228.75
979.42	228.75
979.71	228.73
980.00	228.73
980.29	228.74
980.59	228.69
980.88	228.75
981.17	228.75
981.46	228.74
981.76	228.75
982.05	228.81
982.34	228.83
982.63	228.83
982.93	228.83
983.22	228.87
983.51	228.88
983.80	228.89
984.09	228.92
984.39	228.90
984.68	228.87
984.97	228.87
985.26	228.87
985.55	228.88
985.85	228.84
986.14	228.87
986.43	228.89
986.72	228.89
987.01	228.83
987.30	228.83
987.59	228.83
987.89	228.84
988.18	228.80
988.47	228.78
988.76	228.77
989.05	228.75
989.34	228.73
989.63	228.78
989.92	228.76
990.22	228.74
990.51	228.74
990.80	228.74
991.09	228.76
991.38	228.77
991.67	228.75
991.96	228.73
992.25	228.73
992.54	228.70
992.83	228.70
993.12	228.70
993.41	228.73
993.70	228.80
993.99	228.81
994.28	228.84
994.58	228.86
994.87	228.84
995.16	228.85
995.45	228.83
995.74	228.76
996.03	228.78
996.32	228.80
996.61	228.83
996.90	228.83
997.19	228.81
997.48	228.82
997.77	228.81
998.06	228.83
998.34	228.80
998.63	228.80
998.92	228.81
999.21	228.85
999.50	228.84
999.79	228.78
1000.08	228.78
1000.37	228.78
1000.66	228.75
1000.95	228.80
1001.24	228.80
1001.53	228.82
1001.82	228.83
1002.11	228.79
1002.40	228.81
1002.68	228.84
1002.97	228.96
1003.26	228.95
1003.55	228.91
1003.84	228.92
1004.13	228.98
1004.42	228.99
1004.71	228.99
1004.99	228.97
1005.28	229.00
1005.57	228.99
1005.86	228.97
1006.15	228.96
1006.44	228.92
1006.72	228.95
1007.01	228.91
1007.30	228.92
1007.59	228.91
1007.88	228.91
1008.17	228.91
1008.45	228.87
1008.74	228.81
1009.03	228.72
1009.32	228.73
1009.60	228.74
1009.89	228.74
1010.18	228.65
1010.47	228.64
1010.76	228.63
1011.04	228.62
1011.33	228.61
1011.62	228.61
1011.91	228.63
1012.19	228.63
1012.48	228.64
1012.77	228.63
1013.05	228.68
1013.34	228.68
1013.63	228.66
1013.92	228.67
1014.20	228.66
1014.49	228.67
1014.78	228.68
1015.06	228.62
1015.35	228.63
1015.64	228.64
1015.92	228.67
1016.21	228.67
1016.50	228.68
1016.78	228.70
1017.07	228.73
1017.36	228.70
1017.64	228.68
1017.93	228.70
1018.22	228.69
1018.50	228.68
1018.79	228.68
1019.08	228.63
1019.36	228.65
1019.65	228.63
1019.93	228.67
1020.22	228.70
1020.51	228.79
1020.79	228.77
1021.08	228.63
1021.36	228.37
1021.65	228.64
1021.94	228.68
1022.22	228.92
1022.51	228.31
1022.79	229.48
1023.08	228.91
1023.36	230.64
1023.65	228.29
>>>>>End Processed Spectral Data<<<<<
