SpectraSuite Data File
++++++++++++++++++++++++++++++++++++
Date: Tue Oct 06 14:18:24 EDT 2015
User: lab3
Dark Spectrum Present: No
Reference Spectrum Present: No
Number of Sampled Component Spectra: 1
Spectrometers: USB2E7196
Integration Time (usec): 66000 (USB2E7196)
Spectra Averaged: 1000 (USB2E7196)
Boxcar Smoothing: 10 (USB2E7196)
Correct for Electrical Dark: No (USB2E7196)
Strobe/Lamp Enabled: No (USB2E7196)
Correct for Detector Non-linearity: No (USB2E7196)
Correct for Stray Light: No (USB2E7196)
Number of Pixels in Processed Spectrum: 2048
>>>>>Begin Processed Spectral Data<<<<<
339.09	0.00
339.48	215.18
339.86	216.73
340.24	217.89
340.63	219.38
341.01	223.53
341.39	222.24
341.78	223.61
342.16	224.88
342.54	225.22
342.93	213.69
343.31	224.48
343.69	225.02
344.07	225.48
344.46	225.94
344.84	226.35
345.22	226.53
345.60	226.82
345.99	227.02
346.37	227.17
346.75	227.29
347.13	227.38
347.52	227.46
347.90	227.59
348.28	227.64
348.66	227.72
349.05	227.73
349.43	227.81
349.81	227.90
350.19	227.97
350.57	228.04
350.96	228.13
351.34	228.23
351.72	228.33
352.10	228.44
352.48	228.51
352.87	228.55
353.25	228.63
353.63	228.68
354.01	228.74
354.39	228.83
354.77	228.90
355.15	229.02
355.54	229.06
355.92	229.07
356.30	229.14
356.68	229.32
357.06	229.40
357.44	229.43
357.82	229.48
358.20	229.69
358.58	229.75
358.97	229.82
359.35	229.92
359.73	230.01
360.11	230.07
360.49	230.14
360.87	230.19
361.25	230.26
361.63	230.37
362.01	230.42
362.39	230.44
362.77	230.49
363.15	230.51
363.53	230.54
363.91	230.59
364.29	230.62
364.67	230.46
365.05	230.48
365.43	230.52
365.81	230.56
366.19	230.52
366.57	230.60
366.95	230.60
367.33	230.56
367.71	230.55
368.09	230.57
368.47	230.57
368.85	230.56
369.23	230.57
369.61	230.49
369.99	230.52
370.37	230.53
370.75	230.66
371.13	230.62
371.51	230.57
371.89	230.55
372.27	230.52
372.65	230.52
373.03	230.47
373.41	230.42
373.78	230.36
374.16	230.22
374.54	230.13
374.92	230.07
375.30	230.02
375.68	229.95
376.06	229.92
376.44	229.85
376.82	229.81
377.19	229.77
377.57	229.71
377.95	229.60
378.33	229.54
378.71	229.33
379.09	229.28
379.47	229.26
379.84	229.19
380.22	229.13
380.60	229.05
380.98	229.01
381.36	228.97
381.73	228.90
382.11	228.90
382.49	228.87
382.87	228.80
383.25	228.77
383.62	228.94
384.00	228.86
384.38	228.83
384.76	228.84
385.13	228.86
385.51	228.82
385.89	228.76
386.27	228.74
386.64	228.74
387.02	228.69
387.40	228.64
387.78	228.63
388.15	228.62
388.53	228.59
388.91	228.56
389.29	228.51
389.66	228.53
390.04	228.48
390.42	228.49
390.79	228.49
391.17	228.48
391.55	228.27
391.92	228.27
392.30	228.28
392.68	228.23
393.05	228.21
393.43	228.22
393.81	228.23
394.18	228.21
394.56	228.23
394.94	228.30
395.31	228.31
395.69	228.38
396.06	228.41
396.44	228.47
396.82	228.49
397.19	228.64
397.57	228.65
397.95	228.74
398.32	228.73
398.70	228.80
399.07	228.90
399.45	228.96
399.82	229.03
400.20	229.09
400.58	229.19
400.95	229.20
401.33	229.34
401.70	229.58
402.08	229.73
402.45	229.87
402.83	230.03
403.20	230.20
403.58	230.32
403.95	230.54
404.33	230.76
404.71	230.98
405.08	231.26
405.46	231.51
405.83	231.78
406.21	232.08
406.58	232.41
406.96	232.74
407.33	233.11
407.70	233.55
408.08	234.12
408.45	234.62
408.83	235.18
409.20	235.68
409.58	236.14
409.95	236.76
410.33	237.43
410.70	238.08
411.08	238.84
411.45	239.65
411.82	240.46
412.20	241.39
412.57	242.49
412.95	243.38
413.32	244.53
413.69	245.70
414.07	246.96
414.44	248.33
414.82	249.72
415.19	251.37
415.56	253.03
415.94	254.76
416.31	256.70
416.68	258.63
417.06	260.89
417.43	262.99
417.81	265.41
418.18	267.90
418.55	270.59
418.93	273.41
419.30	276.36
419.67	279.48
420.04	282.70
420.42	286.08
420.79	289.96
421.16	293.89
421.54	297.87
421.91	302.00
422.28	306.30
422.66	310.93
423.03	315.33
423.40	319.97
423.77	324.90
424.15	329.95
424.52	335.20
424.89	340.90
425.26	346.55
425.64	351.78
426.01	357.64
426.38	363.65
426.75	369.81
427.13	376.11
427.50	382.69
427.87	389.50
428.24	396.34
428.61	402.88
428.99	409.96
429.36	417.77
429.73	425.23
430.10	432.66
430.47	440.26
430.85	448.13
431.22	456.50
431.59	465.08
431.96	473.43
432.33	482.76
432.70	491.63
433.08	502.19
433.45	512.13
433.82	521.89
434.19	532.80
434.56	543.54
434.93	553.94
435.30	564.29
435.68	576.06
436.05	587.55
436.42	599.08
436.79	609.59
437.16	620.91
437.53	633.15
437.90	645.41
438.27	657.34
438.64	670.18
439.01	681.89
439.38	692.78
439.75	703.24
440.13	715.15
440.50	726.44
440.87	735.40
441.24	745.28
441.61	756.15
441.98	764.15
442.35	773.62
442.72	783.34
443.09	792.66
443.46	798.80
443.83	803.41
444.20	807.17
444.57	812.72
444.94	816.17
445.31	819.56
445.68	822.47
446.05	824.70
446.42	824.52
446.79	824.15
447.16	823.74
447.53	823.53
447.90	820.19
448.27	816.92
448.64	811.74
449.01	808.31
449.37	800.95
449.74	794.39
450.11	785.83
450.48	776.32
450.85	766.69
451.22	758.36
451.59	750.28
451.96	743.08
452.33	732.50
452.70	722.99
453.07	711.49
453.43	700.02
453.80	688.84
454.17	678.18
454.54	668.20
454.91	656.92
455.28	646.20
455.65	636.04
456.02	625.42
456.38	616.84
456.75	605.75
457.12	596.80
457.49	587.71
457.86	579.18
458.23	571.71
458.59	563.41
458.96	554.94
459.33	547.47
459.70	539.87
460.07	533.97
460.43	527.06
460.80	520.56
461.17	514.88
461.54	508.83
461.91	503.15
462.27	497.36
462.64	492.67
463.01	487.32
463.38	481.97
463.74	477.09
464.11	472.79
464.48	468.93
464.85	464.75
465.21	461.52
465.58	457.91
465.95	453.80
466.32	450.54
466.68	447.33
467.05	444.10
467.42	440.93
467.78	437.58
468.15	434.50
468.52	432.25
468.88	429.28
469.25	426.56
469.62	424.40
469.98	422.04
470.35	419.90
470.72	417.98
471.08	416.01
471.45	414.37
471.82	412.51
472.18	410.59
472.55	409.34
472.92	407.79
473.28	406.57
473.65	405.27
474.02	404.07
474.38	403.02
474.75	402.38
475.11	401.48
475.48	401.04
475.85	400.60
476.21	400.34
476.58	400.18
476.94	400.34
477.31	400.34
477.67	400.45
478.04	400.75
478.41	401.11
478.77	401.71
479.14	402.04
479.50	402.78
479.87	403.74
480.23	404.69
480.60	405.62
480.96	406.55
481.33	407.96
481.69	409.35
482.06	410.74
482.42	412.04
482.79	413.62
483.15	415.49
483.52	417.59
483.88	419.61
484.25	421.74
484.61	423.99
484.98	426.38
485.34	429.06
485.71	431.88
486.07	434.90
486.44	437.83
486.80	441.15
487.17	444.52
487.53	448.22
487.90	452.08
488.26	456.33
488.62	460.78
488.99	465.22
489.35	469.92
489.72	475.00
490.08	480.31
490.44	485.73
490.81	491.32
491.17	497.04
491.54	503.13
491.90	509.39
492.26	516.05
492.63	523.04
492.99	530.31
493.36	537.82
493.72	545.75
494.08	553.82
494.45	562.32
494.81	571.20
495.17	580.28
495.54	589.89
495.90	599.86
496.26	610.12
496.63	620.63
496.99	631.47
497.35	642.72
497.72	654.35
498.08	666.44
498.44	678.76
498.80	691.91
499.17	705.39
499.53	719.30
499.89	733.56
500.26	747.91
500.62	762.54
500.98	777.86
501.34	793.35
501.71	809.64
502.07	826.15
502.43	843.13
502.79	860.24
503.16	877.79
503.52	895.62
503.88	913.88
504.24	932.61
504.60	951.59
504.97	970.98
505.33	990.85
505.69	1011.66
506.05	1032.55
506.41	1053.33
506.78	1074.42
507.14	1096.30
507.50	1118.66
507.86	1141.48
508.22	1164.43
508.59	1187.25
508.95	1210.82
509.31	1234.80
509.67	1259.45
510.03	1284.02
510.39	1308.98
510.75	1334.00
511.12	1359.08
511.48	1384.14
511.84	1409.26
512.20	1434.82
512.56	1460.88
512.92	1486.67
513.28	1512.15
513.64	1538.03
514.00	1563.98
514.37	1590.11
514.73	1615.95
515.09	1641.34
515.45	1666.95
515.81	1692.66
516.17	1718.38
516.53	1743.52
516.89	1768.54
517.25	1793.66
517.61	1818.57
517.97	1843.63
518.33	1868.31
518.69	1892.90
519.05	1917.64
519.41	1942.29
519.77	1966.84
520.13	1991.10
520.49	2015.26
520.85	2039.43
521.21	2063.43
521.57	2087.63
521.93	2110.75
522.29	2134.35
522.65	2157.45
523.01	2180.30
523.37	2202.41
523.73	2224.93
524.09	2247.50
524.45	2270.16
524.81	2292.06
525.17	2313.71
525.53	2334.68
525.89	2355.94
526.25	2376.69
526.61	2396.47
526.97	2416.39
527.33	2435.92
527.68	2454.57
528.04	2472.55
528.40	2489.60
528.76	2507.09
529.12	2523.46
529.48	2540.27
529.84	2555.79
530.20	2572.42
530.56	2587.97
530.91	2603.37
531.27	2617.82
531.63	2631.24
531.99	2644.40
532.35	2655.90
532.71	2667.44
533.07	2679.33
533.42	2689.69
533.78	2700.77
534.14	2712.15
534.50	2722.09
534.86	2732.18
535.21	2740.35
535.57	2748.57
535.93	2757.05
536.29	2764.45
536.65	2772.07
537.00	2777.50
537.36	2783.29
537.72	2787.32
538.08	2791.12
538.44	2793.99
538.79	2797.16
539.15	2799.81
539.51	2801.85
539.87	2804.55
540.22	2805.20
540.58	2806.25
540.94	2806.87
541.29	2806.10
541.65	2803.83
542.01	2801.66
542.37	2798.36
542.72	2796.73
543.08	2793.87
543.44	2790.93
543.79	2786.13
544.15	2781.23
544.51	2777.24
544.87	2771.25
545.22	2764.75
545.58	2758.39
545.94	2752.77
546.29	2745.58
546.65	2737.67
547.01	2729.79
547.36	2721.64
547.72	2713.39
548.07	2703.92
548.43	2694.28
548.79	2683.53
549.14	2673.67
549.50	2663.71
549.86	2653.13
550.21	2640.73
550.57	2629.64
550.92	2616.71
551.28	2604.42
551.64	2592.37
551.99	2580.40
552.35	2568.61
552.70	2556.52
553.06	2544.82
553.41	2532.03
553.77	2518.80
554.13	2505.81
554.48	2492.10
554.84	2477.73
555.19	2464.38
555.55	2450.28
555.90	2436.32
556.26	2423.36
556.61	2409.65
556.97	2394.90
557.32	2380.53
557.68	2366.45
558.03	2351.72
558.39	2337.85
558.74	2324.31
559.10	2308.58
559.45	2293.26
559.81	2278.80
560.16	2263.91
560.52	2248.71
560.87	2234.32
561.23	2219.45
561.58	2204.91
561.94	2189.64
562.29	2174.58
562.64	2159.48
563.00	2144.41
563.35	2129.93
563.71	2115.25
564.06	2100.09
564.42	2085.50
564.77	2071.01
565.12	2056.90
565.48	2042.74
565.83	2028.15
566.19	2013.68
566.54	1999.81
566.89	1984.75
567.25	1969.09
567.60	1954.65
567.96	1939.67
568.31	1924.12
568.66	1909.41
569.02	1894.69
569.37	1880.07
569.72	1865.77
570.08	1851.26
570.43	1836.75
570.78	1821.46
571.14	1806.16
571.49	1791.30
571.84	1777.25
572.20	1761.95
572.55	1746.81
572.90	1731.10
573.26	1715.53
573.61	1699.68
573.96	1684.36
574.31	1669.78
574.67	1655.59
575.02	1640.64
575.37	1625.43
575.72	1610.09
576.08	1595.06
576.43	1580.18
576.78	1565.34
577.13	1550.56
577.49	1535.82
577.84	1521.01
578.19	1506.37
578.54	1491.81
578.90	1477.14
579.25	1461.92
579.60	1447.83
579.95	1433.69
580.30	1419.81
580.66	1405.92
581.01	1392.20
581.36	1378.41
581.71	1364.49
582.06	1350.66
582.42	1337.03
582.77	1323.67
583.12	1310.69
583.47	1297.53
583.82	1284.42
584.17	1271.42
584.53	1258.39
584.88	1245.77
585.23	1233.02
585.58	1220.54
585.93	1208.03
586.28	1196.13
586.63	1184.10
586.98	1171.93
587.34	1160.14
587.69	1148.06
588.04	1136.38
588.39	1124.85
588.74	1113.20
589.09	1101.94
589.44	1090.22
589.79	1078.98
590.14	1067.95
590.49	1056.93
590.84	1046.30
591.19	1035.74
591.54	1025.11
591.89	1014.31
592.25	1003.53
592.60	992.73
592.95	982.15
593.30	971.64
593.65	961.06
594.00	950.79
594.35	941.16
594.70	931.03
595.05	921.67
595.40	912.10
595.75	902.38
596.10	893.12
596.45	883.71
596.80	874.70
597.15	865.69
597.50	856.72
597.85	848.08
598.19	839.34
598.54	830.61
598.89	822.11
599.24	813.97
599.59	805.91
599.94	798.36
600.29	790.62
600.64	782.94
600.99	775.27
601.34	767.83
601.69	759.81
602.04	752.42
602.39	745.08
602.74	737.97
603.08	730.98
603.43	724.03
603.78	717.18
604.13	710.46
604.48	703.75
604.83	697.29
605.18	690.82
605.53	684.51
605.87	678.10
606.22	671.92
606.57	665.75
606.92	659.47
607.27	653.31
607.62	647.49
607.96	641.77
608.31	636.33
608.66	630.72
609.01	625.38
609.36	620.25
609.70	615.03
610.05	609.75
610.40	604.59
610.75	599.35
611.10	594.45
611.44	589.52
611.79	584.69
612.14	579.80
612.49	574.87
612.83	570.16
613.18	565.71
613.53	561.24
613.88	556.81
614.22	552.60
614.57	548.27
614.92	543.98
615.27	539.80
615.61	535.65
615.96	531.67
616.31	527.71
616.65	523.71
617.00	519.80
617.35	516.01
617.70	512.33
618.04	508.79
618.39	505.18
618.74	501.70
619.08	498.14
619.43	494.68
619.78	491.37
620.12	488.08
620.47	484.93
620.82	481.77
621.16	478.69
621.51	475.76
621.85	472.85
622.20	470.02
622.55	467.19
622.89	464.39
623.24	461.72
623.59	459.08
623.93	456.48
624.28	453.99
624.62	451.70
624.97	449.37
625.32	446.89
625.66	444.43
626.01	442.01
626.35	439.79
626.70	437.51
627.04	435.34
627.39	433.12
627.73	430.95
628.08	428.89
628.43	426.86
628.77	424.79
629.12	422.89
629.46	420.93
629.81	419.10
630.15	417.21
630.50	415.31
630.84	413.50
631.19	411.76
631.53	410.08
631.88	408.20
632.22	406.41
632.57	404.98
632.91	403.52
633.26	402.12
633.60	400.67
633.95	399.31
634.29	397.86
634.64	396.44
634.98	394.92
635.32	393.53
635.67	392.21
636.01	390.90
636.36	389.60
636.70	388.46
637.05	387.16
637.39	385.98
637.73	384.84
638.08	383.73
638.42	382.60
638.77	381.36
639.11	380.13
639.45	378.97
639.80	377.74
640.14	376.58
640.49	375.36
640.83	374.21
641.17	373.05
641.52	371.95
641.86	370.91
642.20	370.01
642.55	368.93
642.89	367.88
643.23	366.86
643.58	365.93
643.92	364.85
644.26	363.86
644.61	362.93
644.95	361.95
645.29	360.95
645.64	359.96
645.98	359.03
646.32	358.19
646.66	357.27
647.01	356.33
647.35	355.47
647.69	354.61
648.04	353.79
648.38	352.92
648.72	352.10
649.06	351.30
649.41	350.46
649.75	349.67
650.09	348.92
650.43	348.16
650.78	347.35
651.12	346.58
651.46	345.83
651.80	345.13
652.14	344.40
652.49	343.70
652.83	342.96
653.17	342.24
653.51	341.55
653.85	340.95
654.20	340.32
654.54	339.61
654.88	338.93
655.22	338.30
655.56	337.60
655.90	336.92
656.25	336.23
656.59	335.56
656.93	334.95
657.27	334.38
657.61	333.72
657.95	333.13
658.29	332.54
658.64	332.01
658.98	331.37
659.32	330.77
659.66	330.18
660.00	329.61
660.34	329.05
660.68	328.44
661.02	327.78
661.36	327.16
661.70	326.57
662.05	326.02
662.39	325.47
662.73	325.02
663.07	324.57
663.41	324.07
663.75	323.53
664.09	322.98
664.43	322.34
664.77	321.82
665.11	321.22
665.45	320.67
665.79	320.10
666.13	319.54
666.47	319.00
666.81	318.43
667.15	317.85
667.49	317.35
667.83	316.92
668.17	316.47
668.51	316.03
668.85	315.61
669.19	315.24
669.53	314.73
669.87	314.24
670.21	313.76
670.55	313.30
670.89	312.96
671.23	312.53
671.57	312.12
671.91	311.74
672.25	311.38
672.58	311.01
672.92	310.56
673.26	310.18
673.60	309.78
673.94	309.38
674.28	309.02
674.62	308.64
674.96	308.17
675.30	307.76
675.64	307.32
675.97	306.87
676.31	306.35
676.65	305.91
676.99	305.54
677.33	305.05
677.67	304.61
678.01	304.05
678.34	303.58
678.68	303.16
679.02	302.68
679.36	302.22
679.70	301.75
680.04	301.31
680.37	300.87
680.71	300.45
681.05	300.04
681.39	299.60
681.73	299.13
682.06	298.67
682.40	298.24
682.74	297.86
683.08	297.51
683.42	297.08
683.75	296.68
684.09	296.17
684.43	295.72
684.77	295.26
685.10	294.85
685.44	294.48
685.78	294.06
686.12	293.65
686.45	293.22
686.79	292.76
687.13	292.34
687.46	291.89
687.80	291.45
688.14	290.96
688.48	290.52
688.81	290.09
689.15	289.74
689.49	289.28
689.82	288.81
690.16	288.28
690.50	287.86
690.83	287.42
691.17	286.96
691.51	286.55
691.84	286.17
692.18	285.75
692.52	285.28
692.85	284.84
693.19	284.48
693.52	284.08
693.86	283.69
694.20	283.27
694.53	282.86
694.87	282.41
695.21	281.98
695.54	281.57
695.88	281.11
696.21	280.60
696.55	280.17
696.88	279.73
697.22	279.32
697.56	278.90
697.89	278.44
698.23	278.03
698.56	277.57
698.90	277.15
699.23	276.70
699.57	276.29
699.90	275.85
700.24	275.35
700.58	274.94
700.91	274.57
701.25	274.33
701.58	274.01
701.92	273.69
702.25	273.34
702.59	272.94
702.92	272.57
703.26	272.20
703.59	271.82
703.93	271.57
704.26	271.21
704.60	270.81
704.93	270.41
705.26	270.02
705.60	269.69
705.93	269.25
706.27	268.95
706.60	268.62
706.94	268.33
707.27	267.94
707.61	267.57
707.94	267.16
708.27	266.63
708.61	266.18
708.94	265.77
709.28	265.39
709.61	265.02
709.94	264.70
710.28	264.38
710.61	264.07
710.95	263.62
711.28	263.41
711.61	263.08
711.95	262.81
712.28	262.48
712.61	262.13
712.95	261.92
713.28	261.66
713.61	261.29
713.95	260.91
714.28	260.61
714.61	260.29
714.95	259.98
715.28	259.66
715.61	259.36
715.95	259.07
716.28	258.76
716.61	258.49
716.95	258.15
717.28	257.83
717.61	257.50
717.94	257.21
718.28	256.78
718.61	256.47
718.94	256.14
719.27	255.86
719.61	255.60
719.94	255.28
720.27	254.91
720.60	254.65
720.94	254.39
721.27	254.15
721.60	253.92
721.93	253.65
722.27	253.45
722.60	253.22
722.93	252.95
723.26	252.72
723.59	252.46
723.93	252.25
724.26	252.04
724.59	251.82
724.92	251.60
725.25	251.44
725.59	251.23
725.92	251.05
726.25	250.83
726.58	250.62
726.91	250.40
727.24	250.19
727.57	249.97
727.91	249.73
728.24	249.52
728.57	249.30
728.90	249.13
729.23	248.87
729.56	248.75
729.89	248.55
730.22	248.33
730.55	248.12
730.89	247.91
731.22	247.68
731.55	247.48
731.88	247.28
732.21	247.06
732.54	246.86
732.87	246.66
733.20	246.48
733.53	246.31
733.86	246.14
734.19	245.95
734.52	245.79
734.85	245.76
735.18	245.55
735.51	245.44
735.84	245.27
736.17	245.14
736.50	244.88
736.83	244.92
737.16	244.76
737.49	244.61
737.82	244.46
738.15	244.32
738.48	244.16
738.81	243.98
739.14	243.80
739.47	243.63
739.80	243.46
740.13	243.33
740.46	243.13
740.79	242.95
741.12	242.80
741.45	242.62
741.78	242.37
742.11	242.27
742.44	242.06
742.77	241.92
743.10	241.76
743.43	241.61
743.75	241.28
744.08	241.41
744.41	241.26
744.74	241.10
745.07	240.93
745.40	240.83
745.73	240.78
746.06	240.65
746.39	240.55
746.71	240.40
747.04	240.24
747.37	240.11
747.70	240.02
748.03	239.88
748.36	239.79
748.68	239.66
749.01	239.49
749.34	239.38
749.67	239.25
750.00	239.16
750.33	239.17
750.65	239.06
750.98	238.69
751.31	238.58
751.64	238.49
751.97	238.47
752.29	238.32
752.62	238.11
752.95	238.00
753.28	237.85
753.60	237.73
753.93	237.66
754.26	237.57
754.59	237.41
754.91	237.29
755.24	237.15
755.57	237.06
755.90	236.95
756.22	236.82
756.55	236.68
756.88	236.53
757.20	236.31
757.53	236.16
757.86	236.05
758.19	235.97
758.51	235.86
758.84	235.67
759.17	235.57
759.49	235.48
759.82	235.48
760.15	235.42
760.47	235.33
760.80	235.19
761.13	235.13
761.45	235.04
761.78	234.95
762.11	234.89
762.43	234.78
762.76	234.69
763.08	234.64
763.41	234.57
763.74	234.50
764.06	234.41
764.39	234.35
764.71	234.26
765.04	234.16
765.37	234.07
765.69	234.01
766.02	233.94
766.34	233.86
766.67	233.72
767.00	233.67
767.32	233.69
767.65	233.74
767.97	233.65
768.30	233.60
768.62	233.53
768.95	233.45
769.27	233.39
769.60	233.36
769.92	233.25
770.25	233.17
770.57	233.07
770.90	233.02
771.22	232.92
771.55	232.89
771.87	232.84
772.20	232.78
772.52	232.88
772.85	233.04
773.17	233.00
773.50	232.93
773.82	232.86
774.15	232.72
774.47	232.55
774.80	232.49
775.12	232.44
775.45	232.39
775.77	232.35
776.09	232.31
776.42	232.26
776.74	232.28
777.07	232.23
777.39	232.22
777.72	232.16
778.04	232.15
778.36	232.08
778.69	232.04
779.01	232.01
779.33	231.80
779.66	231.55
779.98	231.50
780.31	231.47
780.63	231.52
780.95	231.50
781.28	231.47
781.60	231.43
781.92	231.38
782.25	231.35
782.57	231.30
782.89	231.26
783.22	231.21
783.54	231.13
783.86	231.11
784.19	231.07
784.51	231.09
784.83	231.04
785.16	231.01
785.48	230.99
785.80	230.95
786.12	230.94
786.45	230.91
786.77	230.89
787.09	230.85
787.42	230.74
787.74	230.71
788.06	230.69
788.38	230.66
788.71	230.61
789.03	230.59
789.35	230.59
789.67	230.55
789.99	230.54
790.32	230.50
790.64	230.50
790.96	230.64
791.28	230.54
791.61	230.51
791.93	230.50
792.25	230.45
792.57	230.55
792.89	230.50
793.21	230.49
793.54	230.44
793.86	230.40
794.18	230.38
794.50	230.32
794.82	230.32
795.14	230.32
795.47	230.34
795.79	230.32
796.11	230.26
796.43	230.23
796.75	230.21
797.07	230.20
797.39	230.16
797.71	229.99
798.04	229.99
798.36	229.98
798.68	229.96
799.00	229.96
799.32	229.86
799.64	229.87
799.96	229.84
800.28	229.86
800.60	229.85
800.92	229.84
801.24	229.82
801.56	229.80
801.89	229.76
802.21	229.74
802.53	229.69
802.85	229.71
803.17	229.77
803.49	229.71
803.81	229.67
804.13	229.65
804.45	229.60
804.77	229.59
805.09	229.57
805.41	229.53
805.73	229.49
806.05	229.43
806.37	229.40
806.69	229.37
807.01	229.34
807.33	229.34
807.65	229.25
807.97	229.31
808.28	229.26
808.60	229.24
808.92	229.21
809.24	229.32
809.56	229.28
809.88	229.18
810.20	229.18
810.52	229.21
810.84	229.16
811.16	229.15
811.48	229.13
811.80	229.16
812.12	229.15
812.43	229.17
812.75	229.17
813.07	229.14
813.39	229.14
813.71	229.08
814.03	229.05
814.35	229.06
814.67	228.98
814.98	228.96
815.30	228.95
815.62	228.90
815.94	228.76
816.26	228.77
816.58	228.74
816.89	228.74
817.21	228.68
817.53	228.70
817.85	228.69
818.17	228.67
818.48	228.60
818.80	228.62
819.12	228.57
819.44	228.54
819.76	228.50
820.07	228.48
820.39	228.47
820.71	228.47
821.03	228.45
821.34	228.44
821.66	228.46
821.98	228.46
822.30	228.47
822.61	228.56
822.93	228.52
823.25	228.51
823.57	228.49
823.88	228.50
824.20	228.48
824.52	228.50
824.83	228.49
825.15	228.47
825.47	228.45
825.79	228.46
826.10	228.43
826.42	228.42
826.74	228.42
827.05	228.42
827.37	228.42
827.69	228.40
828.00	228.39
828.32	228.37
828.64	228.35
828.95	228.43
829.27	228.37
829.58	228.36
829.90	228.38
830.22	228.39
830.53	228.37
830.85	228.34
831.17	228.29
831.48	228.27
831.80	228.27
832.11	228.24
832.43	228.21
832.75	228.21
833.06	228.32
833.38	228.26
833.69	228.25
834.01	228.25
834.32	228.25
834.64	228.22
834.96	228.21
835.27	228.21
835.59	228.13
835.90	228.09
836.22	228.08
836.53	228.04
836.85	228.00
837.16	228.16
837.48	228.17
837.79	228.21
838.11	228.22
838.42	228.22
838.74	228.24
839.05	228.23
839.37	228.22
839.68	228.11
840.00	228.10
840.31	228.11
840.63	228.09
840.94	228.08
841.26	228.07
841.57	228.06
841.88	228.07
842.20	228.04
842.51	228.01
842.83	228.01
843.14	228.18
843.46	228.17
843.77	228.06
844.08	228.05
844.40	228.00
844.71	227.99
845.03	227.96
845.34	227.95
845.65	227.94
845.97	227.94
846.28	227.96
846.60	227.97
846.91	227.95
847.22	227.92
847.54	227.95
847.85	227.96
848.16	227.94
848.48	227.91
848.79	227.98
849.10	228.01
849.42	228.00
849.73	227.83
850.04	227.83
850.36	227.77
850.67	227.79
850.98	227.80
851.30	227.80
851.61	227.79
851.92	227.78
852.23	227.82
852.55	227.84
852.86	227.83
853.17	227.84
853.49	227.86
853.80	227.91
854.11	227.92
854.42	227.94
854.74	227.92
855.05	227.93
855.36	227.84
855.67	227.83
855.99	227.83
856.30	228.03
856.61	228.03
856.92	228.04
857.23	228.04
857.55	228.01
857.86	227.99
858.17	228.01
858.48	227.98
858.79	227.94
859.11	227.94
859.42	227.93
859.73	227.90
860.04	227.88
860.35	227.83
860.66	227.78
860.98	227.76
861.29	227.78
861.60	227.76
861.91	227.81
862.22	227.77
862.53	227.74
862.84	227.52
863.16	227.56
863.47	227.53
863.78	227.51
864.09	227.52
864.40	227.54
864.71	227.54
865.02	227.56
865.33	227.54
865.64	227.51
865.95	227.50
866.27	227.61
866.58	227.59
866.89	227.61
867.20	227.61
867.51	227.58
867.82	227.56
868.13	227.62
868.44	227.57
868.75	227.62
869.06	227.64
869.37	227.66
869.68	227.61
869.99	227.64
870.30	227.65
870.61	227.66
870.92	227.64
871.23	227.62
871.54	227.64
871.85	227.68
872.16	227.70
872.47	227.69
872.78	227.59
873.09	227.62
873.40	227.60
873.71	227.62
874.02	227.64
874.33	227.62
874.64	227.58
874.95	227.61
875.26	227.57
875.56	227.55
875.87	227.53
876.18	227.53
876.49	227.71
876.80	227.69
877.11	227.65
877.42	227.66
877.73	227.66
878.04	227.64
878.35	227.64
878.66	227.63
878.96	227.62
879.27	227.61
879.58	227.58
879.89	227.58
880.20	227.62
880.51	227.60
880.82	227.61
881.12	227.61
881.43	227.58
881.74	227.56
882.05	227.55
882.36	227.57
882.67	227.58
882.97	227.38
883.28	227.37
883.59	227.36
883.90	227.37
884.21	227.39
884.51	227.38
884.82	227.36
885.13	227.36
885.44	227.37
885.74	227.37
886.05	227.36
886.36	227.37
886.67	227.29
886.98	227.39
887.28	227.39
887.59	227.39
887.90	227.39
888.20	227.38
888.51	227.42
888.82	227.39
889.13	227.41
889.43	227.56
889.74	227.56
890.05	227.55
890.35	227.54
890.66	227.50
890.97	227.48
891.28	227.47
891.58	227.47
891.89	227.46
892.20	227.44
892.50	227.42
892.81	227.41
893.12	227.42
893.42	227.33
893.73	227.35
894.04	227.35
894.34	227.36
894.65	227.36
894.95	227.34
895.26	227.36
895.57	227.42
895.87	227.25
896.18	227.28
896.48	227.29
896.79	227.29
897.10	227.32
897.40	227.34
897.71	227.36
898.01	227.34
898.32	227.35
898.63	227.36
898.93	227.37
899.24	227.37
899.54	227.36
899.85	227.34
900.15	227.33
900.46	227.32
900.76	227.35
901.07	227.35
901.38	227.35
901.68	227.37
901.99	227.29
902.29	227.30
902.60	227.28
902.90	227.26
903.21	227.25
903.51	227.24
903.82	227.27
904.12	227.27
904.43	227.30
904.73	227.30
905.03	227.31
905.34	227.48
905.64	227.47
905.95	227.48
906.25	227.49
906.56	227.48
906.86	227.48
907.17	227.45
907.47	227.47
907.77	227.44
908.08	227.39
908.38	227.40
908.69	227.42
908.99	227.45
909.30	227.46
909.60	227.48
909.90	227.47
910.21	227.41
910.51	227.38
910.81	227.37
911.12	227.37
911.42	227.37
911.73	227.18
912.03	227.20
912.33	227.23
912.64	227.21
912.94	227.20
913.24	227.17
913.55	227.16
913.85	227.14
914.15	227.18
914.46	227.20
914.76	227.18
915.06	227.17
915.37	227.13
915.67	227.13
915.97	227.13
916.27	227.11
916.58	227.13
916.88	227.13
917.18	227.11
917.49	227.23
917.79	227.22
918.09	227.24
918.39	227.29
918.70	227.27
919.00	227.28
919.30	227.37
919.60	227.36
919.91	227.33
920.21	227.35
920.51	227.31
920.81	227.30
921.12	227.33
921.42	227.31
921.72	227.33
922.02	227.34
922.32	227.35
922.63	227.37
922.93	227.46
923.23	227.48
923.53	227.48
923.83	227.36
924.13	227.37
924.44	227.38
924.74	227.40
925.04	227.44
925.34	227.44
925.64	227.35
925.94	227.35
926.24	227.45
926.55	227.44
926.85	227.47
927.15	227.47
927.45	227.46
927.75	227.47
928.05	227.48
928.35	227.46
928.65	227.49
928.95	227.50
929.26	227.41
929.56	227.44
929.86	227.47
930.16	227.46
930.46	227.45
930.76	227.45
931.06	227.37
931.36	227.32
931.66	227.36
931.96	227.40
932.26	227.40
932.56	227.34
932.86	227.35
933.16	227.35
933.46	227.33
933.76	227.31
934.06	227.33
934.36	227.39
934.66	227.38
934.96	227.36
935.26	227.36
935.56	227.39
935.86	227.33
936.16	227.30
936.46	227.28
936.76	227.28
937.06	227.26
937.36	227.27
937.66	227.28
937.96	227.27
938.26	227.23
938.56	227.22
938.86	227.23
939.16	227.26
939.46	227.28
939.76	227.29
940.06	227.30
940.35	227.27
940.65	227.18
940.95	227.20
941.25	227.16
941.55	227.15
941.85	227.13
942.15	227.18
942.45	227.22
942.75	227.22
943.04	227.23
943.34	227.27
943.64	227.24
943.94	227.20
944.24	227.20
944.54	227.23
944.84	227.24
945.13	227.20
945.43	227.17
945.73	227.17
946.03	227.15
946.33	227.13
946.62	227.11
946.92	227.12
947.22	227.13
947.52	227.14
947.82	227.17
948.11	227.16
948.41	227.12
948.71	227.07
949.01	227.07
949.31	227.05
949.60	227.02
949.90	227.05
950.20	227.06
950.50	227.05
950.79	227.03
951.09	227.06
951.39	227.06
951.69	227.03
951.98	227.06
952.28	227.07
952.58	227.08
952.87	227.08
953.17	227.10
953.47	227.08
953.76	227.08
954.06	227.04
954.36	227.01
954.66	227.01
954.95	227.07
955.25	227.08
955.55	227.11
955.84	227.09
956.14	227.09
956.44	227.09
956.73	227.06
957.03	227.08
957.32	227.07
957.62	227.06
957.92	227.11
958.21	227.08
958.51	227.28
958.81	227.29
959.10	227.31
959.40	227.34
959.69	227.35
959.99	227.37
960.29	227.38
960.58	227.37
960.88	227.43
961.17	227.41
961.47	227.42
961.76	227.40
962.06	227.45
962.36	227.43
962.65	227.45
962.95	227.46
963.24	227.44
963.54	227.43
963.83	227.45
964.13	227.44
964.42	227.42
964.72	227.27
965.01	227.28
965.31	227.27
965.60	227.23
965.90	227.35
966.19	227.31
966.49	227.31
966.78	227.30
967.08	227.29
967.37	227.28
967.67	227.25
967.96	227.27
968.26	227.26
968.55	227.28
968.85	227.27
969.14	227.26
969.43	227.27
969.73	227.26
970.02	227.25
970.32	227.23
970.61	227.21
970.91	227.15
971.20	227.13
971.49	227.12
971.79	227.14
972.08	226.99
972.38	227.01
972.67	227.00
972.96	227.04
973.26	227.01
973.55	227.05
973.85	227.05
974.14	227.03
974.43	227.04
974.73	227.01
975.02	227.00
975.31	227.00
975.61	227.00
975.90	226.99
976.19	226.97
976.49	226.99
976.78	227.00
977.07	226.99
977.37	227.00
977.66	227.01
977.95	226.99
978.24	227.02
978.54	227.05
978.83	227.04
979.12	227.02
979.42	227.02
979.71	226.98
980.00	226.98
980.29	227.00
980.59	226.96
980.88	227.00
981.17	227.00
981.46	226.99
981.76	226.99
982.05	227.04
982.34	227.06
982.63	227.05
982.93	227.05
983.22	227.10
983.51	227.11
983.80	227.14
984.09	227.16
984.39	227.14
984.68	227.12
984.97	227.14
985.26	227.12
985.55	227.15
985.85	227.11
986.14	227.14
986.43	227.16
986.72	227.15
987.01	227.10
987.30	227.10
987.59	227.09
987.89	227.10
988.18	227.05
988.47	227.03
988.76	227.02
989.05	227.01
989.34	226.99
989.63	227.01
989.92	226.98
990.22	226.96
990.51	226.96
990.80	226.94
991.09	226.95
991.38	226.99
991.67	226.96
991.96	226.94
992.25	226.95
992.54	226.91
992.83	226.91
993.12	226.91
993.41	226.94
993.70	227.01
993.99	227.04
994.28	227.06
994.58	227.09
994.87	227.07
995.16	227.06
995.45	227.04
995.74	226.99
996.03	227.02
996.32	227.04
996.61	227.07
996.90	227.06
997.19	227.04
997.48	227.04
997.77	227.03
998.06	227.05
998.34	227.04
998.63	227.04
998.92	227.05
999.21	227.07
999.50	227.06
999.79	227.00
1000.08	227.00
1000.37	227.00
1000.66	226.97
1000.95	227.02
1001.24	227.05
1001.53	227.07
1001.82	227.07
1002.11	227.02
1002.40	227.03
1002.68	227.08
1002.97	227.21
1003.26	227.19
1003.55	227.16
1003.84	227.18
1004.13	227.25
1004.42	227.24
1004.71	227.23
1004.99	227.22
1005.28	227.27
1005.57	227.26
1005.86	227.25
1006.15	227.24
1006.44	227.21
1006.72	227.24
1007.01	227.21
1007.30	227.22
1007.59	227.19
1007.88	227.20
1008.17	227.22
1008.45	227.18
1008.74	227.10
1009.03	227.02
1009.32	227.02
1009.60	227.02
1009.89	226.99
1010.18	226.90
1010.47	226.90
1010.76	226.89
1011.04	226.90
1011.33	226.90
1011.62	226.90
1011.91	226.93
1012.19	226.94
1012.48	226.95
1012.77	226.93
1013.05	226.99
1013.34	226.99
1013.63	226.98
1013.92	226.98
1014.20	226.97
1014.49	226.99
1014.78	227.01
1015.06	226.95
1015.35	226.96
1015.64	226.98
1015.92	227.01
1016.21	227.03
1016.50	227.03
1016.78	227.06
1017.07	227.06
1017.36	227.03
1017.64	227.00
1017.93	227.01
1018.22	226.98
1018.50	226.97
1018.79	226.98
1019.08	226.91
1019.36	226.92
1019.65	226.91
1019.93	226.96
1020.22	226.99
1020.51	227.07
1020.79	227.05
1021.08	226.58
1021.36	226.56
1021.65	227.08
1021.94	226.86
1022.22	227.04
1022.51	226.67
1022.79	227.91
1023.08	227.28
1023.36	229.12
1023.65	226.50
>>>>>End Processed Spectral Data<<<<<
