SpectraSuite Data File
++++++++++++++++++++++++++++++++++++
Date: Tue Oct 06 18:17:53 EDT 2015
User: lab3
Dark Spectrum Present: No
Reference Spectrum Present: No
Number of Sampled Component Spectra: 1
Spectrometers: USB2E7196
Integration Time (usec): 66000 (USB2E7196)
Spectra Averaged: 3000 (USB2E7196)
Boxcar Smoothing: 10 (USB2E7196)
Correct for Electrical Dark: No (USB2E7196)
Strobe/Lamp Enabled: No (USB2E7196)
Correct for Detector Non-linearity: No (USB2E7196)
Correct for Stray Light: No (USB2E7196)
Number of Pixels in Processed Spectrum: 2048
>>>>>Begin Processed Spectral Data<<<<<
339.09	0.00
339.48	215.86
339.86	217.37
340.24	218.69
340.63	220.10
341.01	224.05
341.39	222.83
341.78	224.32
342.16	225.64
342.54	225.79
342.93	214.28
343.31	225.10
343.69	225.64
344.07	226.10
344.46	226.54
344.84	226.95
345.22	227.15
345.60	227.42
345.99	227.63
346.37	227.77
346.75	227.89
347.13	227.97
347.52	228.06
347.90	228.19
348.28	228.23
348.66	228.31
349.05	228.31
349.43	228.37
349.81	228.44
350.19	228.51
350.57	228.59
350.96	228.69
351.34	228.80
351.72	228.89
352.10	229.01
352.48	229.08
352.87	229.13
353.25	229.20
353.63	229.26
354.01	229.31
354.39	229.39
354.77	229.47
355.15	229.58
355.54	229.62
355.92	229.63
356.30	229.70
356.68	229.89
357.06	229.97
357.44	230.01
357.82	230.07
358.20	230.29
358.58	230.35
358.97	230.42
359.35	230.52
359.73	230.61
360.11	230.67
360.49	230.73
360.87	230.78
361.25	230.85
361.63	230.95
362.01	231.01
362.39	231.04
362.77	231.09
363.15	231.10
363.53	231.15
363.91	231.19
364.29	231.21
364.67	231.07
365.05	231.09
365.43	231.13
365.81	231.18
366.19	231.13
366.57	231.21
366.95	231.20
367.33	231.16
367.71	231.15
368.09	231.18
368.47	231.18
368.85	231.17
369.23	231.19
369.61	231.12
369.99	231.16
370.37	231.17
370.75	231.29
371.13	231.25
371.51	231.21
371.89	231.20
372.27	231.18
372.65	231.16
373.03	231.12
373.41	231.08
373.78	231.02
374.16	230.90
374.54	230.80
374.92	230.75
375.30	230.71
375.68	230.64
376.06	230.60
376.44	230.53
376.82	230.50
377.19	230.46
377.57	230.41
377.95	230.30
378.33	230.24
378.71	230.03
379.09	229.99
379.47	229.97
379.84	229.91
380.22	229.84
380.60	229.77
380.98	229.72
381.36	229.67
381.73	229.61
382.11	229.59
382.49	229.56
382.87	229.50
383.25	229.46
383.62	229.62
384.00	229.55
384.38	229.52
384.76	229.52
385.13	229.53
385.51	229.50
385.89	229.45
386.27	229.43
386.64	229.43
387.02	229.38
387.40	229.34
387.78	229.32
388.15	229.30
388.53	229.27
388.91	229.24
389.29	229.21
389.66	229.22
390.04	229.18
390.42	229.19
390.79	229.19
391.17	229.18
391.55	228.97
391.92	228.97
392.30	228.98
392.68	228.93
393.05	228.91
393.43	228.91
393.81	228.94
394.18	228.91
394.56	228.92
394.94	228.97
395.31	228.98
395.69	229.05
396.06	229.10
396.44	229.15
396.82	229.17
397.19	229.30
397.57	229.32
397.95	229.39
398.32	229.38
398.70	229.44
399.07	229.54
399.45	229.60
399.82	229.66
400.20	229.72
400.58	229.81
400.95	229.83
401.33	229.97
401.70	230.18
402.08	230.33
402.45	230.45
402.83	230.62
403.20	230.79
403.58	230.92
403.95	231.12
404.33	231.34
404.71	231.55
405.08	231.85
405.46	232.09
405.83	232.36
406.21	232.65
406.58	232.97
406.96	233.28
407.33	233.65
407.70	234.06
408.08	234.62
408.45	235.11
408.83	235.64
409.20	236.13
409.58	236.57
409.95	237.18
410.33	237.84
410.70	238.47
411.08	239.21
411.45	239.99
411.82	240.79
412.20	241.69
412.57	242.77
412.95	243.64
413.32	244.75
413.69	245.90
414.07	247.12
414.44	248.46
414.82	249.82
415.19	251.42
415.56	253.04
415.94	254.73
416.31	256.63
416.68	258.54
417.06	260.75
417.43	262.81
417.81	265.18
418.18	267.61
418.55	270.24
418.93	273.00
419.30	275.87
419.67	278.92
420.04	282.06
420.42	285.34
420.79	289.11
421.16	292.94
421.54	296.80
421.91	300.84
422.28	305.05
422.66	309.56
423.03	313.86
423.40	318.37
423.77	323.20
424.15	328.14
424.52	333.25
424.89	338.78
425.26	344.26
425.64	349.36
426.01	355.07
426.38	360.90
426.75	366.91
427.13	373.05
427.50	379.48
427.87	386.15
428.24	392.87
428.61	399.30
428.99	406.24
429.36	413.84
429.73	421.12
430.10	428.37
430.47	435.78
430.85	443.45
431.22	451.61
431.59	459.98
431.96	468.14
432.33	477.23
432.70	485.87
433.08	496.09
433.45	505.74
433.82	515.25
434.19	525.91
434.56	536.41
434.93	546.60
435.30	556.69
435.68	568.16
436.05	579.34
436.42	590.55
436.79	600.79
437.16	611.92
437.53	623.80
437.90	635.70
438.27	647.39
438.64	660.01
439.01	671.48
439.38	681.99
439.75	692.17
440.13	703.76
440.50	714.78
440.87	723.60
441.24	733.31
441.61	743.95
441.98	751.84
442.35	761.20
442.72	770.73
443.09	779.81
443.46	785.74
443.83	790.29
444.20	794.05
444.57	799.48
444.94	802.74
445.31	806.12
445.68	809.05
446.05	811.26
446.42	811.06
446.79	810.61
447.16	810.32
447.53	810.07
447.90	806.78
448.27	803.63
448.64	798.60
449.01	795.17
449.37	787.90
449.74	781.32
450.11	772.76
450.48	763.32
450.85	753.88
451.22	745.75
451.59	737.73
451.96	730.51
452.33	719.98
452.70	710.64
453.07	699.26
453.43	687.92
453.80	676.84
454.17	666.24
454.54	656.45
454.91	645.35
455.28	634.87
455.65	624.99
456.02	614.53
456.38	606.11
456.75	595.33
457.12	586.64
457.49	577.86
457.86	569.53
458.23	562.20
458.59	554.13
458.96	545.86
459.33	538.59
459.70	531.17
460.07	525.52
460.43	518.84
460.80	512.60
461.17	507.18
461.54	501.31
461.91	495.79
462.27	490.20
462.64	485.61
463.01	480.37
463.38	475.08
463.74	470.32
464.11	466.08
464.48	462.24
464.85	458.12
465.21	454.95
465.58	451.44
465.95	447.48
466.32	444.30
466.68	441.20
467.05	438.07
467.42	435.03
467.78	431.76
468.15	428.77
468.52	426.58
468.88	423.66
469.25	421.00
469.62	418.90
469.98	416.62
470.35	414.57
470.72	412.73
471.08	410.88
471.45	409.30
471.82	407.56
472.18	405.73
472.55	404.53
472.92	403.06
473.28	401.92
473.65	400.68
474.02	399.50
474.38	398.49
474.75	397.90
475.11	397.09
475.48	396.70
475.85	396.27
476.21	396.03
476.58	395.85
476.94	396.02
477.31	396.06
477.67	396.13
478.04	396.43
478.41	396.84
478.77	397.44
479.14	397.81
479.50	398.56
479.87	399.53
480.23	400.48
480.60	401.39
480.96	402.30
481.33	403.69
481.69	405.06
482.06	406.42
482.42	407.66
482.79	409.22
483.15	411.04
483.52	413.09
483.88	415.03
484.25	417.10
484.61	419.27
484.98	421.61
485.34	424.25
485.71	427.01
486.07	429.96
486.44	432.85
486.80	436.12
487.17	439.47
487.53	443.10
487.90	446.90
488.26	451.06
488.62	455.42
488.99	459.76
489.35	464.33
489.72	469.23
490.08	474.42
490.44	479.69
490.81	485.19
491.17	490.86
491.54	496.93
491.90	503.14
492.26	509.78
492.63	516.73
492.99	523.99
493.36	531.39
493.72	539.17
494.08	547.17
494.45	555.53
494.81	564.30
495.17	573.32
495.54	582.81
495.90	592.71
496.26	602.80
496.63	613.19
496.99	623.97
497.35	635.24
497.72	646.76
498.08	658.64
498.44	670.82
498.80	683.65
499.17	696.79
499.53	710.35
499.89	724.34
500.26	738.53
500.62	753.06
500.98	768.41
501.34	783.77
501.71	799.94
502.07	816.38
502.43	833.28
502.79	850.38
503.16	867.97
503.52	885.74
503.88	903.94
504.24	922.57
504.60	941.44
504.97	960.96
505.33	980.90
505.69	1001.87
506.05	1023.05
506.41	1044.13
506.78	1065.37
507.14	1087.19
507.50	1109.43
507.86	1132.06
508.22	1154.94
508.59	1177.69
508.95	1201.53
509.31	1225.78
509.67	1250.63
510.03	1275.41
510.39	1300.11
510.75	1324.89
511.12	1350.11
511.48	1375.40
511.84	1400.77
512.20	1426.50
512.56	1453.19
512.92	1479.68
513.28	1505.58
513.64	1531.90
514.00	1558.55
514.37	1585.50
514.73	1612.47
515.09	1638.77
515.45	1665.40
515.81	1692.13
516.17	1718.65
516.53	1744.51
516.89	1770.27
517.25	1796.36
517.61	1822.18
517.97	1848.67
518.33	1874.58
518.69	1900.30
519.05	1926.56
519.41	1952.90
519.77	1979.16
520.13	2004.00
520.49	2028.97
520.85	2054.29
521.21	2078.99
521.57	2103.99
521.93	2128.03
522.29	2152.62
522.65	2177.16
523.01	2201.30
523.37	2224.74
523.73	2248.88
524.09	2272.84
524.45	2296.31
524.81	2319.17
525.17	2341.87
525.53	2363.87
525.89	2386.19
526.25	2408.18
526.61	2428.55
526.97	2449.00
527.33	2469.30
527.68	2489.26
528.04	2508.90
528.40	2527.20
528.76	2545.75
529.12	2563.98
529.48	2582.65
529.84	2598.59
530.20	2614.90
530.56	2630.43
530.91	2646.26
531.27	2661.55
531.63	2675.71
531.99	2689.89
532.35	2703.59
532.71	2716.89
533.07	2730.48
533.42	2742.21
533.78	2754.30
534.14	2767.22
534.50	2778.98
534.86	2791.19
535.21	2801.53
535.57	2811.67
535.93	2821.63
536.29	2829.72
536.65	2837.63
537.00	2844.15
537.36	2852.18
537.72	2859.18
538.08	2865.66
538.44	2871.05
538.79	2876.05
539.15	2879.72
539.51	2882.54
539.87	2884.29
540.22	2884.64
540.58	2885.18
540.94	2886.69
541.29	2886.73
541.65	2885.63
542.01	2884.09
542.37	2881.06
542.72	2879.38
543.08	2876.03
543.44	2873.05
543.79	2869.68
544.15	2865.58
544.51	2861.63
544.87	2856.58
545.22	2850.60
545.58	2844.60
545.94	2838.70
546.29	2831.24
546.65	2824.17
547.01	2817.17
547.36	2810.56
547.72	2804.07
548.07	2795.89
548.43	2786.61
548.79	2777.22
549.14	2768.12
549.50	2759.06
549.86	2749.05
550.21	2737.58
550.57	2727.18
550.92	2714.99
551.28	2703.38
551.64	2691.92
551.99	2680.13
552.35	2667.92
552.70	2655.63
553.06	2643.67
553.41	2631.25
553.77	2618.78
554.13	2606.28
554.48	2592.71
554.84	2578.52
555.19	2564.66
555.55	2550.70
555.90	2537.17
556.26	2523.83
556.61	2509.32
556.97	2493.95
557.32	2479.11
557.68	2464.55
558.03	2449.72
558.39	2435.80
558.74	2422.46
559.10	2407.23
559.45	2392.32
559.81	2378.09
560.16	2363.43
560.52	2348.65
560.87	2334.03
561.23	2319.00
561.58	2304.56
561.94	2289.60
562.29	2274.07
562.64	2258.75
563.00	2243.59
563.35	2228.46
563.71	2213.05
564.06	2197.78
564.42	2183.06
564.77	2168.31
565.12	2153.26
565.48	2138.00
565.83	2123.00
566.19	2107.90
566.54	2093.10
566.89	2077.77
567.25	2062.30
567.60	2047.71
567.96	2032.23
568.31	2015.72
568.66	2000.24
569.02	1985.19
569.37	1970.73
569.72	1956.89
570.08	1942.57
570.43	1927.62
570.78	1912.56
571.14	1897.30
571.49	1882.12
571.84	1867.16
572.20	1851.07
572.55	1835.85
572.90	1820.68
573.26	1805.43
573.61	1789.62
573.96	1774.37
574.31	1758.81
574.67	1743.19
575.02	1727.27
575.37	1711.45
575.72	1696.26
576.08	1680.74
576.43	1664.64
576.78	1648.67
577.13	1632.95
577.49	1617.49
577.84	1602.46
578.19	1586.96
578.54	1571.58
578.90	1556.09
579.25	1540.51
579.60	1526.04
579.95	1511.26
580.30	1496.42
580.66	1481.33
581.01	1466.25
581.36	1451.40
581.71	1437.39
582.06	1423.26
582.42	1409.01
582.77	1395.26
583.12	1381.72
583.47	1368.10
583.82	1354.62
584.17	1340.74
584.53	1326.92
584.88	1313.31
585.23	1299.61
585.58	1286.32
585.93	1272.95
586.28	1260.59
586.63	1247.99
586.98	1235.06
587.34	1222.47
587.69	1209.73
588.04	1197.37
588.39	1185.29
588.74	1172.72
589.09	1160.31
589.44	1147.69
589.79	1135.59
590.14	1123.56
590.49	1111.58
590.84	1099.85
591.19	1088.45
591.54	1077.13
591.89	1065.36
592.25	1054.04
592.60	1042.55
592.95	1031.24
593.30	1020.26
593.65	1008.99
594.00	997.99
594.35	987.89
594.70	977.11
595.05	966.95
595.40	956.56
595.75	946.04
596.10	936.19
596.45	926.33
596.80	916.77
597.15	907.26
597.50	897.71
597.85	888.34
598.19	879.03
598.54	869.74
598.89	861.00
599.24	852.66
599.59	844.12
599.94	836.21
600.29	828.26
600.64	820.17
600.99	811.95
601.34	804.00
601.69	795.58
602.04	788.01
602.39	780.32
602.74	772.83
603.08	765.50
603.43	758.13
603.78	750.70
604.13	743.40
604.48	736.17
604.83	729.14
605.18	722.21
605.53	715.41
605.87	708.55
606.22	701.80
606.57	694.97
606.92	688.06
607.27	681.17
607.62	674.53
607.96	668.13
608.31	662.19
608.66	656.21
609.01	650.44
609.36	644.66
609.70	638.80
610.05	633.00
610.40	627.37
610.75	621.70
611.10	616.27
611.44	610.86
611.79	605.50
612.14	600.08
612.49	594.78
612.83	589.73
613.18	584.72
613.53	579.72
613.88	574.89
614.22	570.40
614.57	565.82
614.92	561.33
615.27	556.96
615.61	552.45
615.96	547.99
616.31	543.56
616.65	539.27
617.00	535.11
617.35	530.98
617.70	526.88
618.04	522.91
618.39	519.04
618.74	515.38
619.08	511.72
619.43	508.17
619.78	504.54
620.12	500.93
620.47	497.56
620.82	494.23
621.16	490.90
621.51	487.63
621.85	484.39
622.20	481.20
622.55	477.97
622.89	474.80
623.24	471.82
623.59	468.89
623.93	466.03
624.28	463.33
624.62	460.80
624.97	458.27
625.32	455.67
625.66	453.02
626.01	450.37
626.35	447.86
626.70	445.27
627.04	442.91
627.39	440.49
627.73	438.13
628.08	435.85
628.43	433.58
628.77	431.23
629.12	429.03
629.46	426.92
629.81	424.94
630.15	422.89
630.50	420.86
630.84	418.87
631.19	416.91
631.53	415.04
631.88	413.01
632.22	411.09
632.57	409.43
632.91	407.73
633.26	406.10
633.60	404.47
633.95	402.94
634.29	401.28
634.64	399.69
634.98	397.97
635.32	396.45
635.67	395.04
636.01	393.64
636.36	392.27
636.70	390.99
637.05	389.56
637.39	388.28
637.73	387.00
638.08	385.77
638.42	384.59
638.77	383.28
639.11	381.93
639.45	380.62
639.80	379.26
640.14	377.99
640.49	376.72
640.83	375.45
641.17	374.22
641.52	373.03
641.86	371.86
642.20	370.85
642.55	369.64
642.89	368.46
643.23	367.37
643.58	366.38
643.92	365.23
644.26	364.19
644.61	363.17
644.95	362.11
645.29	360.97
645.64	359.83
645.98	358.81
646.32	357.90
646.66	356.93
647.01	356.00
647.35	355.16
647.69	354.27
648.04	353.45
648.38	352.59
648.72	351.76
649.06	350.92
649.41	350.04
649.75	349.21
650.09	348.44
650.43	347.61
650.78	346.77
651.12	345.97
651.46	345.16
651.80	344.39
652.14	343.68
652.49	343.01
652.83	342.28
653.17	341.52
653.51	340.79
653.85	340.16
654.20	339.48
654.54	338.71
654.88	337.98
655.22	337.30
655.56	336.58
655.90	335.91
656.25	335.25
656.59	334.61
656.93	334.02
657.27	333.45
657.61	332.81
657.95	332.24
658.29	331.63
658.64	331.05
658.98	330.40
659.32	329.78
659.66	329.19
660.00	328.64
660.34	328.09
660.68	327.48
661.02	326.82
661.36	326.22
661.70	325.65
662.05	325.10
662.39	324.55
662.73	324.10
663.07	323.66
663.41	323.19
663.75	322.66
664.09	322.13
664.43	321.51
664.77	320.99
665.11	320.40
665.45	319.88
665.79	319.38
666.13	318.86
666.47	318.33
666.81	317.76
667.15	317.18
667.49	316.71
667.83	316.30
668.17	315.87
668.51	315.45
668.85	315.04
669.19	314.68
669.53	314.14
669.87	313.59
670.21	313.05
670.55	312.54
670.89	312.15
671.23	311.72
671.57	311.35
671.91	311.00
672.25	310.67
672.58	310.34
672.92	309.91
673.26	309.58
673.60	309.22
673.94	308.86
674.28	308.53
674.62	308.16
674.96	307.72
675.30	307.33
675.64	306.90
675.97	306.45
676.31	305.98
676.65	305.58
676.99	305.27
677.33	304.84
677.67	304.46
678.01	303.98
678.34	303.57
678.68	303.19
679.02	302.75
679.36	302.31
679.70	301.86
680.04	301.49
680.37	301.09
680.71	300.72
681.05	300.37
681.39	299.97
681.73	299.52
682.06	299.12
682.40	298.74
682.74	298.39
683.08	298.10
683.42	297.74
683.75	297.40
684.09	296.94
684.43	296.56
684.77	296.14
685.10	295.77
685.44	295.39
685.78	294.98
686.12	294.59
686.45	294.19
686.79	293.76
687.13	293.36
687.46	292.91
687.80	292.51
688.14	292.03
688.48	291.62
688.81	291.22
689.15	290.88
689.49	290.45
689.82	290.02
690.16	289.50
690.50	289.05
690.83	288.63
691.17	288.18
691.51	287.77
691.84	287.40
692.18	286.97
692.52	286.51
692.85	286.08
693.19	285.71
693.52	285.29
693.86	284.87
694.20	284.44
694.53	284.02
694.87	283.57
695.21	283.14
695.54	282.71
695.88	282.28
696.21	281.78
696.55	281.35
696.88	280.93
697.22	280.52
697.56	280.15
697.89	279.69
698.23	279.30
698.56	278.87
698.90	278.47
699.23	278.03
699.57	277.66
699.90	277.25
700.24	276.81
700.58	276.42
700.91	276.07
701.25	275.84
701.58	275.54
701.92	275.21
702.25	274.84
702.59	274.46
702.92	274.07
703.26	273.68
703.59	273.30
703.93	273.06
704.26	272.69
704.60	272.29
704.93	271.91
705.26	271.52
705.60	271.19
705.93	270.77
706.27	270.47
706.60	270.13
706.94	269.83
707.27	269.43
707.61	269.07
707.94	268.66
708.27	268.13
708.61	267.69
708.94	267.29
709.28	266.93
709.61	266.56
709.94	266.24
710.28	265.92
710.61	265.60
710.95	265.11
711.28	264.88
711.61	264.54
711.95	264.24
712.28	263.90
712.61	263.53
712.95	263.30
713.28	263.03
713.61	262.66
713.95	262.29
714.28	261.97
714.61	261.63
714.95	261.32
715.28	261.00
715.61	260.71
715.95	260.42
716.28	260.11
716.61	259.84
716.95	259.52
717.28	259.23
717.61	258.93
717.94	258.65
718.28	258.24
718.61	257.95
718.94	257.64
719.27	257.37
719.61	257.12
719.94	256.81
720.27	256.46
720.60	256.20
720.94	255.93
721.27	255.67
721.60	255.45
721.93	255.17
722.27	254.96
722.60	254.71
722.93	254.44
723.26	254.20
723.59	253.92
723.93	253.70
724.26	253.46
724.59	253.22
724.92	253.00
725.25	252.82
725.59	252.60
725.92	252.39
726.25	252.16
726.58	251.93
726.91	251.68
727.24	251.47
727.57	251.23
727.91	250.99
728.24	250.79
728.57	250.56
728.90	250.36
729.23	250.09
729.56	249.96
729.89	249.75
730.22	249.53
730.55	249.32
730.89	249.11
731.22	248.90
731.55	248.70
731.88	248.51
732.21	248.28
732.54	248.08
732.87	247.89
733.20	247.71
733.53	247.53
733.86	247.37
734.19	247.16
734.52	247.01
734.85	246.97
735.18	246.77
735.51	246.65
735.84	246.48
736.17	246.37
736.50	246.10
736.83	246.14
737.16	245.98
737.49	245.82
737.82	245.64
738.15	245.50
738.48	245.33
738.81	245.15
739.14	244.97
739.47	244.79
739.80	244.62
740.13	244.47
740.46	244.28
740.79	244.09
741.12	243.94
741.45	243.75
741.78	243.48
742.11	243.37
742.44	243.16
742.77	243.02
743.10	242.83
743.43	242.68
743.75	242.34
744.08	242.46
744.41	242.30
744.74	242.15
745.07	241.96
745.40	241.86
745.73	241.80
746.06	241.66
746.39	241.56
746.71	241.41
747.04	241.26
747.37	241.12
747.70	241.02
748.03	240.88
748.36	240.79
748.68	240.66
749.01	240.49
749.34	240.38
749.67	240.25
750.00	240.16
750.33	240.17
750.65	240.06
750.98	239.69
751.31	239.58
751.64	239.48
751.97	239.47
752.29	239.33
752.62	239.13
752.95	239.01
753.28	238.86
753.60	238.73
753.93	238.67
754.26	238.58
754.59	238.41
754.91	238.28
755.24	238.14
755.57	238.04
755.90	237.94
756.22	237.81
756.55	237.67
756.88	237.53
757.20	237.31
757.53	237.15
757.86	237.05
758.19	236.95
758.51	236.86
758.84	236.67
759.17	236.56
759.49	236.47
759.82	236.46
760.15	236.38
760.47	236.29
760.80	236.15
761.13	236.09
761.45	236.00
761.78	235.92
762.11	235.84
762.43	235.73
762.76	235.64
763.08	235.58
763.41	235.51
763.74	235.44
764.06	235.36
764.39	235.29
764.71	235.20
765.04	235.10
765.37	235.01
765.69	234.94
766.02	234.86
766.34	234.78
766.67	234.64
767.00	234.60
767.32	234.63
767.65	234.67
767.97	234.58
768.30	234.52
768.62	234.46
768.95	234.37
769.27	234.30
769.60	234.26
769.92	234.17
770.25	234.07
770.57	233.98
770.90	233.92
771.22	233.85
771.55	233.79
771.87	233.75
772.20	233.69
772.52	233.78
772.85	233.93
773.17	233.88
773.50	233.81
773.82	233.73
774.15	233.58
774.47	233.42
774.80	233.35
775.12	233.29
775.45	233.24
775.77	233.20
776.09	233.17
776.42	233.12
776.74	233.13
777.07	233.08
777.39	233.04
777.72	232.98
778.04	232.96
778.36	232.89
778.69	232.85
779.01	232.82
779.33	232.63
779.66	232.38
779.98	232.33
780.31	232.29
780.63	232.33
780.95	232.33
781.28	232.28
781.60	232.23
781.92	232.20
782.25	232.15
782.57	232.11
782.89	232.07
783.22	232.02
783.54	231.94
783.86	231.92
784.19	231.88
784.51	231.90
784.83	231.85
785.16	231.81
785.48	231.78
785.80	231.75
786.12	231.73
786.45	231.70
786.77	231.68
787.09	231.63
787.42	231.54
787.74	231.51
788.06	231.49
788.38	231.46
788.71	231.41
789.03	231.40
789.35	231.38
789.67	231.33
789.99	231.32
790.32	231.27
790.64	231.27
790.96	231.40
791.28	231.32
791.61	231.28
791.93	231.26
792.25	231.22
792.57	231.32
792.89	231.27
793.21	231.26
793.54	231.21
793.86	231.17
794.18	231.15
794.50	231.09
794.82	231.06
795.14	231.06
795.47	231.07
795.79	231.05
796.11	230.99
796.43	230.96
796.75	230.93
797.07	230.92
797.39	230.88
797.71	230.71
798.04	230.69
798.36	230.69
798.68	230.66
799.00	230.65
799.32	230.54
799.64	230.55
799.96	230.53
800.28	230.53
800.60	230.51
800.92	230.51
801.24	230.48
801.56	230.48
801.89	230.44
802.21	230.43
802.53	230.37
802.85	230.39
803.17	230.46
803.49	230.41
803.81	230.38
804.13	230.35
804.45	230.31
804.77	230.31
805.09	230.29
805.41	230.26
805.73	230.22
806.05	230.15
806.37	230.12
806.69	230.08
807.01	230.06
807.33	230.06
807.65	229.97
807.97	230.03
808.28	229.99
808.60	229.97
808.92	229.92
809.24	230.01
809.56	229.97
809.88	229.88
810.20	229.87
810.52	229.89
810.84	229.85
811.16	229.82
811.48	229.79
811.80	229.84
812.12	229.82
812.43	229.84
812.75	229.85
813.07	229.82
813.39	229.81
813.71	229.77
814.03	229.74
814.35	229.74
814.67	229.65
814.98	229.62
815.30	229.61
815.62	229.58
815.94	229.45
816.26	229.46
816.58	229.42
816.89	229.42
817.21	229.37
817.53	229.37
817.85	229.37
818.17	229.36
818.48	229.27
818.80	229.29
819.12	229.25
819.44	229.20
819.76	229.17
820.07	229.16
820.39	229.14
820.71	229.15
821.03	229.14
821.34	229.12
821.66	229.13
821.98	229.14
822.30	229.12
822.61	229.23
822.93	229.19
823.25	229.18
823.57	229.16
823.88	229.17
824.20	229.15
824.52	229.17
824.83	229.16
825.15	229.13
825.47	229.10
825.79	229.11
826.10	229.11
826.42	229.09
826.74	229.09
827.05	229.09
827.37	229.08
827.69	229.07
828.00	229.07
828.32	229.06
828.64	229.03
828.95	229.12
829.27	229.06
829.58	229.05
829.90	229.07
830.22	229.07
830.53	229.04
830.85	229.02
831.17	228.97
831.48	228.96
831.80	228.96
832.11	228.94
832.43	228.91
832.75	228.90
833.06	229.00
833.38	228.95
833.69	228.93
834.01	228.93
834.32	228.92
834.64	228.90
834.96	228.90
835.27	228.90
835.59	228.83
835.90	228.79
836.22	228.78
836.53	228.74
836.85	228.72
837.16	228.90
837.48	228.90
837.79	228.95
838.11	228.95
838.42	228.94
838.74	228.97
839.05	228.95
839.37	228.94
839.68	228.83
840.00	228.82
840.31	228.85
840.63	228.83
840.94	228.81
841.26	228.79
841.57	228.78
841.88	228.80
842.20	228.77
842.51	228.74
842.83	228.73
843.14	228.89
843.46	228.89
843.77	228.78
844.08	228.76
844.40	228.71
844.71	228.69
845.03	228.67
845.34	228.65
845.65	228.64
845.97	228.64
846.28	228.65
846.60	228.66
846.91	228.62
847.22	228.62
847.54	228.64
847.85	228.65
848.16	228.63
848.48	228.59
848.79	228.65
849.10	228.67
849.42	228.68
849.73	228.51
850.04	228.51
850.36	228.44
850.67	228.47
850.98	228.46
851.30	228.48
851.61	228.46
851.92	228.46
852.23	228.51
852.55	228.52
852.86	228.52
853.17	228.53
853.49	228.57
853.80	228.60
854.11	228.60
854.42	228.63
854.74	228.61
855.05	228.62
855.36	228.52
855.67	228.52
855.99	228.51
856.30	228.72
856.61	228.71
856.92	228.72
857.23	228.73
857.55	228.71
857.86	228.69
858.17	228.72
858.48	228.69
858.79	228.65
859.11	228.65
859.42	228.64
859.73	228.61
860.04	228.59
860.35	228.54
860.66	228.48
860.98	228.46
861.29	228.49
861.60	228.47
861.91	228.51
862.22	228.48
862.53	228.45
862.84	228.24
863.16	228.27
863.47	228.24
863.78	228.21
864.09	228.22
864.40	228.23
864.71	228.22
865.02	228.24
865.33	228.22
865.64	228.19
865.95	228.19
866.27	228.30
866.58	228.29
866.89	228.31
867.20	228.31
867.51	228.28
867.82	228.27
868.13	228.33
868.44	228.29
868.75	228.32
869.06	228.33
869.37	228.36
869.68	228.31
869.99	228.34
870.30	228.35
870.61	228.36
870.92	228.35
871.23	228.33
871.54	228.35
871.85	228.40
872.16	228.42
872.47	228.41
872.78	228.31
873.09	228.32
873.40	228.31
873.71	228.31
874.02	228.33
874.33	228.31
874.64	228.28
874.95	228.31
875.26	228.27
875.56	228.26
875.87	228.24
876.18	228.24
876.49	228.41
876.80	228.39
877.11	228.36
877.42	228.37
877.73	228.38
878.04	228.34
878.35	228.33
878.66	228.33
878.96	228.31
879.27	228.31
879.58	228.29
879.89	228.29
880.20	228.34
880.51	228.33
880.82	228.32
881.12	228.33
881.43	228.29
881.74	228.27
882.05	228.26
882.36	228.26
882.67	228.28
882.97	228.09
883.28	228.08
883.59	228.08
883.90	228.09
884.21	228.10
884.51	228.09
884.82	228.07
885.13	228.07
885.44	228.07
885.74	228.08
886.05	228.07
886.36	228.07
886.67	228.00
886.98	228.09
887.28	228.11
887.59	228.11
887.90	228.12
888.20	228.11
888.51	228.15
888.82	228.12
889.13	228.12
889.43	228.28
889.74	228.26
890.05	228.25
890.35	228.23
890.66	228.20
890.97	228.19
891.28	228.17
891.58	228.17
891.89	228.17
892.20	228.15
892.50	228.13
892.81	228.12
893.12	228.12
893.42	228.02
893.73	228.03
894.04	228.03
894.34	228.04
894.65	228.04
894.95	228.02
895.26	228.03
895.57	228.10
895.87	227.92
896.18	227.95
896.48	227.96
896.79	227.96
897.10	227.99
897.40	227.99
897.71	228.01
898.01	227.99
898.32	228.01
898.63	228.01
898.93	228.02
899.24	228.02
899.54	228.02
899.85	228.02
900.15	228.00
900.46	228.00
900.76	228.02
901.07	228.01
901.38	228.00
901.68	228.03
901.99	227.94
902.29	227.95
902.60	227.93
902.90	227.92
903.21	227.92
903.51	227.90
903.82	227.94
904.12	227.94
904.43	227.95
904.73	227.94
905.03	227.95
905.34	228.11
905.64	228.10
905.95	228.10
906.25	228.10
906.56	228.10
906.86	228.09
907.17	228.07
907.47	228.08
907.77	228.06
908.08	228.03
908.38	228.04
908.69	228.06
908.99	228.09
909.30	228.10
909.60	228.10
909.90	228.09
910.21	228.04
910.51	228.01
910.81	228.01
911.12	228.03
911.42	228.03
911.73	227.84
912.03	227.85
912.33	227.89
912.64	227.87
912.94	227.85
913.24	227.82
913.55	227.81
913.85	227.81
914.15	227.85
914.46	227.87
914.76	227.85
915.06	227.84
915.37	227.80
915.67	227.79
915.97	227.79
916.27	227.77
916.58	227.78
916.88	227.78
917.18	227.76
917.49	227.88
917.79	227.86
918.09	227.89
918.39	227.93
918.70	227.92
919.00	227.93
919.30	228.02
919.60	228.01
919.91	228.00
920.21	228.00
920.51	227.96
920.81	227.95
921.12	227.97
921.42	227.96
921.72	227.98
922.02	227.99
922.32	228.02
922.63	228.03
922.93	228.12
923.23	228.13
923.53	228.12
923.83	228.00
924.13	228.02
924.44	228.01
924.74	228.04
925.04	228.08
925.34	228.08
925.64	227.99
925.94	227.99
926.24	228.09
926.55	228.08
926.85	228.11
927.15	228.11
927.45	228.11
927.75	228.11
928.05	228.11
928.35	228.10
928.65	228.12
928.95	228.14
929.26	228.05
929.56	228.08
929.86	228.11
930.16	228.10
930.46	228.08
930.76	228.09
931.06	228.00
931.36	227.96
931.66	227.99
931.96	228.01
932.26	228.02
932.56	227.95
932.86	227.96
933.16	227.96
933.46	227.94
933.76	227.91
934.06	227.94
934.36	228.00
934.66	227.98
934.96	227.96
935.26	227.95
935.56	227.98
935.86	227.94
936.16	227.92
936.46	227.90
936.76	227.90
937.06	227.87
937.36	227.89
937.66	227.89
937.96	227.87
938.26	227.84
938.56	227.83
938.86	227.84
939.16	227.87
939.46	227.88
939.76	227.90
940.06	227.91
940.35	227.88
940.65	227.79
940.95	227.81
941.25	227.77
941.55	227.75
941.85	227.73
942.15	227.76
942.45	227.81
942.75	227.81
943.04	227.81
943.34	227.85
943.64	227.83
943.94	227.81
944.24	227.82
944.54	227.84
944.84	227.83
945.13	227.80
945.43	227.77
945.73	227.76
946.03	227.74
946.33	227.72
946.62	227.70
946.92	227.70
947.22	227.72
947.52	227.73
947.82	227.76
948.11	227.74
948.41	227.70
948.71	227.65
949.01	227.66
949.31	227.65
949.60	227.64
949.90	227.66
950.20	227.66
950.50	227.64
950.79	227.63
951.09	227.65
951.39	227.65
951.69	227.63
951.98	227.68
952.28	227.68
952.58	227.69
952.87	227.68
953.17	227.71
953.47	227.69
953.76	227.69
954.06	227.65
954.36	227.63
954.66	227.63
954.95	227.68
955.25	227.70
955.55	227.72
955.84	227.68
956.14	227.70
956.44	227.71
956.73	227.69
957.03	227.70
957.32	227.69
957.62	227.69
957.92	227.72
958.21	227.70
958.51	227.89
958.81	227.92
959.10	227.95
959.40	227.98
959.69	227.99
959.99	228.02
960.29	228.03
960.58	228.03
960.88	228.09
961.17	228.07
961.47	228.08
961.76	228.06
962.06	228.10
962.36	228.08
962.65	228.09
962.95	228.10
963.24	228.09
963.54	228.10
963.83	228.11
964.13	228.10
964.42	228.08
964.72	227.94
965.01	227.93
965.31	227.91
965.60	227.87
965.90	227.98
966.19	227.94
966.49	227.95
966.78	227.94
967.08	227.92
967.37	227.92
967.67	227.89
967.96	227.92
968.26	227.90
968.55	227.93
968.85	227.92
969.14	227.92
969.43	227.92
969.73	227.91
970.02	227.89
970.32	227.89
970.61	227.87
970.91	227.81
971.20	227.79
971.49	227.78
971.79	227.79
972.08	227.66
972.38	227.68
972.67	227.66
972.96	227.69
973.26	227.66
973.55	227.72
973.85	227.71
974.14	227.69
974.43	227.70
974.73	227.66
975.02	227.65
975.31	227.64
975.61	227.64
975.90	227.63
976.19	227.61
976.49	227.62
976.78	227.64
977.07	227.64
977.37	227.65
977.66	227.67
977.95	227.65
978.24	227.66
978.54	227.70
978.83	227.68
979.12	227.67
979.42	227.66
979.71	227.62
980.00	227.62
980.29	227.62
980.59	227.59
980.88	227.64
981.17	227.64
981.46	227.64
981.76	227.64
982.05	227.69
982.34	227.71
982.63	227.71
982.93	227.70
983.22	227.75
983.51	227.75
983.80	227.78
984.09	227.80
984.39	227.79
984.68	227.76
984.97	227.78
985.26	227.76
985.55	227.78
985.85	227.75
986.14	227.77
986.43	227.78
986.72	227.78
987.01	227.72
987.30	227.72
987.59	227.70
987.89	227.71
988.18	227.66
988.47	227.65
988.76	227.63
989.05	227.61
989.34	227.58
989.63	227.62
989.92	227.60
990.22	227.57
990.51	227.57
990.80	227.56
991.09	227.58
991.38	227.61
991.67	227.60
991.96	227.59
992.25	227.59
992.54	227.55
992.83	227.56
993.12	227.57
993.41	227.60
993.70	227.67
993.99	227.70
994.28	227.73
994.58	227.75
994.87	227.74
995.16	227.74
995.45	227.73
995.74	227.67
996.03	227.70
996.32	227.72
996.61	227.75
996.90	227.75
997.19	227.74
997.48	227.74
997.77	227.72
998.06	227.74
998.34	227.72
998.63	227.73
998.92	227.74
999.21	227.77
999.50	227.76
999.79	227.70
1000.08	227.69
1000.37	227.69
1000.66	227.66
1000.95	227.72
1001.24	227.73
1001.53	227.74
1001.82	227.74
1002.11	227.70
1002.40	227.71
1002.68	227.75
1002.97	227.87
1003.26	227.85
1003.55	227.82
1003.84	227.84
1004.13	227.89
1004.42	227.88
1004.71	227.88
1004.99	227.87
1005.28	227.91
1005.57	227.90
1005.86	227.89
1006.15	227.87
1006.44	227.84
1006.72	227.87
1007.01	227.83
1007.30	227.83
1007.59	227.82
1007.88	227.82
1008.17	227.83
1008.45	227.79
1008.74	227.72
1009.03	227.63
1009.32	227.64
1009.60	227.64
1009.89	227.62
1010.18	227.55
1010.47	227.55
1010.76	227.54
1011.04	227.53
1011.33	227.52
1011.62	227.53
1011.91	227.55
1012.19	227.55
1012.48	227.56
1012.77	227.55
1013.05	227.62
1013.34	227.62
1013.63	227.61
1013.92	227.61
1014.20	227.60
1014.49	227.62
1014.78	227.64
1015.06	227.58
1015.35	227.58
1015.64	227.62
1015.92	227.64
1016.21	227.66
1016.50	227.66
1016.78	227.69
1017.07	227.70
1017.36	227.67
1017.64	227.64
1017.93	227.66
1018.22	227.64
1018.50	227.64
1018.79	227.64
1019.08	227.58
1019.36	227.58
1019.65	227.57
1019.93	227.62
1020.22	227.65
1020.51	227.74
1020.79	227.71
1021.08	227.35
1021.36	227.40
1021.65	227.64
1021.94	227.58
1022.22	227.62
1022.51	227.29
1022.79	228.50
1023.08	227.98
1023.36	229.70
1023.65	227.13
>>>>>End Processed Spectral Data<<<<<
