SpectraSuite Data File
++++++++++++++++++++++++++++++++++++
Date: Tue Oct 06 16:36:30 EDT 2015
User: lab3
Dark Spectrum Present: No
Reference Spectrum Present: No
Number of Sampled Component Spectra: 1
Spectrometers: USB2E7196
Integration Time (usec): 66000 (USB2E7196)
Spectra Averaged: 1000 (USB2E7196)
Boxcar Smoothing: 10 (USB2E7196)
Correct for Electrical Dark: No (USB2E7196)
Strobe/Lamp Enabled: No (USB2E7196)
Correct for Detector Non-linearity: No (USB2E7196)
Correct for Stray Light: No (USB2E7196)
Number of Pixels in Processed Spectrum: 2048
>>>>>Begin Processed Spectral Data<<<<<
339.09	0.00
339.48	215.29
339.86	216.71
340.24	218.12
340.63	219.54
341.01	223.55
341.39	222.43
341.78	223.81
342.16	225.14
342.54	225.35
342.93	213.77
343.31	224.56
343.69	225.10
344.07	225.55
344.46	226.00
344.84	226.40
345.22	226.60
345.60	226.87
345.99	227.07
346.37	227.21
346.75	227.32
347.13	227.41
347.52	227.50
347.90	227.62
348.28	227.67
348.66	227.76
349.05	227.75
349.43	227.82
349.81	227.89
350.19	227.96
350.57	228.04
350.96	228.14
351.34	228.25
351.72	228.35
352.10	228.49
352.48	228.56
352.87	228.61
353.25	228.68
353.63	228.73
354.01	228.78
354.39	228.86
354.77	228.94
355.15	229.07
355.54	229.11
355.92	229.11
356.30	229.19
356.68	229.37
357.06	229.46
357.44	229.49
357.82	229.54
358.20	229.77
358.58	229.83
358.97	229.89
359.35	229.98
359.73	230.09
360.11	230.12
360.49	230.19
360.87	230.24
361.25	230.31
361.63	230.42
362.01	230.48
362.39	230.50
362.77	230.55
363.15	230.57
363.53	230.60
363.91	230.65
364.29	230.67
364.67	230.53
365.05	230.55
365.43	230.60
365.81	230.65
366.19	230.60
366.57	230.69
366.95	230.69
367.33	230.66
367.71	230.64
368.09	230.68
368.47	230.68
368.85	230.69
369.23	230.71
369.61	230.63
369.99	230.66
370.37	230.67
370.75	230.79
371.13	230.75
371.51	230.71
371.89	230.70
372.27	230.69
372.65	230.68
373.03	230.64
373.41	230.60
373.78	230.54
374.16	230.40
374.54	230.30
374.92	230.25
375.30	230.21
375.68	230.14
376.06	230.09
376.44	230.02
376.82	229.98
377.19	229.93
377.57	229.89
377.95	229.78
378.33	229.71
378.71	229.51
379.09	229.48
379.47	229.45
379.84	229.38
380.22	229.32
380.60	229.23
380.98	229.18
381.36	229.13
381.73	229.06
382.11	229.06
382.49	229.03
382.87	228.97
383.25	228.91
383.62	229.08
384.00	229.01
384.38	228.98
384.76	228.99
385.13	229.00
385.51	228.97
385.89	228.92
386.27	228.90
386.64	228.90
387.02	228.86
387.40	228.81
387.78	228.81
388.15	228.79
388.53	228.76
388.91	228.74
389.29	228.70
389.66	228.71
390.04	228.66
390.42	228.67
390.79	228.66
391.17	228.65
391.55	228.43
391.92	228.43
392.30	228.44
392.68	228.38
393.05	228.37
393.43	228.38
393.81	228.39
394.18	228.37
394.56	228.38
394.94	228.42
395.31	228.42
395.69	228.48
396.06	228.53
396.44	228.57
396.82	228.60
397.19	228.72
397.57	228.75
397.95	228.83
398.32	228.82
398.70	228.89
399.07	229.00
399.45	229.06
399.82	229.13
400.20	229.18
400.58	229.28
400.95	229.32
401.33	229.44
401.70	229.69
402.08	229.83
402.45	229.95
402.83	230.13
403.20	230.30
403.58	230.43
403.95	230.64
404.33	230.86
404.71	231.08
405.08	231.40
405.46	231.64
405.83	231.91
406.21	232.21
406.58	232.54
406.96	232.87
407.33	233.25
407.70	233.68
408.08	234.26
408.45	234.76
408.83	235.29
409.20	235.78
409.58	236.23
409.95	236.85
410.33	237.55
410.70	238.19
411.08	238.96
411.45	239.76
411.82	240.58
412.20	241.51
412.57	242.62
412.95	243.50
413.32	244.65
413.69	245.83
414.07	247.08
414.44	248.45
414.82	249.85
415.19	251.51
415.56	253.17
415.94	254.91
416.31	256.87
416.68	258.83
417.06	261.11
417.43	263.24
417.81	265.68
418.18	268.16
418.55	270.88
418.93	273.72
419.30	276.69
419.67	279.84
420.04	283.07
420.42	286.43
420.79	290.31
421.16	294.25
421.54	298.21
421.91	302.37
422.28	306.70
422.66	311.34
423.03	315.76
423.40	320.40
423.77	325.36
424.15	330.44
424.52	335.70
424.89	341.41
425.26	347.08
425.64	352.33
426.01	358.23
426.38	364.25
426.75	370.45
427.13	376.78
427.50	383.40
427.87	390.27
428.24	397.20
428.61	403.86
428.99	411.01
429.36	418.88
429.73	426.39
430.10	433.87
430.47	441.51
430.85	449.43
431.22	457.84
431.59	466.49
431.96	474.92
432.33	484.30
432.70	493.20
433.08	503.73
433.45	513.67
433.82	523.48
434.19	534.48
434.56	545.31
434.93	555.81
435.30	566.24
435.68	578.09
436.05	589.65
436.42	601.19
436.79	611.75
437.16	623.24
437.53	635.50
437.90	647.78
438.27	659.86
438.64	672.91
439.01	684.75
439.38	695.62
439.75	706.14
440.13	718.14
440.50	729.52
440.87	738.65
441.24	748.70
441.61	759.72
441.98	767.86
442.35	777.55
442.72	787.44
443.09	796.83
443.46	802.97
443.83	807.68
444.20	811.61
444.57	817.29
444.94	820.70
445.31	824.22
445.68	827.28
446.05	829.61
446.42	829.41
446.79	829.01
447.16	828.73
447.53	828.51
447.90	825.15
448.27	821.95
448.64	816.77
449.01	813.26
449.37	805.79
449.74	799.03
450.11	790.22
450.48	780.54
450.85	770.84
451.22	762.50
451.59	754.27
451.96	746.87
452.33	736.03
452.70	726.41
453.07	714.75
453.43	703.08
453.80	691.69
454.17	680.79
454.54	670.71
454.91	659.28
455.28	648.50
455.65	638.31
456.02	627.54
456.38	618.89
456.75	607.79
457.12	598.82
457.49	589.77
457.86	581.22
458.23	573.63
458.59	565.29
458.96	556.75
459.33	549.24
459.70	541.55
460.07	535.73
460.43	528.83
460.80	522.36
461.17	516.74
461.54	510.70
461.91	505.01
462.27	499.25
462.64	494.53
463.01	489.13
463.38	483.66
463.74	478.73
464.11	474.36
464.48	470.42
464.85	466.18
465.21	462.92
465.58	459.28
465.95	455.19
466.32	451.94
466.68	448.73
467.05	445.49
467.42	442.37
467.78	439.00
468.15	435.92
468.52	433.64
468.88	430.62
469.25	427.86
469.62	425.68
469.98	423.29
470.35	421.17
470.72	419.25
471.08	417.34
471.45	415.73
471.82	413.92
472.18	412.00
472.55	410.75
472.92	409.21
473.28	408.02
473.65	406.71
474.02	405.45
474.38	404.41
474.75	403.80
475.11	402.94
475.48	402.55
475.85	402.10
476.21	401.83
476.58	401.65
476.94	401.82
477.31	401.84
477.67	401.93
478.04	402.24
478.41	402.69
478.77	403.29
479.14	403.69
479.50	404.48
479.87	405.50
480.23	406.49
480.60	407.43
480.96	408.36
481.33	409.82
481.69	411.25
482.06	412.66
482.42	413.95
482.79	415.55
483.15	417.43
483.52	419.56
483.88	421.59
484.25	423.74
484.61	425.98
484.98	428.42
485.34	431.15
485.71	433.99
486.07	437.03
486.44	440.03
486.80	443.41
487.17	446.87
487.53	450.59
487.90	454.52
488.26	458.82
488.62	463.34
488.99	467.83
489.35	472.55
489.72	477.63
490.08	482.99
490.44	488.45
490.81	494.13
491.17	499.97
491.54	506.25
491.90	512.65
492.26	519.50
492.63	526.68
492.99	534.16
493.36	541.78
493.72	549.81
494.08	558.04
494.45	566.64
494.81	575.63
495.17	584.92
495.54	594.67
495.90	604.83
496.26	615.18
496.63	625.84
496.99	636.90
497.35	648.45
497.72	660.26
498.08	672.43
498.44	684.92
498.80	698.10
499.17	711.54
499.53	725.44
499.89	739.77
500.26	754.28
500.62	769.17
500.98	784.89
501.34	800.61
501.71	817.18
502.07	833.99
502.43	851.24
502.79	868.66
503.16	886.62
503.52	904.81
503.88	923.39
504.24	942.39
504.60	961.62
504.97	981.47
505.33	1001.74
505.69	1023.08
506.05	1044.58
506.41	1065.97
506.78	1087.51
507.14	1109.64
507.50	1132.21
507.86	1155.16
508.22	1178.26
508.59	1201.22
508.95	1225.27
509.31	1249.70
509.67	1274.77
510.03	1299.74
510.39	1324.65
510.75	1349.60
511.12	1374.90
511.48	1400.34
511.84	1425.75
512.20	1451.49
512.56	1478.24
512.92	1504.86
513.28	1530.76
513.64	1557.07
514.00	1583.70
514.37	1610.60
514.73	1637.47
515.09	1663.66
515.45	1690.16
515.81	1716.80
516.17	1743.16
516.53	1768.83
516.89	1794.34
517.25	1820.14
517.61	1845.75
517.97	1871.94
518.33	1897.45
518.69	1922.82
519.05	1948.58
519.41	1974.53
519.77	2000.46
520.13	2024.83
520.49	2049.30
520.85	2074.09
521.21	2098.30
521.57	2122.77
521.93	2146.20
522.29	2170.25
522.65	2194.09
523.01	2217.64
523.37	2240.49
523.73	2264.03
524.09	2287.26
524.45	2310.10
524.81	2332.27
525.17	2354.23
525.53	2375.44
525.89	2397.09
526.25	2418.38
526.61	2438.00
526.97	2457.67
527.33	2477.17
527.68	2496.30
528.04	2515.03
528.40	2532.53
528.76	2550.22
529.12	2567.48
529.48	2585.29
529.84	2600.37
530.20	2615.88
530.56	2630.49
530.91	2645.38
531.27	2659.57
531.63	2672.85
531.99	2685.93
532.35	2698.64
532.71	2710.94
533.07	2723.50
533.42	2734.18
533.78	2745.08
534.14	2756.96
534.50	2767.59
534.86	2778.71
535.21	2787.89
535.57	2796.86
535.93	2805.74
536.29	2812.88
536.65	2819.79
537.00	2825.22
537.36	2832.04
537.72	2837.80
538.08	2843.10
538.44	2847.18
538.79	2851.13
539.15	2853.71
539.51	2855.58
539.87	2856.32
540.22	2855.46
540.58	2854.97
540.94	2855.24
541.29	2854.32
541.65	2852.13
542.01	2849.62
542.37	2845.52
542.72	2843.00
543.08	2838.79
543.44	2834.71
543.79	2830.17
544.15	2824.96
544.51	2820.03
544.87	2814.02
545.22	2807.06
545.58	2799.99
545.94	2793.16
546.29	2784.84
546.65	2776.83
547.01	2768.86
547.36	2761.36
547.72	2754.02
548.07	2744.97
548.43	2734.85
548.79	2724.49
549.14	2714.42
549.50	2704.50
549.86	2693.66
550.21	2681.24
550.57	2669.91
550.92	2656.95
551.28	2644.51
551.64	2632.36
551.99	2619.86
552.35	2607.00
552.70	2594.09
553.06	2581.59
553.41	2568.63
553.77	2555.48
554.13	2542.35
554.48	2528.15
554.84	2513.18
555.19	2498.85
555.55	2484.33
555.90	2470.28
556.26	2456.58
556.61	2441.78
556.97	2425.95
557.32	2410.60
557.68	2395.57
558.03	2380.33
558.39	2365.93
558.74	2352.15
559.10	2336.55
559.45	2321.17
559.81	2306.50
560.16	2291.55
560.52	2276.41
560.87	2261.42
561.23	2246.04
561.58	2231.28
561.94	2216.10
562.29	2200.41
562.64	2184.85
563.00	2169.48
563.35	2154.33
563.71	2138.77
564.06	2123.37
564.42	2108.54
564.77	2093.69
565.12	2078.65
565.48	2063.42
565.83	2048.43
566.19	2033.35
566.54	2018.60
566.89	2003.29
567.25	1987.84
567.60	1973.17
567.96	1957.79
568.31	1941.29
568.66	1925.77
569.02	1910.70
569.37	1896.21
569.72	1882.39
570.08	1868.05
570.43	1853.16
570.78	1838.09
571.14	1822.88
571.49	1807.74
571.84	1792.94
572.20	1777.07
572.55	1761.95
572.90	1746.85
573.26	1731.72
573.61	1716.00
573.96	1700.76
574.31	1685.48
574.67	1670.09
575.02	1654.43
575.37	1638.78
575.72	1623.87
576.08	1608.74
576.43	1592.97
576.78	1577.39
577.13	1561.97
577.49	1546.85
577.84	1532.16
578.19	1517.01
578.54	1501.95
578.90	1486.83
579.25	1471.55
579.60	1457.48
579.95	1443.09
580.30	1428.71
580.66	1414.07
581.01	1399.53
581.36	1385.15
581.71	1371.50
582.06	1357.76
582.42	1343.91
582.77	1330.59
583.12	1317.43
583.47	1304.23
583.82	1291.27
584.17	1277.88
584.53	1264.58
584.88	1251.53
585.23	1238.37
585.58	1225.59
585.93	1212.74
586.28	1200.84
586.63	1188.78
586.98	1176.33
587.34	1164.27
587.69	1152.01
588.04	1140.15
588.39	1128.60
588.74	1116.62
589.09	1104.78
589.44	1092.70
589.79	1081.18
590.14	1069.69
590.49	1058.30
590.84	1047.13
591.19	1036.18
591.54	1025.33
591.89	1014.14
592.25	1003.35
592.60	992.43
592.95	981.69
593.30	971.26
593.65	960.55
594.00	950.14
594.35	940.59
594.70	930.38
595.05	920.77
595.40	910.98
595.75	900.99
596.10	891.63
596.45	882.26
596.80	873.23
597.15	864.20
597.50	855.19
597.85	846.40
598.19	837.62
598.54	828.83
598.89	820.57
599.24	812.67
599.59	804.55
599.94	797.04
600.29	789.49
600.64	781.87
600.99	774.13
601.34	766.62
601.69	758.60
602.04	751.44
602.39	744.19
602.74	737.11
603.08	730.19
603.43	723.27
603.78	716.34
604.13	709.49
604.48	702.70
604.83	696.09
605.18	689.58
605.53	683.20
605.87	676.82
606.22	670.51
606.57	664.14
606.92	657.71
607.27	651.32
607.62	645.13
607.96	639.16
608.31	633.61
608.66	627.99
609.01	622.60
609.36	617.18
609.70	611.73
610.05	606.31
610.40	601.04
610.75	595.79
611.10	590.73
611.44	585.67
611.79	580.74
612.14	575.71
612.49	570.78
612.83	566.09
613.18	561.45
613.53	556.84
613.88	552.33
614.22	548.14
614.57	543.86
614.92	539.69
615.27	535.65
615.61	531.52
615.96	527.44
616.31	523.37
616.65	519.44
617.00	515.61
617.35	511.82
617.70	508.07
618.04	504.39
618.39	500.82
618.74	497.49
619.08	494.11
619.43	490.86
619.78	487.53
620.12	484.22
620.47	481.10
620.82	478.02
621.16	474.98
621.51	472.01
621.85	469.06
622.20	466.14
622.55	463.20
622.89	460.31
623.24	457.59
623.59	454.92
623.93	452.32
624.28	449.86
624.62	447.59
624.97	445.33
625.32	442.97
625.66	440.58
626.01	438.17
626.35	435.89
626.70	433.56
627.04	431.42
627.39	429.25
627.73	427.14
628.08	425.10
628.43	423.06
628.77	420.94
629.12	418.97
629.46	417.08
629.81	415.31
630.15	413.45
630.50	411.62
630.84	409.84
631.19	408.10
631.53	406.44
631.88	404.59
632.22	402.83
632.57	401.35
632.91	399.82
633.26	398.35
633.60	396.91
633.95	395.55
634.29	394.06
634.64	392.65
634.98	391.10
635.32	389.72
635.67	388.48
636.01	387.23
636.36	385.99
636.70	384.86
637.05	383.56
637.39	382.41
637.73	381.25
638.08	380.17
638.42	379.12
638.77	377.93
639.11	376.71
639.45	375.55
639.80	374.33
640.14	373.20
640.49	372.07
640.83	370.90
641.17	369.81
641.52	368.73
641.86	367.69
642.20	366.78
642.55	365.69
642.89	364.63
643.23	363.63
643.58	362.75
643.92	361.71
644.26	360.77
644.61	359.87
644.95	358.94
645.29	357.91
645.64	356.86
645.98	355.92
646.32	355.09
646.66	354.22
647.01	353.36
647.35	352.58
647.69	351.77
648.04	351.04
648.38	350.24
648.72	349.48
649.06	348.70
649.41	347.88
649.75	347.13
650.09	346.41
650.43	345.66
650.78	344.86
651.12	344.12
651.46	343.36
651.80	342.62
652.14	341.92
652.49	341.31
652.83	340.64
653.17	339.93
653.51	339.25
653.85	338.66
654.20	338.03
654.54	337.30
654.88	336.61
655.22	335.97
655.56	335.29
655.90	334.65
656.25	334.02
656.59	333.42
656.93	332.85
657.27	332.32
657.61	331.71
657.95	331.17
658.29	330.59
658.64	330.04
658.98	329.43
659.32	328.83
659.66	328.25
660.00	327.72
660.34	327.21
660.68	326.60
661.02	325.96
661.36	325.37
661.70	324.83
662.05	324.28
662.39	323.74
662.73	323.28
663.07	322.85
663.41	322.39
663.75	321.87
664.09	321.35
664.43	320.71
664.77	320.19
665.11	319.61
665.45	319.09
665.79	318.58
666.13	318.08
666.47	317.55
666.81	316.99
667.15	316.40
667.49	315.92
667.83	315.53
668.17	315.09
668.51	314.67
668.85	314.26
669.19	313.92
669.53	313.38
669.87	312.84
670.21	312.28
670.55	311.75
670.89	311.36
671.23	310.91
671.57	310.53
671.91	310.16
672.25	309.83
672.58	309.49
672.92	309.06
673.26	308.71
673.60	308.35
673.94	307.98
674.28	307.65
674.62	307.27
674.96	306.83
675.30	306.43
675.64	305.98
675.97	305.52
676.31	305.04
676.65	304.62
676.99	304.29
677.33	303.87
677.67	303.48
678.01	302.98
678.34	302.56
678.68	302.16
679.02	301.71
679.36	301.25
679.70	300.80
680.04	300.41
680.37	299.99
680.71	299.59
681.05	299.23
681.39	298.80
681.73	298.32
682.06	297.89
682.40	297.49
682.74	297.13
683.08	296.83
683.42	296.46
683.75	296.12
684.09	295.64
684.43	295.26
684.77	294.84
685.10	294.47
685.44	294.08
685.78	293.67
686.12	293.27
686.45	292.87
686.79	292.43
687.13	292.03
687.46	291.57
687.80	291.15
688.14	290.67
688.48	290.25
688.81	289.85
689.15	289.50
689.49	289.05
689.82	288.62
690.16	288.08
690.50	287.63
690.83	287.19
691.17	286.75
691.51	286.32
691.84	285.94
692.18	285.51
692.52	285.05
692.85	284.62
693.19	284.24
693.52	283.81
693.86	283.38
694.20	282.95
694.53	282.54
694.87	282.09
695.21	281.65
695.54	281.23
695.88	280.78
696.21	280.30
696.55	279.87
696.88	279.42
697.22	279.01
697.56	278.62
697.89	278.15
698.23	277.75
698.56	277.30
698.90	276.90
699.23	276.45
699.57	276.05
699.90	275.64
700.24	275.19
700.58	274.81
700.91	274.46
701.25	274.22
701.58	273.92
701.92	273.58
702.25	273.22
702.59	272.83
702.92	272.46
703.26	272.07
703.59	271.67
703.93	271.44
704.26	271.07
704.60	270.68
704.93	270.30
705.26	269.91
705.60	269.58
705.93	269.15
706.27	268.86
706.60	268.55
706.94	268.24
707.27	267.85
707.61	267.48
707.94	267.08
708.27	266.55
708.61	266.11
708.94	265.71
709.28	265.34
709.61	264.98
709.94	264.65
710.28	264.33
710.61	264.03
710.95	263.53
711.28	263.30
711.61	262.95
711.95	262.66
712.28	262.32
712.61	261.98
712.95	261.76
713.28	261.49
713.61	261.12
713.95	260.75
714.28	260.44
714.61	260.10
714.95	259.80
715.28	259.48
715.61	259.19
715.95	258.92
716.28	258.60
716.61	258.34
716.95	258.01
717.28	257.72
717.61	257.41
717.94	257.15
718.28	256.76
718.61	256.48
718.94	256.18
719.27	255.90
719.61	255.65
719.94	255.35
720.27	255.00
720.60	254.73
720.94	254.47
721.27	254.23
721.60	254.00
721.93	253.73
722.27	253.54
722.60	253.28
722.93	253.00
723.26	252.79
723.59	252.50
723.93	252.30
724.26	252.08
724.59	251.83
724.92	251.62
725.25	251.45
725.59	251.22
725.92	251.01
726.25	250.79
726.58	250.57
726.91	250.34
727.24	250.14
727.57	249.92
727.91	249.67
728.24	249.48
728.57	249.26
728.90	249.07
729.23	248.81
729.56	248.70
729.89	248.51
730.22	248.29
730.55	248.09
730.89	247.88
731.22	247.66
731.55	247.47
731.88	247.28
732.21	247.05
732.54	246.85
732.87	246.66
733.20	246.49
733.53	246.33
733.86	246.16
734.19	245.96
734.52	245.82
734.85	245.77
735.18	245.58
735.51	245.48
735.84	245.32
736.17	245.21
736.50	244.95
736.83	244.98
737.16	244.82
737.49	244.67
737.82	244.50
738.15	244.37
738.48	244.21
738.81	244.05
739.14	243.88
739.47	243.72
739.80	243.57
740.13	243.43
740.46	243.23
740.79	243.05
741.12	242.89
741.45	242.70
741.78	242.45
742.11	242.32
742.44	242.11
742.77	241.97
743.10	241.78
743.43	241.64
743.75	241.30
744.08	241.42
744.41	241.27
744.74	241.13
745.07	240.95
745.40	240.85
745.73	240.79
746.06	240.66
746.39	240.55
746.71	240.40
747.04	240.25
747.37	240.12
747.70	240.01
748.03	239.90
748.36	239.81
748.68	239.69
749.01	239.53
749.34	239.42
749.67	239.30
750.00	239.22
750.33	239.24
750.65	239.14
750.98	238.76
751.31	238.66
751.64	238.55
751.97	238.53
752.29	238.41
752.62	238.21
752.95	238.09
753.28	237.93
753.60	237.80
753.93	237.73
754.26	237.65
754.59	237.49
754.91	237.35
755.24	237.22
755.57	237.12
755.90	237.01
756.22	236.88
756.55	236.75
756.88	236.61
757.20	236.38
757.53	236.22
757.86	236.12
758.19	236.04
758.51	235.94
758.84	235.77
759.17	235.64
759.49	235.57
759.82	235.57
760.15	235.50
760.47	235.42
760.80	235.27
761.13	235.20
761.45	235.12
761.78	235.04
762.11	234.96
762.43	234.86
762.76	234.78
763.08	234.71
763.41	234.65
763.74	234.59
764.06	234.51
764.39	234.45
764.71	234.36
765.04	234.26
765.37	234.17
765.69	234.10
766.02	234.03
766.34	233.93
766.67	233.79
767.00	233.76
767.32	233.80
767.65	233.85
767.97	233.77
768.30	233.73
768.62	233.67
768.95	233.58
769.27	233.52
769.60	233.48
769.92	233.39
770.25	233.29
770.57	233.18
770.90	233.14
771.22	233.07
771.55	233.03
771.87	232.98
772.20	232.92
772.52	233.02
772.85	233.17
773.17	233.12
773.50	233.06
773.82	232.98
774.15	232.83
774.47	232.67
774.80	232.59
775.12	232.53
775.45	232.47
775.77	232.43
776.09	232.39
776.42	232.34
776.74	232.36
777.07	232.31
777.39	232.28
777.72	232.22
778.04	232.19
778.36	232.12
778.69	232.08
779.01	232.05
779.33	231.85
779.66	231.60
779.98	231.56
780.31	231.52
780.63	231.55
780.95	231.55
781.28	231.51
781.60	231.46
781.92	231.43
782.25	231.39
782.57	231.36
782.89	231.31
783.22	231.28
783.54	231.19
783.86	231.18
784.19	231.14
784.51	231.16
784.83	231.11
785.16	231.08
785.48	231.05
785.80	231.01
786.12	231.00
786.45	230.99
786.77	230.97
787.09	230.93
787.42	230.84
787.74	230.80
788.06	230.79
788.38	230.75
788.71	230.70
789.03	230.69
789.35	230.68
789.67	230.64
789.99	230.62
790.32	230.58
790.64	230.57
790.96	230.70
791.28	230.62
791.61	230.59
791.93	230.57
792.25	230.53
792.57	230.63
792.89	230.57
793.21	230.55
793.54	230.51
793.86	230.46
794.18	230.45
794.50	230.39
794.82	230.37
795.14	230.37
795.47	230.38
795.79	230.36
796.11	230.30
796.43	230.27
796.75	230.24
797.07	230.23
797.39	230.20
797.71	230.03
798.04	230.03
798.36	230.03
798.68	230.00
799.00	230.00
799.32	229.89
799.64	229.90
799.96	229.87
800.28	229.90
800.60	229.88
800.92	229.87
801.24	229.84
801.56	229.84
801.89	229.81
802.21	229.79
802.53	229.73
802.85	229.77
803.17	229.84
803.49	229.78
803.81	229.74
804.13	229.71
804.45	229.67
804.77	229.67
805.09	229.65
805.41	229.62
805.73	229.57
806.05	229.50
806.37	229.47
806.69	229.43
807.01	229.39
807.33	229.38
807.65	229.29
807.97	229.37
808.28	229.32
808.60	229.31
808.92	229.28
809.24	229.39
809.56	229.34
809.88	229.25
810.20	229.25
810.52	229.28
810.84	229.25
811.16	229.21
811.48	229.17
811.80	229.23
812.12	229.21
812.43	229.22
812.75	229.23
813.07	229.21
813.39	229.21
813.71	229.18
814.03	229.16
814.35	229.17
814.67	229.07
814.98	229.04
815.30	229.02
815.62	228.98
815.94	228.85
816.26	228.86
816.58	228.82
816.89	228.82
817.21	228.76
817.53	228.76
817.85	228.75
818.17	228.74
818.48	228.65
818.80	228.69
819.12	228.65
819.44	228.61
819.76	228.58
820.07	228.56
820.39	228.56
820.71	228.56
821.03	228.55
821.34	228.53
821.66	228.55
821.98	228.55
822.30	228.54
822.61	228.64
822.93	228.60
823.25	228.58
823.57	228.56
823.88	228.57
824.20	228.55
824.52	228.58
824.83	228.56
825.15	228.53
825.47	228.50
825.79	228.50
826.10	228.49
826.42	228.49
826.74	228.49
827.05	228.47
827.37	228.46
827.69	228.46
828.00	228.46
828.32	228.45
828.64	228.42
828.95	228.51
829.27	228.45
829.58	228.44
829.90	228.46
830.22	228.47
830.53	228.44
830.85	228.42
831.17	228.36
831.48	228.36
831.80	228.37
832.11	228.36
832.43	228.32
832.75	228.31
833.06	228.41
833.38	228.35
833.69	228.34
834.01	228.33
834.32	228.31
834.64	228.28
834.96	228.28
835.27	228.28
835.59	228.21
835.90	228.18
836.22	228.17
836.53	228.12
836.85	228.10
837.16	228.28
837.48	228.28
837.79	228.34
838.11	228.34
838.42	228.34
838.74	228.35
839.05	228.33
839.37	228.32
839.68	228.20
840.00	228.20
840.31	228.22
840.63	228.22
840.94	228.20
841.26	228.19
841.57	228.18
841.88	228.19
842.20	228.16
842.51	228.14
842.83	228.13
843.14	228.31
843.46	228.30
843.77	228.18
844.08	228.17
844.40	228.10
844.71	228.08
845.03	228.05
845.34	228.04
845.65	228.04
845.97	228.04
846.28	228.04
846.60	228.06
846.91	228.02
847.22	228.02
847.54	228.05
847.85	228.06
848.16	228.04
848.48	228.01
848.79	228.07
849.10	228.09
849.42	228.09
849.73	227.92
850.04	227.92
850.36	227.86
850.67	227.89
850.98	227.90
851.30	227.91
851.61	227.90
851.92	227.89
852.23	227.95
852.55	227.96
852.86	227.96
853.17	227.97
853.49	228.01
853.80	228.04
854.11	228.04
854.42	228.05
854.74	228.03
855.05	228.03
855.36	227.94
855.67	227.93
855.99	227.94
856.30	228.13
856.61	228.12
856.92	228.12
857.23	228.12
857.55	228.09
857.86	228.09
858.17	228.12
858.48	228.08
858.79	228.04
859.11	228.05
859.42	228.04
859.73	228.00
860.04	227.99
860.35	227.94
860.66	227.88
860.98	227.86
861.29	227.89
861.60	227.88
861.91	227.91
862.22	227.89
862.53	227.85
862.84	227.65
863.16	227.69
863.47	227.66
863.78	227.64
864.09	227.65
864.40	227.65
864.71	227.64
865.02	227.67
865.33	227.65
865.64	227.62
865.95	227.61
866.27	227.72
866.58	227.70
866.89	227.72
867.20	227.72
867.51	227.70
867.82	227.68
868.13	227.74
868.44	227.70
868.75	227.73
869.06	227.74
869.37	227.77
869.68	227.71
869.99	227.74
870.30	227.75
870.61	227.77
870.92	227.74
871.23	227.73
871.54	227.74
871.85	227.79
872.16	227.80
872.47	227.80
872.78	227.70
873.09	227.70
873.40	227.69
873.71	227.70
874.02	227.71
874.33	227.69
874.64	227.64
874.95	227.66
875.26	227.62
875.56	227.62
875.87	227.60
876.18	227.60
876.49	227.77
876.80	227.75
877.11	227.71
877.42	227.73
877.73	227.72
878.04	227.69
878.35	227.68
878.66	227.68
878.96	227.69
879.27	227.68
879.58	227.68
879.89	227.67
880.20	227.72
880.51	227.71
880.82	227.71
881.12	227.72
881.43	227.69
881.74	227.66
882.05	227.65
882.36	227.65
882.67	227.66
882.97	227.48
883.28	227.47
883.59	227.48
883.90	227.50
884.21	227.52
884.51	227.51
884.82	227.48
885.13	227.50
885.44	227.49
885.74	227.49
886.05	227.48
886.36	227.48
886.67	227.42
886.98	227.52
887.28	227.54
887.59	227.54
887.90	227.56
888.20	227.56
888.51	227.60
888.82	227.58
889.13	227.59
889.43	227.75
889.74	227.73
890.05	227.72
890.35	227.70
890.66	227.67
890.97	227.66
891.28	227.65
891.58	227.64
891.89	227.63
892.20	227.62
892.50	227.59
892.81	227.58
893.12	227.58
893.42	227.48
893.73	227.48
894.04	227.48
894.34	227.48
894.65	227.48
894.95	227.47
895.26	227.47
895.57	227.53
895.87	227.34
896.18	227.39
896.48	227.39
896.79	227.38
897.10	227.41
897.40	227.43
897.71	227.45
898.01	227.43
898.32	227.46
898.63	227.46
898.93	227.48
899.24	227.47
899.54	227.46
899.85	227.46
900.15	227.45
900.46	227.46
900.76	227.47
901.07	227.47
901.38	227.45
901.68	227.47
901.99	227.39
902.29	227.40
902.60	227.38
902.90	227.37
903.21	227.36
903.51	227.33
903.82	227.36
904.12	227.36
904.43	227.38
904.73	227.36
905.03	227.37
905.34	227.54
905.64	227.54
905.95	227.53
906.25	227.53
906.56	227.54
906.86	227.52
907.17	227.51
907.47	227.53
907.77	227.51
908.08	227.48
908.38	227.49
908.69	227.51
908.99	227.55
909.30	227.56
909.60	227.56
909.90	227.56
910.21	227.50
910.51	227.47
910.81	227.46
911.12	227.47
911.42	227.47
911.73	227.28
912.03	227.29
912.33	227.34
912.64	227.32
912.94	227.29
913.24	227.26
913.55	227.24
913.85	227.22
914.15	227.25
914.46	227.27
914.76	227.26
915.06	227.25
915.37	227.20
915.67	227.19
915.97	227.21
916.27	227.18
916.58	227.20
916.88	227.20
917.18	227.20
917.49	227.32
917.79	227.30
918.09	227.35
918.39	227.37
918.70	227.35
919.00	227.37
919.30	227.46
919.60	227.46
919.91	227.44
920.21	227.46
920.51	227.43
920.81	227.42
921.12	227.45
921.42	227.45
921.72	227.47
922.02	227.48
922.32	227.50
922.63	227.51
922.93	227.60
923.23	227.61
923.53	227.59
923.83	227.47
924.13	227.48
924.44	227.47
924.74	227.50
925.04	227.54
925.34	227.54
925.64	227.47
925.94	227.47
926.24	227.57
926.55	227.55
926.85	227.58
927.15	227.57
927.45	227.55
927.75	227.54
928.05	227.54
928.35	227.53
928.65	227.55
928.95	227.56
929.26	227.48
929.56	227.52
929.86	227.54
930.16	227.51
930.46	227.50
930.76	227.50
931.06	227.43
931.36	227.37
931.66	227.40
931.96	227.42
932.26	227.42
932.56	227.35
932.86	227.36
933.16	227.35
933.46	227.33
933.76	227.31
934.06	227.34
934.36	227.40
934.66	227.39
934.96	227.37
935.26	227.38
935.56	227.40
935.86	227.34
936.16	227.32
936.46	227.32
936.76	227.30
937.06	227.26
937.36	227.28
937.66	227.28
937.96	227.27
938.26	227.23
938.56	227.23
938.86	227.24
939.16	227.27
939.46	227.29
939.76	227.31
940.06	227.32
940.35	227.28
940.65	227.18
940.95	227.20
941.25	227.17
941.55	227.14
941.85	227.13
942.15	227.18
942.45	227.23
942.75	227.23
943.04	227.25
943.34	227.28
943.64	227.27
943.94	227.24
944.24	227.25
944.54	227.26
944.84	227.25
945.13	227.23
945.43	227.20
945.73	227.19
946.03	227.17
946.33	227.15
946.62	227.14
946.92	227.15
947.22	227.15
947.52	227.17
947.82	227.19
948.11	227.18
948.41	227.14
948.71	227.08
949.01	227.10
949.31	227.08
949.60	227.07
949.90	227.11
950.20	227.11
950.50	227.09
950.79	227.08
951.09	227.11
951.39	227.10
951.69	227.07
951.98	227.10
952.28	227.12
952.58	227.11
952.87	227.12
953.17	227.15
953.47	227.13
953.76	227.13
954.06	227.10
954.36	227.07
954.66	227.08
954.95	227.12
955.25	227.11
955.55	227.14
955.84	227.11
956.14	227.11
956.44	227.12
956.73	227.09
957.03	227.12
957.32	227.12
957.62	227.11
957.92	227.15
958.21	227.14
958.51	227.34
958.81	227.37
959.10	227.39
959.40	227.41
959.69	227.43
959.99	227.43
960.29	227.43
960.58	227.42
960.88	227.49
961.17	227.47
961.47	227.48
961.76	227.46
962.06	227.50
962.36	227.47
962.65	227.49
962.95	227.50
963.24	227.48
963.54	227.48
963.83	227.49
964.13	227.49
964.42	227.47
964.72	227.31
965.01	227.32
965.31	227.30
965.60	227.25
965.90	227.37
966.19	227.34
966.49	227.36
966.78	227.35
967.08	227.34
967.37	227.32
967.67	227.30
967.96	227.34
968.26	227.32
968.55	227.35
968.85	227.33
969.14	227.33
969.43	227.33
969.73	227.31
970.02	227.30
970.32	227.29
970.61	227.26
970.91	227.21
971.20	227.17
971.49	227.17
971.79	227.20
972.08	227.06
972.38	227.08
972.67	227.07
972.96	227.11
973.26	227.07
973.55	227.14
973.85	227.12
974.14	227.11
974.43	227.13
974.73	227.09
975.02	227.08
975.31	227.09
975.61	227.09
975.90	227.07
976.19	227.05
976.49	227.07
976.78	227.09
977.07	227.10
977.37	227.11
977.66	227.12
977.95	227.09
978.24	227.11
978.54	227.14
978.83	227.13
979.12	227.11
979.42	227.11
979.71	227.05
980.00	227.06
980.29	227.06
980.59	227.03
980.88	227.07
981.17	227.07
981.46	227.08
981.76	227.09
982.05	227.14
982.34	227.17
982.63	227.17
982.93	227.16
983.22	227.20
983.51	227.21
983.80	227.23
984.09	227.25
984.39	227.25
984.68	227.22
984.97	227.24
985.26	227.23
985.55	227.26
985.85	227.23
986.14	227.25
986.43	227.27
986.72	227.26
987.01	227.21
987.30	227.21
987.59	227.19
987.89	227.19
988.18	227.14
988.47	227.12
988.76	227.10
989.05	227.08
989.34	227.06
989.63	227.10
989.92	227.07
990.22	227.05
990.51	227.06
990.80	227.03
991.09	227.05
991.38	227.08
991.67	227.05
991.96	227.04
992.25	227.05
992.54	227.02
992.83	227.03
993.12	227.03
993.41	227.05
993.70	227.13
993.99	227.15
994.28	227.18
994.58	227.22
994.87	227.21
995.16	227.21
995.45	227.19
995.74	227.13
996.03	227.16
996.32	227.19
996.61	227.22
996.90	227.22
997.19	227.21
997.48	227.19
997.77	227.18
998.06	227.19
998.34	227.17
998.63	227.18
998.92	227.19
999.21	227.22
999.50	227.22
999.79	227.15
1000.08	227.15
1000.37	227.15
1000.66	227.11
1000.95	227.15
1001.24	227.17
1001.53	227.20
1001.82	227.20
1002.11	227.17
1002.40	227.18
1002.68	227.22
1002.97	227.34
1003.26	227.32
1003.55	227.29
1003.84	227.31
1004.13	227.37
1004.42	227.36
1004.71	227.35
1004.99	227.32
1005.28	227.35
1005.57	227.33
1005.86	227.31
1006.15	227.30
1006.44	227.28
1006.72	227.31
1007.01	227.29
1007.30	227.28
1007.59	227.26
1007.88	227.25
1008.17	227.26
1008.45	227.21
1008.74	227.12
1009.03	227.04
1009.32	227.04
1009.60	227.04
1009.89	227.02
1010.18	226.94
1010.47	226.93
1010.76	226.93
1011.04	226.94
1011.33	226.94
1011.62	226.96
1011.91	226.98
1012.19	226.97
1012.48	226.98
1012.77	226.96
1013.05	227.01
1013.34	227.01
1013.63	227.00
1013.92	227.02
1014.20	227.00
1014.49	227.02
1014.78	227.05
1015.06	226.98
1015.35	226.99
1015.64	227.01
1015.92	227.04
1016.21	227.05
1016.50	227.05
1016.78	227.07
1017.07	227.08
1017.36	227.05
1017.64	227.02
1017.93	227.02
1018.22	227.01
1018.50	226.99
1018.79	227.00
1019.08	226.94
1019.36	226.93
1019.65	226.92
1019.93	226.97
1020.22	226.99
1020.51	227.08
1020.79	227.05
1021.08	226.64
1021.36	226.70
1021.65	227.12
1021.94	226.83
1022.22	226.85
1022.51	226.71
1022.79	227.92
1023.08	227.19
1023.36	229.10
1023.65	226.51
>>>>>End Processed Spectral Data<<<<<
