SpectraSuite Data File
++++++++++++++++++++++++++++++++++++
Date: Wed Oct 07 04:33:58 EDT 2015
User: lab3
Dark Spectrum Present: No
Reference Spectrum Present: No
Number of Sampled Component Spectra: 1
Spectrometers: USB2E7196
Integration Time (usec): 66000 (USB2E7196)
Spectra Averaged: 10000 (USB2E7196)
Boxcar Smoothing: 10 (USB2E7196)
Correct for Electrical Dark: No (USB2E7196)
Strobe/Lamp Enabled: No (USB2E7196)
Correct for Detector Non-linearity: No (USB2E7196)
Correct for Stray Light: No (USB2E7196)
Number of Pixels in Processed Spectrum: 2048
>>>>>Begin Processed Spectral Data<<<<<
339.09	0.00
339.48	213.70
339.86	215.24
340.24	216.56
340.63	217.99
341.01	222.10
341.39	220.72
341.78	222.20
342.16	223.55
342.54	223.74
342.93	212.32
343.31	223.05
343.69	223.59
344.07	224.05
344.46	224.50
344.84	224.91
345.22	225.11
345.60	225.39
345.99	225.60
346.37	225.74
346.75	225.87
347.13	225.96
347.52	226.05
347.90	226.18
348.28	226.24
348.66	226.32
349.05	226.32
349.43	226.40
349.81	226.47
350.19	226.54
350.57	226.63
350.96	226.73
351.34	226.85
351.72	226.95
352.10	227.08
352.48	227.15
352.87	227.20
353.25	227.27
353.63	227.32
354.01	227.38
354.39	227.46
354.77	227.54
355.15	227.66
355.54	227.70
355.92	227.71
356.30	227.78
356.68	227.97
357.06	228.05
357.44	228.08
357.82	228.14
358.20	228.36
358.58	228.42
358.97	228.48
359.35	228.58
359.73	228.68
360.11	228.73
360.49	228.79
360.87	228.84
361.25	228.91
361.63	229.02
362.01	229.08
362.39	229.11
362.77	229.16
363.15	229.18
363.53	229.21
363.91	229.25
364.29	229.28
364.67	229.13
365.05	229.15
365.43	229.19
365.81	229.23
366.19	229.18
366.57	229.26
366.95	229.26
367.33	229.22
367.71	229.21
368.09	229.24
368.47	229.24
368.85	229.23
369.23	229.25
369.61	229.18
369.99	229.21
370.37	229.22
370.75	229.34
371.13	229.30
371.51	229.26
371.89	229.24
372.27	229.23
372.65	229.21
373.03	229.17
373.41	229.13
373.78	229.08
374.16	228.95
374.54	228.85
374.92	228.80
375.30	228.76
375.68	228.68
376.06	228.64
376.44	228.58
376.82	228.54
377.19	228.50
377.57	228.44
377.95	228.34
378.33	228.27
378.71	228.06
379.09	228.03
379.47	228.01
379.84	227.94
380.22	227.88
380.60	227.80
380.98	227.76
381.36	227.71
381.73	227.64
382.11	227.63
382.49	227.60
382.87	227.54
383.25	227.50
383.62	227.67
384.00	227.60
384.38	227.57
384.76	227.57
385.13	227.59
385.51	227.55
385.89	227.50
386.27	227.47
386.64	227.47
387.02	227.42
387.40	227.37
387.78	227.36
388.15	227.34
388.53	227.32
388.91	227.30
389.29	227.27
389.66	227.28
390.04	227.23
390.42	227.24
390.79	227.24
391.17	227.23
391.55	227.01
391.92	227.01
392.30	227.03
392.68	226.98
393.05	226.97
393.43	226.98
393.81	227.00
394.18	226.98
394.56	226.99
394.94	227.05
395.31	227.06
395.69	227.14
396.06	227.19
396.44	227.24
396.82	227.26
397.19	227.40
397.57	227.42
397.95	227.50
398.32	227.49
398.70	227.57
399.07	227.67
399.45	227.74
399.82	227.82
400.20	227.87
400.58	227.96
400.95	227.98
401.33	228.12
401.70	228.35
402.08	228.51
402.45	228.64
402.83	228.81
403.20	228.99
403.58	229.13
403.95	229.33
404.33	229.57
404.71	229.79
405.08	230.10
405.46	230.36
405.83	230.64
406.21	230.95
406.58	231.29
406.96	231.62
407.33	232.01
407.70	232.44
408.08	233.03
408.45	233.55
408.83	234.12
409.20	234.63
409.58	235.10
409.95	235.75
410.33	236.44
410.70	237.11
411.08	237.89
411.45	238.72
411.82	239.56
412.20	240.52
412.57	241.66
412.95	242.57
413.32	243.75
413.69	244.96
414.07	246.25
414.44	247.66
414.82	249.09
415.19	250.76
415.56	252.47
415.94	254.26
416.31	256.25
416.68	258.25
417.06	260.55
417.43	262.72
417.81	265.22
418.18	267.76
418.55	270.53
418.93	273.41
419.30	276.42
419.67	279.62
420.04	282.90
420.42	286.34
420.79	290.30
421.16	294.30
421.54	298.34
421.91	302.57
422.28	306.97
422.66	311.70
423.03	316.20
423.40	320.91
423.77	325.96
424.15	331.13
424.52	336.49
424.89	342.29
425.26	348.04
425.64	353.38
426.01	359.38
426.38	365.50
426.75	371.80
427.13	378.24
427.50	384.99
427.87	392.00
428.24	399.06
428.61	405.81
428.99	413.11
429.36	421.13
429.73	428.78
430.10	436.42
430.47	444.24
430.85	452.31
431.22	460.90
431.59	469.73
431.96	478.35
432.33	487.94
432.70	497.06
433.08	507.86
433.45	518.03
433.82	528.11
434.19	539.41
434.56	550.52
434.93	561.31
435.30	572.01
435.68	584.14
436.05	596.02
436.42	607.92
436.79	618.79
437.16	630.63
437.53	643.25
437.90	655.88
438.27	668.28
438.64	681.71
439.01	693.92
439.38	705.12
439.75	715.95
440.13	728.30
440.50	740.05
440.87	749.46
441.24	759.81
441.61	771.15
441.98	779.56
442.35	789.55
442.72	799.72
443.09	809.40
443.46	815.75
443.83	820.59
444.20	824.64
444.57	830.43
444.94	833.92
445.31	837.55
445.68	840.71
446.05	843.14
446.42	842.99
446.79	842.57
447.16	842.27
447.53	842.03
447.90	838.54
448.27	835.27
448.64	829.97
449.01	826.39
449.37	818.71
449.74	811.73
450.11	802.66
450.48	792.69
450.85	782.67
451.22	774.09
451.59	765.60
451.96	757.92
452.33	746.79
452.70	736.86
453.07	724.80
453.43	712.75
453.80	700.98
454.17	689.70
454.54	679.31
454.91	667.56
455.28	656.44
455.65	645.95
456.02	634.81
456.38	625.85
456.75	614.38
457.12	605.13
457.49	595.81
457.86	586.98
458.23	579.19
458.59	570.62
458.96	561.82
459.33	554.11
459.70	546.25
460.07	540.24
460.43	533.17
460.80	526.58
461.17	520.85
461.54	514.65
461.91	508.83
462.27	502.91
462.64	498.07
463.01	492.56
463.38	487.00
463.74	481.99
464.11	477.52
464.48	473.49
464.85	469.15
465.21	465.82
465.58	462.13
465.95	457.95
466.32	454.63
466.68	451.38
467.05	448.10
467.42	444.91
467.78	441.50
468.15	438.35
468.52	436.04
468.88	432.96
469.25	430.17
469.62	427.95
469.98	425.55
470.35	423.42
470.72	421.47
471.08	419.51
471.45	417.87
471.82	416.03
472.18	414.09
472.55	412.84
472.92	411.28
473.28	410.06
473.65	408.75
474.02	407.49
474.38	406.41
474.75	405.77
475.11	404.90
475.48	404.48
475.85	404.02
476.21	403.73
476.58	403.53
476.94	403.67
477.31	403.68
477.67	403.71
478.04	403.99
478.41	404.38
478.77	404.96
479.14	405.30
479.50	406.06
479.87	407.06
480.23	408.01
480.60	408.92
480.96	409.84
481.33	411.26
481.69	412.65
482.06	414.02
482.42	415.27
482.79	416.84
483.15	418.68
483.52	420.77
483.88	422.76
484.25	424.88
484.61	427.10
484.98	429.51
485.34	432.21
485.71	435.01
486.07	438.05
486.44	441.02
486.80	444.39
487.17	447.82
487.53	451.55
487.90	455.47
488.26	459.74
488.62	464.24
488.99	468.74
489.35	473.47
489.72	478.55
490.08	483.91
490.44	489.37
490.81	495.05
491.17	500.91
491.54	507.20
491.90	513.62
492.26	520.49
492.63	527.70
492.99	535.24
493.36	542.95
493.72	551.03
494.08	559.34
494.45	568.05
494.81	577.17
495.17	586.53
495.54	596.42
495.90	606.74
496.26	617.24
496.63	628.08
496.99	639.29
497.35	651.04
497.72	663.07
498.08	675.45
498.44	688.18
498.80	701.61
499.17	715.32
499.53	729.50
499.89	744.12
500.26	758.97
500.62	774.18
500.98	790.30
501.34	806.45
501.71	823.36
502.07	840.61
502.43	858.35
502.79	876.34
503.16	894.78
503.52	913.46
503.88	932.58
504.24	952.16
504.60	972.00
504.97	992.49
505.33	1013.52
505.69	1035.62
506.05	1057.96
506.41	1080.26
506.78	1102.74
507.14	1125.74
507.50	1149.27
507.86	1173.16
508.22	1197.31
508.59	1221.34
508.95	1246.42
509.31	1272.07
509.67	1298.36
510.03	1324.63
510.39	1350.77
510.75	1377.02
511.12	1403.60
511.48	1430.51
511.84	1457.36
512.20	1484.62
512.56	1512.98
512.92	1541.14
513.28	1568.62
513.64	1596.57
514.00	1624.90
514.37	1653.49
514.73	1682.18
515.09	1710.16
515.45	1738.42
515.81	1766.99
516.17	1795.30
516.53	1822.95
516.89	1850.26
517.25	1877.93
517.61	1905.35
517.97	1933.46
518.33	1961.06
518.69	1988.60
519.05	2016.49
519.41	2044.55
519.77	2072.72
520.13	2099.29
520.49	2125.85
520.85	2152.85
521.21	2179.15
521.57	2205.84
521.93	2231.41
522.29	2257.67
522.65	2283.79
523.01	2309.62
523.37	2334.62
523.73	2360.42
524.09	2385.89
524.45	2411.21
524.81	2435.84
525.17	2460.38
525.53	2483.94
525.89	2508.00
526.25	2531.74
526.61	2553.66
526.97	2575.68
527.33	2597.43
527.68	2619.08
528.04	2640.37
528.40	2660.51
528.76	2680.73
529.12	2700.38
529.48	2720.80
529.84	2738.38
530.20	2756.26
530.56	2773.48
530.91	2790.83
531.27	2807.43
531.63	2823.13
531.99	2838.44
532.35	2853.56
532.71	2868.23
533.07	2883.41
533.42	2896.54
533.78	2909.79
534.14	2924.27
534.50	2937.55
534.86	2951.30
535.21	2962.70
535.57	2974.03
535.93	2984.98
536.29	2994.10
536.65	3003.16
537.00	3010.86
537.36	3019.85
537.72	3027.97
538.08	3035.60
538.44	3041.88
538.79	3048.03
539.15	3052.88
539.51	3056.92
539.87	3059.62
540.22	3060.68
540.58	3061.98
540.94	3063.96
541.29	3064.92
541.65	3064.44
542.01	3063.54
542.37	3060.92
542.72	3060.09
543.08	3057.37
543.44	3054.81
543.79	3052.22
544.15	3048.72
544.51	3045.08
544.87	3040.55
545.22	3034.96
545.58	3029.01
545.94	3023.40
546.29	3016.22
546.65	3009.19
547.01	3002.39
547.36	2996.23
547.72	2990.14
548.07	2982.29
548.43	2973.23
548.79	2963.85
549.14	2954.67
549.50	2945.67
549.86	2935.76
550.21	2924.05
550.57	2913.73
550.92	2901.67
551.28	2889.73
551.64	2878.20
551.99	2866.44
552.35	2854.15
552.70	2841.80
553.06	2829.95
553.41	2817.64
553.77	2805.08
554.13	2792.55
554.48	2778.81
554.84	2763.85
555.19	2749.39
555.55	2734.93
555.90	2721.04
556.26	2707.32
556.61	2692.51
556.97	2676.57
557.32	2661.11
557.68	2646.06
558.03	2630.55
558.39	2615.97
558.74	2602.17
559.10	2586.39
559.45	2570.55
559.81	2555.41
560.16	2539.82
560.52	2523.92
560.87	2508.36
561.23	2492.33
561.58	2476.93
561.94	2461.12
562.29	2444.83
562.64	2428.73
563.00	2412.63
563.35	2396.72
563.71	2380.45
564.06	2364.31
564.42	2348.70
564.77	2333.22
565.12	2317.33
565.48	2301.11
565.83	2285.02
566.19	2268.81
566.54	2252.80
566.89	2236.43
567.25	2220.11
567.60	2204.67
567.96	2188.61
568.31	2171.01
568.66	2154.22
569.02	2138.07
569.37	2122.45
569.72	2107.45
570.08	2091.99
570.43	2075.89
570.78	2059.58
571.14	2043.18
571.49	2026.76
571.84	2010.58
572.20	1993.12
572.55	1976.46
572.90	1959.99
573.26	1943.64
573.61	1926.63
573.96	1910.17
574.31	1893.53
574.67	1876.47
575.02	1859.12
575.37	1841.75
575.72	1825.33
576.08	1808.64
576.43	1791.03
576.78	1773.75
577.13	1756.70
577.49	1739.87
577.84	1723.58
578.19	1706.82
578.54	1690.06
578.90	1673.15
579.25	1656.06
579.60	1640.33
579.95	1624.25
580.30	1608.11
580.66	1591.69
581.01	1575.37
581.36	1559.10
581.71	1543.78
582.06	1528.51
582.42	1513.02
582.77	1497.95
583.12	1483.09
583.47	1468.33
583.82	1453.75
584.17	1438.57
584.53	1423.50
584.88	1408.76
585.23	1393.86
585.58	1379.39
585.93	1364.73
586.28	1351.18
586.63	1337.52
586.98	1323.29
587.34	1309.56
587.69	1295.63
588.04	1281.98
588.39	1268.63
588.74	1254.92
589.09	1241.29
589.44	1227.35
589.79	1214.09
590.14	1200.87
590.49	1187.68
590.84	1174.71
591.19	1162.15
591.54	1149.75
591.89	1136.96
592.25	1124.49
592.60	1111.91
592.95	1099.46
593.30	1087.50
593.65	1075.20
594.00	1063.19
594.35	1052.13
594.70	1040.32
595.05	1029.15
595.40	1017.85
595.75	1006.40
596.10	995.61
596.45	984.77
596.80	974.40
597.15	963.97
597.50	953.49
597.85	943.39
598.19	933.29
598.54	923.14
598.89	913.53
599.24	904.33
599.59	894.88
599.94	886.13
600.29	877.44
600.64	868.51
600.99	859.48
601.34	850.82
601.69	841.62
602.04	833.38
602.39	825.03
602.74	816.92
603.08	808.92
603.43	800.93
603.78	792.95
604.13	784.98
604.48	777.04
604.83	769.39
605.18	761.77
605.53	754.34
605.87	746.89
606.22	739.57
606.57	732.18
606.92	724.74
607.27	717.31
607.62	710.05
607.96	703.08
608.31	696.63
608.66	690.03
609.01	683.74
609.36	677.40
609.70	671.05
610.05	664.66
610.40	658.49
610.75	652.27
611.10	646.29
611.44	640.31
611.79	634.49
612.14	628.57
612.49	622.73
612.83	617.19
613.18	611.74
613.53	606.25
613.88	600.91
614.22	595.97
614.57	590.95
614.92	586.06
615.27	581.28
615.61	576.35
615.96	571.50
616.31	566.64
616.65	561.94
617.00	557.34
617.35	552.86
617.70	548.37
618.04	544.01
618.39	539.75
618.74	535.76
619.08	531.72
619.43	527.83
619.78	523.89
620.12	519.91
620.47	516.13
620.82	512.48
621.16	508.86
621.51	505.26
621.85	501.66
622.20	498.14
622.55	494.61
622.89	491.12
623.24	487.83
623.59	484.60
623.93	481.45
624.28	478.44
624.62	475.60
624.97	472.81
625.32	469.93
625.66	467.02
626.01	464.07
626.35	461.31
626.70	458.48
627.04	455.87
627.39	453.21
627.73	450.64
628.08	448.09
628.43	445.56
628.77	442.98
629.12	440.51
629.46	438.15
629.81	435.94
630.15	433.65
630.50	431.39
630.84	429.19
631.19	427.01
631.53	424.94
631.88	422.68
632.22	420.51
632.57	418.65
632.91	416.74
633.26	414.90
633.60	413.07
633.95	411.34
634.29	409.48
634.64	407.68
634.98	405.77
635.32	404.06
635.67	402.51
636.01	400.95
636.36	399.44
636.70	397.99
637.05	396.39
637.39	394.96
637.73	393.51
638.08	392.13
638.42	390.80
638.77	389.33
639.11	387.84
639.45	386.41
639.80	384.92
640.14	383.51
640.49	382.10
640.83	380.70
641.17	379.35
641.52	378.04
641.86	376.76
642.20	375.62
642.55	374.31
642.89	373.01
643.23	371.79
643.58	370.70
643.92	369.45
644.26	368.30
644.61	367.18
644.95	366.04
645.29	364.83
645.64	363.60
645.98	362.50
646.32	361.52
646.66	360.46
647.01	359.43
647.35	358.51
647.69	357.54
648.04	356.65
648.38	355.69
648.72	354.78
649.06	353.87
649.41	352.93
649.75	352.05
650.09	351.20
650.43	350.32
650.78	349.40
651.12	348.55
651.46	347.71
651.80	346.88
652.14	346.10
652.49	345.40
652.83	344.62
653.17	343.82
653.51	343.03
653.85	342.38
654.20	341.67
654.54	340.86
654.88	340.09
655.22	339.38
655.56	338.65
655.90	337.95
656.25	337.27
656.59	336.61
656.93	335.98
657.27	335.41
657.61	334.75
657.95	334.17
658.29	333.55
658.64	332.95
658.98	332.29
659.32	331.65
659.66	331.04
660.00	330.48
660.34	329.92
660.68	329.31
661.02	328.63
661.36	328.00
661.70	327.43
662.05	326.86
662.39	326.31
662.73	325.85
663.07	325.43
663.41	324.96
663.75	324.43
664.09	323.91
664.43	323.28
664.77	322.75
665.11	322.17
665.45	321.64
665.79	321.13
666.13	320.61
666.47	320.08
666.81	319.52
667.15	318.92
667.49	318.45
667.83	318.04
668.17	317.59
668.51	317.18
668.85	316.79
669.19	316.44
669.53	315.92
669.87	315.37
670.21	314.81
670.55	314.29
670.89	313.89
671.23	313.43
671.57	313.03
671.91	312.69
672.25	312.36
672.58	312.03
672.92	311.60
673.26	311.27
673.60	310.93
673.94	310.56
674.28	310.24
674.62	309.88
674.96	309.45
675.30	309.08
675.64	308.66
675.97	308.20
676.31	307.73
676.65	307.33
676.99	307.01
677.33	306.58
677.67	306.19
678.01	305.72
678.34	305.32
678.68	304.94
679.02	304.49
679.36	304.05
679.70	303.60
680.04	303.21
680.37	302.79
680.71	302.40
681.05	302.04
681.39	301.63
681.73	301.17
682.06	300.76
682.40	300.37
682.74	300.02
683.08	299.72
683.42	299.34
683.75	299.00
684.09	298.54
684.43	298.17
684.77	297.76
685.10	297.39
685.44	296.99
685.78	296.58
686.12	296.18
686.45	295.77
686.79	295.33
687.13	294.93
687.46	294.49
687.80	294.08
688.14	293.62
688.48	293.20
688.81	292.78
689.15	292.42
689.49	291.98
689.82	291.53
690.16	290.98
690.50	290.54
690.83	290.09
691.17	289.63
691.51	289.20
691.84	288.80
692.18	288.36
692.52	287.90
692.85	287.46
693.19	287.08
693.52	286.66
693.86	286.22
694.20	285.78
694.53	285.35
694.87	284.88
695.21	284.42
695.54	283.97
695.88	283.50
696.21	283.00
696.55	282.55
696.88	282.11
697.22	281.69
697.56	281.28
697.89	280.80
698.23	280.39
698.56	279.94
698.90	279.53
699.23	279.07
699.57	278.66
699.90	278.22
700.24	277.75
700.58	277.35
700.91	276.98
701.25	276.73
701.58	276.41
701.92	276.05
702.25	275.67
702.59	275.26
702.92	274.87
703.26	274.45
703.59	274.04
703.93	273.76
704.26	273.36
704.60	272.94
704.93	272.54
705.26	272.13
705.60	271.77
705.93	271.31
706.27	270.99
706.60	270.64
706.94	270.31
707.27	269.88
707.61	269.49
707.94	269.06
708.27	268.49
708.61	268.03
708.94	267.60
709.28	267.21
709.61	266.83
709.94	266.48
710.28	266.14
710.61	265.81
710.95	265.29
711.28	265.05
711.61	264.69
711.95	264.37
712.28	264.00
712.61	263.62
712.95	263.37
713.28	263.08
713.61	262.69
713.95	262.30
714.28	261.97
714.61	261.60
714.95	261.27
715.28	260.93
715.61	260.61
715.95	260.31
716.28	259.98
716.61	259.69
716.95	259.36
717.28	259.04
717.61	258.71
717.94	258.42
718.28	258.00
718.61	257.69
718.94	257.36
719.27	257.07
719.61	256.80
719.94	256.48
720.27	256.10
720.60	255.82
720.94	255.53
721.27	255.26
721.60	255.01
721.93	254.73
722.27	254.51
722.60	254.23
722.93	253.92
723.26	253.68
723.59	253.37
723.93	253.13
724.26	252.89
724.59	252.62
724.92	252.38
725.25	252.19
725.59	251.95
725.92	251.72
726.25	251.47
726.58	251.23
726.91	250.97
727.24	250.75
727.57	250.50
727.91	250.23
728.24	250.02
728.57	249.77
728.90	249.56
729.23	249.27
729.56	249.14
729.89	248.92
730.22	248.69
730.55	248.47
730.89	248.24
731.22	248.02
731.55	247.80
731.88	247.60
732.21	247.35
732.54	247.13
732.87	246.92
733.20	246.74
733.53	246.54
733.86	246.37
734.19	246.15
734.52	245.99
734.85	245.95
735.18	245.73
735.51	245.60
735.84	245.43
736.17	245.30
736.50	245.02
736.83	245.06
737.16	244.88
737.49	244.71
737.82	244.52
738.15	244.36
738.48	244.18
738.81	243.99
739.14	243.80
739.47	243.62
739.80	243.44
740.13	243.28
740.46	243.08
740.79	242.87
741.12	242.69
741.45	242.48
741.78	242.20
742.11	242.08
742.44	241.86
742.77	241.71
743.10	241.52
743.43	241.35
743.75	240.99
744.08	241.10
744.41	240.93
744.74	240.77
745.07	240.58
745.40	240.47
745.73	240.40
746.06	240.26
746.39	240.15
746.71	239.99
747.04	239.83
747.37	239.68
747.70	239.57
748.03	239.44
748.36	239.34
748.68	239.20
749.01	239.02
749.34	238.90
749.67	238.76
750.00	238.66
750.33	238.67
750.65	238.56
750.98	238.16
751.31	238.05
751.64	237.94
751.97	237.92
752.29	237.78
752.62	237.57
752.95	237.44
753.28	237.29
753.60	237.17
753.93	237.09
754.26	236.99
754.59	236.82
754.91	236.69
755.24	236.55
755.57	236.44
755.90	236.33
756.22	236.19
756.55	236.05
756.88	235.90
757.20	235.66
757.53	235.51
757.86	235.39
758.19	235.30
758.51	235.19
758.84	234.99
759.17	234.87
759.49	234.79
759.82	234.77
760.15	234.69
760.47	234.60
760.80	234.45
761.13	234.38
761.45	234.29
761.78	234.20
762.11	234.11
762.43	234.00
762.76	233.90
763.08	233.84
763.41	233.77
763.74	233.70
764.06	233.61
764.39	233.54
764.71	233.45
765.04	233.34
765.37	233.25
765.69	233.17
766.02	233.09
766.34	233.00
766.67	232.84
767.00	232.80
767.32	232.82
767.65	232.86
767.97	232.77
768.30	232.71
768.62	232.64
768.95	232.55
769.27	232.48
769.60	232.44
769.92	232.35
770.25	232.25
770.57	232.15
770.90	232.08
771.22	232.01
771.55	231.95
771.87	231.90
772.20	231.84
772.52	231.93
772.85	232.09
773.17	232.05
773.50	231.98
773.82	231.89
774.15	231.74
774.47	231.57
774.80	231.50
775.12	231.44
775.45	231.39
775.77	231.35
776.09	231.31
776.42	231.26
776.74	231.27
777.07	231.21
777.39	231.18
777.72	231.12
778.04	231.10
778.36	231.03
778.69	230.99
779.01	230.96
779.33	230.76
779.66	230.51
779.98	230.45
780.31	230.42
780.63	230.46
780.95	230.45
781.28	230.41
781.60	230.35
781.92	230.31
782.25	230.27
782.57	230.23
782.89	230.18
783.22	230.12
783.54	230.05
783.86	230.03
784.19	229.98
784.51	230.00
784.83	229.94
785.16	229.90
785.48	229.87
785.80	229.83
786.12	229.81
786.45	229.78
786.77	229.76
787.09	229.71
787.42	229.61
787.74	229.57
788.06	229.55
788.38	229.52
788.71	229.48
789.03	229.46
789.35	229.45
789.67	229.40
789.99	229.38
790.32	229.33
790.64	229.32
790.96	229.47
791.28	229.37
791.61	229.34
791.93	229.33
792.25	229.29
792.57	229.38
792.89	229.33
793.21	229.31
793.54	229.27
793.86	229.22
794.18	229.21
794.50	229.15
794.82	229.12
795.14	229.12
795.47	229.13
795.79	229.11
796.11	229.04
796.43	229.02
796.75	228.99
797.07	228.98
797.39	228.94
797.71	228.76
798.04	228.75
798.36	228.74
798.68	228.71
799.00	228.70
799.32	228.59
799.64	228.60
799.96	228.57
800.28	228.59
800.60	228.57
800.92	228.56
801.24	228.54
801.56	228.53
801.89	228.49
802.21	228.48
802.53	228.43
802.85	228.45
803.17	228.52
803.49	228.46
803.81	228.43
804.13	228.40
804.45	228.36
804.77	228.35
805.09	228.33
805.41	228.30
805.73	228.24
806.05	228.18
806.37	228.15
806.69	228.11
807.01	228.07
807.33	228.07
807.65	227.98
807.97	228.05
808.28	228.00
808.60	227.98
808.92	227.93
809.24	228.03
809.56	227.98
809.88	227.90
810.20	227.90
810.52	227.92
810.84	227.88
811.16	227.86
811.48	227.83
811.80	227.88
812.12	227.87
812.43	227.89
812.75	227.89
813.07	227.86
813.39	227.86
813.71	227.82
814.03	227.79
814.35	227.79
814.67	227.71
814.98	227.68
815.30	227.67
815.62	227.63
815.94	227.50
816.26	227.51
816.58	227.46
816.89	227.47
817.21	227.41
817.53	227.42
817.85	227.41
818.17	227.40
818.48	227.31
818.80	227.33
819.12	227.29
819.44	227.25
819.76	227.21
820.07	227.20
820.39	227.19
820.71	227.20
821.03	227.19
821.34	227.17
821.66	227.19
821.98	227.19
822.30	227.18
822.61	227.28
822.93	227.24
823.25	227.23
823.57	227.20
823.88	227.22
824.20	227.20
824.52	227.22
824.83	227.21
825.15	227.18
825.47	227.16
825.79	227.17
826.10	227.15
826.42	227.14
826.74	227.15
827.05	227.14
827.37	227.13
827.69	227.11
828.00	227.11
828.32	227.10
828.64	227.06
828.95	227.16
829.27	227.09
829.58	227.08
829.90	227.10
830.22	227.11
830.53	227.07
830.85	227.05
831.17	226.99
831.48	226.98
831.80	226.98
832.11	226.96
832.43	226.93
832.75	226.92
833.06	227.02
833.38	226.97
833.69	226.95
834.01	226.95
834.32	226.93
834.64	226.91
834.96	226.90
835.27	226.90
835.59	226.82
835.90	226.79
836.22	226.78
836.53	226.74
836.85	226.71
837.16	226.89
837.48	226.88
837.79	226.94
838.11	226.94
838.42	226.93
838.74	226.95
839.05	226.93
839.37	226.92
839.68	226.80
840.00	226.80
840.31	226.82
840.63	226.80
840.94	226.78
841.26	226.76
841.57	226.74
841.88	226.75
842.20	226.72
842.51	226.69
842.83	226.68
843.14	226.84
843.46	226.83
843.77	226.72
844.08	226.71
844.40	226.65
844.71	226.63
845.03	226.60
845.34	226.58
845.65	226.58
845.97	226.58
846.28	226.59
846.60	226.59
846.91	226.56
847.22	226.55
847.54	226.59
847.85	226.60
848.16	226.59
848.48	226.55
848.79	226.61
849.10	226.63
849.42	226.64
849.73	226.47
850.04	226.47
850.36	226.40
850.67	226.43
850.98	226.44
851.30	226.45
851.61	226.45
851.92	226.44
852.23	226.49
852.55	226.50
852.86	226.50
853.17	226.51
853.49	226.55
853.80	226.58
854.11	226.58
854.42	226.60
854.74	226.58
855.05	226.59
855.36	226.49
855.67	226.49
855.99	226.49
856.30	226.70
856.61	226.69
856.92	226.70
857.23	226.70
857.55	226.67
857.86	226.66
858.17	226.68
858.48	226.65
858.79	226.61
859.11	226.62
859.42	226.61
859.73	226.58
860.04	226.57
860.35	226.51
860.66	226.45
860.98	226.44
861.29	226.46
861.60	226.45
861.91	226.49
862.22	226.46
862.53	226.42
862.84	226.21
863.16	226.24
863.47	226.21
863.78	226.19
864.09	226.20
864.40	226.21
864.71	226.20
865.02	226.23
865.33	226.21
865.64	226.17
865.95	226.17
866.27	226.29
866.58	226.26
866.89	226.29
867.20	226.29
867.51	226.26
867.82	226.25
868.13	226.30
868.44	226.26
868.75	226.29
869.06	226.30
869.37	226.32
869.68	226.27
869.99	226.30
870.30	226.31
870.61	226.32
870.92	226.29
871.23	226.28
871.54	226.29
871.85	226.33
872.16	226.36
872.47	226.34
872.78	226.24
873.09	226.25
873.40	226.23
873.71	226.24
874.02	226.26
874.33	226.24
874.64	226.20
874.95	226.24
875.26	226.20
875.56	226.19
875.87	226.18
876.18	226.17
876.49	226.35
876.80	226.33
877.11	226.30
877.42	226.31
877.73	226.31
878.04	226.28
878.35	226.27
878.66	226.27
878.96	226.27
879.27	226.26
879.58	226.24
879.89	226.24
880.20	226.28
880.51	226.27
880.82	226.28
881.12	226.28
881.43	226.24
881.74	226.22
882.05	226.21
882.36	226.22
882.67	226.24
882.97	226.04
883.28	226.02
883.59	226.02
883.90	226.03
884.21	226.06
884.51	226.05
884.82	226.02
885.13	226.01
885.44	226.01
885.74	226.01
886.05	226.01
886.36	226.01
886.67	225.94
886.98	226.03
887.28	226.05
887.59	226.05
887.90	226.05
888.20	226.05
888.51	226.09
888.82	226.06
889.13	226.07
889.43	226.23
889.74	226.22
890.05	226.22
890.35	226.19
890.66	226.16
890.97	226.14
891.28	226.13
891.58	226.13
891.89	226.13
892.20	226.11
892.50	226.09
892.81	226.08
893.12	226.08
893.42	225.98
893.73	225.99
894.04	225.99
894.34	226.00
894.65	225.99
894.95	225.97
895.26	225.98
895.57	226.06
895.87	225.88
896.18	225.91
896.48	225.92
896.79	225.92
897.10	225.95
897.40	225.96
897.71	225.99
898.01	225.98
898.32	226.00
898.63	226.00
898.93	226.01
899.24	226.02
899.54	226.01
899.85	226.01
900.15	226.00
900.46	225.99
900.76	226.00
901.07	226.01
901.38	226.00
901.68	226.02
901.99	225.92
902.29	225.93
902.60	225.92
902.90	225.90
903.21	225.90
903.51	225.88
903.82	225.91
904.12	225.91
904.43	225.92
904.73	225.91
905.03	225.91
905.34	226.09
905.64	226.08
905.95	226.08
906.25	226.08
906.56	226.07
906.86	226.07
907.17	226.05
907.47	226.06
907.77	226.04
908.08	226.01
908.38	226.02
908.69	226.03
908.99	226.06
909.30	226.07
909.60	226.07
909.90	226.06
910.21	226.01
910.51	225.98
910.81	225.98
911.12	225.99
911.42	225.99
911.73	225.81
912.03	225.82
912.33	225.85
912.64	225.84
912.94	225.82
913.24	225.79
913.55	225.78
913.85	225.77
914.15	225.80
914.46	225.83
914.76	225.81
915.06	225.79
915.37	225.75
915.67	225.74
915.97	225.74
916.27	225.72
916.58	225.73
916.88	225.73
917.18	225.71
917.49	225.83
917.79	225.82
918.09	225.85
918.39	225.89
918.70	225.87
919.00	225.88
919.30	225.97
919.60	225.96
919.91	225.94
920.21	225.95
920.51	225.91
920.81	225.90
921.12	225.93
921.42	225.93
921.72	225.94
922.02	225.95
922.32	225.98
922.63	225.99
922.93	226.09
923.23	226.10
923.53	226.08
923.83	225.96
924.13	225.98
924.44	225.97
924.74	226.00
925.04	226.04
925.34	226.03
925.64	225.96
925.94	225.96
926.24	226.07
926.55	226.05
926.85	226.08
927.15	226.08
927.45	226.07
927.75	226.07
928.05	226.07
928.35	226.06
928.65	226.08
928.95	226.10
929.26	226.01
929.56	226.04
929.86	226.07
930.16	226.06
930.46	226.04
930.76	226.05
931.06	225.96
931.36	225.91
931.66	225.94
931.96	225.96
932.26	225.97
932.56	225.89
932.86	225.91
933.16	225.90
933.46	225.89
933.76	225.86
934.06	225.89
934.36	225.95
934.66	225.94
934.96	225.92
935.26	225.92
935.56	225.95
935.86	225.90
936.16	225.88
936.46	225.86
936.76	225.86
937.06	225.83
937.36	225.84
937.66	225.85
937.96	225.84
938.26	225.80
938.56	225.79
938.86	225.79
939.16	225.82
939.46	225.84
939.76	225.85
940.06	225.85
940.35	225.82
940.65	225.72
940.95	225.74
941.25	225.70
941.55	225.67
941.85	225.65
942.15	225.69
942.45	225.74
942.75	225.74
943.04	225.75
943.34	225.78
943.64	225.76
943.94	225.73
944.24	225.73
944.54	225.75
944.84	225.74
945.13	225.72
945.43	225.68
945.73	225.67
946.03	225.66
946.33	225.64
946.62	225.63
946.92	225.62
947.22	225.63
947.52	225.65
947.82	225.67
948.11	225.65
948.41	225.61
948.71	225.56
949.01	225.58
949.31	225.56
949.60	225.54
949.90	225.57
950.20	225.57
950.50	225.56
950.79	225.55
951.09	225.58
951.39	225.58
951.69	225.56
951.98	225.59
952.28	225.60
952.58	225.60
952.87	225.61
953.17	225.64
953.47	225.61
953.76	225.61
954.06	225.58
954.36	225.55
954.66	225.56
954.95	225.61
955.25	225.62
955.55	225.63
955.84	225.60
956.14	225.61
956.44	225.63
956.73	225.60
957.03	225.62
957.32	225.61
957.62	225.61
957.92	225.65
958.21	225.63
958.51	225.83
958.81	225.86
959.10	225.88
959.40	225.91
959.69	225.92
959.99	225.95
960.29	225.96
960.58	225.96
960.88	226.03
961.17	226.00
961.47	226.02
961.76	226.00
962.06	226.04
962.36	226.02
962.65	226.03
962.95	226.04
963.24	226.02
963.54	226.02
963.83	226.04
964.13	226.02
964.42	226.00
964.72	225.85
965.01	225.85
965.31	225.84
965.60	225.79
965.90	225.91
966.19	225.87
966.49	225.88
966.78	225.87
967.08	225.85
967.37	225.85
967.67	225.82
967.96	225.85
968.26	225.84
968.55	225.87
968.85	225.86
969.14	225.86
969.43	225.86
969.73	225.84
970.02	225.83
970.32	225.82
970.61	225.79
970.91	225.74
971.20	225.71
971.49	225.70
971.79	225.72
972.08	225.59
972.38	225.61
972.67	225.59
972.96	225.62
973.26	225.59
973.55	225.65
973.85	225.64
974.14	225.62
974.43	225.63
974.73	225.60
975.02	225.58
975.31	225.59
975.61	225.59
975.90	225.57
976.19	225.56
976.49	225.57
976.78	225.59
977.07	225.59
977.37	225.61
977.66	225.63
977.95	225.60
978.24	225.61
978.54	225.65
978.83	225.63
979.12	225.62
979.42	225.62
979.71	225.58
980.00	225.57
980.29	225.58
980.59	225.55
980.88	225.60
981.17	225.60
981.46	225.60
981.76	225.60
982.05	225.66
982.34	225.67
982.63	225.67
982.93	225.67
983.22	225.71
983.51	225.72
983.80	225.74
984.09	225.76
984.39	225.75
984.68	225.72
984.97	225.73
985.26	225.72
985.55	225.73
985.85	225.70
986.14	225.73
986.43	225.75
986.72	225.74
987.01	225.68
987.30	225.68
987.59	225.67
987.89	225.67
988.18	225.62
988.47	225.60
988.76	225.58
989.05	225.57
989.34	225.54
989.63	225.59
989.92	225.56
990.22	225.53
990.51	225.53
990.80	225.52
991.09	225.53
991.38	225.55
991.67	225.53
991.96	225.52
992.25	225.52
992.54	225.48
992.83	225.48
993.12	225.48
993.41	225.51
993.70	225.58
993.99	225.61
994.28	225.64
994.58	225.67
994.87	225.65
995.16	225.65
995.45	225.63
995.74	225.56
996.03	225.59
996.32	225.62
996.61	225.66
996.90	225.66
997.19	225.65
997.48	225.65
997.77	225.64
998.06	225.65
998.34	225.63
998.63	225.64
998.92	225.64
999.21	225.67
999.50	225.67
999.79	225.61
1000.08	225.60
1000.37	225.60
1000.66	225.57
1000.95	225.62
1001.24	225.63
1001.53	225.66
1001.82	225.67
1002.11	225.62
1002.40	225.63
1002.68	225.67
1002.97	225.80
1003.26	225.78
1003.55	225.75
1003.84	225.76
1004.13	225.83
1004.42	225.82
1004.71	225.82
1004.99	225.81
1005.28	225.85
1005.57	225.84
1005.86	225.82
1006.15	225.80
1006.44	225.77
1006.72	225.79
1007.01	225.76
1007.30	225.77
1007.59	225.75
1007.88	225.74
1008.17	225.76
1008.45	225.72
1008.74	225.65
1009.03	225.57
1009.32	225.58
1009.60	225.57
1009.89	225.56
1010.18	225.49
1010.47	225.48
1010.76	225.47
1011.04	225.47
1011.33	225.47
1011.62	225.48
1011.91	225.50
1012.19	225.51
1012.48	225.52
1012.77	225.51
1013.05	225.58
1013.34	225.57
1013.63	225.56
1013.92	225.58
1014.20	225.57
1014.49	225.58
1014.78	225.60
1015.06	225.54
1015.35	225.54
1015.64	225.57
1015.92	225.59
1016.21	225.61
1016.50	225.61
1016.78	225.63
1017.07	225.64
1017.36	225.61
1017.64	225.58
1017.93	225.59
1018.22	225.57
1018.50	225.57
1018.79	225.57
1019.08	225.50
1019.36	225.51
1019.65	225.50
1019.93	225.54
1020.22	225.57
1020.51	225.66
1020.79	225.63
1021.08	225.30
1021.36	225.26
1021.65	225.56
1021.94	225.46
1022.22	225.70
1022.51	225.19
1022.79	226.40
1023.08	225.83
1023.36	227.65
1023.65	225.09
>>>>>End Processed Spectral Data<<<<<
