SpectraSuite Data File
++++++++++++++++++++++++++++++++++++
Date: Tue Oct 06 15:04:35 EDT 2015
User: lab3
Dark Spectrum Present: No
Reference Spectrum Present: No
Number of Sampled Component Spectra: 1
Spectrometers: USB2E7196
Integration Time (usec): 66000 (USB2E7196)
Spectra Averaged: 1000 (USB2E7196)
Boxcar Smoothing: 10 (USB2E7196)
Correct for Electrical Dark: No (USB2E7196)
Strobe/Lamp Enabled: No (USB2E7196)
Correct for Detector Non-linearity: No (USB2E7196)
Correct for Stray Light: No (USB2E7196)
Number of Pixels in Processed Spectrum: 2048
>>>>>Begin Processed Spectral Data<<<<<
339.09	0.00
339.48	215.06
339.86	216.71
340.24	218.14
340.63	219.40
341.01	223.47
341.39	222.26
341.78	223.80
342.16	224.97
342.54	225.23
342.93	213.66
343.31	224.44
343.69	224.98
344.07	225.44
344.46	225.87
344.84	226.27
345.22	226.46
345.60	226.72
345.99	226.91
346.37	227.04
346.75	227.15
347.13	227.24
347.52	227.32
347.90	227.42
348.28	227.47
348.66	227.54
349.05	227.52
349.43	227.60
349.81	227.66
350.19	227.72
350.57	227.79
350.96	227.88
351.34	227.99
351.72	228.09
352.10	228.20
352.48	228.26
352.87	228.31
353.25	228.38
353.63	228.44
354.01	228.49
354.39	228.57
354.77	228.64
355.15	228.75
355.54	228.80
355.92	228.81
356.30	228.88
356.68	229.06
357.06	229.12
357.44	229.16
357.82	229.22
358.20	229.43
358.58	229.48
358.97	229.54
359.35	229.63
359.73	229.73
360.11	229.78
360.49	229.84
360.87	229.89
361.25	229.97
361.63	230.08
362.01	230.14
362.39	230.16
362.77	230.22
363.15	230.24
363.53	230.28
363.91	230.32
364.29	230.36
364.67	230.21
365.05	230.25
365.43	230.29
365.81	230.34
366.19	230.29
366.57	230.38
366.95	230.39
367.33	230.35
367.71	230.36
368.09	230.40
368.47	230.40
368.85	230.39
369.23	230.41
369.61	230.33
369.99	230.37
370.37	230.39
370.75	230.51
371.13	230.47
371.51	230.42
371.89	230.42
372.27	230.40
372.65	230.38
373.03	230.34
373.41	230.29
373.78	230.23
374.16	230.10
374.54	230.00
374.92	229.94
375.30	229.90
375.68	229.83
376.06	229.78
376.44	229.72
376.82	229.68
377.19	229.63
377.57	229.59
377.95	229.48
378.33	229.41
378.71	229.19
379.09	229.16
379.47	229.14
379.84	229.06
380.22	229.00
380.60	228.94
380.98	228.90
381.36	228.86
381.73	228.80
382.11	228.79
382.49	228.77
382.87	228.71
383.25	228.67
383.62	228.83
384.00	228.76
384.38	228.72
384.76	228.74
385.13	228.76
385.51	228.72
385.89	228.67
386.27	228.65
386.64	228.65
387.02	228.60
387.40	228.56
387.78	228.55
388.15	228.52
388.53	228.48
388.91	228.46
389.29	228.43
389.66	228.43
390.04	228.39
390.42	228.39
390.79	228.39
391.17	228.38
391.55	228.17
391.92	228.16
392.30	228.19
392.68	228.14
393.05	228.12
393.43	228.12
393.81	228.15
394.18	228.13
394.56	228.13
394.94	228.19
395.31	228.20
395.69	228.27
396.06	228.32
396.44	228.36
396.82	228.39
397.19	228.52
397.57	228.54
397.95	228.61
398.32	228.62
398.70	228.69
399.07	228.78
399.45	228.84
399.82	228.93
400.20	228.98
400.58	229.07
400.95	229.10
401.33	229.23
401.70	229.44
402.08	229.59
402.45	229.73
402.83	229.90
403.20	230.07
403.58	230.20
403.95	230.41
404.33	230.63
404.71	230.85
405.08	231.15
405.46	231.39
405.83	231.66
406.21	231.96
406.58	232.29
406.96	232.63
407.33	233.00
407.70	233.41
408.08	233.98
408.45	234.47
408.83	235.01
409.20	235.52
409.58	235.98
409.95	236.59
410.33	237.28
410.70	237.92
411.08	238.66
411.45	239.46
411.82	240.28
412.20	241.21
412.57	242.32
412.95	243.21
413.32	244.35
413.69	245.53
414.07	246.78
414.44	248.15
414.82	249.54
415.19	251.18
415.56	252.86
415.94	254.60
416.31	256.56
416.68	258.51
417.06	260.77
417.43	262.89
417.81	265.35
418.18	267.84
418.55	270.56
418.93	273.40
419.30	276.37
419.67	279.51
420.04	282.75
420.42	286.12
420.79	290.02
421.16	293.97
421.54	297.96
421.91	302.14
422.28	306.48
422.66	311.15
423.03	315.61
423.40	320.26
423.77	325.26
424.15	330.35
424.52	335.65
424.89	341.37
425.26	347.05
425.64	352.31
426.01	358.23
426.38	364.28
426.75	370.50
427.13	376.85
427.50	383.50
427.87	390.38
428.24	397.33
428.61	403.99
428.99	411.15
429.36	419.03
429.73	426.54
430.10	434.03
430.47	441.70
430.85	449.62
431.22	458.09
431.59	466.74
431.96	475.20
432.33	484.61
432.70	493.55
433.08	504.15
433.45	514.14
433.82	523.99
434.19	535.02
434.56	545.87
434.93	556.42
435.30	566.88
435.68	578.79
436.05	590.41
436.42	602.00
436.79	612.64
437.16	624.16
437.53	636.54
437.90	648.95
438.27	661.08
438.64	674.18
439.01	686.08
439.38	697.04
439.75	707.63
440.13	719.68
440.50	731.16
440.87	740.34
441.24	750.39
441.61	761.43
441.98	769.53
442.35	779.22
442.72	789.07
443.09	798.47
443.46	804.63
443.83	809.28
444.20	813.18
444.57	818.84
444.94	822.22
445.31	825.63
445.68	828.57
446.05	830.81
446.42	830.57
446.79	830.09
447.16	829.68
447.53	829.33
447.90	825.82
448.27	822.41
448.64	817.07
449.01	813.45
449.37	805.88
449.74	799.09
450.11	790.21
450.48	780.45
450.85	770.66
451.22	762.19
451.59	753.94
451.96	746.51
452.33	735.60
452.70	725.92
453.07	714.19
453.43	702.49
453.80	691.06
454.17	680.10
454.54	669.96
454.91	658.52
455.28	647.73
455.65	637.54
456.02	626.81
456.38	618.17
456.75	607.07
457.12	598.09
457.49	589.03
457.86	580.43
458.23	572.89
458.59	564.56
458.96	556.00
459.33	548.45
459.70	540.75
460.07	534.89
460.43	527.98
460.80	521.51
461.17	515.84
461.54	509.76
461.91	504.06
462.27	498.28
462.64	493.54
463.01	488.12
463.38	482.67
463.74	477.78
464.11	473.42
464.48	469.45
464.85	465.18
465.21	461.90
465.58	458.29
465.95	454.17
466.32	450.87
466.68	447.66
467.05	444.40
467.42	441.25
467.78	437.88
468.15	434.77
468.52	432.49
468.88	429.47
469.25	426.74
469.62	424.53
469.98	422.16
470.35	420.02
470.72	418.09
471.08	416.14
471.45	414.48
471.82	412.63
472.18	410.73
472.55	409.48
472.92	407.92
473.28	406.71
473.65	405.40
474.02	404.16
474.38	403.12
474.75	402.50
475.11	401.64
475.48	401.21
475.85	400.75
476.21	400.51
476.58	400.31
476.94	400.47
477.31	400.52
477.67	400.60
478.04	400.91
478.41	401.35
478.77	401.95
479.14	402.31
479.50	403.09
479.87	404.07
480.23	405.05
480.60	406.00
480.96	406.95
481.33	408.38
481.69	409.79
482.06	411.19
482.42	412.47
482.79	414.09
483.15	415.95
483.52	418.06
483.88	420.06
484.25	422.19
484.61	424.43
484.98	426.85
485.34	429.57
485.71	432.39
486.07	435.40
486.44	438.38
486.80	441.75
487.17	445.19
487.53	448.94
487.90	452.81
488.26	457.07
488.62	461.53
488.99	465.97
489.35	470.66
489.72	475.71
490.08	481.02
490.44	486.42
490.81	492.08
491.17	497.88
491.54	504.08
491.90	510.45
492.26	517.24
492.63	524.30
492.99	531.69
493.36	539.28
493.72	547.26
494.08	555.42
494.45	563.94
494.81	572.87
495.17	582.02
495.54	591.70
495.90	601.79
496.26	612.07
496.63	622.63
496.99	633.57
497.35	645.01
497.72	656.71
498.08	668.80
498.44	681.16
498.80	694.22
499.17	707.60
499.53	721.40
499.89	735.63
500.26	750.02
500.62	764.74
500.98	780.27
501.34	795.86
501.71	812.18
502.07	828.79
502.43	845.80
502.79	863.04
503.16	880.81
503.52	898.74
503.88	917.12
504.24	935.98
504.60	955.01
504.97	974.61
505.33	994.64
505.69	1015.68
506.05	1036.81
506.41	1057.89
506.78	1079.12
507.14	1100.97
507.50	1123.33
507.86	1146.05
508.22	1168.91
508.59	1191.49
508.95	1215.11
509.31	1239.19
509.67	1263.94
510.03	1288.64
510.39	1313.28
510.75	1338.04
511.12	1363.05
511.48	1388.14
511.84	1413.19
512.20	1438.48
512.56	1464.65
512.92	1490.77
513.28	1516.32
513.64	1542.27
514.00	1568.46
514.37	1594.94
514.73	1621.36
515.09	1646.99
515.45	1672.90
515.81	1699.01
516.17	1724.82
516.53	1749.95
516.89	1775.12
517.25	1800.32
517.61	1825.37
517.97	1850.84
518.33	1875.65
518.69	1900.42
519.05	1925.45
519.41	1950.56
519.77	1975.64
520.13	1999.59
520.49	2023.59
520.85	2047.89
521.21	2071.57
521.57	2095.54
521.93	2118.39
522.29	2142.02
522.65	2165.27
523.01	2188.35
523.37	2210.89
523.73	2234.16
524.09	2257.03
524.45	2279.44
524.81	2301.39
525.17	2322.89
525.53	2343.87
525.89	2365.34
526.25	2386.19
526.61	2405.85
526.97	2425.38
527.33	2444.81
527.68	2463.62
528.04	2481.94
528.40	2498.97
528.76	2516.49
529.12	2533.39
529.48	2550.87
529.84	2565.93
530.20	2581.65
530.56	2596.32
530.91	2611.01
531.27	2625.10
531.63	2638.47
531.99	2651.24
532.35	2663.55
532.71	2675.48
533.07	2687.75
533.42	2698.18
533.78	2709.03
534.14	2720.54
534.50	2731.01
534.86	2741.99
535.21	2750.83
535.57	2759.58
535.93	2768.48
536.29	2775.84
536.65	2782.95
537.00	2788.26
537.36	2794.37
537.72	2799.51
538.08	2804.17
538.44	2807.58
538.79	2811.07
539.15	2813.36
539.51	2815.45
539.87	2816.53
540.22	2815.89
540.58	2815.28
540.94	2815.40
541.29	2814.53
541.65	2812.06
542.01	2809.44
542.37	2805.27
542.72	2802.95
543.08	2798.95
543.44	2795.03
543.79	2790.01
544.15	2784.46
544.51	2779.65
544.87	2773.69
545.22	2766.90
545.58	2759.97
545.94	2753.51
546.29	2745.63
546.65	2737.68
547.01	2729.53
547.36	2721.72
547.72	2714.25
548.07	2705.34
548.43	2695.43
548.79	2684.88
549.14	2674.94
549.50	2665.16
549.86	2654.59
550.21	2642.29
550.57	2631.06
550.92	2617.90
551.28	2605.47
551.64	2593.43
551.99	2580.97
552.35	2568.33
552.70	2555.52
553.06	2543.33
553.41	2530.75
553.77	2517.48
554.13	2504.49
554.48	2490.62
554.84	2476.01
555.19	2462.16
555.55	2448.12
555.90	2434.16
556.26	2421.04
556.61	2406.74
556.97	2391.20
557.32	2376.06
557.68	2361.30
558.03	2346.25
558.39	2332.12
558.74	2318.53
559.10	2303.14
559.45	2288.18
559.81	2274.08
560.16	2259.55
560.52	2244.75
560.87	2230.08
561.23	2215.18
561.58	2200.62
561.94	2185.64
562.29	2170.47
562.64	2155.23
563.00	2140.15
563.35	2125.52
563.71	2110.29
564.06	2095.27
564.42	2080.74
564.77	2066.21
565.12	2051.72
565.48	2037.17
565.83	2022.88
566.19	2008.69
566.54	1994.65
566.89	1979.77
567.25	1964.40
567.60	1949.99
567.96	1934.93
568.31	1918.62
568.66	1903.20
569.02	1888.42
569.37	1874.16
569.72	1860.33
570.08	1846.11
570.43	1831.39
570.78	1816.31
571.14	1801.16
571.49	1786.15
571.84	1771.72
572.20	1756.23
572.55	1741.27
572.90	1726.15
573.26	1710.97
573.61	1695.09
573.96	1679.79
574.31	1664.74
574.67	1649.88
575.02	1634.58
575.37	1619.19
575.72	1604.46
576.08	1589.79
576.43	1574.52
576.78	1559.36
577.13	1544.21
577.49	1529.50
577.84	1515.13
578.19	1500.42
578.54	1485.69
578.90	1470.97
579.25	1456.07
579.60	1442.23
579.95	1428.14
580.30	1414.10
580.66	1399.85
581.01	1385.92
581.36	1372.06
581.71	1358.62
582.06	1345.01
582.42	1331.34
582.77	1318.25
583.12	1305.38
583.47	1292.36
583.82	1279.70
584.17	1266.67
584.53	1253.73
584.88	1240.95
585.23	1228.06
585.58	1215.53
585.93	1203.04
586.28	1191.39
586.63	1179.49
586.98	1167.40
587.34	1155.65
587.69	1143.68
588.04	1132.13
588.39	1120.80
588.74	1109.11
589.09	1097.59
589.44	1085.86
589.79	1074.66
590.14	1063.42
590.49	1052.34
590.84	1041.56
591.19	1030.77
591.54	1020.10
591.89	1009.13
592.25	998.50
592.60	987.81
592.95	977.37
593.30	967.08
593.65	956.47
594.00	946.28
594.35	936.84
594.70	926.84
595.05	917.51
595.40	907.95
595.75	898.15
596.10	888.92
596.45	879.65
596.80	870.74
597.15	861.88
597.50	853.11
597.85	844.54
598.19	835.83
598.54	827.14
598.89	818.85
599.24	811.06
599.59	803.09
599.94	795.62
600.29	788.07
600.64	780.53
600.99	772.95
601.34	765.51
601.69	757.55
602.04	750.36
602.39	743.09
602.74	736.02
603.08	729.08
603.43	722.17
603.78	715.28
604.13	708.53
604.48	701.80
604.83	695.26
605.18	688.80
605.53	682.55
605.87	676.28
606.22	670.11
606.57	663.85
606.92	657.55
607.27	651.31
607.62	645.33
607.96	639.49
608.31	634.02
608.66	628.46
609.01	623.19
609.36	617.93
609.70	612.56
610.05	607.24
610.40	602.08
610.75	596.95
611.10	592.01
611.44	587.02
611.79	582.19
612.14	577.29
612.49	572.44
612.83	567.81
613.18	563.27
613.53	558.76
613.88	554.31
614.22	550.15
614.57	545.89
614.92	541.72
615.27	537.65
615.61	533.58
615.96	529.58
616.31	525.53
616.65	521.60
617.00	517.83
617.35	514.07
617.70	510.37
618.04	506.73
618.39	503.19
618.74	499.85
619.08	496.46
619.43	493.18
619.78	489.87
620.12	486.55
620.47	483.43
620.82	480.35
621.16	477.32
621.51	474.36
621.85	471.45
622.20	468.57
622.55	465.71
622.89	462.90
623.24	460.22
623.59	457.59
623.93	455.01
624.28	452.57
624.62	450.32
624.97	448.06
625.32	445.70
625.66	443.29
626.01	440.87
626.35	438.57
626.70	436.22
627.04	434.05
627.39	431.84
627.73	429.71
628.08	427.68
628.43	425.67
628.77	423.55
629.12	421.56
629.46	419.65
629.81	417.86
630.15	415.96
630.50	414.08
630.84	412.29
631.19	410.55
631.53	408.87
631.88	407.01
632.22	405.24
632.57	403.77
632.91	402.29
633.26	400.90
633.60	399.51
633.95	398.18
634.29	396.74
634.64	395.36
634.98	393.83
635.32	392.41
635.67	391.13
636.01	389.88
636.36	388.65
636.70	387.55
637.05	386.25
637.39	385.11
637.73	383.96
638.08	382.88
638.42	381.81
638.77	380.61
639.11	379.40
639.45	378.23
639.80	376.99
640.14	375.84
640.49	374.67
640.83	373.47
641.17	372.34
641.52	371.24
641.86	370.17
642.20	369.28
642.55	368.22
642.89	367.16
643.23	366.16
643.58	365.27
643.92	364.22
644.26	363.26
644.61	362.33
644.95	361.39
645.29	360.36
645.64	359.31
645.98	358.35
646.32	357.49
646.66	356.61
647.01	355.73
647.35	354.92
647.69	354.08
648.04	353.32
648.38	352.49
648.72	351.73
649.06	350.95
649.41	350.10
649.75	349.31
650.09	348.57
650.43	347.79
650.78	346.99
651.12	346.21
651.46	345.45
651.80	344.72
652.14	344.00
652.49	343.35
652.83	342.66
653.17	341.94
653.51	341.26
653.85	340.65
654.20	340.00
654.54	339.25
654.88	338.55
655.22	337.90
655.56	337.20
655.90	336.52
656.25	335.84
656.59	335.20
656.93	334.62
657.27	334.06
657.61	333.44
657.95	332.84
658.29	332.26
658.64	331.68
658.98	331.05
659.32	330.45
659.66	329.87
660.00	329.32
660.34	328.81
660.68	328.22
661.02	327.55
661.36	326.93
661.70	326.37
662.05	325.82
662.39	325.26
662.73	324.79
663.07	324.34
663.41	323.84
663.75	323.28
664.09	322.74
664.43	322.08
664.77	321.52
665.11	320.92
665.45	320.37
665.79	319.84
666.13	319.28
666.47	318.73
666.81	318.14
667.15	317.53
667.49	317.01
667.83	316.55
668.17	316.08
668.51	315.65
668.85	315.22
669.19	314.83
669.53	314.29
669.87	313.75
670.21	313.20
670.55	312.72
670.89	312.34
671.23	311.87
671.57	311.49
671.91	311.11
672.25	310.75
672.58	310.40
672.92	309.94
673.26	309.57
673.60	309.19
673.94	308.80
674.28	308.45
674.62	308.05
674.96	307.60
675.30	307.20
675.64	306.74
675.97	306.27
676.31	305.76
676.65	305.31
676.99	304.96
677.33	304.51
677.67	304.09
678.01	303.57
678.34	303.14
678.68	302.70
679.02	302.22
679.36	301.76
679.70	301.27
680.04	300.85
680.37	300.42
680.71	300.01
681.05	299.61
681.39	299.14
681.73	298.65
682.06	298.21
682.40	297.78
682.74	297.42
683.08	297.10
683.42	296.71
683.75	296.35
684.09	295.84
684.43	295.43
684.77	294.99
685.10	294.58
685.44	294.16
685.78	293.75
686.12	293.34
686.45	292.92
686.79	292.49
687.13	292.09
687.46	291.62
687.80	291.18
688.14	290.70
688.48	290.28
688.81	289.86
689.15	289.51
689.49	289.06
689.82	288.60
690.16	288.05
690.50	287.59
690.83	287.15
691.17	286.72
691.51	286.29
691.84	285.90
692.18	285.48
692.52	285.03
692.85	284.59
693.19	284.22
693.52	283.79
693.86	283.36
694.20	282.92
694.53	282.51
694.87	282.06
695.21	281.62
695.54	281.18
695.88	280.74
696.21	280.25
696.55	279.81
696.88	279.37
697.22	278.94
697.56	278.53
697.89	278.06
698.23	277.63
698.56	277.19
698.90	276.78
699.23	276.33
699.57	275.92
699.90	275.49
700.24	275.03
700.58	274.63
700.91	274.26
701.25	274.03
701.58	273.72
701.92	273.39
702.25	273.01
702.59	272.62
702.92	272.24
703.26	271.84
703.59	271.45
703.93	271.24
704.26	270.87
704.60	270.48
704.93	270.09
705.26	269.70
705.60	269.36
705.93	268.92
706.27	268.62
706.60	268.30
706.94	268.00
707.27	267.61
707.61	267.25
707.94	266.85
708.27	266.31
708.61	265.85
708.94	265.44
709.28	265.08
709.61	264.72
709.94	264.37
710.28	264.05
710.61	263.74
710.95	263.24
711.28	263.03
711.61	262.69
711.95	262.40
712.28	262.07
712.61	261.73
712.95	261.52
713.28	261.26
713.61	260.89
713.95	260.53
714.28	260.23
714.61	259.89
714.95	259.59
715.28	259.28
715.61	258.99
715.95	258.72
716.28	258.41
716.61	258.15
716.95	257.83
717.28	257.53
717.61	257.22
717.94	256.93
718.28	256.52
718.61	256.24
718.94	255.93
719.27	255.66
719.61	255.41
719.94	255.09
720.27	254.71
720.60	254.45
720.94	254.18
721.27	253.93
721.60	253.70
721.93	253.43
722.27	253.22
722.60	252.99
722.93	252.73
723.26	252.50
723.59	252.24
723.93	252.02
724.26	251.81
724.59	251.56
724.92	251.35
725.25	251.18
725.59	250.96
725.92	250.76
726.25	250.53
726.58	250.31
726.91	250.08
727.24	249.89
727.57	249.66
727.91	249.42
728.24	249.23
728.57	249.01
728.90	248.84
729.23	248.58
729.56	248.46
729.89	248.26
730.22	248.05
730.55	247.85
730.89	247.66
731.22	247.45
731.55	247.25
731.88	247.06
732.21	246.84
732.54	246.64
732.87	246.45
733.20	246.28
733.53	246.09
733.86	245.92
734.19	245.73
734.52	245.59
734.85	245.55
735.18	245.35
735.51	245.24
735.84	245.08
736.17	244.97
736.50	244.72
736.83	244.76
737.16	244.59
737.49	244.42
737.82	244.24
738.15	244.11
738.48	243.96
738.81	243.79
739.14	243.63
739.47	243.46
739.80	243.30
740.13	243.15
740.46	242.98
740.79	242.80
741.12	242.65
741.45	242.46
741.78	242.21
742.11	242.10
742.44	241.90
742.77	241.75
743.10	241.57
743.43	241.41
743.75	241.06
744.08	241.18
744.41	241.03
744.74	240.89
745.07	240.69
745.40	240.59
745.73	240.53
746.06	240.41
746.39	240.31
746.71	240.16
747.04	240.02
747.37	239.89
747.70	239.78
748.03	239.66
748.36	239.57
748.68	239.44
749.01	239.26
749.34	239.15
749.67	239.03
750.00	238.95
750.33	238.95
750.65	238.85
750.98	238.48
751.31	238.38
751.64	238.29
751.97	238.27
752.29	238.13
752.62	237.93
752.95	237.80
753.28	237.66
753.60	237.54
753.93	237.46
754.26	237.38
754.59	237.21
754.91	237.08
755.24	236.96
755.57	236.85
755.90	236.75
756.22	236.62
756.55	236.48
756.88	236.33
757.20	236.11
757.53	235.96
757.86	235.86
758.19	235.76
758.51	235.65
758.84	235.47
759.17	235.37
759.49	235.30
759.82	235.30
760.15	235.22
760.47	235.12
760.80	234.99
761.13	234.92
761.45	234.85
761.78	234.77
762.11	234.68
762.43	234.59
762.76	234.51
763.08	234.45
763.41	234.39
763.74	234.33
764.06	234.24
764.39	234.17
764.71	234.10
765.04	234.00
765.37	233.91
765.69	233.85
766.02	233.77
766.34	233.67
766.67	233.53
767.00	233.50
767.32	233.52
767.65	233.56
767.97	233.47
768.30	233.42
768.62	233.36
768.95	233.28
769.27	233.22
769.60	233.18
769.92	233.09
770.25	232.99
770.57	232.90
770.90	232.85
771.22	232.78
771.55	232.72
771.87	232.68
772.20	232.62
772.52	232.72
772.85	232.89
773.17	232.85
773.50	232.79
773.82	232.70
774.15	232.56
774.47	232.39
774.80	232.33
775.12	232.27
775.45	232.21
775.77	232.17
776.09	232.13
776.42	232.07
776.74	232.09
777.07	232.04
777.39	232.02
777.72	231.97
778.04	231.94
778.36	231.89
778.69	231.86
779.01	231.83
779.33	231.64
779.66	231.40
779.98	231.34
780.31	231.31
780.63	231.35
780.95	231.34
781.28	231.31
781.60	231.27
781.92	231.23
782.25	231.20
782.57	231.17
782.89	231.12
783.22	231.07
783.54	230.99
783.86	230.98
784.19	230.93
784.51	230.96
784.83	230.90
785.16	230.86
785.48	230.83
785.80	230.80
786.12	230.79
786.45	230.74
786.77	230.72
787.09	230.68
787.42	230.57
787.74	230.56
788.06	230.54
788.38	230.50
788.71	230.46
789.03	230.44
789.35	230.43
789.67	230.39
789.99	230.38
790.32	230.34
790.64	230.34
790.96	230.48
791.28	230.38
791.61	230.36
791.93	230.36
792.25	230.32
792.57	230.43
792.89	230.36
793.21	230.36
793.54	230.33
793.86	230.30
794.18	230.29
794.50	230.24
794.82	230.21
795.14	230.21
795.47	230.23
795.79	230.22
796.11	230.16
796.43	230.14
796.75	230.10
797.07	230.09
797.39	230.05
797.71	229.88
798.04	229.87
798.36	229.85
798.68	229.83
799.00	229.82
799.32	229.69
799.64	229.71
799.96	229.68
800.28	229.69
800.60	229.66
800.92	229.66
801.24	229.62
801.56	229.62
801.89	229.58
802.21	229.56
802.53	229.50
802.85	229.53
803.17	229.59
803.49	229.55
803.81	229.51
804.13	229.49
804.45	229.45
804.77	229.44
805.09	229.42
805.41	229.39
805.73	229.35
806.05	229.29
806.37	229.26
806.69	229.23
807.01	229.20
807.33	229.20
807.65	229.12
807.97	229.19
808.28	229.14
808.60	229.13
808.92	229.08
809.24	229.18
809.56	229.13
809.88	229.06
810.20	229.05
810.52	229.07
810.84	229.04
811.16	229.01
811.48	228.99
811.80	229.04
812.12	229.02
812.43	229.04
812.75	229.03
813.07	229.01
813.39	229.00
813.71	228.96
814.03	228.93
814.35	228.94
814.67	228.84
814.98	228.83
815.30	228.82
815.62	228.78
815.94	228.66
816.26	228.67
816.58	228.62
816.89	228.63
817.21	228.57
817.53	228.57
817.85	228.57
818.17	228.57
818.48	228.49
818.80	228.51
819.12	228.46
819.44	228.43
819.76	228.40
820.07	228.39
820.39	228.38
820.71	228.36
821.03	228.35
821.34	228.34
821.66	228.35
821.98	228.35
822.30	228.34
822.61	228.43
822.93	228.40
823.25	228.38
823.57	228.35
823.88	228.36
824.20	228.37
824.52	228.38
824.83	228.35
825.15	228.32
825.47	228.29
825.79	228.30
826.10	228.29
826.42	228.28
826.74	228.28
827.05	228.27
827.37	228.28
827.69	228.27
828.00	228.27
828.32	228.25
828.64	228.22
828.95	228.32
829.27	228.26
829.58	228.25
829.90	228.28
830.22	228.29
830.53	228.26
830.85	228.22
831.17	228.16
831.48	228.17
831.80	228.17
832.11	228.15
832.43	228.14
832.75	228.12
833.06	228.23
833.38	228.17
833.69	228.15
834.01	228.15
834.32	228.13
834.64	228.11
834.96	228.11
835.27	228.11
835.59	228.04
835.90	228.02
836.22	228.01
836.53	227.96
836.85	227.93
837.16	228.12
837.48	228.13
837.79	228.19
838.11	228.18
838.42	228.18
838.74	228.20
839.05	228.17
839.37	228.17
839.68	228.05
840.00	228.06
840.31	228.08
840.63	228.05
840.94	228.03
841.26	228.02
841.57	228.01
841.88	228.02
842.20	227.98
842.51	227.94
842.83	227.95
843.14	228.10
843.46	228.11
843.77	227.98
844.08	227.97
844.40	227.91
844.71	227.89
845.03	227.86
845.34	227.84
845.65	227.84
845.97	227.83
846.28	227.84
846.60	227.84
846.91	227.81
847.22	227.80
847.54	227.85
847.85	227.85
848.16	227.84
848.48	227.80
848.79	227.87
849.10	227.89
849.42	227.89
849.73	227.72
850.04	227.70
850.36	227.64
850.67	227.68
850.98	227.67
851.30	227.68
851.61	227.68
851.92	227.68
852.23	227.74
852.55	227.75
852.86	227.76
853.17	227.77
853.49	227.81
853.80	227.85
854.11	227.85
854.42	227.88
854.74	227.85
855.05	227.86
855.36	227.76
855.67	227.75
855.99	227.74
856.30	227.95
856.61	227.94
856.92	227.95
857.23	227.95
857.55	227.93
857.86	227.92
858.17	227.94
858.48	227.91
858.79	227.86
859.11	227.87
859.42	227.85
859.73	227.82
860.04	227.80
860.35	227.74
860.66	227.69
860.98	227.67
861.29	227.69
861.60	227.68
861.91	227.72
862.22	227.70
862.53	227.68
862.84	227.47
863.16	227.51
863.47	227.47
863.78	227.44
864.09	227.45
864.40	227.45
864.71	227.45
865.02	227.48
865.33	227.46
865.64	227.43
865.95	227.42
866.27	227.53
866.58	227.52
866.89	227.54
867.20	227.54
867.51	227.51
867.82	227.50
868.13	227.56
868.44	227.53
868.75	227.56
869.06	227.57
869.37	227.59
869.68	227.55
869.99	227.58
870.30	227.59
870.61	227.62
870.92	227.61
871.23	227.60
871.54	227.61
871.85	227.65
872.16	227.68
872.47	227.68
872.78	227.57
873.09	227.59
873.40	227.57
873.71	227.58
874.02	227.59
874.33	227.57
874.64	227.52
874.95	227.55
875.26	227.51
875.56	227.50
875.87	227.48
876.18	227.48
876.49	227.66
876.80	227.64
877.11	227.60
877.42	227.60
877.73	227.60
878.04	227.56
878.35	227.55
878.66	227.55
878.96	227.55
879.27	227.54
879.58	227.54
879.89	227.53
880.20	227.58
880.51	227.57
880.82	227.58
881.12	227.59
881.43	227.55
881.74	227.53
882.05	227.52
882.36	227.53
882.67	227.55
882.97	227.35
883.28	227.34
883.59	227.33
883.90	227.35
884.21	227.37
884.51	227.36
884.82	227.34
885.13	227.32
885.44	227.31
885.74	227.32
886.05	227.30
886.36	227.30
886.67	227.22
886.98	227.30
887.28	227.32
887.59	227.31
887.90	227.32
888.20	227.31
888.51	227.34
888.82	227.31
889.13	227.31
889.43	227.47
889.74	227.46
890.05	227.45
890.35	227.42
890.66	227.38
890.97	227.37
891.28	227.35
891.58	227.36
891.89	227.36
892.20	227.34
892.50	227.32
892.81	227.30
893.12	227.31
893.42	227.22
893.73	227.22
894.04	227.21
894.34	227.22
894.65	227.21
894.95	227.19
895.26	227.20
895.57	227.28
895.87	227.09
896.18	227.12
896.48	227.14
896.79	227.14
897.10	227.17
897.40	227.18
897.71	227.20
898.01	227.18
898.32	227.20
898.63	227.19
898.93	227.19
899.24	227.20
899.54	227.18
899.85	227.19
900.15	227.18
900.46	227.18
900.76	227.20
901.07	227.20
901.38	227.19
901.68	227.21
901.99	227.11
902.29	227.13
902.60	227.10
902.90	227.09
903.21	227.08
903.51	227.06
903.82	227.10
904.12	227.09
904.43	227.10
904.73	227.09
905.03	227.11
905.34	227.29
905.64	227.28
905.95	227.29
906.25	227.29
906.56	227.30
906.86	227.29
907.17	227.27
907.47	227.27
907.77	227.26
908.08	227.22
908.38	227.24
908.69	227.25
908.99	227.28
909.30	227.30
909.60	227.31
909.90	227.30
910.21	227.25
910.51	227.24
910.81	227.25
911.12	227.25
911.42	227.25
911.73	227.06
912.03	227.07
912.33	227.11
912.64	227.08
912.94	227.05
913.24	227.02
913.55	227.01
913.85	227.01
914.15	227.05
914.46	227.07
914.76	227.05
915.06	227.04
915.37	227.00
915.67	226.99
915.97	226.99
916.27	226.96
916.58	226.98
916.88	226.95
917.18	226.93
917.49	227.05
917.79	227.04
918.09	227.08
918.39	227.12
918.70	227.10
919.00	227.12
919.30	227.21
919.60	227.20
919.91	227.19
920.21	227.19
920.51	227.15
920.81	227.14
921.12	227.16
921.42	227.16
921.72	227.18
922.02	227.19
922.32	227.21
922.63	227.23
922.93	227.32
923.23	227.34
923.53	227.32
923.83	227.20
924.13	227.22
924.44	227.22
924.74	227.24
925.04	227.28
925.34	227.28
925.64	227.20
925.94	227.19
926.24	227.30
926.55	227.28
926.85	227.32
927.15	227.32
927.45	227.32
927.75	227.31
928.05	227.32
928.35	227.29
928.65	227.31
928.95	227.32
929.26	227.25
929.56	227.28
929.86	227.30
930.16	227.29
930.46	227.27
930.76	227.27
931.06	227.19
931.36	227.14
931.66	227.15
931.96	227.17
932.26	227.19
932.56	227.10
932.86	227.12
933.16	227.11
933.46	227.09
933.76	227.06
934.06	227.10
934.36	227.15
934.66	227.15
934.96	227.13
935.26	227.15
935.56	227.15
935.86	227.11
936.16	227.07
936.46	227.06
936.76	227.06
937.06	227.03
937.36	227.05
937.66	227.07
937.96	227.08
938.26	227.04
938.56	227.03
938.86	227.05
939.16	227.10
939.46	227.11
939.76	227.13
940.06	227.12
940.35	227.09
940.65	227.01
940.95	227.01
941.25	226.96
941.55	226.93
941.85	226.94
942.15	226.99
942.45	227.04
942.75	227.03
943.04	227.04
943.34	227.09
943.64	227.07
943.94	227.05
944.24	227.05
944.54	227.06
944.84	227.05
945.13	227.02
945.43	226.97
945.73	226.96
946.03	226.93
946.33	226.92
946.62	226.90
946.92	226.89
947.22	226.92
947.52	226.94
947.82	226.96
948.11	226.93
948.41	226.88
948.71	226.84
949.01	226.85
949.31	226.84
949.60	226.82
949.90	226.85
950.20	226.84
950.50	226.82
950.79	226.81
951.09	226.85
951.39	226.84
951.69	226.83
951.98	226.87
952.28	226.89
952.58	226.89
952.87	226.88
953.17	226.91
953.47	226.89
953.76	226.89
954.06	226.85
954.36	226.83
954.66	226.83
954.95	226.87
955.25	226.89
955.55	226.89
955.84	226.85
956.14	226.86
956.44	226.88
956.73	226.85
957.03	226.86
957.32	226.86
957.62	226.85
957.92	226.89
958.21	226.88
958.51	227.08
958.81	227.10
959.10	227.13
959.40	227.15
959.69	227.17
959.99	227.18
960.29	227.19
960.58	227.19
960.88	227.26
961.17	227.24
961.47	227.25
961.76	227.23
962.06	227.28
962.36	227.25
962.65	227.25
962.95	227.26
963.24	227.24
963.54	227.25
963.83	227.25
964.13	227.23
964.42	227.21
964.72	227.05
965.01	227.06
965.31	227.05
965.60	227.02
965.90	227.12
966.19	227.09
966.49	227.10
966.78	227.10
967.08	227.08
967.37	227.07
967.67	227.03
967.96	227.08
968.26	227.07
968.55	227.09
968.85	227.09
969.14	227.09
969.43	227.08
969.73	227.07
970.02	227.07
970.32	227.06
970.61	227.03
970.91	226.99
971.20	226.96
971.49	226.94
971.79	226.95
972.08	226.84
972.38	226.86
972.67	226.84
972.96	226.87
973.26	226.84
973.55	226.90
973.85	226.89
974.14	226.87
974.43	226.88
974.73	226.85
975.02	226.83
975.31	226.82
975.61	226.83
975.90	226.81
976.19	226.81
976.49	226.82
976.78	226.84
977.07	226.84
977.37	226.84
977.66	226.87
977.95	226.84
978.24	226.85
978.54	226.89
978.83	226.87
979.12	226.86
979.42	226.86
979.71	226.82
980.00	226.83
980.29	226.83
980.59	226.79
980.88	226.84
981.17	226.85
981.46	226.86
981.76	226.87
982.05	226.93
982.34	226.94
982.63	226.94
982.93	226.93
983.22	226.97
983.51	227.00
983.80	227.01
984.09	227.04
984.39	227.03
984.68	227.01
984.97	227.03
985.26	227.02
985.55	227.03
985.85	227.00
986.14	227.02
986.43	227.04
986.72	227.03
987.01	226.97
987.30	226.97
987.59	226.95
987.89	226.95
988.18	226.89
988.47	226.86
988.76	226.84
989.05	226.83
989.34	226.80
989.63	226.84
989.92	226.82
990.22	226.79
990.51	226.78
990.80	226.76
991.09	226.78
991.38	226.80
991.67	226.77
991.96	226.76
992.25	226.76
992.54	226.73
992.83	226.73
993.12	226.74
993.41	226.76
993.70	226.84
993.99	226.88
994.28	226.90
994.58	226.94
994.87	226.93
995.16	226.94
995.45	226.92
995.74	226.86
996.03	226.89
996.32	226.92
996.61	226.95
996.90	226.96
997.19	226.94
997.48	226.95
997.77	226.93
998.06	226.95
998.34	226.94
998.63	226.93
998.92	226.94
999.21	226.97
999.50	226.95
999.79	226.89
1000.08	226.88
1000.37	226.88
1000.66	226.86
1000.95	226.90
1001.24	226.91
1001.53	226.95
1001.82	226.95
1002.11	226.91
1002.40	226.92
1002.68	226.96
1002.97	227.09
1003.26	227.08
1003.55	227.05
1003.84	227.07
1004.13	227.12
1004.42	227.11
1004.71	227.12
1004.99	227.11
1005.28	227.17
1005.57	227.15
1005.86	227.15
1006.15	227.13
1006.44	227.10
1006.72	227.14
1007.01	227.10
1007.30	227.09
1007.59	227.07
1007.88	227.07
1008.17	227.09
1008.45	227.05
1008.74	226.99
1009.03	226.90
1009.32	226.90
1009.60	226.89
1009.89	226.88
1010.18	226.81
1010.47	226.81
1010.76	226.81
1011.04	226.81
1011.33	226.79
1011.62	226.81
1011.91	226.82
1012.19	226.84
1012.48	226.85
1012.77	226.83
1013.05	226.90
1013.34	226.91
1013.63	226.90
1013.92	226.91
1014.20	226.90
1014.49	226.90
1014.78	226.92
1015.06	226.88
1015.35	226.87
1015.64	226.91
1015.92	226.94
1016.21	226.95
1016.50	226.95
1016.78	226.97
1017.07	226.98
1017.36	226.95
1017.64	226.93
1017.93	226.95
1018.22	226.93
1018.50	226.93
1018.79	226.92
1019.08	226.86
1019.36	226.87
1019.65	226.84
1019.93	226.89
1020.22	226.91
1020.51	227.00
1020.79	226.97
1021.08	226.74
1021.36	226.58
1021.65	226.81
1021.94	226.88
1022.22	227.05
1022.51	226.41
1022.79	227.81
1023.08	227.01
1023.36	228.92
1023.65	226.45
>>>>>End Processed Spectral Data<<<<<
