SpectraSuite Data File
++++++++++++++++++++++++++++++++++++
Date: Tue Oct 06 17:21:34 EDT 2015
User: lab3
Dark Spectrum Present: No
Reference Spectrum Present: No
Number of Sampled Component Spectra: 1
Spectrometers: USB2E7196
Integration Time (usec): 66000 (USB2E7196)
Spectra Averaged: 1000 (USB2E7196)
Boxcar Smoothing: 10 (USB2E7196)
Correct for Electrical Dark: No (USB2E7196)
Strobe/Lamp Enabled: No (USB2E7196)
Correct for Detector Non-linearity: No (USB2E7196)
Correct for Stray Light: No (USB2E7196)
Number of Pixels in Processed Spectrum: 2048
>>>>>Begin Processed Spectral Data<<<<<
339.09	0.00
339.48	215.06
339.86	216.93
340.24	217.96
340.63	219.50
341.01	223.46
341.39	222.00
341.78	223.71
342.16	225.02
342.54	225.27
342.93	213.67
343.31	224.46
343.69	225.00
344.07	225.45
344.46	225.89
344.84	226.30
345.22	226.51
345.60	226.80
345.99	227.00
346.37	227.14
346.75	227.25
347.13	227.34
347.52	227.43
347.90	227.56
348.28	227.61
348.66	227.70
349.05	227.70
349.43	227.77
349.81	227.85
350.19	227.92
350.57	228.01
350.96	228.11
351.34	228.22
351.72	228.32
352.10	228.45
352.48	228.52
352.87	228.57
353.25	228.62
353.63	228.67
354.01	228.74
354.39	228.81
354.77	228.90
355.15	229.01
355.54	229.06
355.92	229.05
356.30	229.13
356.68	229.30
357.06	229.38
357.44	229.42
357.82	229.48
358.20	229.70
358.58	229.76
358.97	229.82
359.35	229.92
359.73	230.03
360.11	230.08
360.49	230.14
360.87	230.20
361.25	230.27
361.63	230.37
362.01	230.42
362.39	230.45
362.77	230.50
363.15	230.52
363.53	230.55
363.91	230.59
364.29	230.61
364.67	230.46
365.05	230.49
365.43	230.52
365.81	230.56
366.19	230.51
366.57	230.58
366.95	230.58
367.33	230.52
367.71	230.51
368.09	230.54
368.47	230.53
368.85	230.52
369.23	230.53
369.61	230.46
369.99	230.50
370.37	230.51
370.75	230.62
371.13	230.60
371.51	230.55
371.89	230.55
372.27	230.53
372.65	230.52
373.03	230.48
373.41	230.44
373.78	230.38
374.16	230.24
374.54	230.15
374.92	230.11
375.30	230.08
375.68	230.00
376.06	229.96
376.44	229.90
376.82	229.86
377.19	229.82
377.57	229.78
377.95	229.67
378.33	229.61
378.71	229.40
379.09	229.35
379.47	229.32
379.84	229.26
380.22	229.19
380.60	229.12
380.98	229.08
381.36	229.04
381.73	228.97
382.11	228.97
382.49	228.93
382.87	228.86
383.25	228.82
383.62	229.00
384.00	228.93
384.38	228.90
384.76	228.90
385.13	228.91
385.51	228.88
385.89	228.83
386.27	228.81
386.64	228.82
387.02	228.76
387.40	228.72
387.78	228.70
388.15	228.69
388.53	228.66
388.91	228.62
389.29	228.59
389.66	228.60
390.04	228.56
390.42	228.56
390.79	228.57
391.17	228.56
391.55	228.35
391.92	228.34
392.30	228.35
392.68	228.31
393.05	228.29
393.43	228.30
393.81	228.32
394.18	228.30
394.56	228.30
394.94	228.35
395.31	228.37
395.69	228.45
396.06	228.50
396.44	228.54
396.82	228.59
397.19	228.72
397.57	228.75
397.95	228.82
398.32	228.83
398.70	228.89
399.07	228.98
399.45	229.05
399.82	229.12
400.20	229.18
400.58	229.28
400.95	229.30
401.33	229.43
401.70	229.65
402.08	229.79
402.45	229.93
402.83	230.11
403.20	230.29
403.58	230.42
403.95	230.62
404.33	230.85
404.71	231.06
405.08	231.36
405.46	231.60
405.83	231.88
406.21	232.17
406.58	232.51
406.96	232.83
407.33	233.19
407.70	233.62
408.08	234.19
408.45	234.69
408.83	235.23
409.20	235.73
409.58	236.19
409.95	236.82
410.33	237.49
410.70	238.14
411.08	238.88
411.45	239.69
411.82	240.52
412.20	241.45
412.57	242.55
412.95	243.45
413.32	244.58
413.69	245.76
414.07	247.02
414.44	248.38
414.82	249.79
415.19	251.44
415.56	253.11
415.94	254.86
416.31	256.81
416.68	258.79
417.06	261.06
417.43	263.18
417.81	265.62
418.18	268.13
418.55	270.85
418.93	273.70
419.30	276.68
419.67	279.82
420.04	283.05
420.42	286.44
420.79	290.34
421.16	294.31
421.54	298.30
421.91	302.49
422.28	306.85
422.66	311.54
423.03	315.99
423.40	320.67
423.77	325.67
424.15	330.81
424.52	336.13
424.89	341.88
425.26	347.60
425.64	352.89
426.01	358.83
426.38	364.90
426.75	371.16
427.13	377.56
427.50	384.28
427.87	391.25
428.24	398.28
428.61	405.00
428.99	412.24
429.36	420.20
429.73	427.81
430.10	435.39
430.47	443.15
430.85	451.18
431.22	459.73
431.59	468.49
431.96	477.05
432.33	486.56
432.70	495.63
433.08	506.34
433.45	516.46
433.82	526.48
434.19	537.66
434.56	548.69
434.93	559.38
435.30	569.98
435.68	582.01
436.05	593.77
436.42	605.55
436.79	616.32
437.16	628.02
437.53	640.50
437.90	653.00
438.27	665.29
438.64	678.54
439.01	690.61
439.38	701.67
439.75	712.36
440.13	724.50
440.50	736.06
440.87	745.37
441.24	755.52
441.61	766.65
441.98	774.90
442.35	784.68
442.72	794.60
443.09	804.06
443.46	810.21
443.83	814.89
444.20	818.78
444.57	824.38
444.94	827.69
445.31	831.13
445.68	834.06
446.05	836.23
446.42	835.90
446.79	835.27
447.16	834.78
447.53	834.34
447.90	830.74
448.27	827.30
448.64	821.81
449.01	818.06
449.37	810.28
449.74	803.24
450.11	794.16
450.48	784.19
450.85	774.17
451.22	765.53
451.59	757.04
451.96	749.34
452.33	738.24
452.70	728.36
453.07	716.43
453.43	704.50
453.80	692.87
454.17	681.73
454.54	671.46
454.91	659.86
455.28	648.92
455.65	638.59
456.02	627.63
456.38	618.87
456.75	607.63
457.12	598.58
457.49	589.44
457.86	580.78
458.23	573.13
458.59	564.74
458.96	556.15
459.33	548.59
459.70	540.88
460.07	535.01
460.43	528.10
460.80	521.61
461.17	515.98
461.54	509.89
461.91	504.20
462.27	498.39
462.64	493.66
463.01	488.26
463.38	482.80
463.74	477.88
464.11	473.49
464.48	469.53
464.85	465.27
465.21	461.97
465.58	458.32
465.95	454.21
466.32	450.93
466.68	447.70
467.05	444.46
467.42	441.32
467.78	437.94
468.15	434.84
468.52	432.57
468.88	429.58
469.25	426.85
469.62	424.64
469.98	422.28
470.35	420.15
470.72	418.22
471.08	416.30
471.45	414.67
471.82	412.86
472.18	410.95
472.55	409.72
472.92	408.19
473.28	407.01
473.65	405.73
474.02	404.51
474.38	403.50
474.75	402.89
475.11	402.05
475.48	401.67
475.85	401.24
476.21	400.99
476.58	400.81
476.94	400.99
477.31	401.05
477.67	401.13
478.04	401.46
478.41	401.89
478.77	402.49
479.14	402.89
479.50	403.68
479.87	404.69
480.23	405.67
480.60	406.62
480.96	407.58
481.33	409.02
481.69	410.43
482.06	411.82
482.42	413.12
482.79	414.74
483.15	416.62
483.52	418.74
483.88	420.76
484.25	422.91
484.61	425.15
484.98	427.61
485.34	430.33
485.71	433.19
486.07	436.26
486.44	439.28
486.80	442.68
487.17	446.17
487.53	449.97
487.90	453.94
488.26	458.25
488.62	462.79
488.99	467.35
489.35	472.12
489.72	477.24
490.08	482.63
490.44	488.13
490.81	493.88
491.17	499.80
491.54	506.13
491.90	512.60
492.26	519.50
492.63	526.75
492.99	534.34
493.36	542.07
493.72	550.20
494.08	558.56
494.45	567.28
494.81	576.40
495.17	585.77
495.54	595.66
495.90	605.99
496.26	616.51
496.63	627.31
496.99	638.51
497.35	650.26
497.72	662.27
498.08	674.65
498.44	687.33
498.80	700.70
499.17	714.39
499.53	728.54
499.89	743.13
500.26	757.89
500.62	772.99
500.98	788.96
501.34	804.95
501.71	821.76
502.07	838.87
502.43	856.45
502.79	874.25
503.16	892.56
503.52	911.08
503.88	930.01
504.24	949.41
504.60	969.09
504.97	989.37
505.33	1010.11
505.69	1031.89
506.05	1053.90
506.41	1075.82
506.78	1097.87
507.14	1120.51
507.50	1143.66
507.86	1167.20
508.22	1190.96
508.59	1214.57
508.95	1239.27
509.31	1264.41
509.67	1290.20
510.03	1315.90
510.39	1341.53
510.75	1367.26
511.12	1393.35
511.48	1419.55
511.84	1445.75
512.20	1472.23
512.56	1499.78
512.92	1527.20
513.28	1554.02
513.64	1581.22
514.00	1608.78
514.37	1636.61
514.73	1664.47
515.09	1691.58
515.45	1719.06
515.81	1746.71
516.17	1774.06
516.53	1800.75
516.89	1827.26
517.25	1854.03
517.61	1880.65
517.97	1907.88
518.33	1934.46
518.69	1960.93
519.05	1987.91
519.41	2014.99
519.77	2042.06
520.13	2067.65
520.49	2093.21
520.85	2119.15
521.21	2144.55
521.57	2170.26
521.93	2194.92
522.29	2220.16
522.65	2245.29
523.01	2270.08
523.37	2294.16
523.73	2318.96
524.09	2343.48
524.45	2367.64
524.81	2391.14
525.17	2414.45
525.53	2437.01
525.89	2459.96
526.25	2482.52
526.61	2503.47
526.97	2524.39
527.33	2545.19
527.68	2565.65
528.04	2585.80
528.40	2604.62
528.76	2623.58
529.12	2642.07
529.48	2661.17
529.84	2677.48
530.20	2694.19
530.56	2710.04
530.91	2726.12
531.27	2741.60
531.63	2756.10
531.99	2770.38
532.35	2784.39
532.71	2797.85
533.07	2811.64
533.42	2823.58
533.78	2835.72
534.14	2848.80
534.50	2860.75
534.86	2873.24
535.21	2883.62
535.57	2893.76
535.93	2903.74
536.29	2911.95
536.65	2920.02
537.00	2926.57
537.36	2934.56
537.72	2941.50
538.08	2947.87
538.44	2953.05
538.79	2958.05
539.15	2961.68
539.51	2964.60
539.87	2966.24
540.22	2966.32
540.58	2966.62
540.94	2967.79
541.29	2967.76
541.65	2966.37
542.01	2964.54
542.37	2961.08
542.72	2959.17
543.08	2955.73
543.44	2952.45
543.79	2948.66
544.15	2944.09
544.51	2939.75
544.87	2934.24
545.22	2927.93
545.58	2921.44
545.94	2915.16
546.29	2907.32
546.65	2899.74
547.01	2892.20
547.36	2885.19
547.72	2878.32
548.07	2869.75
548.43	2859.98
548.79	2850.01
549.14	2840.29
549.50	2830.74
549.86	2820.27
550.21	2808.24
550.57	2797.20
550.92	2784.37
551.28	2772.08
551.64	2760.10
551.99	2747.76
552.35	2735.10
552.70	2722.12
553.06	2709.68
553.41	2696.84
553.77	2683.65
554.13	2670.56
554.48	2656.33
554.84	2641.20
555.19	2626.70
555.55	2612.04
555.90	2597.87
556.26	2583.99
556.61	2569.01
556.97	2553.00
557.32	2537.43
557.68	2522.15
558.03	2506.59
558.39	2491.98
558.74	2478.00
559.10	2462.07
559.45	2446.42
559.81	2431.44
560.16	2416.20
560.52	2400.72
560.87	2385.35
561.23	2369.66
561.58	2354.48
561.94	2338.89
562.29	2322.85
562.64	2306.86
563.00	2291.04
563.35	2275.40
563.71	2259.37
564.06	2243.44
564.42	2228.14
564.77	2212.85
565.12	2197.25
565.48	2181.43
565.83	2165.89
566.19	2150.28
566.54	2134.96
566.89	2119.05
567.25	2103.08
567.60	2087.93
567.96	2072.00
568.31	2054.86
568.66	2038.69
569.02	2023.11
569.37	2008.06
569.72	1993.60
570.08	1978.70
570.43	1963.19
570.78	1947.49
571.14	1931.58
571.49	1915.80
571.84	1900.27
572.20	1883.58
572.55	1867.70
572.90	1851.91
573.26	1836.10
573.61	1819.64
573.96	1803.76
574.31	1787.72
574.67	1771.46
575.02	1754.92
575.37	1738.42
575.72	1722.72
576.08	1706.76
576.43	1690.14
576.78	1673.70
577.13	1657.52
577.49	1641.54
577.84	1626.07
578.19	1610.08
578.54	1594.11
578.90	1578.12
579.25	1562.00
579.60	1547.06
579.95	1531.90
580.30	1516.63
580.66	1501.12
581.01	1485.71
581.36	1470.37
581.71	1455.84
582.06	1441.33
582.42	1426.64
582.77	1412.46
583.12	1398.50
583.47	1384.50
583.82	1370.64
584.17	1356.34
584.53	1342.10
584.88	1328.24
585.23	1314.15
585.58	1300.50
585.93	1286.79
586.28	1274.05
586.63	1261.13
586.98	1247.86
587.34	1234.93
587.69	1221.86
588.04	1209.15
588.39	1196.72
588.74	1183.90
589.09	1171.23
589.44	1158.27
589.79	1145.92
590.14	1133.62
590.49	1121.38
590.84	1109.37
591.19	1097.67
591.54	1086.06
591.89	1074.07
592.25	1062.39
592.60	1050.67
592.95	1039.09
593.30	1027.88
593.65	1016.38
594.00	1005.15
594.35	994.82
594.70	983.80
595.05	973.43
595.40	962.87
595.75	952.13
596.10	942.06
596.45	931.96
596.80	922.24
597.15	912.47
597.50	902.74
597.85	893.26
598.19	883.75
598.54	874.26
598.89	865.33
599.24	856.77
599.59	847.99
599.94	839.89
600.29	831.81
600.64	823.59
600.99	815.24
601.34	807.19
601.69	798.60
602.04	790.91
602.39	783.09
602.74	775.46
603.08	768.00
603.43	760.55
603.78	753.03
604.13	745.60
604.48	738.27
604.83	731.12
605.18	724.04
605.53	717.14
605.87	710.22
606.22	703.38
606.57	696.49
606.92	689.56
607.27	682.65
607.62	675.91
607.96	669.41
608.31	663.38
608.66	657.25
609.01	651.42
609.36	645.55
609.70	639.66
610.05	633.77
610.40	628.06
610.75	622.29
611.10	616.82
611.44	611.35
611.79	605.99
612.14	600.54
612.49	595.18
612.83	590.09
613.18	585.05
613.53	580.01
613.88	575.14
614.22	570.59
614.57	565.94
614.92	561.40
615.27	557.01
615.61	552.52
615.96	548.07
616.31	543.61
616.65	539.30
617.00	535.12
617.35	531.01
617.70	526.90
618.04	522.94
618.39	519.05
618.74	515.41
619.08	511.72
619.43	508.18
619.78	504.56
620.12	500.93
620.47	497.52
620.82	494.21
621.16	490.90
621.51	487.64
621.85	484.40
622.20	481.21
622.55	478.01
622.89	474.85
623.24	471.87
623.59	468.94
623.93	466.11
624.28	463.39
624.62	460.88
624.97	458.39
625.32	455.80
625.66	453.18
626.01	450.52
626.35	448.04
626.70	445.46
627.04	443.15
627.39	440.77
627.73	438.46
628.08	436.20
628.43	433.97
628.77	431.65
629.12	429.45
629.46	427.39
629.81	425.45
630.15	423.41
630.50	421.39
630.84	419.45
631.19	417.52
631.53	415.66
631.88	413.64
632.22	411.72
632.57	410.06
632.91	408.38
633.26	406.80
633.60	405.20
633.95	403.70
634.29	402.05
634.64	400.48
634.98	398.79
635.32	397.27
635.67	395.90
636.01	394.53
636.36	393.21
636.70	391.96
637.05	390.54
637.39	389.29
637.73	388.03
638.08	386.83
638.42	385.68
638.77	384.41
639.11	383.11
639.45	381.84
639.80	380.52
640.14	379.28
640.49	378.04
640.83	376.79
641.17	375.57
641.52	374.39
641.86	373.26
642.20	372.27
642.55	371.11
642.89	369.95
643.23	368.88
643.58	367.92
643.92	366.80
644.26	365.78
644.61	364.80
644.95	363.79
645.29	362.70
645.64	361.59
645.98	360.59
646.32	359.69
646.66	358.75
647.01	357.85
647.35	357.03
647.69	356.15
648.04	355.36
648.38	354.52
648.72	353.71
649.06	352.90
649.41	352.04
649.75	351.23
650.09	350.47
650.43	349.67
650.78	348.83
651.12	348.05
651.46	347.26
651.80	346.49
652.14	345.76
652.49	345.11
652.83	344.37
653.17	343.62
653.51	342.91
653.85	342.30
654.20	341.62
654.54	340.84
654.88	340.12
655.22	339.46
655.56	338.77
655.90	338.09
656.25	337.42
656.59	336.79
656.93	336.18
657.27	335.62
657.61	334.98
657.95	334.40
658.29	333.79
658.64	333.23
658.98	332.60
659.32	331.98
659.66	331.40
660.00	330.86
660.34	330.33
660.68	329.74
661.02	329.08
661.36	328.49
661.70	327.93
662.05	327.38
662.39	326.83
662.73	326.35
663.07	325.94
663.41	325.46
663.75	324.93
664.09	324.41
664.43	323.77
664.77	323.26
665.11	322.67
665.45	322.14
665.79	321.64
666.13	321.11
666.47	320.57
666.81	319.99
667.15	319.39
667.49	318.90
667.83	318.47
668.17	318.03
668.51	317.59
668.85	317.19
669.19	316.83
669.53	316.28
669.87	315.74
670.21	315.17
670.55	314.65
670.89	314.24
671.23	313.79
671.57	313.40
671.91	313.04
672.25	312.69
672.58	312.34
672.92	311.90
673.26	311.56
673.60	311.19
673.94	310.82
674.28	310.49
674.62	310.12
674.96	309.66
675.30	309.26
675.64	308.82
675.97	308.33
676.31	307.85
676.65	307.42
676.99	307.09
677.33	306.65
677.67	306.26
678.01	305.77
678.34	305.35
678.68	304.95
679.02	304.50
679.36	304.05
679.70	303.60
680.04	303.21
680.37	302.78
680.71	302.38
681.05	302.02
681.39	301.58
681.73	301.12
682.06	300.69
682.40	300.29
682.74	299.93
683.08	299.64
683.42	299.26
683.75	298.92
684.09	298.44
684.43	298.05
684.77	297.63
685.10	297.24
685.44	296.82
685.78	296.42
686.12	296.00
686.45	295.58
686.79	295.12
687.13	294.71
687.46	294.25
687.80	293.83
688.14	293.34
688.48	292.92
688.81	292.48
689.15	292.11
689.49	291.66
689.82	291.22
690.16	290.67
690.50	290.20
690.83	289.74
691.17	289.27
691.51	288.83
691.84	288.44
692.18	288.01
692.52	287.54
692.85	287.09
693.19	286.71
693.52	286.27
693.86	285.82
694.20	285.38
694.53	284.94
694.87	284.48
695.21	284.02
695.54	283.59
695.88	283.14
696.21	282.64
696.55	282.18
696.88	281.73
697.22	281.31
697.56	280.90
697.89	280.43
698.23	280.02
698.56	279.58
698.90	279.15
699.23	278.70
699.57	278.28
699.90	277.85
700.24	277.38
700.58	276.98
700.91	276.63
701.25	276.38
701.58	276.05
701.92	275.71
702.25	275.33
702.59	274.91
702.92	274.51
703.26	274.09
703.59	273.69
703.93	273.43
704.26	273.04
704.60	272.65
704.93	272.25
705.26	271.84
705.60	271.48
705.93	271.05
706.27	270.73
706.60	270.41
706.94	270.08
707.27	269.67
707.61	269.27
707.94	268.84
708.27	268.29
708.61	267.84
708.94	267.41
709.28	267.03
709.61	266.66
709.94	266.32
710.28	265.99
710.61	265.66
710.95	265.15
711.28	264.92
711.61	264.56
711.95	264.25
712.28	263.90
712.61	263.53
712.95	263.27
713.28	262.99
713.61	262.61
713.95	262.24
714.28	261.93
714.61	261.58
714.95	261.26
715.28	260.93
715.61	260.62
715.95	260.34
716.28	260.03
716.61	259.75
716.95	259.43
717.28	259.12
717.61	258.81
717.94	258.52
718.28	258.10
718.61	257.80
718.94	257.48
719.27	257.19
719.61	256.93
719.94	256.62
720.27	256.25
720.60	255.96
720.94	255.70
721.27	255.43
721.60	255.20
721.93	254.93
722.27	254.72
722.60	254.47
722.93	254.18
723.26	253.93
723.59	253.65
723.93	253.42
724.26	253.18
724.59	252.93
724.92	252.70
725.25	252.51
725.59	252.29
725.92	252.07
726.25	251.85
726.58	251.60
726.91	251.36
727.24	251.14
727.57	250.89
727.91	250.62
728.24	250.42
728.57	250.18
728.90	249.96
729.23	249.69
729.56	249.54
729.89	249.33
730.22	249.11
730.55	248.89
730.89	248.68
731.22	248.47
731.55	248.27
731.88	248.06
732.21	247.83
732.54	247.62
732.87	247.43
733.20	247.25
733.53	247.08
733.86	246.90
734.19	246.70
734.52	246.56
734.85	246.53
735.18	246.32
735.51	246.21
735.84	246.04
736.17	245.92
736.50	245.65
736.83	245.69
737.16	245.51
737.49	245.35
737.82	245.17
738.15	245.02
738.48	244.83
738.81	244.67
739.14	244.49
739.47	244.31
739.80	244.15
740.13	244.00
740.46	243.81
740.79	243.62
741.12	243.45
741.45	243.26
741.78	243.00
742.11	242.88
742.44	242.67
742.77	242.54
743.10	242.35
743.43	242.19
743.75	241.86
744.08	241.97
744.41	241.81
744.74	241.65
745.07	241.47
745.40	241.37
745.73	241.29
746.06	241.16
746.39	241.04
746.71	240.88
747.04	240.72
747.37	240.57
747.70	240.46
748.03	240.35
748.36	240.25
748.68	240.13
749.01	239.95
749.34	239.83
749.67	239.71
750.00	239.61
750.33	239.62
750.65	239.51
750.98	239.13
751.31	239.01
751.64	238.92
751.97	238.88
752.29	238.75
752.62	238.54
752.95	238.42
753.28	238.27
753.60	238.15
753.93	238.08
754.26	237.99
754.59	237.83
754.91	237.70
755.24	237.56
755.57	237.44
755.90	237.33
756.22	237.19
756.55	237.05
756.88	236.92
757.20	236.69
757.53	236.53
757.86	236.42
758.19	236.34
758.51	236.23
758.84	236.05
759.17	235.93
759.49	235.85
759.82	235.84
760.15	235.77
760.47	235.67
760.80	235.52
761.13	235.44
761.45	235.35
761.78	235.25
762.11	235.18
762.43	235.07
762.76	234.98
763.08	234.93
763.41	234.86
763.74	234.78
764.06	234.70
764.39	234.64
764.71	234.56
765.04	234.45
765.37	234.36
765.69	234.29
766.02	234.21
766.34	234.12
766.67	233.97
767.00	233.94
767.32	233.97
767.65	234.00
767.97	233.92
768.30	233.86
768.62	233.80
768.95	233.70
769.27	233.62
769.60	233.58
769.92	233.47
770.25	233.38
770.57	233.29
770.90	233.23
771.22	233.15
771.55	233.09
771.87	233.05
772.20	232.98
772.52	233.07
772.85	233.22
773.17	233.16
773.50	233.09
773.82	233.00
774.15	232.85
774.47	232.69
774.80	232.63
775.12	232.58
775.45	232.52
775.77	232.48
776.09	232.45
776.42	232.40
776.74	232.41
777.07	232.35
777.39	232.32
777.72	232.25
778.04	232.23
778.36	232.17
778.69	232.13
779.01	232.10
779.33	231.91
779.66	231.67
779.98	231.63
780.31	231.61
780.63	231.65
780.95	231.64
781.28	231.61
781.60	231.55
781.92	231.51
782.25	231.48
782.57	231.45
782.89	231.39
783.22	231.34
783.54	231.27
783.86	231.27
784.19	231.22
784.51	231.25
784.83	231.19
785.16	231.16
785.48	231.13
785.80	231.09
786.12	231.08
786.45	231.05
786.77	231.02
787.09	230.97
787.42	230.86
787.74	230.84
788.06	230.82
788.38	230.79
788.71	230.76
789.03	230.73
789.35	230.71
789.67	230.67
789.99	230.67
790.32	230.62
790.64	230.61
790.96	230.75
791.28	230.67
791.61	230.63
791.93	230.62
792.25	230.57
792.57	230.68
792.89	230.63
793.21	230.61
793.54	230.57
793.86	230.53
794.18	230.52
794.50	230.46
794.82	230.42
795.14	230.42
795.47	230.43
795.79	230.41
796.11	230.36
796.43	230.34
796.75	230.31
797.07	230.31
797.39	230.27
797.71	230.10
798.04	230.09
798.36	230.09
798.68	230.07
799.00	230.06
799.32	229.95
799.64	229.96
799.96	229.94
800.28	229.96
800.60	229.93
800.92	229.93
801.24	229.90
801.56	229.90
801.89	229.87
802.21	229.85
802.53	229.80
802.85	229.81
803.17	229.87
803.49	229.82
803.81	229.79
804.13	229.76
804.45	229.72
804.77	229.72
805.09	229.71
805.41	229.68
805.73	229.63
806.05	229.56
806.37	229.53
806.69	229.48
807.01	229.44
807.33	229.43
807.65	229.36
807.97	229.42
808.28	229.37
808.60	229.34
808.92	229.30
809.24	229.40
809.56	229.35
809.88	229.27
810.20	229.26
810.52	229.28
810.84	229.23
811.16	229.20
811.48	229.16
811.80	229.20
812.12	229.18
812.43	229.21
812.75	229.21
813.07	229.18
813.39	229.19
813.71	229.15
814.03	229.11
814.35	229.11
814.67	229.02
814.98	228.99
815.30	228.97
815.62	228.94
815.94	228.80
816.26	228.82
816.58	228.77
816.89	228.78
817.21	228.72
817.53	228.72
817.85	228.72
818.17	228.69
818.48	228.61
818.80	228.63
819.12	228.58
819.44	228.54
819.76	228.51
820.07	228.50
820.39	228.48
820.71	228.49
821.03	228.48
821.34	228.46
821.66	228.48
821.98	228.50
822.30	228.48
822.61	228.59
822.93	228.56
823.25	228.55
823.57	228.53
823.88	228.54
824.20	228.54
824.52	228.55
824.83	228.54
825.15	228.51
825.47	228.49
825.79	228.51
826.10	228.49
826.42	228.48
826.74	228.47
827.05	228.46
827.37	228.45
827.69	228.44
828.00	228.44
828.32	228.42
828.64	228.40
828.95	228.49
829.27	228.43
829.58	228.41
829.90	228.43
830.22	228.43
830.53	228.39
830.85	228.36
831.17	228.31
831.48	228.31
831.80	228.31
832.11	228.29
832.43	228.25
832.75	228.25
833.06	228.35
833.38	228.30
833.69	228.30
834.01	228.30
834.32	228.29
834.64	228.27
834.96	228.26
835.27	228.25
835.59	228.18
835.90	228.14
836.22	228.16
836.53	228.11
836.85	228.09
837.16	228.27
837.48	228.27
837.79	228.33
838.11	228.32
838.42	228.32
838.74	228.34
839.05	228.32
839.37	228.31
839.68	228.19
840.00	228.18
840.31	228.20
840.63	228.17
840.94	228.15
841.26	228.13
841.57	228.12
841.88	228.13
842.20	228.09
842.51	228.05
842.83	228.05
843.14	228.20
843.46	228.19
843.77	228.08
844.08	228.06
844.40	228.00
844.71	227.99
845.03	227.98
845.34	227.94
845.65	227.94
845.97	227.95
846.28	227.96
846.60	227.97
846.91	227.93
847.22	227.92
847.54	227.96
847.85	227.97
848.16	227.96
848.48	227.91
848.79	227.99
849.10	228.00
849.42	228.00
849.73	227.84
850.04	227.83
850.36	227.76
850.67	227.80
850.98	227.80
851.30	227.81
851.61	227.79
851.92	227.79
852.23	227.84
852.55	227.84
852.86	227.84
853.17	227.85
853.49	227.89
853.80	227.92
854.11	227.93
854.42	227.95
854.74	227.93
855.05	227.94
855.36	227.85
855.67	227.85
855.99	227.85
856.30	228.05
856.61	228.05
856.92	228.06
857.23	228.06
857.55	228.04
857.86	228.02
858.17	228.04
858.48	228.01
858.79	227.97
859.11	227.99
859.42	227.98
859.73	227.96
860.04	227.94
860.35	227.89
860.66	227.83
860.98	227.83
861.29	227.86
861.60	227.84
861.91	227.88
862.22	227.85
862.53	227.82
862.84	227.61
863.16	227.64
863.47	227.61
863.78	227.58
864.09	227.60
864.40	227.61
864.71	227.61
865.02	227.63
865.33	227.60
865.64	227.56
865.95	227.56
866.27	227.67
866.58	227.65
866.89	227.69
867.20	227.68
867.51	227.65
867.82	227.63
868.13	227.69
868.44	227.65
868.75	227.69
869.06	227.71
869.37	227.73
869.68	227.68
869.99	227.71
870.30	227.72
870.61	227.73
870.92	227.70
871.23	227.69
871.54	227.71
871.85	227.76
872.16	227.77
872.47	227.75
872.78	227.64
873.09	227.66
873.40	227.64
873.71	227.66
874.02	227.67
874.33	227.64
874.64	227.59
874.95	227.63
875.26	227.59
875.56	227.59
875.87	227.57
876.18	227.56
876.49	227.74
876.80	227.72
877.11	227.69
877.42	227.70
877.73	227.71
878.04	227.68
878.35	227.67
878.66	227.68
878.96	227.68
879.27	227.68
879.58	227.66
879.89	227.64
880.20	227.68
880.51	227.68
880.82	227.68
881.12	227.69
881.43	227.65
881.74	227.63
882.05	227.61
882.36	227.62
882.67	227.64
882.97	227.45
883.28	227.43
883.59	227.42
883.90	227.44
884.21	227.47
884.51	227.46
884.82	227.44
885.13	227.43
885.44	227.44
885.74	227.43
886.05	227.42
886.36	227.43
886.67	227.36
886.98	227.45
887.28	227.46
887.59	227.46
887.90	227.46
888.20	227.46
888.51	227.50
888.82	227.46
889.13	227.46
889.43	227.62
889.74	227.61
890.05	227.60
890.35	227.56
890.66	227.52
890.97	227.49
891.28	227.48
891.58	227.48
891.89	227.47
892.20	227.46
892.50	227.45
892.81	227.43
893.12	227.43
893.42	227.34
893.73	227.34
894.04	227.34
894.34	227.36
894.65	227.35
894.95	227.32
895.26	227.33
895.57	227.41
895.87	227.23
896.18	227.27
896.48	227.28
896.79	227.29
897.10	227.32
897.40	227.34
897.71	227.35
898.01	227.34
898.32	227.36
898.63	227.35
898.93	227.37
899.24	227.37
899.54	227.37
899.85	227.37
900.15	227.37
900.46	227.36
900.76	227.38
901.07	227.38
901.38	227.39
901.68	227.40
901.99	227.30
902.29	227.31
902.60	227.30
902.90	227.27
903.21	227.27
903.51	227.25
903.82	227.28
904.12	227.28
904.43	227.29
904.73	227.28
905.03	227.29
905.34	227.45
905.64	227.45
905.95	227.44
906.25	227.43
906.56	227.42
906.86	227.42
907.17	227.40
907.47	227.41
907.77	227.39
908.08	227.37
908.38	227.38
908.69	227.40
908.99	227.43
909.30	227.45
909.60	227.45
909.90	227.46
910.21	227.40
910.51	227.38
910.81	227.39
911.12	227.40
911.42	227.40
911.73	227.22
912.03	227.23
912.33	227.28
912.64	227.27
912.94	227.24
913.24	227.21
913.55	227.19
913.85	227.18
914.15	227.20
914.46	227.24
914.76	227.22
915.06	227.21
915.37	227.17
915.67	227.15
915.97	227.14
916.27	227.12
916.58	227.14
916.88	227.14
917.18	227.13
917.49	227.23
917.79	227.23
918.09	227.26
918.39	227.30
918.70	227.29
919.00	227.31
919.30	227.39
919.60	227.39
919.91	227.37
920.21	227.38
920.51	227.34
920.81	227.32
921.12	227.35
921.42	227.35
921.72	227.37
922.02	227.38
922.32	227.42
922.63	227.42
922.93	227.52
923.23	227.52
923.53	227.50
923.83	227.39
924.13	227.40
924.44	227.41
924.74	227.43
925.04	227.46
925.34	227.46
925.64	227.40
925.94	227.40
926.24	227.51
926.55	227.50
926.85	227.52
927.15	227.51
927.45	227.51
927.75	227.50
928.05	227.50
928.35	227.48
928.65	227.49
928.95	227.51
929.26	227.43
929.56	227.46
929.86	227.48
930.16	227.45
930.46	227.43
930.76	227.42
931.06	227.33
931.36	227.29
931.66	227.31
931.96	227.33
932.26	227.34
932.56	227.26
932.86	227.27
933.16	227.27
933.46	227.25
933.76	227.23
934.06	227.25
934.36	227.30
934.66	227.29
934.96	227.26
935.26	227.27
935.56	227.29
935.86	227.24
936.16	227.22
936.46	227.22
936.76	227.22
937.06	227.20
937.36	227.22
937.66	227.23
937.96	227.21
938.26	227.18
938.56	227.17
938.86	227.19
939.16	227.22
939.46	227.25
939.76	227.27
940.06	227.26
940.35	227.24
940.65	227.15
940.95	227.18
941.25	227.14
941.55	227.10
941.85	227.09
942.15	227.12
942.45	227.17
942.75	227.16
943.04	227.18
943.34	227.21
943.64	227.19
943.94	227.16
944.24	227.17
944.54	227.17
944.84	227.16
945.13	227.12
945.43	227.09
945.73	227.07
946.03	227.06
946.33	227.04
946.62	227.04
946.92	227.04
947.22	227.03
947.52	227.05
947.82	227.09
948.11	227.07
948.41	227.03
948.71	226.99
949.01	226.99
949.31	226.97
949.60	226.95
949.90	226.98
950.20	226.97
950.50	226.95
950.79	226.94
951.09	226.96
951.39	226.97
951.69	226.95
951.98	226.98
952.28	226.99
952.58	226.98
952.87	226.99
953.17	227.02
953.47	227.01
953.76	227.01
954.06	226.98
954.36	226.96
954.66	226.95
954.95	227.00
955.25	227.01
955.55	227.02
955.84	227.00
956.14	227.01
956.44	227.02
956.73	227.01
957.03	227.02
957.32	227.03
957.62	227.02
957.92	227.05
958.21	227.01
958.51	227.20
958.81	227.23
959.10	227.24
959.40	227.27
959.69	227.27
959.99	227.30
960.29	227.30
960.58	227.30
960.88	227.39
961.17	227.36
961.47	227.37
961.76	227.35
962.06	227.38
962.36	227.36
962.65	227.38
962.95	227.39
963.24	227.37
963.54	227.38
963.83	227.39
964.13	227.38
964.42	227.36
964.72	227.21
965.01	227.21
965.31	227.20
965.60	227.16
965.90	227.26
966.19	227.22
966.49	227.22
966.78	227.22
967.08	227.18
967.37	227.18
967.67	227.15
967.96	227.18
968.26	227.17
968.55	227.19
968.85	227.18
969.14	227.17
969.43	227.17
969.73	227.15
970.02	227.14
970.32	227.13
970.61	227.11
970.91	227.06
971.20	227.03
971.49	227.01
971.79	227.02
972.08	226.89
972.38	226.91
972.67	226.90
972.96	226.92
973.26	226.89
973.55	226.94
973.85	226.94
974.14	226.92
974.43	226.93
974.73	226.89
975.02	226.88
975.31	226.88
975.61	226.88
975.90	226.87
976.19	226.85
976.49	226.88
976.78	226.90
977.07	226.89
977.37	226.91
977.66	226.93
977.95	226.91
978.24	226.92
978.54	226.96
978.83	226.95
979.12	226.94
979.42	226.94
979.71	226.90
980.00	226.89
980.29	226.91
980.59	226.86
980.88	226.92
981.17	226.91
981.46	226.91
981.76	226.92
982.05	226.98
982.34	227.01
982.63	227.00
982.93	227.00
983.22	227.06
983.51	227.07
983.80	227.10
984.09	227.13
984.39	227.14
984.68	227.11
984.97	227.13
985.26	227.13
985.55	227.15
985.85	227.12
986.14	227.15
986.43	227.17
986.72	227.17
987.01	227.10
987.30	227.11
987.59	227.11
987.89	227.11
988.18	227.05
988.47	227.03
988.76	227.02
989.05	227.01
989.34	226.98
989.63	227.03
989.92	227.00
990.22	226.97
990.51	226.97
990.80	226.97
991.09	226.98
991.38	227.00
991.67	226.99
991.96	226.98
992.25	226.99
992.54	226.95
992.83	226.96
993.12	226.96
993.41	226.99
993.70	227.07
993.99	227.09
994.28	227.12
994.58	227.14
994.87	227.13
995.16	227.13
995.45	227.11
995.74	227.04
996.03	227.07
996.32	227.10
996.61	227.13
996.90	227.12
997.19	227.10
997.48	227.11
997.77	227.08
998.06	227.09
998.34	227.08
998.63	227.08
998.92	227.09
999.21	227.12
999.50	227.11
999.79	227.05
1000.08	227.03
1000.37	227.03
1000.66	227.01
1000.95	227.04
1001.24	227.06
1001.53	227.09
1001.82	227.09
1002.11	227.05
1002.40	227.07
1002.68	227.11
1002.97	227.23
1003.26	227.22
1003.55	227.18
1003.84	227.20
1004.13	227.26
1004.42	227.24
1004.71	227.25
1004.99	227.23
1005.28	227.27
1005.57	227.25
1005.86	227.22
1006.15	227.22
1006.44	227.19
1006.72	227.21
1007.01	227.18
1007.30	227.18
1007.59	227.14
1007.88	227.15
1008.17	227.16
1008.45	227.11
1008.74	227.02
1009.03	226.93
1009.32	226.93
1009.60	226.94
1009.89	226.93
1010.18	226.85
1010.47	226.85
1010.76	226.85
1011.04	226.85
1011.33	226.83
1011.62	226.85
1011.91	226.86
1012.19	226.87
1012.48	226.88
1012.77	226.87
1013.05	226.94
1013.34	226.94
1013.63	226.94
1013.92	226.94
1014.20	226.93
1014.49	226.94
1014.78	226.96
1015.06	226.90
1015.35	226.90
1015.64	226.93
1015.92	226.95
1016.21	226.95
1016.50	226.95
1016.78	226.97
1017.07	226.97
1017.36	226.95
1017.64	226.92
1017.93	226.94
1018.22	226.92
1018.50	226.93
1018.79	226.92
1019.08	226.84
1019.36	226.85
1019.65	226.84
1019.93	226.89
1020.22	226.92
1020.51	227.02
1020.79	227.00
1021.08	226.69
1021.36	226.91
1021.65	226.80
1021.94	226.73
1022.22	227.06
1022.51	226.69
1022.79	227.71
1023.08	227.16
1023.36	229.20
1023.65	226.58
>>>>>End Processed Spectral Data<<<<<
