SpectraSuite Data File
++++++++++++++++++++++++++++++++++++
Date: Tue Oct 06 12:57:17 EDT 2015
User: lab3
Dark Spectrum Present: No
Reference Spectrum Present: No
Number of Sampled Component Spectra: 1
Spectrometers: USB2E7196
Integration Time (usec): 66000 (USB2E7196)
Spectra Averaged: 1000 (USB2E7196)
Boxcar Smoothing: 10 (USB2E7196)
Correct for Electrical Dark: No (USB2E7196)
Strobe/Lamp Enabled: No (USB2E7196)
Correct for Detector Non-linearity: No (USB2E7196)
Correct for Stray Light: No (USB2E7196)
Number of Pixels in Processed Spectrum: 2048
>>>>>Begin Processed Spectral Data<<<<<
339.09	0.00
339.48	216.97
339.86	218.45
340.24	219.64
340.63	221.22
341.01	225.25
341.39	223.69
341.78	225.08
342.16	226.67
342.54	226.82
342.93	215.26
343.31	226.13
343.69	226.66
344.07	227.12
344.46	227.56
344.84	227.96
345.22	228.16
345.60	228.44
345.99	228.65
346.37	228.79
346.75	228.92
347.13	229.02
347.52	229.09
347.90	229.22
348.28	229.26
348.66	229.35
349.05	229.35
349.43	229.40
349.81	229.48
350.19	229.54
350.57	229.62
350.96	229.73
351.34	229.83
351.72	229.94
352.10	230.07
352.48	230.14
352.87	230.19
353.25	230.25
353.63	230.30
354.01	230.37
354.39	230.44
354.77	230.51
355.15	230.63
355.54	230.68
355.92	230.70
356.30	230.78
356.68	230.95
357.06	231.03
357.44	231.08
357.82	231.13
358.20	231.35
358.58	231.41
358.97	231.46
359.35	231.56
359.73	231.66
360.11	231.71
360.49	231.77
360.87	231.82
361.25	231.89
361.63	231.99
362.01	232.05
362.39	232.07
362.77	232.13
363.15	232.14
363.53	232.18
363.91	232.22
364.29	232.23
364.67	232.09
365.05	232.11
365.43	232.14
365.81	232.19
366.19	232.13
366.57	232.21
366.95	232.22
367.33	232.18
367.71	232.17
368.09	232.19
368.47	232.19
368.85	232.18
369.23	232.20
369.61	232.14
369.99	232.17
370.37	232.17
370.75	232.28
371.13	232.25
371.51	232.19
371.89	232.18
372.27	232.17
372.65	232.15
373.03	232.10
373.41	232.07
373.78	232.01
374.16	231.87
374.54	231.77
374.92	231.71
375.30	231.68
375.68	231.61
376.06	231.56
376.44	231.51
376.82	231.46
377.19	231.42
377.57	231.36
377.95	231.26
378.33	231.20
378.71	230.99
379.09	230.95
379.47	230.93
379.84	230.86
380.22	230.78
380.60	230.70
380.98	230.65
381.36	230.60
381.73	230.53
382.11	230.53
382.49	230.50
382.87	230.43
383.25	230.38
383.62	230.53
384.00	230.46
384.38	230.42
384.76	230.42
385.13	230.45
385.51	230.41
385.89	230.35
386.27	230.33
386.64	230.33
387.02	230.27
387.40	230.23
387.78	230.22
388.15	230.21
388.53	230.18
388.91	230.16
389.29	230.13
389.66	230.14
390.04	230.09
390.42	230.11
390.79	230.11
391.17	230.09
391.55	229.88
391.92	229.88
392.30	229.90
392.68	229.86
393.05	229.83
393.43	229.84
393.81	229.86
394.18	229.84
394.56	229.85
394.94	229.90
395.31	229.90
395.69	229.96
396.06	230.01
396.44	230.06
396.82	230.08
397.19	230.20
397.57	230.21
397.95	230.28
398.32	230.26
398.70	230.32
399.07	230.44
399.45	230.50
399.82	230.56
400.20	230.62
400.58	230.71
400.95	230.73
401.33	230.85
401.70	231.08
402.08	231.23
402.45	231.35
402.83	231.52
403.20	231.68
403.58	231.80
403.95	232.01
404.33	232.23
404.71	232.42
405.08	232.73
405.46	232.97
405.83	233.24
406.21	233.53
406.58	233.84
406.96	234.15
407.33	234.52
407.70	234.92
408.08	235.48
408.45	235.98
408.83	236.51
409.20	236.99
409.58	237.44
409.95	238.04
410.33	238.70
410.70	239.32
411.08	240.06
411.45	240.85
411.82	241.64
412.20	242.53
412.57	243.61
412.95	244.46
413.32	245.57
413.69	246.71
414.07	247.93
414.44	249.25
414.82	250.60
415.19	252.19
415.56	253.79
415.94	255.44
416.31	257.31
416.68	259.20
417.06	261.39
417.43	263.42
417.81	265.77
418.18	268.15
418.55	270.75
418.93	273.48
419.30	276.33
419.67	279.34
420.04	282.45
420.42	285.70
420.79	289.46
421.16	293.24
421.54	297.08
421.91	301.11
422.28	305.28
422.66	309.77
423.03	314.04
423.40	318.54
423.77	323.33
424.15	328.23
424.52	333.30
424.89	338.79
425.26	344.25
425.64	349.31
426.01	355.00
426.38	360.82
426.75	366.77
427.13	372.88
427.50	379.26
427.87	385.86
428.24	392.52
428.61	398.90
428.99	405.76
429.36	413.34
429.73	420.59
430.10	427.79
430.47	435.18
430.85	442.81
431.22	450.94
431.59	459.27
431.96	467.39
432.33	476.43
432.70	485.04
433.08	495.27
433.45	504.92
433.82	514.35
434.19	524.94
434.56	535.34
434.93	545.41
435.30	555.43
435.68	566.78
436.05	577.87
436.42	588.96
436.79	599.11
437.16	610.04
437.53	621.81
437.90	633.61
438.27	645.12
438.64	657.51
439.01	668.77
439.38	679.22
439.75	689.27
440.13	700.71
440.50	711.59
440.87	720.24
441.24	729.74
441.61	740.19
441.98	747.85
442.35	756.94
442.72	766.28
443.09	775.24
443.46	781.19
443.83	785.61
444.20	789.23
444.57	794.55
444.94	797.85
445.31	801.12
445.68	803.92
446.05	806.03
446.42	805.82
446.79	805.42
447.16	805.04
447.53	804.81
447.90	801.56
448.27	798.37
448.64	793.36
449.01	790.03
449.37	782.97
449.74	776.60
450.11	768.31
450.48	759.11
450.85	749.79
451.22	741.68
451.59	733.86
451.96	726.87
452.33	716.65
452.70	707.44
453.07	696.31
453.43	685.21
453.80	674.39
454.17	664.07
454.54	654.42
454.91	643.51
455.28	633.18
455.65	623.39
456.02	613.12
456.38	604.80
456.75	594.09
457.12	585.43
457.49	576.71
457.86	568.50
458.23	561.29
458.59	553.32
458.96	545.19
459.33	537.98
459.70	530.67
460.07	524.97
460.43	518.33
460.80	512.10
461.17	506.65
461.54	500.84
461.91	495.37
462.27	489.85
462.64	485.32
463.01	480.12
463.38	474.97
463.74	470.31
464.11	466.19
464.48	462.46
464.85	458.40
465.21	455.26
465.58	451.80
465.95	447.87
466.32	444.71
466.68	441.61
467.05	438.50
467.42	435.46
467.78	432.25
468.15	429.28
468.52	427.13
468.88	424.27
469.25	421.67
469.62	419.59
469.98	417.29
470.35	415.26
470.72	413.46
471.08	411.56
471.45	409.96
471.82	408.19
472.18	406.34
472.55	405.15
472.92	403.69
473.28	402.52
473.65	401.26
474.02	400.12
474.38	399.15
474.75	398.57
475.11	397.71
475.48	397.32
475.85	396.92
476.21	396.67
476.58	396.52
476.94	396.71
477.31	396.76
477.67	396.91
478.04	397.20
478.41	397.61
478.77	398.21
479.14	398.56
479.50	399.32
479.87	400.29
480.23	401.26
480.60	402.19
480.96	403.12
481.33	404.51
481.69	405.87
482.06	407.24
482.42	408.51
482.79	410.11
483.15	411.94
483.52	414.02
483.88	416.02
484.25	418.14
484.61	420.35
484.98	422.72
485.34	425.39
485.71	428.16
486.07	431.11
486.44	434.01
486.80	437.32
487.17	440.67
487.53	444.33
487.90	448.15
488.26	452.34
488.62	456.73
488.99	461.14
489.35	465.82
489.72	470.84
490.08	476.10
490.44	481.44
490.81	486.96
491.17	492.60
491.54	498.65
491.90	504.84
492.26	511.43
492.63	518.31
492.99	525.48
493.36	532.92
493.72	540.75
494.08	548.72
494.45	557.10
494.81	565.88
495.17	574.85
495.54	584.34
495.90	594.20
496.26	604.33
496.63	614.68
496.99	625.39
497.35	636.54
497.72	648.02
498.08	659.96
498.44	672.15
498.80	685.14
499.17	698.45
499.53	712.18
499.89	726.27
500.26	740.50
500.62	754.97
500.98	770.14
501.34	785.51
501.71	801.58
502.07	817.89
502.43	834.67
502.79	851.52
503.16	868.89
503.52	886.48
503.88	904.57
504.24	923.07
504.60	941.80
504.97	960.97
505.33	980.63
505.69	1001.20
506.05	1021.85
506.41	1042.42
506.78	1063.29
507.14	1084.96
507.50	1107.08
507.86	1129.60
508.22	1152.27
508.59	1174.75
508.95	1198.09
509.31	1221.88
509.67	1246.33
510.03	1270.55
510.39	1295.23
510.75	1319.88
511.12	1344.64
511.48	1369.40
511.84	1394.28
512.20	1419.65
512.56	1445.41
512.92	1470.98
513.28	1496.26
513.64	1521.91
514.00	1547.55
514.37	1573.36
514.73	1598.92
515.09	1624.01
515.45	1649.36
515.81	1674.78
516.17	1700.29
516.53	1725.10
516.89	1749.89
517.25	1774.72
517.61	1799.49
517.97	1824.40
518.33	1848.87
518.69	1873.28
519.05	1897.84
519.41	1922.37
519.77	1946.78
520.13	1970.91
520.49	1994.75
520.85	2018.72
521.21	2042.47
521.57	2066.44
521.93	2089.45
522.29	2112.83
522.65	2135.77
523.01	2158.50
523.37	2180.39
523.73	2202.67
524.09	2225.14
524.45	2247.56
524.81	2269.11
525.17	2290.44
525.53	2311.19
525.89	2332.26
526.25	2352.79
526.61	2372.19
526.97	2391.78
527.33	2410.82
527.68	2429.00
528.04	2446.66
528.40	2463.22
528.76	2480.26
529.12	2496.21
529.48	2512.59
529.84	2527.72
530.20	2543.85
530.56	2558.86
530.91	2573.86
531.27	2587.90
531.63	2600.96
531.99	2613.80
532.35	2625.07
532.71	2636.36
533.07	2647.92
533.42	2657.94
533.78	2668.78
534.14	2679.80
534.50	2689.36
534.86	2699.05
535.21	2706.86
535.57	2714.95
535.93	2723.41
536.29	2730.74
536.65	2738.12
537.00	2743.47
537.36	2749.20
537.72	2753.28
538.08	2757.05
538.44	2760.02
538.79	2763.31
539.15	2765.96
539.51	2767.94
539.87	2770.61
540.22	2771.28
540.58	2772.38
540.94	2773.03
541.29	2772.28
541.65	2770.07
542.01	2767.92
542.37	2764.83
542.72	2763.47
543.08	2760.59
543.44	2757.50
543.79	2752.63
544.15	2747.80
544.51	2743.62
544.87	2737.55
545.22	2730.92
545.58	2724.65
545.94	2719.05
546.29	2711.57
546.65	2703.48
547.01	2695.49
547.36	2687.11
547.72	2678.68
548.07	2669.07
548.43	2659.31
548.79	2648.49
549.14	2638.62
549.50	2628.63
549.86	2618.04
550.21	2605.64
550.57	2594.50
550.92	2581.68
551.28	2569.61
551.64	2557.71
551.99	2545.86
552.35	2534.08
552.70	2522.08
553.06	2510.33
553.41	2497.37
553.77	2484.23
554.13	2471.35
554.48	2457.60
554.84	2443.40
555.19	2430.10
555.55	2415.99
555.90	2402.04
556.26	2389.01
556.61	2375.28
556.97	2360.60
557.32	2346.23
557.68	2332.02
558.03	2317.34
558.39	2303.42
558.74	2289.65
559.10	2273.97
559.45	2258.87
559.81	2244.40
560.16	2229.60
560.52	2214.54
560.87	2200.28
561.23	2185.49
561.58	2170.95
561.94	2155.80
562.29	2140.82
562.64	2125.68
563.00	2110.69
563.35	2096.36
563.71	2081.75
564.06	2066.80
564.42	2052.36
564.77	2037.96
565.12	2024.02
565.48	2009.87
565.83	1995.42
566.19	1981.13
566.54	1967.24
566.89	1952.11
567.25	1936.63
567.60	1922.34
567.96	1907.41
568.31	1891.97
568.66	1877.45
569.02	1862.91
569.37	1848.51
569.72	1834.40
570.08	1820.24
570.43	1805.95
570.78	1790.87
571.14	1775.83
571.49	1761.15
571.84	1747.26
572.20	1732.07
572.55	1717.06
572.90	1701.57
573.26	1686.18
573.61	1670.52
573.96	1655.47
574.31	1641.10
574.67	1627.16
575.02	1612.28
575.37	1597.18
575.72	1581.97
576.08	1567.16
576.43	1552.38
576.78	1537.71
577.13	1523.09
577.49	1508.44
577.84	1493.74
578.19	1479.29
578.54	1464.87
578.90	1450.33
579.25	1435.30
579.60	1421.43
579.95	1407.48
580.30	1393.80
580.66	1380.13
581.01	1366.65
581.36	1352.96
581.71	1339.24
582.06	1325.59
582.42	1312.14
582.77	1299.10
583.12	1286.31
583.47	1273.32
583.82	1260.48
584.17	1247.62
584.53	1234.83
584.88	1222.43
585.23	1209.83
585.58	1197.47
585.93	1185.15
586.28	1173.44
586.63	1161.57
586.98	1149.65
587.34	1138.05
587.69	1126.24
588.04	1114.77
588.39	1103.43
588.74	1092.06
589.09	1081.01
589.44	1069.48
589.79	1058.49
590.14	1047.61
590.49	1036.89
590.84	1026.37
591.19	1015.98
591.54	1005.60
591.89	994.97
592.25	984.40
592.60	973.86
592.95	963.58
593.30	953.32
593.65	942.99
594.00	932.96
594.35	923.56
594.70	913.74
595.05	904.57
595.40	895.19
595.75	885.66
596.10	876.61
596.45	867.44
596.80	858.65
597.15	849.87
597.50	841.12
597.85	832.68
598.19	824.25
598.54	815.76
598.89	807.46
599.24	799.59
599.59	791.80
599.94	784.48
600.29	776.90
600.64	769.45
600.99	761.96
601.34	754.69
601.69	746.86
602.04	739.62
602.39	732.49
602.74	725.56
603.08	718.75
603.43	711.96
603.78	705.28
604.13	698.72
604.48	692.16
604.83	685.82
605.18	679.45
605.53	673.18
605.87	666.85
606.22	660.78
606.57	654.65
606.92	648.41
607.27	642.34
607.62	636.62
607.96	630.98
608.31	625.63
608.66	620.12
609.01	614.91
609.36	609.89
609.70	604.73
610.05	599.57
610.40	594.49
610.75	589.38
611.10	584.57
611.44	579.72
611.79	574.97
612.14	570.22
612.49	565.44
612.83	560.90
613.18	556.58
613.53	552.27
613.88	547.99
614.22	543.93
614.57	539.76
614.92	535.59
615.27	531.58
615.61	527.58
615.96	523.71
616.31	519.82
616.65	515.91
617.00	512.11
617.35	508.42
617.70	504.86
618.04	501.41
618.39	497.90
618.74	494.53
619.08	491.08
619.43	487.73
619.78	484.51
620.12	481.33
620.47	478.26
620.82	475.21
621.16	472.21
621.51	469.35
621.85	466.54
622.20	463.82
622.55	461.06
622.89	458.32
623.24	455.75
623.59	453.18
623.93	450.70
624.28	448.31
624.62	446.13
624.97	443.90
625.32	441.53
625.66	439.17
626.01	436.86
626.35	434.74
626.70	432.56
627.04	430.57
627.39	428.43
627.73	426.38
628.08	424.42
628.43	422.53
628.77	420.58
629.12	418.72
629.46	416.83
629.81	415.09
630.15	413.30
630.50	411.48
630.84	409.77
631.19	408.11
631.53	406.48
631.88	404.67
632.22	402.97
632.57	401.60
632.91	400.20
633.26	398.87
633.60	397.45
633.95	396.13
634.29	394.66
634.64	393.31
634.98	391.79
635.32	390.45
635.67	389.20
636.01	387.96
636.36	386.75
636.70	385.68
637.05	384.44
637.39	383.32
637.73	382.22
638.08	381.17
638.42	380.09
638.77	378.93
639.11	377.75
639.45	376.63
639.80	375.45
640.14	374.34
640.49	373.18
640.83	372.09
641.17	370.99
641.52	369.93
641.86	368.94
642.20	368.10
642.55	367.07
642.89	366.06
643.23	365.05
643.58	364.17
643.92	363.13
644.26	362.19
644.61	361.31
644.95	360.39
645.29	359.44
645.64	358.49
645.98	357.59
646.32	356.79
646.66	355.92
647.01	355.05
647.35	354.26
647.69	353.44
648.04	352.68
648.38	351.86
648.72	351.13
649.06	350.36
649.41	349.56
649.75	348.81
650.09	348.09
650.43	347.38
650.78	346.59
651.12	345.85
651.46	345.13
651.80	344.43
652.14	343.71
652.49	343.03
652.83	342.34
653.17	341.66
653.51	340.99
653.85	340.40
654.20	339.77
654.54	339.04
654.88	338.40
655.22	337.75
655.56	337.06
655.90	336.37
656.25	335.72
656.59	335.08
656.93	334.50
657.27	333.94
657.61	333.29
657.95	332.72
658.29	332.15
658.64	331.64
658.98	331.05
659.32	330.48
659.66	329.94
660.00	329.39
660.34	328.84
660.68	328.28
661.02	327.66
661.36	327.07
661.70	326.52
662.05	325.99
662.39	325.49
662.73	325.08
663.07	324.68
663.41	324.20
663.75	323.67
664.09	323.14
664.43	322.55
664.77	322.07
665.11	321.48
665.45	320.95
665.79	320.40
666.13	319.85
666.47	319.31
666.81	318.73
667.15	318.15
667.49	317.67
667.83	317.25
668.17	316.80
668.51	316.37
668.85	315.97
669.19	315.59
669.53	315.05
669.87	314.55
670.21	314.05
670.55	313.58
670.89	313.24
671.23	312.81
671.57	312.41
671.91	312.02
672.25	311.66
672.58	311.31
672.92	310.87
673.26	310.50
673.60	310.10
673.94	309.74
674.28	309.39
674.62	309.02
674.96	308.56
675.30	308.16
675.64	307.74
675.97	307.31
676.31	306.82
676.65	306.39
676.99	306.04
677.33	305.57
677.67	305.14
678.01	304.59
678.34	304.16
678.68	303.74
679.02	303.28
679.36	302.86
679.70	302.39
680.04	301.96
680.37	301.53
680.71	301.10
681.05	300.69
681.39	300.27
681.73	299.79
682.06	299.34
682.40	298.93
682.74	298.54
683.08	298.17
683.42	297.74
683.75	297.35
684.09	296.85
684.43	296.40
684.77	295.94
685.10	295.56
685.44	295.17
685.78	294.78
686.12	294.37
686.45	293.93
686.79	293.48
687.13	293.09
687.46	292.65
687.80	292.22
688.14	291.74
688.48	291.32
688.81	290.90
689.15	290.53
689.49	290.08
689.82	289.63
690.16	289.12
690.50	288.70
690.83	288.26
691.17	287.82
691.51	287.41
691.84	287.06
692.18	286.63
692.52	286.17
692.85	285.72
693.19	285.37
693.52	284.98
693.86	284.58
694.20	284.16
694.53	283.76
694.87	283.31
695.21	282.90
695.54	282.48
695.88	282.03
696.21	281.54
696.55	281.11
696.88	280.68
697.22	280.27
697.56	279.88
697.89	279.42
698.23	279.01
698.56	278.57
698.90	278.17
699.23	277.74
699.57	277.33
699.90	276.90
700.24	276.42
700.58	276.00
700.91	275.63
701.25	275.38
701.58	275.05
701.92	274.74
702.25	274.37
702.59	273.98
702.92	273.60
703.26	273.21
703.59	272.84
703.93	272.59
704.26	272.23
704.60	271.83
704.93	271.44
705.26	271.06
705.60	270.72
705.93	270.28
706.27	269.97
706.60	269.65
706.94	269.35
707.27	268.96
707.61	268.58
707.94	268.19
708.27	267.67
708.61	267.22
708.94	266.80
709.28	266.44
709.61	266.07
709.94	265.76
710.28	265.46
710.61	265.16
710.95	264.69
711.28	264.47
711.61	264.15
711.95	263.88
712.28	263.55
712.61	263.21
712.95	262.99
713.28	262.73
713.61	262.36
713.95	261.99
714.28	261.70
714.61	261.38
714.95	261.08
715.28	260.77
715.61	260.48
715.95	260.23
716.28	259.92
716.61	259.65
716.95	259.32
717.28	259.00
717.61	258.68
717.94	258.39
718.28	257.99
718.61	257.70
718.94	257.38
719.27	257.12
719.61	256.88
719.94	256.58
720.27	256.23
720.60	255.98
720.94	255.74
721.27	255.50
721.60	255.28
721.93	255.01
722.27	254.82
722.60	254.60
722.93	254.32
723.26	254.09
723.59	253.86
723.93	253.65
724.26	253.43
724.59	253.21
724.92	253.01
725.25	252.84
725.59	252.63
725.92	252.44
726.25	252.22
726.58	252.00
726.91	251.75
727.24	251.55
727.57	251.33
727.91	251.08
728.24	250.88
728.57	250.64
728.90	250.47
729.23	250.21
729.56	250.08
729.89	249.89
730.22	249.67
730.55	249.46
730.89	249.28
731.22	249.07
731.55	248.86
731.88	248.67
732.21	248.44
732.54	248.24
732.87	248.05
733.20	247.89
733.53	247.70
733.86	247.54
734.19	247.35
734.52	247.20
734.85	247.16
735.18	246.95
735.51	246.85
735.84	246.69
736.17	246.58
736.50	246.32
736.83	246.36
737.16	246.21
737.49	246.06
737.82	245.87
738.15	245.74
738.48	245.59
738.81	245.42
739.14	245.25
739.47	245.08
739.80	244.90
740.13	244.77
740.46	244.59
740.79	244.41
741.12	244.27
741.45	244.09
741.78	243.85
742.11	243.76
742.44	243.57
742.77	243.44
743.10	243.26
743.43	243.12
743.75	242.78
744.08	242.90
744.41	242.74
744.74	242.60
745.07	242.42
745.40	242.33
745.73	242.26
746.06	242.14
746.39	242.03
746.71	241.90
747.04	241.73
747.37	241.61
747.70	241.51
748.03	241.38
748.36	241.29
748.68	241.17
749.01	241.00
749.34	240.88
749.67	240.75
750.00	240.66
750.33	240.67
750.65	240.58
750.98	240.22
751.31	240.14
751.64	240.04
751.97	240.02
752.29	239.88
752.62	239.68
752.95	239.56
753.28	239.43
753.60	239.31
753.93	239.26
754.26	239.16
754.59	239.00
754.91	238.88
755.24	238.75
755.57	238.66
755.90	238.56
756.22	238.43
756.55	238.31
756.88	238.16
757.20	237.94
757.53	237.79
757.86	237.68
758.19	237.59
758.51	237.49
758.84	237.30
759.17	237.20
759.49	237.13
759.82	237.12
760.15	237.06
760.47	236.98
760.80	236.84
761.13	236.77
761.45	236.69
761.78	236.62
762.11	236.55
762.43	236.44
762.76	236.35
763.08	236.28
763.41	236.21
763.74	236.14
764.06	236.06
764.39	235.99
764.71	235.93
765.04	235.81
765.37	235.72
765.69	235.65
766.02	235.58
766.34	235.49
766.67	235.35
767.00	235.30
767.32	235.32
767.65	235.38
767.97	235.30
768.30	235.25
768.62	235.17
768.95	235.07
769.27	235.00
769.60	234.96
769.92	234.87
770.25	234.77
770.57	234.69
770.90	234.64
771.22	234.56
771.55	234.51
771.87	234.47
772.20	234.41
772.52	234.52
772.85	234.68
773.17	234.62
773.50	234.57
773.82	234.49
774.15	234.34
774.47	234.18
774.80	234.11
775.12	234.06
775.45	234.00
775.77	233.97
776.09	233.95
776.42	233.91
776.74	233.92
777.07	233.89
777.39	233.86
777.72	233.80
778.04	233.78
778.36	233.72
778.69	233.67
779.01	233.65
779.33	233.44
779.66	233.20
779.98	233.15
780.31	233.11
780.63	233.15
780.95	233.15
781.28	233.12
781.60	233.07
781.92	233.03
782.25	233.00
782.57	232.96
782.89	232.90
783.22	232.84
783.54	232.75
783.86	232.74
784.19	232.70
784.51	232.71
784.83	232.65
785.16	232.61
785.48	232.59
785.80	232.55
786.12	232.54
786.45	232.50
786.77	232.50
787.09	232.46
787.42	232.37
787.74	232.35
788.06	232.32
788.38	232.29
788.71	232.25
789.03	232.23
789.35	232.23
789.67	232.20
789.99	232.19
790.32	232.15
790.64	232.14
790.96	232.28
791.28	232.20
791.61	232.17
791.93	232.16
792.25	232.13
792.57	232.23
792.89	232.18
793.21	232.15
793.54	232.11
793.86	232.06
794.18	232.03
794.50	231.98
794.82	231.95
795.14	231.96
795.47	231.98
795.79	231.96
796.11	231.89
796.43	231.87
796.75	231.85
797.07	231.84
797.39	231.82
797.71	231.65
798.04	231.64
798.36	231.64
798.68	231.61
799.00	231.59
799.32	231.49
799.64	231.50
799.96	231.48
800.28	231.49
800.60	231.46
800.92	231.46
801.24	231.44
801.56	231.43
801.89	231.38
802.21	231.37
802.53	231.31
802.85	231.34
803.17	231.41
803.49	231.36
803.81	231.32
804.13	231.29
804.45	231.25
804.77	231.24
805.09	231.22
805.41	231.19
805.73	231.14
806.05	231.08
806.37	231.05
806.69	231.01
807.01	230.99
807.33	230.98
807.65	230.91
807.97	230.97
808.28	230.94
808.60	230.91
808.92	230.86
809.24	230.96
809.56	230.91
809.88	230.82
810.20	230.82
810.52	230.85
810.84	230.80
811.16	230.77
811.48	230.74
811.80	230.78
812.12	230.76
812.43	230.79
812.75	230.79
813.07	230.76
813.39	230.76
813.71	230.72
814.03	230.70
814.35	230.70
814.67	230.61
814.98	230.59
815.30	230.58
815.62	230.55
815.94	230.43
816.26	230.43
816.58	230.39
816.89	230.39
817.21	230.33
817.53	230.33
817.85	230.33
818.17	230.32
818.48	230.24
818.80	230.26
819.12	230.22
819.44	230.18
819.76	230.15
820.07	230.14
820.39	230.12
820.71	230.13
821.03	230.12
821.34	230.10
821.66	230.11
821.98	230.12
822.30	230.11
822.61	230.21
822.93	230.18
823.25	230.18
823.57	230.15
823.88	230.17
824.20	230.17
824.52	230.20
824.83	230.19
825.15	230.17
825.47	230.15
825.79	230.16
826.10	230.15
826.42	230.14
826.74	230.15
827.05	230.14
827.37	230.13
827.69	230.11
828.00	230.10
828.32	230.08
828.64	230.05
828.95	230.13
829.27	230.07
829.58	230.06
829.90	230.08
830.22	230.08
830.53	230.05
830.85	230.03
831.17	229.97
831.48	229.96
831.80	229.97
832.11	229.95
832.43	229.93
832.75	229.93
833.06	230.02
833.38	229.96
833.69	229.95
834.01	229.96
834.32	229.95
834.64	229.93
834.96	229.93
835.27	229.93
835.59	229.88
835.90	229.85
836.22	229.84
836.53	229.79
836.85	229.78
837.16	229.95
837.48	229.94
837.79	230.00
838.11	230.00
838.42	230.00
838.74	230.01
839.05	229.99
839.37	229.98
839.68	229.87
840.00	229.87
840.31	229.89
840.63	229.87
840.94	229.84
841.26	229.82
841.57	229.81
841.88	229.81
842.20	229.76
842.51	229.72
842.83	229.72
843.14	229.88
843.46	229.87
843.77	229.75
844.08	229.74
844.40	229.67
844.71	229.65
845.03	229.64
845.34	229.61
845.65	229.61
845.97	229.61
846.28	229.62
846.60	229.62
846.91	229.58
847.22	229.57
847.54	229.60
847.85	229.62
848.16	229.61
848.48	229.58
848.79	229.66
849.10	229.68
849.42	229.69
849.73	229.53
850.04	229.53
850.36	229.46
850.67	229.48
850.98	229.49
851.30	229.50
851.61	229.50
851.92	229.49
852.23	229.53
852.55	229.54
852.86	229.54
853.17	229.56
853.49	229.59
853.80	229.62
854.11	229.65
854.42	229.66
854.74	229.64
855.05	229.65
855.36	229.55
855.67	229.55
855.99	229.55
856.30	229.74
856.61	229.73
856.92	229.73
857.23	229.74
857.55	229.72
857.86	229.70
858.17	229.72
858.48	229.69
858.79	229.65
859.11	229.66
859.42	229.65
859.73	229.61
860.04	229.59
860.35	229.52
860.66	229.46
860.98	229.44
861.29	229.46
861.60	229.45
861.91	229.50
862.22	229.47
862.53	229.44
862.84	229.24
863.16	229.27
863.47	229.23
863.78	229.19
864.09	229.21
864.40	229.23
864.71	229.23
865.02	229.24
865.33	229.21
865.64	229.16
865.95	229.15
866.27	229.26
866.58	229.25
866.89	229.27
867.20	229.27
867.51	229.24
867.82	229.23
868.13	229.26
868.44	229.23
868.75	229.26
869.06	229.27
869.37	229.29
869.68	229.24
869.99	229.29
870.30	229.30
870.61	229.32
870.92	229.29
871.23	229.27
871.54	229.29
871.85	229.34
872.16	229.37
872.47	229.36
872.78	229.26
873.09	229.28
873.40	229.26
873.71	229.27
874.02	229.28
874.33	229.27
874.64	229.23
874.95	229.26
875.26	229.22
875.56	229.21
875.87	229.19
876.18	229.18
876.49	229.34
876.80	229.32
877.11	229.28
877.42	229.28
877.73	229.29
878.04	229.26
878.35	229.26
878.66	229.25
878.96	229.25
879.27	229.24
879.58	229.23
879.89	229.22
880.20	229.28
880.51	229.27
880.82	229.28
881.12	229.28
881.43	229.24
881.74	229.23
882.05	229.22
882.36	229.23
882.67	229.25
882.97	229.06
883.28	229.05
883.59	229.05
883.90	229.07
884.21	229.09
884.51	229.08
884.82	229.05
885.13	229.05
885.44	229.04
885.74	229.04
886.05	229.03
886.36	229.03
886.67	228.97
886.98	229.06
887.28	229.08
887.59	229.07
887.90	229.08
888.20	229.08
888.51	229.11
888.82	229.10
889.13	229.12
889.43	229.27
889.74	229.26
890.05	229.25
890.35	229.23
890.66	229.20
890.97	229.19
891.28	229.18
891.58	229.18
891.89	229.18
892.20	229.16
892.50	229.14
892.81	229.14
893.12	229.12
893.42	229.03
893.73	229.02
894.04	229.02
894.34	229.02
894.65	229.02
894.95	229.00
895.26	229.01
895.57	229.08
895.87	228.90
896.18	228.94
896.48	228.95
896.79	228.94
897.10	228.98
897.40	228.99
897.71	229.00
898.01	228.98
898.32	229.01
898.63	229.01
898.93	229.02
899.24	229.03
899.54	229.02
899.85	229.02
900.15	229.02
900.46	229.01
900.76	229.03
901.07	229.03
901.38	229.02
901.68	229.03
901.99	228.94
902.29	228.96
902.60	228.94
902.90	228.92
903.21	228.93
903.51	228.90
903.82	228.94
904.12	228.94
904.43	228.95
904.73	228.94
905.03	228.95
905.34	229.12
905.64	229.11
905.95	229.11
906.25	229.12
906.56	229.11
906.86	229.11
907.17	229.09
907.47	229.11
907.77	229.09
908.08	229.04
908.38	229.06
908.69	229.08
908.99	229.11
909.30	229.13
909.60	229.12
909.90	229.12
910.21	229.06
910.51	229.03
910.81	229.04
911.12	229.05
911.42	229.05
911.73	228.87
912.03	228.89
912.33	228.93
912.64	228.91
912.94	228.90
913.24	228.88
913.55	228.86
913.85	228.85
914.15	228.89
914.46	228.91
914.76	228.89
915.06	228.87
915.37	228.83
915.67	228.80
915.97	228.81
916.27	228.79
916.58	228.81
916.88	228.81
917.18	228.81
917.49	228.92
917.79	228.92
918.09	228.94
918.39	228.98
918.70	228.97
919.00	228.99
919.30	229.07
919.60	229.06
919.91	229.06
920.21	229.07
920.51	229.04
920.81	229.03
921.12	229.07
921.42	229.06
921.72	229.09
922.02	229.10
922.32	229.13
922.63	229.14
922.93	229.24
923.23	229.25
923.53	229.23
923.83	229.11
924.13	229.11
924.44	229.12
924.74	229.14
925.04	229.18
925.34	229.16
925.64	229.09
925.94	229.11
926.24	229.20
926.55	229.19
926.85	229.21
927.15	229.21
927.45	229.20
927.75	229.20
928.05	229.20
928.35	229.20
928.65	229.21
928.95	229.22
929.26	229.13
929.56	229.17
929.86	229.18
930.16	229.17
930.46	229.16
930.76	229.16
931.06	229.07
931.36	229.01
931.66	229.04
931.96	229.07
932.26	229.06
932.56	228.98
932.86	228.98
933.16	228.97
933.46	228.95
933.76	228.93
934.06	228.96
934.36	229.02
934.66	229.01
934.96	228.98
935.26	228.98
935.56	229.00
935.86	228.94
936.16	228.93
936.46	228.90
936.76	228.89
937.06	228.87
937.36	228.89
937.66	228.90
937.96	228.89
938.26	228.84
938.56	228.83
938.86	228.83
939.16	228.89
939.46	228.90
939.76	228.91
940.06	228.91
940.35	228.88
940.65	228.77
940.95	228.79
941.25	228.75
941.55	228.73
941.85	228.72
942.15	228.77
942.45	228.82
942.75	228.83
943.04	228.84
943.34	228.86
943.64	228.85
943.94	228.82
944.24	228.82
944.54	228.83
944.84	228.84
945.13	228.81
945.43	228.78
945.73	228.75
946.03	228.74
946.33	228.72
946.62	228.71
946.92	228.71
947.22	228.71
947.52	228.74
947.82	228.75
948.11	228.73
948.41	228.69
948.71	228.63
949.01	228.64
949.31	228.61
949.60	228.59
949.90	228.63
950.20	228.62
950.50	228.61
950.79	228.59
951.09	228.62
951.39	228.61
951.69	228.60
951.98	228.65
952.28	228.67
952.58	228.66
952.87	228.67
953.17	228.69
953.47	228.67
953.76	228.67
954.06	228.65
954.36	228.63
954.66	228.63
954.95	228.68
955.25	228.69
955.55	228.71
955.84	228.70
956.14	228.71
956.44	228.73
956.73	228.71
957.03	228.73
957.32	228.73
957.62	228.72
957.92	228.75
958.21	228.72
958.51	228.92
958.81	228.94
959.10	228.95
959.40	228.99
959.69	229.01
959.99	229.03
960.29	229.04
960.58	229.04
960.88	229.10
961.17	229.08
961.47	229.09
961.76	229.08
962.06	229.12
962.36	229.10
962.65	229.10
962.95	229.12
963.24	229.11
963.54	229.11
963.83	229.12
964.13	229.11
964.42	229.10
964.72	228.95
965.01	228.96
965.31	228.95
965.60	228.89
965.90	229.00
966.19	228.95
966.49	228.96
966.78	228.96
967.08	228.94
967.37	228.94
967.67	228.90
967.96	228.93
968.26	228.91
968.55	228.94
968.85	228.94
969.14	228.92
969.43	228.92
969.73	228.89
970.02	228.89
970.32	228.88
970.61	228.85
970.91	228.80
971.20	228.77
971.49	228.77
971.79	228.79
972.08	228.66
972.38	228.69
972.67	228.67
972.96	228.70
973.26	228.67
973.55	228.71
973.85	228.71
974.14	228.70
974.43	228.72
974.73	228.68
975.02	228.67
975.31	228.67
975.61	228.67
975.90	228.66
976.19	228.65
976.49	228.66
976.78	228.67
977.07	228.67
977.37	228.69
977.66	228.70
977.95	228.68
978.24	228.69
978.54	228.72
978.83	228.71
979.12	228.69
979.42	228.69
979.71	228.66
980.00	228.65
980.29	228.65
980.59	228.61
980.88	228.64
981.17	228.64
981.46	228.63
981.76	228.63
982.05	228.69
982.34	228.71
982.63	228.70
982.93	228.71
983.22	228.75
983.51	228.75
983.80	228.78
984.09	228.79
984.39	228.79
984.68	228.77
984.97	228.78
985.26	228.76
985.55	228.78
985.85	228.75
986.14	228.78
986.43	228.80
986.72	228.80
987.01	228.76
987.30	228.76
987.59	228.75
987.89	228.74
988.18	228.69
988.47	228.67
988.76	228.66
989.05	228.65
989.34	228.62
989.63	228.66
989.92	228.63
990.22	228.60
990.51	228.59
990.80	228.58
991.09	228.58
991.38	228.60
991.67	228.58
991.96	228.57
992.25	228.57
992.54	228.53
992.83	228.54
993.12	228.54
993.41	228.57
993.70	228.65
993.99	228.69
994.28	228.71
994.58	228.73
994.87	228.71
995.16	228.70
995.45	228.69
995.74	228.63
996.03	228.65
996.32	228.69
996.61	228.73
996.90	228.72
997.19	228.72
997.48	228.70
997.77	228.69
998.06	228.71
998.34	228.68
998.63	228.69
998.92	228.70
999.21	228.73
999.50	228.73
999.79	228.67
1000.08	228.66
1000.37	228.66
1000.66	228.65
1000.95	228.71
1001.24	228.72
1001.53	228.75
1001.82	228.75
1002.11	228.71
1002.40	228.72
1002.68	228.76
1002.97	228.90
1003.26	228.89
1003.55	228.89
1003.84	228.91
1004.13	228.96
1004.42	228.96
1004.71	228.96
1004.99	228.94
1005.28	228.97
1005.57	228.95
1005.86	228.94
1006.15	228.93
1006.44	228.91
1006.72	228.92
1007.01	228.89
1007.30	228.89
1007.59	228.87
1007.88	228.87
1008.17	228.87
1008.45	228.83
1008.74	228.76
1009.03	228.66
1009.32	228.66
1009.60	228.65
1009.89	228.63
1010.18	228.56
1010.47	228.56
1010.76	228.56
1011.04	228.56
1011.33	228.55
1011.62	228.57
1011.91	228.58
1012.19	228.59
1012.48	228.59
1012.77	228.59
1013.05	228.65
1013.34	228.66
1013.63	228.65
1013.92	228.67
1014.20	228.67
1014.49	228.68
1014.78	228.70
1015.06	228.64
1015.35	228.65
1015.64	228.68
1015.92	228.71
1016.21	228.71
1016.50	228.72
1016.78	228.73
1017.07	228.75
1017.36	228.72
1017.64	228.69
1017.93	228.71
1018.22	228.69
1018.50	228.68
1018.79	228.68
1019.08	228.62
1019.36	228.62
1019.65	228.58
1019.93	228.62
1020.22	228.65
1020.51	228.74
1020.79	228.72
1021.08	228.34
1021.36	228.40
1021.65	228.63
1021.94	228.67
1022.22	228.62
1022.51	228.04
1022.79	229.45
1023.08	228.80
1023.36	230.84
1023.65	228.11
>>>>>End Processed Spectral Data<<<<<
