SpectraSuite Data File
++++++++++++++++++++++++++++++++++++
Date: Wed Oct 07 04:22:43 EDT 2015
User: lab3
Dark Spectrum Present: No
Reference Spectrum Present: No
Number of Sampled Component Spectra: 1
Spectrometers: USB2E7196
Integration Time (usec): 66000 (USB2E7196)
Spectra Averaged: 10000 (USB2E7196)
Boxcar Smoothing: 10 (USB2E7196)
Correct for Electrical Dark: No (USB2E7196)
Strobe/Lamp Enabled: No (USB2E7196)
Correct for Detector Non-linearity: No (USB2E7196)
Correct for Stray Light: No (USB2E7196)
Number of Pixels in Processed Spectrum: 2048
>>>>>Begin Processed Spectral Data<<<<<
339.09	0.00
339.48	213.92
339.86	215.37
340.24	216.71
340.63	218.20
341.01	222.30
341.39	220.86
341.78	222.28
342.16	223.65
342.54	223.91
342.93	212.45
343.31	223.18
343.69	223.71
344.07	224.18
344.46	224.63
344.84	225.03
345.22	225.23
345.60	225.51
345.99	225.72
346.37	225.86
346.75	225.98
347.13	226.07
347.52	226.17
347.90	226.29
348.28	226.34
348.66	226.43
349.05	226.42
349.43	226.49
349.81	226.57
350.19	226.64
350.57	226.73
350.96	226.83
351.34	226.94
351.72	227.05
352.10	227.18
352.48	227.25
352.87	227.30
353.25	227.36
353.63	227.42
354.01	227.48
354.39	227.56
354.77	227.63
355.15	227.76
355.54	227.80
355.92	227.80
356.30	227.88
356.68	228.06
357.06	228.14
357.44	228.18
357.82	228.24
358.20	228.46
358.58	228.51
358.97	228.57
359.35	228.67
359.73	228.76
360.11	228.81
360.49	228.88
360.87	228.92
361.25	229.00
361.63	229.11
362.01	229.16
362.39	229.19
362.77	229.24
363.15	229.26
363.53	229.29
363.91	229.34
364.29	229.36
364.67	229.21
365.05	229.24
365.43	229.29
365.81	229.33
366.19	229.28
366.57	229.36
366.95	229.36
367.33	229.32
367.71	229.31
368.09	229.35
368.47	229.34
368.85	229.33
369.23	229.36
369.61	229.28
369.99	229.32
370.37	229.33
370.75	229.45
371.13	229.41
371.51	229.37
371.89	229.36
372.27	229.34
372.65	229.33
373.03	229.29
373.41	229.24
373.78	229.19
374.16	229.06
374.54	228.96
374.92	228.91
375.30	228.87
375.68	228.79
376.06	228.75
376.44	228.69
376.82	228.65
377.19	228.61
377.57	228.56
377.95	228.45
378.33	228.39
378.71	228.18
379.09	228.14
379.47	228.13
379.84	228.06
380.22	227.99
380.60	227.91
380.98	227.87
381.36	227.82
381.73	227.75
382.11	227.75
382.49	227.71
382.87	227.65
383.25	227.61
383.62	227.78
384.00	227.71
384.38	227.68
384.76	227.69
385.13	227.70
385.51	227.67
385.89	227.62
386.27	227.59
386.64	227.59
387.02	227.53
387.40	227.48
387.78	227.47
388.15	227.46
388.53	227.43
388.91	227.41
389.29	227.38
389.66	227.39
390.04	227.35
390.42	227.36
390.79	227.36
391.17	227.35
391.55	227.14
391.92	227.14
392.30	227.16
392.68	227.11
393.05	227.09
393.43	227.11
393.81	227.13
394.18	227.12
394.56	227.13
394.94	227.19
395.31	227.19
395.69	227.27
396.06	227.32
396.44	227.37
396.82	227.39
397.19	227.53
397.57	227.55
397.95	227.63
398.32	227.62
398.70	227.69
399.07	227.79
399.45	227.86
399.82	227.93
400.20	227.99
400.58	228.08
400.95	228.10
401.33	228.24
401.70	228.47
402.08	228.61
402.45	228.75
402.83	228.92
403.20	229.09
403.58	229.23
403.95	229.45
404.33	229.67
404.71	229.89
405.08	230.21
405.46	230.47
405.83	230.75
406.21	231.06
406.58	231.39
406.96	231.73
407.33	232.11
407.70	232.55
408.08	233.14
408.45	233.65
408.83	234.22
409.20	234.73
409.58	235.20
409.95	235.84
410.33	236.55
410.70	237.21
411.08	237.99
411.45	238.82
411.82	239.67
412.20	240.62
412.57	241.76
412.95	242.67
413.32	243.84
413.69	245.06
414.07	246.35
414.44	247.75
414.82	249.18
415.19	250.85
415.56	252.56
415.94	254.34
416.31	256.33
416.68	258.33
417.06	260.64
417.43	262.80
417.81	265.29
418.18	267.83
418.55	270.60
418.93	273.49
419.30	276.50
419.67	279.69
420.04	282.98
420.42	286.41
420.79	290.37
421.16	294.36
421.54	298.40
421.91	302.64
422.28	307.04
422.66	311.77
423.03	316.27
423.40	320.98
423.77	326.02
424.15	331.19
424.52	336.55
424.89	342.35
425.26	348.10
425.64	353.44
426.01	359.44
426.38	365.55
426.75	371.85
427.13	378.29
427.50	385.05
427.87	392.06
428.24	399.12
428.61	405.88
428.99	413.17
429.36	421.19
429.73	428.85
430.10	436.48
430.47	444.30
430.85	452.37
431.22	460.96
431.59	469.79
431.96	478.42
432.33	488.00
432.70	497.11
433.08	507.91
433.45	518.09
433.82	528.16
434.19	539.46
434.56	550.58
434.93	561.36
435.30	572.05
435.68	584.17
436.05	596.05
436.42	607.94
436.79	618.81
437.16	630.64
437.53	643.25
437.90	655.87
438.27	668.27
438.64	681.69
439.01	693.90
439.38	705.09
439.75	715.92
440.13	728.27
440.50	740.01
440.87	749.43
441.24	759.77
441.61	771.10
441.98	779.50
442.35	789.48
442.72	799.63
443.09	809.32
443.46	815.66
443.83	820.49
444.20	824.52
444.57	830.30
444.94	833.79
445.31	837.40
445.68	840.55
446.05	842.96
446.42	842.80
446.79	842.36
447.16	842.03
447.53	841.78
447.90	838.29
448.27	834.98
448.64	829.67
449.01	826.06
449.37	818.37
449.74	811.38
450.11	802.32
450.48	792.34
450.85	782.32
451.22	773.73
451.59	765.24
451.96	757.56
452.33	746.44
452.70	736.51
453.07	724.45
453.43	712.40
453.80	700.64
454.17	689.36
454.54	678.98
454.91	667.24
455.28	656.13
455.65	645.64
456.02	634.50
456.38	625.54
456.75	614.09
457.12	604.84
457.49	595.53
457.86	586.70
458.23	578.91
458.59	570.34
458.96	561.55
459.33	553.84
459.70	545.99
460.07	539.98
460.43	532.91
460.80	526.33
461.17	520.60
461.54	514.40
461.91	508.58
462.27	502.68
462.64	497.85
463.01	492.35
463.38	486.79
463.74	481.78
464.11	477.33
464.48	473.30
464.85	468.96
465.21	465.64
465.58	461.95
465.95	457.78
466.32	454.47
466.68	451.23
467.05	447.96
467.42	444.77
467.78	441.37
468.15	438.23
468.52	435.91
468.88	432.84
469.25	430.05
469.62	427.83
469.98	425.44
470.35	423.30
470.72	421.34
471.08	419.39
471.45	417.75
471.82	415.90
472.18	413.98
472.55	412.73
472.92	411.17
473.28	409.95
473.65	408.64
474.02	407.37
474.38	406.29
474.75	405.65
475.11	404.77
475.48	404.35
475.85	403.88
476.21	403.60
476.58	403.40
476.94	403.55
477.31	403.56
477.67	403.59
478.04	403.87
478.41	404.27
478.77	404.86
479.14	405.20
479.50	405.96
479.87	406.95
480.23	407.90
480.60	408.82
480.96	409.72
481.33	411.15
481.69	412.53
482.06	413.91
482.42	415.15
482.79	416.73
483.15	418.57
483.52	420.66
483.88	422.65
484.25	424.77
484.61	426.99
484.98	429.39
485.34	432.10
485.71	434.92
486.07	437.95
486.44	440.92
486.80	444.28
487.17	447.72
487.53	451.46
487.90	455.37
488.26	459.63
488.62	464.14
488.99	468.64
489.35	473.37
489.72	478.44
490.08	483.79
490.44	489.25
490.81	494.94
491.17	500.79
491.54	507.08
491.90	513.50
492.26	520.37
492.63	527.58
492.99	535.11
493.36	542.81
493.72	550.88
494.08	559.19
494.45	567.89
494.81	577.01
495.17	586.36
495.54	596.25
495.90	606.57
496.26	617.08
496.63	627.91
496.99	639.13
497.35	650.88
497.72	662.91
498.08	675.29
498.44	688.01
498.80	701.44
499.17	715.16
499.53	729.34
499.89	743.95
500.26	758.82
500.62	774.03
500.98	790.14
501.34	806.28
501.71	823.20
502.07	840.46
502.43	858.19
502.79	876.18
503.16	894.64
503.52	913.32
503.88	932.43
504.24	952.02
504.60	971.84
504.97	992.34
505.33	1013.36
505.69	1035.47
506.05	1057.81
506.41	1080.10
506.78	1102.56
507.14	1125.57
507.50	1149.10
507.86	1172.98
508.22	1197.12
508.59	1221.16
508.95	1246.26
509.31	1271.91
509.67	1298.20
510.03	1324.47
510.39	1350.62
510.75	1376.86
511.12	1403.44
511.48	1430.36
511.84	1457.19
512.20	1484.47
512.56	1512.82
512.92	1540.98
513.28	1568.45
513.64	1596.40
514.00	1624.73
514.37	1653.32
514.73	1682.00
515.09	1709.96
515.45	1738.22
515.81	1766.77
516.17	1795.07
516.53	1822.69
516.89	1849.99
517.25	1877.66
517.61	1905.08
517.97	1933.20
518.33	1960.80
518.69	1988.32
519.05	2016.20
519.41	2044.26
519.77	2072.41
520.13	2098.98
520.49	2125.53
520.85	2152.53
521.21	2178.85
521.57	2205.53
521.93	2231.11
522.29	2257.38
522.65	2283.52
523.01	2309.34
523.37	2334.35
523.73	2360.17
524.09	2385.66
524.45	2411.00
524.81	2435.62
525.17	2460.16
525.53	2483.74
525.89	2507.78
526.25	2531.52
526.61	2553.45
526.97	2575.47
527.33	2597.20
527.68	2618.88
528.04	2640.17
528.40	2660.30
528.76	2680.52
529.12	2700.17
529.48	2720.59
529.84	2738.16
530.20	2756.05
530.56	2773.27
530.91	2790.62
531.27	2807.23
531.63	2822.94
531.99	2838.24
532.35	2853.37
532.71	2868.03
533.07	2883.20
533.42	2896.34
533.78	2909.62
534.14	2924.09
534.50	2937.37
534.86	2951.13
535.21	2962.56
535.57	2973.89
535.93	2984.86
536.29	2993.98
536.65	3003.04
537.00	3010.74
537.36	3019.76
537.72	3027.87
538.08	3035.49
538.44	3041.79
538.79	3047.94
539.15	3052.77
539.51	3056.81
539.87	3059.50
540.22	3060.55
540.58	3061.84
540.94	3063.85
541.29	3064.78
541.65	3064.31
542.01	3063.43
542.37	3060.85
542.72	3059.99
543.08	3057.27
543.44	3054.72
543.79	3052.15
544.15	3048.65
544.51	3045.02
544.87	3040.49
545.22	3034.92
545.58	3029.00
545.94	3023.39
546.29	3016.21
546.65	3009.21
547.01	3002.43
547.36	2996.27
547.72	2990.22
548.07	2982.36
548.43	2973.30
548.79	2963.94
549.14	2954.79
549.50	2945.81
549.86	2935.87
550.21	2924.19
550.57	2913.88
550.92	2901.82
551.28	2889.87
551.64	2878.34
551.99	2866.58
552.35	2854.28
552.70	2841.90
553.06	2830.03
553.41	2817.72
553.77	2805.18
554.13	2792.61
554.48	2778.85
554.84	2763.93
555.19	2749.46
555.55	2734.99
555.90	2721.12
556.26	2707.39
556.61	2692.58
556.97	2676.62
557.32	2661.16
557.68	2646.11
558.03	2630.59
558.39	2616.02
558.74	2602.23
559.10	2586.41
559.45	2570.60
559.81	2555.49
560.16	2539.96
560.52	2524.09
560.87	2508.53
561.23	2492.51
561.58	2477.13
561.94	2461.32
562.29	2445.04
562.64	2428.94
563.00	2412.87
563.35	2396.95
563.71	2380.68
564.06	2364.54
564.42	2348.95
564.77	2333.49
565.12	2317.57
565.48	2301.37
565.83	2285.31
566.19	2269.09
566.54	2253.12
566.89	2236.75
567.25	2220.43
567.60	2204.98
567.96	2188.90
568.31	2171.31
568.66	2154.54
569.02	2138.40
569.37	2122.79
569.72	2107.80
570.08	2092.35
570.43	2076.25
570.78	2059.93
571.14	2043.54
571.49	2027.15
571.84	2010.99
572.20	1993.54
572.55	1976.91
572.90	1960.44
573.26	1944.09
573.61	1927.10
573.96	1910.65
574.31	1893.99
574.67	1876.96
575.02	1859.61
575.37	1842.26
575.72	1825.85
576.08	1809.14
576.43	1791.57
576.78	1774.30
577.13	1757.27
577.49	1740.45
577.84	1724.17
578.19	1707.42
578.54	1690.66
578.90	1673.75
579.25	1656.65
579.60	1640.90
579.95	1624.83
580.30	1608.69
580.66	1592.28
581.01	1575.95
581.36	1559.68
581.71	1544.37
582.06	1529.09
582.42	1513.58
582.77	1498.53
583.12	1483.67
583.47	1468.89
583.82	1454.29
584.17	1439.10
584.53	1424.01
584.88	1409.27
585.23	1394.36
585.58	1379.89
585.93	1365.23
586.28	1351.68
586.63	1338.00
586.98	1323.78
587.34	1310.04
587.69	1296.10
588.04	1282.45
588.39	1269.12
588.74	1255.39
589.09	1241.77
589.44	1227.83
589.79	1214.58
590.14	1201.35
590.49	1188.17
590.84	1175.20
591.19	1162.66
591.54	1150.27
591.89	1137.48
592.25	1125.00
592.60	1112.40
592.95	1099.94
593.30	1087.98
593.65	1075.67
594.00	1063.67
594.35	1052.61
594.70	1040.79
595.05	1029.60
595.40	1018.30
595.75	1006.83
596.10	996.04
596.45	985.21
596.80	974.83
597.15	964.38
597.50	953.92
597.85	943.80
598.19	933.68
598.54	923.52
598.89	913.90
599.24	904.69
599.59	895.24
599.94	886.52
600.29	877.82
600.64	868.90
600.99	859.87
601.34	851.21
601.69	842.01
602.04	833.77
602.39	825.42
602.74	817.31
603.08	809.30
603.43	801.31
603.78	793.31
604.13	785.33
604.48	777.39
604.83	769.74
605.18	762.11
605.53	754.68
605.87	747.24
606.22	739.90
606.57	732.50
606.92	725.05
607.27	717.61
607.62	710.35
607.96	703.35
608.31	696.90
608.66	690.31
609.01	684.01
609.36	677.68
609.70	671.32
610.05	664.93
610.40	658.76
610.75	652.52
611.10	646.54
611.44	640.57
611.79	634.75
612.14	628.82
612.49	622.99
612.83	617.44
613.18	611.97
613.53	606.49
613.88	601.16
614.22	596.21
614.57	591.18
614.92	586.29
615.27	581.51
615.61	576.57
615.96	571.71
616.31	566.84
616.65	562.13
617.00	557.54
617.35	553.04
617.70	548.56
618.04	544.19
618.39	539.93
618.74	535.94
619.08	531.90
619.43	528.01
619.78	524.08
620.12	520.09
620.47	516.32
620.82	512.67
621.16	509.04
621.51	505.45
621.85	501.85
622.20	498.32
622.55	494.79
622.89	491.30
623.24	488.01
623.59	484.78
623.93	481.62
624.28	478.60
624.62	475.77
624.97	472.97
625.32	470.10
625.66	467.19
626.01	464.23
626.35	461.47
626.70	458.62
627.04	455.99
627.39	453.34
627.73	450.76
628.08	448.21
628.43	445.69
628.77	443.12
629.12	440.64
629.46	438.29
629.81	436.09
630.15	433.80
630.50	431.54
630.84	429.34
631.19	427.17
631.53	425.10
631.88	422.85
632.22	420.68
632.57	418.82
632.91	416.91
633.26	415.07
633.60	413.24
633.95	411.52
634.29	409.67
634.64	407.87
634.98	405.96
635.32	404.24
635.67	402.69
636.01	401.12
636.36	399.62
636.70	398.17
637.05	396.57
637.39	395.13
637.73	393.68
638.08	392.31
638.42	390.97
638.77	389.51
639.11	388.01
639.45	386.57
639.80	385.09
640.14	383.67
640.49	382.27
640.83	380.87
641.17	379.52
641.52	378.21
641.86	376.93
642.20	375.80
642.55	374.49
642.89	373.19
643.23	371.97
643.58	370.88
643.92	369.63
644.26	368.47
644.61	367.36
644.95	366.21
645.29	365.01
645.64	363.78
645.98	362.67
646.32	361.69
646.66	360.64
647.01	359.61
647.35	358.69
647.69	357.73
648.04	356.84
648.38	355.87
648.72	354.96
649.06	354.05
649.41	353.11
649.75	352.23
650.09	351.37
650.43	350.49
650.78	349.57
651.12	348.72
651.46	347.88
651.80	347.05
652.14	346.28
652.49	345.57
652.83	344.80
653.17	343.99
653.51	343.20
653.85	342.54
654.20	341.83
654.54	341.01
654.88	340.25
655.22	339.54
655.56	338.81
655.90	338.12
656.25	337.44
656.59	336.77
656.93	336.14
657.27	335.57
657.61	334.92
657.95	334.32
658.29	333.70
658.64	333.11
658.98	332.45
659.32	331.81
659.66	331.19
660.00	330.64
660.34	330.07
660.68	329.46
661.02	328.79
661.36	328.16
661.70	327.58
662.05	327.01
662.39	326.46
662.73	326.00
663.07	325.57
663.41	325.09
663.75	324.57
664.09	324.05
664.43	323.41
664.77	322.89
665.11	322.31
665.45	321.78
665.79	321.27
666.13	320.76
666.47	320.23
666.81	319.66
667.15	319.06
667.49	318.59
667.83	318.18
668.17	317.73
668.51	317.32
668.85	316.93
669.19	316.59
669.53	316.07
669.87	315.52
670.21	314.96
670.55	314.45
670.89	314.04
671.23	313.59
671.57	313.19
671.91	312.85
672.25	312.51
672.58	312.18
672.92	311.75
673.26	311.41
673.60	311.07
673.94	310.71
674.28	310.38
674.62	310.02
674.96	309.59
675.30	309.22
675.64	308.79
675.97	308.34
676.31	307.86
676.65	307.46
676.99	307.14
677.33	306.71
677.67	306.32
678.01	305.85
678.34	305.45
678.68	305.07
679.02	304.62
679.36	304.18
679.70	303.73
680.04	303.33
680.37	302.92
680.71	302.53
681.05	302.18
681.39	301.77
681.73	301.31
682.06	300.89
682.40	300.50
682.74	300.15
683.08	299.85
683.42	299.47
683.75	299.12
684.09	298.66
684.43	298.28
684.77	297.88
685.10	297.50
685.44	297.11
685.78	296.69
686.12	296.31
686.45	295.89
686.79	295.46
687.13	295.07
687.46	294.62
687.80	294.21
688.14	293.74
688.48	293.33
688.81	292.91
689.15	292.54
689.49	292.10
689.82	291.65
690.16	291.11
690.50	290.67
690.83	290.21
691.17	289.76
691.51	289.33
691.84	288.93
692.18	288.49
692.52	288.02
692.85	287.58
693.19	287.20
693.52	286.77
693.86	286.32
694.20	285.88
694.53	285.45
694.87	284.98
695.21	284.52
695.54	284.07
695.88	283.60
696.21	283.10
696.55	282.66
696.88	282.21
697.22	281.79
697.56	281.38
697.89	280.91
698.23	280.48
698.56	280.03
698.90	279.61
699.23	279.15
699.57	278.75
699.90	278.32
700.24	277.85
700.58	277.44
700.91	277.08
701.25	276.83
701.58	276.50
701.92	276.16
702.25	275.77
702.59	275.36
702.92	274.97
703.26	274.56
703.59	274.14
703.93	273.87
704.26	273.47
704.60	273.04
704.93	272.64
705.26	272.23
705.60	271.87
705.93	271.42
706.27	271.10
706.60	270.75
706.94	270.43
707.27	270.00
707.61	269.61
707.94	269.18
708.27	268.61
708.61	268.15
708.94	267.72
709.28	267.32
709.61	266.94
709.94	266.59
710.28	266.25
710.61	265.92
710.95	265.40
711.28	265.16
711.61	264.79
711.95	264.48
712.28	264.11
712.61	263.72
712.95	263.47
713.28	263.18
713.61	262.79
713.95	262.39
714.28	262.07
714.61	261.70
714.95	261.36
715.28	261.02
715.61	260.70
715.95	260.40
716.28	260.07
716.61	259.78
716.95	259.44
717.28	259.13
717.61	258.80
717.94	258.51
718.28	258.09
718.61	257.78
718.94	257.45
719.27	257.16
719.61	256.89
719.94	256.56
720.27	256.18
720.60	255.90
720.94	255.61
721.27	255.34
721.60	255.10
721.93	254.82
722.27	254.59
722.60	254.32
722.93	254.01
723.26	253.76
723.59	253.46
723.93	253.22
724.26	252.97
724.59	252.70
724.92	252.46
725.25	252.27
725.59	252.02
725.92	251.80
726.25	251.56
726.58	251.31
726.91	251.05
727.24	250.83
727.57	250.59
727.91	250.32
728.24	250.11
728.57	249.86
728.90	249.66
729.23	249.37
729.56	249.23
729.89	249.02
730.22	248.79
730.55	248.58
730.89	248.35
731.22	248.13
731.55	247.92
731.88	247.71
732.21	247.46
732.54	247.24
732.87	247.04
733.20	246.85
733.53	246.66
733.86	246.48
734.19	246.27
734.52	246.11
734.85	246.06
735.18	245.85
735.51	245.72
735.84	245.54
736.17	245.42
736.50	245.14
736.83	245.17
737.16	244.99
737.49	244.83
737.82	244.63
738.15	244.48
738.48	244.29
738.81	244.11
739.14	243.92
739.47	243.73
739.80	243.55
740.13	243.39
740.46	243.19
740.79	242.99
741.12	242.81
741.45	242.60
741.78	242.33
742.11	242.20
742.44	241.98
742.77	241.84
743.10	241.64
743.43	241.47
743.75	241.12
744.08	241.23
744.41	241.06
744.74	240.90
745.07	240.71
745.40	240.61
745.73	240.54
746.06	240.40
746.39	240.28
746.71	240.13
747.04	239.97
747.37	239.82
747.70	239.71
748.03	239.58
748.36	239.48
748.68	239.34
749.01	239.16
749.34	239.04
749.67	238.90
750.00	238.80
750.33	238.80
750.65	238.69
750.98	238.30
751.31	238.19
751.64	238.08
751.97	238.06
752.29	237.91
752.62	237.70
752.95	237.57
753.28	237.42
753.60	237.29
753.93	237.22
754.26	237.12
754.59	236.95
754.91	236.81
755.24	236.67
755.57	236.57
755.90	236.45
756.22	236.31
756.55	236.17
756.88	236.02
757.20	235.78
757.53	235.62
757.86	235.51
758.19	235.41
758.51	235.30
758.84	235.10
759.17	234.98
759.49	234.89
759.82	234.88
760.15	234.81
760.47	234.71
760.80	234.56
761.13	234.49
761.45	234.40
761.78	234.30
762.11	234.22
762.43	234.10
762.76	234.01
763.08	233.95
763.41	233.88
763.74	233.82
764.06	233.73
764.39	233.66
764.71	233.57
765.04	233.47
765.37	233.37
765.69	233.29
766.02	233.21
766.34	233.12
766.67	232.97
767.00	232.93
767.32	232.95
767.65	233.00
767.97	232.90
768.30	232.84
768.62	232.77
768.95	232.68
769.27	232.61
769.60	232.57
769.92	232.47
770.25	232.36
770.57	232.27
770.90	232.20
771.22	232.12
771.55	232.07
771.87	232.02
772.20	231.96
772.52	232.05
772.85	232.21
773.17	232.16
773.50	232.09
773.82	232.00
774.15	231.85
774.47	231.68
774.80	231.61
775.12	231.55
775.45	231.50
775.77	231.46
776.09	231.43
776.42	231.37
776.74	231.38
777.07	231.33
777.39	231.30
777.72	231.24
778.04	231.22
778.36	231.15
778.69	231.11
779.01	231.08
779.33	230.87
779.66	230.63
779.98	230.57
780.31	230.54
780.63	230.58
780.95	230.57
781.28	230.53
781.60	230.47
781.92	230.44
782.25	230.40
782.57	230.36
782.89	230.31
783.22	230.25
783.54	230.18
783.86	230.16
784.19	230.11
784.51	230.13
784.83	230.07
785.16	230.03
785.48	230.00
785.80	229.96
786.12	229.94
786.45	229.91
786.77	229.89
787.09	229.85
787.42	229.74
787.74	229.71
788.06	229.69
788.38	229.67
788.71	229.62
789.03	229.60
789.35	229.59
789.67	229.54
789.99	229.53
790.32	229.48
790.64	229.47
790.96	229.61
791.28	229.51
791.61	229.49
791.93	229.47
792.25	229.43
792.57	229.53
792.89	229.48
793.21	229.46
793.54	229.42
793.86	229.37
794.18	229.35
794.50	229.29
794.82	229.26
795.14	229.26
795.47	229.27
795.79	229.25
796.11	229.18
796.43	229.16
796.75	229.13
797.07	229.12
797.39	229.08
797.71	228.91
798.04	228.90
798.36	228.89
798.68	228.86
799.00	228.85
799.32	228.74
799.64	228.75
799.96	228.73
800.28	228.74
800.60	228.72
800.92	228.71
801.24	228.68
801.56	228.68
801.89	228.64
802.21	228.63
802.53	228.57
802.85	228.60
803.17	228.66
803.49	228.61
803.81	228.58
804.13	228.55
804.45	228.51
804.77	228.50
805.09	228.48
805.41	228.45
805.73	228.39
806.05	228.33
806.37	228.29
806.69	228.25
807.01	228.21
807.33	228.21
807.65	228.12
807.97	228.19
808.28	228.14
808.60	228.12
808.92	228.08
809.24	228.18
809.56	228.12
809.88	228.04
810.20	228.03
810.52	228.06
810.84	228.02
811.16	227.99
811.48	227.96
811.80	228.00
812.12	227.98
812.43	228.01
812.75	228.01
813.07	227.99
813.39	227.99
813.71	227.94
814.03	227.91
814.35	227.92
814.67	227.83
814.98	227.80
815.30	227.79
815.62	227.75
815.94	227.61
816.26	227.62
816.58	227.58
816.89	227.58
817.21	227.52
817.53	227.53
817.85	227.53
818.17	227.51
818.48	227.42
818.80	227.45
819.12	227.41
819.44	227.37
819.76	227.33
820.07	227.32
820.39	227.31
820.71	227.32
821.03	227.30
821.34	227.28
821.66	227.30
821.98	227.30
822.30	227.29
822.61	227.40
822.93	227.36
823.25	227.35
823.57	227.32
823.88	227.33
824.20	227.31
824.52	227.33
824.83	227.32
825.15	227.29
825.47	227.27
825.79	227.27
826.10	227.26
826.42	227.25
826.74	227.26
827.05	227.24
827.37	227.24
827.69	227.22
828.00	227.22
828.32	227.21
828.64	227.17
828.95	227.27
829.27	227.20
829.58	227.19
829.90	227.21
830.22	227.22
830.53	227.18
830.85	227.16
831.17	227.10
831.48	227.09
831.80	227.09
832.11	227.08
832.43	227.04
832.75	227.03
833.06	227.13
833.38	227.08
833.69	227.07
834.01	227.06
834.32	227.05
834.64	227.03
834.96	227.02
835.27	227.01
835.59	226.94
835.90	226.90
836.22	226.90
836.53	226.85
836.85	226.83
837.16	227.01
837.48	227.01
837.79	227.06
838.11	227.06
838.42	227.05
838.74	227.07
839.05	227.06
839.37	227.05
839.68	226.93
840.00	226.92
840.31	226.94
840.63	226.91
840.94	226.90
841.26	226.87
841.57	226.86
841.88	226.87
842.20	226.85
842.51	226.81
842.83	226.81
843.14	226.97
843.46	226.96
843.77	226.85
844.08	226.83
844.40	226.77
844.71	226.75
845.03	226.73
845.34	226.70
845.65	226.70
845.97	226.70
846.28	226.71
846.60	226.72
846.91	226.68
847.22	226.68
847.54	226.71
847.85	226.72
848.16	226.70
848.48	226.66
848.79	226.73
849.10	226.75
849.42	226.76
849.73	226.58
850.04	226.58
850.36	226.51
850.67	226.54
850.98	226.54
851.30	226.56
851.61	226.55
851.92	226.55
852.23	226.60
852.55	226.60
852.86	226.61
853.17	226.62
853.49	226.65
853.80	226.69
854.11	226.69
854.42	226.72
854.74	226.70
855.05	226.71
855.36	226.61
855.67	226.61
855.99	226.61
856.30	226.82
856.61	226.82
856.92	226.82
857.23	226.82
857.55	226.80
857.86	226.78
858.17	226.81
858.48	226.78
858.79	226.74
859.11	226.75
859.42	226.73
859.73	226.70
860.04	226.68
860.35	226.62
860.66	226.57
860.98	226.55
861.29	226.58
861.60	226.56
861.91	226.60
862.22	226.57
862.53	226.53
862.84	226.32
863.16	226.36
863.47	226.32
863.78	226.29
864.09	226.31
864.40	226.32
864.71	226.31
865.02	226.33
865.33	226.31
865.64	226.28
865.95	226.28
866.27	226.40
866.58	226.38
866.89	226.41
867.20	226.40
867.51	226.38
867.82	226.36
868.13	226.42
868.44	226.37
868.75	226.41
869.06	226.43
869.37	226.45
869.68	226.40
869.99	226.43
870.30	226.45
870.61	226.46
870.92	226.43
871.23	226.41
871.54	226.43
871.85	226.47
872.16	226.49
872.47	226.48
872.78	226.37
873.09	226.39
873.40	226.37
873.71	226.38
874.02	226.39
874.33	226.37
874.64	226.33
874.95	226.36
875.26	226.31
875.56	226.31
875.87	226.29
876.18	226.29
876.49	226.46
876.80	226.44
877.11	226.41
877.42	226.42
877.73	226.42
878.04	226.39
878.35	226.39
878.66	226.38
878.96	226.39
879.27	226.38
879.58	226.36
879.89	226.35
880.20	226.39
880.51	226.39
880.82	226.39
881.12	226.40
881.43	226.36
881.74	226.34
882.05	226.33
882.36	226.34
882.67	226.36
882.97	226.16
883.28	226.15
883.59	226.14
883.90	226.16
884.21	226.18
884.51	226.17
884.82	226.14
885.13	226.14
885.44	226.13
885.74	226.13
886.05	226.13
886.36	226.14
886.67	226.06
886.98	226.15
887.28	226.17
887.59	226.16
887.90	226.17
888.20	226.17
888.51	226.21
888.82	226.18
889.13	226.19
889.43	226.35
889.74	226.34
890.05	226.33
890.35	226.31
890.66	226.28
890.97	226.27
891.28	226.25
891.58	226.25
891.89	226.25
892.20	226.23
892.50	226.21
892.81	226.20
893.12	226.20
893.42	226.11
893.73	226.11
894.04	226.11
894.34	226.12
894.65	226.11
894.95	226.10
895.26	226.10
895.57	226.18
895.87	225.99
896.18	226.03
896.48	226.04
896.79	226.04
897.10	226.07
897.40	226.07
897.71	226.10
898.01	226.08
898.32	226.10
898.63	226.10
898.93	226.11
899.24	226.12
899.54	226.11
899.85	226.10
900.15	226.09
900.46	226.09
900.76	226.10
901.07	226.10
901.38	226.08
901.68	226.11
901.99	226.01
902.29	226.02
902.60	226.00
902.90	225.99
903.21	225.98
903.51	225.96
903.82	226.00
904.12	225.99
904.43	226.00
904.73	225.99
905.03	226.01
905.34	226.17
905.64	226.16
905.95	226.16
906.25	226.16
906.56	226.16
906.86	226.16
907.17	226.14
907.47	226.16
907.77	226.14
908.08	226.10
908.38	226.12
908.69	226.13
908.99	226.17
909.30	226.18
909.60	226.17
909.90	226.17
910.21	226.12
910.51	226.09
910.81	226.09
911.12	226.10
911.42	226.10
911.73	225.91
912.03	225.92
912.33	225.96
912.64	225.94
912.94	225.93
913.24	225.90
913.55	225.89
913.85	225.87
914.15	225.91
914.46	225.94
914.76	225.92
915.06	225.90
915.37	225.86
915.67	225.85
915.97	225.85
916.27	225.83
916.58	225.84
916.88	225.84
917.18	225.82
917.49	225.95
917.79	225.93
918.09	225.96
918.39	226.01
918.70	225.99
919.00	226.00
919.30	226.08
919.60	226.08
919.91	226.06
920.21	226.07
920.51	226.03
920.81	226.01
921.12	226.04
921.42	226.04
921.72	226.05
922.02	226.06
922.32	226.08
922.63	226.09
922.93	226.19
923.23	226.20
923.53	226.18
923.83	226.06
924.13	226.08
924.44	226.08
924.74	226.10
925.04	226.14
925.34	226.14
925.64	226.06
925.94	226.06
926.24	226.17
926.55	226.15
926.85	226.18
927.15	226.18
927.45	226.17
927.75	226.17
928.05	226.17
928.35	226.16
928.65	226.19
928.95	226.20
929.26	226.11
929.56	226.14
929.86	226.17
930.16	226.15
930.46	226.13
930.76	226.14
931.06	226.05
931.36	226.00
931.66	226.03
931.96	226.05
932.26	226.06
932.56	225.98
932.86	226.00
933.16	226.00
933.46	225.98
933.76	225.95
934.06	225.99
934.36	226.05
934.66	226.04
934.96	226.02
935.26	226.02
935.56	226.05
935.86	226.00
936.16	225.98
936.46	225.97
936.76	225.96
937.06	225.93
937.36	225.95
937.66	225.96
937.96	225.94
938.26	225.91
938.56	225.90
938.86	225.90
939.16	225.94
939.46	225.95
939.76	225.96
940.06	225.96
940.35	225.93
940.65	225.84
940.95	225.85
941.25	225.81
941.55	225.79
941.85	225.77
942.15	225.81
942.45	225.86
942.75	225.86
943.04	225.87
943.34	225.90
943.64	225.88
943.94	225.86
944.24	225.86
944.54	225.88
944.84	225.87
945.13	225.85
945.43	225.82
945.73	225.81
946.03	225.79
946.33	225.78
946.62	225.76
946.92	225.76
947.22	225.77
947.52	225.78
947.82	225.81
948.11	225.79
948.41	225.74
948.71	225.69
949.01	225.70
949.31	225.68
949.60	225.66
949.90	225.70
950.20	225.69
950.50	225.68
950.79	225.67
951.09	225.70
951.39	225.70
951.69	225.68
951.98	225.72
952.28	225.73
952.58	225.73
952.87	225.73
953.17	225.76
953.47	225.74
953.76	225.74
954.06	225.71
954.36	225.68
954.66	225.69
954.95	225.74
955.25	225.75
955.55	225.77
955.84	225.74
956.14	225.75
956.44	225.77
956.73	225.74
957.03	225.75
957.32	225.75
957.62	225.74
957.92	225.78
958.21	225.76
958.51	225.97
958.81	225.99
959.10	226.01
959.40	226.04
959.69	226.06
959.99	226.08
960.29	226.09
960.58	226.09
960.88	226.16
961.17	226.13
961.47	226.15
961.76	226.13
962.06	226.16
962.36	226.14
962.65	226.15
962.95	226.16
963.24	226.14
963.54	226.14
963.83	226.16
964.13	226.14
964.42	226.12
964.72	225.97
965.01	225.97
965.31	225.95
965.60	225.90
965.90	226.02
966.19	225.97
966.49	225.99
966.78	225.99
967.08	225.97
967.37	225.97
967.67	225.93
967.96	225.97
968.26	225.96
968.55	225.99
968.85	225.98
969.14	225.97
969.43	225.98
969.73	225.96
970.02	225.95
970.32	225.94
970.61	225.91
970.91	225.86
971.20	225.83
971.49	225.82
971.79	225.84
972.08	225.70
972.38	225.72
972.67	225.71
972.96	225.74
973.26	225.70
973.55	225.75
973.85	225.74
974.14	225.73
974.43	225.73
974.73	225.70
975.02	225.68
975.31	225.69
975.61	225.69
975.90	225.67
976.19	225.66
976.49	225.67
976.78	225.69
977.07	225.69
977.37	225.71
977.66	225.73
977.95	225.70
978.24	225.72
978.54	225.76
978.83	225.75
979.12	225.73
979.42	225.73
979.71	225.69
980.00	225.69
980.29	225.70
980.59	225.66
980.88	225.71
981.17	225.70
981.46	225.70
981.76	225.70
982.05	225.76
982.34	225.78
982.63	225.77
982.93	225.77
983.22	225.82
983.51	225.82
983.80	225.85
984.09	225.87
984.39	225.86
984.68	225.83
984.97	225.84
985.26	225.83
985.55	225.85
985.85	225.82
986.14	225.85
986.43	225.86
986.72	225.86
987.01	225.80
987.30	225.81
987.59	225.80
987.89	225.80
988.18	225.74
988.47	225.73
988.76	225.72
989.05	225.70
989.34	225.67
989.63	225.71
989.92	225.68
990.22	225.66
990.51	225.65
990.80	225.64
991.09	225.65
991.38	225.68
991.67	225.66
991.96	225.65
992.25	225.65
992.54	225.62
992.83	225.62
993.12	225.62
993.41	225.65
993.70	225.72
993.99	225.75
994.28	225.78
994.58	225.80
994.87	225.79
995.16	225.79
995.45	225.77
995.74	225.71
996.03	225.74
996.32	225.77
996.61	225.81
996.90	225.80
997.19	225.79
997.48	225.80
997.77	225.78
998.06	225.79
998.34	225.78
998.63	225.78
998.92	225.78
999.21	225.82
999.50	225.81
999.79	225.75
1000.08	225.74
1000.37	225.74
1000.66	225.71
1000.95	225.76
1001.24	225.77
1001.53	225.80
1001.82	225.80
1002.11	225.75
1002.40	225.76
1002.68	225.80
1002.97	225.93
1003.26	225.91
1003.55	225.88
1003.84	225.90
1004.13	225.96
1004.42	225.95
1004.71	225.95
1004.99	225.94
1005.28	225.98
1005.57	225.97
1005.86	225.95
1006.15	225.93
1006.44	225.90
1006.72	225.93
1007.01	225.89
1007.30	225.90
1007.59	225.88
1007.88	225.88
1008.17	225.89
1008.45	225.85
1008.74	225.78
1009.03	225.69
1009.32	225.69
1009.60	225.69
1009.89	225.67
1010.18	225.60
1010.47	225.59
1010.76	225.59
1011.04	225.59
1011.33	225.58
1011.62	225.59
1011.91	225.60
1012.19	225.61
1012.48	225.62
1012.77	225.62
1013.05	225.68
1013.34	225.68
1013.63	225.67
1013.92	225.69
1014.20	225.67
1014.49	225.69
1014.78	225.70
1015.06	225.65
1015.35	225.65
1015.64	225.68
1015.92	225.71
1016.21	225.72
1016.50	225.72
1016.78	225.74
1017.07	225.76
1017.36	225.73
1017.64	225.70
1017.93	225.72
1018.22	225.70
1018.50	225.70
1018.79	225.69
1019.08	225.62
1019.36	225.63
1019.65	225.61
1019.93	225.66
1020.22	225.69
1020.51	225.78
1020.79	225.75
1021.08	225.46
1021.36	225.37
1021.65	225.66
1021.94	225.59
1022.22	225.75
1022.51	225.34
1022.79	226.55
1023.08	225.95
1023.36	227.83
1023.65	225.20
>>>>>End Processed Spectral Data<<<<<
