SpectraSuite Data File
++++++++++++++++++++++++++++++++++++
Date: Tue Oct 06 22:33:33 EDT 2015
User: lab3
Dark Spectrum Present: No
Reference Spectrum Present: No
Number of Sampled Component Spectra: 1
Spectrometers: USB2E7196
Integration Time (usec): 66000 (USB2E7196)
Spectra Averaged: 10000 (USB2E7196)
Boxcar Smoothing: 10 (USB2E7196)
Correct for Electrical Dark: No (USB2E7196)
Strobe/Lamp Enabled: No (USB2E7196)
Correct for Detector Non-linearity: No (USB2E7196)
Correct for Stray Light: No (USB2E7196)
Number of Pixels in Processed Spectrum: 2048
>>>>>Begin Processed Spectral Data<<<<<
339.09	0.00
339.48	213.31
339.86	214.81
340.24	216.21
340.63	217.60
341.01	221.74
341.39	220.34
341.78	221.83
342.16	223.24
342.54	223.38
342.93	211.97
343.31	222.67
343.69	223.21
344.07	223.68
344.46	224.12
344.84	224.53
345.22	224.73
345.60	225.01
345.99	225.22
346.37	225.35
346.75	225.47
347.13	225.57
347.52	225.66
347.90	225.78
348.28	225.83
348.66	225.91
349.05	225.91
349.43	225.98
349.81	226.05
350.19	226.12
350.57	226.20
350.96	226.30
351.34	226.41
351.72	226.52
352.10	226.64
352.48	226.71
352.87	226.76
353.25	226.83
353.63	226.89
354.01	226.94
354.39	227.03
354.77	227.11
355.15	227.23
355.54	227.26
355.92	227.27
356.30	227.34
356.68	227.53
357.06	227.61
357.44	227.64
357.82	227.70
358.20	227.92
358.58	227.98
358.97	228.04
359.35	228.14
359.73	228.23
360.11	228.28
360.49	228.35
360.87	228.40
361.25	228.47
361.63	228.58
362.01	228.63
362.39	228.66
362.77	228.71
363.15	228.73
363.53	228.76
363.91	228.81
364.29	228.83
364.67	228.68
365.05	228.71
365.43	228.75
365.81	228.79
366.19	228.74
366.57	228.82
366.95	228.82
367.33	228.78
367.71	228.77
368.09	228.80
368.47	228.80
368.85	228.79
369.23	228.81
369.61	228.74
369.99	228.78
370.37	228.79
370.75	228.90
371.13	228.87
371.51	228.83
371.89	228.82
372.27	228.80
372.65	228.79
373.03	228.75
373.41	228.70
373.78	228.65
374.16	228.52
374.54	228.42
374.92	228.36
375.30	228.33
375.68	228.25
376.06	228.21
376.44	228.15
376.82	228.11
377.19	228.07
377.57	228.02
377.95	227.91
378.33	227.85
378.71	227.64
379.09	227.60
379.47	227.58
379.84	227.51
380.22	227.45
380.60	227.37
380.98	227.33
381.36	227.28
381.73	227.21
382.11	227.21
382.49	227.17
382.87	227.11
383.25	227.07
383.62	227.25
384.00	227.17
384.38	227.14
384.76	227.14
385.13	227.16
385.51	227.12
385.89	227.07
386.27	227.04
386.64	227.04
387.02	226.99
387.40	226.94
387.78	226.93
388.15	226.91
388.53	226.89
388.91	226.86
389.29	226.83
389.66	226.84
390.04	226.80
390.42	226.81
390.79	226.81
391.17	226.79
391.55	226.58
391.92	226.58
392.30	226.59
392.68	226.54
393.05	226.52
393.43	226.54
393.81	226.56
394.18	226.54
394.56	226.55
394.94	226.60
395.31	226.61
395.69	226.69
396.06	226.73
396.44	226.78
396.82	226.80
397.19	226.94
397.57	226.95
397.95	227.03
398.32	227.02
398.70	227.09
399.07	227.20
399.45	227.26
399.82	227.33
400.20	227.39
400.58	227.48
400.95	227.50
401.33	227.63
401.70	227.86
402.08	228.01
402.45	228.13
402.83	228.30
403.20	228.47
403.58	228.60
403.95	228.81
404.33	229.03
404.71	229.24
405.08	229.55
405.46	229.80
405.83	230.07
406.21	230.36
406.58	230.69
406.96	231.00
407.33	231.38
407.70	231.80
408.08	232.37
408.45	232.87
408.83	233.41
409.20	233.91
409.58	234.36
409.95	234.98
410.33	235.66
410.70	236.30
411.08	237.05
411.45	237.85
411.82	238.66
412.20	239.58
412.57	240.68
412.95	241.56
413.32	242.70
413.69	243.87
414.07	245.12
414.44	246.48
414.82	247.86
415.19	249.49
415.56	251.15
415.94	252.87
416.31	254.81
416.68	256.75
417.06	259.00
417.43	261.11
417.81	263.53
418.18	266.01
418.55	268.70
418.93	271.51
419.30	274.45
419.67	277.56
420.04	280.76
420.42	284.12
420.79	287.98
421.16	291.88
421.54	295.83
421.91	299.97
422.28	304.26
422.66	308.88
423.03	313.28
423.40	317.89
423.77	322.82
424.15	327.86
424.52	333.10
424.89	338.77
425.26	344.38
425.64	349.60
426.01	355.45
426.38	361.43
426.75	367.59
427.13	373.88
427.50	380.48
427.87	387.32
428.24	394.22
428.61	400.82
428.99	407.94
429.36	415.77
429.73	423.24
430.10	430.70
430.47	438.32
430.85	446.21
431.22	454.60
431.59	463.22
431.96	471.64
432.33	480.99
432.70	489.88
433.08	500.41
433.45	510.33
433.82	520.15
434.19	531.16
434.56	542.00
434.93	552.51
435.30	562.93
435.68	574.75
436.05	586.30
436.42	597.88
436.79	608.46
437.16	619.98
437.53	632.28
437.90	644.58
438.27	656.66
438.64	669.72
439.01	681.59
439.38	692.47
439.75	702.99
440.13	714.99
440.50	726.40
440.87	735.55
441.24	745.59
441.61	756.61
441.98	764.77
442.35	774.46
442.72	784.33
443.09	793.72
443.46	799.85
443.83	804.53
444.20	808.43
444.57	814.02
444.94	817.36
445.31	820.82
445.68	823.83
446.05	826.11
446.42	825.90
446.79	825.42
447.16	825.06
447.53	824.76
447.90	821.30
448.27	818.03
448.64	812.81
449.01	809.24
449.37	801.69
449.74	794.83
450.11	785.96
450.48	776.19
450.85	766.37
451.22	757.96
451.59	749.66
451.96	742.14
452.33	731.27
452.70	721.58
453.07	709.82
453.43	698.07
453.80	686.60
454.17	675.60
454.54	665.47
454.91	654.03
455.28	643.21
455.65	633.00
456.02	622.17
456.38	613.46
456.75	602.32
457.12	593.33
457.49	584.28
457.86	575.68
458.23	568.11
458.59	559.81
458.96	551.27
459.33	543.77
459.70	536.13
460.07	530.29
460.43	523.43
460.80	517.01
461.17	511.43
461.54	505.41
461.91	499.74
462.27	493.98
462.64	489.27
463.01	483.90
463.38	478.49
463.74	473.60
464.11	469.26
464.48	465.33
464.85	461.10
465.21	457.85
465.58	454.25
465.95	450.16
466.32	446.91
466.68	443.74
467.05	440.54
467.42	437.43
467.78	434.10
468.15	431.03
468.52	428.77
468.88	425.77
469.25	423.05
469.62	420.89
469.98	418.55
470.35	416.47
470.72	414.56
471.08	412.66
471.45	411.05
471.82	409.26
472.18	407.38
472.55	406.17
472.92	404.65
473.28	403.46
473.65	402.19
474.02	400.97
474.38	399.92
474.75	399.29
475.11	398.45
475.48	398.04
475.85	397.59
476.21	397.32
476.58	397.13
476.94	397.28
477.31	397.30
477.67	397.35
478.04	397.63
478.41	398.04
478.77	398.62
479.14	398.98
479.50	399.74
479.87	400.72
480.23	401.67
480.60	402.57
480.96	403.48
481.33	404.90
481.69	406.28
482.06	407.64
482.42	408.90
482.79	410.45
483.15	412.28
483.52	414.35
483.88	416.33
484.25	418.42
484.61	420.61
484.98	422.98
485.34	425.65
485.71	428.44
486.07	431.43
486.44	434.37
486.80	437.69
487.17	441.08
487.53	444.77
487.90	448.64
488.26	452.85
488.62	457.29
488.99	461.72
489.35	466.37
489.72	471.37
490.08	476.63
490.44	482.01
490.81	487.63
491.17	493.40
491.54	499.60
491.90	505.92
492.26	512.68
492.63	519.79
492.99	527.21
493.36	534.78
493.72	542.74
494.08	550.91
494.45	559.49
494.81	568.45
495.17	577.64
495.54	587.36
495.90	597.51
496.26	607.85
496.63	618.50
496.99	629.55
497.35	641.11
497.72	652.97
498.08	665.15
498.44	677.65
498.80	690.85
499.17	704.35
499.53	718.31
499.89	732.71
500.26	747.33
500.62	762.27
500.98	778.10
501.34	793.97
501.71	810.62
502.07	827.58
502.43	845.04
502.79	862.73
503.16	880.90
503.52	899.29
503.88	918.11
504.24	937.40
504.60	956.95
504.97	977.13
505.33	997.80
505.69	1019.52
506.05	1041.50
506.41	1063.46
506.78	1085.56
507.14	1108.20
507.50	1131.36
507.86	1154.91
508.22	1178.72
508.59	1202.44
508.95	1227.19
509.31	1252.47
509.67	1278.40
510.03	1304.27
510.39	1330.10
510.75	1356.01
511.12	1382.25
511.48	1408.81
511.84	1435.29
512.20	1462.15
512.56	1490.10
512.92	1517.91
513.28	1545.10
513.64	1572.70
514.00	1600.67
514.37	1628.98
514.73	1657.33
515.09	1685.00
515.45	1713.02
515.81	1741.29
516.17	1769.30
516.53	1796.63
516.89	1823.73
517.25	1851.18
517.61	1878.42
517.97	1906.29
518.33	1933.66
518.69	1960.95
519.05	1988.62
519.41	2016.49
519.77	2044.42
520.13	2070.85
520.49	2097.25
520.85	2124.06
521.21	2150.33
521.57	2176.93
521.93	2202.41
522.29	2228.58
522.65	2254.62
523.01	2280.36
523.37	2305.32
523.73	2331.10
524.09	2356.57
524.45	2381.86
524.81	2406.42
525.17	2430.94
525.53	2454.57
525.89	2478.62
526.25	2502.37
526.61	2524.38
526.97	2546.46
527.33	2568.29
527.68	2590.04
528.04	2611.46
528.40	2631.69
528.76	2651.97
529.12	2671.74
529.48	2692.26
529.84	2709.96
530.20	2728.01
530.56	2745.34
530.91	2762.80
531.27	2779.59
531.63	2795.53
531.99	2811.04
532.35	2826.40
532.71	2841.28
533.07	2856.59
533.42	2869.93
533.78	2883.43
534.14	2898.06
534.50	2911.55
534.86	2925.60
535.21	2937.31
535.57	2948.88
535.93	2960.14
536.29	2969.58
536.65	2978.92
537.00	2986.90
537.36	2996.18
537.72	3004.56
538.08	3012.39
538.44	3018.98
538.79	3025.39
539.15	3030.44
539.51	3034.72
539.87	3037.69
540.22	3039.05
540.58	3040.68
540.94	3043.07
541.29	3044.33
541.65	3044.21
542.01	3043.60
542.37	3041.27
542.72	3040.64
543.08	3038.23
543.44	3036.05
543.79	3033.69
544.15	3030.47
544.51	3027.11
544.87	3022.87
545.22	3017.64
545.58	3012.08
545.94	3006.76
546.29	2999.93
546.65	2993.30
547.01	2986.88
547.36	2981.00
547.72	2975.21
548.07	2967.60
548.43	2958.81
548.79	2949.75
549.14	2940.85
549.50	2932.19
549.86	2922.57
550.21	2911.20
550.57	2901.17
550.92	2889.27
551.28	2877.61
551.64	2866.29
551.99	2854.77
552.35	2842.72
552.70	2830.51
553.06	2818.82
553.41	2806.76
553.77	2794.31
554.13	2781.86
554.48	2768.28
554.84	2753.55
555.19	2739.30
555.55	2725.01
555.90	2711.27
556.26	2697.76
556.61	2683.19
556.97	2667.46
557.32	2652.26
557.68	2637.41
558.03	2622.03
558.39	2607.67
558.74	2594.07
559.10	2578.41
559.45	2562.87
559.81	2548.00
560.16	2532.78
560.52	2517.20
560.87	2501.86
561.23	2486.13
561.58	2471.02
561.94	2455.40
562.29	2439.37
562.64	2423.47
563.00	2407.61
563.35	2391.93
563.71	2375.84
564.06	2359.86
564.42	2344.45
564.77	2329.12
565.12	2313.40
565.48	2297.40
565.83	2281.59
566.19	2265.63
566.54	2250.01
566.89	2233.89
567.25	2217.74
567.60	2202.45
567.96	2186.50
568.31	2169.10
568.66	2152.52
569.02	2136.54
569.37	2121.14
569.72	2106.31
570.08	2091.06
570.43	2075.16
570.78	2059.04
571.14	2042.81
571.49	2026.57
571.84	2010.59
572.20	1993.33
572.55	1976.85
572.90	1960.59
573.26	1944.40
573.61	1927.55
573.96	1911.19
574.31	1894.68
574.67	1877.81
575.02	1860.62
575.37	1843.42
575.72	1827.15
576.08	1810.59
576.43	1793.21
576.78	1776.07
577.13	1759.18
577.49	1742.49
577.84	1726.37
578.19	1709.74
578.54	1693.12
578.90	1676.35
579.25	1659.40
579.60	1643.77
579.95	1627.84
580.30	1611.81
580.66	1595.50
581.01	1579.26
581.36	1563.08
581.71	1547.81
582.06	1532.59
582.42	1517.16
582.77	1502.22
583.12	1487.48
583.47	1472.78
583.82	1458.24
584.17	1443.14
584.53	1428.12
584.88	1413.47
585.23	1398.63
585.58	1384.21
585.93	1369.62
586.28	1356.13
586.63	1342.48
586.98	1328.32
587.34	1314.63
587.69	1300.71
588.04	1287.13
588.39	1273.86
588.74	1260.20
589.09	1246.65
589.44	1232.78
589.79	1219.57
590.14	1206.37
590.49	1193.23
590.84	1180.32
591.19	1167.81
591.54	1155.45
591.89	1142.66
592.25	1130.19
592.60	1117.59
592.95	1105.13
593.30	1093.15
593.65	1080.85
594.00	1068.85
594.35	1057.81
594.70	1045.99
595.05	1034.82
595.40	1023.50
595.75	1012.01
596.10	1001.18
596.45	990.31
596.80	979.89
597.15	969.41
597.50	958.94
597.85	948.77
598.19	938.61
598.54	928.39
598.89	918.76
599.24	909.54
599.59	900.08
599.94	891.33
600.29	882.62
600.64	873.67
600.99	864.59
601.34	855.89
601.69	846.62
602.04	838.34
602.39	829.94
602.74	821.74
603.08	813.69
603.43	805.63
603.78	797.56
604.13	789.54
604.48	781.55
604.83	773.82
605.18	766.13
605.53	758.64
605.87	751.14
606.22	743.72
606.57	736.24
606.92	728.71
607.27	721.17
607.62	713.84
607.96	706.79
608.31	700.26
608.66	693.62
609.01	687.28
609.36	680.87
609.70	674.45
610.05	668.02
610.40	661.79
610.75	655.52
611.10	649.50
611.44	643.48
611.79	637.60
612.14	631.61
612.49	625.72
612.83	620.12
613.18	614.59
613.53	609.06
613.88	603.66
614.22	598.66
614.57	593.59
614.92	588.64
615.27	583.81
615.61	578.84
615.96	573.91
616.31	568.99
616.65	564.22
617.00	559.57
617.35	555.02
617.70	550.48
618.04	546.05
618.39	541.75
618.74	537.71
619.08	533.63
619.43	529.69
619.78	525.70
620.12	521.67
620.47	517.86
620.82	514.17
621.16	510.51
621.51	506.89
621.85	503.26
622.20	499.70
622.55	496.13
622.89	492.61
623.24	489.27
623.59	486.01
623.93	482.84
624.28	479.79
624.62	476.94
624.97	474.12
625.32	471.22
625.66	468.27
626.01	465.28
626.35	462.48
626.70	459.61
627.04	456.96
627.39	454.27
627.73	451.67
628.08	449.10
628.43	446.56
628.77	443.95
629.12	441.45
629.46	439.08
629.81	436.86
630.15	434.55
630.50	432.28
630.84	430.05
631.19	427.86
631.53	425.76
631.88	423.49
632.22	421.31
632.57	419.44
632.91	417.52
633.26	415.68
633.60	413.86
633.95	412.13
634.29	410.27
634.64	408.47
634.98	406.57
635.32	404.84
635.67	403.28
636.01	401.71
636.36	400.20
636.70	398.76
637.05	397.15
637.39	395.72
637.73	394.27
638.08	392.89
638.42	391.56
638.77	390.09
639.11	388.60
639.45	387.16
639.80	385.67
640.14	384.25
640.49	382.85
640.83	381.44
641.17	380.08
641.52	378.77
641.86	377.49
642.20	376.35
642.55	375.04
642.89	373.73
643.23	372.51
643.58	371.42
643.92	370.17
644.26	369.02
644.61	367.90
644.95	366.75
645.29	365.54
645.64	364.30
645.98	363.20
646.32	362.22
646.66	361.15
647.01	360.13
647.35	359.20
647.69	358.23
648.04	357.35
648.38	356.38
648.72	355.47
649.06	354.56
649.41	353.62
649.75	352.73
650.09	351.88
650.43	351.00
650.78	350.07
651.12	349.22
651.46	348.36
651.80	347.53
652.14	346.76
652.49	346.04
652.83	345.26
653.17	344.45
653.51	343.66
653.85	342.99
654.20	342.28
654.54	341.46
654.88	340.69
655.22	339.96
655.56	339.22
655.90	338.51
656.25	337.82
656.59	337.16
656.93	336.52
657.27	335.94
657.61	335.27
657.95	334.67
658.29	334.05
658.64	333.44
658.98	332.77
659.32	332.12
659.66	331.51
660.00	330.95
660.34	330.38
660.68	329.77
661.02	329.09
661.36	328.46
661.70	327.87
662.05	327.31
662.39	326.75
662.73	326.28
663.07	325.84
663.41	325.36
663.75	324.82
664.09	324.29
664.43	323.64
664.77	323.10
665.11	322.50
665.45	321.97
665.79	321.45
666.13	320.93
666.47	320.39
666.81	319.81
667.15	319.19
667.49	318.71
667.83	318.29
668.17	317.83
668.51	317.40
668.85	316.99
669.19	316.64
669.53	316.10
669.87	315.54
670.21	314.98
670.55	314.46
670.89	314.05
671.23	313.59
671.57	313.19
671.91	312.84
672.25	312.50
672.58	312.16
672.92	311.72
673.26	311.37
673.60	311.02
673.94	310.65
674.28	310.31
674.62	309.94
674.96	309.50
675.30	309.12
675.64	308.68
675.97	308.22
676.31	307.73
676.65	307.33
676.99	307.00
677.33	306.56
677.67	306.17
678.01	305.69
678.34	305.27
678.68	304.89
679.02	304.44
679.36	303.99
679.70	303.53
680.04	303.14
680.37	302.72
680.71	302.33
681.05	301.97
681.39	301.56
681.73	301.10
682.06	300.67
682.40	300.28
682.74	299.92
683.08	299.62
683.42	299.24
683.75	298.89
684.09	298.42
684.43	298.04
684.77	297.62
685.10	297.25
685.44	296.85
685.78	296.44
686.12	296.04
686.45	295.62
686.79	295.18
687.13	294.78
687.46	294.33
687.80	293.91
688.14	293.44
688.48	293.02
688.81	292.59
689.15	292.23
689.49	291.79
689.82	291.35
690.16	290.80
690.50	290.35
690.83	289.90
691.17	289.45
691.51	289.02
691.84	288.62
692.18	288.18
692.52	287.71
692.85	287.26
693.19	286.88
693.52	286.44
693.86	285.99
694.20	285.56
694.53	285.12
694.87	284.65
695.21	284.19
695.54	283.74
695.88	283.28
696.21	282.78
696.55	282.33
696.88	281.88
697.22	281.45
697.56	281.04
697.89	280.56
698.23	280.14
698.56	279.68
698.90	279.26
699.23	278.80
699.57	278.39
699.90	277.96
700.24	277.49
700.58	277.09
700.91	276.72
701.25	276.47
701.58	276.14
701.92	275.80
702.25	275.42
702.59	275.01
702.92	274.61
703.26	274.19
703.59	273.78
703.93	273.51
704.26	273.12
704.60	272.70
704.93	272.30
705.26	271.88
705.60	271.52
705.93	271.07
706.27	270.76
706.60	270.41
706.94	270.08
707.27	269.65
707.61	269.26
707.94	268.83
708.27	268.27
708.61	267.80
708.94	267.37
709.28	266.97
709.61	266.59
709.94	266.24
710.28	265.90
710.61	265.57
710.95	265.05
711.28	264.81
711.61	264.44
711.95	264.13
712.28	263.76
712.61	263.37
712.95	263.13
713.28	262.83
713.61	262.44
713.95	262.04
714.28	261.71
714.61	261.35
714.95	261.01
715.28	260.67
715.61	260.35
715.95	260.05
716.28	259.72
716.61	259.44
716.95	259.09
717.28	258.78
717.61	258.45
717.94	258.15
718.28	257.73
718.61	257.42
718.94	257.09
719.27	256.80
719.61	256.53
719.94	256.19
720.27	255.81
720.60	255.53
720.94	255.24
721.27	254.97
721.60	254.73
721.93	254.45
722.27	254.22
722.60	253.95
722.93	253.64
723.26	253.40
723.59	253.09
723.93	252.85
724.26	252.61
724.59	252.35
724.92	252.11
725.25	251.91
725.59	251.66
725.92	251.44
726.25	251.20
726.58	250.95
726.91	250.69
727.24	250.47
727.57	250.23
727.91	249.96
728.24	249.75
728.57	249.50
728.90	249.29
729.23	249.01
729.56	248.87
729.89	248.64
730.22	248.41
730.55	248.19
730.89	247.97
731.22	247.75
731.55	247.53
731.88	247.32
732.21	247.08
732.54	246.86
732.87	246.66
733.20	246.47
733.53	246.28
733.86	246.10
734.19	245.89
734.52	245.73
734.85	245.68
735.18	245.47
735.51	245.34
735.84	245.16
736.17	245.04
736.50	244.76
736.83	244.80
737.16	244.62
737.49	244.45
737.82	244.25
738.15	244.09
738.48	243.91
738.81	243.73
739.14	243.54
739.47	243.35
739.80	243.17
740.13	243.01
740.46	242.80
740.79	242.60
741.12	242.42
741.45	242.22
741.78	241.94
742.11	241.81
742.44	241.59
742.77	241.44
743.10	241.24
743.43	241.07
743.75	240.72
744.08	240.84
744.41	240.66
744.74	240.50
745.07	240.32
745.40	240.20
745.73	240.13
746.06	239.99
746.39	239.88
746.71	239.72
747.04	239.56
747.37	239.41
747.70	239.30
748.03	239.17
748.36	239.06
748.68	238.92
749.01	238.74
749.34	238.62
749.67	238.49
750.00	238.39
750.33	238.39
750.65	238.28
750.98	237.89
751.31	237.77
751.64	237.67
751.97	237.64
752.29	237.50
752.62	237.29
752.95	237.16
753.28	237.01
753.60	236.88
753.93	236.81
754.26	236.71
754.59	236.54
754.91	236.40
755.24	236.27
755.57	236.16
755.90	236.04
756.22	235.90
756.55	235.75
756.88	235.60
757.20	235.36
757.53	235.20
757.86	235.09
758.19	234.99
758.51	234.87
758.84	234.68
759.17	234.56
759.49	234.47
759.82	234.45
760.15	234.37
760.47	234.28
760.80	234.12
761.13	234.05
761.45	233.96
761.78	233.87
762.11	233.78
762.43	233.67
762.76	233.58
763.08	233.52
763.41	233.45
763.74	233.38
764.06	233.29
764.39	233.22
764.71	233.13
765.04	233.03
765.37	232.93
765.69	232.85
766.02	232.76
766.34	232.67
766.67	232.53
767.00	232.48
767.32	232.50
767.65	232.55
767.97	232.46
768.30	232.40
768.62	232.33
768.95	232.23
769.27	232.16
769.60	232.12
769.92	232.01
770.25	231.91
770.57	231.81
770.90	231.75
771.22	231.67
771.55	231.61
771.87	231.56
772.20	231.50
772.52	231.59
772.85	231.76
773.17	231.70
773.50	231.63
773.82	231.54
774.15	231.40
774.47	231.22
774.80	231.15
775.12	231.09
775.45	231.04
775.77	230.99
776.09	230.96
776.42	230.90
776.74	230.91
777.07	230.86
777.39	230.82
777.72	230.76
778.04	230.74
778.36	230.67
778.69	230.64
779.01	230.60
779.33	230.40
779.66	230.15
779.98	230.09
780.31	230.07
780.63	230.10
780.95	230.09
781.28	230.05
781.60	229.99
781.92	229.95
782.25	229.91
782.57	229.87
782.89	229.82
783.22	229.77
783.54	229.69
783.86	229.67
784.19	229.63
784.51	229.64
784.83	229.58
785.16	229.55
785.48	229.51
785.80	229.47
786.12	229.45
786.45	229.42
786.77	229.40
787.09	229.35
787.42	229.25
787.74	229.22
788.06	229.20
788.38	229.17
788.71	229.12
789.03	229.10
789.35	229.09
789.67	229.04
789.99	229.03
790.32	228.98
790.64	228.97
790.96	229.12
791.28	229.03
791.61	228.99
791.93	228.97
792.25	228.93
792.57	229.04
792.89	228.98
793.21	228.96
793.54	228.92
793.86	228.87
794.18	228.86
794.50	228.80
794.82	228.77
795.14	228.77
795.47	228.78
795.79	228.75
796.11	228.69
796.43	228.66
796.75	228.64
797.07	228.62
797.39	228.58
797.71	228.41
798.04	228.40
798.36	228.39
798.68	228.36
799.00	228.35
799.32	228.23
799.64	228.24
799.96	228.22
800.28	228.23
800.60	228.21
800.92	228.20
801.24	228.17
801.56	228.16
801.89	228.13
802.21	228.11
802.53	228.06
802.85	228.09
803.17	228.15
803.49	228.09
803.81	228.06
804.13	228.02
804.45	227.98
804.77	227.97
805.09	227.95
805.41	227.92
805.73	227.86
806.05	227.80
806.37	227.76
806.69	227.73
807.01	227.69
807.33	227.68
807.65	227.60
807.97	227.66
808.28	227.62
808.60	227.60
808.92	227.55
809.24	227.65
809.56	227.60
809.88	227.51
810.20	227.52
810.52	227.54
810.84	227.50
811.16	227.47
811.48	227.43
811.80	227.48
812.12	227.47
812.43	227.49
812.75	227.49
813.07	227.46
813.39	227.45
813.71	227.42
814.03	227.39
814.35	227.39
814.67	227.30
814.98	227.28
815.30	227.27
815.62	227.22
815.94	227.09
816.26	227.10
816.58	227.05
816.89	227.05
817.21	226.99
817.53	226.99
817.85	226.99
818.17	226.98
818.48	226.89
818.80	226.92
819.12	226.87
819.44	226.83
819.76	226.80
820.07	226.78
820.39	226.77
820.71	226.77
821.03	226.76
821.34	226.74
821.66	226.76
821.98	226.76
822.30	226.74
822.61	226.85
822.93	226.81
823.25	226.81
823.57	226.78
823.88	226.79
824.20	226.78
824.52	226.80
824.83	226.79
825.15	226.76
825.47	226.73
825.79	226.74
826.10	226.72
826.42	226.71
826.74	226.72
827.05	226.71
827.37	226.70
827.69	226.68
828.00	226.68
828.32	226.66
828.64	226.63
828.95	226.73
829.27	226.66
829.58	226.65
829.90	226.67
830.22	226.68
830.53	226.64
830.85	226.61
831.17	226.55
831.48	226.54
831.80	226.55
832.11	226.53
832.43	226.49
832.75	226.49
833.06	226.59
833.38	226.53
833.69	226.52
834.01	226.52
834.32	226.50
834.64	226.49
834.96	226.48
835.27	226.47
835.59	226.40
835.90	226.37
836.22	226.37
836.53	226.32
836.85	226.30
837.16	226.48
837.48	226.48
837.79	226.54
838.11	226.54
838.42	226.53
838.74	226.55
839.05	226.53
839.37	226.52
839.68	226.41
840.00	226.40
840.31	226.42
840.63	226.40
840.94	226.38
841.26	226.36
841.57	226.35
841.88	226.36
842.20	226.33
842.51	226.30
842.83	226.29
843.14	226.46
843.46	226.45
843.77	226.33
844.08	226.32
844.40	226.26
844.71	226.24
845.03	226.22
845.34	226.20
845.65	226.19
845.97	226.19
846.28	226.20
846.60	226.21
846.91	226.18
847.22	226.17
847.54	226.21
847.85	226.22
848.16	226.20
848.48	226.17
848.79	226.23
849.10	226.25
849.42	226.26
849.73	226.08
850.04	226.08
850.36	226.01
850.67	226.04
850.98	226.04
851.30	226.06
851.61	226.05
851.92	226.04
852.23	226.09
852.55	226.10
852.86	226.10
853.17	226.11
853.49	226.15
853.80	226.18
854.11	226.19
854.42	226.21
854.74	226.18
855.05	226.19
855.36	226.09
855.67	226.09
855.99	226.09
856.30	226.30
856.61	226.30
856.92	226.30
857.23	226.30
857.55	226.28
857.86	226.26
858.17	226.30
858.48	226.27
858.79	226.22
859.11	226.24
859.42	226.22
859.73	226.19
860.04	226.18
860.35	226.12
860.66	226.06
860.98	226.05
861.29	226.07
861.60	226.06
861.91	226.10
862.22	226.07
862.53	226.04
862.84	225.82
863.16	225.86
863.47	225.82
863.78	225.79
864.09	225.81
864.40	225.82
864.71	225.81
865.02	225.83
865.33	225.81
865.64	225.77
865.95	225.77
866.27	225.88
866.58	225.86
866.89	225.88
867.20	225.88
867.51	225.84
867.82	225.83
868.13	225.88
868.44	225.83
868.75	225.87
869.06	225.88
869.37	225.90
869.68	225.85
869.99	225.88
870.30	225.89
870.61	225.90
870.92	225.88
871.23	225.86
871.54	225.88
871.85	225.92
872.16	225.94
872.47	225.92
872.78	225.82
873.09	225.84
873.40	225.82
873.71	225.83
874.02	225.85
874.33	225.83
874.64	225.78
874.95	225.82
875.26	225.78
875.56	225.77
875.87	225.76
876.18	225.76
876.49	225.93
876.80	225.91
877.11	225.87
877.42	225.89
877.73	225.89
878.04	225.86
878.35	225.85
878.66	225.86
878.96	225.86
879.27	225.85
879.58	225.84
879.89	225.83
880.20	225.87
880.51	225.86
880.82	225.86
881.12	225.87
881.43	225.82
881.74	225.80
882.05	225.79
882.36	225.80
882.67	225.82
882.97	225.62
883.28	225.61
883.59	225.61
883.90	225.62
884.21	225.64
884.51	225.64
884.82	225.61
885.13	225.60
885.44	225.60
885.74	225.60
886.05	225.59
886.36	225.60
886.67	225.53
886.98	225.63
887.28	225.65
887.59	225.65
887.90	225.66
888.20	225.66
888.51	225.69
888.82	225.66
889.13	225.67
889.43	225.83
889.74	225.82
890.05	225.82
890.35	225.79
890.66	225.76
890.97	225.74
891.28	225.72
891.58	225.72
891.89	225.72
892.20	225.70
892.50	225.68
892.81	225.67
893.12	225.68
893.42	225.58
893.73	225.58
894.04	225.58
894.34	225.59
894.65	225.58
894.95	225.57
895.26	225.58
895.57	225.65
895.87	225.47
896.18	225.51
896.48	225.52
896.79	225.52
897.10	225.55
897.40	225.56
897.71	225.59
898.01	225.57
898.32	225.59
898.63	225.58
898.93	225.59
899.24	225.60
899.54	225.59
899.85	225.59
900.15	225.58
900.46	225.58
900.76	225.59
901.07	225.59
901.38	225.58
901.68	225.60
901.99	225.50
902.29	225.51
902.60	225.49
902.90	225.48
903.21	225.47
903.51	225.46
903.82	225.49
904.12	225.49
904.43	225.50
904.73	225.50
905.03	225.51
905.34	225.68
905.64	225.67
905.95	225.67
906.25	225.66
906.56	225.66
906.86	225.66
907.17	225.64
907.47	225.65
907.77	225.63
908.08	225.59
908.38	225.61
908.69	225.62
908.99	225.65
909.30	225.66
909.60	225.65
909.90	225.65
910.21	225.60
910.51	225.57
910.81	225.57
911.12	225.57
911.42	225.57
911.73	225.39
912.03	225.40
912.33	225.44
912.64	225.42
912.94	225.40
913.24	225.37
913.55	225.36
913.85	225.35
914.15	225.39
914.46	225.41
914.76	225.39
915.06	225.38
915.37	225.35
915.67	225.34
915.97	225.34
916.27	225.31
916.58	225.33
916.88	225.33
917.18	225.31
917.49	225.43
917.79	225.42
918.09	225.45
918.39	225.49
918.70	225.48
919.00	225.49
919.30	225.58
919.60	225.57
919.91	225.55
920.21	225.56
920.51	225.52
920.81	225.51
921.12	225.54
921.42	225.52
921.72	225.54
922.02	225.55
922.32	225.57
922.63	225.58
922.93	225.67
923.23	225.69
923.53	225.67
923.83	225.55
924.13	225.56
924.44	225.56
924.74	225.58
925.04	225.62
925.34	225.61
925.64	225.53
925.94	225.54
926.24	225.64
926.55	225.63
926.85	225.65
927.15	225.65
927.45	225.64
927.75	225.64
928.05	225.64
928.35	225.63
928.65	225.65
928.95	225.67
929.26	225.58
929.56	225.61
929.86	225.64
930.16	225.63
930.46	225.61
930.76	225.62
931.06	225.53
931.36	225.49
931.66	225.52
931.96	225.54
932.26	225.55
932.56	225.47
932.86	225.49
933.16	225.48
933.46	225.47
933.76	225.45
934.06	225.48
934.36	225.54
934.66	225.53
934.96	225.50
935.26	225.51
935.56	225.54
935.86	225.49
936.16	225.46
936.46	225.44
936.76	225.43
937.06	225.40
937.36	225.42
937.66	225.43
937.96	225.41
938.26	225.38
938.56	225.37
938.86	225.38
939.16	225.42
939.46	225.43
939.76	225.44
940.06	225.44
940.35	225.41
940.65	225.31
940.95	225.33
941.25	225.29
941.55	225.26
941.85	225.25
942.15	225.29
942.45	225.34
942.75	225.34
943.04	225.35
943.34	225.39
943.64	225.37
943.94	225.34
944.24	225.34
944.54	225.35
944.84	225.35
945.13	225.32
945.43	225.29
945.73	225.28
946.03	225.26
946.33	225.25
946.62	225.23
946.92	225.23
947.22	225.25
947.52	225.26
947.82	225.29
948.11	225.26
948.41	225.22
948.71	225.17
949.01	225.18
949.31	225.17
949.60	225.15
949.90	225.18
950.20	225.17
950.50	225.17
950.79	225.15
951.09	225.18
951.39	225.17
951.69	225.15
951.98	225.19
952.28	225.20
952.58	225.20
952.87	225.21
953.17	225.23
953.47	225.21
953.76	225.20
954.06	225.17
954.36	225.15
954.66	225.15
954.95	225.20
955.25	225.21
955.55	225.23
955.84	225.20
956.14	225.21
956.44	225.22
956.73	225.20
957.03	225.21
957.32	225.21
957.62	225.20
957.92	225.24
958.21	225.22
958.51	225.43
958.81	225.45
959.10	225.47
959.40	225.50
959.69	225.52
959.99	225.55
960.29	225.56
960.58	225.56
960.88	225.63
961.17	225.60
961.47	225.62
961.76	225.61
962.06	225.64
962.36	225.62
962.65	225.63
962.95	225.64
963.24	225.62
963.54	225.63
963.83	225.64
964.13	225.63
964.42	225.61
964.72	225.46
965.01	225.46
965.31	225.44
965.60	225.40
965.90	225.51
966.19	225.46
966.49	225.47
966.78	225.47
967.08	225.45
967.37	225.45
967.67	225.41
967.96	225.44
968.26	225.43
968.55	225.45
968.85	225.44
969.14	225.44
969.43	225.44
969.73	225.42
970.02	225.41
970.32	225.40
970.61	225.37
970.91	225.32
971.20	225.29
971.49	225.28
971.79	225.30
972.08	225.17
972.38	225.18
972.67	225.17
972.96	225.19
973.26	225.16
973.55	225.21
973.85	225.21
974.14	225.19
974.43	225.20
974.73	225.17
975.02	225.15
975.31	225.15
975.61	225.15
975.90	225.14
976.19	225.13
976.49	225.14
976.78	225.15
977.07	225.16
977.37	225.17
977.66	225.19
977.95	225.16
978.24	225.18
978.54	225.22
978.83	225.20
979.12	225.19
979.42	225.20
979.71	225.15
980.00	225.15
980.29	225.16
980.59	225.12
980.88	225.16
981.17	225.16
981.46	225.17
981.76	225.17
982.05	225.22
982.34	225.24
982.63	225.24
982.93	225.24
983.22	225.28
983.51	225.28
983.80	225.31
984.09	225.33
984.39	225.32
984.68	225.29
984.97	225.30
985.26	225.29
985.55	225.31
985.85	225.27
986.14	225.30
986.43	225.32
986.72	225.32
987.01	225.26
987.30	225.26
987.59	225.25
987.89	225.26
988.18	225.20
988.47	225.18
988.76	225.17
989.05	225.15
989.34	225.13
989.63	225.17
989.92	225.14
990.22	225.12
990.51	225.12
990.80	225.10
991.09	225.12
991.38	225.14
991.67	225.12
991.96	225.11
992.25	225.11
992.54	225.08
992.83	225.09
993.12	225.09
993.41	225.12
993.70	225.19
993.99	225.22
994.28	225.25
994.58	225.28
994.87	225.26
995.16	225.26
995.45	225.25
995.74	225.18
996.03	225.21
996.32	225.24
996.61	225.27
996.90	225.28
997.19	225.26
997.48	225.26
997.77	225.25
998.06	225.26
998.34	225.25
998.63	225.25
998.92	225.26
999.21	225.29
999.50	225.28
999.79	225.22
1000.08	225.22
1000.37	225.21
1000.66	225.19
1000.95	225.23
1001.24	225.24
1001.53	225.27
1001.82	225.27
1002.11	225.22
1002.40	225.24
1002.68	225.27
1002.97	225.40
1003.26	225.38
1003.55	225.35
1003.84	225.36
1004.13	225.42
1004.42	225.42
1004.71	225.41
1004.99	225.40
1005.28	225.44
1005.57	225.42
1005.86	225.40
1006.15	225.39
1006.44	225.36
1006.72	225.39
1007.01	225.35
1007.30	225.35
1007.59	225.33
1007.88	225.33
1008.17	225.34
1008.45	225.30
1008.74	225.23
1009.03	225.14
1009.32	225.15
1009.60	225.15
1009.89	225.14
1010.18	225.06
1010.47	225.05
1010.76	225.05
1011.04	225.04
1011.33	225.03
1011.62	225.05
1011.91	225.06
1012.19	225.07
1012.48	225.08
1012.77	225.07
1013.05	225.14
1013.34	225.14
1013.63	225.13
1013.92	225.14
1014.20	225.13
1014.49	225.14
1014.78	225.16
1015.06	225.10
1015.35	225.10
1015.64	225.12
1015.92	225.15
1016.21	225.16
1016.50	225.17
1016.78	225.19
1017.07	225.20
1017.36	225.17
1017.64	225.15
1017.93	225.16
1018.22	225.15
1018.50	225.14
1018.79	225.14
1019.08	225.07
1019.36	225.08
1019.65	225.07
1019.93	225.12
1020.22	225.15
1020.51	225.24
1020.79	225.21
1021.08	224.91
1021.36	224.84
1021.65	225.17
1021.94	225.02
1022.22	225.27
1022.51	224.78
1022.79	226.00
1023.08	225.43
1023.36	227.27
1023.65	224.71
>>>>>End Processed Spectral Data<<<<<
