SpectraSuite Data File
++++++++++++++++++++++++++++++++++++
Date: Tue Oct 06 18:48:17 EDT 2015
User: lab3
Dark Spectrum Present: No
Reference Spectrum Present: No
Number of Sampled Component Spectra: 1
Spectrometers: USB2E7196
Integration Time (usec): 66000 (USB2E7196)
Spectra Averaged: 3000 (USB2E7196)
Boxcar Smoothing: 10 (USB2E7196)
Correct for Electrical Dark: No (USB2E7196)
Strobe/Lamp Enabled: No (USB2E7196)
Correct for Detector Non-linearity: No (USB2E7196)
Correct for Stray Light: No (USB2E7196)
Number of Pixels in Processed Spectrum: 2048
>>>>>Begin Processed Spectral Data<<<<<
339.09	0.00
339.48	215.12
339.86	216.54
340.24	217.89
340.63	219.45
341.01	223.40
341.39	222.04
341.78	223.46
342.16	224.89
342.54	225.08
342.93	213.60
343.31	224.39
343.69	224.92
344.07	225.39
344.46	225.84
344.84	226.24
345.22	226.44
345.60	226.72
345.99	226.92
346.37	227.06
346.75	227.17
347.13	227.26
347.52	227.35
347.90	227.47
348.28	227.51
348.66	227.60
349.05	227.58
349.43	227.65
349.81	227.73
350.19	227.80
350.57	227.87
350.96	227.97
351.34	228.08
351.72	228.18
352.10	228.30
352.48	228.37
352.87	228.42
353.25	228.49
353.63	228.54
354.01	228.60
354.39	228.68
354.77	228.77
355.15	228.89
355.54	228.93
355.92	228.93
356.30	229.01
356.68	229.19
357.06	229.27
357.44	229.31
357.82	229.36
358.20	229.58
358.58	229.64
358.97	229.70
359.35	229.79
359.73	229.89
360.11	229.93
360.49	229.99
360.87	230.04
361.25	230.10
361.63	230.21
362.01	230.27
362.39	230.29
362.77	230.34
363.15	230.36
363.53	230.39
363.91	230.44
364.29	230.46
364.67	230.31
365.05	230.34
365.43	230.38
365.81	230.42
366.19	230.37
366.57	230.45
366.95	230.45
367.33	230.41
367.71	230.41
368.09	230.45
368.47	230.45
368.85	230.44
369.23	230.47
369.61	230.40
369.99	230.44
370.37	230.44
370.75	230.56
371.13	230.53
371.51	230.49
371.89	230.48
372.27	230.46
372.65	230.45
373.03	230.41
373.41	230.37
373.78	230.31
374.16	230.18
374.54	230.08
374.92	230.04
375.30	230.01
375.68	229.93
376.06	229.88
376.44	229.82
376.82	229.79
377.19	229.75
377.57	229.69
377.95	229.57
378.33	229.51
378.71	229.30
379.09	229.26
379.47	229.24
379.84	229.17
380.22	229.11
380.60	229.03
380.98	228.98
381.36	228.93
381.73	228.86
382.11	228.86
382.49	228.81
382.87	228.75
383.25	228.70
383.62	228.87
384.00	228.79
384.38	228.76
384.76	228.76
385.13	228.77
385.51	228.74
385.89	228.69
386.27	228.66
386.64	228.66
387.02	228.62
387.40	228.57
387.78	228.56
388.15	228.54
388.53	228.52
388.91	228.50
389.29	228.47
389.66	228.48
390.04	228.43
390.42	228.45
390.79	228.45
391.17	228.44
391.55	228.24
391.92	228.23
392.30	228.24
392.68	228.19
393.05	228.17
393.43	228.18
393.81	228.20
394.18	228.18
394.56	228.19
394.94	228.24
395.31	228.25
395.69	228.32
396.06	228.36
396.44	228.40
396.82	228.42
397.19	228.55
397.57	228.57
397.95	228.64
398.32	228.63
398.70	228.70
399.07	228.80
399.45	228.86
399.82	228.93
400.20	228.98
400.58	229.07
400.95	229.09
401.33	229.22
401.70	229.45
402.08	229.59
402.45	229.72
402.83	229.89
403.20	230.06
403.58	230.19
403.95	230.39
404.33	230.62
404.71	230.83
405.08	231.14
405.46	231.38
405.83	231.66
406.21	231.95
406.58	232.28
406.96	232.59
407.33	232.97
407.70	233.38
408.08	233.95
408.45	234.45
408.83	234.98
409.20	235.47
409.58	235.91
409.95	236.53
410.33	237.19
410.70	237.82
411.08	238.55
411.45	239.34
411.82	240.14
412.20	241.04
412.57	242.11
412.95	242.97
413.32	244.09
413.69	245.23
414.07	246.45
414.44	247.78
414.82	249.13
415.19	250.72
415.56	252.34
415.94	254.03
416.31	255.93
416.68	257.83
417.06	260.03
417.43	262.10
417.81	264.46
418.18	266.87
418.55	269.50
418.93	272.25
419.30	275.12
419.67	278.16
420.04	281.29
420.42	284.56
420.79	288.34
421.16	292.14
421.54	295.98
421.91	300.01
422.28	304.19
422.66	308.70
423.03	312.99
423.40	317.49
423.77	322.29
424.15	327.20
424.52	332.29
424.89	337.81
425.26	343.28
425.64	348.35
426.01	354.06
426.38	359.88
426.75	365.87
427.13	371.98
427.50	378.39
427.87	385.04
428.24	391.73
428.61	398.13
428.99	405.04
429.36	412.63
429.73	419.88
430.10	427.10
430.47	434.48
430.85	442.08
431.22	450.20
431.59	458.53
431.96	466.66
432.33	475.69
432.70	484.29
433.08	494.46
433.45	504.06
433.82	513.53
434.19	524.14
434.56	534.59
434.93	544.74
435.30	554.79
435.68	566.20
436.05	577.32
436.42	588.48
436.79	598.68
437.16	609.76
437.53	621.59
437.90	633.44
438.27	645.09
438.64	657.67
439.01	669.09
439.38	679.58
439.75	689.73
440.13	701.29
440.50	712.28
440.87	721.09
441.24	730.77
441.61	741.36
441.98	749.22
442.35	758.58
442.72	768.11
443.09	777.18
443.46	783.12
443.83	787.68
444.20	791.47
444.57	796.92
444.94	800.20
445.31	803.65
445.68	806.61
446.05	808.89
446.42	808.76
446.79	808.38
447.16	808.13
447.53	807.95
447.90	804.74
448.27	801.69
448.64	796.72
449.01	793.38
449.37	786.23
449.74	779.72
450.11	771.26
450.48	761.90
450.85	752.54
451.22	744.50
451.59	736.57
451.96	729.41
452.33	718.98
452.70	709.70
453.07	698.39
453.43	687.11
453.80	676.07
454.17	665.49
454.54	655.74
454.91	644.70
455.28	634.27
455.65	624.42
456.02	613.98
456.38	605.57
456.75	594.80
457.12	586.09
457.49	577.31
457.86	568.99
458.23	561.67
458.59	553.60
458.96	545.31
459.33	538.04
459.70	530.63
460.07	524.97
460.43	518.29
460.80	512.05
461.17	506.63
461.54	500.76
461.91	495.26
462.27	489.67
462.64	485.09
463.01	479.85
463.38	474.57
463.74	469.81
464.11	465.59
464.48	461.76
464.85	457.66
465.21	454.52
465.58	451.02
465.95	447.05
466.32	443.88
466.68	440.79
467.05	437.65
467.42	434.60
467.78	431.34
468.15	428.34
468.52	426.15
468.88	423.24
469.25	420.58
469.62	418.47
469.98	416.19
470.35	414.15
470.72	412.31
471.08	410.45
471.45	408.89
471.82	407.13
472.18	405.30
472.55	404.11
472.92	402.63
473.28	401.47
473.65	400.23
474.02	399.05
474.38	398.04
474.75	397.45
475.11	396.64
475.48	396.26
475.85	395.84
476.21	395.57
476.58	395.39
476.94	395.56
477.31	395.60
477.67	395.66
478.04	395.96
478.41	396.36
478.77	396.95
479.14	397.31
479.50	398.06
479.87	399.03
480.23	399.96
480.60	400.86
480.96	401.77
481.33	403.15
481.69	404.52
482.06	405.87
482.42	407.11
482.79	408.65
483.15	410.45
483.52	412.49
483.88	414.43
484.25	416.48
484.61	418.64
484.98	420.97
485.34	423.60
485.71	426.33
486.07	429.26
486.44	432.14
486.80	435.40
487.17	438.73
487.53	442.36
487.90	446.15
488.26	450.30
488.62	454.65
488.99	458.99
489.35	463.54
489.72	468.43
490.08	473.60
490.44	478.87
490.81	484.37
491.17	490.02
491.54	496.09
491.90	502.28
492.26	508.90
492.63	515.84
492.99	523.08
493.36	530.45
493.72	538.21
494.08	546.17
494.45	554.52
494.81	563.24
495.17	572.21
495.54	581.66
495.90	591.52
496.26	601.58
496.63	611.94
496.99	622.68
497.35	633.91
497.72	645.38
498.08	657.20
498.44	669.32
498.80	682.11
499.17	695.20
499.53	708.74
499.89	722.69
500.26	736.83
500.62	751.34
500.98	766.65
501.34	781.98
501.71	798.12
502.07	814.53
502.43	831.39
502.79	848.45
503.16	866.00
503.52	883.73
503.88	901.87
504.24	920.45
504.60	939.27
504.97	958.72
505.33	978.63
505.69	999.55
506.05	1020.71
506.41	1041.75
506.78	1062.93
507.14	1084.68
507.50	1106.88
507.86	1129.48
508.22	1152.29
508.59	1175.01
508.95	1198.75
509.31	1222.94
509.67	1247.71
510.03	1272.42
510.39	1297.05
510.75	1321.80
511.12	1346.95
511.48	1372.23
511.84	1397.57
512.20	1423.23
512.56	1449.91
512.92	1476.39
513.28	1502.27
513.64	1528.58
514.00	1555.23
514.37	1582.11
514.73	1609.03
515.09	1635.31
515.45	1661.89
515.81	1688.61
516.17	1715.09
516.53	1740.98
516.89	1766.69
517.25	1792.69
517.61	1818.46
517.97	1844.97
518.33	1870.83
518.69	1896.53
519.05	1922.73
519.41	1949.04
519.77	1975.35
520.13	2000.15
520.49	2025.06
520.85	2050.33
521.21	2074.96
521.57	2099.88
521.93	2123.90
522.29	2148.48
522.65	2172.93
523.01	2197.05
523.37	2220.45
523.73	2244.55
524.09	2268.42
524.45	2291.93
524.81	2314.81
525.17	2337.55
525.53	2359.47
525.89	2381.83
526.25	2403.85
526.61	2424.21
526.97	2444.60
527.33	2464.88
527.68	2484.88
528.04	2504.55
528.40	2522.97
528.76	2541.58
529.12	2559.80
529.48	2578.54
529.84	2594.55
530.20	2610.93
530.56	2626.53
530.91	2642.43
531.27	2657.74
531.63	2671.98
531.99	2686.10
532.35	2699.91
532.71	2713.30
533.07	2726.98
533.42	2738.76
533.78	2750.78
534.14	2763.76
534.50	2775.60
534.86	2787.87
535.21	2798.17
535.57	2808.28
535.93	2818.18
536.29	2826.28
536.65	2834.28
537.00	2840.82
537.36	2848.86
537.72	2855.90
538.08	2862.45
538.44	2867.87
538.79	2872.94
539.15	2876.74
539.51	2879.70
539.87	2881.47
540.22	2881.79
540.58	2882.33
540.94	2883.76
541.29	2883.93
541.65	2882.87
542.01	2881.43
542.37	2878.39
542.72	2876.83
543.08	2873.58
543.44	2870.63
543.79	2867.36
544.15	2863.27
544.51	2859.40
544.87	2854.42
545.22	2848.52
545.58	2842.47
545.94	2836.56
546.29	2829.17
546.65	2822.09
547.01	2815.13
547.36	2808.64
547.72	2802.27
548.07	2794.21
548.43	2785.05
548.79	2775.73
549.14	2766.65
549.50	2757.61
549.86	2747.68
550.21	2736.20
550.57	2725.84
550.92	2713.72
551.28	2702.10
551.64	2690.75
551.99	2679.00
552.35	2666.85
552.70	2654.62
553.06	2642.81
553.41	2630.54
553.77	2618.15
554.13	2605.71
554.48	2592.20
554.84	2577.91
555.19	2564.07
555.55	2550.12
555.90	2536.63
556.26	2523.36
556.61	2508.96
556.97	2493.63
557.32	2478.81
557.68	2464.33
558.03	2449.53
558.39	2435.71
558.74	2422.38
559.10	2407.21
559.45	2392.25
559.81	2377.98
560.16	2363.36
560.52	2348.49
560.87	2333.84
561.23	2318.80
561.58	2304.36
561.94	2289.41
562.29	2273.95
562.64	2258.66
563.00	2243.50
563.35	2228.47
563.71	2213.11
564.06	2197.87
564.42	2183.19
564.77	2168.53
565.12	2153.52
565.48	2138.34
565.83	2123.35
566.19	2108.28
566.54	2093.49
566.89	2078.22
567.25	2062.84
567.60	2048.28
567.96	2032.97
568.31	2016.45
568.66	2000.91
569.02	1985.85
569.37	1971.39
569.72	1957.59
570.08	1943.26
570.43	1928.31
570.78	1913.26
571.14	1898.00
571.49	1882.82
571.84	1867.85
572.20	1851.74
572.55	1836.49
572.90	1821.26
573.26	1805.99
573.61	1790.16
573.96	1774.86
574.31	1759.37
574.67	1743.69
575.02	1727.75
575.37	1711.85
575.72	1696.71
576.08	1681.23
576.43	1665.12
576.78	1649.17
577.13	1633.43
577.49	1617.95
577.84	1602.95
578.19	1587.40
578.54	1571.98
578.90	1556.46
579.25	1540.86
579.60	1526.39
579.95	1511.63
580.30	1496.80
580.66	1481.73
581.01	1466.72
581.36	1451.85
581.71	1437.81
582.06	1423.73
582.42	1409.46
582.77	1395.68
583.12	1382.13
583.47	1368.55
583.82	1355.10
584.17	1341.23
584.53	1327.40
584.88	1313.85
585.23	1300.14
585.58	1286.86
585.93	1273.49
586.28	1261.11
586.63	1248.56
586.98	1235.59
587.34	1223.00
587.69	1210.25
588.04	1197.85
588.39	1185.72
588.74	1173.18
589.09	1160.73
589.44	1148.06
589.79	1135.96
590.14	1123.92
590.49	1111.93
590.84	1100.17
591.19	1088.74
591.54	1077.41
591.89	1065.67
592.25	1054.35
592.60	1042.88
592.95	1031.56
593.30	1020.59
593.65	1009.30
594.00	998.28
594.35	988.19
594.70	977.39
595.05	967.22
595.40	956.83
595.75	946.32
596.10	936.46
596.45	926.61
596.80	917.06
597.15	907.51
597.50	897.97
597.85	888.63
598.19	879.33
598.54	870.02
598.89	861.23
599.24	852.86
599.59	844.26
599.94	836.30
600.29	828.35
600.64	820.22
600.99	811.98
601.34	804.03
601.69	795.57
602.04	788.01
602.39	780.32
602.74	772.85
603.08	765.51
603.43	758.14
603.78	750.73
604.13	743.41
604.48	736.16
604.83	729.11
605.18	722.16
605.53	715.34
605.87	708.49
606.22	701.73
606.57	694.90
606.92	687.99
607.27	681.12
607.62	674.44
607.96	668.05
608.31	662.11
608.66	656.11
609.01	650.35
609.36	644.54
609.70	638.69
610.05	632.87
610.40	627.21
610.75	621.53
611.10	616.06
611.44	610.61
611.79	605.26
612.14	599.84
612.49	594.53
612.83	589.48
613.18	584.46
613.53	579.45
613.88	574.59
614.22	570.08
614.57	565.49
614.92	560.98
615.27	556.61
615.61	552.10
615.96	547.62
616.31	543.17
616.65	538.87
617.00	534.70
617.35	530.58
617.70	526.48
618.04	522.50
618.39	518.62
618.74	514.98
619.08	511.31
619.43	507.75
619.78	504.12
620.12	500.49
620.47	497.09
620.82	493.75
621.16	490.43
621.51	487.16
621.85	483.90
622.20	480.71
622.55	477.46
622.89	474.28
623.24	471.30
623.59	468.36
623.93	465.49
624.28	462.75
624.62	460.21
624.97	457.67
625.32	455.05
625.66	452.40
626.01	449.73
626.35	447.22
626.70	444.64
627.04	442.25
627.39	439.83
627.73	437.49
628.08	435.19
628.43	432.90
628.77	430.55
629.12	428.32
629.46	426.19
629.81	424.22
630.15	422.17
630.50	420.12
630.84	418.13
631.19	416.17
631.53	414.30
631.88	412.24
632.22	410.30
632.57	408.62
632.91	406.92
633.26	405.27
633.60	403.63
633.95	402.09
634.29	400.42
634.64	398.81
634.98	397.08
635.32	395.54
635.67	394.15
636.01	392.74
636.36	391.38
636.70	390.09
637.05	388.64
637.39	387.35
637.73	386.06
638.08	384.83
638.42	383.64
638.77	382.31
639.11	380.96
639.45	379.65
639.80	378.29
640.14	377.01
640.49	375.73
640.83	374.45
641.17	373.22
641.52	372.02
641.86	370.85
642.20	369.84
642.55	368.64
642.89	367.46
643.23	366.35
643.58	365.35
643.92	364.21
644.26	363.16
644.61	362.13
644.95	361.08
645.29	359.95
645.64	358.81
645.98	357.79
646.32	356.88
646.66	355.91
647.01	354.98
647.35	354.13
647.69	353.24
648.04	352.43
648.38	351.56
648.72	350.73
649.06	349.89
649.41	349.00
649.75	348.17
650.09	347.38
650.43	346.56
650.78	345.72
651.12	344.91
651.46	344.11
651.80	343.34
652.14	342.61
652.49	341.94
652.83	341.21
653.17	340.45
653.51	339.73
653.85	339.10
654.20	338.43
654.54	337.65
654.88	336.91
655.22	336.23
655.56	335.52
655.90	334.84
656.25	334.18
656.59	333.54
656.93	332.94
657.27	332.38
657.61	331.75
657.95	331.16
658.29	330.56
658.64	329.97
658.98	329.33
659.32	328.72
659.66	328.12
660.00	327.58
660.34	327.03
660.68	326.42
661.02	325.77
661.36	325.16
661.70	324.60
662.05	324.06
662.39	323.51
662.73	323.05
663.07	322.62
663.41	322.15
663.75	321.63
664.09	321.11
664.43	320.47
664.77	319.95
665.11	319.37
665.45	318.84
665.79	318.36
666.13	317.84
666.47	317.31
666.81	316.74
667.15	316.16
667.49	315.70
667.83	315.29
668.17	314.85
668.51	314.43
668.85	314.04
669.19	313.69
669.53	313.16
669.87	312.62
670.21	312.09
670.55	311.58
670.89	311.19
671.23	310.75
671.57	310.38
671.91	310.03
672.25	309.69
672.58	309.36
672.92	308.93
673.26	308.60
673.60	308.24
673.94	307.88
674.28	307.56
674.62	307.18
674.96	306.75
675.30	306.37
675.64	305.93
675.97	305.48
676.31	305.01
676.65	304.60
676.99	304.29
677.33	303.87
677.67	303.49
678.01	303.02
678.34	302.60
678.68	302.22
679.02	301.79
679.36	301.35
679.70	300.91
680.04	300.53
680.37	300.13
680.71	299.75
681.05	299.40
681.39	298.99
681.73	298.55
682.06	298.14
682.40	297.76
682.74	297.42
683.08	297.14
683.42	296.77
683.75	296.43
684.09	295.98
684.43	295.61
684.77	295.20
685.10	294.82
685.44	294.45
685.78	294.05
686.12	293.66
686.45	293.27
686.79	292.84
687.13	292.44
687.46	292.01
687.80	291.61
688.14	291.15
688.48	290.74
688.81	290.33
689.15	289.98
689.49	289.55
689.82	289.13
690.16	288.59
690.50	288.15
690.83	287.72
691.17	287.28
691.51	286.87
691.84	286.50
692.18	286.08
692.52	285.62
692.85	285.19
693.19	284.83
693.52	284.40
693.86	283.98
694.20	283.58
694.53	283.17
694.87	282.72
695.21	282.29
695.54	281.87
695.88	281.44
696.21	280.96
696.55	280.54
696.88	280.11
697.22	279.71
697.56	279.32
697.89	278.87
698.23	278.48
698.56	278.05
698.90	277.65
699.23	277.22
699.57	276.84
699.90	276.43
700.24	275.98
700.58	275.60
700.91	275.25
701.25	275.02
701.58	274.71
701.92	274.39
702.25	274.04
702.59	273.64
702.92	273.26
703.26	272.87
703.59	272.48
703.93	272.23
704.26	271.87
704.60	271.48
704.93	271.10
705.26	270.72
705.60	270.38
705.93	269.96
706.27	269.66
706.60	269.34
706.94	269.04
707.27	268.64
707.61	268.28
707.94	267.87
708.27	267.33
708.61	266.89
708.94	266.48
709.28	266.11
709.61	265.75
709.94	265.42
710.28	265.11
710.61	264.79
710.95	264.31
711.28	264.08
711.61	263.73
711.95	263.44
712.28	263.09
712.61	262.74
712.95	262.52
713.28	262.25
713.61	261.88
713.95	261.50
714.28	261.19
714.61	260.85
714.95	260.53
715.28	260.23
715.61	259.94
715.95	259.65
716.28	259.34
716.61	259.07
716.95	258.76
717.28	258.46
717.61	258.16
717.94	257.88
718.28	257.47
718.61	257.18
718.94	256.87
719.27	256.60
719.61	256.34
719.94	256.03
720.27	255.67
720.60	255.41
720.94	255.15
721.27	254.90
721.60	254.68
721.93	254.42
722.27	254.20
722.60	253.95
722.93	253.67
723.26	253.43
723.59	253.15
723.93	252.93
724.26	252.69
724.59	252.45
724.92	252.23
725.25	252.05
725.59	251.83
725.92	251.62
726.25	251.39
726.58	251.16
726.91	250.92
727.24	250.71
727.57	250.48
727.91	250.21
728.24	250.02
728.57	249.79
728.90	249.59
729.23	249.32
729.56	249.19
729.89	248.99
730.22	248.77
730.55	248.57
730.89	248.36
731.22	248.16
731.55	247.96
731.88	247.76
732.21	247.54
732.54	247.33
732.87	247.14
733.20	246.97
733.53	246.78
733.86	246.61
734.19	246.41
734.52	246.27
734.85	246.24
735.18	246.03
735.51	245.90
735.84	245.74
736.17	245.64
736.50	245.37
736.83	245.41
737.16	245.25
737.49	245.09
737.82	244.90
738.15	244.75
738.48	244.59
738.81	244.41
739.14	244.22
739.47	244.04
739.80	243.86
740.13	243.72
740.46	243.53
740.79	243.34
741.12	243.18
741.45	242.98
741.78	242.72
742.11	242.60
742.44	242.39
742.77	242.26
743.10	242.07
743.43	241.90
743.75	241.56
744.08	241.68
744.41	241.52
744.74	241.38
745.07	241.20
745.40	241.09
745.73	241.02
746.06	240.90
746.39	240.80
746.71	240.66
747.04	240.49
747.37	240.37
747.70	240.27
748.03	240.14
748.36	240.05
748.68	239.92
749.01	239.74
749.34	239.63
749.67	239.50
750.00	239.41
750.33	239.42
750.65	239.31
750.98	238.93
751.31	238.83
751.64	238.73
751.97	238.71
752.29	238.57
752.62	238.38
752.95	238.26
753.28	238.11
753.60	237.98
753.93	237.92
754.26	237.82
754.59	237.66
754.91	237.53
755.24	237.41
755.57	237.30
755.90	237.19
756.22	237.07
756.55	236.93
756.88	236.78
757.20	236.57
757.53	236.42
757.86	236.31
758.19	236.22
758.51	236.11
758.84	235.92
759.17	235.81
759.49	235.73
759.82	235.72
760.15	235.64
760.47	235.55
760.80	235.40
761.13	235.34
761.45	235.25
761.78	235.16
762.11	235.08
762.43	234.97
762.76	234.88
763.08	234.83
763.41	234.76
763.74	234.70
764.06	234.61
764.39	234.54
764.71	234.46
765.04	234.36
765.37	234.27
765.69	234.19
766.02	234.11
766.34	234.02
766.67	233.88
767.00	233.84
767.32	233.86
767.65	233.91
767.97	233.82
768.30	233.77
768.62	233.70
768.95	233.62
769.27	233.55
769.60	233.51
769.92	233.41
770.25	233.31
770.57	233.21
770.90	233.15
771.22	233.08
771.55	233.03
771.87	232.99
772.20	232.93
772.52	233.03
772.85	233.19
773.17	233.14
773.50	233.08
773.82	233.01
774.15	232.87
774.47	232.70
774.80	232.63
775.12	232.58
775.45	232.52
775.77	232.49
776.09	232.45
776.42	232.40
776.74	232.41
777.07	232.36
777.39	232.33
777.72	232.27
778.04	232.25
778.36	232.19
778.69	232.13
779.01	232.11
779.33	231.91
779.66	231.67
779.98	231.61
780.31	231.58
780.63	231.61
780.95	231.60
781.28	231.57
781.60	231.51
781.92	231.48
782.25	231.44
782.57	231.40
782.89	231.34
783.22	231.30
783.54	231.22
783.86	231.21
784.19	231.16
784.51	231.18
784.83	231.12
785.16	231.09
785.48	231.06
785.80	231.02
786.12	231.00
786.45	230.97
786.77	230.95
787.09	230.91
787.42	230.82
787.74	230.78
788.06	230.76
788.38	230.72
788.71	230.68
789.03	230.66
789.35	230.65
789.67	230.61
789.99	230.59
790.32	230.55
790.64	230.54
790.96	230.68
791.28	230.59
791.61	230.55
791.93	230.54
792.25	230.50
792.57	230.59
792.89	230.54
793.21	230.52
793.54	230.48
793.86	230.44
794.18	230.42
794.50	230.36
794.82	230.33
795.14	230.33
795.47	230.35
795.79	230.32
796.11	230.26
796.43	230.24
796.75	230.21
797.07	230.20
797.39	230.15
797.71	229.98
798.04	229.97
798.36	229.96
798.68	229.93
799.00	229.92
799.32	229.82
799.64	229.82
799.96	229.80
800.28	229.81
800.60	229.79
800.92	229.78
801.24	229.75
801.56	229.75
801.89	229.72
802.21	229.70
802.53	229.65
802.85	229.66
803.17	229.73
803.49	229.68
803.81	229.65
804.13	229.62
804.45	229.58
804.77	229.57
805.09	229.55
805.41	229.52
805.73	229.48
806.05	229.41
806.37	229.39
806.69	229.35
807.01	229.32
807.33	229.31
807.65	229.23
807.97	229.29
808.28	229.24
808.60	229.22
808.92	229.17
809.24	229.27
809.56	229.21
809.88	229.13
810.20	229.12
810.52	229.14
810.84	229.11
811.16	229.08
811.48	229.05
811.80	229.10
812.12	229.09
812.43	229.11
812.75	229.11
813.07	229.08
813.39	229.08
813.71	229.04
814.03	229.01
814.35	229.01
814.67	228.93
814.98	228.90
815.30	228.89
815.62	228.86
815.94	228.73
816.26	228.74
816.58	228.70
816.89	228.71
817.21	228.66
817.53	228.66
817.85	228.66
818.17	228.64
818.48	228.55
818.80	228.57
819.12	228.53
819.44	228.48
819.76	228.45
820.07	228.43
820.39	228.41
820.71	228.42
821.03	228.41
821.34	228.39
821.66	228.41
821.98	228.42
822.30	228.40
822.61	228.50
822.93	228.47
823.25	228.47
823.57	228.44
823.88	228.45
824.20	228.44
824.52	228.46
824.83	228.44
825.15	228.42
825.47	228.40
825.79	228.41
826.10	228.40
826.42	228.40
826.74	228.41
827.05	228.41
827.37	228.41
827.69	228.40
828.00	228.39
828.32	228.38
828.64	228.35
828.95	228.44
829.27	228.37
829.58	228.36
829.90	228.38
830.22	228.39
830.53	228.36
830.85	228.33
831.17	228.28
831.48	228.27
831.80	228.27
832.11	228.25
832.43	228.21
832.75	228.21
833.06	228.31
833.38	228.25
833.69	228.23
834.01	228.23
834.32	228.21
834.64	228.19
834.96	228.18
835.27	228.18
835.59	228.11
835.90	228.08
836.22	228.07
836.53	228.03
836.85	228.00
837.16	228.17
837.48	228.18
837.79	228.23
838.11	228.24
838.42	228.23
838.74	228.25
839.05	228.23
839.37	228.22
839.68	228.10
840.00	228.09
840.31	228.12
840.63	228.09
840.94	228.07
841.26	228.05
841.57	228.04
841.88	228.05
842.20	228.02
842.51	227.99
842.83	227.98
843.14	228.14
843.46	228.13
843.77	228.02
844.08	228.01
844.40	227.95
844.71	227.93
845.03	227.91
845.34	227.88
845.65	227.88
845.97	227.87
846.28	227.88
846.60	227.88
846.91	227.85
847.22	227.85
847.54	227.88
847.85	227.89
848.16	227.87
848.48	227.83
848.79	227.90
849.10	227.91
849.42	227.91
849.73	227.74
850.04	227.73
850.36	227.66
850.67	227.69
850.98	227.70
851.30	227.71
851.61	227.70
851.92	227.70
852.23	227.75
852.55	227.76
852.86	227.76
853.17	227.78
853.49	227.81
853.80	227.84
854.11	227.86
854.42	227.88
854.74	227.86
855.05	227.86
855.36	227.77
855.67	227.78
855.99	227.78
856.30	227.99
856.61	227.98
856.92	227.99
857.23	227.99
857.55	227.96
857.86	227.94
858.17	227.97
858.48	227.95
858.79	227.90
859.11	227.91
859.42	227.90
859.73	227.88
860.04	227.85
860.35	227.80
860.66	227.74
860.98	227.73
861.29	227.75
861.60	227.74
861.91	227.78
862.22	227.75
862.53	227.73
862.84	227.51
863.16	227.55
863.47	227.52
863.78	227.49
864.09	227.50
864.40	227.52
864.71	227.51
865.02	227.53
865.33	227.51
865.64	227.48
865.95	227.48
866.27	227.59
866.58	227.57
866.89	227.60
867.20	227.59
867.51	227.57
867.82	227.55
868.13	227.60
868.44	227.56
868.75	227.59
869.06	227.60
869.37	227.62
869.68	227.57
869.99	227.60
870.30	227.62
870.61	227.63
870.92	227.60
871.23	227.58
871.54	227.59
871.85	227.63
872.16	227.65
872.47	227.63
872.78	227.53
873.09	227.55
873.40	227.52
873.71	227.54
874.02	227.55
874.33	227.54
874.64	227.50
874.95	227.53
875.26	227.49
875.56	227.48
875.87	227.45
876.18	227.45
876.49	227.62
876.80	227.60
877.11	227.58
877.42	227.59
877.73	227.60
878.04	227.58
878.35	227.57
878.66	227.57
878.96	227.57
879.27	227.56
879.58	227.55
879.89	227.54
880.20	227.58
880.51	227.57
880.82	227.57
881.12	227.58
881.43	227.54
881.74	227.52
882.05	227.52
882.36	227.53
882.67	227.55
882.97	227.35
883.28	227.34
883.59	227.33
883.90	227.34
884.21	227.36
884.51	227.35
884.82	227.32
885.13	227.32
885.44	227.32
885.74	227.33
886.05	227.32
886.36	227.32
886.67	227.26
886.98	227.35
887.28	227.36
887.59	227.36
887.90	227.36
888.20	227.37
888.51	227.39
888.82	227.37
889.13	227.38
889.43	227.54
889.74	227.53
890.05	227.53
890.35	227.51
890.66	227.48
890.97	227.46
891.28	227.45
891.58	227.45
891.89	227.45
892.20	227.43
892.50	227.41
892.81	227.41
893.12	227.41
893.42	227.32
893.73	227.33
894.04	227.33
894.34	227.34
894.65	227.34
894.95	227.33
895.26	227.34
895.57	227.40
895.87	227.23
896.18	227.26
896.48	227.27
896.79	227.27
897.10	227.30
897.40	227.31
897.71	227.33
898.01	227.32
898.32	227.33
898.63	227.32
898.93	227.34
899.24	227.34
899.54	227.33
899.85	227.32
900.15	227.31
900.46	227.30
900.76	227.32
901.07	227.31
901.38	227.29
901.68	227.32
901.99	227.22
902.29	227.23
902.60	227.21
902.90	227.19
903.21	227.19
903.51	227.17
903.82	227.20
904.12	227.20
904.43	227.21
904.73	227.20
905.03	227.21
905.34	227.38
905.64	227.37
905.95	227.38
906.25	227.37
906.56	227.36
906.86	227.37
907.17	227.35
907.47	227.36
907.77	227.34
908.08	227.30
908.38	227.31
908.69	227.32
908.99	227.35
909.30	227.37
909.60	227.36
909.90	227.36
910.21	227.31
910.51	227.28
910.81	227.28
911.12	227.29
911.42	227.29
911.73	227.11
912.03	227.12
912.33	227.15
912.64	227.14
912.94	227.13
913.24	227.10
913.55	227.09
913.85	227.08
914.15	227.12
914.46	227.14
914.76	227.13
915.06	227.11
915.37	227.08
915.67	227.07
915.97	227.07
916.27	227.05
916.58	227.06
916.88	227.06
917.18	227.04
917.49	227.16
917.79	227.15
918.09	227.19
918.39	227.23
918.70	227.21
919.00	227.22
919.30	227.31
919.60	227.30
919.91	227.28
920.21	227.29
920.51	227.25
920.81	227.24
921.12	227.26
921.42	227.24
921.72	227.25
922.02	227.26
922.32	227.28
922.63	227.29
922.93	227.39
923.23	227.40
923.53	227.39
923.83	227.26
924.13	227.28
924.44	227.26
924.74	227.28
925.04	227.33
925.34	227.32
925.64	227.23
925.94	227.24
926.24	227.34
926.55	227.32
926.85	227.35
927.15	227.34
927.45	227.34
927.75	227.35
928.05	227.35
928.35	227.34
928.65	227.36
928.95	227.37
929.26	227.28
929.56	227.31
929.86	227.33
930.16	227.31
930.46	227.30
930.76	227.31
931.06	227.23
931.36	227.18
931.66	227.21
931.96	227.23
932.26	227.25
932.56	227.17
932.86	227.19
933.16	227.18
933.46	227.17
933.76	227.14
934.06	227.17
934.36	227.24
934.66	227.23
934.96	227.21
935.26	227.21
935.56	227.24
935.86	227.20
936.16	227.18
936.46	227.17
936.76	227.16
937.06	227.13
937.36	227.15
937.66	227.16
937.96	227.15
938.26	227.10
938.56	227.10
938.86	227.10
939.16	227.14
939.46	227.16
939.76	227.17
940.06	227.18
940.35	227.15
940.65	227.05
940.95	227.06
941.25	227.02
941.55	227.01
941.85	226.99
942.15	227.04
942.45	227.09
942.75	227.09
943.04	227.09
943.34	227.13
943.64	227.11
943.94	227.09
944.24	227.08
944.54	227.10
944.84	227.09
945.13	227.07
945.43	227.03
945.73	227.01
946.03	226.99
946.33	226.97
946.62	226.95
946.92	226.95
947.22	226.97
947.52	226.98
947.82	227.00
948.11	226.98
948.41	226.93
948.71	226.87
949.01	226.88
949.31	226.86
949.60	226.84
949.90	226.87
950.20	226.86
950.50	226.86
950.79	226.84
951.09	226.87
951.39	226.87
951.69	226.86
951.98	226.89
952.28	226.90
952.58	226.90
952.87	226.91
953.17	226.94
953.47	226.91
953.76	226.92
954.06	226.88
954.36	226.86
954.66	226.87
954.95	226.92
955.25	226.93
955.55	226.95
955.84	226.93
956.14	226.94
956.44	226.95
956.73	226.93
957.03	226.95
957.32	226.94
957.62	226.93
957.92	226.97
958.21	226.95
958.51	227.15
958.81	227.17
959.10	227.19
959.40	227.23
959.69	227.24
959.99	227.27
960.29	227.28
960.58	227.28
960.88	227.35
961.17	227.32
961.47	227.33
961.76	227.31
962.06	227.34
962.36	227.32
962.65	227.33
962.95	227.35
963.24	227.33
963.54	227.33
963.83	227.34
964.13	227.33
964.42	227.31
964.72	227.17
965.01	227.17
965.31	227.16
965.60	227.11
965.90	227.22
966.19	227.18
966.49	227.19
966.78	227.18
967.08	227.16
967.37	227.17
967.67	227.13
967.96	227.16
968.26	227.15
968.55	227.17
968.85	227.16
969.14	227.16
969.43	227.16
969.73	227.14
970.02	227.13
970.32	227.12
970.61	227.09
970.91	227.03
971.20	227.01
971.49	227.00
971.79	227.02
972.08	226.89
972.38	226.90
972.67	226.90
972.96	226.93
973.26	226.89
973.55	226.94
973.85	226.94
974.14	226.92
974.43	226.93
974.73	226.90
975.02	226.88
975.31	226.88
975.61	226.88
975.90	226.87
976.19	226.85
976.49	226.86
976.78	226.88
977.07	226.88
977.37	226.89
977.66	226.91
977.95	226.89
978.24	226.90
978.54	226.94
978.83	226.93
979.12	226.91
979.42	226.91
979.71	226.87
980.00	226.87
980.29	226.87
980.59	226.84
980.88	226.89
981.17	226.89
981.46	226.90
981.76	226.90
982.05	226.96
982.34	226.98
982.63	226.99
982.93	226.99
983.22	227.03
983.51	227.03
983.80	227.06
984.09	227.08
984.39	227.07
984.68	227.03
984.97	227.04
985.26	227.03
985.55	227.05
985.85	227.02
986.14	227.05
986.43	227.07
986.72	227.06
987.01	227.01
987.30	227.00
987.59	227.00
987.89	227.00
988.18	226.94
988.47	226.93
988.76	226.92
989.05	226.90
989.34	226.87
989.63	226.92
989.92	226.89
990.22	226.87
990.51	226.86
990.80	226.85
991.09	226.87
991.38	226.88
991.67	226.86
991.96	226.84
992.25	226.84
992.54	226.80
992.83	226.81
993.12	226.81
993.41	226.84
993.70	226.91
993.99	226.94
994.28	226.96
994.58	226.99
994.87	226.97
995.16	226.97
995.45	226.95
995.74	226.88
996.03	226.91
996.32	226.94
996.61	226.98
996.90	226.97
997.19	226.96
997.48	226.96
997.77	226.95
998.06	226.96
998.34	226.95
998.63	226.96
998.92	226.97
999.21	227.00
999.50	227.00
999.79	226.93
1000.08	226.93
1000.37	226.92
1000.66	226.90
1000.95	226.94
1001.24	226.95
1001.53	226.98
1001.82	226.98
1002.11	226.93
1002.40	226.94
1002.68	226.97
1002.97	227.10
1003.26	227.08
1003.55	227.06
1003.84	227.07
1004.13	227.13
1004.42	227.13
1004.71	227.12
1004.99	227.11
1005.28	227.15
1005.57	227.14
1005.86	227.12
1006.15	227.10
1006.44	227.07
1006.72	227.10
1007.01	227.07
1007.30	227.06
1007.59	227.05
1007.88	227.05
1008.17	227.07
1008.45	227.03
1008.74	226.96
1009.03	226.87
1009.32	226.88
1009.60	226.88
1009.89	226.86
1010.18	226.78
1010.47	226.77
1010.76	226.77
1011.04	226.77
1011.33	226.77
1011.62	226.78
1011.91	226.80
1012.19	226.80
1012.48	226.81
1012.77	226.81
1013.05	226.86
1013.34	226.87
1013.63	226.86
1013.92	226.87
1014.20	226.85
1014.49	226.86
1014.78	226.88
1015.06	226.83
1015.35	226.83
1015.64	226.86
1015.92	226.88
1016.21	226.90
1016.50	226.90
1016.78	226.92
1017.07	226.93
1017.36	226.90
1017.64	226.87
1017.93	226.88
1018.22	226.86
1018.50	226.86
1018.79	226.86
1019.08	226.80
1019.36	226.82
1019.65	226.80
1019.93	226.85
1020.22	226.88
1020.51	226.97
1020.79	226.95
1021.08	226.63
1021.36	226.66
1021.65	226.86
1021.94	226.89
1022.22	227.06
1022.51	226.46
1022.79	227.72
1023.08	227.21
1023.36	228.92
1023.65	226.44
>>>>>End Processed Spectral Data<<<<<
