SpectraSuite Data File
++++++++++++++++++++++++++++++++++++
Date: Tue Oct 06 20:01:30 EDT 2015
User: lab3
Dark Spectrum Present: No
Reference Spectrum Present: No
Number of Sampled Component Spectra: 1
Spectrometers: USB2E7196
Integration Time (usec): 66000 (USB2E7196)
Spectra Averaged: 5000 (USB2E7196)
Boxcar Smoothing: 10 (USB2E7196)
Correct for Electrical Dark: No (USB2E7196)
Strobe/Lamp Enabled: No (USB2E7196)
Correct for Detector Non-linearity: No (USB2E7196)
Correct for Stray Light: No (USB2E7196)
Number of Pixels in Processed Spectrum: 2048
>>>>>Begin Processed Spectral Data<<<<<
339.09	0.00
339.48	214.97
339.86	216.40
340.24	217.78
340.63	219.16
341.01	223.21
341.39	221.94
341.78	223.48
342.16	224.77
342.54	224.98
342.93	213.47
343.31	224.25
343.69	224.79
344.07	225.25
344.46	225.70
344.84	226.11
345.22	226.31
345.60	226.59
345.99	226.79
346.37	226.93
346.75	227.05
347.13	227.14
347.52	227.23
347.90	227.36
348.28	227.41
348.66	227.50
349.05	227.49
349.43	227.57
349.81	227.64
350.19	227.71
350.57	227.80
350.96	227.90
351.34	228.01
351.72	228.12
352.10	228.24
352.48	228.31
352.87	228.36
353.25	228.43
353.63	228.48
354.01	228.55
354.39	228.62
354.77	228.70
355.15	228.83
355.54	228.87
355.92	228.87
356.30	228.95
356.68	229.12
357.06	229.21
357.44	229.25
357.82	229.31
358.20	229.52
358.58	229.58
358.97	229.65
359.35	229.74
359.73	229.83
360.11	229.88
360.49	229.95
360.87	230.00
361.25	230.07
361.63	230.18
362.01	230.24
362.39	230.27
362.77	230.32
363.15	230.34
363.53	230.37
363.91	230.41
364.29	230.44
364.67	230.30
365.05	230.32
365.43	230.36
365.81	230.40
366.19	230.35
366.57	230.43
366.95	230.42
367.33	230.39
367.71	230.38
368.09	230.41
368.47	230.41
368.85	230.40
369.23	230.42
369.61	230.35
369.99	230.38
370.37	230.39
370.75	230.51
371.13	230.47
371.51	230.43
371.89	230.42
372.27	230.40
372.65	230.39
373.03	230.35
373.41	230.30
373.78	230.25
374.16	230.12
374.54	230.03
374.92	229.97
375.30	229.94
375.68	229.86
376.06	229.82
376.44	229.76
376.82	229.73
377.19	229.68
377.57	229.63
377.95	229.52
378.33	229.46
378.71	229.25
379.09	229.21
379.47	229.19
379.84	229.12
380.22	229.06
380.60	228.98
380.98	228.94
381.36	228.89
381.73	228.83
382.11	228.82
382.49	228.78
382.87	228.71
383.25	228.67
383.62	228.84
384.00	228.77
384.38	228.74
384.76	228.74
385.13	228.76
385.51	228.73
385.89	228.68
386.27	228.65
386.64	228.64
387.02	228.59
387.40	228.54
387.78	228.53
388.15	228.51
388.53	228.48
388.91	228.45
389.29	228.42
389.66	228.43
390.04	228.38
390.42	228.40
390.79	228.40
391.17	228.39
391.55	228.18
391.92	228.17
392.30	228.19
392.68	228.14
393.05	228.12
393.43	228.13
393.81	228.15
394.18	228.13
394.56	228.15
394.94	228.20
395.31	228.21
395.69	228.29
396.06	228.34
396.44	228.39
396.82	228.41
397.19	228.54
397.57	228.56
397.95	228.64
398.32	228.63
398.70	228.70
399.07	228.80
399.45	228.86
399.82	228.94
400.20	228.99
400.58	229.08
400.95	229.10
401.33	229.23
401.70	229.45
402.08	229.59
402.45	229.72
402.83	229.90
403.20	230.07
403.58	230.20
403.95	230.40
404.33	230.62
404.71	230.84
405.08	231.14
405.46	231.39
405.83	231.66
406.21	231.96
406.58	232.28
406.96	232.60
407.33	232.98
407.70	233.39
408.08	233.95
408.45	234.45
408.83	234.99
409.20	235.48
409.58	235.93
409.95	236.54
410.33	237.21
410.70	237.83
411.08	238.57
411.45	239.36
411.82	240.17
412.20	241.09
412.57	242.17
412.95	243.04
413.32	244.17
413.69	245.32
414.07	246.56
414.44	247.91
414.82	249.28
415.19	250.89
415.56	252.53
415.94	254.24
416.31	256.15
416.68	258.07
417.06	260.30
417.43	262.39
417.81	264.79
418.18	267.25
418.55	269.92
418.93	272.70
419.30	275.61
419.67	278.69
420.04	281.85
420.42	285.16
420.79	288.98
421.16	292.83
421.54	296.73
421.91	300.81
422.28	305.05
422.66	309.62
423.03	313.96
423.40	318.51
423.77	323.38
424.15	328.36
424.52	333.53
424.89	339.12
425.26	344.66
425.64	349.80
426.01	355.57
426.38	361.47
426.75	367.53
427.13	373.73
427.50	380.22
427.87	386.96
428.24	393.75
428.61	400.25
428.99	407.27
429.36	414.98
429.73	422.32
430.10	429.66
430.47	437.15
430.85	444.89
431.22	453.15
431.59	461.62
431.96	469.89
432.33	479.07
432.70	487.81
433.08	498.15
433.45	507.90
433.82	517.52
434.19	528.32
434.56	538.95
434.93	549.27
435.30	559.50
435.68	571.09
436.05	582.42
436.42	593.76
436.79	604.13
437.16	615.40
437.53	627.44
437.90	639.48
438.27	651.32
438.64	664.12
439.01	675.72
439.38	686.36
439.75	696.67
440.13	708.42
440.50	719.59
440.87	728.53
441.24	738.37
441.61	749.15
441.98	757.13
442.35	766.61
442.72	776.26
443.09	785.47
443.46	791.49
443.83	796.09
444.20	799.91
444.57	805.42
444.94	808.74
445.31	812.19
445.68	815.16
446.05	817.44
446.42	817.26
446.79	816.85
447.16	816.56
447.53	816.32
447.90	813.00
448.27	809.85
448.64	804.77
449.01	801.33
449.37	794.01
449.74	787.36
450.11	778.72
450.48	769.20
450.85	759.64
451.22	751.44
451.59	743.34
451.96	736.04
452.33	725.41
452.70	715.95
453.07	704.44
453.43	692.95
453.80	681.73
454.17	670.97
454.54	661.04
454.91	649.81
455.28	639.20
455.65	629.19
456.02	618.58
456.38	610.05
456.75	599.11
457.12	590.28
457.49	581.38
457.86	572.94
458.23	565.50
458.59	557.32
458.96	548.92
459.33	541.55
459.70	534.04
460.07	528.29
460.43	521.52
460.80	515.19
461.17	509.69
461.54	503.75
461.91	498.17
462.27	492.51
462.64	487.88
463.01	482.59
463.38	477.24
463.74	472.41
464.11	468.13
464.48	464.24
464.85	460.07
465.21	456.86
465.58	453.32
465.95	449.29
466.32	446.08
466.68	442.94
467.05	439.77
467.42	436.69
467.78	433.39
468.15	430.37
468.52	428.14
468.88	425.19
469.25	422.49
469.62	420.35
469.98	418.04
470.35	415.97
470.72	414.09
471.08	412.21
471.45	410.62
471.82	408.84
472.18	406.99
472.55	405.78
472.92	404.28
473.28	403.10
473.65	401.85
474.02	400.64
474.38	399.61
474.75	399.00
475.11	398.17
475.48	397.77
475.85	397.32
476.21	397.06
476.58	396.87
476.94	397.03
477.31	397.07
477.67	397.13
478.04	397.41
478.41	397.82
478.77	398.40
479.14	398.77
479.50	399.53
479.87	400.50
480.23	401.44
480.60	402.35
480.96	403.27
481.33	404.67
481.69	406.04
482.06	407.39
482.42	408.63
482.79	410.19
483.15	412.01
483.52	414.06
483.88	416.02
484.25	418.09
484.61	420.28
484.98	422.63
485.34	425.28
485.71	428.06
486.07	431.02
486.44	433.93
486.80	437.22
487.17	440.58
487.53	444.24
487.90	448.07
488.26	452.25
488.62	456.65
488.99	461.03
489.35	465.64
489.72	470.60
490.08	475.83
490.44	481.17
490.81	486.74
491.17	492.46
491.54	498.60
491.90	504.87
492.26	511.57
492.63	518.58
492.99	525.92
493.36	533.41
493.72	541.29
494.08	549.37
494.45	557.85
494.81	566.71
495.17	575.83
495.54	585.45
495.90	595.48
496.26	605.71
496.63	616.25
496.99	627.17
497.35	638.60
497.72	650.30
498.08	662.35
498.44	674.71
498.80	687.77
499.17	701.12
499.53	714.94
499.89	729.17
500.26	743.64
500.62	758.44
500.98	774.09
501.34	789.76
501.71	806.26
502.07	823.05
502.43	840.33
502.79	857.80
503.16	875.79
503.52	893.97
503.88	912.60
504.24	931.67
504.60	950.99
504.97	970.99
505.33	991.45
505.69	1012.95
506.05	1034.71
506.41	1056.36
506.78	1078.20
507.14	1100.61
507.50	1123.53
507.86	1146.83
508.22	1170.38
508.59	1193.85
508.95	1218.39
509.31	1243.41
509.67	1269.04
510.03	1294.58
510.39	1320.13
510.75	1345.76
511.12	1371.84
511.48	1398.11
511.84	1424.38
512.20	1451.06
512.56	1478.78
512.92	1506.32
513.28	1533.26
513.64	1560.66
514.00	1588.44
514.37	1616.48
514.73	1644.57
515.09	1671.98
515.45	1699.78
515.81	1727.77
516.17	1755.54
516.53	1782.63
516.89	1809.58
517.25	1836.88
517.61	1863.96
517.97	1891.74
518.33	1918.95
518.69	1946.03
519.05	1973.58
519.41	2001.28
519.77	2029.00
520.13	2055.23
520.49	2081.56
520.85	2108.29
521.21	2134.40
521.57	2160.84
521.93	2186.31
522.29	2212.42
522.65	2238.45
523.01	2264.10
523.37	2289.00
523.73	2314.69
524.09	2340.16
524.45	2365.30
524.81	2389.78
525.17	2414.23
525.53	2437.84
525.89	2461.85
526.25	2485.52
526.61	2507.49
526.97	2529.61
527.33	2551.56
527.68	2573.25
528.04	2594.64
528.40	2614.76
528.76	2635.07
529.12	2654.94
529.48	2675.41
529.84	2693.10
530.20	2711.17
530.56	2728.48
530.91	2746.05
531.27	2762.99
531.63	2778.93
531.99	2794.72
532.35	2810.20
532.71	2825.18
533.07	2840.51
533.42	2853.87
533.78	2867.54
534.14	2882.26
534.50	2895.80
534.86	2909.77
535.21	2921.64
535.57	2933.29
535.93	2944.77
536.29	2954.33
536.65	2963.81
537.00	2971.87
537.36	2981.38
537.72	2989.90
538.08	2997.91
538.44	3004.70
538.79	3011.19
539.15	3016.30
539.51	3020.55
539.87	3023.58
540.22	3025.10
540.58	3026.87
540.94	3029.57
541.29	3030.92
541.65	3030.96
542.01	3030.49
542.37	3028.48
542.72	3028.05
543.08	3025.80
543.44	3023.82
543.79	3021.59
544.15	3018.48
544.51	3015.45
544.87	3011.38
545.22	3006.29
545.58	3001.02
545.94	2995.93
546.29	2989.24
546.65	2982.84
547.01	2976.64
547.36	2970.96
547.72	2965.32
548.07	2957.91
548.43	2949.28
548.79	2940.45
549.14	2931.84
549.50	2923.34
549.86	2913.81
550.21	2902.61
550.57	2892.70
550.92	2880.86
551.28	2869.41
551.64	2858.29
551.99	2846.83
552.35	2834.87
552.70	2822.80
553.06	2811.18
553.41	2799.11
553.77	2786.87
554.13	2774.57
554.48	2761.05
554.84	2746.62
555.19	2732.66
555.55	2718.57
555.90	2705.00
556.26	2691.64
556.61	2677.15
556.97	2661.59
557.32	2646.58
557.68	2631.89
558.03	2616.77
558.39	2602.73
558.74	2589.25
559.10	2573.73
559.45	2558.42
559.81	2543.80
560.16	2528.79
560.52	2513.51
560.87	2498.40
561.23	2482.86
561.58	2467.98
561.94	2452.55
562.29	2436.57
562.64	2420.76
563.00	2405.06
563.35	2389.43
563.71	2373.49
564.06	2357.60
564.42	2342.31
564.77	2327.03
565.12	2311.40
565.48	2295.48
565.83	2279.79
566.19	2264.01
566.54	2248.55
566.89	2232.55
567.25	2216.44
567.60	2201.20
567.96	2185.11
568.31	2167.72
568.66	2151.36
569.02	2135.47
569.37	2120.18
569.72	2105.58
570.08	2090.41
570.43	2074.62
570.78	2058.67
571.14	2042.51
571.49	2026.41
571.84	2010.59
572.20	1993.45
572.55	1977.21
572.90	1961.10
573.26	1944.90
573.61	1928.08
573.96	1911.80
574.31	1895.29
574.67	1878.54
575.02	1861.47
575.37	1844.50
575.72	1828.36
576.08	1811.78
576.43	1794.50
576.78	1777.42
577.13	1760.57
577.49	1743.98
577.84	1727.87
578.19	1711.25
578.54	1694.69
578.90	1678.00
579.25	1661.14
579.60	1645.61
579.95	1629.74
580.30	1613.73
580.66	1597.48
581.01	1581.31
581.36	1565.27
581.71	1550.11
582.06	1534.92
582.42	1519.52
582.77	1504.65
583.12	1489.97
583.47	1475.29
583.82	1460.78
584.17	1445.72
584.53	1430.73
584.88	1416.07
585.23	1401.27
585.58	1386.90
585.93	1372.39
586.28	1358.99
586.63	1345.40
586.98	1331.30
587.34	1317.60
587.69	1303.75
588.04	1290.28
588.39	1277.09
588.74	1263.45
589.09	1249.96
589.44	1236.17
589.79	1222.97
590.14	1209.84
590.49	1196.77
590.84	1183.95
591.19	1171.49
591.54	1159.18
591.89	1146.40
592.25	1134.01
592.60	1121.44
592.95	1109.06
593.30	1097.08
593.65	1084.78
594.00	1072.76
594.35	1061.70
594.70	1049.90
595.05	1038.77
595.40	1027.41
595.75	1015.89
596.10	1005.07
596.45	994.23
596.80	983.79
597.15	973.35
597.50	962.89
597.85	952.68
598.19	942.50
598.54	932.33
598.89	922.71
599.24	913.50
599.59	904.08
599.94	895.36
600.29	886.61
600.64	877.66
600.99	868.56
601.34	859.82
601.69	850.55
602.04	842.24
602.39	833.80
602.74	825.57
603.08	817.51
603.43	809.40
603.78	801.28
604.13	793.23
604.48	785.23
604.83	777.45
605.18	769.78
605.53	762.25
605.87	754.66
606.22	747.20
606.57	739.67
606.92	732.07
607.27	724.48
607.62	717.13
607.96	710.06
608.31	703.52
608.66	696.88
609.01	690.52
609.36	684.10
609.70	677.63
610.05	671.17
610.40	664.92
610.75	658.64
611.10	652.58
611.44	646.55
611.79	640.63
612.14	634.64
612.49	628.73
612.83	623.13
613.18	617.59
613.53	612.04
613.88	606.66
614.22	601.64
614.57	596.55
614.92	591.55
615.27	586.69
615.61	581.68
615.96	576.72
616.31	571.78
616.65	567.00
617.00	562.35
617.35	557.77
617.70	553.21
618.04	548.77
618.39	544.45
618.74	540.37
619.08	536.26
619.43	532.31
619.78	528.27
620.12	524.23
620.47	520.42
620.82	516.72
621.16	513.04
621.51	509.39
621.85	505.74
622.20	502.19
622.55	498.59
622.89	495.05
623.24	491.72
623.59	488.43
623.93	485.25
624.28	482.21
624.62	479.35
624.97	476.51
625.32	473.58
625.66	470.62
626.01	467.64
626.35	464.83
626.70	461.93
627.04	459.29
627.39	456.58
627.73	453.95
628.08	451.37
628.43	448.80
628.77	446.18
629.12	443.68
629.46	441.30
629.81	439.06
630.15	436.75
630.50	434.45
630.84	432.21
631.19	430.00
631.53	427.87
631.88	425.59
632.22	423.41
632.57	421.52
632.91	419.60
633.26	417.74
633.60	415.90
633.95	414.17
634.29	412.27
634.64	410.47
634.98	408.55
635.32	406.82
635.67	405.24
636.01	403.66
636.36	402.13
636.70	400.68
637.05	399.08
637.39	397.63
637.73	396.18
638.08	394.81
638.42	393.47
638.77	391.99
639.11	390.49
639.45	389.04
639.80	387.54
640.14	386.14
640.49	384.73
640.83	383.33
641.17	381.97
641.52	380.67
641.86	379.38
642.20	378.25
642.55	376.93
642.89	375.63
643.23	374.41
643.58	373.33
643.92	372.07
644.26	370.92
644.61	369.80
644.95	368.64
645.29	367.41
645.64	366.17
645.98	365.06
646.32	364.06
646.66	363.00
647.01	361.97
647.35	361.03
647.69	360.06
648.04	359.15
648.38	358.18
648.72	357.26
649.06	356.35
649.41	355.40
649.75	354.51
650.09	353.66
650.43	352.77
650.78	351.86
651.12	351.00
651.46	350.14
651.80	349.31
652.14	348.54
652.49	347.82
652.83	347.05
653.17	346.23
653.51	345.45
653.85	344.79
654.20	344.08
654.54	343.26
654.88	342.48
655.22	341.77
655.56	341.02
655.90	340.31
656.25	339.60
656.59	338.93
656.93	338.29
657.27	337.70
657.61	337.03
657.95	336.41
658.29	335.78
658.64	335.18
658.98	334.51
659.32	333.86
659.66	333.24
660.00	332.68
660.34	332.11
660.68	331.48
661.02	330.79
661.36	330.16
661.70	329.58
662.05	329.01
662.39	328.45
662.73	327.98
663.07	327.53
663.41	327.05
663.75	326.50
664.09	325.96
664.43	325.30
664.77	324.77
665.11	324.17
665.45	323.63
665.79	323.10
666.13	322.56
666.47	322.01
666.81	321.43
667.15	320.81
667.49	320.33
667.83	319.90
668.17	319.44
668.51	319.01
668.85	318.59
669.19	318.22
669.53	317.66
669.87	317.10
670.21	316.55
670.55	316.02
670.89	315.62
671.23	315.18
671.57	314.79
671.91	314.43
672.25	314.08
672.58	313.75
672.92	313.31
673.26	312.97
673.60	312.61
673.94	312.23
674.28	311.90
674.62	311.52
674.96	311.08
675.30	310.69
675.64	310.24
675.97	309.78
676.31	309.30
676.65	308.89
676.99	308.57
677.33	308.13
677.67	307.74
678.01	307.26
678.34	306.83
678.68	306.43
679.02	305.97
679.36	305.53
679.70	305.07
680.04	304.67
680.37	304.25
680.71	303.87
681.05	303.51
681.39	303.09
681.73	302.63
682.06	302.21
682.40	301.82
682.74	301.47
683.08	301.18
683.42	300.80
683.75	300.45
684.09	299.97
684.43	299.58
684.77	299.17
685.10	298.79
685.44	298.39
685.78	297.99
686.12	297.59
686.45	297.18
686.79	296.73
687.13	296.33
687.46	295.88
687.80	295.46
688.14	294.98
688.48	294.56
688.81	294.14
689.15	293.78
689.49	293.34
689.82	292.90
690.16	292.35
690.50	291.89
690.83	291.44
691.17	290.99
691.51	290.56
691.84	290.16
692.18	289.72
692.52	289.25
692.85	288.79
693.19	288.41
693.52	287.97
693.86	287.54
694.20	287.10
694.53	286.67
694.87	286.19
695.21	285.74
695.54	285.30
695.88	284.84
696.21	284.33
696.55	283.88
696.88	283.43
697.22	283.00
697.56	282.59
697.89	282.11
698.23	281.69
698.56	281.24
698.90	280.81
699.23	280.35
699.57	279.94
699.90	279.51
700.24	279.04
700.58	278.64
700.91	278.27
701.25	278.02
701.58	277.69
701.92	277.34
702.25	276.96
702.59	276.54
702.92	276.14
703.26	275.72
703.59	275.31
703.93	275.04
704.26	274.66
704.60	274.24
704.93	273.85
705.26	273.43
705.60	273.07
705.93	272.63
706.27	272.31
706.60	271.96
706.94	271.64
707.27	271.23
707.61	270.83
707.94	270.40
708.27	269.84
708.61	269.38
708.94	268.95
709.28	268.56
709.61	268.18
709.94	267.84
710.28	267.50
710.61	267.16
710.95	266.65
711.28	266.40
711.61	266.04
711.95	265.72
712.28	265.36
712.61	264.98
712.95	264.73
713.28	264.43
713.61	264.05
713.95	263.65
714.28	263.31
714.61	262.95
714.95	262.62
715.28	262.28
715.61	261.97
715.95	261.67
716.28	261.34
716.61	261.06
716.95	260.72
717.28	260.40
717.61	260.08
717.94	259.79
718.28	259.36
718.61	259.06
718.94	258.73
719.27	258.44
719.61	258.17
719.94	257.84
720.27	257.46
720.60	257.18
720.94	256.89
721.27	256.62
721.60	256.38
721.93	256.09
722.27	255.86
722.60	255.59
722.93	255.30
723.26	255.03
723.59	254.73
723.93	254.50
724.26	254.25
724.59	253.98
724.92	253.75
725.25	253.55
725.59	253.31
725.92	253.08
726.25	252.83
726.58	252.59
726.91	252.33
727.24	252.12
727.57	251.87
727.91	251.61
728.24	251.40
728.57	251.15
728.90	250.93
729.23	250.65
729.56	250.51
729.89	250.29
730.22	250.07
730.55	249.84
730.89	249.62
731.22	249.39
731.55	249.17
731.88	248.95
732.21	248.72
732.54	248.50
732.87	248.30
733.20	248.11
733.53	247.92
733.86	247.74
734.19	247.52
734.52	247.37
734.85	247.32
735.18	247.11
735.51	246.98
735.84	246.81
736.17	246.69
736.50	246.41
736.83	246.43
737.16	246.25
737.49	246.09
737.82	245.90
738.15	245.75
738.48	245.57
738.81	245.38
739.14	245.18
739.47	245.00
739.80	244.82
740.13	244.66
740.46	244.46
740.79	244.26
741.12	244.08
741.45	243.88
741.78	243.60
742.11	243.47
742.44	243.25
742.77	243.10
743.10	242.90
743.43	242.74
743.75	242.39
744.08	242.50
744.41	242.33
744.74	242.17
745.07	241.98
745.40	241.87
745.73	241.79
746.06	241.67
746.39	241.55
746.71	241.39
747.04	241.23
747.37	241.08
747.70	240.96
748.03	240.83
748.36	240.72
748.68	240.58
749.01	240.40
749.34	240.28
749.67	240.14
750.00	240.04
750.33	240.04
750.65	239.92
750.98	239.53
751.31	239.42
751.64	239.31
751.97	239.29
752.29	239.14
752.62	238.94
752.95	238.81
753.28	238.66
753.60	238.53
753.93	238.45
754.26	238.35
754.59	238.19
754.91	238.05
755.24	237.91
755.57	237.80
755.90	237.69
756.22	237.55
756.55	237.41
756.88	237.26
757.20	237.03
757.53	236.87
757.86	236.75
758.19	236.65
758.51	236.54
758.84	236.34
759.17	236.22
759.49	236.13
759.82	236.11
760.15	236.03
760.47	235.93
760.80	235.78
761.13	235.70
761.45	235.61
761.78	235.52
762.11	235.44
762.43	235.32
762.76	235.22
763.08	235.16
763.41	235.09
763.74	235.02
764.06	234.93
764.39	234.85
764.71	234.77
765.04	234.67
765.37	234.57
765.69	234.49
766.02	234.40
766.34	234.31
766.67	234.15
767.00	234.11
767.32	234.13
767.65	234.18
767.97	234.09
768.30	234.03
768.62	233.95
768.95	233.86
769.27	233.79
769.60	233.74
769.92	233.64
770.25	233.54
770.57	233.43
770.90	233.37
771.22	233.29
771.55	233.23
771.87	233.19
772.20	233.13
772.52	233.22
772.85	233.37
773.17	233.32
773.50	233.25
773.82	233.16
774.15	233.01
774.47	232.85
774.80	232.77
775.12	232.71
775.45	232.66
775.77	232.61
776.09	232.58
776.42	232.52
776.74	232.53
777.07	232.48
777.39	232.45
777.72	232.39
778.04	232.37
778.36	232.30
778.69	232.26
779.01	232.22
779.33	232.02
779.66	231.77
779.98	231.71
780.31	231.68
780.63	231.72
780.95	231.71
781.28	231.67
781.60	231.61
781.92	231.58
782.25	231.54
782.57	231.50
782.89	231.45
783.22	231.40
783.54	231.32
783.86	231.30
784.19	231.25
784.51	231.27
784.83	231.21
785.16	231.17
785.48	231.13
785.80	231.10
786.12	231.08
786.45	231.05
786.77	231.03
787.09	230.99
787.42	230.88
787.74	230.85
788.06	230.82
788.38	230.79
788.71	230.74
789.03	230.72
789.35	230.71
789.67	230.66
789.99	230.64
790.32	230.59
790.64	230.57
790.96	230.71
791.28	230.62
791.61	230.60
791.93	230.58
792.25	230.54
792.57	230.64
792.89	230.58
793.21	230.56
793.54	230.52
793.86	230.48
794.18	230.46
794.50	230.40
794.82	230.38
795.14	230.38
795.47	230.39
795.79	230.37
796.11	230.30
796.43	230.28
796.75	230.25
797.07	230.24
797.39	230.20
797.71	230.03
798.04	230.01
798.36	230.00
798.68	229.97
799.00	229.96
799.32	229.85
799.64	229.86
799.96	229.83
800.28	229.85
800.60	229.82
800.92	229.81
801.24	229.78
801.56	229.78
801.89	229.73
802.21	229.72
802.53	229.67
802.85	229.69
803.17	229.75
803.49	229.70
803.81	229.67
804.13	229.63
804.45	229.59
804.77	229.59
805.09	229.57
805.41	229.54
805.73	229.48
806.05	229.42
806.37	229.38
806.69	229.35
807.01	229.31
807.33	229.31
807.65	229.23
807.97	229.29
808.28	229.25
808.60	229.23
808.92	229.18
809.24	229.28
809.56	229.23
809.88	229.15
810.20	229.15
810.52	229.17
810.84	229.13
811.16	229.11
811.48	229.07
811.80	229.12
812.12	229.10
812.43	229.13
812.75	229.12
813.07	229.10
813.39	229.09
813.71	229.06
814.03	229.03
814.35	229.02
814.67	228.93
814.98	228.91
815.30	228.90
815.62	228.86
815.94	228.72
816.26	228.73
816.58	228.68
816.89	228.68
817.21	228.62
817.53	228.62
817.85	228.63
818.17	228.61
818.48	228.52
818.80	228.54
819.12	228.50
819.44	228.46
819.76	228.42
820.07	228.41
820.39	228.39
820.71	228.40
821.03	228.38
821.34	228.36
821.66	228.38
821.98	228.38
822.30	228.37
822.61	228.47
822.93	228.43
823.25	228.42
823.57	228.39
823.88	228.41
824.20	228.39
824.52	228.40
824.83	228.39
825.15	228.36
825.47	228.34
825.79	228.35
826.10	228.33
826.42	228.32
826.74	228.31
827.05	228.30
827.37	228.30
827.69	228.28
828.00	228.28
828.32	228.26
828.64	228.23
828.95	228.32
829.27	228.26
829.58	228.25
829.90	228.27
830.22	228.28
830.53	228.24
830.85	228.21
831.17	228.16
831.48	228.15
831.80	228.15
832.11	228.14
832.43	228.10
832.75	228.10
833.06	228.20
833.38	228.15
833.69	228.14
834.01	228.13
834.32	228.12
834.64	228.10
834.96	228.10
835.27	228.09
835.59	228.02
835.90	227.98
836.22	227.97
836.53	227.93
836.85	227.90
837.16	228.08
837.48	228.07
837.79	228.12
838.11	228.13
838.42	228.12
838.74	228.13
839.05	228.11
839.37	228.10
839.68	227.98
840.00	227.97
840.31	227.99
840.63	227.97
840.94	227.96
841.26	227.93
841.57	227.92
841.88	227.93
842.20	227.91
842.51	227.87
842.83	227.87
843.14	228.03
843.46	228.02
843.77	227.92
844.08	227.90
844.40	227.84
844.71	227.82
845.03	227.80
845.34	227.78
845.65	227.78
845.97	227.78
846.28	227.78
846.60	227.79
846.91	227.76
847.22	227.75
847.54	227.79
847.85	227.80
848.16	227.78
848.48	227.74
848.79	227.81
849.10	227.83
849.42	227.83
849.73	227.66
850.04	227.66
850.36	227.59
850.67	227.63
850.98	227.63
851.30	227.64
851.61	227.64
851.92	227.63
852.23	227.68
852.55	227.69
852.86	227.70
853.17	227.71
853.49	227.75
853.80	227.78
854.11	227.78
854.42	227.80
854.74	227.78
855.05	227.79
855.36	227.69
855.67	227.69
855.99	227.69
856.30	227.90
856.61	227.90
856.92	227.90
857.23	227.90
857.55	227.88
857.86	227.86
858.17	227.89
858.48	227.85
858.79	227.82
859.11	227.83
859.42	227.81
859.73	227.78
860.04	227.76
860.35	227.70
860.66	227.65
860.98	227.64
861.29	227.66
861.60	227.65
861.91	227.69
862.22	227.66
862.53	227.63
862.84	227.42
863.16	227.45
863.47	227.43
863.78	227.39
864.09	227.41
864.40	227.42
864.71	227.42
865.02	227.44
865.33	227.42
865.64	227.38
865.95	227.38
866.27	227.49
866.58	227.47
866.89	227.50
867.20	227.50
867.51	227.47
867.82	227.46
868.13	227.51
868.44	227.47
868.75	227.51
869.06	227.52
869.37	227.53
869.68	227.48
869.99	227.51
870.30	227.52
870.61	227.53
870.92	227.51
871.23	227.49
871.54	227.51
871.85	227.55
872.16	227.57
872.47	227.56
872.78	227.45
873.09	227.47
873.40	227.44
873.71	227.46
874.02	227.47
874.33	227.45
874.64	227.41
874.95	227.44
875.26	227.40
875.56	227.39
875.87	227.38
876.18	227.38
876.49	227.55
876.80	227.52
877.11	227.49
877.42	227.50
877.73	227.50
878.04	227.47
878.35	227.47
878.66	227.46
878.96	227.47
879.27	227.46
879.58	227.44
879.89	227.44
880.20	227.48
880.51	227.48
880.82	227.48
881.12	227.49
881.43	227.45
881.74	227.43
882.05	227.42
882.36	227.43
882.67	227.44
882.97	227.25
883.28	227.24
883.59	227.24
883.90	227.25
884.21	227.28
884.51	227.26
884.82	227.23
885.13	227.23
885.44	227.23
885.74	227.23
886.05	227.22
886.36	227.22
886.67	227.15
886.98	227.25
887.28	227.26
887.59	227.25
887.90	227.27
888.20	227.26
888.51	227.30
888.82	227.27
889.13	227.28
889.43	227.44
889.74	227.42
890.05	227.42
890.35	227.40
890.66	227.36
890.97	227.35
891.28	227.33
891.58	227.33
891.89	227.33
892.20	227.31
892.50	227.29
892.81	227.29
893.12	227.29
893.42	227.20
893.73	227.20
894.04	227.19
894.34	227.20
894.65	227.20
894.95	227.18
895.26	227.19
895.57	227.26
895.87	227.09
896.18	227.12
896.48	227.13
896.79	227.13
897.10	227.16
897.40	227.17
897.71	227.19
898.01	227.18
898.32	227.19
898.63	227.18
898.93	227.20
899.24	227.20
899.54	227.19
899.85	227.18
900.15	227.17
900.46	227.17
900.76	227.18
901.07	227.18
901.38	227.17
901.68	227.19
901.99	227.09
902.29	227.11
902.60	227.09
902.90	227.08
903.21	227.07
903.51	227.05
903.82	227.09
904.12	227.09
904.43	227.10
904.73	227.10
905.03	227.12
905.34	227.28
905.64	227.27
905.95	227.27
906.25	227.26
906.56	227.26
906.86	227.26
907.17	227.24
907.47	227.25
907.77	227.24
908.08	227.20
908.38	227.21
908.69	227.22
908.99	227.25
909.30	227.26
909.60	227.26
909.90	227.26
910.21	227.21
910.51	227.18
910.81	227.18
911.12	227.18
911.42	227.18
911.73	227.00
912.03	227.01
912.33	227.05
912.64	227.05
912.94	227.03
913.24	227.00
913.55	226.99
913.85	226.97
914.15	227.02
914.46	227.04
914.76	227.02
915.06	227.01
915.37	226.97
915.67	226.95
915.97	226.96
916.27	226.93
916.58	226.95
916.88	226.94
917.18	226.93
917.49	227.05
917.79	227.03
918.09	227.07
918.39	227.10
918.70	227.09
919.00	227.09
919.30	227.18
919.60	227.17
919.91	227.15
920.21	227.17
920.51	227.13
920.81	227.11
921.12	227.15
921.42	227.14
921.72	227.15
922.02	227.17
922.32	227.19
922.63	227.20
922.93	227.29
923.23	227.30
923.53	227.29
923.83	227.17
924.13	227.18
924.44	227.17
924.74	227.20
925.04	227.24
925.34	227.24
925.64	227.16
925.94	227.16
926.24	227.27
926.55	227.25
926.85	227.28
927.15	227.28
927.45	227.27
927.75	227.27
928.05	227.28
928.35	227.26
928.65	227.29
928.95	227.30
929.26	227.22
929.56	227.25
929.86	227.27
930.16	227.25
930.46	227.24
930.76	227.24
931.06	227.15
931.36	227.10
931.66	227.13
931.96	227.15
932.26	227.17
932.56	227.08
932.86	227.10
933.16	227.09
933.46	227.08
933.76	227.05
934.06	227.08
934.36	227.14
934.66	227.13
934.96	227.11
935.26	227.12
935.56	227.14
935.86	227.09
936.16	227.07
936.46	227.06
936.76	227.05
937.06	227.03
937.36	227.05
937.66	227.05
937.96	227.04
938.26	227.00
938.56	226.99
938.86	227.01
939.16	227.04
939.46	227.06
939.76	227.07
940.06	227.07
940.35	227.04
940.65	226.95
940.95	226.96
941.25	226.92
941.55	226.90
941.85	226.88
942.15	226.93
942.45	226.98
942.75	226.98
943.04	226.99
943.34	227.02
943.64	227.01
943.94	226.98
944.24	226.99
944.54	227.00
944.84	227.00
945.13	226.97
945.43	226.94
945.73	226.92
946.03	226.91
946.33	226.89
946.62	226.88
946.92	226.87
947.22	226.88
947.52	226.90
947.82	226.92
948.11	226.90
948.41	226.85
948.71	226.80
949.01	226.82
949.31	226.81
949.60	226.79
949.90	226.82
950.20	226.82
950.50	226.81
950.79	226.79
951.09	226.82
951.39	226.81
951.69	226.80
951.98	226.83
952.28	226.84
952.58	226.84
952.87	226.84
953.17	226.86
953.47	226.84
953.76	226.84
954.06	226.81
954.36	226.79
954.66	226.79
954.95	226.84
955.25	226.85
955.55	226.87
955.84	226.84
956.14	226.84
956.44	226.85
956.73	226.83
957.03	226.84
957.32	226.84
957.62	226.83
957.92	226.87
958.21	226.85
958.51	227.06
958.81	227.08
959.10	227.10
959.40	227.14
959.69	227.15
959.99	227.18
960.29	227.18
960.58	227.18
960.88	227.24
961.17	227.22
961.47	227.24
961.76	227.21
962.06	227.25
962.36	227.23
962.65	227.23
962.95	227.25
963.24	227.23
963.54	227.23
963.83	227.25
964.13	227.24
964.42	227.22
964.72	227.06
965.01	227.06
965.31	227.05
965.60	227.01
965.90	227.12
966.19	227.08
966.49	227.09
966.78	227.08
967.08	227.07
967.37	227.07
967.67	227.03
967.96	227.06
968.26	227.06
968.55	227.08
968.85	227.07
969.14	227.06
969.43	227.06
969.73	227.04
970.02	227.03
970.32	227.02
970.61	226.99
970.91	226.94
971.20	226.91
971.49	226.90
971.79	226.91
972.08	226.78
972.38	226.81
972.67	226.79
972.96	226.82
973.26	226.78
973.55	226.84
973.85	226.83
974.14	226.82
974.43	226.83
974.73	226.80
975.02	226.78
975.31	226.79
975.61	226.79
975.90	226.77
976.19	226.76
976.49	226.77
976.78	226.79
977.07	226.79
977.37	226.80
977.66	226.82
977.95	226.79
978.24	226.81
978.54	226.84
978.83	226.83
979.12	226.82
979.42	226.82
979.71	226.78
980.00	226.78
980.29	226.78
980.59	226.75
980.88	226.80
981.17	226.80
981.46	226.80
981.76	226.80
982.05	226.85
982.34	226.87
982.63	226.87
982.93	226.87
983.22	226.91
983.51	226.92
983.80	226.95
984.09	226.97
984.39	226.96
984.68	226.93
984.97	226.95
985.26	226.93
985.55	226.95
985.85	226.91
986.14	226.94
986.43	226.97
986.72	226.96
987.01	226.90
987.30	226.91
987.59	226.90
987.89	226.90
988.18	226.84
988.47	226.82
988.76	226.81
989.05	226.80
989.34	226.77
989.63	226.81
989.92	226.77
990.22	226.75
990.51	226.75
990.80	226.74
991.09	226.75
991.38	226.77
991.67	226.75
991.96	226.74
992.25	226.74
992.54	226.69
992.83	226.69
993.12	226.69
993.41	226.72
993.70	226.79
993.99	226.81
994.28	226.84
994.58	226.87
994.87	226.86
995.16	226.86
995.45	226.85
995.74	226.79
996.03	226.82
996.32	226.84
996.61	226.88
996.90	226.88
997.19	226.86
997.48	226.87
997.77	226.85
998.06	226.86
998.34	226.85
998.63	226.85
998.92	226.86
999.21	226.89
999.50	226.89
999.79	226.83
1000.08	226.82
1000.37	226.82
1000.66	226.80
1000.95	226.84
1001.24	226.85
1001.53	226.87
1001.82	226.87
1002.11	226.83
1002.40	226.84
1002.68	226.88
1002.97	227.01
1003.26	226.99
1003.55	226.96
1003.84	226.97
1004.13	227.03
1004.42	227.03
1004.71	227.03
1004.99	227.01
1005.28	227.05
1005.57	227.04
1005.86	227.03
1006.15	227.01
1006.44	226.98
1006.72	227.00
1007.01	226.97
1007.30	226.97
1007.59	226.94
1007.88	226.94
1008.17	226.96
1008.45	226.92
1008.74	226.84
1009.03	226.75
1009.32	226.76
1009.60	226.76
1009.89	226.74
1010.18	226.67
1010.47	226.66
1010.76	226.66
1011.04	226.65
1011.33	226.64
1011.62	226.65
1011.91	226.67
1012.19	226.68
1012.48	226.69
1012.77	226.68
1013.05	226.75
1013.34	226.75
1013.63	226.74
1013.92	226.75
1014.20	226.74
1014.49	226.75
1014.78	226.77
1015.06	226.71
1015.35	226.70
1015.64	226.73
1015.92	226.76
1016.21	226.78
1016.50	226.79
1016.78	226.80
1017.07	226.81
1017.36	226.78
1017.64	226.76
1017.93	226.77
1018.22	226.76
1018.50	226.75
1018.79	226.74
1019.08	226.68
1019.36	226.69
1019.65	226.68
1019.93	226.72
1020.22	226.75
1020.51	226.84
1020.79	226.82
1021.08	226.53
1021.36	226.49
1021.65	226.68
1021.94	226.67
1022.22	226.87
1022.51	226.48
1022.79	227.55
1023.08	227.00
1023.36	228.87
1023.65	226.32
>>>>>End Processed Spectral Data<<<<<
