SpectraSuite Data File
++++++++++++++++++++++++++++++++++++
Date: Tue Oct 06 12:06:22 EDT 2015
User: lab3
Dark Spectrum Present: No
Reference Spectrum Present: No
Number of Sampled Component Spectra: 1
Spectrometers: USB2E7196
Integration Time (usec): 66000 (USB2E7196)
Spectra Averaged: 400 (USB2E7196)
Boxcar Smoothing: 10 (USB2E7196)
Correct for Electrical Dark: No (USB2E7196)
Strobe/Lamp Enabled: No (USB2E7196)
Correct for Detector Non-linearity: No (USB2E7196)
Correct for Stray Light: No (USB2E7196)
Number of Pixels in Processed Spectrum: 2048
>>>>>Begin Processed Spectral Data<<<<<
339.09	0.00
339.48	216.83
339.86	218.41
340.24	219.69
340.63	221.24
341.01	224.96
341.39	223.72
341.78	225.38
342.16	226.68
342.54	226.90
342.93	215.28
343.31	226.15
343.69	226.69
344.07	227.15
344.46	227.60
344.84	228.00
345.22	228.19
345.60	228.48
345.99	228.67
346.37	228.80
346.75	228.91
347.13	229.00
347.52	229.08
347.90	229.19
348.28	229.23
348.66	229.31
349.05	229.30
349.43	229.37
349.81	229.45
350.19	229.50
350.57	229.57
350.96	229.66
351.34	229.77
351.72	229.88
352.10	230.00
352.48	230.07
352.87	230.10
353.25	230.18
353.63	230.21
354.01	230.29
354.39	230.37
354.77	230.45
355.15	230.57
355.54	230.60
355.92	230.62
356.30	230.69
356.68	230.87
357.06	230.94
357.44	230.96
357.82	231.02
358.20	231.24
358.58	231.28
358.97	231.35
359.35	231.43
359.73	231.52
360.11	231.56
360.49	231.61
360.87	231.67
361.25	231.73
361.63	231.85
362.01	231.90
362.39	231.93
362.77	231.97
363.15	232.00
363.53	232.04
363.91	232.08
364.29	232.11
364.67	231.97
365.05	231.99
365.43	232.04
365.81	232.08
366.19	232.03
366.57	232.12
366.95	232.11
367.33	232.09
367.71	232.08
368.09	232.11
368.47	232.11
368.85	232.10
369.23	232.12
369.61	232.03
369.99	232.07
370.37	232.09
370.75	232.20
371.13	232.15
371.51	232.11
371.89	232.10
372.27	232.09
372.65	232.07
373.03	232.03
373.41	231.97
373.78	231.93
374.16	231.81
374.54	231.71
374.92	231.66
375.30	231.62
375.68	231.53
376.06	231.49
376.44	231.44
376.82	231.41
377.19	231.37
377.57	231.33
377.95	231.22
378.33	231.14
378.71	230.94
379.09	230.90
379.47	230.87
379.84	230.80
380.22	230.72
380.60	230.65
380.98	230.62
381.36	230.58
381.73	230.50
382.11	230.47
382.49	230.44
382.87	230.38
383.25	230.33
383.62	230.49
384.00	230.40
384.38	230.36
384.76	230.35
385.13	230.37
385.51	230.33
385.89	230.28
386.27	230.27
386.64	230.26
387.02	230.22
387.40	230.17
387.78	230.16
388.15	230.16
388.53	230.14
388.91	230.11
389.29	230.08
389.66	230.09
390.04	230.07
390.42	230.07
390.79	230.07
391.17	230.07
391.55	229.87
391.92	229.88
392.30	229.91
392.68	229.87
393.05	229.85
393.43	229.85
393.81	229.86
394.18	229.83
394.56	229.86
394.94	229.92
395.31	229.95
395.69	230.03
396.06	230.06
396.44	230.09
396.82	230.11
397.19	230.24
397.57	230.26
397.95	230.34
398.32	230.33
398.70	230.40
399.07	230.47
399.45	230.53
399.82	230.61
400.20	230.66
400.58	230.75
400.95	230.78
401.33	230.93
401.70	231.14
402.08	231.29
402.45	231.40
402.83	231.57
403.20	231.71
403.58	231.85
403.95	232.08
404.33	232.30
404.71	232.51
405.08	232.81
405.46	233.06
405.83	233.34
406.21	233.65
406.58	233.98
406.96	234.31
407.33	234.69
407.70	235.11
408.08	235.68
408.45	236.20
408.83	236.73
409.20	237.23
409.58	237.70
409.95	238.33
410.33	239.01
410.70	239.67
411.08	240.43
411.45	241.22
411.82	242.02
412.20	242.96
412.57	244.06
412.95	244.95
413.32	246.08
413.69	247.25
414.07	248.51
414.44	249.88
414.82	251.31
415.19	252.96
415.56	254.65
415.94	256.40
416.31	258.34
416.68	260.31
417.06	262.58
417.43	264.72
417.81	267.16
418.18	269.67
418.55	272.40
418.93	275.25
419.30	278.24
419.67	281.39
420.04	284.65
420.42	288.08
420.79	292.01
421.16	295.98
421.54	300.01
421.91	304.21
422.28	308.57
422.66	313.27
423.03	317.74
423.40	322.46
423.77	327.47
424.15	332.63
424.52	337.97
424.89	343.76
425.26	349.50
425.64	354.85
426.01	360.83
426.38	366.96
426.75	373.24
427.13	379.63
427.50	386.38
427.87	393.36
428.24	400.33
428.61	407.05
428.99	414.33
429.36	422.34
429.73	429.99
430.10	437.63
430.47	445.43
430.85	453.54
431.22	462.13
431.59	470.92
431.96	479.53
432.33	489.11
432.70	498.21
433.08	509.03
433.45	519.20
433.82	529.19
434.19	540.39
434.56	551.43
434.93	562.13
435.30	572.75
435.68	584.77
436.05	596.56
436.42	608.35
436.79	619.08
437.16	630.66
437.53	643.15
437.90	655.65
438.27	667.84
438.64	680.90
439.01	692.88
439.38	703.98
439.75	714.60
440.13	726.66
440.50	738.24
440.87	747.36
441.24	757.40
441.61	768.44
441.98	776.53
442.35	786.08
442.72	795.89
443.09	805.27
443.46	811.47
443.83	816.08
444.20	819.77
444.57	825.32
444.94	828.69
445.31	832.00
445.68	834.78
446.05	836.90
446.42	836.52
446.79	835.88
447.16	835.32
447.53	834.94
447.90	831.35
448.27	827.71
448.64	822.24
449.01	818.56
449.37	810.94
449.74	804.07
450.11	795.17
450.48	785.27
450.85	775.35
451.22	766.66
451.59	758.27
451.96	750.81
452.33	739.92
452.70	730.12
453.07	718.30
453.43	706.57
453.80	695.10
454.17	684.20
454.54	674.03
454.91	662.49
455.28	651.52
455.65	641.19
456.02	630.38
456.38	621.66
456.75	610.36
457.12	601.22
457.49	592.03
457.86	583.40
458.23	575.87
458.59	567.48
458.96	558.95
459.33	551.37
459.70	543.70
460.07	537.72
460.43	530.76
460.80	524.25
461.17	518.53
461.54	512.43
461.91	506.71
462.27	500.88
462.64	496.17
463.01	490.77
463.38	485.38
463.74	480.53
464.11	476.19
464.48	472.33
464.85	468.14
465.21	464.86
465.58	461.24
465.95	457.13
466.32	453.83
466.68	450.59
467.05	447.37
467.42	444.17
467.78	440.82
468.15	437.73
468.52	435.45
468.88	432.47
469.25	429.73
469.62	427.53
469.98	425.15
470.35	423.00
470.72	421.09
471.08	419.11
471.45	417.43
471.82	415.57
472.18	413.63
472.55	412.35
472.92	410.82
473.28	409.57
473.65	408.25
474.02	407.06
474.38	406.04
474.75	405.39
475.11	404.52
475.48	404.09
475.85	403.66
476.21	403.44
476.58	403.27
476.94	403.47
477.31	403.53
477.67	403.67
478.04	403.99
478.41	404.38
478.77	404.97
479.14	405.36
479.50	406.15
479.87	407.13
480.23	408.10
480.60	409.04
480.96	410.00
481.33	411.47
481.69	412.88
482.06	414.28
482.42	415.63
482.79	417.25
483.15	419.15
483.52	421.30
483.88	423.38
484.25	425.60
484.61	427.88
484.98	430.34
485.34	433.14
485.71	436.02
486.07	439.11
486.44	442.16
486.80	445.56
487.17	449.06
487.53	452.86
487.90	456.86
488.26	461.24
488.62	465.80
488.99	470.38
489.35	475.26
489.72	480.46
490.08	485.93
490.44	491.51
490.81	497.25
491.17	503.14
491.54	509.41
491.90	515.83
492.26	522.70
492.63	529.90
492.99	537.35
493.36	545.08
493.72	553.24
494.08	561.52
494.45	570.22
494.81	579.35
495.17	588.72
495.54	598.57
495.90	608.81
496.26	619.39
496.63	630.13
496.99	641.22
497.35	652.81
497.72	664.69
498.08	677.07
498.44	689.73
498.80	703.19
499.17	716.96
499.53	731.19
499.89	745.76
500.26	760.41
500.62	775.37
500.98	791.04
501.34	806.87
501.71	823.43
502.07	840.28
502.43	857.58
502.79	874.96
503.16	892.84
503.52	910.98
503.88	929.50
504.24	948.53
504.60	967.86
504.97	987.56
505.33	1007.77
505.69	1028.92
506.05	1050.09
506.41	1071.12
506.78	1092.49
507.14	1114.69
507.50	1137.34
507.86	1160.43
508.22	1183.59
508.59	1206.52
508.95	1230.34
509.31	1254.62
509.67	1279.49
510.03	1304.14
510.39	1329.25
510.75	1354.38
511.12	1379.53
511.48	1404.64
511.84	1429.84
512.20	1455.45
512.56	1481.46
512.92	1507.26
513.28	1532.71
513.64	1558.48
514.00	1584.34
514.37	1610.37
514.73	1636.08
515.09	1661.20
515.45	1686.60
515.81	1711.99
516.17	1737.59
516.53	1762.35
516.89	1787.08
517.25	1811.83
517.61	1836.46
517.97	1861.23
518.33	1885.45
518.69	1909.60
519.05	1934.02
519.41	1958.27
519.77	1982.41
520.13	2006.27
520.49	2029.89
520.85	2053.42
521.21	2076.81
521.57	2100.32
521.93	2122.78
522.29	2145.58
522.65	2167.93
523.01	2190.07
523.37	2211.36
523.73	2232.96
524.09	2254.75
524.45	2276.41
524.81	2297.32
525.17	2317.91
525.53	2337.76
525.89	2357.97
526.25	2377.67
526.61	2396.23
526.97	2414.91
527.33	2432.97
527.68	2450.19
528.04	2466.77
528.40	2482.44
528.76	2498.53
529.12	2513.52
529.48	2528.82
529.84	2542.84
530.20	2557.87
530.56	2571.86
530.91	2585.73
531.27	2598.60
531.63	2610.47
531.99	2622.12
532.35	2632.05
532.71	2642.19
533.07	2652.52
533.42	2661.34
533.78	2670.85
534.14	2680.48
534.50	2688.77
534.86	2697.22
535.21	2703.74
535.57	2710.39
535.93	2717.36
536.29	2723.24
536.65	2729.13
537.00	2733.13
537.36	2737.47
537.72	2740.16
538.08	2742.41
538.44	2743.92
538.79	2745.82
539.15	2747.06
539.51	2747.63
539.87	2748.86
540.22	2747.98
540.58	2747.68
540.94	2746.94
541.29	2744.81
541.65	2741.27
542.01	2737.69
542.37	2733.17
542.72	2730.32
543.08	2726.18
543.44	2721.80
543.79	2715.58
544.15	2709.35
544.51	2703.92
544.87	2696.58
545.22	2688.69
545.58	2681.03
545.94	2674.15
546.29	2665.48
546.65	2656.22
547.01	2646.92
547.36	2637.40
547.72	2627.84
548.07	2617.02
548.43	2606.02
548.79	2594.05
549.14	2583.06
549.50	2571.97
549.86	2560.24
550.21	2546.82
550.57	2534.64
550.92	2520.86
551.28	2507.93
551.64	2495.15
551.99	2482.25
552.35	2469.53
552.70	2456.62
553.06	2444.10
553.41	2430.39
553.77	2416.42
554.13	2402.71
554.48	2388.35
554.84	2373.51
555.19	2359.48
555.55	2344.77
555.90	2330.26
556.26	2316.57
556.61	2302.26
556.97	2287.02
557.32	2272.15
557.68	2257.44
558.03	2242.24
558.39	2227.78
558.74	2213.47
559.10	2197.37
559.45	2181.82
559.81	2166.87
560.16	2151.61
560.52	2136.18
560.87	2121.52
561.23	2106.41
561.58	2091.56
561.94	2076.07
562.29	2060.79
562.64	2045.50
563.00	2030.28
563.35	2015.65
563.71	2000.85
564.06	1985.65
564.42	1971.02
564.77	1956.48
565.12	1942.35
565.48	1928.16
565.83	1913.62
566.19	1899.16
566.54	1885.21
566.89	1870.16
567.25	1854.76
567.60	1840.60
567.96	1825.67
568.31	1810.28
568.66	1795.75
569.02	1781.31
569.37	1767.04
569.72	1752.94
570.08	1738.83
570.43	1724.63
570.78	1709.74
571.14	1694.86
571.49	1680.37
571.84	1666.66
572.20	1651.75
572.55	1637.02
572.90	1621.82
573.26	1606.73
573.61	1591.49
573.96	1576.76
574.31	1562.71
574.67	1549.04
575.02	1534.57
575.37	1519.89
575.72	1505.12
576.08	1490.74
576.43	1476.44
576.78	1462.17
577.13	1448.04
577.49	1433.86
577.84	1419.66
578.19	1405.68
578.54	1391.80
578.90	1377.79
579.25	1363.31
579.60	1349.96
579.95	1336.56
580.30	1323.34
580.66	1310.23
581.01	1297.22
581.36	1284.15
581.71	1270.94
582.06	1257.84
582.42	1244.88
582.77	1232.38
583.12	1220.12
583.47	1207.70
583.82	1195.40
584.17	1183.07
584.53	1170.84
584.88	1158.95
585.23	1146.96
585.58	1135.15
585.93	1123.39
586.28	1112.22
586.63	1100.96
586.98	1089.54
587.34	1078.51
587.69	1067.32
588.04	1056.38
588.39	1045.61
588.74	1034.82
589.09	1024.41
589.44	1013.51
589.79	1003.12
590.14	992.78
590.49	982.67
590.84	972.75
591.19	962.86
591.54	953.10
591.89	943.09
592.25	933.16
592.60	923.23
592.95	913.54
593.30	903.93
593.65	894.23
594.00	884.78
594.35	875.98
594.70	866.70
595.05	858.05
595.40	849.27
595.75	840.37
596.10	831.83
596.45	823.20
596.80	814.96
597.15	806.72
597.50	798.57
597.85	790.65
598.19	782.71
598.54	774.77
598.89	767.02
599.24	759.65
599.59	752.39
599.94	745.54
600.29	738.52
600.64	731.55
600.99	724.58
601.34	717.84
601.69	710.57
602.04	703.87
602.39	697.28
602.74	690.88
603.08	684.54
603.43	678.28
603.78	672.08
604.13	665.99
604.48	659.94
604.83	654.12
605.18	648.24
605.53	642.48
605.87	636.70
606.22	631.06
606.57	625.42
606.92	619.65
607.27	614.05
607.62	608.76
607.96	603.56
608.31	598.66
608.66	593.58
609.01	588.77
609.36	584.17
609.70	579.40
610.05	574.61
610.40	569.99
610.75	565.27
611.10	560.90
611.44	556.48
611.79	552.17
612.14	547.80
612.49	543.46
612.83	539.33
613.18	535.39
613.53	531.49
613.88	527.59
614.22	523.89
614.57	520.10
614.92	516.36
615.27	512.73
615.61	509.07
615.96	505.55
616.31	502.01
616.65	498.50
617.00	495.08
617.35	491.80
617.70	488.56
618.04	485.47
618.39	482.29
618.74	479.27
619.08	476.14
619.43	473.13
619.78	470.23
620.12	467.34
620.47	464.58
620.82	461.82
621.16	459.14
621.51	456.60
621.85	454.10
622.20	451.63
622.55	449.16
622.89	446.76
623.24	444.46
623.59	442.21
623.93	439.96
624.28	437.86
624.62	435.90
624.97	433.93
625.32	431.83
625.66	429.73
626.01	427.67
626.35	425.81
626.70	423.86
627.04	422.10
627.39	420.25
627.73	418.46
628.08	416.75
628.43	415.07
628.77	413.34
629.12	411.73
629.46	410.10
629.81	408.58
630.15	406.98
630.50	405.41
630.84	403.90
631.19	402.47
631.53	401.06
631.88	399.46
632.22	397.94
632.57	396.76
632.91	395.55
633.26	394.38
633.60	393.16
633.95	392.03
634.29	390.74
634.64	389.56
634.98	388.22
635.32	387.04
635.67	385.96
636.01	384.87
636.36	383.79
636.70	382.86
637.05	381.76
637.39	380.83
637.73	379.86
638.08	378.93
638.42	378.00
638.77	376.97
639.11	375.94
639.45	374.97
639.80	373.92
640.14	372.92
640.49	371.89
640.83	370.91
641.17	369.94
641.52	369.00
641.86	368.10
642.20	367.38
642.55	366.45
642.89	365.55
643.23	364.66
643.58	363.87
643.92	362.94
644.26	362.06
644.61	361.25
644.95	360.42
645.29	359.59
645.64	358.71
645.98	357.88
646.32	357.16
646.66	356.36
647.01	355.56
647.35	354.84
647.69	354.08
648.04	353.38
648.38	352.62
648.72	351.92
649.06	351.22
649.41	350.47
649.75	349.78
650.09	349.11
650.43	348.46
650.78	347.76
651.12	347.07
651.46	346.42
651.80	345.77
652.14	345.09
652.49	344.44
652.83	343.78
653.17	343.15
653.51	342.52
653.85	341.97
654.20	341.37
654.54	340.69
654.88	340.07
655.22	339.46
655.56	338.80
655.90	338.14
656.25	337.51
656.59	336.87
656.93	336.26
657.27	335.73
657.61	335.08
657.95	334.51
658.29	333.92
658.64	333.42
658.98	332.82
659.32	332.24
659.66	331.69
660.00	331.15
660.34	330.60
660.68	330.02
661.02	329.40
661.36	328.84
661.70	328.28
662.05	327.77
662.39	327.28
662.73	326.87
663.07	326.46
663.41	325.98
663.75	325.48
664.09	324.99
664.43	324.36
664.77	323.87
665.11	323.29
665.45	322.79
665.79	322.23
666.13	321.67
666.47	321.13
666.81	320.57
667.15	319.97
667.49	319.46
667.83	319.04
668.17	318.59
668.51	318.13
668.85	317.70
669.19	317.31
669.53	316.76
669.87	316.23
670.21	315.75
670.55	315.28
670.89	314.90
671.23	314.43
671.57	314.02
671.91	313.62
672.25	313.25
672.58	312.86
672.92	312.39
673.26	311.97
673.60	311.55
673.94	311.13
674.28	310.75
674.62	310.37
674.96	309.89
675.30	309.45
675.64	308.99
675.97	308.52
676.31	307.98
676.65	307.53
676.99	307.15
677.33	306.65
677.67	306.18
678.01	305.63
678.34	305.17
678.68	304.72
679.02	304.22
679.36	303.74
679.70	303.23
680.04	302.79
680.37	302.36
680.71	301.93
681.05	301.52
681.39	301.06
681.73	300.54
682.06	300.05
682.40	299.58
682.74	299.17
683.08	298.78
683.42	298.33
683.75	297.90
684.09	297.36
684.43	296.90
684.77	296.42
685.10	295.99
685.44	295.58
685.78	295.16
686.12	294.72
686.45	294.27
686.79	293.78
687.13	293.34
687.46	292.87
687.80	292.42
688.14	291.90
688.48	291.43
688.81	291.00
689.15	290.64
689.49	290.18
689.82	289.69
690.16	289.15
690.50	288.69
690.83	288.22
691.17	287.75
691.51	287.32
691.84	286.93
692.18	286.49
692.52	286.00
692.85	285.51
693.19	285.15
693.52	284.72
693.86	284.31
694.20	283.89
694.53	283.45
694.87	282.95
695.21	282.52
695.54	282.11
695.88	281.62
696.21	281.09
696.55	280.66
696.88	280.22
697.22	279.80
697.56	279.39
697.89	278.93
698.23	278.51
698.56	278.04
698.90	277.61
699.23	277.14
699.57	276.73
699.90	276.30
700.24	275.79
700.58	275.36
700.91	274.98
701.25	274.71
701.58	274.40
701.92	274.09
702.25	273.71
702.59	273.31
702.92	272.93
703.26	272.54
703.59	272.16
703.93	271.91
704.26	271.55
704.60	271.15
704.93	270.74
705.26	270.35
705.60	269.98
705.93	269.55
706.27	269.23
706.60	268.89
706.94	268.59
707.27	268.20
707.61	267.85
707.94	267.47
708.27	266.95
708.61	266.49
708.94	266.09
709.28	265.74
709.61	265.37
709.94	265.06
710.28	264.75
710.61	264.44
710.95	263.98
711.28	263.78
711.61	263.46
711.95	263.20
712.28	262.88
712.61	262.53
712.95	262.31
713.28	262.06
713.61	261.69
713.95	261.33
714.28	261.05
714.61	260.71
714.95	260.42
715.28	260.11
715.61	259.81
715.95	259.54
716.28	259.22
716.61	258.94
716.95	258.63
717.28	258.31
717.61	257.99
717.94	257.71
718.28	257.28
718.61	257.01
718.94	256.71
719.27	256.44
719.61	256.22
719.94	255.92
720.27	255.58
720.60	255.33
720.94	255.08
721.27	254.84
721.60	254.62
721.93	254.35
722.27	254.15
722.60	253.95
722.93	253.67
723.26	253.47
723.59	253.22
723.93	253.02
724.26	252.83
724.59	252.59
724.92	252.37
725.25	252.22
725.59	252.00
725.92	251.81
726.25	251.61
726.58	251.38
726.91	251.16
727.24	250.97
727.57	250.76
727.91	250.53
728.24	250.35
728.57	250.14
728.90	249.97
729.23	249.71
729.56	249.58
729.89	249.40
730.22	249.18
730.55	248.98
730.89	248.76
731.22	248.55
731.55	248.35
731.88	248.13
732.21	247.91
732.54	247.69
732.87	247.52
733.20	247.34
733.53	247.16
733.86	246.99
734.19	246.78
734.52	246.63
734.85	246.58
735.18	246.35
735.51	246.23
735.84	246.06
736.17	245.96
736.50	245.70
736.83	245.72
737.16	245.57
737.49	245.43
737.82	245.25
738.15	245.12
738.48	244.96
738.81	244.83
739.14	244.65
739.47	244.50
739.80	244.33
740.13	244.19
740.46	244.02
740.79	243.83
741.12	243.69
741.45	243.51
741.78	243.28
742.11	243.20
742.44	243.01
742.77	242.86
743.10	242.71
743.43	242.57
743.75	242.25
744.08	242.38
744.41	242.21
744.74	242.10
745.07	241.92
745.40	241.83
745.73	241.76
746.06	241.65
746.39	241.53
746.71	241.39
747.04	241.24
747.37	241.09
747.70	241.01
748.03	240.89
748.36	240.81
748.68	240.69
749.01	240.51
749.34	240.40
749.67	240.30
750.00	240.21
750.33	240.23
750.65	240.14
750.98	239.76
751.31	239.66
751.64	239.54
751.97	239.55
752.29	239.41
752.62	239.22
752.95	239.09
753.28	238.96
753.60	238.85
753.93	238.78
754.26	238.71
754.59	238.55
754.91	238.42
755.24	238.26
755.57	238.24
755.90	238.12
756.22	237.99
756.55	237.85
756.88	237.70
757.20	237.47
757.53	237.32
757.86	237.23
758.19	237.15
758.51	237.07
758.84	236.88
759.17	236.78
759.49	236.70
759.82	236.70
760.15	236.65
760.47	236.56
760.80	236.42
761.13	236.36
761.45	236.28
761.78	236.21
762.11	236.16
762.43	235.99
762.76	235.94
763.08	235.90
763.41	235.85
763.74	235.78
764.06	235.70
764.39	235.65
764.71	235.57
765.04	235.47
765.37	235.39
765.69	235.32
766.02	235.25
766.34	235.16
766.67	235.04
767.00	234.99
767.32	235.03
767.65	235.08
767.97	235.00
768.30	234.97
768.62	234.92
768.95	234.83
769.27	234.78
769.60	234.72
769.92	234.63
770.25	234.54
770.57	234.46
770.90	234.39
771.22	234.32
771.55	234.27
771.87	234.23
772.20	234.16
772.52	234.27
772.85	234.44
773.17	234.40
773.50	234.33
773.82	234.26
774.15	234.13
774.47	233.96
774.80	233.90
775.12	233.83
775.45	233.79
775.77	233.75
776.09	233.70
776.42	233.66
776.74	233.67
777.07	233.61
777.39	233.58
777.72	233.52
778.04	233.50
778.36	233.44
778.69	233.41
779.01	233.39
779.33	233.18
779.66	232.92
779.98	232.87
780.31	232.84
780.63	232.88
780.95	232.86
781.28	232.82
781.60	232.75
781.92	232.72
782.25	232.66
782.57	232.65
782.89	232.59
783.22	232.55
783.54	232.46
783.86	232.46
784.19	232.41
784.51	232.44
784.83	232.39
785.16	232.35
785.48	232.32
785.80	232.30
786.12	232.29
786.45	232.27
786.77	232.25
787.09	232.20
787.42	232.08
787.74	232.06
788.06	232.05
788.38	232.03
788.71	231.97
789.03	231.94
789.35	231.91
789.67	231.88
789.99	231.86
790.32	231.81
790.64	231.80
790.96	231.95
791.28	231.85
791.61	231.81
791.93	231.79
792.25	231.74
792.57	231.84
792.89	231.78
793.21	231.77
793.54	231.73
793.86	231.71
794.18	231.71
794.50	231.65
794.82	231.63
795.14	231.63
795.47	231.66
795.79	231.65
796.11	231.58
796.43	231.56
796.75	231.54
797.07	231.54
797.39	231.51
797.71	231.33
798.04	231.34
798.36	231.34
798.68	231.32
799.00	231.32
799.32	231.19
799.64	231.22
799.96	231.20
800.28	231.21
800.60	231.19
800.92	231.17
801.24	231.16
801.56	231.15
801.89	231.12
802.21	231.10
802.53	231.05
802.85	231.10
803.17	231.18
803.49	231.12
803.81	231.10
804.13	231.05
804.45	231.02
804.77	231.02
805.09	231.00
805.41	230.97
805.73	230.93
806.05	230.88
806.37	230.84
806.69	230.81
807.01	230.77
807.33	230.77
807.65	230.70
807.97	230.76
808.28	230.74
808.60	230.71
808.92	230.68
809.24	230.77
809.56	230.74
809.88	230.65
810.20	230.65
810.52	230.67
810.84	230.64
811.16	230.62
811.48	230.59
811.80	230.64
812.12	230.63
812.43	230.65
812.75	230.66
813.07	230.62
813.39	230.63
813.71	230.59
814.03	230.56
814.35	230.55
814.67	230.47
814.98	230.44
815.30	230.44
815.62	230.41
815.94	230.28
816.26	230.27
816.58	230.22
816.89	230.22
817.21	230.17
817.53	230.18
817.85	230.18
818.17	230.17
818.48	230.09
818.80	230.12
819.12	230.08
819.44	230.04
819.76	230.01
820.07	229.99
820.39	229.98
820.71	229.97
821.03	229.97
821.34	229.94
821.66	229.97
821.98	229.95
822.30	229.93
822.61	230.05
822.93	229.99
823.25	229.99
823.57	229.97
823.88	229.98
824.20	229.97
824.52	230.00
824.83	229.99
825.15	229.95
825.47	229.91
825.79	229.93
826.10	229.90
826.42	229.89
826.74	229.91
827.05	229.89
827.37	229.89
827.69	229.87
828.00	229.89
828.32	229.86
828.64	229.85
828.95	229.93
829.27	229.86
829.58	229.88
829.90	229.89
830.22	229.88
830.53	229.85
830.85	229.81
831.17	229.74
831.48	229.75
831.80	229.75
832.11	229.74
832.43	229.70
832.75	229.72
833.06	229.83
833.38	229.75
833.69	229.74
834.01	229.75
834.32	229.74
834.64	229.72
834.96	229.70
835.27	229.69
835.59	229.63
835.90	229.60
836.22	229.59
836.53	229.56
836.85	229.54
837.16	229.71
837.48	229.71
837.79	229.79
838.11	229.76
838.42	229.76
838.74	229.76
839.05	229.74
839.37	229.72
839.68	229.62
840.00	229.63
840.31	229.68
840.63	229.65
840.94	229.64
841.26	229.62
841.57	229.60
841.88	229.61
842.20	229.58
842.51	229.55
842.83	229.55
843.14	229.70
843.46	229.70
843.77	229.59
844.08	229.59
844.40	229.52
844.71	229.50
845.03	229.48
845.34	229.49
845.65	229.49
845.97	229.49
846.28	229.47
846.60	229.47
846.91	229.43
847.22	229.42
847.54	229.45
847.85	229.47
848.16	229.45
848.48	229.44
848.79	229.50
849.10	229.51
849.42	229.50
849.73	229.34
850.04	229.32
850.36	229.25
850.67	229.28
850.98	229.28
851.30	229.30
851.61	229.31
851.92	229.27
852.23	229.33
852.55	229.34
852.86	229.33
853.17	229.33
853.49	229.37
853.80	229.39
854.11	229.40
854.42	229.40
854.74	229.40
855.05	229.41
855.36	229.32
855.67	229.33
855.99	229.34
856.30	229.53
856.61	229.54
856.92	229.55
857.23	229.55
857.55	229.54
857.86	229.52
858.17	229.54
858.48	229.53
858.79	229.49
859.11	229.51
859.42	229.50
859.73	229.50
860.04	229.48
860.35	229.44
860.66	229.40
860.98	229.39
861.29	229.41
861.60	229.39
861.91	229.44
862.22	229.41
862.53	229.38
862.84	229.20
863.16	229.23
863.47	229.21
863.78	229.17
864.09	229.18
864.40	229.17
864.71	229.18
865.02	229.20
865.33	229.17
865.64	229.13
865.95	229.13
866.27	229.23
866.58	229.20
866.89	229.24
867.20	229.24
867.51	229.20
867.82	229.17
868.13	229.23
868.44	229.16
868.75	229.21
869.06	229.22
869.37	229.24
869.68	229.18
869.99	229.22
870.30	229.25
870.61	229.27
870.92	229.26
871.23	229.24
871.54	229.24
871.85	229.30
872.16	229.31
872.47	229.28
872.78	229.18
873.09	229.19
873.40	229.15
873.71	229.18
874.02	229.20
874.33	229.20
874.64	229.16
874.95	229.19
875.26	229.13
875.56	229.11
875.87	229.08
876.18	229.07
876.49	229.20
876.80	229.18
877.11	229.14
877.42	229.14
877.73	229.14
878.04	229.13
878.35	229.11
878.66	229.11
878.96	229.12
879.27	229.12
879.58	229.10
879.89	229.10
880.20	229.13
880.51	229.11
880.82	229.11
881.12	229.12
881.43	229.08
881.74	229.08
882.05	229.08
882.36	229.11
882.67	229.13
882.97	228.95
883.28	228.93
883.59	228.93
883.90	228.96
884.21	228.99
884.51	228.97
884.82	228.94
885.13	228.96
885.44	228.96
885.74	228.96
886.05	228.95
886.36	228.96
886.67	228.90
886.98	229.00
887.28	229.03
887.59	229.02
887.90	229.03
888.20	229.02
888.51	229.05
888.82	229.02
889.13	229.04
889.43	229.20
889.74	229.19
890.05	229.18
890.35	229.15
890.66	229.11
890.97	229.10
891.28	229.10
891.58	229.09
891.89	229.08
892.20	229.06
892.50	229.05
892.81	229.03
893.12	229.02
893.42	228.91
893.73	228.90
894.04	228.91
894.34	228.91
894.65	228.92
894.95	228.89
895.26	228.91
895.57	228.99
895.87	228.80
896.18	228.85
896.48	228.86
896.79	228.86
897.10	228.89
897.40	228.90
897.71	228.91
898.01	228.90
898.32	228.92
898.63	228.94
898.93	228.96
899.24	228.97
899.54	228.97
899.85	228.99
900.15	228.97
900.46	228.98
900.76	229.00
901.07	229.01
901.38	229.00
901.68	229.03
901.99	228.94
902.29	228.96
902.60	228.93
902.90	228.93
903.21	228.92
903.51	228.92
903.82	228.95
904.12	228.95
904.43	228.97
904.73	228.96
905.03	228.97
905.34	229.11
905.64	229.09
905.95	229.09
906.25	229.08
906.56	229.09
906.86	229.08
907.17	229.06
907.47	229.06
907.77	229.05
908.08	229.00
908.38	229.01
908.69	229.02
908.99	229.05
909.30	229.06
909.60	229.04
909.90	229.02
910.21	228.96
910.51	228.93
910.81	228.94
911.12	228.95
911.42	228.94
911.73	228.78
912.03	228.79
912.33	228.85
912.64	228.82
912.94	228.80
913.24	228.78
913.55	228.77
913.85	228.75
914.15	228.77
914.46	228.80
914.76	228.78
915.06	228.76
915.37	228.73
915.67	228.70
915.97	228.72
916.27	228.70
916.58	228.72
916.88	228.71
917.18	228.68
917.49	228.79
917.79	228.78
918.09	228.80
918.39	228.84
918.70	228.80
919.00	228.82
919.30	228.92
919.60	228.93
919.91	228.90
920.21	228.91
920.51	228.87
920.81	228.87
921.12	228.89
921.42	228.89
921.72	228.92
922.02	228.95
922.32	228.97
922.63	228.98
922.93	229.07
923.23	229.11
923.53	229.10
923.83	228.99
924.13	229.01
924.44	229.00
924.74	229.01
925.04	229.05
925.34	229.04
925.64	228.93
925.94	228.93
926.24	229.04
926.55	229.02
926.85	229.04
927.15	229.05
927.45	229.04
927.75	229.03
928.05	229.02
928.35	229.01
928.65	229.04
928.95	229.06
929.26	228.97
929.56	228.98
929.86	229.00
930.16	228.98
930.46	228.98
930.76	229.00
931.06	228.91
931.36	228.87
931.66	228.91
931.96	228.96
932.26	228.97
932.56	228.88
932.86	228.90
933.16	228.92
933.46	228.89
933.76	228.89
934.06	228.92
934.36	229.00
934.66	228.98
934.96	228.96
935.26	228.98
935.56	229.02
935.86	228.98
936.16	228.95
936.46	228.93
936.76	228.90
937.06	228.87
937.36	228.90
937.66	228.90
937.96	228.89
938.26	228.84
938.56	228.82
938.86	228.84
939.16	228.88
939.46	228.88
939.76	228.90
940.06	228.88
940.35	228.84
940.65	228.75
940.95	228.76
941.25	228.70
941.55	228.68
941.85	228.66
942.15	228.70
942.45	228.75
942.75	228.74
943.04	228.75
943.34	228.78
943.64	228.76
943.94	228.74
944.24	228.75
944.54	228.76
944.84	228.76
945.13	228.73
945.43	228.69
945.73	228.67
946.03	228.65
946.33	228.63
946.62	228.63
946.92	228.62
947.22	228.63
947.52	228.65
947.82	228.65
948.11	228.63
948.41	228.59
948.71	228.54
949.01	228.54
949.31	228.54
949.60	228.51
949.90	228.55
950.20	228.55
950.50	228.53
950.79	228.51
951.09	228.54
951.39	228.55
951.69	228.54
951.98	228.56
952.28	228.58
952.58	228.59
952.87	228.59
953.17	228.61
953.47	228.58
953.76	228.58
954.06	228.55
954.36	228.52
954.66	228.52
954.95	228.57
955.25	228.59
955.55	228.61
955.84	228.59
956.14	228.60
956.44	228.60
956.73	228.58
957.03	228.59
957.32	228.59
957.62	228.58
957.92	228.62
958.21	228.61
958.51	228.79
958.81	228.81
959.10	228.82
959.40	228.85
959.69	228.85
959.99	228.88
960.29	228.90
960.58	228.89
960.88	228.98
961.17	228.94
961.47	228.96
961.76	228.95
962.06	228.96
962.36	228.93
962.65	228.96
962.95	228.97
963.24	228.95
963.54	228.96
963.83	228.97
964.13	228.95
964.42	228.93
964.72	228.80
965.01	228.78
965.31	228.78
965.60	228.74
965.90	228.85
966.19	228.81
966.49	228.82
966.78	228.82
967.08	228.78
967.37	228.78
967.67	228.76
967.96	228.78
968.26	228.79
968.55	228.81
968.85	228.78
969.14	228.79
969.43	228.78
969.73	228.76
970.02	228.75
970.32	228.73
970.61	228.71
970.91	228.63
971.20	228.61
971.49	228.59
971.79	228.62
972.08	228.50
972.38	228.54
972.67	228.51
972.96	228.53
973.26	228.52
973.55	228.57
973.85	228.56
974.14	228.56
974.43	228.57
974.73	228.54
975.02	228.52
975.31	228.51
975.61	228.51
975.90	228.50
976.19	228.48
976.49	228.48
976.78	228.49
977.07	228.51
977.37	228.52
977.66	228.54
977.95	228.51
978.24	228.53
978.54	228.55
978.83	228.56
979.12	228.54
979.42	228.53
979.71	228.50
980.00	228.49
980.29	228.47
980.59	228.42
980.88	228.47
981.17	228.47
981.46	228.49
981.76	228.49
982.05	228.54
982.34	228.57
982.63	228.59
982.93	228.57
983.22	228.62
983.51	228.64
983.80	228.68
984.09	228.70
984.39	228.67
984.68	228.66
984.97	228.66
985.26	228.65
985.55	228.67
985.85	228.64
986.14	228.67
986.43	228.70
986.72	228.71
987.01	228.67
987.30	228.67
987.59	228.64
987.89	228.66
988.18	228.59
988.47	228.59
988.76	228.56
989.05	228.56
989.34	228.53
989.63	228.58
989.92	228.54
990.22	228.51
990.51	228.51
990.80	228.48
991.09	228.50
991.38	228.52
991.67	228.50
991.96	228.49
992.25	228.49
992.54	228.45
992.83	228.45
993.12	228.44
993.41	228.48
993.70	228.56
993.99	228.60
994.28	228.65
994.58	228.68
994.87	228.67
995.16	228.66
995.45	228.64
995.74	228.57
996.03	228.60
996.32	228.65
996.61	228.67
996.90	228.68
997.19	228.67
997.48	228.66
997.77	228.65
998.06	228.67
998.34	228.66
998.63	228.67
998.92	228.68
999.21	228.73
999.50	228.73
999.79	228.67
1000.08	228.66
1000.37	228.66
1000.66	228.62
1000.95	228.67
1001.24	228.70
1001.53	228.72
1001.82	228.72
1002.11	228.69
1002.40	228.70
1002.68	228.74
1002.97	228.87
1003.26	228.85
1003.55	228.84
1003.84	228.86
1004.13	228.91
1004.42	228.91
1004.71	228.89
1004.99	228.88
1005.28	228.91
1005.57	228.91
1005.86	228.89
1006.15	228.87
1006.44	228.83
1006.72	228.87
1007.01	228.85
1007.30	228.84
1007.59	228.83
1007.88	228.82
1008.17	228.83
1008.45	228.79
1008.74	228.72
1009.03	228.62
1009.32	228.62
1009.60	228.61
1009.89	228.58
1010.18	228.51
1010.47	228.49
1010.76	228.49
1011.04	228.49
1011.33	228.48
1011.62	228.48
1011.91	228.50
1012.19	228.51
1012.48	228.52
1012.77	228.51
1013.05	228.56
1013.34	228.54
1013.63	228.53
1013.92	228.54
1014.20	228.53
1014.49	228.54
1014.78	228.56
1015.06	228.50
1015.35	228.52
1015.64	228.55
1015.92	228.57
1016.21	228.60
1016.50	228.60
1016.78	228.63
1017.07	228.65
1017.36	228.61
1017.64	228.60
1017.93	228.61
1018.22	228.60
1018.50	228.60
1018.79	228.59
1019.08	228.55
1019.36	228.57
1019.65	228.56
1019.93	228.61
1020.22	228.63
1020.51	228.73
1020.79	228.71
1021.08	228.56
1021.36	228.51
1021.65	228.37
1021.94	228.82
1022.22	228.76
1022.51	228.36
1022.79	229.42
1023.08	228.80
1023.36	230.72
1023.65	228.38
>>>>>End Processed Spectral Data<<<<<
