SpectraSuite Data File
++++++++++++++++++++++++++++++++++++
Date: Tue Oct 06 16:25:15 EDT 2015
User: lab3
Dark Spectrum Present: No
Reference Spectrum Present: No
Number of Sampled Component Spectra: 1
Spectrometers: USB2E7196
Integration Time (usec): 66000 (USB2E7196)
Spectra Averaged: 1000 (USB2E7196)
Boxcar Smoothing: 10 (USB2E7196)
Correct for Electrical Dark: No (USB2E7196)
Strobe/Lamp Enabled: No (USB2E7196)
Correct for Detector Non-linearity: No (USB2E7196)
Correct for Stray Light: No (USB2E7196)
Number of Pixels in Processed Spectrum: 2048
>>>>>Begin Processed Spectral Data<<<<<
339.09	0.00
339.48	215.44
339.86	217.07
340.24	218.36
340.63	219.75
341.01	223.92
341.39	222.50
341.78	223.86
342.16	225.34
342.54	225.58
342.93	214.00
343.31	224.81
343.69	225.35
344.07	225.81
344.46	226.25
344.84	226.66
345.22	226.86
345.60	227.13
345.99	227.34
346.37	227.48
346.75	227.60
347.13	227.68
347.52	227.76
347.90	227.88
348.28	227.94
348.66	228.03
349.05	228.01
349.43	228.08
349.81	228.17
350.19	228.25
350.57	228.32
350.96	228.42
351.34	228.54
351.72	228.63
352.10	228.75
352.48	228.83
352.87	228.88
353.25	228.94
353.63	228.99
354.01	229.06
354.39	229.14
354.77	229.21
355.15	229.35
355.54	229.39
355.92	229.40
356.30	229.48
356.68	229.65
357.06	229.73
357.44	229.76
357.82	229.82
358.20	230.02
358.58	230.08
358.97	230.15
359.35	230.24
359.73	230.34
360.11	230.39
360.49	230.46
360.87	230.52
361.25	230.59
361.63	230.71
362.01	230.76
362.39	230.78
362.77	230.83
363.15	230.83
363.53	230.87
363.91	230.91
364.29	230.92
364.67	230.78
365.05	230.81
365.43	230.85
365.81	230.89
366.19	230.83
366.57	230.92
366.95	230.91
367.33	230.88
367.71	230.86
368.09	230.90
368.47	230.88
368.85	230.87
369.23	230.89
369.61	230.80
369.99	230.84
370.37	230.85
370.75	230.96
371.13	230.94
371.51	230.90
371.89	230.88
372.27	230.86
372.65	230.84
373.03	230.79
373.41	230.75
373.78	230.69
374.16	230.56
374.54	230.44
374.92	230.39
375.30	230.35
375.68	230.28
376.06	230.24
376.44	230.18
376.82	230.14
377.19	230.10
377.57	230.04
377.95	229.94
378.33	229.87
378.71	229.67
379.09	229.63
379.47	229.60
379.84	229.54
380.22	229.49
380.60	229.41
380.98	229.37
381.36	229.33
381.73	229.27
382.11	229.27
382.49	229.24
382.87	229.19
383.25	229.15
383.62	229.32
384.00	229.24
384.38	229.21
384.76	229.20
385.13	229.21
385.51	229.18
385.89	229.13
386.27	229.10
386.64	229.09
387.02	229.04
387.40	229.00
387.78	228.97
388.15	228.95
388.53	228.92
388.91	228.90
389.29	228.86
389.66	228.88
390.04	228.83
390.42	228.84
390.79	228.83
391.17	228.81
391.55	228.59
391.92	228.59
392.30	228.60
392.68	228.56
393.05	228.54
393.43	228.54
393.81	228.56
394.18	228.55
394.56	228.56
394.94	228.61
395.31	228.62
395.69	228.70
396.06	228.75
396.44	228.79
396.82	228.81
397.19	228.94
397.57	228.95
397.95	229.03
398.32	229.02
398.70	229.09
399.07	229.20
399.45	229.27
399.82	229.35
400.20	229.40
400.58	229.50
400.95	229.52
401.33	229.66
401.70	229.88
402.08	230.02
402.45	230.15
402.83	230.32
403.20	230.49
403.58	230.61
403.95	230.82
404.33	231.05
404.71	231.27
405.08	231.58
405.46	231.83
405.83	232.11
406.21	232.40
406.58	232.73
406.96	233.05
407.33	233.42
407.70	233.84
408.08	234.41
408.45	234.92
408.83	235.46
409.20	235.97
409.58	236.43
409.95	237.07
410.33	237.75
410.70	238.39
411.08	239.16
411.45	239.97
411.82	240.79
412.20	241.72
412.57	242.82
412.95	243.70
413.32	244.85
413.69	246.02
414.07	247.29
414.44	248.66
414.82	250.07
415.19	251.73
415.56	253.40
415.94	255.16
416.31	257.13
416.68	259.09
417.06	261.35
417.43	263.49
417.81	265.92
418.18	268.42
418.55	271.14
418.93	273.98
419.30	276.95
419.67	280.10
420.04	283.33
420.42	286.72
420.79	290.60
421.16	294.53
421.54	298.51
421.91	302.67
422.28	306.98
422.66	311.62
423.03	316.05
423.40	320.69
423.77	325.66
424.15	330.73
424.52	335.99
424.89	341.70
425.26	347.34
425.64	352.59
426.01	358.50
426.38	364.51
426.75	370.70
427.13	377.02
427.50	383.63
427.87	390.50
428.24	397.44
428.61	404.10
428.99	411.26
429.36	419.12
429.73	426.61
430.10	434.09
430.47	441.74
430.85	449.63
431.22	458.03
431.59	466.65
431.96	475.08
432.33	484.43
432.70	493.32
433.08	503.86
433.45	513.80
433.82	523.59
434.19	534.57
434.56	545.38
434.93	555.87
435.30	566.30
435.68	578.11
436.05	589.61
436.42	601.13
436.79	611.67
437.16	623.14
437.53	635.40
437.90	647.66
438.27	659.71
438.64	672.71
439.01	684.54
439.38	695.39
439.75	705.90
440.13	717.86
440.50	729.27
440.87	738.36
441.24	748.36
441.61	759.34
441.98	767.47
442.35	777.14
442.72	787.00
443.09	796.35
443.46	802.50
443.83	807.21
444.20	811.15
444.57	816.81
444.94	820.23
445.31	823.76
445.68	826.83
446.05	829.20
446.42	829.07
446.79	828.70
447.16	828.43
447.53	828.22
447.90	824.90
448.27	821.70
448.64	816.58
449.01	813.14
449.37	805.74
449.74	799.03
450.11	790.24
450.48	780.60
450.85	770.95
451.22	762.64
451.59	754.46
451.96	747.07
452.33	736.29
452.70	726.70
453.07	715.03
453.43	703.38
453.80	691.98
454.17	681.10
454.54	671.03
454.91	659.65
455.28	648.90
455.65	638.72
456.02	627.97
456.38	619.32
456.75	608.20
457.12	599.22
457.49	590.16
457.86	581.62
458.23	574.06
458.59	565.74
458.96	557.19
459.33	549.68
459.70	542.05
460.07	536.20
460.43	529.30
460.80	522.86
461.17	517.27
461.54	511.21
461.91	505.52
462.27	499.75
462.64	495.01
463.01	489.60
463.38	484.15
463.74	479.26
464.11	474.90
464.48	470.96
464.85	466.72
465.21	463.46
465.58	459.83
465.95	455.73
466.32	452.47
466.68	449.28
467.05	446.03
467.42	442.88
467.78	439.52
468.15	436.44
468.52	434.15
468.88	431.13
469.25	428.39
469.62	426.20
469.98	423.83
470.35	421.74
470.72	419.82
471.08	417.91
471.45	416.25
471.82	414.43
472.18	412.52
472.55	411.30
472.92	409.76
473.28	408.56
473.65	407.27
474.02	406.03
474.38	405.00
474.75	404.39
475.11	403.56
475.48	403.15
475.85	402.71
476.21	402.46
476.58	402.28
476.94	402.45
477.31	402.52
477.67	402.60
478.04	402.88
478.41	403.31
478.77	403.91
479.14	404.29
479.50	405.09
479.87	406.09
480.23	407.06
480.60	408.00
480.96	408.97
481.33	410.41
481.69	411.85
482.06	413.25
482.42	414.54
482.79	416.15
483.15	418.03
483.52	420.13
483.88	422.15
484.25	424.28
484.61	426.52
484.98	428.93
485.34	431.65
485.71	434.52
486.07	437.57
486.44	440.57
486.80	443.96
487.17	447.41
487.53	451.17
487.90	455.10
488.26	459.40
488.62	463.91
488.99	468.40
489.35	473.12
489.72	478.20
490.08	483.55
490.44	489.00
490.81	494.69
491.17	500.54
491.54	506.81
491.90	513.22
492.26	520.07
492.63	527.24
492.99	534.72
493.36	542.35
493.72	550.39
494.08	558.61
494.45	567.21
494.81	576.20
495.17	585.44
495.54	595.18
495.90	605.38
496.26	615.72
496.63	626.32
496.99	637.36
497.35	648.86
497.72	660.67
498.08	672.80
498.44	685.23
498.80	698.37
499.17	711.81
499.53	725.68
499.89	739.96
500.26	754.43
500.62	769.22
500.98	784.85
501.34	800.48
501.71	816.94
502.07	833.66
502.43	850.84
502.79	868.19
503.16	886.07
503.52	904.06
503.88	922.52
504.24	941.43
504.60	960.54
504.97	980.28
505.33	1000.44
505.69	1021.64
506.05	1043.02
506.41	1064.23
506.78	1085.59
507.14	1107.55
507.50	1129.87
507.86	1152.61
508.22	1175.56
508.59	1198.31
508.95	1222.11
509.31	1246.33
509.67	1271.14
510.03	1295.88
510.39	1320.52
510.75	1345.21
511.12	1370.27
511.48	1395.38
511.84	1420.53
512.20	1445.99
512.56	1472.42
512.92	1498.61
513.28	1524.18
513.64	1550.13
514.00	1576.39
514.37	1602.89
514.73	1629.35
515.09	1655.18
515.45	1681.29
515.81	1707.47
516.17	1733.36
516.53	1758.61
516.89	1783.76
517.25	1809.11
517.61	1834.19
517.97	1859.95
518.33	1884.97
518.69	1909.86
519.05	1935.21
519.41	1960.64
519.77	1985.96
520.13	2009.77
520.49	2033.79
520.85	2058.04
521.21	2081.71
521.57	2105.64
521.93	2128.56
522.29	2152.06
522.65	2175.35
523.01	2198.29
523.37	2220.57
523.73	2243.49
524.09	2266.19
524.45	2288.33
524.81	2309.95
525.17	2331.30
525.53	2351.95
525.89	2372.94
526.25	2393.48
526.61	2412.51
526.97	2431.50
527.33	2450.39
527.68	2468.92
528.04	2486.96
528.40	2503.71
528.76	2520.74
529.12	2537.37
529.48	2554.43
529.84	2568.81
530.20	2583.62
530.56	2597.55
530.91	2611.72
531.27	2625.33
531.63	2637.87
531.99	2650.26
532.35	2662.19
532.71	2673.74
533.07	2685.54
533.42	2695.50
533.78	2705.83
534.14	2716.88
534.50	2726.82
534.86	2737.22
535.21	2745.69
535.57	2753.95
535.93	2762.19
536.29	2768.63
536.65	2774.82
537.00	2779.58
537.36	2785.72
537.72	2790.86
538.08	2795.47
538.44	2799.00
538.79	2802.30
539.15	2804.22
539.51	2805.54
539.87	2805.74
540.22	2804.47
540.58	2803.44
540.94	2803.28
541.29	2801.79
541.65	2799.10
542.01	2796.04
542.37	2791.47
542.72	2788.40
543.08	2783.74
543.44	2779.26
543.79	2774.31
544.15	2768.72
544.51	2763.39
544.87	2756.96
545.22	2749.67
545.58	2742.37
545.94	2735.22
546.29	2726.57
546.65	2718.32
547.01	2710.05
547.36	2702.11
547.72	2694.38
548.07	2684.96
548.43	2674.59
548.79	2664.03
549.14	2653.79
549.50	2643.67
549.86	2632.65
550.21	2620.11
550.57	2608.63
550.92	2595.48
551.28	2582.91
551.64	2570.54
551.99	2557.91
552.35	2544.89
552.70	2531.81
553.06	2519.07
553.41	2505.92
553.77	2492.61
554.13	2479.33
554.48	2465.12
554.84	2450.30
555.19	2435.97
555.55	2421.57
555.90	2407.50
556.26	2393.80
556.61	2378.95
556.97	2363.23
557.32	2347.98
557.68	2333.04
558.03	2317.88
558.39	2303.61
558.74	2289.85
559.10	2274.39
559.45	2259.19
559.81	2244.69
560.16	2229.89
560.52	2214.94
560.87	2200.10
561.23	2184.96
561.58	2170.35
561.94	2155.27
562.29	2139.76
562.64	2124.37
563.00	2109.15
563.35	2094.11
563.71	2078.72
564.06	2063.54
564.42	2048.83
564.77	2034.19
565.12	2019.34
565.48	2004.33
565.83	1989.56
566.19	1974.79
566.54	1960.29
566.89	1945.26
567.25	1930.04
567.60	1915.64
567.96	1900.53
568.31	1884.38
568.66	1869.20
569.02	1854.50
569.37	1840.30
569.72	1826.75
570.08	1812.77
570.43	1798.21
570.78	1783.51
571.14	1768.59
571.49	1753.83
571.84	1739.40
572.20	1723.87
572.55	1709.14
572.90	1694.44
573.26	1679.68
573.61	1664.34
573.96	1649.50
574.31	1634.57
574.67	1619.62
575.02	1604.35
575.37	1589.14
575.72	1574.62
576.08	1559.89
576.43	1544.58
576.78	1529.42
577.13	1514.44
577.49	1499.76
577.84	1485.48
578.19	1470.78
578.54	1456.19
578.90	1441.53
579.25	1426.77
579.60	1413.08
579.95	1399.17
580.30	1385.22
580.66	1371.03
581.01	1356.97
581.36	1343.04
581.71	1329.81
582.06	1316.54
582.42	1303.14
582.77	1290.23
583.12	1277.51
583.47	1264.74
583.82	1252.17
584.17	1239.25
584.53	1226.37
584.88	1213.72
585.23	1200.95
585.58	1188.59
585.93	1176.23
586.28	1164.71
586.63	1153.08
586.98	1141.12
587.34	1129.49
587.69	1117.69
588.04	1106.28
588.39	1095.09
588.74	1083.51
589.09	1072.13
589.44	1060.50
589.79	1049.39
590.14	1038.34
590.49	1027.38
590.84	1016.63
591.19	1006.09
591.54	995.66
591.89	984.93
592.25	974.55
592.60	964.05
592.95	953.74
593.30	943.65
593.65	933.34
594.00	923.25
594.35	914.05
594.70	904.17
595.05	894.92
595.40	885.44
595.75	875.86
596.10	866.88
596.45	857.87
596.80	849.18
597.15	840.51
597.50	831.87
597.85	823.40
598.19	814.93
598.54	806.51
598.89	798.56
599.24	790.93
599.59	783.13
599.94	775.92
600.29	768.69
600.64	761.36
600.99	753.93
601.34	746.76
601.69	739.08
602.04	732.24
602.39	725.26
602.74	718.49
603.08	711.85
603.43	705.19
603.78	698.52
604.13	691.94
604.48	685.44
604.83	679.09
605.18	672.84
605.53	666.74
605.87	660.58
606.22	654.52
606.57	648.41
606.92	642.23
607.27	636.08
607.62	630.15
607.96	624.46
608.31	619.15
608.66	613.76
609.01	608.60
609.36	603.41
609.70	598.20
610.05	593.03
610.40	588.02
610.75	582.99
611.10	578.18
611.44	573.36
611.79	568.62
612.14	563.83
612.49	559.12
612.83	554.65
613.18	550.20
613.53	545.80
613.88	541.54
614.22	537.59
614.57	533.53
614.92	529.54
615.27	525.67
615.61	521.74
615.96	517.85
616.31	513.96
616.65	510.22
617.00	506.57
617.35	502.94
617.70	499.35
618.04	495.84
618.39	492.42
618.74	489.22
619.08	486.00
619.43	482.87
619.78	479.69
620.12	476.53
620.47	473.60
620.82	470.68
621.16	467.76
621.51	464.91
621.85	462.10
622.20	459.34
622.55	456.52
622.89	453.78
623.24	451.20
623.59	448.65
623.93	446.18
624.28	443.84
624.62	441.71
624.97	439.55
625.32	437.33
625.66	435.05
626.01	432.76
626.35	430.61
626.70	428.40
627.04	426.40
627.39	424.30
627.73	422.28
628.08	420.35
628.43	418.41
628.77	416.37
629.12	414.47
629.46	412.68
629.81	411.00
630.15	409.23
630.50	407.49
630.84	405.80
631.19	404.14
631.53	402.52
631.88	400.76
632.22	399.08
632.57	397.66
632.91	396.23
633.26	394.85
633.60	393.45
633.95	392.16
634.29	390.73
634.64	389.39
634.98	387.92
635.32	386.61
635.67	385.42
636.01	384.23
636.36	383.08
636.70	382.01
637.05	380.77
637.39	379.68
637.73	378.57
638.08	377.53
638.42	376.52
638.77	375.40
639.11	374.24
639.45	373.12
639.80	371.95
640.14	370.86
640.49	369.76
640.83	368.66
641.17	367.59
641.52	366.55
641.86	365.54
642.20	364.69
642.55	363.64
642.89	362.61
643.23	361.69
643.58	360.83
643.92	359.81
644.26	358.90
644.61	358.02
644.95	357.09
645.29	356.09
645.64	355.07
645.98	354.15
646.32	353.34
646.66	352.49
647.01	351.66
647.35	350.88
647.69	350.10
648.04	349.39
648.38	348.61
648.72	347.88
649.06	347.12
649.41	346.30
649.75	345.57
650.09	344.87
650.43	344.11
650.78	343.34
651.12	342.61
651.46	341.88
651.80	341.15
652.14	340.49
652.49	339.89
652.83	339.23
653.17	338.54
653.51	337.87
653.85	337.29
654.20	336.66
654.54	335.93
654.88	335.24
655.22	334.59
655.56	333.91
655.90	333.26
656.25	332.64
656.59	332.03
656.93	331.45
657.27	330.92
657.61	330.31
657.95	329.75
658.29	329.19
658.64	328.66
658.98	328.06
659.32	327.48
659.66	326.92
660.00	326.41
660.34	325.89
660.68	325.32
661.02	324.69
661.36	324.11
661.70	323.58
662.05	323.04
662.39	322.52
662.73	322.08
663.07	321.67
663.41	321.20
663.75	320.68
664.09	320.17
664.43	319.55
664.77	319.04
665.11	318.46
665.45	317.93
665.79	317.41
666.13	316.88
666.47	316.35
666.81	315.79
667.15	315.18
667.49	314.73
667.83	314.31
668.17	313.87
668.51	313.46
668.85	313.07
669.19	312.72
669.53	312.18
669.87	311.64
670.21	311.09
670.55	310.58
670.89	310.19
671.23	309.77
671.57	309.38
671.91	309.02
672.25	308.68
672.58	308.36
672.92	307.93
673.26	307.57
673.60	307.20
673.94	306.82
674.28	306.49
674.62	306.10
674.96	305.65
675.30	305.26
675.64	304.80
675.97	304.33
676.31	303.84
676.65	303.43
676.99	303.12
677.33	302.68
677.67	302.30
678.01	301.81
678.34	301.37
678.68	300.97
679.02	300.52
679.36	300.08
679.70	299.61
680.04	299.22
680.37	298.82
680.71	298.42
681.05	298.06
681.39	297.63
681.73	297.17
682.06	296.75
682.40	296.35
682.74	296.00
683.08	295.70
683.42	295.32
683.75	294.97
684.09	294.50
684.43	294.11
684.77	293.68
685.10	293.31
685.44	292.92
685.78	292.52
686.12	292.12
686.45	291.72
686.79	291.28
687.13	290.88
687.46	290.44
687.80	290.03
688.14	289.56
688.48	289.16
688.81	288.75
689.15	288.40
689.49	287.97
689.82	287.54
690.16	287.02
690.50	286.58
690.83	286.16
691.17	285.70
691.51	285.29
691.84	284.93
692.18	284.51
692.52	284.06
692.85	283.64
693.19	283.28
693.52	282.86
693.86	282.45
694.20	282.04
694.53	281.63
694.87	281.18
695.21	280.74
695.54	280.32
695.88	279.89
696.21	279.40
696.55	278.98
696.88	278.55
697.22	278.14
697.56	277.75
697.89	277.30
698.23	276.91
698.56	276.48
698.90	276.07
699.23	275.64
699.57	275.25
699.90	274.83
700.24	274.39
700.58	274.00
700.91	273.66
701.25	273.43
701.58	273.11
701.92	272.79
702.25	272.45
702.59	272.06
702.92	271.69
703.26	271.32
703.59	270.94
703.93	270.70
704.26	270.35
704.60	269.95
704.93	269.58
705.26	269.20
705.60	268.86
705.93	268.45
706.27	268.14
706.60	267.83
706.94	267.54
707.27	267.14
707.61	266.78
707.94	266.38
708.27	265.86
708.61	265.44
708.94	265.04
709.28	264.69
709.61	264.34
709.94	264.02
710.28	263.71
710.61	263.39
710.95	262.91
711.28	262.70
711.61	262.36
711.95	262.09
712.28	261.75
712.61	261.41
712.95	261.19
713.28	260.93
713.61	260.57
713.95	260.20
714.28	259.93
714.61	259.61
714.95	259.31
715.28	259.00
715.61	258.70
715.95	258.43
716.28	258.13
716.61	257.87
716.95	257.55
717.28	257.25
717.61	256.98
717.94	256.72
718.28	256.32
718.61	256.05
718.94	255.74
719.27	255.50
719.61	255.27
719.94	254.97
720.27	254.64
720.60	254.40
720.94	254.14
721.27	253.89
721.60	253.67
721.93	253.42
722.27	253.20
722.60	252.97
722.93	252.70
723.26	252.47
723.59	252.20
723.93	252.00
724.26	251.78
724.59	251.54
724.92	251.32
725.25	251.15
725.59	250.92
725.92	250.73
726.25	250.50
726.58	250.27
726.91	250.03
727.24	249.82
727.57	249.59
727.91	249.36
728.24	249.16
728.57	248.93
728.90	248.74
729.23	248.49
729.56	248.38
729.89	248.19
730.22	247.99
730.55	247.80
730.89	247.60
731.22	247.39
731.55	247.21
731.88	247.02
732.21	246.80
732.54	246.63
732.87	246.44
733.20	246.27
733.53	246.10
733.86	245.96
734.19	245.77
734.52	245.64
734.85	245.61
735.18	245.44
735.51	245.33
735.84	245.19
736.17	245.09
736.50	244.83
736.83	244.87
737.16	244.73
737.49	244.56
737.82	244.40
738.15	244.27
738.48	244.11
738.81	243.94
739.14	243.76
739.47	243.60
739.80	243.44
740.13	243.30
740.46	243.12
740.79	242.92
741.12	242.77
741.45	242.57
741.78	242.31
742.11	242.19
742.44	241.99
742.77	241.85
743.10	241.67
743.43	241.52
743.75	241.18
744.08	241.30
744.41	241.16
744.74	241.00
745.07	240.83
745.40	240.73
745.73	240.67
746.06	240.54
746.39	240.44
746.71	240.29
747.04	240.15
747.37	240.02
747.70	239.93
748.03	239.81
748.36	239.73
748.68	239.61
749.01	239.45
749.34	239.35
749.67	239.22
750.00	239.13
750.33	239.16
750.65	239.06
750.98	238.68
751.31	238.58
751.64	238.50
751.97	238.49
752.29	238.37
752.62	238.18
752.95	238.06
753.28	237.93
753.60	237.82
753.93	237.76
754.26	237.67
754.59	237.51
754.91	237.40
755.24	237.27
755.57	237.18
755.90	237.07
756.22	236.94
756.55	236.81
756.88	236.68
757.20	236.47
757.53	236.32
757.86	236.23
758.19	236.14
758.51	236.03
758.84	235.84
759.17	235.72
759.49	235.65
759.82	235.65
760.15	235.58
760.47	235.49
760.80	235.34
761.13	235.29
761.45	235.21
761.78	235.15
762.11	235.06
762.43	234.96
762.76	234.88
763.08	234.82
763.41	234.75
763.74	234.69
764.06	234.60
764.39	234.53
764.71	234.45
765.04	234.36
765.37	234.28
765.69	234.21
766.02	234.15
766.34	234.05
766.67	233.91
767.00	233.88
767.32	233.91
767.65	233.96
767.97	233.87
768.30	233.81
768.62	233.74
768.95	233.66
769.27	233.59
769.60	233.55
769.92	233.46
770.25	233.36
770.57	233.27
770.90	233.21
771.22	233.16
771.55	233.10
771.87	233.06
772.20	233.00
772.52	233.10
772.85	233.24
773.17	233.20
773.50	233.14
773.82	233.05
774.15	232.91
774.47	232.75
774.80	232.68
775.12	232.64
775.45	232.59
775.77	232.55
776.09	232.52
776.42	232.47
776.74	232.49
777.07	232.44
777.39	232.41
777.72	232.36
778.04	232.34
778.36	232.28
778.69	232.25
779.01	232.22
779.33	232.03
779.66	231.79
779.98	231.75
780.31	231.72
780.63	231.76
780.95	231.75
781.28	231.72
781.60	231.67
781.92	231.62
782.25	231.59
782.57	231.55
782.89	231.51
783.22	231.48
783.54	231.40
783.86	231.40
784.19	231.36
784.51	231.39
784.83	231.34
785.16	231.32
785.48	231.29
785.80	231.27
786.12	231.26
786.45	231.23
786.77	231.21
787.09	231.16
787.42	231.05
787.74	231.04
788.06	231.02
788.38	230.99
788.71	230.96
789.03	230.94
789.35	230.94
789.67	230.90
789.99	230.87
790.32	230.83
790.64	230.83
790.96	230.96
791.28	230.86
791.61	230.83
791.93	230.81
792.25	230.77
792.57	230.86
792.89	230.81
793.21	230.80
793.54	230.76
793.86	230.73
794.18	230.73
794.50	230.67
794.82	230.65
795.14	230.66
795.47	230.67
795.79	230.65
796.11	230.58
796.43	230.55
796.75	230.53
797.07	230.51
797.39	230.47
797.71	230.31
798.04	230.30
798.36	230.29
798.68	230.25
799.00	230.25
799.32	230.13
799.64	230.14
799.96	230.11
800.28	230.13
800.60	230.11
800.92	230.11
801.24	230.08
801.56	230.07
801.89	230.02
802.21	230.01
802.53	229.96
802.85	229.99
803.17	230.06
803.49	230.01
803.81	229.98
804.13	229.94
804.45	229.89
804.77	229.90
805.09	229.87
805.41	229.85
805.73	229.80
806.05	229.75
806.37	229.72
806.69	229.69
807.01	229.65
807.33	229.64
807.65	229.55
807.97	229.62
808.28	229.58
808.60	229.57
808.92	229.52
809.24	229.62
809.56	229.57
809.88	229.49
810.20	229.50
810.52	229.53
810.84	229.50
811.16	229.47
811.48	229.44
811.80	229.48
812.12	229.47
812.43	229.49
812.75	229.48
813.07	229.44
813.39	229.44
813.71	229.40
814.03	229.37
814.35	229.38
814.67	229.28
814.98	229.27
815.30	229.26
815.62	229.22
815.94	229.09
816.26	229.11
816.58	229.06
816.89	229.05
817.21	229.00
817.53	229.00
817.85	229.00
818.17	228.99
818.48	228.92
818.80	228.94
819.12	228.90
819.44	228.87
819.76	228.84
820.07	228.83
820.39	228.81
820.71	228.82
821.03	228.80
821.34	228.78
821.66	228.79
821.98	228.79
822.30	228.78
822.61	228.87
822.93	228.82
823.25	228.81
823.57	228.79
823.88	228.80
824.20	228.79
824.52	228.80
824.83	228.79
825.15	228.77
825.47	228.74
825.79	228.74
826.10	228.72
826.42	228.72
826.74	228.74
827.05	228.73
827.37	228.72
827.69	228.69
828.00	228.70
828.32	228.69
828.64	228.67
828.95	228.76
829.27	228.71
829.58	228.70
829.90	228.71
830.22	228.71
830.53	228.67
830.85	228.64
831.17	228.59
831.48	228.57
831.80	228.57
832.11	228.56
832.43	228.53
832.75	228.52
833.06	228.62
833.38	228.56
833.69	228.55
834.01	228.56
834.32	228.56
834.64	228.54
834.96	228.53
835.27	228.52
835.59	228.44
835.90	228.40
836.22	228.40
836.53	228.37
836.85	228.35
837.16	228.53
837.48	228.52
837.79	228.57
838.11	228.58
838.42	228.57
838.74	228.58
839.05	228.56
839.37	228.56
839.68	228.44
840.00	228.43
840.31	228.46
840.63	228.44
840.94	228.41
841.26	228.40
841.57	228.39
841.88	228.40
842.20	228.37
842.51	228.35
842.83	228.35
843.14	228.50
843.46	228.50
843.77	228.39
844.08	228.38
844.40	228.33
844.71	228.32
845.03	228.29
845.34	228.28
845.65	228.27
845.97	228.26
846.28	228.27
846.60	228.28
846.91	228.25
847.22	228.23
847.54	228.26
847.85	228.27
848.16	228.26
848.48	228.21
848.79	228.28
849.10	228.30
849.42	228.30
849.73	228.14
850.04	228.13
850.36	228.06
850.67	228.10
850.98	228.10
851.30	228.11
851.61	228.11
851.92	228.10
852.23	228.16
852.55	228.16
852.86	228.17
853.17	228.17
853.49	228.20
853.80	228.23
854.11	228.24
854.42	228.26
854.74	228.24
855.05	228.25
855.36	228.17
855.67	228.17
855.99	228.16
856.30	228.37
856.61	228.36
856.92	228.38
857.23	228.37
857.55	228.35
857.86	228.33
858.17	228.36
858.48	228.34
858.79	228.28
859.11	228.30
859.42	228.29
859.73	228.27
860.04	228.25
860.35	228.20
860.66	228.15
860.98	228.13
861.29	228.15
861.60	228.14
861.91	228.18
862.22	228.15
862.53	228.12
862.84	227.91
863.16	227.95
863.47	227.91
863.78	227.88
864.09	227.89
864.40	227.91
864.71	227.90
865.02	227.93
865.33	227.91
865.64	227.86
865.95	227.86
866.27	227.97
866.58	227.96
866.89	227.99
867.20	227.99
867.51	227.97
867.82	227.94
868.13	228.00
868.44	227.95
868.75	227.98
869.06	227.98
869.37	227.99
869.68	227.95
869.99	227.98
870.30	228.00
870.61	228.01
870.92	227.98
871.23	227.96
871.54	227.97
871.85	228.01
872.16	228.04
872.47	228.02
872.78	227.92
873.09	227.93
873.40	227.90
873.71	227.91
874.02	227.92
874.33	227.90
874.64	227.85
874.95	227.88
875.26	227.83
875.56	227.85
875.87	227.83
876.18	227.83
876.49	228.01
876.80	227.98
877.11	227.94
877.42	227.95
877.73	227.96
878.04	227.93
878.35	227.93
878.66	227.93
878.96	227.92
879.27	227.92
879.58	227.91
879.89	227.91
880.20	227.95
880.51	227.95
880.82	227.96
881.12	227.95
881.43	227.92
881.74	227.91
882.05	227.89
882.36	227.90
882.67	227.91
882.97	227.70
883.28	227.69
883.59	227.68
883.90	227.71
884.21	227.73
884.51	227.72
884.82	227.68
885.13	227.68
885.44	227.69
885.74	227.69
886.05	227.68
886.36	227.68
886.67	227.62
886.98	227.71
887.28	227.73
887.59	227.75
887.90	227.75
888.20	227.74
888.51	227.78
888.82	227.75
889.13	227.77
889.43	227.93
889.74	227.92
890.05	227.93
890.35	227.91
890.66	227.88
890.97	227.86
891.28	227.86
891.58	227.86
891.89	227.84
892.20	227.83
892.50	227.81
892.81	227.81
893.12	227.80
893.42	227.72
893.73	227.71
894.04	227.70
894.34	227.71
894.65	227.71
894.95	227.69
895.26	227.71
895.57	227.79
895.87	227.62
896.18	227.67
896.48	227.67
896.79	227.65
897.10	227.68
897.40	227.69
897.71	227.71
898.01	227.69
898.32	227.72
898.63	227.72
898.93	227.73
899.24	227.73
899.54	227.73
899.85	227.73
900.15	227.73
900.46	227.73
900.76	227.75
901.07	227.74
901.38	227.74
901.68	227.76
901.99	227.66
902.29	227.67
902.60	227.65
902.90	227.64
903.21	227.65
903.51	227.64
903.82	227.68
904.12	227.70
904.43	227.71
904.73	227.70
905.03	227.71
905.34	227.88
905.64	227.87
905.95	227.87
906.25	227.87
906.56	227.86
906.86	227.87
907.17	227.85
907.47	227.86
907.77	227.84
908.08	227.80
908.38	227.81
908.69	227.83
908.99	227.85
909.30	227.86
909.60	227.85
909.90	227.85
910.21	227.79
910.51	227.75
910.81	227.75
911.12	227.75
911.42	227.76
911.73	227.57
912.03	227.58
912.33	227.61
912.64	227.59
912.94	227.56
913.24	227.53
913.55	227.52
913.85	227.51
914.15	227.55
914.46	227.56
914.76	227.54
915.06	227.52
915.37	227.47
915.67	227.46
915.97	227.46
916.27	227.42
916.58	227.43
916.88	227.43
917.18	227.41
917.49	227.52
917.79	227.50
918.09	227.53
918.39	227.58
918.70	227.57
919.00	227.58
919.30	227.68
919.60	227.69
919.91	227.66
920.21	227.66
920.51	227.63
920.81	227.63
921.12	227.66
921.42	227.66
921.72	227.68
922.02	227.69
922.32	227.71
922.63	227.71
922.93	227.80
923.23	227.81
923.53	227.80
923.83	227.68
924.13	227.71
924.44	227.70
924.74	227.71
925.04	227.74
925.34	227.73
925.64	227.65
925.94	227.64
926.24	227.76
926.55	227.75
926.85	227.78
927.15	227.76
927.45	227.75
927.75	227.75
928.05	227.76
928.35	227.76
928.65	227.79
928.95	227.81
929.26	227.73
929.56	227.76
929.86	227.78
930.16	227.76
930.46	227.73
930.76	227.74
931.06	227.65
931.36	227.59
931.66	227.62
931.96	227.64
932.26	227.65
932.56	227.57
932.86	227.58
933.16	227.56
933.46	227.55
933.76	227.53
934.06	227.55
934.36	227.61
934.66	227.59
934.96	227.57
935.26	227.57
935.56	227.61
935.86	227.56
936.16	227.52
936.46	227.52
936.76	227.51
937.06	227.49
937.36	227.51
937.66	227.53
937.96	227.52
938.26	227.48
938.56	227.46
938.86	227.47
939.16	227.51
939.46	227.52
939.76	227.53
940.06	227.53
940.35	227.51
940.65	227.41
940.95	227.43
941.25	227.38
941.55	227.36
941.85	227.34
942.15	227.38
942.45	227.45
942.75	227.45
943.04	227.45
943.34	227.48
943.64	227.46
943.94	227.44
944.24	227.44
944.54	227.47
944.84	227.46
945.13	227.43
945.43	227.39
945.73	227.39
946.03	227.37
946.33	227.35
946.62	227.32
946.92	227.32
947.22	227.32
947.52	227.33
947.82	227.34
948.11	227.31
948.41	227.27
948.71	227.22
949.01	227.23
949.31	227.22
949.60	227.21
949.90	227.23
950.20	227.22
950.50	227.21
950.79	227.18
951.09	227.21
951.39	227.20
951.69	227.19
951.98	227.22
952.28	227.23
952.58	227.23
952.87	227.24
953.17	227.26
953.47	227.24
953.76	227.25
954.06	227.22
954.36	227.21
954.66	227.19
954.95	227.25
955.25	227.26
955.55	227.27
955.84	227.25
956.14	227.26
956.44	227.28
956.73	227.26
957.03	227.27
957.32	227.28
957.62	227.28
957.92	227.31
958.21	227.29
958.51	227.49
958.81	227.52
959.10	227.55
959.40	227.59
959.69	227.60
959.99	227.63
960.29	227.63
960.58	227.63
960.88	227.72
961.17	227.69
961.47	227.70
961.76	227.68
962.06	227.73
962.36	227.70
962.65	227.72
962.95	227.74
963.24	227.73
963.54	227.73
963.83	227.75
964.13	227.75
964.42	227.73
964.72	227.59
965.01	227.59
965.31	227.57
965.60	227.53
965.90	227.64
966.19	227.60
966.49	227.61
966.78	227.60
967.08	227.58
967.37	227.58
967.67	227.55
967.96	227.59
968.26	227.58
968.55	227.61
968.85	227.59
969.14	227.58
969.43	227.58
969.73	227.56
970.02	227.55
970.32	227.53
970.61	227.51
970.91	227.46
971.20	227.43
971.49	227.42
971.79	227.45
972.08	227.32
972.38	227.35
972.67	227.35
972.96	227.37
973.26	227.33
973.55	227.39
973.85	227.39
974.14	227.35
974.43	227.38
974.73	227.34
975.02	227.33
975.31	227.33
975.61	227.33
975.90	227.32
976.19	227.31
976.49	227.33
976.78	227.35
977.07	227.36
977.37	227.37
977.66	227.38
977.95	227.35
978.24	227.38
978.54	227.41
978.83	227.39
979.12	227.38
979.42	227.38
979.71	227.34
980.00	227.34
980.29	227.36
980.59	227.32
980.88	227.36
981.17	227.36
981.46	227.35
981.76	227.35
982.05	227.40
982.34	227.42
982.63	227.42
982.93	227.40
983.22	227.44
983.51	227.46
983.80	227.48
984.09	227.50
984.39	227.49
984.68	227.46
984.97	227.47
985.26	227.47
985.55	227.49
985.85	227.46
986.14	227.48
986.43	227.50
986.72	227.49
987.01	227.45
987.30	227.45
987.59	227.45
987.89	227.45
988.18	227.40
988.47	227.38
988.76	227.35
989.05	227.34
989.34	227.31
989.63	227.35
989.92	227.32
990.22	227.29
990.51	227.28
990.80	227.27
991.09	227.28
991.38	227.29
991.67	227.27
991.96	227.26
992.25	227.25
992.54	227.22
992.83	227.21
993.12	227.21
993.41	227.23
993.70	227.30
993.99	227.33
994.28	227.35
994.58	227.38
994.87	227.37
995.16	227.37
995.45	227.36
995.74	227.29
996.03	227.31
996.32	227.35
996.61	227.39
996.90	227.39
997.19	227.38
997.48	227.39
997.77	227.37
998.06	227.39
998.34	227.37
998.63	227.37
998.92	227.38
999.21	227.41
999.50	227.41
999.79	227.35
1000.08	227.34
1000.37	227.34
1000.66	227.31
1000.95	227.36
1001.24	227.38
1001.53	227.40
1001.82	227.41
1002.11	227.38
1002.40	227.40
1002.68	227.43
1002.97	227.55
1003.26	227.53
1003.55	227.50
1003.84	227.52
1004.13	227.58
1004.42	227.57
1004.71	227.58
1004.99	227.56
1005.28	227.60
1005.57	227.60
1005.86	227.57
1006.15	227.55
1006.44	227.54
1006.72	227.56
1007.01	227.54
1007.30	227.55
1007.59	227.52
1007.88	227.53
1008.17	227.53
1008.45	227.49
1008.74	227.41
1009.03	227.33
1009.32	227.34
1009.60	227.34
1009.89	227.32
1010.18	227.25
1010.47	227.25
1010.76	227.24
1011.04	227.25
1011.33	227.23
1011.62	227.24
1011.91	227.26
1012.19	227.28
1012.48	227.27
1012.77	227.26
1013.05	227.32
1013.34	227.30
1013.63	227.29
1013.92	227.30
1014.20	227.28
1014.49	227.29
1014.78	227.30
1015.06	227.24
1015.35	227.25
1015.64	227.27
1015.92	227.31
1016.21	227.32
1016.50	227.32
1016.78	227.34
1017.07	227.34
1017.36	227.33
1017.64	227.30
1017.93	227.31
1018.22	227.29
1018.50	227.28
1018.79	227.28
1019.08	227.20
1019.36	227.22
1019.65	227.21
1019.93	227.25
1020.22	227.29
1020.51	227.37
1020.79	227.35
1021.08	226.78
1021.36	227.04
1021.65	227.22
1021.94	226.99
1022.22	227.39
1022.51	226.93
1022.79	228.05
1023.08	227.67
1023.36	229.24
1023.65	226.84
>>>>>End Processed Spectral Data<<<<<
