SpectraSuite Data File
++++++++++++++++++++++++++++++++++++
Date: Tue Oct 06 15:51:27 EDT 2015
User: lab3
Dark Spectrum Present: No
Reference Spectrum Present: No
Number of Sampled Component Spectra: 1
Spectrometers: USB2E7196
Integration Time (usec): 66000 (USB2E7196)
Spectra Averaged: 1000 (USB2E7196)
Boxcar Smoothing: 10 (USB2E7196)
Correct for Electrical Dark: No (USB2E7196)
Strobe/Lamp Enabled: No (USB2E7196)
Correct for Detector Non-linearity: No (USB2E7196)
Correct for Stray Light: No (USB2E7196)
Number of Pixels in Processed Spectrum: 2048
>>>>>Begin Processed Spectral Data<<<<<
339.09	0.00
339.48	215.72
339.86	217.32
340.24	218.65
340.63	219.98
341.01	223.91
341.39	222.70
341.78	224.32
342.16	225.60
342.54	225.89
342.93	214.23
343.31	225.05
343.69	225.60
344.07	226.06
344.46	226.50
344.84	226.91
345.22	227.11
345.60	227.38
345.99	227.58
346.37	227.72
346.75	227.83
347.13	227.91
347.52	227.99
347.90	228.12
348.28	228.17
348.66	228.26
349.05	228.25
349.43	228.32
349.81	228.39
350.19	228.46
350.57	228.54
350.96	228.63
351.34	228.74
351.72	228.84
352.10	228.96
352.48	229.03
352.87	229.09
353.25	229.16
353.63	229.22
354.01	229.28
354.39	229.35
354.77	229.43
355.15	229.56
355.54	229.60
355.92	229.61
356.30	229.68
356.68	229.85
357.06	229.93
357.44	229.97
357.82	230.03
358.20	230.24
358.58	230.30
358.97	230.37
359.35	230.47
359.73	230.57
360.11	230.61
360.49	230.68
360.87	230.73
361.25	230.81
361.63	230.91
362.01	230.96
362.39	231.00
362.77	231.05
363.15	231.08
363.53	231.12
363.91	231.17
364.29	231.20
364.67	231.05
365.05	231.08
365.43	231.12
365.81	231.16
366.19	231.13
366.57	231.20
366.95	231.20
367.33	231.15
367.71	231.15
368.09	231.18
368.47	231.17
368.85	231.16
369.23	231.18
369.61	231.11
369.99	231.15
370.37	231.16
370.75	231.28
371.13	231.24
371.51	231.18
371.89	231.18
372.27	231.16
372.65	231.15
373.03	231.11
373.41	231.07
373.78	231.02
374.16	230.88
374.54	230.79
374.92	230.74
375.30	230.69
375.68	230.60
376.06	230.56
376.44	230.51
376.82	230.47
377.19	230.43
377.57	230.37
377.95	230.26
378.33	230.20
378.71	229.99
379.09	229.95
379.47	229.93
379.84	229.85
380.22	229.78
380.60	229.70
380.98	229.65
381.36	229.60
381.73	229.52
382.11	229.51
382.49	229.46
382.87	229.40
383.25	229.37
383.62	229.54
384.00	229.47
384.38	229.43
384.76	229.42
385.13	229.43
385.51	229.40
385.89	229.35
386.27	229.32
386.64	229.31
387.02	229.27
387.40	229.22
387.78	229.21
388.15	229.21
388.53	229.19
388.91	229.15
389.29	229.12
389.66	229.13
390.04	229.10
390.42	229.11
390.79	229.12
391.17	229.11
391.55	228.90
391.92	228.91
392.30	228.93
392.68	228.88
393.05	228.86
393.43	228.87
393.81	228.89
394.18	228.87
394.56	228.89
394.94	228.94
395.31	228.95
395.69	229.02
396.06	229.06
396.44	229.10
396.82	229.14
397.19	229.27
397.57	229.28
397.95	229.36
398.32	229.37
398.70	229.44
399.07	229.53
399.45	229.59
399.82	229.65
400.20	229.71
400.58	229.80
400.95	229.82
401.33	229.94
401.70	230.17
402.08	230.31
402.45	230.43
402.83	230.60
403.20	230.76
403.58	230.89
403.95	231.10
404.33	231.32
404.71	231.54
405.08	231.85
405.46	232.10
405.83	232.37
406.21	232.67
406.58	232.99
406.96	233.30
407.33	233.69
407.70	234.11
408.08	234.68
408.45	235.18
408.83	235.72
409.20	236.22
409.58	236.68
409.95	237.31
410.33	237.98
410.70	238.63
411.08	239.38
411.45	240.19
411.82	241.01
412.20	241.93
412.57	243.04
412.95	243.93
413.32	245.09
413.69	246.27
414.07	247.53
414.44	248.90
414.82	250.31
415.19	251.94
415.56	253.61
415.94	255.36
416.31	257.32
416.68	259.30
417.06	261.57
417.43	263.71
417.81	266.15
418.18	268.66
418.55	271.40
418.93	274.24
419.30	277.21
419.67	280.36
420.04	283.59
420.42	286.99
420.79	290.87
421.16	294.82
421.54	298.80
421.91	302.98
422.28	307.34
422.66	312.02
423.03	316.48
423.40	321.16
423.77	326.15
424.15	331.26
424.52	336.57
424.89	342.31
425.26	347.99
425.64	353.30
426.01	359.25
426.38	365.29
426.75	371.54
427.13	377.91
427.50	384.61
427.87	391.55
428.24	398.56
428.61	405.28
428.99	412.50
429.36	420.44
429.73	428.02
430.10	435.57
430.47	443.28
430.85	451.27
431.22	459.78
431.59	468.50
431.96	477.04
432.33	486.50
432.70	495.50
433.08	506.18
433.45	516.23
433.82	526.15
434.19	537.29
434.56	548.25
434.93	558.91
435.30	569.44
435.68	581.43
436.05	593.10
436.42	604.80
436.79	615.50
437.16	627.11
437.53	639.51
437.90	651.94
438.27	664.19
438.64	677.36
439.01	689.30
439.38	700.32
439.75	710.93
440.13	723.04
440.50	734.57
440.87	743.75
441.24	753.87
441.61	764.93
441.98	773.10
442.35	782.83
442.72	792.69
443.09	802.07
443.46	808.19
443.83	812.86
444.20	816.73
444.57	822.33
444.94	825.64
445.31	829.09
445.68	832.00
446.05	834.19
446.42	833.88
446.79	833.34
447.16	832.87
447.53	832.50
447.90	828.93
448.27	825.49
448.64	820.09
449.01	816.36
449.37	808.69
449.74	801.74
450.11	792.69
450.48	782.79
450.85	772.90
451.22	764.35
451.59	755.94
451.96	748.32
452.33	737.29
452.70	727.51
453.07	715.63
453.43	703.82
453.80	692.22
454.17	681.18
454.54	670.96
454.91	659.42
455.28	648.52
455.65	638.26
456.02	627.41
456.38	618.72
456.75	607.55
457.12	598.52
457.49	589.42
457.86	580.84
458.23	573.26
458.59	564.91
458.96	556.34
459.33	548.80
459.70	541.16
460.07	535.32
460.43	528.44
460.80	521.98
461.17	516.35
461.54	510.32
461.91	504.63
462.27	498.89
462.64	494.17
463.01	488.77
463.38	483.31
463.74	478.42
464.11	474.05
464.48	470.11
464.85	465.88
465.21	462.60
465.58	458.97
465.95	454.87
466.32	451.59
466.68	448.36
467.05	445.13
467.42	441.98
467.78	438.61
468.15	435.50
468.52	433.25
468.88	430.25
469.25	427.52
469.62	425.33
469.98	422.94
470.35	420.82
470.72	418.92
471.08	417.00
471.45	415.34
471.82	413.52
472.18	411.61
472.55	410.37
472.92	408.86
473.28	407.66
473.65	406.39
474.02	405.17
474.38	404.17
474.75	403.56
475.11	402.71
475.48	402.31
475.85	401.89
476.21	401.63
476.58	401.45
476.94	401.62
477.31	401.68
477.67	401.79
478.04	402.10
478.41	402.55
478.77	403.15
479.14	403.55
479.50	404.37
479.87	405.40
480.23	406.38
480.60	407.31
480.96	408.29
481.33	409.72
481.69	411.15
482.06	412.56
482.42	413.85
482.79	415.49
483.15	417.39
483.52	419.53
483.88	421.56
484.25	423.71
484.61	425.97
484.98	428.41
485.34	431.15
485.71	434.00
486.07	437.05
486.44	440.07
486.80	443.48
487.17	446.96
487.53	450.72
487.90	454.69
488.26	459.03
488.62	463.57
488.99	468.12
489.35	472.86
489.72	477.98
490.08	483.36
490.44	488.85
490.81	494.58
491.17	500.46
491.54	506.78
491.90	513.23
492.26	520.12
492.63	527.33
492.99	534.87
493.36	542.59
493.72	550.66
494.08	558.93
494.45	567.61
494.81	576.63
495.17	585.95
495.54	595.76
495.90	605.98
496.26	616.39
496.63	627.08
496.99	638.19
497.35	649.79
497.72	661.68
498.08	673.90
498.44	686.42
498.80	699.63
499.17	713.14
499.53	727.13
499.89	741.53
500.26	756.09
500.62	770.99
500.98	786.71
501.34	802.50
501.71	819.09
502.07	835.91
502.43	853.22
502.79	870.70
503.16	888.68
503.52	906.84
503.88	925.45
504.24	944.51
504.60	963.78
504.97	983.63
505.33	1003.95
505.69	1025.24
506.05	1046.76
506.41	1068.13
506.78	1089.64
507.14	1111.76
507.50	1134.27
507.86	1157.17
508.22	1180.26
508.59	1203.17
508.95	1227.16
509.31	1251.55
509.67	1276.57
510.03	1301.48
510.39	1326.33
510.75	1351.21
511.12	1376.52
511.48	1401.84
511.84	1427.17
512.20	1452.77
512.56	1479.35
512.92	1505.71
513.28	1531.49
513.64	1557.59
514.00	1584.00
514.37	1610.69
514.73	1637.32
515.09	1663.25
515.45	1689.53
515.81	1715.81
516.17	1741.80
516.53	1767.13
516.89	1792.49
517.25	1818.02
517.61	1843.30
517.97	1869.18
518.33	1894.39
518.69	1919.35
519.05	1944.75
519.41	1970.24
519.77	1995.67
520.13	2019.68
520.49	2043.84
520.85	2068.28
521.21	2092.15
521.57	2116.25
521.93	2139.40
522.29	2163.07
522.65	2186.55
523.01	2209.71
523.37	2232.26
523.73	2255.56
524.09	2278.49
524.45	2300.75
524.81	2322.47
525.17	2343.90
525.53	2364.72
525.89	2385.87
526.25	2406.65
526.61	2425.90
526.97	2445.11
527.33	2464.10
527.68	2482.76
528.04	2500.98
528.40	2517.82
528.76	2534.96
529.12	2551.74
529.48	2568.80
529.84	2583.35
530.20	2598.32
530.56	2612.34
530.91	2626.60
531.27	2640.23
531.63	2652.89
531.99	2665.43
532.35	2677.43
532.71	2688.99
533.07	2700.83
533.42	2710.77
533.78	2721.09
534.14	2732.25
534.50	2742.29
534.86	2752.80
535.21	2761.36
535.57	2769.72
535.93	2777.98
536.29	2784.55
536.65	2790.79
537.00	2795.60
537.36	2801.69
537.72	2806.78
538.08	2811.23
538.44	2814.74
538.79	2818.00
539.15	2819.93
539.51	2821.22
539.87	2821.53
540.22	2820.36
540.58	2819.36
540.94	2819.40
541.29	2818.03
541.65	2815.28
542.01	2812.19
542.37	2807.70
542.72	2804.58
543.08	2799.91
543.44	2795.50
543.79	2790.41
544.15	2784.76
544.51	2779.47
544.87	2773.05
545.22	2765.79
545.58	2758.61
545.94	2751.52
546.29	2742.85
546.65	2734.56
547.01	2726.25
547.36	2718.21
547.72	2710.47
548.07	2700.97
548.43	2690.50
548.79	2679.82
549.14	2669.60
549.50	2659.43
549.86	2648.36
550.21	2635.76
550.57	2624.15
550.92	2610.91
551.28	2598.35
551.64	2585.95
551.99	2573.23
552.35	2560.12
552.70	2546.87
553.06	2534.04
553.41	2520.78
553.77	2507.30
554.13	2493.93
554.48	2479.61
554.84	2464.75
555.19	2450.37
555.55	2435.90
555.90	2421.69
556.26	2407.88
556.61	2392.90
556.97	2377.09
557.32	2361.73
557.68	2346.71
558.03	2331.39
558.39	2316.98
558.74	2303.02
559.10	2287.34
559.45	2272.17
559.81	2257.69
560.16	2242.87
560.52	2227.90
560.87	2212.99
561.23	2197.87
561.58	2183.11
561.94	2167.90
562.29	2152.30
562.64	2136.77
563.00	2121.48
563.35	2106.28
563.71	2090.79
564.06	2075.49
564.42	2060.73
564.77	2045.94
565.12	2031.04
565.48	2016.00
565.83	2001.23
566.19	1986.48
566.54	1972.06
566.89	1956.84
567.25	1941.49
567.60	1927.04
567.96	1911.71
568.31	1895.50
568.66	1880.23
569.02	1865.46
569.37	1851.22
569.72	1837.54
570.08	1823.45
570.43	1808.85
570.78	1794.13
571.14	1779.14
571.49	1764.31
571.84	1749.75
572.20	1734.21
572.55	1719.40
572.90	1704.64
573.26	1689.72
573.61	1674.24
573.96	1659.30
574.31	1644.24
574.67	1629.21
575.02	1613.80
575.37	1598.56
575.72	1583.89
576.08	1569.11
576.43	1553.79
576.78	1538.57
577.13	1523.52
577.49	1508.79
577.84	1494.42
578.19	1479.57
578.54	1464.90
578.90	1450.18
579.25	1435.38
579.60	1421.57
579.95	1407.52
580.30	1393.46
580.66	1379.17
581.01	1365.01
581.36	1350.98
581.71	1337.69
582.06	1324.30
582.42	1310.81
582.77	1297.85
583.12	1285.06
583.47	1272.10
583.82	1259.36
584.17	1246.32
584.53	1233.34
584.88	1220.56
585.23	1207.66
585.58	1195.21
585.93	1182.77
586.28	1171.14
586.63	1159.36
586.98	1147.33
587.34	1135.59
587.69	1123.73
588.04	1112.27
588.39	1101.02
588.74	1089.39
589.09	1077.93
589.44	1066.20
589.79	1055.05
590.14	1043.87
590.49	1032.85
590.84	1022.06
591.19	1011.49
591.54	1001.05
591.89	990.20
592.25	979.77
592.60	969.20
592.95	958.78
593.30	948.59
593.65	938.18
594.00	928.08
594.35	918.84
594.70	908.94
595.05	899.62
595.40	890.10
595.75	880.43
596.10	871.37
596.45	862.27
596.80	853.53
597.15	844.82
597.50	836.19
597.85	827.62
598.19	819.11
598.54	810.61
598.89	802.57
599.24	794.95
599.59	787.11
599.94	779.89
600.29	772.66
600.64	765.31
600.99	757.86
601.34	750.58
601.69	742.83
602.04	735.91
602.39	728.88
602.74	722.04
603.08	715.38
603.43	708.67
603.78	701.94
604.13	695.31
604.48	688.73
604.83	682.32
605.18	676.04
605.53	669.88
605.87	663.69
606.22	657.60
606.57	651.45
606.92	645.21
607.27	638.98
607.62	633.00
607.96	627.25
608.31	621.91
608.66	616.51
609.01	611.33
609.36	606.14
609.70	600.88
610.05	595.67
610.40	590.60
610.75	585.55
611.10	580.70
611.44	575.87
611.79	571.11
612.14	566.30
612.49	561.58
612.83	557.06
613.18	552.60
613.53	548.15
613.88	543.86
614.22	539.85
614.57	535.78
614.92	531.77
615.27	527.89
615.61	523.93
615.96	520.00
616.31	516.07
616.65	512.31
617.00	508.65
617.35	505.00
617.70	501.40
618.04	497.91
618.39	494.49
618.74	491.27
619.08	488.03
619.43	484.88
619.78	481.71
620.12	478.55
620.47	475.60
620.82	472.67
621.16	469.72
621.51	466.86
621.85	464.04
622.20	461.28
622.55	458.46
622.89	455.69
623.24	453.09
623.59	450.53
623.93	448.04
624.28	445.68
624.62	443.55
624.97	441.38
625.32	439.11
625.66	436.81
626.01	434.49
626.35	432.31
626.70	430.08
627.04	428.01
627.39	425.91
627.73	423.87
628.08	421.92
628.43	419.98
628.77	417.96
629.12	416.07
629.46	414.24
629.81	412.55
630.15	410.79
630.50	409.06
630.84	407.35
631.19	405.67
631.53	404.09
631.88	402.29
632.22	400.62
632.57	399.19
632.91	397.74
633.26	396.37
633.60	395.00
633.95	393.70
634.29	392.27
634.64	390.93
634.98	389.43
635.32	388.11
635.67	386.90
636.01	385.71
636.36	384.54
636.70	383.48
637.05	382.24
637.39	381.14
637.73	380.02
638.08	378.98
638.42	377.95
638.77	376.81
639.11	375.65
639.45	374.51
639.80	373.33
640.14	372.25
640.49	371.13
640.83	370.02
641.17	368.94
641.52	367.92
641.86	366.89
642.20	366.05
642.55	364.99
642.89	363.96
643.23	363.02
643.58	362.17
643.92	361.15
644.26	360.23
644.61	359.32
644.95	358.39
645.29	357.38
645.64	356.37
645.98	355.46
646.32	354.65
646.66	353.79
647.01	352.95
647.35	352.19
647.69	351.41
648.04	350.69
648.38	349.90
648.72	349.18
649.06	348.41
649.41	347.59
649.75	346.84
650.09	346.14
650.43	345.40
650.78	344.62
651.12	343.89
651.46	343.15
651.80	342.45
652.14	341.79
652.49	341.17
652.83	340.50
653.17	339.80
653.51	339.13
653.85	338.56
654.20	337.95
654.54	337.21
654.88	336.50
655.22	335.87
655.56	335.19
655.90	334.53
656.25	333.92
656.59	333.31
656.93	332.75
657.27	332.22
657.61	331.61
657.95	331.06
658.29	330.47
658.64	329.94
658.98	329.33
659.32	328.74
659.66	328.19
660.00	327.66
660.34	327.15
660.68	326.59
661.02	325.93
661.36	325.34
661.70	324.79
662.05	324.27
662.39	323.73
662.73	323.28
663.07	322.86
663.41	322.39
663.75	321.87
664.09	321.35
664.43	320.70
664.77	320.18
665.11	319.59
665.45	319.08
665.79	318.57
666.13	318.04
666.47	317.49
666.81	316.93
667.15	316.33
667.49	315.85
667.83	315.43
668.17	314.99
668.51	314.55
668.85	314.14
669.19	313.76
669.53	313.21
669.87	312.66
670.21	312.11
670.55	311.59
670.89	311.19
671.23	310.76
671.57	310.40
671.91	310.02
672.25	309.67
672.58	309.33
672.92	308.89
673.26	308.52
673.60	308.16
673.94	307.77
674.28	307.43
674.62	307.04
674.96	306.57
675.30	306.17
675.64	305.72
675.97	305.25
676.31	304.77
676.65	304.35
676.99	304.02
677.33	303.61
677.67	303.22
678.01	302.73
678.34	302.29
678.68	301.87
679.02	301.41
679.36	300.98
679.70	300.51
680.04	300.10
680.37	299.70
680.71	299.30
681.05	298.93
681.39	298.51
681.73	298.04
682.06	297.62
682.40	297.22
682.74	296.87
683.08	296.56
683.42	296.18
683.75	295.84
684.09	295.36
684.43	294.94
684.77	294.50
685.10	294.12
685.44	293.73
685.78	293.32
686.12	292.91
686.45	292.47
686.79	292.04
687.13	291.63
687.46	291.18
687.80	290.76
688.14	290.28
688.48	289.85
688.81	289.45
689.15	289.11
689.49	288.67
689.82	288.23
690.16	287.71
690.50	287.25
690.83	286.81
691.17	286.35
691.51	285.93
691.84	285.55
692.18	285.10
692.52	284.63
692.85	284.19
693.19	283.83
693.52	283.41
693.86	282.98
694.20	282.54
694.53	282.13
694.87	281.70
695.21	281.27
695.54	280.84
695.88	280.40
696.21	279.91
696.55	279.47
696.88	279.04
697.22	278.62
697.56	278.23
697.89	277.76
698.23	277.37
698.56	276.95
698.90	276.55
699.23	276.13
699.57	275.75
699.90	275.34
700.24	274.89
700.58	274.51
700.91	274.18
701.25	273.97
701.58	273.65
701.92	273.31
702.25	272.95
702.59	272.56
702.92	272.18
703.26	271.79
703.59	271.42
703.93	271.19
704.26	270.84
704.60	270.46
704.93	270.11
705.26	269.71
705.60	269.39
705.93	268.97
706.27	268.67
706.60	268.35
706.94	268.06
707.27	267.66
707.61	267.29
707.94	266.89
708.27	266.35
708.61	265.92
708.94	265.52
709.28	265.16
709.61	264.80
709.94	264.48
710.28	264.16
710.61	263.84
710.95	263.37
711.28	263.15
711.61	262.80
711.95	262.50
712.28	262.17
712.61	261.81
712.95	261.59
713.28	261.33
713.61	260.98
713.95	260.62
714.28	260.33
714.61	260.01
714.95	259.70
715.28	259.41
715.61	259.12
715.95	258.85
716.28	258.56
716.61	258.31
716.95	257.99
717.28	257.71
717.61	257.42
717.94	257.13
718.28	256.73
718.61	256.47
718.94	256.17
719.27	255.90
719.61	255.67
719.94	255.38
720.27	255.01
720.60	254.76
720.94	254.49
721.27	254.24
721.60	254.01
721.93	253.76
722.27	253.54
722.60	253.31
722.93	253.04
723.26	252.81
723.59	252.54
723.93	252.34
724.26	252.13
724.59	251.89
724.92	251.68
725.25	251.50
725.59	251.28
725.92	251.09
726.25	250.87
726.58	250.65
726.91	250.41
727.24	250.23
727.57	250.01
727.91	249.77
728.24	249.58
728.57	249.37
728.90	249.17
729.23	248.92
729.56	248.79
729.89	248.59
730.22	248.39
730.55	248.20
730.89	248.00
731.22	247.79
731.55	247.60
731.88	247.42
732.21	247.21
732.54	247.02
732.87	246.84
733.20	246.68
733.53	246.51
733.86	246.36
734.19	246.16
734.52	246.02
734.85	245.98
735.18	245.79
735.51	245.66
735.84	245.51
736.17	245.39
736.50	245.15
736.83	245.19
737.16	245.04
737.49	244.89
737.82	244.71
738.15	244.58
738.48	244.42
738.81	244.25
739.14	244.08
739.47	243.92
739.80	243.74
740.13	243.60
740.46	243.40
740.79	243.22
741.12	243.06
741.45	242.88
741.78	242.63
742.11	242.52
742.44	242.33
742.77	242.21
743.10	242.03
743.43	241.88
743.75	241.54
744.08	241.66
744.41	241.50
744.74	241.36
745.07	241.18
745.40	241.08
745.73	241.02
746.06	240.90
746.39	240.78
746.71	240.64
747.04	240.49
747.37	240.37
747.70	240.26
748.03	240.16
748.36	240.07
748.68	239.94
749.01	239.78
749.34	239.68
749.67	239.55
750.00	239.46
750.33	239.47
750.65	239.37
750.98	238.99
751.31	238.90
751.64	238.80
751.97	238.79
752.29	238.66
752.62	238.46
752.95	238.33
753.28	238.18
753.60	238.06
753.93	238.00
754.26	237.92
754.59	237.76
754.91	237.63
755.24	237.49
755.57	237.39
755.90	237.29
756.22	237.16
756.55	237.03
756.88	236.90
757.20	236.68
757.53	236.53
757.86	236.44
758.19	236.34
758.51	236.24
758.84	236.05
759.17	235.95
759.49	235.87
759.82	235.87
760.15	235.81
760.47	235.71
760.80	235.56
761.13	235.49
761.45	235.40
761.78	235.32
762.11	235.25
762.43	235.15
762.76	235.06
763.08	235.00
763.41	234.94
763.74	234.88
764.06	234.80
764.39	234.73
764.71	234.64
765.04	234.56
765.37	234.47
765.69	234.39
766.02	234.32
766.34	234.25
766.67	234.11
767.00	234.09
767.32	234.12
767.65	234.18
767.97	234.10
768.30	234.04
768.62	233.99
768.95	233.90
769.27	233.83
769.60	233.80
769.92	233.71
770.25	233.61
770.57	233.52
770.90	233.48
771.22	233.40
771.55	233.35
771.87	233.32
772.20	233.26
772.52	233.36
772.85	233.53
773.17	233.47
773.50	233.40
773.82	233.33
774.15	233.19
774.47	233.02
774.80	232.95
775.12	232.90
775.45	232.85
775.77	232.82
776.09	232.79
776.42	232.75
776.74	232.76
777.07	232.73
777.39	232.68
777.72	232.63
778.04	232.61
778.36	232.56
778.69	232.51
779.01	232.48
779.33	232.30
779.66	232.05
779.98	232.01
780.31	231.98
780.63	232.00
780.95	231.99
781.28	231.97
781.60	231.93
781.92	231.88
782.25	231.85
782.57	231.82
782.89	231.77
783.22	231.72
783.54	231.63
783.86	231.62
784.19	231.59
784.51	231.61
784.83	231.56
785.16	231.53
785.48	231.50
785.80	231.47
786.12	231.45
786.45	231.42
786.77	231.40
787.09	231.37
787.42	231.28
787.74	231.25
788.06	231.23
788.38	231.20
788.71	231.16
789.03	231.14
789.35	231.13
789.67	231.08
789.99	231.07
790.32	231.03
790.64	231.03
790.96	231.17
791.28	231.08
791.61	231.04
791.93	231.02
792.25	230.98
792.57	231.08
792.89	231.02
793.21	231.02
793.54	230.97
793.86	230.93
794.18	230.92
794.50	230.87
794.82	230.84
795.14	230.84
795.47	230.86
795.79	230.85
796.11	230.78
796.43	230.75
796.75	230.73
797.07	230.72
797.39	230.67
797.71	230.52
798.04	230.51
798.36	230.50
798.68	230.49
799.00	230.48
799.32	230.37
799.64	230.39
799.96	230.36
800.28	230.38
800.60	230.36
800.92	230.35
801.24	230.33
801.56	230.33
801.89	230.29
802.21	230.28
802.53	230.23
802.85	230.26
803.17	230.34
803.49	230.28
803.81	230.25
804.13	230.23
804.45	230.18
804.77	230.19
805.09	230.18
805.41	230.15
805.73	230.10
806.05	230.04
806.37	230.01
806.69	229.98
807.01	229.94
807.33	229.93
807.65	229.85
807.97	229.91
808.28	229.88
808.60	229.86
808.92	229.82
809.24	229.92
809.56	229.85
809.88	229.77
810.20	229.77
810.52	229.80
810.84	229.76
811.16	229.73
811.48	229.69
811.80	229.73
812.12	229.70
812.43	229.72
812.75	229.72
813.07	229.69
813.39	229.68
813.71	229.65
814.03	229.63
814.35	229.62
814.67	229.53
814.98	229.50
815.30	229.49
815.62	229.45
815.94	229.32
816.26	229.34
816.58	229.31
816.89	229.30
817.21	229.25
817.53	229.26
817.85	229.24
818.17	229.24
818.48	229.17
818.80	229.19
819.12	229.15
819.44	229.11
819.76	229.08
820.07	229.08
820.39	229.06
820.71	229.06
821.03	229.06
821.34	229.04
821.66	229.05
821.98	229.06
822.30	229.04
822.61	229.14
822.93	229.09
823.25	229.08
823.57	229.05
823.88	229.07
824.20	229.04
824.52	229.07
824.83	229.05
825.15	229.02
825.47	228.99
825.79	229.00
826.10	228.99
826.42	228.98
826.74	228.97
827.05	228.96
827.37	228.95
827.69	228.94
828.00	228.94
828.32	228.93
828.64	228.90
828.95	228.99
829.27	228.93
829.58	228.93
829.90	228.95
830.22	228.97
830.53	228.93
830.85	228.91
831.17	228.86
831.48	228.85
831.80	228.86
832.11	228.84
832.43	228.81
832.75	228.81
833.06	228.91
833.38	228.86
833.69	228.86
834.01	228.86
834.32	228.85
834.64	228.83
834.96	228.82
835.27	228.81
835.59	228.74
835.90	228.70
836.22	228.70
836.53	228.66
836.85	228.63
837.16	228.81
837.48	228.81
837.79	228.87
838.11	228.87
838.42	228.86
838.74	228.88
839.05	228.86
839.37	228.85
839.68	228.73
840.00	228.72
840.31	228.74
840.63	228.73
840.94	228.71
841.26	228.68
841.57	228.67
841.88	228.69
842.20	228.67
842.51	228.63
842.83	228.61
843.14	228.76
843.46	228.75
843.77	228.64
844.08	228.63
844.40	228.56
844.71	228.54
845.03	228.52
845.34	228.49
845.65	228.49
845.97	228.49
846.28	228.50
846.60	228.52
846.91	228.48
847.22	228.47
847.54	228.51
847.85	228.52
848.16	228.50
848.48	228.46
848.79	228.53
849.10	228.56
849.42	228.56
849.73	228.39
850.04	228.39
850.36	228.32
850.67	228.36
850.98	228.35
851.30	228.36
851.61	228.36
851.92	228.35
852.23	228.40
852.55	228.41
852.86	228.42
853.17	228.42
853.49	228.45
853.80	228.48
854.11	228.49
854.42	228.51
854.74	228.50
855.05	228.50
855.36	228.41
855.67	228.41
855.99	228.40
856.30	228.62
856.61	228.61
856.92	228.60
857.23	228.61
857.55	228.58
857.86	228.57
858.17	228.59
858.48	228.56
858.79	228.52
859.11	228.54
859.42	228.52
859.73	228.50
860.04	228.50
860.35	228.45
860.66	228.38
860.98	228.37
861.29	228.39
861.60	228.38
861.91	228.42
862.22	228.40
862.53	228.37
862.84	228.16
863.16	228.20
863.47	228.17
863.78	228.13
864.09	228.16
864.40	228.19
864.71	228.19
865.02	228.22
865.33	228.19
865.64	228.15
865.95	228.15
866.27	228.26
866.58	228.24
866.89	228.26
867.20	228.26
867.51	228.23
867.82	228.21
868.13	228.26
868.44	228.22
868.75	228.24
869.06	228.25
869.37	228.26
869.68	228.22
869.99	228.26
870.30	228.27
870.61	228.27
870.92	228.24
871.23	228.21
871.54	228.23
871.85	228.26
872.16	228.29
872.47	228.27
872.78	228.17
873.09	228.19
873.40	228.17
873.71	228.18
874.02	228.20
874.33	228.19
874.64	228.14
874.95	228.17
875.26	228.14
875.56	228.14
875.87	228.12
876.18	228.12
876.49	228.29
876.80	228.26
877.11	228.24
877.42	228.25
877.73	228.25
878.04	228.22
878.35	228.22
878.66	228.21
878.96	228.21
879.27	228.20
879.58	228.18
879.89	228.18
880.20	228.22
880.51	228.20
880.82	228.20
881.12	228.22
881.43	228.18
881.74	228.16
882.05	228.14
882.36	228.15
882.67	228.17
882.97	227.97
883.28	227.96
883.59	227.94
883.90	227.97
884.21	227.99
884.51	227.99
884.82	227.95
885.13	227.95
885.44	227.94
885.74	227.94
886.05	227.95
886.36	227.94
886.67	227.87
886.98	227.97
887.28	227.98
887.59	227.98
887.90	227.99
888.20	227.98
888.51	228.02
888.82	228.00
889.13	227.99
889.43	228.15
889.74	228.15
890.05	228.15
890.35	228.12
890.66	228.09
890.97	228.07
891.28	228.06
891.58	228.06
891.89	228.07
892.20	228.05
892.50	228.02
892.81	228.02
893.12	228.00
893.42	227.91
893.73	227.91
894.04	227.90
894.34	227.92
894.65	227.92
894.95	227.90
895.26	227.91
895.57	227.99
895.87	227.81
896.18	227.84
896.48	227.84
896.79	227.84
897.10	227.86
897.40	227.89
897.71	227.91
898.01	227.89
898.32	227.90
898.63	227.90
898.93	227.91
899.24	227.91
899.54	227.91
899.85	227.91
900.15	227.90
900.46	227.90
900.76	227.91
901.07	227.91
901.38	227.90
901.68	227.91
901.99	227.81
902.29	227.82
902.60	227.81
902.90	227.79
903.21	227.79
903.51	227.78
903.82	227.81
904.12	227.80
904.43	227.81
904.73	227.80
905.03	227.81
905.34	227.99
905.64	227.98
905.95	227.98
906.25	227.97
906.56	227.97
906.86	227.95
907.17	227.94
907.47	227.95
907.77	227.94
908.08	227.91
908.38	227.94
908.69	227.94
908.99	227.98
909.30	228.01
909.60	228.01
909.90	228.02
910.21	227.96
910.51	227.94
910.81	227.94
911.12	227.96
911.42	227.95
911.73	227.76
912.03	227.78
912.33	227.83
912.64	227.82
912.94	227.81
913.24	227.78
913.55	227.77
913.85	227.75
914.15	227.78
914.46	227.80
914.76	227.77
915.06	227.76
915.37	227.71
915.67	227.69
915.97	227.69
916.27	227.65
916.58	227.66
916.88	227.66
917.18	227.65
917.49	227.77
917.79	227.77
918.09	227.79
918.39	227.84
918.70	227.82
919.00	227.83
919.30	227.91
919.60	227.92
919.91	227.89
920.21	227.91
920.51	227.88
920.81	227.87
921.12	227.91
921.42	227.91
921.72	227.92
922.02	227.93
922.32	227.95
922.63	227.98
922.93	228.08
923.23	228.09
923.53	228.07
923.83	227.96
924.13	227.97
924.44	227.97
924.74	227.99
925.04	228.02
925.34	228.03
925.64	227.95
925.94	227.95
926.24	228.06
926.55	228.03
926.85	228.05
927.15	228.06
927.45	228.05
927.75	228.05
928.05	228.05
928.35	228.02
928.65	228.05
928.95	228.06
929.26	227.97
929.56	228.01
929.86	228.03
930.16	228.01
930.46	227.99
930.76	228.00
931.06	227.90
931.36	227.87
931.66	227.89
931.96	227.92
932.26	227.93
932.56	227.85
932.86	227.87
933.16	227.87
933.46	227.85
933.76	227.84
934.06	227.88
934.36	227.94
934.66	227.94
934.96	227.91
935.26	227.92
935.56	227.94
935.86	227.89
936.16	227.87
936.46	227.86
936.76	227.85
937.06	227.83
937.36	227.85
937.66	227.85
937.96	227.83
938.26	227.80
938.56	227.79
938.86	227.80
939.16	227.84
939.46	227.84
939.76	227.85
940.06	227.85
940.35	227.81
940.65	227.74
940.95	227.75
941.25	227.71
941.55	227.69
941.85	227.67
942.15	227.72
942.45	227.77
942.75	227.77
943.04	227.78
943.34	227.82
943.64	227.79
943.94	227.77
944.24	227.77
944.54	227.79
944.84	227.78
945.13	227.76
945.43	227.71
945.73	227.71
946.03	227.69
946.33	227.68
946.62	227.67
946.92	227.66
947.22	227.67
947.52	227.68
947.82	227.71
948.11	227.70
948.41	227.66
948.71	227.60
949.01	227.61
949.31	227.60
949.60	227.58
949.90	227.62
950.20	227.60
950.50	227.60
950.79	227.58
951.09	227.62
951.39	227.61
951.69	227.59
951.98	227.62
952.28	227.63
952.58	227.63
952.87	227.61
953.17	227.65
953.47	227.63
953.76	227.63
954.06	227.60
954.36	227.56
954.66	227.56
954.95	227.61
955.25	227.62
955.55	227.64
955.84	227.61
956.14	227.62
956.44	227.64
956.73	227.63
957.03	227.63
957.32	227.62
957.62	227.62
957.92	227.67
958.21	227.65
958.51	227.85
958.81	227.87
959.10	227.90
959.40	227.92
959.69	227.93
959.99	227.95
960.29	227.96
960.58	227.96
960.88	228.03
961.17	228.01
961.47	228.01
961.76	227.99
962.06	228.03
962.36	228.02
962.65	228.01
962.95	228.02
963.24	228.00
963.54	228.01
963.83	228.01
964.13	227.99
964.42	227.98
964.72	227.83
965.01	227.83
965.31	227.82
965.60	227.78
965.90	227.88
966.19	227.84
966.49	227.85
966.78	227.84
967.08	227.81
967.37	227.82
967.67	227.79
967.96	227.82
968.26	227.79
968.55	227.81
968.85	227.80
969.14	227.80
969.43	227.80
969.73	227.78
970.02	227.76
970.32	227.75
970.61	227.74
970.91	227.68
971.20	227.65
971.49	227.65
971.79	227.66
972.08	227.53
972.38	227.55
972.67	227.54
972.96	227.56
973.26	227.53
973.55	227.58
973.85	227.57
974.14	227.56
974.43	227.59
974.73	227.54
975.02	227.53
975.31	227.54
975.61	227.54
975.90	227.53
976.19	227.52
976.49	227.53
976.78	227.54
977.07	227.54
977.37	227.56
977.66	227.59
977.95	227.56
978.24	227.58
978.54	227.62
978.83	227.60
979.12	227.60
979.42	227.60
979.71	227.58
980.00	227.58
980.29	227.58
980.59	227.54
980.88	227.60
981.17	227.61
981.46	227.61
981.76	227.62
982.05	227.68
982.34	227.69
982.63	227.69
982.93	227.69
983.22	227.74
983.51	227.74
983.80	227.76
984.09	227.79
984.39	227.77
984.68	227.74
984.97	227.75
985.26	227.73
985.55	227.75
985.85	227.70
986.14	227.73
986.43	227.75
986.72	227.74
987.01	227.68
987.30	227.67
987.59	227.65
987.89	227.65
988.18	227.60
988.47	227.59
988.76	227.56
989.05	227.54
989.34	227.52
989.63	227.56
989.92	227.53
990.22	227.50
990.51	227.49
990.80	227.48
991.09	227.50
991.38	227.53
991.67	227.51
991.96	227.50
992.25	227.50
992.54	227.46
992.83	227.46
993.12	227.47
993.41	227.50
993.70	227.58
993.99	227.61
994.28	227.63
994.58	227.65
994.87	227.64
995.16	227.64
995.45	227.63
995.74	227.56
996.03	227.59
996.32	227.62
996.61	227.66
996.90	227.66
997.19	227.65
997.48	227.65
997.77	227.64
998.06	227.66
998.34	227.64
998.63	227.65
998.92	227.66
999.21	227.69
999.50	227.70
999.79	227.64
1000.08	227.64
1000.37	227.64
1000.66	227.63
1000.95	227.68
1001.24	227.69
1001.53	227.72
1001.82	227.72
1002.11	227.68
1002.40	227.70
1002.68	227.74
1002.97	227.87
1003.26	227.84
1003.55	227.81
1003.84	227.82
1004.13	227.88
1004.42	227.87
1004.71	227.86
1004.99	227.84
1005.28	227.87
1005.57	227.86
1005.86	227.83
1006.15	227.82
1006.44	227.79
1006.72	227.80
1007.01	227.77
1007.30	227.76
1007.59	227.74
1007.88	227.73
1008.17	227.75
1008.45	227.71
1008.74	227.64
1009.03	227.56
1009.32	227.57
1009.60	227.57
1009.89	227.56
1010.18	227.48
1010.47	227.47
1010.76	227.47
1011.04	227.46
1011.33	227.45
1011.62	227.46
1011.91	227.48
1012.19	227.49
1012.48	227.50
1012.77	227.50
1013.05	227.56
1013.34	227.56
1013.63	227.55
1013.92	227.56
1014.20	227.54
1014.49	227.54
1014.78	227.56
1015.06	227.50
1015.35	227.50
1015.64	227.53
1015.92	227.55
1016.21	227.57
1016.50	227.59
1016.78	227.61
1017.07	227.62
1017.36	227.59
1017.64	227.56
1017.93	227.57
1018.22	227.55
1018.50	227.54
1018.79	227.53
1019.08	227.47
1019.36	227.48
1019.65	227.47
1019.93	227.51
1020.22	227.55
1020.51	227.63
1020.79	227.61
1021.08	227.34
1021.36	227.19
1021.65	227.58
1021.94	227.44
1022.22	227.63
1022.51	227.25
1022.79	228.38
1023.08	227.85
1023.36	229.44
1023.65	227.21
>>>>>End Processed Spectral Data<<<<<
