SpectraSuite Data File
++++++++++++++++++++++++++++++++++++
Date: Tue Oct 06 14:42:03 EDT 2015
User: lab3
Dark Spectrum Present: No
Reference Spectrum Present: No
Number of Sampled Component Spectra: 1
Spectrometers: USB2E7196
Integration Time (usec): 66000 (USB2E7196)
Spectra Averaged: 1000 (USB2E7196)
Boxcar Smoothing: 10 (USB2E7196)
Correct for Electrical Dark: No (USB2E7196)
Strobe/Lamp Enabled: No (USB2E7196)
Correct for Detector Non-linearity: No (USB2E7196)
Correct for Stray Light: No (USB2E7196)
Number of Pixels in Processed Spectrum: 2048
>>>>>Begin Processed Spectral Data<<<<<
339.09	0.00
339.48	214.82
339.86	216.34
340.24	217.68
340.63	219.29
341.01	223.15
341.39	221.87
341.78	223.46
342.16	224.60
342.54	224.99
342.93	213.42
343.31	224.20
343.69	224.75
344.07	225.21
344.46	225.65
344.84	226.05
345.22	226.25
345.60	226.52
345.99	226.71
346.37	226.86
346.75	226.97
347.13	227.05
347.52	227.14
347.90	227.26
348.28	227.30
348.66	227.39
349.05	227.37
349.43	227.45
349.81	227.54
350.19	227.60
350.57	227.68
350.96	227.77
351.34	227.87
351.72	227.98
352.10	228.11
352.48	228.19
352.87	228.24
353.25	228.31
353.63	228.36
354.01	228.43
354.39	228.51
354.77	228.60
355.15	228.72
355.54	228.76
355.92	228.77
356.30	228.85
356.68	229.02
357.06	229.11
357.44	229.13
357.82	229.19
358.20	229.40
358.58	229.46
358.97	229.53
359.35	229.62
359.73	229.70
360.11	229.75
360.49	229.82
360.87	229.87
361.25	229.93
361.63	230.04
362.01	230.09
362.39	230.11
362.77	230.16
363.15	230.18
363.53	230.21
363.91	230.25
364.29	230.28
364.67	230.13
365.05	230.16
365.43	230.20
365.81	230.23
366.19	230.18
366.57	230.25
366.95	230.25
367.33	230.22
367.71	230.21
368.09	230.23
368.47	230.21
368.85	230.19
369.23	230.20
369.61	230.12
369.99	230.16
370.37	230.16
370.75	230.27
371.13	230.23
371.51	230.17
371.89	230.15
372.27	230.13
372.65	230.11
373.03	230.07
373.41	230.01
373.78	229.97
374.16	229.84
374.54	229.74
374.92	229.68
375.30	229.64
375.68	229.56
376.06	229.52
376.44	229.46
376.82	229.43
377.19	229.40
377.57	229.35
377.95	229.24
378.33	229.18
378.71	228.98
379.09	228.94
379.47	228.92
379.84	228.85
380.22	228.78
380.60	228.71
380.98	228.67
381.36	228.63
381.73	228.56
382.11	228.55
382.49	228.51
382.87	228.45
383.25	228.40
383.62	228.57
384.00	228.48
384.38	228.46
384.76	228.45
385.13	228.46
385.51	228.43
385.89	228.38
386.27	228.35
386.64	228.35
387.02	228.30
387.40	228.26
387.78	228.24
388.15	228.22
388.53	228.17
388.91	228.14
389.29	228.10
389.66	228.11
390.04	228.07
390.42	228.08
390.79	228.08
391.17	228.07
391.55	227.86
391.92	227.88
392.30	227.89
392.68	227.85
393.05	227.82
393.43	227.83
393.81	227.84
394.18	227.83
394.56	227.84
394.94	227.89
395.31	227.90
395.69	227.98
396.06	228.04
396.44	228.08
396.82	228.11
397.19	228.24
397.57	228.27
397.95	228.33
398.32	228.34
398.70	228.41
399.07	228.51
399.45	228.57
399.82	228.64
400.20	228.69
400.58	228.78
400.95	228.82
401.33	228.95
401.70	229.18
402.08	229.33
402.45	229.46
402.83	229.63
403.20	229.79
403.58	229.93
403.95	230.13
404.33	230.36
404.71	230.57
405.08	230.88
405.46	231.12
405.83	231.40
406.21	231.69
406.58	232.02
406.96	232.35
407.33	232.73
407.70	233.16
408.08	233.74
408.45	234.25
408.83	234.79
409.20	235.29
409.58	235.75
409.95	236.38
410.33	237.06
410.70	237.71
411.08	238.47
411.45	239.28
411.82	240.10
412.20	241.02
412.57	242.13
412.95	243.02
413.32	244.18
413.69	245.36
414.07	246.62
414.44	248.00
414.82	249.40
415.19	251.05
415.56	252.71
415.94	254.44
416.31	256.39
416.68	258.35
417.06	260.61
417.43	262.73
417.81	265.15
418.18	267.64
418.55	270.34
418.93	273.18
419.30	276.14
419.67	279.28
420.04	282.50
420.42	285.90
420.79	289.80
421.16	293.73
421.54	297.71
421.91	301.87
422.28	306.18
422.66	310.84
423.03	315.24
423.40	319.88
423.77	324.84
424.15	329.91
424.52	335.17
424.89	340.87
425.26	346.51
425.64	351.76
426.01	357.63
426.38	363.65
426.75	369.82
427.13	376.13
427.50	382.72
427.87	389.55
428.24	396.41
428.61	402.96
428.99	410.05
429.36	417.86
429.73	425.36
430.10	432.81
430.47	440.43
430.85	448.35
431.22	456.72
431.59	465.31
431.96	473.70
432.33	483.04
432.70	491.93
433.08	502.50
433.45	512.47
433.82	522.24
434.19	533.19
434.56	543.94
434.93	554.38
435.30	564.72
435.68	576.53
436.05	588.04
436.42	599.57
436.79	610.11
437.16	621.46
437.53	633.69
437.90	645.93
438.27	657.88
438.64	670.74
439.01	682.48
439.38	693.36
439.75	703.81
440.13	715.69
440.50	727.02
440.87	736.01
441.24	745.90
441.61	756.80
441.98	764.84
442.35	774.34
442.72	784.06
443.09	793.45
443.46	799.62
443.83	804.25
444.20	808.03
444.57	813.60
444.94	817.08
445.31	820.53
445.68	823.48
446.05	825.71
446.42	825.55
446.79	825.18
447.16	824.84
447.53	824.67
447.90	821.39
448.27	818.13
448.64	812.98
449.01	809.55
449.37	802.22
449.74	795.64
450.11	787.09
450.48	777.60
450.85	767.99
451.22	759.63
451.59	751.51
451.96	744.34
452.33	733.73
452.70	724.21
453.07	712.67
453.43	701.21
453.80	690.03
454.17	679.31
454.54	669.33
454.91	658.01
455.28	647.29
455.65	637.10
456.02	626.42
456.38	617.82
456.75	606.70
457.12	597.72
457.49	588.62
457.86	580.04
458.23	572.55
458.59	564.20
458.96	555.71
459.33	548.23
459.70	540.59
460.07	534.66
460.43	527.71
460.80	521.22
461.17	515.51
461.54	509.45
461.91	503.77
462.27	497.98
462.64	493.26
463.01	487.87
463.38	482.52
463.74	477.64
464.11	473.34
464.48	469.46
464.85	465.23
465.21	461.98
465.58	458.37
465.95	454.26
466.32	450.99
466.68	447.74
467.05	444.50
467.42	441.32
467.78	437.97
468.15	434.90
468.52	432.62
468.88	429.65
469.25	426.91
469.62	424.73
469.98	422.35
470.35	420.21
470.72	418.30
471.08	416.31
471.45	414.66
471.82	412.80
472.18	410.86
472.55	409.61
472.92	408.06
473.28	406.83
473.65	405.51
474.02	404.29
474.38	403.27
474.75	402.64
475.11	401.75
475.48	401.32
475.85	400.87
476.21	400.62
476.58	400.43
476.94	400.60
477.31	400.60
477.67	400.71
478.04	400.99
478.41	401.37
478.77	401.95
479.14	402.28
479.50	403.02
479.87	403.99
480.23	404.95
480.60	405.89
480.96	406.83
481.33	408.24
481.69	409.63
482.06	411.01
482.42	412.31
482.79	413.85
483.15	415.71
483.52	417.82
483.88	419.83
484.25	421.99
484.61	424.22
484.98	426.62
485.34	429.32
485.71	432.14
486.07	435.12
486.44	438.05
486.80	441.39
487.17	444.78
487.53	448.51
487.90	452.37
488.26	456.62
488.62	461.05
488.99	465.50
489.35	470.21
489.72	475.29
490.08	480.60
490.44	486.05
490.81	491.64
491.17	497.33
491.54	503.44
491.90	509.69
492.26	516.38
492.63	523.37
492.99	530.63
493.36	538.17
493.72	546.12
494.08	554.22
494.45	562.71
494.81	571.62
495.17	580.68
495.54	590.29
495.90	600.27
496.26	610.56
496.63	621.06
496.99	631.92
497.35	643.20
497.72	654.87
498.08	666.95
498.44	679.32
498.80	692.47
499.17	705.95
499.53	719.87
499.89	734.14
500.26	748.52
500.62	763.17
500.98	778.54
501.34	794.10
501.71	810.38
502.07	826.92
502.43	843.91
502.79	861.07
503.16	878.63
503.52	896.49
503.88	914.78
504.24	933.58
504.60	952.55
504.97	971.99
505.33	991.87
505.69	1012.73
506.05	1033.68
506.41	1054.50
506.78	1075.63
507.14	1097.52
507.50	1119.92
507.86	1142.75
508.22	1165.75
508.59	1188.55
508.95	1212.09
509.31	1236.10
509.67	1260.76
510.03	1285.40
510.39	1310.44
510.75	1335.50
511.12	1360.60
511.48	1385.70
511.84	1410.82
512.20	1436.38
512.56	1462.46
512.92	1488.25
513.28	1513.74
513.64	1539.64
514.00	1565.64
514.37	1591.85
514.73	1617.73
515.09	1643.10
515.45	1668.78
515.81	1694.54
516.17	1720.35
516.53	1745.55
516.89	1770.58
517.25	1795.74
517.61	1820.62
517.97	1845.67
518.33	1870.38
518.69	1895.02
519.05	1919.80
519.41	1944.49
519.77	1969.12
520.13	1993.37
520.49	2017.61
520.85	2041.81
521.21	2065.78
521.57	2089.99
521.93	2113.06
522.29	2136.76
522.65	2159.93
523.01	2182.80
523.37	2204.86
523.73	2227.32
524.09	2249.91
524.45	2272.64
524.81	2294.55
525.17	2316.25
525.53	2337.17
525.89	2358.42
526.25	2379.25
526.61	2399.04
526.97	2418.86
527.33	2438.42
527.68	2457.12
528.04	2475.16
528.40	2492.16
528.76	2509.74
529.12	2526.07
529.48	2542.85
529.84	2558.27
530.20	2574.91
530.56	2590.55
530.91	2606.09
531.27	2620.57
531.63	2633.98
531.99	2647.06
532.35	2658.62
532.71	2670.20
533.07	2682.19
533.42	2692.34
533.78	2703.36
534.14	2714.72
534.50	2724.82
534.86	2734.92
535.21	2743.09
535.57	2751.22
535.93	2759.78
536.29	2767.09
536.65	2774.78
537.00	2780.30
537.36	2786.11
537.72	2790.14
538.08	2793.88
538.44	2796.60
538.79	2799.74
539.15	2802.38
539.51	2804.45
539.87	2807.10
540.22	2807.73
540.58	2808.64
540.94	2809.54
541.29	2808.73
541.65	2806.44
542.01	2804.15
542.37	2800.88
542.72	2799.23
543.08	2796.40
543.44	2793.46
543.79	2788.73
544.15	2783.73
544.51	2779.74
544.87	2773.75
545.22	2767.22
545.58	2760.69
545.94	2755.06
546.29	2747.91
546.65	2739.97
547.01	2732.08
547.36	2723.93
547.72	2715.63
548.07	2706.19
548.43	2696.46
548.79	2685.76
549.14	2675.93
549.50	2666.05
549.86	2655.43
550.21	2643.00
550.57	2631.91
550.92	2618.98
551.28	2606.59
551.64	2594.60
551.99	2582.61
552.35	2570.85
552.70	2558.76
553.06	2547.12
553.41	2534.41
553.77	2521.17
554.13	2508.16
554.48	2494.45
554.84	2480.04
555.19	2466.61
555.55	2452.49
555.90	2438.52
556.26	2425.50
556.61	2411.78
556.97	2397.02
557.32	2382.58
557.68	2368.52
558.03	2353.73
558.39	2339.81
558.74	2326.35
559.10	2310.62
559.45	2295.24
559.81	2280.66
560.16	2265.72
560.52	2250.48
560.87	2235.97
561.23	2221.13
561.58	2206.64
561.94	2191.32
562.29	2176.20
562.64	2161.18
563.00	2146.10
563.35	2131.66
563.71	2117.00
564.06	2101.78
564.42	2087.13
564.77	2072.66
565.12	2058.43
565.48	2044.30
565.83	2029.71
566.19	2015.18
566.54	2001.28
566.89	1986.23
567.25	1970.63
567.60	1956.20
567.96	1941.28
568.31	1925.74
568.66	1910.93
569.02	1896.23
569.37	1881.67
569.72	1867.42
570.08	1852.84
570.43	1838.36
570.78	1823.06
571.14	1807.69
571.49	1792.81
571.84	1778.73
572.20	1763.41
572.55	1748.30
572.90	1732.57
573.26	1716.97
573.61	1701.05
573.96	1685.72
574.31	1671.10
574.67	1656.92
575.02	1642.00
575.37	1626.77
575.72	1611.45
576.08	1596.41
576.43	1581.42
576.78	1566.54
577.13	1551.76
577.49	1537.07
577.84	1522.25
578.19	1507.58
578.54	1493.00
578.90	1478.32
579.25	1463.11
579.60	1449.03
579.95	1434.89
580.30	1420.96
580.66	1407.09
581.01	1393.40
581.36	1379.61
581.71	1365.64
582.06	1351.75
582.42	1338.05
582.77	1324.65
583.12	1311.61
583.47	1298.43
583.82	1285.34
584.17	1272.34
584.53	1259.21
584.88	1246.52
585.23	1233.71
585.58	1221.21
585.93	1208.70
586.28	1196.79
586.63	1184.73
586.98	1172.54
587.34	1160.77
587.69	1148.73
588.04	1137.03
588.39	1125.45
588.74	1113.77
589.09	1102.52
589.44	1090.79
589.79	1079.57
590.14	1068.53
590.49	1057.48
590.84	1046.80
591.19	1036.21
591.54	1025.51
591.89	1014.71
592.25	1003.93
592.60	993.12
592.95	982.50
593.30	971.97
593.65	961.36
594.00	951.06
594.35	941.44
594.70	931.27
595.05	921.85
595.40	912.25
595.75	902.53
596.10	893.25
596.45	883.88
596.80	874.84
597.15	865.79
597.50	856.79
597.85	848.17
598.19	839.44
598.54	830.74
598.89	822.24
599.24	814.15
599.59	806.06
599.94	798.52
600.29	790.77
600.64	783.11
600.99	775.43
601.34	768.00
601.69	759.95
602.04	752.54
602.39	745.22
602.74	738.12
603.08	731.11
603.43	724.15
603.78	717.28
604.13	710.58
604.48	703.88
604.83	697.43
605.18	690.96
605.53	684.67
605.87	678.23
606.22	672.06
606.57	665.86
606.92	659.58
607.27	653.41
607.62	647.61
607.96	641.91
608.31	636.50
608.66	630.92
609.01	625.55
609.36	620.43
609.70	615.18
610.05	609.88
610.40	604.73
610.75	599.48
611.10	594.59
611.44	589.63
611.79	584.76
612.14	579.84
612.49	574.94
612.83	570.22
613.18	565.77
613.53	561.30
613.88	556.86
614.22	552.67
614.57	548.34
614.92	544.02
615.27	539.82
615.61	535.64
615.96	531.62
616.31	527.64
616.65	523.63
617.00	519.70
617.35	515.90
617.70	512.18
618.04	508.64
618.39	505.03
618.74	501.56
619.08	498.02
619.43	494.59
619.78	491.25
620.12	487.93
620.47	484.75
620.82	481.60
621.16	478.52
621.51	475.58
621.85	472.68
622.20	469.84
622.55	466.99
622.89	464.19
623.24	461.49
623.59	458.83
623.93	456.23
624.28	453.74
624.62	451.46
624.97	449.13
625.32	446.68
625.66	444.20
626.01	441.76
626.35	439.55
626.70	437.25
627.04	435.11
627.39	432.93
627.73	430.76
628.08	428.69
628.43	426.64
628.77	424.58
629.12	422.66
629.46	420.70
629.81	418.87
630.15	416.96
630.50	415.08
630.84	413.27
631.19	411.53
631.53	409.86
631.88	407.97
632.22	406.19
632.57	404.75
632.91	403.29
633.26	401.89
633.60	400.41
633.95	399.04
634.29	397.57
634.64	396.13
634.98	394.59
635.32	393.19
635.67	391.89
636.01	390.56
636.36	389.25
636.70	388.11
637.05	386.81
637.39	385.66
637.73	384.51
638.08	383.39
638.42	382.28
638.77	381.03
639.11	379.78
639.45	378.59
639.80	377.35
640.14	376.19
640.49	374.98
640.83	373.81
641.17	372.66
641.52	371.54
641.86	370.48
642.20	369.59
642.55	368.52
642.89	367.46
643.23	366.44
643.58	365.54
643.92	364.46
644.26	363.46
644.61	362.53
644.95	361.55
645.29	360.55
645.64	359.55
645.98	358.62
646.32	357.78
646.66	356.88
647.01	355.95
647.35	355.09
647.69	354.22
648.04	353.40
648.38	352.54
648.72	351.71
649.06	350.93
649.41	350.08
649.75	349.28
650.09	348.53
650.43	347.77
650.78	346.94
651.12	346.16
651.46	345.42
651.80	344.67
652.14	343.93
652.49	343.25
652.83	342.48
653.17	341.77
653.51	341.08
653.85	340.46
654.20	339.83
654.54	339.11
654.88	338.44
655.22	337.80
655.56	337.08
655.90	336.40
656.25	335.71
656.59	335.05
656.93	334.44
657.27	333.85
657.61	333.19
657.95	332.60
658.29	331.98
658.64	331.43
658.98	330.83
659.32	330.22
659.66	329.62
660.00	329.08
660.34	328.52
660.68	327.91
661.02	327.27
661.36	326.64
661.70	326.05
662.05	325.49
662.39	324.95
662.73	324.52
663.07	324.07
663.41	323.57
663.75	323.01
664.09	322.47
664.43	321.84
664.77	321.32
665.11	320.72
665.45	320.19
665.79	319.64
666.13	319.09
666.47	318.55
666.81	317.98
667.15	317.38
667.49	316.88
667.83	316.43
668.17	315.97
668.51	315.54
668.85	315.12
669.19	314.75
669.53	314.25
669.87	313.75
670.21	313.26
670.55	312.80
670.89	312.46
671.23	312.03
671.57	311.63
671.91	311.24
672.25	310.88
672.58	310.53
672.92	310.07
673.26	309.68
673.60	309.29
673.94	308.90
674.28	308.54
674.62	308.17
674.96	307.73
675.30	307.31
675.64	306.88
675.97	306.44
676.31	305.93
676.65	305.47
676.99	305.11
677.33	304.63
677.67	304.20
678.01	303.65
678.34	303.20
678.68	302.79
679.02	302.32
679.36	301.88
679.70	301.38
680.04	300.95
680.37	300.51
680.71	300.09
681.05	299.68
681.39	299.26
681.73	298.76
682.06	298.30
682.40	297.88
682.74	297.50
683.08	297.14
683.42	296.71
683.75	296.29
684.09	295.78
684.43	295.33
684.77	294.86
685.10	294.47
685.44	294.08
685.78	293.66
686.12	293.25
686.45	292.80
686.79	292.34
687.13	291.93
687.46	291.48
687.80	291.05
688.14	290.55
688.48	290.11
688.81	289.69
689.15	289.34
689.49	288.88
689.82	288.41
690.16	287.87
690.50	287.44
690.83	287.01
691.17	286.54
691.51	286.13
691.84	285.77
692.18	285.35
692.52	284.87
692.85	284.43
693.19	284.07
693.52	283.67
693.86	283.28
694.20	282.87
694.53	282.47
694.87	282.01
695.21	281.57
695.54	281.15
695.88	280.70
696.21	280.19
696.55	279.76
696.88	279.33
697.22	278.91
697.56	278.51
697.89	278.05
698.23	277.65
698.56	277.18
698.90	276.76
699.23	276.31
699.57	275.90
699.90	275.45
700.24	274.95
700.58	274.54
700.91	274.17
701.25	273.90
701.58	273.58
701.92	273.26
702.25	272.91
702.59	272.51
702.92	272.14
703.26	271.76
703.59	271.36
703.93	271.13
704.26	270.76
704.60	270.37
704.93	269.98
705.26	269.58
705.60	269.27
705.93	268.83
706.27	268.52
706.60	268.20
706.94	267.90
707.27	267.51
707.61	267.13
707.94	266.72
708.27	266.20
708.61	265.74
708.94	265.33
709.28	264.95
709.61	264.57
709.94	264.23
710.28	263.91
710.61	263.62
710.95	263.15
711.28	262.95
711.61	262.62
711.95	262.34
712.28	262.01
712.61	261.65
712.95	261.43
713.28	261.17
713.61	260.81
713.95	260.44
714.28	260.16
714.61	259.83
714.95	259.52
715.28	259.21
715.61	258.91
715.95	258.63
716.28	258.33
716.61	258.06
716.95	257.73
717.28	257.41
717.61	257.09
717.94	256.78
718.28	256.35
718.61	256.07
718.94	255.75
719.27	255.48
719.61	255.23
719.94	254.91
720.27	254.56
720.60	254.30
720.94	254.04
721.27	253.80
721.60	253.57
721.93	253.31
722.27	253.12
722.60	252.90
722.93	252.63
723.26	252.40
723.59	252.13
723.93	251.93
724.26	251.72
724.59	251.50
724.92	251.29
725.25	251.11
725.59	250.89
725.92	250.69
726.25	250.47
726.58	250.24
726.91	250.01
727.24	249.82
727.57	249.60
727.91	249.35
728.24	249.15
728.57	248.93
728.90	248.75
729.23	248.49
729.56	248.37
729.89	248.17
730.22	247.96
730.55	247.78
730.89	247.57
731.22	247.36
731.55	247.14
731.88	246.93
732.21	246.70
732.54	246.49
732.87	246.30
733.20	246.12
733.53	245.94
733.86	245.77
734.19	245.56
734.52	245.40
734.85	245.36
735.18	245.16
735.51	245.04
735.84	244.88
736.17	244.76
736.50	244.49
736.83	244.53
737.16	244.37
737.49	244.21
737.82	244.04
738.15	243.91
738.48	243.75
738.81	243.59
739.14	243.43
739.47	243.27
739.80	243.12
740.13	242.98
740.46	242.81
740.79	242.64
741.12	242.50
741.45	242.32
741.78	242.07
742.11	241.96
742.44	241.77
742.77	241.64
743.10	241.45
743.43	241.30
743.75	240.98
744.08	241.11
744.41	240.95
744.74	240.81
745.07	240.62
745.40	240.53
745.73	240.47
746.06	240.34
746.39	240.24
746.71	240.09
747.04	239.94
747.37	239.81
747.70	239.71
748.03	239.58
748.36	239.49
748.68	239.36
749.01	239.19
749.34	239.07
749.67	238.95
750.00	238.87
750.33	238.88
750.65	238.78
750.98	238.40
751.31	238.31
751.64	238.21
751.97	238.19
752.29	238.06
752.62	237.86
752.95	237.73
753.28	237.58
753.60	237.47
753.93	237.40
754.26	237.30
754.59	237.13
754.91	237.01
755.24	236.89
755.57	236.78
755.90	236.68
756.22	236.55
756.55	236.41
756.88	236.28
757.20	236.05
757.53	235.89
757.86	235.78
758.19	235.68
758.51	235.57
758.84	235.39
759.17	235.29
759.49	235.21
759.82	235.20
760.15	235.13
760.47	235.04
760.80	234.89
761.13	234.84
761.45	234.76
761.78	234.69
762.11	234.60
762.43	234.50
762.76	234.41
763.08	234.35
763.41	234.28
763.74	234.21
764.06	234.12
764.39	234.06
764.71	233.98
765.04	233.88
765.37	233.80
765.69	233.72
766.02	233.64
766.34	233.56
766.67	233.42
767.00	233.37
767.32	233.39
767.65	233.44
767.97	233.35
768.30	233.29
768.62	233.21
768.95	233.14
769.27	233.07
769.60	233.03
769.92	232.94
770.25	232.84
770.57	232.75
770.90	232.70
771.22	232.64
771.55	232.59
771.87	232.55
772.20	232.50
772.52	232.60
772.85	232.76
773.17	232.72
773.50	232.66
773.82	232.59
774.15	232.44
774.47	232.29
774.80	232.21
775.12	232.16
775.45	232.11
775.77	232.07
776.09	232.04
776.42	232.00
776.74	232.02
777.07	231.98
777.39	231.94
777.72	231.89
778.04	231.88
778.36	231.82
778.69	231.77
779.01	231.74
779.33	231.53
779.66	231.30
779.98	231.24
780.31	231.21
780.63	231.25
780.95	231.25
781.28	231.22
781.60	231.16
781.92	231.13
782.25	231.10
782.57	231.06
782.89	231.01
783.22	230.96
783.54	230.87
783.86	230.86
784.19	230.82
784.51	230.85
784.83	230.78
785.16	230.73
785.48	230.70
785.80	230.66
786.12	230.65
786.45	230.61
786.77	230.59
787.09	230.55
787.42	230.46
787.74	230.43
788.06	230.40
788.38	230.38
788.71	230.34
789.03	230.33
789.35	230.31
789.67	230.27
789.99	230.26
790.32	230.22
790.64	230.20
790.96	230.33
791.28	230.24
791.61	230.21
791.93	230.21
792.25	230.17
792.57	230.27
792.89	230.22
793.21	230.21
793.54	230.17
793.86	230.13
794.18	230.10
794.50	230.05
794.82	230.02
795.14	230.02
795.47	230.04
795.79	230.01
796.11	229.96
796.43	229.93
796.75	229.89
797.07	229.88
797.39	229.85
797.71	229.69
798.04	229.69
798.36	229.68
798.68	229.65
799.00	229.65
799.32	229.53
799.64	229.55
799.96	229.53
800.28	229.54
800.60	229.51
800.92	229.50
801.24	229.48
801.56	229.48
801.89	229.44
802.21	229.41
802.53	229.36
802.85	229.38
803.17	229.44
803.49	229.40
803.81	229.37
804.13	229.35
804.45	229.31
804.77	229.30
805.09	229.28
805.41	229.25
805.73	229.19
806.05	229.13
806.37	229.09
806.69	229.05
807.01	229.02
807.33	229.02
807.65	228.94
807.97	229.01
808.28	228.97
808.60	228.95
808.92	228.91
809.24	229.01
809.56	228.95
809.88	228.87
810.20	228.87
810.52	228.88
810.84	228.84
811.16	228.80
811.48	228.78
811.80	228.83
812.12	228.82
812.43	228.85
812.75	228.85
813.07	228.82
813.39	228.82
813.71	228.78
814.03	228.75
814.35	228.76
814.67	228.66
814.98	228.63
815.30	228.62
815.62	228.59
815.94	228.45
816.26	228.46
816.58	228.42
816.89	228.41
817.21	228.36
817.53	228.36
817.85	228.37
818.17	228.35
818.48	228.27
818.80	228.30
819.12	228.25
819.44	228.21
819.76	228.18
820.07	228.16
820.39	228.16
820.71	228.16
821.03	228.15
821.34	228.12
821.66	228.14
821.98	228.14
822.30	228.13
822.61	228.24
822.93	228.20
823.25	228.20
823.57	228.16
823.88	228.18
824.20	228.17
824.52	228.19
824.83	228.16
825.15	228.14
825.47	228.11
825.79	228.12
826.10	228.11
826.42	228.10
826.74	228.10
827.05	228.09
827.37	228.09
827.69	228.07
828.00	228.08
828.32	228.05
828.64	228.02
828.95	228.10
829.27	228.03
829.58	228.02
829.90	228.04
830.22	228.07
830.53	228.03
830.85	228.00
831.17	227.94
831.48	227.94
831.80	227.95
832.11	227.94
832.43	227.91
832.75	227.90
833.06	228.01
833.38	227.95
833.69	227.93
834.01	227.92
834.32	227.91
834.64	227.88
834.96	227.88
835.27	227.88
835.59	227.82
835.90	227.78
836.22	227.78
836.53	227.74
836.85	227.70
837.16	227.87
837.48	227.88
837.79	227.93
838.11	227.92
838.42	227.90
838.74	227.92
839.05	227.89
839.37	227.88
839.68	227.76
840.00	227.76
840.31	227.78
840.63	227.75
840.94	227.74
841.26	227.74
841.57	227.73
841.88	227.74
842.20	227.71
842.51	227.69
842.83	227.68
843.14	227.85
843.46	227.84
843.77	227.74
844.08	227.72
844.40	227.67
844.71	227.65
845.03	227.65
845.34	227.63
845.65	227.63
845.97	227.62
846.28	227.63
846.60	227.64
846.91	227.60
847.22	227.60
847.54	227.62
847.85	227.62
848.16	227.61
848.48	227.57
848.79	227.64
849.10	227.66
849.42	227.66
849.73	227.47
850.04	227.48
850.36	227.42
850.67	227.45
850.98	227.46
851.30	227.47
851.61	227.47
851.92	227.47
852.23	227.52
852.55	227.53
852.86	227.52
853.17	227.54
853.49	227.58
853.80	227.63
854.11	227.64
854.42	227.67
854.74	227.65
855.05	227.65
855.36	227.56
855.67	227.55
855.99	227.55
856.30	227.77
856.61	227.75
856.92	227.74
857.23	227.74
857.55	227.72
857.86	227.70
858.17	227.72
858.48	227.68
858.79	227.64
859.11	227.65
859.42	227.64
859.73	227.61
860.04	227.60
860.35	227.53
860.66	227.47
860.98	227.46
861.29	227.49
861.60	227.47
861.91	227.52
862.22	227.48
862.53	227.45
862.84	227.23
863.16	227.27
863.47	227.24
863.78	227.21
864.09	227.23
864.40	227.23
864.71	227.23
865.02	227.26
865.33	227.23
865.64	227.20
865.95	227.20
866.27	227.31
866.58	227.29
866.89	227.32
867.20	227.31
867.51	227.28
867.82	227.27
868.13	227.32
868.44	227.27
868.75	227.31
869.06	227.32
869.37	227.35
869.68	227.30
869.99	227.33
870.30	227.34
870.61	227.36
870.92	227.33
871.23	227.30
871.54	227.30
871.85	227.36
872.16	227.37
872.47	227.36
872.78	227.26
873.09	227.28
873.40	227.25
873.71	227.26
874.02	227.27
874.33	227.25
874.64	227.21
874.95	227.24
875.26	227.20
875.56	227.19
875.87	227.17
876.18	227.18
876.49	227.35
876.80	227.34
877.11	227.29
877.42	227.30
877.73	227.31
878.04	227.28
878.35	227.27
878.66	227.27
878.96	227.27
879.27	227.26
879.58	227.24
879.89	227.24
880.20	227.28
880.51	227.27
880.82	227.27
881.12	227.28
881.43	227.23
881.74	227.21
882.05	227.21
882.36	227.21
882.67	227.23
882.97	227.03
883.28	227.01
883.59	227.01
883.90	227.01
884.21	227.04
884.51	227.05
884.82	227.01
885.13	227.01
885.44	227.01
885.74	227.01
886.05	227.01
886.36	227.01
886.67	226.95
886.98	227.04
887.28	227.07
887.59	227.05
887.90	227.07
888.20	227.06
888.51	227.09
888.82	227.06
889.13	227.07
889.43	227.22
889.74	227.22
890.05	227.23
890.35	227.21
890.66	227.16
890.97	227.15
891.28	227.13
891.58	227.13
891.89	227.12
892.20	227.09
892.50	227.07
892.81	227.06
893.12	227.06
893.42	226.97
893.73	226.96
894.04	226.98
894.34	226.98
894.65	226.99
894.95	226.99
895.26	226.99
895.57	227.07
895.87	226.89
896.18	226.92
896.48	226.92
896.79	226.93
897.10	226.97
897.40	226.97
897.71	227.01
898.01	226.99
898.32	227.03
898.63	227.03
898.93	227.04
899.24	227.05
899.54	227.05
899.85	227.04
900.15	227.03
900.46	227.02
900.76	227.04
901.07	227.04
901.38	227.02
901.68	227.04
901.99	226.94
902.29	226.96
902.60	226.94
902.90	226.93
903.21	226.92
903.51	226.89
903.82	226.94
904.12	226.94
904.43	226.95
904.73	226.93
905.03	226.95
905.34	227.13
905.64	227.12
905.95	227.11
906.25	227.12
906.56	227.12
906.86	227.12
907.17	227.09
907.47	227.09
907.77	227.08
908.08	227.06
908.38	227.07
908.69	227.08
908.99	227.11
909.30	227.13
909.60	227.13
909.90	227.13
910.21	227.07
910.51	227.03
910.81	227.04
911.12	227.07
911.42	227.06
911.73	226.87
912.03	226.88
912.33	226.92
912.64	226.90
912.94	226.88
913.24	226.86
913.55	226.84
913.85	226.84
914.15	226.89
914.46	226.91
914.76	226.89
915.06	226.88
915.37	226.85
915.67	226.83
915.97	226.83
916.27	226.81
916.58	226.82
916.88	226.84
917.18	226.82
917.49	226.93
917.79	226.93
918.09	226.95
918.39	226.99
918.70	226.97
919.00	226.98
919.30	227.06
919.60	227.07
919.91	227.05
920.21	227.06
920.51	227.01
920.81	227.00
921.12	227.04
921.42	227.02
921.72	227.03
922.02	227.04
922.32	227.07
922.63	227.08
922.93	227.18
923.23	227.19
923.53	227.18
923.83	227.05
924.13	227.06
924.44	227.06
924.74	227.09
925.04	227.13
925.34	227.13
925.64	227.06
925.94	227.05
926.24	227.16
926.55	227.15
926.85	227.18
927.15	227.17
927.45	227.16
927.75	227.17
928.05	227.17
928.35	227.16
928.65	227.18
928.95	227.19
929.26	227.11
929.56	227.13
929.86	227.15
930.16	227.15
930.46	227.13
930.76	227.14
931.06	227.05
931.36	227.00
931.66	227.01
931.96	227.03
932.26	227.04
932.56	226.96
932.86	226.97
933.16	226.97
933.46	226.95
933.76	226.92
934.06	226.95
934.36	226.99
934.66	226.99
934.96	226.95
935.26	226.96
935.56	226.98
935.86	226.94
936.16	226.90
936.46	226.88
936.76	226.88
937.06	226.85
937.36	226.87
937.66	226.88
937.96	226.86
938.26	226.84
938.56	226.82
938.86	226.83
939.16	226.86
939.46	226.87
939.76	226.88
940.06	226.89
940.35	226.87
940.65	226.78
940.95	226.80
941.25	226.76
941.55	226.74
941.85	226.73
942.15	226.77
942.45	226.83
942.75	226.83
943.04	226.84
943.34	226.87
943.64	226.86
943.94	226.83
944.24	226.82
944.54	226.82
944.84	226.82
945.13	226.81
945.43	226.77
945.73	226.77
946.03	226.76
946.33	226.73
946.62	226.72
946.92	226.72
947.22	226.73
947.52	226.76
947.82	226.78
948.11	226.76
948.41	226.71
948.71	226.65
949.01	226.67
949.31	226.64
949.60	226.63
949.90	226.65
950.20	226.65
950.50	226.66
950.79	226.65
951.09	226.68
951.39	226.68
951.69	226.65
951.98	226.68
952.28	226.69
952.58	226.68
952.87	226.69
953.17	226.72
953.47	226.69
953.76	226.68
954.06	226.64
954.36	226.61
954.66	226.62
954.95	226.67
955.25	226.67
955.55	226.70
955.84	226.67
956.14	226.68
956.44	226.69
956.73	226.67
957.03	226.68
957.32	226.67
957.62	226.66
957.92	226.70
958.21	226.69
958.51	226.90
958.81	226.92
959.10	226.94
959.40	226.96
959.69	226.99
959.99	227.01
960.29	227.02
960.58	227.03
960.88	227.08
961.17	227.07
961.47	227.08
961.76	227.05
962.06	227.09
962.36	227.07
962.65	227.08
962.95	227.09
963.24	227.07
963.54	227.09
963.83	227.09
964.13	227.08
964.42	227.05
964.72	226.90
965.01	226.89
965.31	226.87
965.60	226.84
965.90	226.94
966.19	226.91
966.49	226.91
966.78	226.90
967.08	226.89
967.37	226.89
967.67	226.86
967.96	226.90
968.26	226.89
968.55	226.90
968.85	226.88
969.14	226.87
969.43	226.87
969.73	226.84
970.02	226.84
970.32	226.84
970.61	226.82
970.91	226.77
971.20	226.75
971.49	226.74
971.79	226.76
972.08	226.63
972.38	226.65
972.67	226.64
972.96	226.67
973.26	226.63
973.55	226.68
973.85	226.67
974.14	226.64
974.43	226.65
974.73	226.63
975.02	226.60
975.31	226.60
975.61	226.59
975.90	226.59
976.19	226.58
976.49	226.59
976.78	226.61
977.07	226.60
977.37	226.62
977.66	226.64
977.95	226.61
978.24	226.63
978.54	226.65
978.83	226.65
979.12	226.64
979.42	226.64
979.71	226.61
980.00	226.60
980.29	226.61
980.59	226.59
980.88	226.64
981.17	226.64
981.46	226.66
981.76	226.66
982.05	226.72
982.34	226.72
982.63	226.72
982.93	226.73
983.22	226.77
983.51	226.78
983.80	226.80
984.09	226.82
984.39	226.80
984.68	226.78
984.97	226.79
985.26	226.77
985.55	226.79
985.85	226.77
986.14	226.80
986.43	226.83
986.72	226.82
987.01	226.76
987.30	226.77
987.59	226.75
987.89	226.76
988.18	226.70
988.47	226.69
988.76	226.67
989.05	226.66
989.34	226.64
989.63	226.68
989.92	226.65
990.22	226.63
990.51	226.65
990.80	226.64
991.09	226.66
991.38	226.69
991.67	226.67
991.96	226.64
992.25	226.64
992.54	226.61
992.83	226.61
993.12	226.61
993.41	226.64
993.70	226.71
993.99	226.76
994.28	226.78
994.58	226.80
994.87	226.78
995.16	226.78
995.45	226.76
995.74	226.69
996.03	226.71
996.32	226.74
996.61	226.76
996.90	226.76
997.19	226.75
997.48	226.75
997.77	226.73
998.06	226.76
998.34	226.74
998.63	226.73
998.92	226.74
999.21	226.77
999.50	226.77
999.79	226.70
1000.08	226.67
1000.37	226.68
1000.66	226.66
1000.95	226.71
1001.24	226.72
1001.53	226.74
1001.82	226.75
1002.11	226.71
1002.40	226.72
1002.68	226.76
1002.97	226.89
1003.26	226.87
1003.55	226.84
1003.84	226.86
1004.13	226.90
1004.42	226.90
1004.71	226.90
1004.99	226.89
1005.28	226.93
1005.57	226.91
1005.86	226.90
1006.15	226.89
1006.44	226.85
1006.72	226.87
1007.01	226.84
1007.30	226.83
1007.59	226.81
1007.88	226.80
1008.17	226.81
1008.45	226.77
1008.74	226.69
1009.03	226.59
1009.32	226.61
1009.60	226.60
1009.89	226.57
1010.18	226.51
1010.47	226.51
1010.76	226.51
1011.04	226.50
1011.33	226.49
1011.62	226.50
1011.91	226.52
1012.19	226.53
1012.48	226.54
1012.77	226.55
1013.05	226.61
1013.34	226.61
1013.63	226.60
1013.92	226.62
1014.20	226.62
1014.49	226.62
1014.78	226.64
1015.06	226.59
1015.35	226.59
1015.64	226.61
1015.92	226.65
1016.21	226.65
1016.50	226.65
1016.78	226.67
1017.07	226.68
1017.36	226.66
1017.64	226.63
1017.93	226.65
1018.22	226.64
1018.50	226.64
1018.79	226.64
1019.08	226.57
1019.36	226.58
1019.65	226.58
1019.93	226.62
1020.22	226.65
1020.51	226.75
1020.79	226.73
1021.08	226.50
1021.36	226.41
1021.65	226.72
1021.94	226.42
1022.22	226.75
1022.51	226.39
1022.79	227.42
1023.08	227.08
1023.36	228.77
1023.65	226.24
>>>>>End Processed Spectral Data<<<<<
