SpectraSuite Data File
++++++++++++++++++++++++++++++++++++
Date: Tue Oct 06 15:45:49 EDT 2015
User: lab3
Dark Spectrum Present: No
Reference Spectrum Present: No
Number of Sampled Component Spectra: 1
Spectrometers: USB2E7196
Integration Time (usec): 66000 (USB2E7196)
Spectra Averaged: 1000 (USB2E7196)
Boxcar Smoothing: 10 (USB2E7196)
Correct for Electrical Dark: No (USB2E7196)
Strobe/Lamp Enabled: No (USB2E7196)
Correct for Detector Non-linearity: No (USB2E7196)
Correct for Stray Light: No (USB2E7196)
Number of Pixels in Processed Spectrum: 2048
>>>>>Begin Processed Spectral Data<<<<<
339.09	0.00
339.48	215.52
339.86	216.97
340.24	218.39
340.63	219.80
341.01	223.82
341.39	222.54
341.78	223.75
342.16	225.40
342.54	225.43
342.93	213.99
343.31	224.80
343.69	225.35
344.07	225.81
344.46	226.26
344.84	226.66
345.22	226.86
345.60	227.14
345.99	227.35
346.37	227.49
346.75	227.61
347.13	227.70
347.52	227.80
347.90	227.92
348.28	227.97
348.66	228.06
349.05	228.04
349.43	228.11
349.81	228.20
350.19	228.27
350.57	228.35
350.96	228.46
351.34	228.57
351.72	228.68
352.10	228.81
352.48	228.88
352.87	228.94
353.25	229.01
353.63	229.06
354.01	229.12
354.39	229.19
354.77	229.28
355.15	229.39
355.54	229.43
355.92	229.44
356.30	229.50
356.68	229.69
357.06	229.77
357.44	229.80
357.82	229.86
358.20	230.06
358.58	230.11
358.97	230.17
359.35	230.26
359.73	230.36
360.11	230.40
360.49	230.47
360.87	230.51
361.25	230.58
361.63	230.69
362.01	230.76
362.39	230.78
362.77	230.83
363.15	230.85
363.53	230.88
363.91	230.93
364.29	230.95
364.67	230.80
365.05	230.83
365.43	230.87
365.81	230.91
366.19	230.86
366.57	230.96
366.95	230.96
367.33	230.91
367.71	230.90
368.09	230.94
368.47	230.94
368.85	230.92
369.23	230.95
369.61	230.87
369.99	230.90
370.37	230.91
370.75	231.03
371.13	230.99
371.51	230.95
371.89	230.93
372.27	230.92
372.65	230.91
373.03	230.86
373.41	230.81
373.78	230.75
374.16	230.63
374.54	230.52
374.92	230.46
375.30	230.42
375.68	230.34
376.06	230.30
376.44	230.22
376.82	230.20
377.19	230.14
377.57	230.09
377.95	229.99
378.33	229.92
378.71	229.71
379.09	229.65
379.47	229.63
379.84	229.57
380.22	229.51
380.60	229.44
380.98	229.40
381.36	229.35
381.73	229.28
382.11	229.26
382.49	229.24
382.87	229.17
383.25	229.12
383.62	229.30
384.00	229.22
384.38	229.20
384.76	229.18
385.13	229.20
385.51	229.17
385.89	229.11
386.27	229.10
386.64	229.09
387.02	229.05
387.40	229.01
387.78	228.98
388.15	228.97
388.53	228.94
388.91	228.91
389.29	228.88
389.66	228.89
390.04	228.86
390.42	228.86
390.79	228.86
391.17	228.86
391.55	228.66
391.92	228.66
392.30	228.68
392.68	228.63
393.05	228.61
393.43	228.62
393.81	228.63
394.18	228.61
394.56	228.62
394.94	228.67
395.31	228.69
395.69	228.76
396.06	228.80
396.44	228.85
396.82	228.88
397.19	229.01
397.57	229.04
397.95	229.11
398.32	229.12
398.70	229.18
399.07	229.28
399.45	229.33
399.82	229.40
400.20	229.44
400.58	229.53
400.95	229.56
401.33	229.68
401.70	229.92
402.08	230.08
402.45	230.22
402.83	230.39
403.20	230.55
403.58	230.68
403.95	230.89
404.33	231.11
404.71	231.31
405.08	231.61
405.46	231.85
405.83	232.12
406.21	232.41
406.58	232.75
406.96	233.08
407.33	233.46
407.70	233.88
408.08	234.46
408.45	234.97
408.83	235.51
409.20	236.02
409.58	236.48
409.95	237.10
410.33	237.76
410.70	238.42
411.08	239.19
411.45	240.00
411.82	240.82
412.20	241.73
412.57	242.84
412.95	243.73
413.32	244.88
413.69	246.06
414.07	247.32
414.44	248.68
414.82	250.08
415.19	251.73
415.56	253.40
415.94	255.14
416.31	257.10
416.68	259.06
417.06	261.32
417.43	263.44
417.81	265.88
418.18	268.37
418.55	271.09
418.93	273.93
419.30	276.88
419.67	280.03
420.04	283.29
420.42	286.69
420.79	290.60
421.16	294.54
421.54	298.53
421.91	302.71
422.28	307.04
422.66	311.72
423.03	316.15
423.40	320.82
423.77	325.82
424.15	330.93
424.52	336.22
424.89	341.95
425.26	347.64
425.64	352.94
426.01	358.87
426.38	364.93
426.75	371.16
427.13	377.54
427.50	384.22
427.87	391.15
428.24	398.14
428.61	404.85
428.99	412.06
429.36	420.00
429.73	427.56
430.10	435.13
430.47	442.84
430.85	450.85
431.22	459.36
431.59	468.09
431.96	476.60
432.33	486.06
432.70	495.05
433.08	505.74
433.45	515.77
433.82	525.68
434.19	536.78
434.56	547.72
434.93	558.35
435.30	568.87
435.68	580.82
436.05	592.48
436.42	604.15
436.79	614.83
437.16	626.41
437.53	638.82
437.90	651.22
438.27	663.42
438.64	676.57
439.01	688.50
439.38	699.46
439.75	710.11
440.13	722.21
440.50	733.72
440.87	742.88
441.24	753.01
441.61	764.07
441.98	772.26
442.35	781.98
442.72	791.87
443.09	801.26
443.46	807.39
443.83	812.07
444.20	815.95
444.57	821.58
444.94	824.91
445.31	828.33
445.68	831.29
446.05	833.50
446.42	833.22
446.79	832.68
447.16	832.25
447.53	831.86
447.90	828.30
448.27	824.88
448.64	819.50
449.01	815.77
449.37	808.10
449.74	801.16
450.11	792.16
450.48	782.26
450.85	772.37
451.22	763.82
451.59	755.42
451.96	747.84
452.33	736.82
452.70	727.06
453.07	715.23
453.43	703.42
453.80	691.87
454.17	680.80
454.54	670.60
454.91	659.09
455.28	648.20
455.65	637.94
456.02	627.11
456.38	618.40
456.75	607.27
457.12	598.28
457.49	589.19
457.86	580.60
458.23	573.01
458.59	564.68
458.96	556.13
459.33	548.60
459.70	540.92
460.07	535.08
460.43	528.16
460.80	521.72
461.17	516.10
461.54	510.03
461.91	504.37
462.27	498.59
462.64	493.86
463.01	488.48
463.38	483.05
463.74	478.15
464.11	473.79
464.48	469.82
464.85	465.59
465.21	462.31
465.58	458.70
465.95	454.62
466.32	451.32
466.68	448.13
467.05	444.91
467.42	441.79
467.78	438.42
468.15	435.34
468.52	433.08
468.88	430.08
469.25	427.35
469.62	425.17
469.98	422.80
470.35	420.69
470.72	418.78
471.08	416.85
471.45	415.23
471.82	413.41
472.18	411.53
472.55	410.30
472.92	408.78
473.28	407.59
473.65	406.31
474.02	405.10
474.38	404.06
474.75	403.45
475.11	402.61
475.48	402.21
475.85	401.79
476.21	401.53
476.58	401.35
476.94	401.52
477.31	401.57
477.67	401.66
478.04	401.97
478.41	402.40
478.77	403.01
479.14	403.38
479.50	404.17
479.87	405.18
480.23	406.17
480.60	407.13
480.96	408.09
481.33	409.54
481.69	410.97
482.06	412.40
482.42	413.70
482.79	415.33
483.15	417.22
483.52	419.33
483.88	421.38
484.25	423.53
484.61	425.80
484.98	428.22
485.34	430.95
485.71	433.82
486.07	436.87
486.44	439.89
486.80	443.30
487.17	446.79
487.53	450.56
487.90	454.52
488.26	458.82
488.62	463.34
488.99	467.86
489.35	472.60
489.72	477.70
490.08	483.09
490.44	488.56
490.81	494.29
491.17	500.19
491.54	506.47
491.90	512.92
492.26	519.81
492.63	527.01
492.99	534.56
493.36	542.26
493.72	550.35
494.08	558.61
494.45	567.28
494.81	576.31
495.17	585.61
495.54	595.39
495.90	605.60
496.26	616.03
496.63	626.75
496.99	637.85
497.35	649.46
497.72	661.33
498.08	673.57
498.44	686.07
498.80	699.29
499.17	712.83
499.53	726.79
499.89	741.15
500.26	755.72
500.62	770.65
500.98	786.35
501.34	802.13
501.71	818.71
502.07	835.55
502.43	852.83
502.79	870.30
503.16	888.28
503.52	906.43
503.88	924.99
504.24	943.99
504.60	963.23
504.97	983.09
505.33	1003.34
505.69	1024.65
506.05	1046.14
506.41	1067.48
506.78	1088.96
507.14	1111.06
507.50	1133.58
507.86	1156.52
508.22	1179.56
508.59	1202.46
508.95	1226.42
509.31	1250.79
509.67	1275.76
510.03	1300.64
510.39	1325.48
510.75	1350.34
511.12	1375.62
511.48	1400.89
511.84	1426.20
512.20	1451.81
512.56	1478.34
512.92	1504.77
513.28	1530.53
513.64	1556.62
514.00	1582.99
514.37	1609.69
514.73	1636.28
515.09	1662.18
515.45	1688.39
515.81	1714.72
516.17	1740.72
516.53	1766.03
516.89	1791.34
517.25	1816.84
517.61	1842.17
517.97	1867.99
518.33	1893.15
518.69	1918.12
519.05	1943.54
519.41	1969.08
519.77	1994.45
520.13	2018.45
520.49	2042.54
520.85	2066.98
521.21	2090.82
521.57	2114.99
521.93	2138.09
522.29	2161.82
522.65	2185.33
523.01	2208.46
523.37	2230.96
523.73	2254.23
524.09	2277.15
524.45	2299.47
524.81	2321.19
525.17	2342.60
525.53	2363.47
525.89	2384.64
526.25	2405.43
526.61	2424.71
526.97	2443.85
527.33	2462.90
527.68	2481.58
528.04	2499.78
528.40	2516.58
528.76	2533.74
529.12	2550.43
529.48	2567.55
529.84	2582.07
530.20	2597.00
530.56	2611.07
530.91	2625.31
531.27	2638.92
531.63	2651.63
531.99	2664.07
532.35	2676.06
532.71	2687.65
533.07	2699.48
533.42	2709.48
533.78	2719.85
534.14	2731.00
534.50	2741.06
534.86	2751.56
535.21	2760.04
535.57	2768.37
535.93	2776.74
536.29	2783.32
536.65	2789.62
537.00	2794.40
537.36	2800.47
537.72	2805.53
538.08	2810.04
538.44	2813.60
538.79	2816.87
539.15	2818.76
539.51	2820.13
539.87	2820.45
540.22	2819.32
540.58	2818.38
540.94	2818.36
541.29	2816.93
541.65	2814.20
542.01	2811.13
542.37	2806.64
542.72	2803.55
543.08	2798.98
543.44	2794.50
543.79	2789.40
544.15	2783.78
544.51	2778.53
544.87	2772.12
545.22	2764.90
545.58	2757.65
545.94	2750.51
546.29	2741.87
546.65	2733.57
547.01	2725.28
547.36	2717.24
547.72	2709.45
548.07	2699.92
548.43	2689.50
548.79	2678.82
549.14	2668.55
549.50	2658.44
549.86	2647.40
550.21	2634.91
550.57	2623.28
550.92	2610.09
551.28	2597.54
551.64	2585.09
551.99	2572.35
552.35	2559.25
552.70	2546.01
553.06	2533.21
553.41	2519.98
553.77	2506.49
554.13	2493.16
554.48	2478.85
554.84	2464.06
555.19	2449.71
555.55	2435.17
555.90	2420.92
556.26	2407.18
556.61	2392.25
556.97	2376.37
557.32	2360.96
557.68	2345.90
558.03	2330.61
558.39	2316.21
558.74	2302.27
559.10	2286.66
559.45	2271.45
559.81	2257.01
560.16	2242.21
560.52	2227.26
560.87	2212.35
561.23	2197.25
561.58	2182.46
561.94	2167.29
562.29	2151.65
562.64	2136.13
563.00	2120.93
563.35	2105.85
563.71	2090.33
564.06	2075.05
564.42	2060.28
564.77	2045.52
565.12	2030.60
565.48	2015.56
565.83	2000.73
566.19	1985.99
566.54	1971.55
566.89	1956.40
567.25	1941.01
567.60	1926.52
567.96	1911.19
568.31	1894.98
568.66	1879.67
569.02	1864.92
569.37	1850.66
569.72	1836.99
570.08	1822.88
570.43	1808.24
570.78	1793.45
571.14	1778.49
571.49	1763.61
571.84	1749.11
572.20	1733.57
572.55	1718.75
572.90	1703.95
573.26	1689.07
573.61	1673.60
573.96	1658.64
574.31	1643.60
574.67	1628.64
575.02	1613.26
575.37	1598.03
575.72	1583.38
576.08	1568.65
576.43	1553.35
576.78	1538.10
577.13	1523.05
577.49	1508.30
577.84	1493.95
578.19	1479.13
578.54	1464.40
578.90	1449.73
579.25	1434.90
579.60	1421.11
579.95	1407.09
580.30	1393.03
580.66	1378.75
581.01	1364.59
581.36	1350.55
581.71	1337.23
582.06	1323.78
582.42	1310.27
582.77	1297.27
583.12	1284.48
583.47	1271.52
583.82	1258.79
584.17	1245.77
584.53	1232.83
584.88	1220.07
585.23	1207.18
585.58	1194.70
585.93	1182.24
586.28	1170.62
586.63	1158.84
586.98	1146.80
587.34	1135.08
587.69	1123.20
588.04	1111.76
588.39	1100.51
588.74	1088.86
589.09	1077.40
589.44	1065.70
589.79	1054.55
590.14	1043.42
590.49	1032.39
590.84	1021.58
591.19	1011.02
591.54	1000.57
591.89	989.71
592.25	979.30
592.60	968.74
592.95	958.35
593.30	948.21
593.65	937.83
594.00	927.75
594.35	918.50
594.70	908.62
595.05	899.32
595.40	889.75
595.75	880.09
596.10	871.07
596.45	861.99
596.80	853.25
597.15	844.56
597.50	835.87
597.85	827.35
598.19	818.84
598.54	810.34
598.89	802.28
599.24	794.63
599.59	786.80
599.94	779.57
600.29	772.32
600.64	764.96
600.99	757.50
601.34	750.23
601.69	742.49
602.04	735.55
602.39	728.55
602.74	721.73
603.08	715.06
603.43	708.34
603.78	701.61
604.13	694.99
604.48	688.42
604.83	682.05
605.18	675.76
605.53	669.61
605.87	663.42
606.22	657.33
606.57	651.20
606.92	644.97
607.27	638.77
607.62	632.80
607.96	627.07
608.31	621.70
608.66	616.33
609.01	611.16
609.36	605.97
609.70	600.71
610.05	595.51
610.40	590.45
610.75	585.40
611.10	580.59
611.44	575.74
611.79	570.98
612.14	566.16
612.49	561.42
612.83	556.91
613.18	552.45
613.53	548.02
613.88	543.72
614.22	539.73
614.57	535.65
614.92	531.64
615.27	527.75
615.61	523.82
615.96	519.87
616.31	515.95
616.65	512.18
617.00	508.50
617.35	504.85
617.70	501.23
618.04	497.71
618.39	494.26
618.74	491.05
619.08	487.83
619.43	484.67
619.78	481.49
620.12	478.34
620.47	475.38
620.82	472.43
621.16	469.51
621.51	466.64
621.85	463.80
622.20	461.04
622.55	458.21
622.89	455.44
623.24	452.84
623.59	450.29
623.93	447.82
624.28	445.47
624.62	443.35
624.97	441.20
625.32	438.94
625.66	436.64
626.01	434.32
626.35	432.15
626.70	429.92
627.04	427.84
627.39	425.74
627.73	423.72
628.08	421.79
628.43	419.84
628.77	417.81
629.12	415.92
629.46	414.10
629.81	412.41
630.15	410.63
630.50	408.85
630.84	407.15
631.19	405.45
631.53	403.84
631.88	402.03
632.22	400.34
632.57	398.92
632.91	397.47
633.26	396.09
633.60	394.69
633.95	393.40
634.29	392.01
634.64	390.64
634.98	389.14
635.32	387.79
635.67	386.59
636.01	385.40
636.36	384.22
636.70	383.14
637.05	381.89
637.39	380.79
637.73	379.71
638.08	378.67
638.42	377.66
638.77	376.53
639.11	375.39
639.45	374.26
639.80	373.08
640.14	371.98
640.49	370.89
640.83	369.77
641.17	368.68
641.52	367.64
641.86	366.62
642.20	365.79
642.55	364.75
642.89	363.72
643.23	362.76
643.58	361.93
643.92	360.92
644.26	359.99
644.61	359.11
644.95	358.16
645.29	357.16
645.64	356.14
645.98	355.23
646.32	354.42
646.66	353.56
647.01	352.73
647.35	351.97
647.69	351.17
648.04	350.47
648.38	349.72
648.72	348.98
649.06	348.21
649.41	347.38
649.75	346.65
650.09	345.93
650.43	345.18
650.78	344.40
651.12	343.67
651.46	342.95
651.80	342.24
652.14	341.60
652.49	341.00
652.83	340.32
653.17	339.62
653.51	338.97
653.85	338.39
654.20	337.76
654.54	337.02
654.88	336.32
655.22	335.69
655.56	334.99
655.90	334.33
656.25	333.73
656.59	333.14
656.93	332.56
657.27	332.02
657.61	331.41
657.95	330.85
658.29	330.28
658.64	329.72
658.98	329.12
659.32	328.53
659.66	327.98
660.00	327.46
660.34	326.94
660.68	326.34
661.02	325.71
661.36	325.13
661.70	324.60
662.05	324.07
662.39	323.52
662.73	323.07
663.07	322.67
663.41	322.20
663.75	321.66
664.09	321.14
664.43	320.52
664.77	320.02
665.11	319.43
665.45	318.90
665.79	318.40
666.13	317.86
666.47	317.31
666.81	316.74
667.15	316.14
667.49	315.67
667.83	315.24
668.17	314.79
668.51	314.36
668.85	313.94
669.19	313.58
669.53	313.05
669.87	312.50
670.21	311.95
670.55	311.43
670.89	311.05
671.23	310.62
671.57	310.24
671.91	309.88
672.25	309.55
672.58	309.22
672.92	308.76
673.26	308.41
673.60	308.03
673.94	307.66
674.28	307.31
674.62	306.92
674.96	306.49
675.30	306.07
675.64	305.62
675.97	305.16
676.31	304.66
676.65	304.23
676.99	303.90
677.33	303.46
677.67	303.06
678.01	302.56
678.34	302.12
678.68	301.70
679.02	301.24
679.36	300.79
679.70	300.33
680.04	299.93
680.37	299.53
680.71	299.13
681.05	298.75
681.39	298.32
681.73	297.85
682.06	297.40
682.40	297.01
682.74	296.65
683.08	296.35
683.42	295.97
683.75	295.62
684.09	295.15
684.43	294.76
684.77	294.33
685.10	293.95
685.44	293.56
685.78	293.15
686.12	292.74
686.45	292.33
686.79	291.87
687.13	291.47
687.46	291.01
687.80	290.60
688.14	290.11
688.48	289.70
688.81	289.29
689.15	288.96
689.49	288.52
689.82	288.08
690.16	287.54
690.50	287.08
690.83	286.64
691.17	286.19
691.51	285.76
691.84	285.39
692.18	284.95
692.52	284.48
692.85	284.04
693.19	283.68
693.52	283.25
693.86	282.85
694.20	282.41
694.53	282.01
694.87	281.55
695.21	281.14
695.54	280.72
695.88	280.27
696.21	279.78
696.55	279.35
696.88	278.92
697.22	278.52
697.56	278.12
697.89	277.67
698.23	277.27
698.56	276.84
698.90	276.43
699.23	276.00
699.57	275.62
699.90	275.21
700.24	274.75
700.58	274.36
700.91	274.01
701.25	273.78
701.58	273.46
701.92	273.14
702.25	272.78
702.59	272.37
702.92	272.00
703.26	271.62
703.59	271.24
703.93	271.00
704.26	270.63
704.60	270.26
704.93	269.88
705.26	269.49
705.60	269.16
705.93	268.76
706.27	268.45
706.60	268.13
706.94	267.83
707.27	267.45
707.61	267.08
707.94	266.68
708.27	266.15
708.61	265.72
708.94	265.32
709.28	264.96
709.61	264.60
709.94	264.29
710.28	263.97
710.61	263.66
710.95	263.17
711.28	262.95
711.61	262.61
711.95	262.32
712.28	261.99
712.61	261.63
712.95	261.40
713.28	261.13
713.61	260.77
713.95	260.41
714.28	260.11
714.61	259.78
714.95	259.48
715.28	259.18
715.61	258.90
715.95	258.63
716.28	258.32
716.61	258.07
716.95	257.75
717.28	257.47
717.61	257.16
717.94	256.89
718.28	256.49
718.61	256.21
718.94	255.90
719.27	255.65
719.61	255.41
719.94	255.10
720.27	254.74
720.60	254.49
720.94	254.22
721.27	253.97
721.60	253.74
721.93	253.47
722.27	253.27
722.60	253.03
722.93	252.76
723.26	252.54
723.59	252.26
723.93	252.05
724.26	251.83
724.59	251.59
724.92	251.39
725.25	251.22
725.59	251.01
725.92	250.82
726.25	250.60
726.58	250.38
726.91	250.16
727.24	249.97
727.57	249.75
727.91	249.52
728.24	249.34
728.57	249.12
728.90	248.93
729.23	248.67
729.56	248.55
729.89	248.35
730.22	248.14
730.55	247.95
730.89	247.74
731.22	247.54
731.55	247.35
731.88	247.16
732.21	246.93
732.54	246.73
732.87	246.55
733.20	246.37
733.53	246.20
733.86	246.04
734.19	245.85
734.52	245.71
734.85	245.67
735.18	245.47
735.51	245.36
735.84	245.22
736.17	245.11
736.50	244.86
736.83	244.91
737.16	244.76
737.49	244.61
737.82	244.44
738.15	244.30
738.48	244.14
738.81	243.97
739.14	243.80
739.47	243.64
739.80	243.48
740.13	243.34
740.46	243.16
740.79	242.96
741.12	242.81
741.45	242.61
741.78	242.36
742.11	242.25
742.44	242.05
742.77	241.91
743.10	241.73
743.43	241.58
743.75	241.24
744.08	241.35
744.41	241.18
744.74	241.04
745.07	240.88
745.40	240.78
745.73	240.72
746.06	240.59
746.39	240.48
746.71	240.34
747.04	240.19
747.37	240.05
747.70	239.95
748.03	239.84
748.36	239.76
748.68	239.62
749.01	239.47
749.34	239.36
749.67	239.24
750.00	239.16
750.33	239.17
750.65	239.07
750.98	238.70
751.31	238.62
751.64	238.52
751.97	238.51
752.29	238.38
752.62	238.19
752.95	238.08
753.28	237.95
753.60	237.83
753.93	237.78
754.26	237.71
754.59	237.56
754.91	237.43
755.24	237.30
755.57	237.22
755.90	237.11
756.22	236.98
756.55	236.85
756.88	236.71
757.20	236.48
757.53	236.34
757.86	236.25
758.19	236.15
758.51	236.06
758.84	235.88
759.17	235.77
759.49	235.70
759.82	235.70
760.15	235.62
760.47	235.54
760.80	235.39
761.13	235.32
761.45	235.25
761.78	235.17
762.11	235.09
762.43	234.99
762.76	234.92
763.08	234.87
763.41	234.82
763.74	234.75
764.06	234.68
764.39	234.62
764.71	234.53
765.04	234.45
765.37	234.36
765.69	234.29
766.02	234.21
766.34	234.14
766.67	233.99
767.00	233.94
767.32	233.98
767.65	234.03
767.97	233.94
768.30	233.89
768.62	233.82
768.95	233.73
769.27	233.66
769.60	233.61
769.92	233.52
770.25	233.42
770.57	233.33
770.90	233.26
771.22	233.18
771.55	233.14
771.87	233.09
772.20	233.01
772.52	233.11
772.85	233.27
773.17	233.21
773.50	233.16
773.82	233.08
774.15	232.93
774.47	232.77
774.80	232.71
775.12	232.66
775.45	232.62
775.77	232.59
776.09	232.56
776.42	232.52
776.74	232.54
777.07	232.49
777.39	232.45
777.72	232.40
778.04	232.38
778.36	232.33
778.69	232.29
779.01	232.27
779.33	232.08
779.66	231.83
779.98	231.79
780.31	231.75
780.63	231.80
780.95	231.79
781.28	231.76
781.60	231.71
781.92	231.68
782.25	231.63
782.57	231.59
782.89	231.54
783.22	231.50
783.54	231.41
783.86	231.41
784.19	231.37
784.51	231.39
784.83	231.33
785.16	231.30
785.48	231.27
785.80	231.24
786.12	231.23
786.45	231.20
786.77	231.19
787.09	231.14
787.42	231.04
787.74	231.01
788.06	230.99
788.38	230.95
788.71	230.90
789.03	230.90
789.35	230.90
789.67	230.85
789.99	230.84
790.32	230.81
790.64	230.79
790.96	230.94
791.28	230.85
791.61	230.82
791.93	230.80
792.25	230.76
792.57	230.86
792.89	230.80
793.21	230.78
793.54	230.74
793.86	230.70
794.18	230.69
794.50	230.65
794.82	230.62
795.14	230.61
795.47	230.62
795.79	230.59
796.11	230.53
796.43	230.51
796.75	230.47
797.07	230.45
797.39	230.43
797.71	230.24
798.04	230.24
798.36	230.22
798.68	230.20
799.00	230.20
799.32	230.09
799.64	230.11
799.96	230.09
800.28	230.12
800.60	230.09
800.92	230.08
801.24	230.05
801.56	230.05
801.89	230.02
802.21	230.01
802.53	229.96
802.85	229.99
803.17	230.05
803.49	229.99
803.81	229.97
804.13	229.93
804.45	229.91
804.77	229.90
805.09	229.89
805.41	229.85
805.73	229.80
806.05	229.74
806.37	229.71
806.69	229.68
807.01	229.64
807.33	229.64
807.65	229.56
807.97	229.63
808.28	229.59
808.60	229.57
808.92	229.52
809.24	229.62
809.56	229.57
809.88	229.49
810.20	229.50
810.52	229.52
810.84	229.49
811.16	229.45
811.48	229.43
811.80	229.48
812.12	229.47
812.43	229.49
812.75	229.49
813.07	229.46
813.39	229.45
813.71	229.42
814.03	229.38
814.35	229.39
814.67	229.30
814.98	229.28
815.30	229.26
815.62	229.24
815.94	229.11
816.26	229.11
816.58	229.08
816.89	229.07
817.21	229.01
817.53	229.00
817.85	229.00
818.17	228.98
818.48	228.90
818.80	228.92
819.12	228.88
819.44	228.84
819.76	228.82
820.07	228.80
820.39	228.79
820.71	228.80
821.03	228.81
821.34	228.79
821.66	228.80
821.98	228.81
822.30	228.79
822.61	228.89
822.93	228.85
823.25	228.85
823.57	228.82
823.88	228.84
824.20	228.83
824.52	228.85
824.83	228.85
825.15	228.82
825.47	228.80
825.79	228.80
826.10	228.79
826.42	228.79
826.74	228.79
827.05	228.77
827.37	228.76
827.69	228.72
828.00	228.71
828.32	228.70
828.64	228.68
828.95	228.77
829.27	228.70
829.58	228.69
829.90	228.71
830.22	228.72
830.53	228.69
830.85	228.67
831.17	228.61
831.48	228.60
831.80	228.59
832.11	228.57
832.43	228.53
832.75	228.53
833.06	228.64
833.38	228.59
833.69	228.58
834.01	228.59
834.32	228.59
834.64	228.57
834.96	228.57
835.27	228.56
835.59	228.49
835.90	228.46
836.22	228.45
836.53	228.41
836.85	228.37
837.16	228.55
837.48	228.55
837.79	228.62
838.11	228.61
838.42	228.61
838.74	228.63
839.05	228.62
839.37	228.61
839.68	228.48
840.00	228.48
840.31	228.50
840.63	228.47
840.94	228.45
841.26	228.43
841.57	228.43
841.88	228.44
842.20	228.41
842.51	228.39
842.83	228.39
843.14	228.56
843.46	228.56
843.77	228.45
844.08	228.44
844.40	228.39
844.71	228.36
845.03	228.34
845.34	228.32
845.65	228.33
845.97	228.33
846.28	228.34
846.60	228.34
846.91	228.32
847.22	228.31
847.54	228.36
847.85	228.36
848.16	228.33
848.48	228.29
848.79	228.36
849.10	228.38
849.42	228.38
849.73	228.19
850.04	228.19
850.36	228.13
850.67	228.16
850.98	228.16
851.30	228.19
851.61	228.19
851.92	228.19
852.23	228.24
852.55	228.25
852.86	228.26
853.17	228.27
853.49	228.30
853.80	228.34
854.11	228.35
854.42	228.36
854.74	228.36
855.05	228.38
855.36	228.28
855.67	228.28
855.99	228.28
856.30	228.51
856.61	228.50
856.92	228.50
857.23	228.51
857.55	228.48
857.86	228.46
858.17	228.48
858.48	228.44
858.79	228.40
859.11	228.41
859.42	228.39
859.73	228.37
860.04	228.36
860.35	228.31
860.66	228.25
860.98	228.24
861.29	228.25
861.60	228.23
861.91	228.28
862.22	228.25
862.53	228.21
862.84	228.00
863.16	228.03
863.47	228.00
863.78	227.96
864.09	227.98
864.40	227.99
864.71	227.99
865.02	228.00
865.33	227.98
865.64	227.94
865.95	227.93
866.27	228.04
866.58	228.02
866.89	228.03
867.20	228.02
867.51	227.99
867.82	227.97
868.13	228.03
868.44	227.98
868.75	228.01
869.06	228.02
869.37	228.04
869.68	228.00
869.99	228.03
870.30	228.04
870.61	228.04
870.92	228.01
871.23	227.98
871.54	228.01
871.85	228.05
872.16	228.08
872.47	228.06
872.78	227.96
873.09	227.98
873.40	227.97
873.71	227.98
874.02	228.00
874.33	227.99
874.64	227.94
874.95	227.97
875.26	227.93
875.56	227.93
875.87	227.91
876.18	227.91
876.49	228.08
876.80	228.06
877.11	228.03
877.42	228.04
877.73	228.04
878.04	228.01
878.35	228.01
878.66	228.01
878.96	228.01
879.27	228.00
879.58	227.98
879.89	227.97
880.20	228.03
880.51	228.01
880.82	228.01
881.12	228.02
881.43	227.98
881.74	227.96
882.05	227.96
882.36	227.96
882.67	227.97
882.97	227.78
883.28	227.77
883.59	227.77
883.90	227.78
884.21	227.80
884.51	227.80
884.82	227.77
885.13	227.77
885.44	227.77
885.74	227.78
886.05	227.78
886.36	227.78
886.67	227.70
886.98	227.80
887.28	227.82
887.59	227.83
887.90	227.83
888.20	227.82
888.51	227.85
888.82	227.84
889.13	227.84
889.43	228.00
889.74	227.98
890.05	227.98
890.35	227.97
890.66	227.93
890.97	227.91
891.28	227.90
891.58	227.91
891.89	227.90
892.20	227.87
892.50	227.85
892.81	227.85
893.12	227.85
893.42	227.75
893.73	227.75
894.04	227.74
894.34	227.75
894.65	227.75
894.95	227.73
895.26	227.73
895.57	227.81
895.87	227.63
896.18	227.67
896.48	227.68
896.79	227.68
897.10	227.71
897.40	227.72
897.71	227.74
898.01	227.72
898.32	227.76
898.63	227.76
898.93	227.77
899.24	227.77
899.54	227.76
899.85	227.76
900.15	227.76
900.46	227.76
900.76	227.77
901.07	227.77
901.38	227.77
901.68	227.78
901.99	227.70
902.29	227.72
902.60	227.70
902.90	227.69
903.21	227.68
903.51	227.66
903.82	227.69
904.12	227.68
904.43	227.68
904.73	227.67
905.03	227.67
905.34	227.84
905.64	227.84
905.95	227.84
906.25	227.83
906.56	227.82
906.86	227.81
907.17	227.78
907.47	227.79
907.77	227.77
908.08	227.74
908.38	227.75
908.69	227.76
908.99	227.79
909.30	227.80
909.60	227.80
909.90	227.80
910.21	227.76
910.51	227.74
910.81	227.73
911.12	227.74
911.42	227.75
911.73	227.56
912.03	227.57
912.33	227.62
912.64	227.61
912.94	227.59
913.24	227.57
913.55	227.56
913.85	227.54
914.15	227.58
914.46	227.62
914.76	227.59
915.06	227.58
915.37	227.55
915.67	227.53
915.97	227.53
916.27	227.51
916.58	227.51
916.88	227.51
917.18	227.50
917.49	227.61
917.79	227.61
918.09	227.64
918.39	227.68
918.70	227.67
919.00	227.67
919.30	227.76
919.60	227.75
919.91	227.73
920.21	227.76
920.51	227.72
920.81	227.70
921.12	227.73
921.42	227.73
921.72	227.74
922.02	227.76
922.32	227.78
922.63	227.79
922.93	227.90
923.23	227.91
923.53	227.91
923.83	227.79
924.13	227.79
924.44	227.79
924.74	227.81
925.04	227.84
925.34	227.85
925.64	227.77
925.94	227.78
926.24	227.88
926.55	227.86
926.85	227.88
927.15	227.88
927.45	227.87
927.75	227.87
928.05	227.87
928.35	227.85
928.65	227.87
928.95	227.87
929.26	227.78
929.56	227.81
929.86	227.81
930.16	227.80
930.46	227.78
930.76	227.78
931.06	227.71
931.36	227.66
931.66	227.68
931.96	227.71
932.26	227.71
932.56	227.63
932.86	227.65
933.16	227.65
933.46	227.62
933.76	227.58
934.06	227.61
934.36	227.66
934.66	227.65
934.96	227.64
935.26	227.66
935.56	227.68
935.86	227.64
936.16	227.62
936.46	227.61
936.76	227.62
937.06	227.60
937.36	227.61
937.66	227.61
937.96	227.60
938.26	227.56
938.56	227.55
938.86	227.55
939.16	227.59
939.46	227.60
939.76	227.61
940.06	227.62
940.35	227.59
940.65	227.50
940.95	227.51
941.25	227.46
941.55	227.43
941.85	227.42
942.15	227.47
942.45	227.52
942.75	227.53
943.04	227.52
943.34	227.56
943.64	227.54
943.94	227.52
944.24	227.53
944.54	227.55
944.84	227.54
945.13	227.52
945.43	227.48
945.73	227.48
946.03	227.47
946.33	227.45
946.62	227.45
946.92	227.45
947.22	227.45
947.52	227.47
947.82	227.49
948.11	227.46
948.41	227.42
948.71	227.37
949.01	227.37
949.31	227.35
949.60	227.32
949.90	227.35
950.20	227.34
950.50	227.33
950.79	227.31
951.09	227.34
951.39	227.35
951.69	227.32
951.98	227.34
952.28	227.35
952.58	227.36
952.87	227.34
953.17	227.37
953.47	227.34
953.76	227.34
954.06	227.30
954.36	227.28
954.66	227.28
954.95	227.33
955.25	227.34
955.55	227.35
955.84	227.33
956.14	227.34
956.44	227.35
956.73	227.32
957.03	227.32
957.32	227.32
957.62	227.30
957.92	227.33
958.21	227.31
958.51	227.51
958.81	227.53
959.10	227.56
959.40	227.59
959.69	227.62
959.99	227.64
960.29	227.65
960.58	227.65
960.88	227.72
961.17	227.69
961.47	227.70
961.76	227.69
962.06	227.72
962.36	227.70
962.65	227.71
962.95	227.74
963.24	227.72
963.54	227.72
963.83	227.74
964.13	227.73
964.42	227.71
964.72	227.56
965.01	227.57
965.31	227.55
965.60	227.50
965.90	227.61
966.19	227.56
966.49	227.58
966.78	227.57
967.08	227.54
967.37	227.55
967.67	227.51
967.96	227.53
968.26	227.52
968.55	227.55
968.85	227.55
969.14	227.55
969.43	227.55
969.73	227.53
970.02	227.52
970.32	227.50
970.61	227.49
970.91	227.44
971.20	227.41
971.49	227.39
971.79	227.41
972.08	227.29
972.38	227.31
972.67	227.30
972.96	227.33
973.26	227.29
973.55	227.34
973.85	227.33
974.14	227.31
974.43	227.32
974.73	227.28
975.02	227.27
975.31	227.27
975.61	227.27
975.90	227.25
976.19	227.24
976.49	227.26
976.78	227.28
977.07	227.27
977.37	227.30
977.66	227.32
977.95	227.29
978.24	227.30
978.54	227.34
978.83	227.32
979.12	227.31
979.42	227.31
979.71	227.28
980.00	227.29
980.29	227.31
980.59	227.28
980.88	227.33
981.17	227.33
981.46	227.33
981.76	227.33
982.05	227.39
982.34	227.41
982.63	227.41
982.93	227.41
983.22	227.46
983.51	227.46
983.80	227.48
984.09	227.52
984.39	227.50
984.68	227.47
984.97	227.49
985.26	227.48
985.55	227.51
985.85	227.47
986.14	227.50
986.43	227.52
986.72	227.51
987.01	227.45
987.30	227.46
987.59	227.45
987.89	227.45
988.18	227.40
988.47	227.38
988.76	227.37
989.05	227.35
989.34	227.32
989.63	227.36
989.92	227.33
990.22	227.29
990.51	227.29
990.80	227.28
991.09	227.28
991.38	227.30
991.67	227.28
991.96	227.26
992.25	227.25
992.54	227.20
992.83	227.21
993.12	227.21
993.41	227.23
993.70	227.31
993.99	227.34
994.28	227.36
994.58	227.39
994.87	227.38
995.16	227.37
995.45	227.36
995.74	227.30
996.03	227.33
996.32	227.36
996.61	227.39
996.90	227.39
997.19	227.38
997.48	227.39
997.77	227.37
998.06	227.38
998.34	227.36
998.63	227.38
998.92	227.39
999.21	227.42
999.50	227.42
999.79	227.35
1000.08	227.36
1000.37	227.37
1000.66	227.33
1000.95	227.38
1001.24	227.40
1001.53	227.42
1001.82	227.42
1002.11	227.38
1002.40	227.40
1002.68	227.44
1002.97	227.56
1003.26	227.54
1003.55	227.51
1003.84	227.53
1004.13	227.60
1004.42	227.59
1004.71	227.59
1004.99	227.57
1005.28	227.60
1005.57	227.59
1005.86	227.59
1006.15	227.56
1006.44	227.52
1006.72	227.55
1007.01	227.52
1007.30	227.52
1007.59	227.50
1007.88	227.50
1008.17	227.51
1008.45	227.48
1008.74	227.41
1009.03	227.33
1009.32	227.34
1009.60	227.34
1009.89	227.33
1010.18	227.26
1010.47	227.26
1010.76	227.25
1011.04	227.25
1011.33	227.25
1011.62	227.26
1011.91	227.26
1012.19	227.27
1012.48	227.30
1012.77	227.30
1013.05	227.36
1013.34	227.35
1013.63	227.34
1013.92	227.36
1014.20	227.35
1014.49	227.35
1014.78	227.37
1015.06	227.31
1015.35	227.31
1015.64	227.34
1015.92	227.37
1016.21	227.39
1016.50	227.39
1016.78	227.41
1017.07	227.43
1017.36	227.40
1017.64	227.38
1017.93	227.39
1018.22	227.37
1018.50	227.36
1018.79	227.36
1019.08	227.29
1019.36	227.31
1019.65	227.30
1019.93	227.34
1020.22	227.37
1020.51	227.47
1020.79	227.45
1021.08	227.10
1021.36	227.03
1021.65	227.48
1021.94	227.27
1022.22	227.45
1022.51	227.03
1022.79	228.22
1023.08	227.63
1023.36	229.48
1023.65	227.00
>>>>>End Processed Spectral Data<<<<<
