SpectraSuite Data File
++++++++++++++++++++++++++++++++++++
Date: Tue Oct 06 12:31:23 EDT 2015
User: lab3
Dark Spectrum Present: No
Reference Spectrum Present: No
Number of Sampled Component Spectra: 1
Spectrometers: USB2E7196
Integration Time (usec): 66000 (USB2E7196)
Spectra Averaged: 1000 (USB2E7196)
Boxcar Smoothing: 10 (USB2E7196)
Correct for Electrical Dark: No (USB2E7196)
Strobe/Lamp Enabled: No (USB2E7196)
Correct for Detector Non-linearity: No (USB2E7196)
Correct for Stray Light: No (USB2E7196)
Number of Pixels in Processed Spectrum: 2048
>>>>>Begin Processed Spectral Data<<<<<
339.09	0.00
339.48	216.76
339.86	218.17
340.24	219.59
340.63	221.10
341.01	224.99
341.39	223.72
341.78	225.19
342.16	226.56
342.54	226.98
342.93	215.23
343.31	226.11
343.69	226.65
344.07	227.12
344.46	227.57
344.84	227.97
345.22	228.17
345.60	228.45
345.99	228.65
346.37	228.80
346.75	228.91
347.13	228.99
347.52	229.09
347.90	229.20
348.28	229.25
348.66	229.33
349.05	229.33
349.43	229.40
349.81	229.48
350.19	229.55
350.57	229.63
350.96	229.72
351.34	229.84
351.72	229.94
352.10	230.07
352.48	230.15
352.87	230.20
353.25	230.26
353.63	230.33
354.01	230.40
354.39	230.48
354.77	230.55
355.15	230.68
355.54	230.72
355.92	230.74
356.30	230.80
356.68	230.98
357.06	231.05
357.44	231.09
357.82	231.14
358.20	231.35
358.58	231.41
358.97	231.48
359.35	231.57
359.73	231.66
360.11	231.70
360.49	231.76
360.87	231.82
361.25	231.89
361.63	231.98
362.01	232.04
362.39	232.06
362.77	232.12
363.15	232.13
363.53	232.16
363.91	232.20
364.29	232.24
364.67	232.09
365.05	232.11
365.43	232.15
365.81	232.20
366.19	232.14
366.57	232.22
366.95	232.21
367.33	232.17
367.71	232.16
368.09	232.19
368.47	232.19
368.85	232.17
369.23	232.19
369.61	232.12
369.99	232.16
370.37	232.16
370.75	232.26
371.13	232.22
371.51	232.18
371.89	232.16
372.27	232.13
372.65	232.11
373.03	232.07
373.41	232.03
373.78	231.96
374.16	231.83
374.54	231.74
374.92	231.68
375.30	231.64
375.68	231.55
376.06	231.51
376.44	231.44
376.82	231.40
377.19	231.34
377.57	231.28
377.95	231.18
378.33	231.12
378.71	230.92
379.09	230.87
379.47	230.84
379.84	230.78
380.22	230.71
380.60	230.65
380.98	230.60
381.36	230.53
381.73	230.46
382.11	230.46
382.49	230.41
382.87	230.34
383.25	230.30
383.62	230.48
384.00	230.40
384.38	230.35
384.76	230.35
385.13	230.37
385.51	230.35
385.89	230.29
386.27	230.25
386.64	230.25
387.02	230.22
387.40	230.18
387.78	230.16
388.15	230.15
388.53	230.11
388.91	230.08
389.29	230.05
389.66	230.07
390.04	230.02
390.42	230.03
390.79	230.03
391.17	230.02
391.55	229.80
391.92	229.80
392.30	229.83
392.68	229.78
393.05	229.77
393.43	229.77
393.81	229.79
394.18	229.77
394.56	229.78
394.94	229.83
395.31	229.84
395.69	229.91
396.06	229.96
396.44	230.01
396.82	230.06
397.19	230.19
397.57	230.20
397.95	230.28
398.32	230.27
398.70	230.35
399.07	230.45
399.45	230.52
399.82	230.59
400.20	230.63
400.58	230.73
400.95	230.75
401.33	230.88
401.70	231.11
402.08	231.24
402.45	231.38
402.83	231.55
403.20	231.71
403.58	231.84
403.95	232.03
404.33	232.23
404.71	232.44
405.08	232.74
405.46	232.98
405.83	233.24
406.21	233.53
406.58	233.85
406.96	234.15
407.33	234.51
407.70	234.91
408.08	235.48
408.45	235.96
408.83	236.48
409.20	236.95
409.58	237.39
409.95	237.99
410.33	238.63
410.70	239.23
411.08	239.95
411.45	240.73
411.82	241.53
412.20	242.42
412.57	243.47
412.95	244.33
413.32	245.42
413.69	246.55
414.07	247.76
414.44	249.08
414.82	250.46
415.19	252.04
415.56	253.67
415.94	255.33
416.31	257.20
416.68	259.10
417.06	261.28
417.43	263.32
417.81	265.67
418.18	268.08
418.55	270.71
418.93	273.45
419.30	276.29
419.67	279.32
420.04	282.46
420.42	285.74
420.79	289.49
421.16	293.30
421.54	297.19
421.91	301.23
422.28	305.44
422.66	309.94
423.03	314.24
423.40	318.75
423.77	323.58
424.15	328.52
424.52	333.65
424.89	339.21
425.26	344.72
425.64	349.85
426.01	355.59
426.38	361.48
426.75	367.51
427.13	373.69
427.50	380.14
427.87	386.82
428.24	393.54
428.61	400.00
428.99	406.96
429.36	414.62
429.73	421.96
430.10	429.26
430.47	436.75
430.85	444.49
431.22	452.73
431.59	461.19
431.96	469.42
432.33	478.59
432.70	487.34
433.08	497.72
433.45	507.47
433.82	517.06
434.19	527.78
434.56	538.34
434.93	548.56
435.30	558.72
435.68	570.26
436.05	581.53
436.42	592.85
436.79	603.17
437.16	614.27
437.53	626.21
437.90	638.19
438.27	649.85
438.64	662.40
439.01	673.86
439.38	684.45
439.75	694.65
440.13	706.22
440.50	717.21
440.87	725.95
441.24	735.58
441.61	746.13
441.98	753.87
442.35	763.02
442.72	772.41
443.09	781.40
443.46	787.31
443.83	791.68
444.20	795.22
444.57	800.51
444.94	803.73
445.31	806.88
445.68	809.55
446.05	811.55
446.42	811.22
446.79	810.65
447.16	810.09
447.53	809.72
447.90	806.27
448.27	802.87
448.64	797.64
449.01	794.08
449.37	786.75
449.74	780.15
450.11	771.62
450.48	762.19
450.85	752.64
451.22	744.29
451.59	736.25
451.96	729.07
452.33	718.62
452.70	709.21
453.07	697.87
453.43	686.60
453.80	675.62
454.17	665.12
454.54	655.31
454.91	644.24
455.28	633.74
455.65	623.82
456.02	613.43
456.38	605.04
456.75	594.24
457.12	585.53
457.49	576.73
457.86	568.45
458.23	561.20
458.59	553.17
458.96	545.00
459.33	537.77
459.70	530.40
460.07	524.68
460.43	518.01
460.80	511.78
461.17	506.31
461.54	500.46
461.91	494.99
462.27	489.43
462.64	484.90
463.01	479.70
463.38	474.54
463.74	469.84
464.11	465.71
464.48	461.98
464.85	457.92
465.21	454.77
465.58	451.32
465.95	447.37
466.32	444.20
466.68	441.08
467.05	437.98
467.42	434.94
467.78	431.72
468.15	428.75
468.52	426.59
468.88	423.73
469.25	421.11
469.62	419.01
469.98	416.74
470.35	414.68
470.72	412.86
471.08	410.97
471.45	409.38
471.82	407.59
472.18	405.73
472.55	404.53
472.92	403.07
473.28	401.90
473.65	400.66
474.02	399.53
474.38	398.56
474.75	397.99
475.11	397.15
475.48	396.76
475.85	396.35
476.21	396.13
476.58	395.99
476.94	396.20
477.31	396.28
477.67	396.40
478.04	396.72
478.41	397.12
478.77	397.72
479.14	398.09
479.50	398.88
479.87	399.85
480.23	400.84
480.60	401.76
480.96	402.68
481.33	404.07
481.69	405.44
482.06	406.80
482.42	408.09
482.79	409.67
483.15	411.52
483.52	413.60
483.88	415.59
484.25	417.72
484.61	419.95
484.98	422.31
485.34	425.02
485.71	427.81
486.07	430.80
486.44	433.72
486.80	437.03
487.17	440.38
487.53	444.10
487.90	447.95
488.26	452.18
488.62	456.61
488.99	461.07
489.35	465.80
489.72	470.90
490.08	476.19
490.44	481.62
490.81	487.20
491.17	492.92
491.54	499.02
491.90	505.26
492.26	511.91
492.63	518.88
492.99	526.09
493.36	533.59
493.72	541.49
494.08	549.53
494.45	557.99
494.81	566.85
495.17	575.88
495.54	585.45
495.90	595.38
496.26	605.59
496.63	616.01
496.99	626.77
497.35	637.98
497.72	649.57
498.08	661.58
498.44	673.87
498.80	686.92
499.17	700.33
499.53	714.18
499.89	728.35
500.26	742.65
500.62	757.26
500.98	772.52
501.34	787.96
501.71	804.20
502.07	820.66
502.43	837.54
502.79	854.57
503.16	872.05
503.52	889.78
503.88	907.98
504.24	926.64
504.60	945.55
504.97	964.92
505.33	984.68
505.69	1005.42
506.05	1026.19
506.41	1046.88
506.78	1067.88
507.14	1089.71
507.50	1111.99
507.86	1134.71
508.22	1157.51
508.59	1180.10
508.95	1203.58
509.31	1227.48
509.67	1252.02
510.03	1276.39
510.39	1301.18
510.75	1326.00
511.12	1350.89
511.48	1375.78
511.84	1400.76
512.20	1426.26
512.56	1452.09
512.92	1477.76
513.28	1503.08
513.64	1528.81
514.00	1554.60
514.37	1580.51
514.73	1606.15
515.09	1631.35
515.45	1656.77
515.81	1682.24
516.17	1707.91
516.53	1732.80
516.89	1757.63
517.25	1782.61
517.61	1807.47
517.97	1832.48
518.33	1857.00
518.69	1881.44
519.05	1906.11
519.41	1930.66
519.77	1955.12
520.13	1979.32
520.49	2003.30
520.85	2027.35
521.21	2051.24
521.57	2075.21
521.93	2098.24
522.29	2121.62
522.65	2144.56
523.01	2167.32
523.37	2189.23
523.73	2211.46
524.09	2233.98
524.45	2256.46
524.81	2277.92
525.17	2299.27
525.53	2319.96
525.89	2340.99
526.25	2361.50
526.61	2380.86
526.97	2400.44
527.33	2419.41
527.68	2437.54
528.04	2455.08
528.40	2471.54
528.76	2488.53
529.12	2504.42
529.48	2520.76
529.84	2535.88
530.20	2551.94
530.56	2566.83
530.91	2581.79
531.27	2595.79
531.63	2608.79
531.99	2621.46
532.35	2632.65
532.71	2643.86
533.07	2655.27
533.42	2665.17
533.78	2675.95
534.14	2686.81
534.50	2696.26
534.86	2705.82
535.21	2713.53
535.57	2721.49
535.93	2729.90
536.29	2737.03
536.65	2744.25
537.00	2749.37
537.36	2754.97
537.72	2758.89
538.08	2762.61
538.44	2765.41
538.79	2768.59
539.15	2771.04
539.51	2772.92
539.87	2775.35
540.22	2775.80
540.58	2776.87
540.94	2777.37
541.29	2776.48
541.65	2774.10
542.01	2771.79
542.37	2768.51
542.72	2766.94
543.08	2763.88
543.44	2760.52
543.79	2755.52
544.15	2750.46
544.51	2746.14
544.87	2739.89
545.22	2733.14
545.58	2726.65
545.94	2720.91
546.29	2713.22
546.65	2705.00
547.01	2696.84
547.36	2688.34
547.72	2679.75
548.07	2669.85
548.43	2659.91
548.79	2648.82
549.14	2638.79
549.50	2628.56
549.86	2617.81
550.21	2605.28
550.57	2594.03
550.92	2581.09
551.28	2568.90
551.64	2556.95
551.99	2544.96
552.35	2532.99
552.70	2520.75
553.06	2508.80
553.41	2495.60
553.77	2482.32
554.13	2469.28
554.48	2455.35
554.84	2441.07
555.19	2427.61
555.55	2413.43
555.90	2399.38
556.26	2386.32
556.61	2372.48
556.97	2357.71
557.32	2343.31
557.68	2328.93
558.03	2314.12
558.39	2300.07
558.74	2286.18
559.10	2270.40
559.45	2255.19
559.81	2240.62
560.16	2225.80
560.52	2210.66
560.87	2196.39
561.23	2181.53
561.58	2166.90
561.94	2151.67
562.29	2136.63
562.64	2121.46
563.00	2106.42
563.35	2092.00
563.71	2077.25
564.06	2062.24
564.42	2047.81
564.77	2033.31
565.12	2019.35
565.48	2005.13
565.83	1990.65
566.19	1976.28
566.54	1962.34
566.89	1947.23
567.25	1931.70
567.60	1917.41
567.96	1902.51
568.31	1887.02
568.66	1872.46
569.02	1857.89
569.37	1843.52
569.72	1829.33
570.08	1815.15
570.43	1800.79
570.78	1785.72
571.14	1770.69
571.49	1755.99
571.84	1742.03
572.20	1726.82
572.55	1711.83
572.90	1696.35
573.26	1680.98
573.61	1665.35
573.96	1650.32
574.31	1635.91
574.67	1621.97
575.02	1607.09
575.37	1591.97
575.72	1576.77
576.08	1561.98
576.43	1547.22
576.78	1532.56
577.13	1518.01
577.49	1503.37
577.84	1488.79
578.19	1474.35
578.54	1459.95
578.90	1445.47
579.25	1430.49
579.60	1416.67
579.95	1402.78
580.30	1389.09
580.66	1375.45
581.01	1361.99
581.36	1348.33
581.71	1334.67
582.06	1321.05
582.42	1307.61
582.77	1294.61
583.12	1281.80
583.47	1268.88
583.82	1256.11
584.17	1243.25
584.53	1230.47
584.88	1218.09
585.23	1205.46
585.58	1193.14
585.93	1180.85
586.28	1169.13
586.63	1157.35
586.98	1145.48
587.34	1133.90
587.69	1122.18
588.04	1110.75
588.39	1099.47
588.74	1088.10
589.09	1077.12
589.44	1065.61
589.79	1054.69
590.14	1043.88
590.49	1033.26
590.84	1022.80
591.19	1012.37
591.54	1002.05
591.89	991.48
592.25	980.99
592.60	970.49
592.95	960.26
593.30	950.03
593.65	939.79
594.00	929.73
594.35	920.38
594.70	910.56
595.05	901.41
595.40	892.06
595.75	882.57
596.10	873.59
596.45	864.44
596.80	855.73
597.15	846.98
597.50	838.24
597.85	829.82
598.19	821.39
598.54	813.01
598.89	804.73
599.24	796.93
599.59	789.15
599.94	781.87
600.29	774.33
600.64	766.94
600.99	759.50
601.34	752.30
601.69	744.47
602.04	737.30
602.39	730.22
602.74	723.32
603.08	716.56
603.43	709.82
603.78	703.17
604.13	696.64
604.48	690.12
604.83	683.80
605.18	677.48
605.53	671.24
605.87	664.90
606.22	658.87
606.57	652.75
606.92	646.56
607.27	640.49
607.62	634.82
607.96	629.19
608.31	623.87
608.66	618.38
609.01	613.22
609.36	608.21
609.70	603.08
610.05	597.95
610.40	592.92
610.75	587.83
611.10	583.08
611.44	578.26
611.79	573.53
612.14	568.81
612.49	564.08
612.83	559.58
613.18	555.30
613.53	551.04
613.88	546.77
614.22	542.73
614.57	538.61
614.92	534.48
615.27	530.52
615.61	526.55
615.96	522.71
616.31	518.82
616.65	514.97
617.00	511.22
617.35	507.56
617.70	503.99
618.04	500.57
618.39	497.08
618.74	493.73
619.08	490.32
619.43	487.00
619.78	483.80
620.12	480.61
620.47	477.60
620.82	474.54
621.16	471.58
621.51	468.74
621.85	465.97
622.20	463.26
622.55	460.53
622.89	457.83
623.24	455.29
623.59	452.78
623.93	450.30
624.28	447.91
624.62	445.74
624.97	443.53
625.32	441.18
625.66	438.84
626.01	436.55
626.35	434.44
626.70	432.28
627.04	430.30
627.39	428.19
627.73	426.12
628.08	424.20
628.43	422.32
628.77	420.40
629.12	418.55
629.46	416.67
629.81	414.94
630.15	413.15
630.50	411.38
630.84	409.68
631.19	408.03
631.53	406.44
631.88	404.64
632.22	402.95
632.57	401.60
632.91	400.22
633.26	398.89
633.60	397.51
633.95	396.21
634.29	394.77
634.64	393.44
634.98	391.98
635.32	390.65
635.67	389.42
636.01	388.19
636.36	386.99
636.70	385.93
637.05	384.73
637.39	383.63
637.73	382.53
638.08	381.47
638.42	380.43
638.77	379.29
639.11	378.13
639.45	377.03
639.80	375.86
640.14	374.75
640.49	373.61
640.83	372.53
641.17	371.41
641.52	370.37
641.86	369.39
642.20	368.54
642.55	367.52
642.89	366.52
643.23	365.53
643.58	364.67
643.92	363.64
644.26	362.68
644.61	361.81
644.95	360.92
645.29	359.99
645.64	359.04
645.98	358.13
646.32	357.35
646.66	356.48
647.01	355.62
647.35	354.82
647.69	354.02
648.04	353.25
648.38	352.45
648.72	351.71
649.06	350.95
649.41	350.14
649.75	349.40
650.09	348.68
650.43	347.98
650.78	347.21
651.12	346.48
651.46	345.78
651.80	345.05
652.14	344.34
652.49	343.66
652.83	342.95
653.17	342.29
653.51	341.62
653.85	341.05
654.20	340.42
654.54	339.71
654.88	339.05
655.22	338.42
655.56	337.72
655.90	337.03
656.25	336.40
656.59	335.76
656.93	335.18
657.27	334.61
657.61	333.96
657.95	333.39
658.29	332.81
658.64	332.30
658.98	331.71
659.32	331.12
659.66	330.56
660.00	330.03
660.34	329.48
660.68	328.91
661.02	328.27
661.36	327.69
661.70	327.13
662.05	326.61
662.39	326.12
662.73	325.69
663.07	325.31
663.41	324.82
663.75	324.27
664.09	323.72
664.43	323.13
664.77	322.63
665.11	322.04
665.45	321.52
665.79	320.95
666.13	320.41
666.47	319.87
666.81	319.30
667.15	318.70
667.49	318.21
667.83	317.78
668.17	317.30
668.51	316.86
668.85	316.45
669.19	316.07
669.53	315.52
669.87	315.03
670.21	314.52
670.55	314.06
670.89	313.73
671.23	313.30
671.57	312.88
671.91	312.49
672.25	312.11
672.58	311.73
672.92	311.28
673.26	310.88
673.60	310.49
673.94	310.11
674.28	309.74
674.62	309.36
674.96	308.90
675.30	308.50
675.64	308.07
675.97	307.62
676.31	307.11
676.65	306.68
676.99	306.32
677.33	305.83
677.67	305.38
678.01	304.83
678.34	304.39
678.68	303.97
679.02	303.50
679.36	303.07
679.70	302.60
680.04	302.17
680.37	301.73
680.71	301.30
681.05	300.89
681.39	300.47
681.73	299.98
682.06	299.51
682.40	299.09
682.74	298.72
683.08	298.36
683.42	297.93
683.75	297.52
684.09	297.01
684.43	296.57
684.77	296.14
685.10	295.75
685.44	295.36
685.78	294.94
686.12	294.53
686.45	294.08
686.79	293.62
687.13	293.21
687.46	292.76
687.80	292.33
688.14	291.83
688.48	291.39
688.81	290.99
689.15	290.64
689.49	290.17
689.82	289.70
690.16	289.17
690.50	288.74
690.83	288.31
691.17	287.85
691.51	287.44
691.84	287.06
692.18	286.63
692.52	286.15
692.85	285.71
693.19	285.36
693.52	284.97
693.86	284.57
694.20	284.14
694.53	283.74
694.87	283.30
695.21	282.89
695.54	282.47
695.88	282.01
696.21	281.50
696.55	281.09
696.88	280.67
697.22	280.26
697.56	279.86
697.89	279.40
698.23	279.00
698.56	278.55
698.90	278.12
699.23	277.67
699.57	277.27
699.90	276.84
700.24	276.34
700.58	275.93
700.91	275.57
701.25	275.34
701.58	275.02
701.92	274.68
702.25	274.31
702.59	273.92
702.92	273.56
703.26	273.18
703.59	272.79
703.93	272.55
704.26	272.18
704.60	271.79
704.93	271.40
705.26	271.02
705.60	270.68
705.93	270.28
706.27	269.96
706.60	269.63
706.94	269.32
707.27	268.94
707.61	268.55
707.94	268.15
708.27	267.63
708.61	267.19
708.94	266.80
709.28	266.44
709.61	266.07
709.94	265.75
710.28	265.44
710.61	265.14
710.95	264.67
711.28	264.46
711.61	264.13
711.95	263.85
712.28	263.51
712.61	263.14
712.95	262.91
713.28	262.67
713.61	262.32
713.95	261.97
714.28	261.68
714.61	261.36
714.95	261.05
715.28	260.73
715.61	260.43
715.95	260.16
716.28	259.85
716.61	259.58
716.95	259.25
717.28	258.93
717.61	258.61
717.94	258.33
718.28	257.92
718.61	257.62
718.94	257.31
719.27	257.06
719.61	256.82
719.94	256.52
720.27	256.16
720.60	255.90
720.94	255.64
721.27	255.40
721.60	255.17
721.93	254.91
722.27	254.73
722.60	254.52
722.93	254.23
723.26	254.01
723.59	253.74
723.93	253.55
724.26	253.33
724.59	253.10
724.92	252.90
725.25	252.72
725.59	252.51
725.92	252.32
726.25	252.11
726.58	251.88
726.91	251.63
727.24	251.43
727.57	251.20
727.91	250.96
728.24	250.78
728.57	250.56
728.90	250.39
729.23	250.12
729.56	249.98
729.89	249.79
730.22	249.58
730.55	249.39
730.89	249.18
731.22	248.96
731.55	248.75
731.88	248.55
732.21	248.33
732.54	248.13
732.87	247.95
733.20	247.77
733.53	247.59
733.86	247.44
734.19	247.25
734.52	247.10
734.85	247.06
735.18	246.85
735.51	246.74
735.84	246.58
736.17	246.46
736.50	246.21
736.83	246.25
737.16	246.09
737.49	245.94
737.82	245.77
738.15	245.65
738.48	245.49
738.81	245.32
739.14	245.14
739.47	244.97
739.80	244.80
740.13	244.66
740.46	244.48
740.79	244.30
741.12	244.15
741.45	243.97
741.78	243.73
742.11	243.63
742.44	243.43
742.77	243.29
743.10	243.12
743.43	242.97
743.75	242.64
744.08	242.77
744.41	242.61
744.74	242.47
745.07	242.30
745.40	242.20
745.73	242.16
746.06	242.04
746.39	241.95
746.71	241.81
747.04	241.67
747.37	241.54
747.70	241.44
748.03	241.32
748.36	241.23
748.68	241.11
749.01	240.94
749.34	240.82
749.67	240.70
750.00	240.61
750.33	240.63
750.65	240.53
750.98	240.16
751.31	240.07
751.64	239.96
751.97	239.94
752.29	239.80
752.62	239.59
752.95	239.46
753.28	239.32
753.60	239.21
753.93	239.14
754.26	239.05
754.59	238.89
754.91	238.78
755.24	238.65
755.57	238.60
755.90	238.49
756.22	238.37
756.55	238.25
756.88	238.11
757.20	237.89
757.53	237.75
757.86	237.64
758.19	237.55
758.51	237.45
758.84	237.27
759.17	237.17
759.49	237.10
759.82	237.11
760.15	237.03
760.47	236.94
760.80	236.81
761.13	236.76
761.45	236.68
761.78	236.60
762.11	236.53
762.43	236.37
762.76	236.29
763.08	236.24
763.41	236.16
763.74	236.10
764.06	236.02
764.39	235.94
764.71	235.86
765.04	235.76
765.37	235.69
765.69	235.62
766.02	235.55
766.34	235.46
766.67	235.32
767.00	235.28
767.32	235.31
767.65	235.34
767.97	235.25
768.30	235.19
768.62	235.13
768.95	235.05
769.27	234.97
769.60	234.93
769.92	234.83
770.25	234.74
770.57	234.66
770.90	234.60
771.22	234.53
771.55	234.49
771.87	234.44
772.20	234.38
772.52	234.48
772.85	234.63
773.17	234.59
773.50	234.53
773.82	234.44
774.15	234.31
774.47	234.14
774.80	234.08
775.12	234.03
775.45	233.98
775.77	233.94
776.09	233.90
776.42	233.85
776.74	233.87
777.07	233.83
777.39	233.80
777.72	233.75
778.04	233.74
778.36	233.68
778.69	233.64
779.01	233.61
779.33	233.41
779.66	233.17
779.98	233.11
780.31	233.08
780.63	233.12
780.95	233.11
781.28	233.08
781.60	233.03
781.92	233.00
782.25	232.97
782.57	232.93
782.89	232.89
783.22	232.85
783.54	232.78
783.86	232.76
784.19	232.71
784.51	232.73
784.83	232.68
785.16	232.65
785.48	232.62
785.80	232.59
786.12	232.57
786.45	232.54
786.77	232.54
787.09	232.48
787.42	232.39
787.74	232.36
788.06	232.34
788.38	232.31
788.71	232.26
789.03	232.23
789.35	232.23
789.67	232.19
789.99	232.17
790.32	232.12
790.64	232.11
790.96	232.24
791.28	232.16
791.61	232.13
791.93	232.11
792.25	232.07
792.57	232.16
792.89	232.11
793.21	232.10
793.54	232.05
793.86	232.02
794.18	232.01
794.50	231.95
794.82	231.93
795.14	231.93
795.47	231.94
795.79	231.92
796.11	231.86
796.43	231.84
796.75	231.82
797.07	231.81
797.39	231.77
797.71	231.61
798.04	231.60
798.36	231.59
798.68	231.56
799.00	231.57
799.32	231.46
799.64	231.48
799.96	231.45
800.28	231.47
800.60	231.45
800.92	231.44
801.24	231.41
801.56	231.40
801.89	231.36
802.21	231.35
802.53	231.30
802.85	231.32
803.17	231.38
803.49	231.32
803.81	231.29
804.13	231.26
804.45	231.22
804.77	231.21
805.09	231.19
805.41	231.15
805.73	231.10
806.05	231.03
806.37	231.00
806.69	230.97
807.01	230.93
807.33	230.93
807.65	230.85
807.97	230.92
808.28	230.88
808.60	230.87
808.92	230.82
809.24	230.92
809.56	230.87
809.88	230.78
810.20	230.78
810.52	230.79
810.84	230.76
811.16	230.73
811.48	230.71
811.80	230.76
812.12	230.74
812.43	230.76
812.75	230.76
813.07	230.73
813.39	230.72
813.71	230.69
814.03	230.67
814.35	230.66
814.67	230.58
814.98	230.55
815.30	230.53
815.62	230.49
815.94	230.36
816.26	230.37
816.58	230.34
816.89	230.34
817.21	230.30
817.53	230.30
817.85	230.30
818.17	230.28
818.48	230.21
818.80	230.24
819.12	230.19
819.44	230.16
819.76	230.14
820.07	230.12
820.39	230.12
820.71	230.11
821.03	230.11
821.34	230.09
821.66	230.10
821.98	230.11
822.30	230.10
822.61	230.20
822.93	230.16
823.25	230.15
823.57	230.13
823.88	230.13
824.20	230.12
824.52	230.13
824.83	230.11
825.15	230.08
825.47	230.05
825.79	230.06
826.10	230.03
826.42	230.01
826.74	230.01
827.05	229.99
827.37	229.98
827.69	229.97
828.00	229.96
828.32	229.95
828.64	229.92
828.95	230.00
829.27	229.94
829.58	229.93
829.90	229.95
830.22	229.95
830.53	229.92
830.85	229.89
831.17	229.83
831.48	229.82
831.80	229.82
832.11	229.80
832.43	229.77
832.75	229.78
833.06	229.88
833.38	229.82
833.69	229.81
834.01	229.80
834.32	229.79
834.64	229.75
834.96	229.75
835.27	229.74
835.59	229.67
835.90	229.65
836.22	229.64
836.53	229.60
836.85	229.58
837.16	229.77
837.48	229.78
837.79	229.83
838.11	229.83
838.42	229.83
838.74	229.85
839.05	229.83
839.37	229.82
839.68	229.71
840.00	229.70
840.31	229.73
840.63	229.71
840.94	229.70
841.26	229.69
841.57	229.68
841.88	229.70
842.20	229.67
842.51	229.64
842.83	229.63
843.14	229.78
843.46	229.77
843.77	229.65
844.08	229.64
844.40	229.59
844.71	229.57
845.03	229.55
845.34	229.52
845.65	229.53
845.97	229.52
846.28	229.52
846.60	229.53
846.91	229.51
847.22	229.51
847.54	229.54
847.85	229.55
848.16	229.54
848.48	229.50
848.79	229.57
849.10	229.58
849.42	229.59
849.73	229.42
850.04	229.41
850.36	229.36
850.67	229.39
850.98	229.38
851.30	229.40
851.61	229.39
851.92	229.39
852.23	229.43
852.55	229.45
852.86	229.45
853.17	229.47
853.49	229.48
853.80	229.50
854.11	229.51
854.42	229.53
854.74	229.51
855.05	229.52
855.36	229.42
855.67	229.42
855.99	229.42
856.30	229.62
856.61	229.63
856.92	229.63
857.23	229.63
857.55	229.62
857.86	229.59
858.17	229.61
858.48	229.59
858.79	229.54
859.11	229.55
859.42	229.54
859.73	229.51
860.04	229.52
860.35	229.46
860.66	229.40
860.98	229.39
861.29	229.42
861.60	229.39
861.91	229.43
862.22	229.41
862.53	229.38
862.84	229.18
863.16	229.21
863.47	229.18
863.78	229.16
864.09	229.17
864.40	229.18
864.71	229.17
865.02	229.19
865.33	229.17
865.64	229.14
865.95	229.15
866.27	229.26
866.58	229.23
866.89	229.25
867.20	229.24
867.51	229.21
867.82	229.20
868.13	229.26
868.44	229.22
868.75	229.25
869.06	229.26
869.37	229.28
869.68	229.23
869.99	229.26
870.30	229.26
870.61	229.28
870.92	229.26
871.23	229.24
871.54	229.26
871.85	229.30
872.16	229.31
872.47	229.29
872.78	229.19
873.09	229.20
873.40	229.20
873.71	229.21
874.02	229.22
874.33	229.19
874.64	229.16
874.95	229.19
875.26	229.16
875.56	229.13
875.87	229.11
876.18	229.11
876.49	229.28
876.80	229.26
877.11	229.20
877.42	229.21
877.73	229.22
878.04	229.20
878.35	229.20
878.66	229.19
878.96	229.19
879.27	229.19
879.58	229.18
879.89	229.15
880.20	229.20
880.51	229.19
880.82	229.21
881.12	229.21
881.43	229.17
881.74	229.14
882.05	229.15
882.36	229.16
882.67	229.18
882.97	228.99
883.28	228.99
883.59	228.99
883.90	229.01
884.21	229.03
884.51	229.00
884.82	228.97
885.13	228.98
885.44	228.99
885.74	228.99
886.05	228.98
886.36	228.99
886.67	228.92
886.98	229.01
887.28	229.02
887.59	229.02
887.90	229.03
888.20	229.03
888.51	229.06
888.82	229.03
889.13	229.04
889.43	229.20
889.74	229.19
890.05	229.20
890.35	229.17
890.66	229.15
890.97	229.14
891.28	229.13
891.58	229.14
891.89	229.12
892.20	229.11
892.50	229.10
892.81	229.10
893.12	229.11
893.42	229.02
893.73	229.02
894.04	229.02
894.34	229.04
894.65	229.04
894.95	229.03
895.26	229.04
895.57	229.12
895.87	228.94
896.18	228.98
896.48	228.99
896.79	229.00
897.10	229.03
897.40	229.04
897.71	229.07
898.01	229.05
898.32	229.08
898.63	229.08
898.93	229.09
899.24	229.10
899.54	229.08
899.85	229.08
900.15	229.06
900.46	229.07
900.76	229.07
901.07	229.07
901.38	229.06
901.68	229.08
901.99	228.99
902.29	228.99
902.60	228.98
902.90	228.97
903.21	228.96
903.51	228.93
903.82	228.97
904.12	228.97
904.43	228.97
904.73	228.95
905.03	228.96
905.34	229.11
905.64	229.10
905.95	229.09
906.25	229.09
906.56	229.09
906.86	229.09
907.17	229.08
907.47	229.09
907.77	229.07
908.08	229.04
908.38	229.03
908.69	229.05
908.99	229.07
909.30	229.07
909.60	229.08
909.90	229.08
910.21	229.03
910.51	229.00
910.81	229.01
911.12	229.01
911.42	229.01
911.73	228.83
912.03	228.83
912.33	228.87
912.64	228.86
912.94	228.84
913.24	228.81
913.55	228.80
913.85	228.78
914.15	228.82
914.46	228.84
914.76	228.83
915.06	228.82
915.37	228.78
915.67	228.76
915.97	228.75
916.27	228.72
916.58	228.72
916.88	228.72
917.18	228.70
917.49	228.81
917.79	228.80
918.09	228.84
918.39	228.88
918.70	228.86
919.00	228.88
919.30	228.95
919.60	228.94
919.91	228.91
920.21	228.92
920.51	228.89
920.81	228.86
921.12	228.89
921.42	228.88
921.72	228.89
922.02	228.89
922.32	228.94
922.63	228.94
922.93	229.04
923.23	229.03
923.53	229.02
923.83	228.91
924.13	228.92
924.44	228.92
924.74	228.94
925.04	228.98
925.34	228.97
925.64	228.89
925.94	228.90
926.24	229.01
926.55	228.98
926.85	229.00
927.15	229.01
927.45	229.00
927.75	229.01
928.05	229.02
928.35	229.02
928.65	229.03
928.95	229.05
929.26	228.97
929.56	229.00
929.86	229.02
930.16	229.01
930.46	229.01
930.76	229.00
931.06	228.92
931.36	228.86
931.66	228.88
931.96	228.90
932.26	228.91
932.56	228.83
932.86	228.85
933.16	228.85
933.46	228.83
933.76	228.81
934.06	228.84
934.36	228.90
934.66	228.89
934.96	228.86
935.26	228.87
935.56	228.89
935.86	228.86
936.16	228.83
936.46	228.82
936.76	228.81
937.06	228.79
937.36	228.81
937.66	228.83
937.96	228.83
938.26	228.80
938.56	228.78
938.86	228.79
939.16	228.82
939.46	228.83
939.76	228.85
940.06	228.85
940.35	228.82
940.65	228.73
940.95	228.74
941.25	228.70
941.55	228.69
941.85	228.68
942.15	228.71
942.45	228.76
942.75	228.75
943.04	228.75
943.34	228.78
943.64	228.78
943.94	228.74
944.24	228.74
944.54	228.75
944.84	228.75
945.13	228.73
945.43	228.70
945.73	228.70
946.03	228.69
946.33	228.67
946.62	228.66
946.92	228.66
947.22	228.67
947.52	228.68
947.82	228.70
948.11	228.68
948.41	228.64
948.71	228.60
949.01	228.61
949.31	228.59
949.60	228.59
949.90	228.61
950.20	228.60
950.50	228.60
950.79	228.58
951.09	228.60
951.39	228.61
951.69	228.59
951.98	228.63
952.28	228.63
952.58	228.62
952.87	228.62
953.17	228.65
953.47	228.63
953.76	228.63
954.06	228.60
954.36	228.57
954.66	228.57
954.95	228.61
955.25	228.62
955.55	228.64
955.84	228.61
956.14	228.63
956.44	228.65
956.73	228.62
957.03	228.65
957.32	228.64
957.62	228.63
957.92	228.67
958.21	228.64
958.51	228.86
958.81	228.88
959.10	228.91
959.40	228.94
959.69	228.97
959.99	228.99
960.29	228.99
960.58	228.98
960.88	229.06
961.17	229.06
961.47	229.07
961.76	229.05
962.06	229.08
962.36	229.06
962.65	229.06
962.95	229.09
963.24	229.07
963.54	229.08
963.83	229.10
964.13	229.07
964.42	229.05
964.72	228.90
965.01	228.90
965.31	228.89
965.60	228.84
965.90	228.94
966.19	228.90
966.49	228.92
966.78	228.92
967.08	228.90
967.37	228.89
967.67	228.86
967.96	228.90
968.26	228.89
968.55	228.91
968.85	228.90
969.14	228.89
969.43	228.88
969.73	228.86
970.02	228.86
970.32	228.86
970.61	228.84
970.91	228.80
971.20	228.77
971.49	228.76
971.79	228.78
972.08	228.66
972.38	228.68
972.67	228.66
972.96	228.69
973.26	228.65
973.55	228.70
973.85	228.69
974.14	228.68
974.43	228.68
974.73	228.64
975.02	228.62
975.31	228.63
975.61	228.64
975.90	228.62
976.19	228.58
976.49	228.59
976.78	228.60
977.07	228.59
977.37	228.62
977.66	228.63
977.95	228.60
978.24	228.61
978.54	228.64
978.83	228.63
979.12	228.61
979.42	228.61
979.71	228.58
980.00	228.58
980.29	228.58
980.59	228.55
980.88	228.60
981.17	228.61
981.46	228.60
981.76	228.60
982.05	228.65
982.34	228.68
982.63	228.69
982.93	228.68
983.22	228.73
983.51	228.73
983.80	228.76
984.09	228.78
984.39	228.77
984.68	228.74
984.97	228.75
985.26	228.73
985.55	228.75
985.85	228.72
986.14	228.75
986.43	228.77
986.72	228.77
987.01	228.72
987.30	228.72
987.59	228.71
987.89	228.73
988.18	228.66
988.47	228.65
988.76	228.62
989.05	228.61
989.34	228.58
989.63	228.62
989.92	228.59
990.22	228.57
990.51	228.56
990.80	228.56
991.09	228.57
991.38	228.60
991.67	228.57
991.96	228.55
992.25	228.55
992.54	228.51
992.83	228.52
993.12	228.51
993.41	228.53
993.70	228.60
993.99	228.62
994.28	228.66
994.58	228.69
994.87	228.67
995.16	228.67
995.45	228.66
995.74	228.60
996.03	228.63
996.32	228.66
996.61	228.69
996.90	228.68
997.19	228.66
997.48	228.66
997.77	228.66
998.06	228.68
998.34	228.65
998.63	228.66
998.92	228.68
999.21	228.71
999.50	228.71
999.79	228.65
1000.08	228.65
1000.37	228.64
1000.66	228.61
1000.95	228.65
1001.24	228.67
1001.53	228.69
1001.82	228.69
1002.11	228.65
1002.40	228.66
1002.68	228.70
1002.97	228.83
1003.26	228.80
1003.55	228.76
1003.84	228.78
1004.13	228.84
1004.42	228.83
1004.71	228.83
1004.99	228.81
1005.28	228.85
1005.57	228.83
1005.86	228.82
1006.15	228.81
1006.44	228.79
1006.72	228.80
1007.01	228.77
1007.30	228.77
1007.59	228.76
1007.88	228.75
1008.17	228.75
1008.45	228.71
1008.74	228.65
1009.03	228.56
1009.32	228.57
1009.60	228.58
1009.89	228.55
1010.18	228.48
1010.47	228.48
1010.76	228.47
1011.04	228.46
1011.33	228.45
1011.62	228.46
1011.91	228.47
1012.19	228.47
1012.48	228.48
1012.77	228.47
1013.05	228.53
1013.34	228.52
1013.63	228.52
1013.92	228.54
1014.20	228.54
1014.49	228.55
1014.78	228.56
1015.06	228.51
1015.35	228.51
1015.64	228.53
1015.92	228.57
1016.21	228.59
1016.50	228.59
1016.78	228.62
1017.07	228.64
1017.36	228.61
1017.64	228.59
1017.93	228.59
1018.22	228.56
1018.50	228.56
1018.79	228.56
1019.08	228.50
1019.36	228.51
1019.65	228.49
1019.93	228.54
1020.22	228.57
1020.51	228.66
1020.79	228.64
1021.08	228.11
1021.36	228.26
1021.65	228.52
1021.94	228.46
1022.22	228.59
1022.51	228.30
1022.79	229.48
1023.08	229.04
1023.36	230.52
1023.65	228.26
>>>>>End Processed Spectral Data<<<<<
