SpectraSuite Data File
++++++++++++++++++++++++++++++++++++
Date: Tue Oct 06 13:50:14 EDT 2015
User: lab3
Dark Spectrum Present: No
Reference Spectrum Present: No
Number of Sampled Component Spectra: 1
Spectrometers: USB2E7196
Integration Time (usec): 66000 (USB2E7196)
Spectra Averaged: 1000 (USB2E7196)
Boxcar Smoothing: 10 (USB2E7196)
Correct for Electrical Dark: No (USB2E7196)
Strobe/Lamp Enabled: No (USB2E7196)
Correct for Detector Non-linearity: No (USB2E7196)
Correct for Stray Light: No (USB2E7196)
Number of Pixels in Processed Spectrum: 2048
>>>>>Begin Processed Spectral Data<<<<<
339.09	0.00
339.48	215.76
339.86	217.14
340.24	218.48
340.63	219.91
341.01	223.86
341.39	222.60
341.78	224.10
342.16	225.36
342.54	225.68
342.93	214.14
343.31	224.95
343.69	225.48
344.07	225.95
344.46	226.40
344.84	226.79
345.22	226.99
345.60	227.27
345.99	227.48
346.37	227.62
346.75	227.73
347.13	227.83
347.52	227.92
347.90	228.04
348.28	228.09
348.66	228.17
349.05	228.17
349.43	228.23
349.81	228.29
350.19	228.34
350.57	228.41
350.96	228.50
351.34	228.60
351.72	228.71
352.10	228.82
352.48	228.89
352.87	228.94
353.25	229.01
353.63	229.05
354.01	229.11
354.39	229.19
354.77	229.27
355.15	229.39
355.54	229.42
355.92	229.42
356.30	229.49
356.68	229.67
357.06	229.74
357.44	229.79
357.82	229.85
358.20	230.05
358.58	230.11
358.97	230.17
359.35	230.26
359.73	230.36
360.11	230.42
360.49	230.47
360.87	230.54
361.25	230.60
361.63	230.70
362.01	230.76
362.39	230.79
362.77	230.84
363.15	230.86
363.53	230.88
363.91	230.94
364.29	230.97
364.67	230.83
365.05	230.85
365.43	230.89
365.81	230.93
366.19	230.88
366.57	230.95
366.95	230.96
367.33	230.92
367.71	230.90
368.09	230.94
368.47	230.93
368.85	230.91
369.23	230.94
369.61	230.87
369.99	230.91
370.37	230.90
370.75	231.02
371.13	230.99
371.51	230.96
371.89	230.94
372.27	230.92
372.65	230.91
373.03	230.87
373.41	230.82
373.78	230.77
374.16	230.64
374.54	230.55
374.92	230.49
375.30	230.46
375.68	230.39
376.06	230.35
376.44	230.29
376.82	230.25
377.19	230.22
377.57	230.17
377.95	230.06
378.33	230.00
378.71	229.79
379.09	229.75
379.47	229.72
379.84	229.65
380.22	229.58
380.60	229.50
380.98	229.45
381.36	229.40
381.73	229.34
382.11	229.33
382.49	229.29
382.87	229.23
383.25	229.19
383.62	229.35
384.00	229.28
384.38	229.25
384.76	229.25
385.13	229.25
385.51	229.21
385.89	229.16
386.27	229.14
386.64	229.13
387.02	229.08
387.40	229.03
387.78	229.03
388.15	229.01
388.53	228.98
388.91	228.96
389.29	228.93
389.66	228.94
390.04	228.91
390.42	228.91
390.79	228.90
391.17	228.88
391.55	228.67
391.92	228.66
392.30	228.68
392.68	228.63
393.05	228.62
393.43	228.63
393.81	228.65
394.18	228.63
394.56	228.64
394.94	228.70
395.31	228.71
395.69	228.77
396.06	228.82
396.44	228.87
396.82	228.90
397.19	229.03
397.57	229.04
397.95	229.11
398.32	229.11
398.70	229.19
399.07	229.29
399.45	229.35
399.82	229.42
400.20	229.48
400.58	229.57
400.95	229.58
401.33	229.71
401.70	229.94
402.08	230.09
402.45	230.23
402.83	230.39
403.20	230.56
403.58	230.69
403.95	230.90
404.33	231.12
404.71	231.33
405.08	231.62
405.46	231.87
405.83	232.15
406.21	232.46
406.58	232.78
406.96	233.11
407.33	233.49
407.70	233.91
408.08	234.48
408.45	234.97
408.83	235.52
409.20	236.02
409.58	236.47
409.95	237.09
410.33	237.75
410.70	238.39
411.08	239.14
411.45	239.94
411.82	240.74
412.20	241.66
412.57	242.73
412.95	243.61
413.32	244.73
413.69	245.89
414.07	247.12
414.44	248.47
414.82	249.85
415.19	251.47
415.56	253.11
415.94	254.83
416.31	256.74
416.68	258.66
417.06	260.89
417.43	262.98
417.81	265.37
418.18	267.83
418.55	270.50
418.93	273.29
419.30	276.20
419.67	279.30
420.04	282.48
420.42	285.83
420.79	289.67
421.16	293.55
421.54	297.48
421.91	301.58
422.28	305.83
422.66	310.42
423.03	314.77
423.40	319.35
423.77	324.23
424.15	329.25
424.52	334.43
424.89	340.05
425.26	345.62
425.64	350.80
426.01	356.62
426.38	362.56
426.75	368.66
427.13	374.88
427.50	381.39
427.87	388.14
428.24	394.93
428.61	401.42
428.99	408.43
429.36	416.17
429.73	423.57
430.10	430.93
430.47	438.48
430.85	446.28
431.22	454.61
431.59	463.14
431.96	471.45
432.33	480.69
432.70	489.49
433.08	499.95
433.45	509.80
433.82	519.43
434.19	530.24
434.56	540.87
434.93	551.20
435.30	561.44
435.68	573.09
436.05	584.46
436.42	595.86
436.79	606.28
437.16	617.46
437.53	629.51
437.90	641.61
438.27	653.40
438.64	666.08
439.01	677.61
439.38	688.29
439.75	698.58
440.13	710.30
440.50	721.45
440.87	730.28
441.24	740.04
441.61	750.76
441.98	758.66
442.35	767.98
442.72	777.53
443.09	786.72
443.46	792.77
443.83	797.27
444.20	800.94
444.57	806.39
444.94	809.79
445.31	813.16
445.68	816.02
446.05	818.18
446.42	817.99
446.79	817.62
447.16	817.25
447.53	817.09
447.90	813.82
448.27	810.58
448.64	805.52
449.01	802.12
449.37	794.92
449.74	788.41
450.11	779.94
450.48	770.56
450.85	761.07
451.22	752.81
451.59	744.83
451.96	737.73
452.33	727.28
452.70	717.89
453.07	706.51
453.43	695.18
453.80	684.14
454.17	673.59
454.54	663.70
454.91	652.53
455.28	641.88
455.65	631.80
456.02	621.26
456.38	612.70
456.75	601.70
457.12	592.79
457.49	583.81
457.86	575.37
458.23	567.97
458.59	559.76
458.96	551.37
459.33	544.00
459.70	536.46
460.07	530.59
460.43	523.75
460.80	517.36
461.17	511.74
461.54	505.78
461.91	500.16
462.27	494.46
462.64	489.81
463.01	484.51
463.38	479.22
463.74	474.44
464.11	470.21
464.48	466.42
464.85	462.26
465.21	459.07
465.58	455.54
465.95	451.51
466.32	448.28
466.68	445.12
467.05	441.93
467.42	438.85
467.78	435.56
468.15	432.51
468.52	430.29
468.88	427.37
469.25	424.69
469.62	422.56
469.98	420.22
470.35	418.14
470.72	416.28
471.08	414.36
471.45	412.74
471.82	410.92
472.18	409.03
472.55	407.82
472.92	406.31
473.28	405.11
473.65	403.82
474.02	402.65
474.38	401.64
474.75	401.02
475.11	400.15
475.48	399.74
475.85	399.32
476.21	399.07
476.58	398.90
476.94	399.09
477.31	399.13
477.67	399.26
478.04	399.55
478.41	399.94
478.77	400.53
479.14	400.86
479.50	401.62
479.87	402.58
480.23	403.55
480.60	404.47
480.96	405.39
481.33	406.80
481.69	408.16
482.06	409.53
482.42	410.82
482.79	412.37
483.15	414.22
483.52	416.30
483.88	418.28
484.25	420.43
484.61	422.66
484.98	425.01
485.34	427.71
485.71	430.47
486.07	433.44
486.44	436.35
486.80	439.68
487.17	443.04
487.53	446.71
487.90	450.55
488.26	454.77
488.62	459.19
488.99	463.62
489.35	468.33
489.72	473.39
490.08	478.67
490.44	484.08
490.81	489.64
491.17	495.32
491.54	501.41
491.90	507.63
492.26	514.27
492.63	521.24
492.99	528.45
493.36	535.96
493.72	543.85
494.08	551.88
494.45	560.31
494.81	569.17
495.17	578.23
495.54	587.79
495.90	597.74
496.26	607.96
496.63	618.41
496.99	629.20
497.35	640.43
497.72	652.04
498.08	664.08
498.44	676.41
498.80	689.51
499.17	702.95
499.53	716.84
499.89	731.06
500.26	745.38
500.62	760.00
500.98	775.29
501.34	790.78
501.71	807.00
502.07	823.44
502.43	840.35
502.79	857.36
503.16	874.82
503.52	892.54
503.88	910.74
504.24	929.38
504.60	948.23
504.97	967.57
505.33	987.34
505.69	1008.08
506.05	1028.90
506.41	1049.61
506.78	1070.62
507.14	1092.36
507.50	1114.60
507.86	1137.29
508.22	1160.10
508.59	1182.73
508.95	1206.21
509.31	1230.10
509.67	1254.72
510.03	1279.17
510.39	1304.05
510.75	1329.00
511.12	1353.99
511.48	1378.96
511.84	1404.02
512.20	1429.54
512.56	1455.50
512.92	1481.23
513.28	1506.65
513.64	1532.39
514.00	1558.20
514.37	1584.21
514.73	1610.01
515.09	1635.34
515.45	1660.89
515.81	1686.55
516.17	1712.27
516.53	1737.27
516.89	1762.31
517.25	1787.36
517.61	1812.26
517.97	1837.35
518.33	1861.97
518.69	1886.53
519.05	1911.27
519.41	1935.94
519.77	1960.55
520.13	1984.79
520.49	2008.93
520.85	2033.05
521.21	2057.03
521.57	2081.23
521.93	2104.34
522.29	2127.89
522.65	2150.92
523.01	2173.81
523.37	2195.84
523.73	2218.28
524.09	2240.89
524.45	2263.52
524.81	2285.34
525.17	2306.95
525.53	2327.85
525.89	2349.12
526.25	2369.96
526.61	2389.69
526.97	2409.58
527.33	2428.99
527.68	2447.57
528.04	2465.49
528.40	2482.41
528.76	2499.85
529.12	2516.13
529.48	2532.84
529.84	2548.23
530.20	2564.75
530.56	2580.18
530.91	2595.56
531.27	2609.98
531.63	2623.39
531.99	2636.51
532.35	2648.03
532.71	2659.59
533.07	2671.45
533.42	2681.74
533.78	2692.67
534.14	2703.88
534.50	2713.65
534.86	2723.63
535.21	2731.63
535.57	2739.79
535.93	2748.38
536.29	2755.79
536.65	2763.36
537.00	2768.82
537.36	2774.69
537.72	2778.88
538.08	2782.72
538.44	2785.63
538.79	2788.87
539.15	2791.53
539.51	2793.52
539.87	2796.23
540.22	2796.90
540.58	2798.02
540.94	2798.84
541.29	2798.20
541.65	2796.06
542.01	2793.99
542.37	2790.80
542.72	2789.39
543.08	2786.64
543.44	2783.62
543.79	2778.80
544.15	2773.97
544.51	2769.91
544.87	2763.86
545.22	2757.24
545.58	2750.81
545.94	2745.16
546.29	2737.85
546.65	2729.77
547.01	2721.83
547.36	2713.49
547.72	2705.03
548.07	2695.44
548.43	2685.58
548.79	2674.66
549.14	2664.73
549.50	2654.73
549.86	2644.15
550.21	2631.67
550.57	2620.50
550.92	2607.58
551.28	2595.36
551.64	2583.38
551.99	2571.50
552.35	2559.81
552.70	2547.88
553.06	2536.28
553.41	2523.53
553.77	2510.41
554.13	2497.57
554.48	2483.93
554.84	2469.75
555.19	2456.56
555.55	2442.43
555.90	2428.51
556.26	2415.64
556.61	2402.03
556.97	2387.35
557.32	2373.02
557.68	2358.92
558.03	2344.25
558.39	2330.42
558.74	2316.85
559.10	2301.16
559.45	2285.97
559.81	2271.45
560.16	2256.59
560.52	2241.42
560.87	2227.06
561.23	2212.23
561.58	2197.67
561.94	2182.43
562.29	2167.33
562.64	2152.15
563.00	2137.14
563.35	2122.74
563.71	2108.03
564.06	2092.87
564.42	2078.20
564.77	2063.67
565.12	2049.56
565.48	2035.34
565.83	2020.72
566.19	2006.27
566.54	1992.33
566.89	1977.18
567.25	1961.55
567.60	1947.09
567.96	1932.14
568.31	1916.60
568.66	1901.91
569.02	1887.27
569.37	1872.76
569.72	1858.57
570.08	1844.19
570.43	1829.83
570.78	1814.63
571.14	1799.46
571.49	1784.70
571.84	1770.83
572.20	1755.60
572.55	1740.56
572.90	1724.98
573.26	1709.52
573.61	1693.73
573.96	1678.54
574.31	1664.03
574.67	1649.99
575.02	1635.13
575.37	1619.94
575.72	1604.71
576.08	1589.82
576.43	1574.99
576.78	1560.19
577.13	1545.45
577.49	1530.79
577.84	1516.02
578.19	1501.43
578.54	1486.87
578.90	1472.23
579.25	1457.05
579.60	1443.07
579.95	1429.02
580.30	1415.20
580.66	1401.40
581.01	1387.77
581.36	1374.01
581.71	1360.19
582.06	1346.37
582.42	1332.74
582.77	1319.44
583.12	1306.40
583.47	1293.21
583.82	1280.15
584.17	1267.15
584.53	1254.15
584.88	1241.49
585.23	1228.70
585.58	1216.16
585.93	1203.64
586.28	1191.73
586.63	1179.64
586.98	1167.46
587.34	1155.62
587.69	1143.56
588.04	1131.90
588.39	1120.35
588.74	1108.73
589.09	1097.46
589.44	1085.68
589.79	1074.49
590.14	1063.48
590.49	1052.50
590.84	1041.82
591.19	1031.23
591.54	1020.58
591.89	1009.75
592.25	998.97
592.60	988.14
592.95	977.58
593.30	967.08
593.65	956.51
594.00	946.23
594.35	936.62
594.70	926.55
595.05	917.15
595.40	907.54
595.75	897.86
596.10	888.61
596.45	879.24
596.80	870.29
597.15	861.29
597.50	852.34
597.85	843.78
598.19	835.14
598.54	826.48
598.89	818.06
599.24	810.04
599.59	802.12
599.94	794.70
600.29	787.08
600.64	779.54
600.99	771.99
601.34	764.70
601.69	756.79
602.04	749.51
602.39	742.33
602.74	735.33
603.08	728.41
603.43	721.53
603.78	714.75
604.13	708.14
604.48	701.48
604.83	695.10
605.18	688.63
605.53	682.34
605.87	675.92
606.22	669.74
606.57	663.54
606.92	657.21
607.27	651.04
607.62	645.23
607.96	639.50
608.31	634.06
608.66	628.46
609.01	623.10
609.36	617.94
609.70	612.69
610.05	607.36
610.40	602.18
610.75	596.96
611.10	592.07
611.44	587.12
611.79	582.26
612.14	577.39
612.49	572.52
612.83	567.87
613.18	563.48
613.53	559.07
613.88	554.69
614.22	550.57
614.57	546.30
614.92	542.04
615.27	537.93
615.61	533.81
615.96	529.82
616.31	525.88
616.65	521.91
617.00	518.04
617.35	514.31
617.70	510.65
618.04	507.12
618.39	503.52
618.74	500.06
619.08	496.55
619.43	493.09
619.78	489.77
620.12	486.46
620.47	483.29
620.82	480.17
621.16	477.10
621.51	474.14
621.85	471.24
622.20	468.40
622.55	465.54
622.89	462.75
623.24	460.09
623.59	457.46
623.93	454.87
624.28	452.41
624.62	450.13
624.97	447.83
625.32	445.40
625.66	442.98
626.01	440.58
626.35	438.39
626.70	436.16
627.04	434.11
627.39	431.95
627.73	429.81
628.08	427.80
628.43	425.82
628.77	423.82
629.12	421.94
629.46	420.02
629.81	418.23
630.15	416.38
630.50	414.52
630.84	412.75
631.19	411.04
631.53	409.36
631.88	407.51
632.22	405.76
632.57	404.34
632.91	402.88
633.26	401.51
633.60	400.06
633.95	398.69
634.29	397.17
634.64	395.77
634.98	394.23
635.32	392.82
635.67	391.53
636.01	390.23
636.36	388.96
636.70	387.84
637.05	386.56
637.39	385.41
637.73	384.28
638.08	383.18
638.42	382.06
638.77	380.85
639.11	379.61
639.45	378.46
639.80	377.25
640.14	376.10
640.49	374.89
640.83	373.75
641.17	372.61
641.52	371.51
641.86	370.47
642.20	369.61
642.55	368.54
642.89	367.47
643.23	366.44
643.58	365.51
643.92	364.44
644.26	363.44
644.61	362.50
644.95	361.52
645.29	360.53
645.64	359.53
645.98	358.60
646.32	357.78
646.66	356.86
647.01	355.95
647.35	355.12
647.69	354.27
648.04	353.46
648.38	352.62
648.72	351.83
649.06	351.05
649.41	350.22
649.75	349.45
650.09	348.73
650.43	347.99
650.78	347.20
651.12	346.45
651.46	345.72
651.80	345.00
652.14	344.30
652.49	343.62
652.83	342.90
653.17	342.22
653.51	341.53
653.85	340.94
654.20	340.30
654.54	339.57
654.88	338.89
655.22	338.25
655.56	337.54
655.90	336.85
656.25	336.16
656.59	335.47
656.93	334.86
657.27	334.28
657.61	333.61
657.95	333.02
658.29	332.40
658.64	331.87
658.98	331.26
659.32	330.64
659.66	330.06
660.00	329.50
660.34	328.92
660.68	328.35
661.02	327.68
661.36	327.07
661.70	326.50
662.05	325.96
662.39	325.43
662.73	325.00
663.07	324.58
663.41	324.09
663.75	323.55
664.09	323.01
664.43	322.41
664.77	321.92
665.11	321.32
665.45	320.79
665.79	320.23
666.13	319.68
666.47	319.14
666.81	318.56
667.15	317.97
667.49	317.48
667.83	317.04
668.17	316.59
668.51	316.15
668.85	315.75
669.19	315.37
669.53	314.85
669.87	314.35
670.21	313.87
670.55	313.42
670.89	313.08
671.23	312.66
671.57	312.22
671.91	311.83
672.25	311.47
672.58	311.11
672.92	310.66
673.26	310.27
673.60	309.87
673.94	309.48
674.28	309.11
674.62	308.73
674.96	308.26
675.30	307.85
675.64	307.42
675.97	306.96
676.31	306.46
676.65	306.03
676.99	305.66
677.33	305.17
677.67	304.72
678.01	304.17
678.34	303.71
678.68	303.31
679.02	302.83
679.36	302.38
679.70	301.90
680.04	301.47
680.37	301.03
680.71	300.61
681.05	300.22
681.39	299.79
681.73	299.31
682.06	298.86
682.40	298.44
682.74	298.06
683.08	297.70
683.42	297.27
683.75	296.85
684.09	296.34
684.43	295.90
684.77	295.44
685.10	295.06
685.44	294.67
685.78	294.25
686.12	293.84
686.45	293.41
686.79	292.96
687.13	292.55
687.46	292.11
687.80	291.67
688.14	291.18
688.48	290.75
688.81	290.33
689.15	289.97
689.49	289.52
689.82	289.04
690.16	288.51
690.50	288.09
690.83	287.65
691.17	287.19
691.51	286.77
691.84	286.40
692.18	285.96
692.52	285.50
692.85	285.06
693.19	284.70
693.52	284.30
693.86	283.90
694.20	283.48
694.53	283.07
694.87	282.63
695.21	282.20
695.54	281.78
695.88	281.33
696.21	280.83
696.55	280.41
696.88	279.99
697.22	279.57
697.56	279.16
697.89	278.72
698.23	278.31
698.56	277.86
698.90	277.45
699.23	277.01
699.57	276.59
699.90	276.16
700.24	275.67
700.58	275.28
700.91	274.91
701.25	274.66
701.58	274.35
701.92	274.02
702.25	273.66
702.59	273.27
702.92	272.88
703.26	272.50
703.59	272.10
703.93	271.88
704.26	271.54
704.60	271.14
704.93	270.74
705.26	270.34
705.60	270.01
705.93	269.57
706.27	269.26
706.60	268.94
706.94	268.63
707.27	268.23
707.61	267.84
707.94	267.44
708.27	266.91
708.61	266.45
708.94	266.06
709.28	265.69
709.61	265.31
709.94	265.00
710.28	264.68
710.61	264.39
710.95	263.91
711.28	263.69
711.61	263.36
711.95	263.10
712.28	262.77
712.61	262.41
712.95	262.18
713.28	261.92
713.61	261.56
713.95	261.21
714.28	260.93
714.61	260.59
714.95	260.28
715.28	259.96
715.61	259.67
715.95	259.38
716.28	259.08
716.61	258.81
716.95	258.47
717.28	258.16
717.61	257.83
717.94	257.52
718.28	257.09
718.61	256.81
718.94	256.49
719.27	256.22
719.61	255.97
719.94	255.67
720.27	255.33
720.60	255.06
720.94	254.81
721.27	254.54
721.60	254.34
721.93	254.08
722.27	253.88
722.60	253.66
722.93	253.38
723.26	253.14
723.59	252.88
723.93	252.68
724.26	252.46
724.59	252.23
724.92	252.01
725.25	251.86
725.59	251.64
725.92	251.44
726.25	251.23
726.58	251.01
726.91	250.78
727.24	250.56
727.57	250.34
727.91	250.09
728.24	249.91
728.57	249.67
728.90	249.49
729.23	249.24
729.56	249.11
729.89	248.93
730.22	248.71
730.55	248.51
730.89	248.29
731.22	248.07
731.55	247.85
731.88	247.67
732.21	247.43
732.54	247.23
732.87	247.03
733.20	246.85
733.53	246.67
733.86	246.49
734.19	246.30
734.52	246.15
734.85	246.10
735.18	245.89
735.51	245.78
735.84	245.61
736.17	245.49
736.50	245.22
736.83	245.25
737.16	245.09
737.49	244.93
737.82	244.75
738.15	244.64
738.48	244.48
738.81	244.31
739.14	244.13
739.47	243.98
739.80	243.81
740.13	243.67
740.46	243.49
740.79	243.33
741.12	243.18
741.45	242.99
741.78	242.75
742.11	242.64
742.44	242.44
742.77	242.31
743.10	242.14
743.43	241.99
743.75	241.65
744.08	241.78
744.41	241.62
744.74	241.49
745.07	241.31
745.40	241.22
745.73	241.15
746.06	241.03
746.39	240.92
746.71	240.79
747.04	240.62
747.37	240.49
747.70	240.39
748.03	240.27
748.36	240.17
748.68	240.04
749.01	239.88
749.34	239.77
749.67	239.64
750.00	239.54
750.33	239.56
750.65	239.46
750.98	239.09
751.31	239.00
751.64	238.91
751.97	238.88
752.29	238.74
752.62	238.55
752.95	238.42
753.28	238.27
753.60	238.15
753.93	238.08
754.26	237.99
754.59	237.82
754.91	237.69
755.24	237.57
755.57	237.47
755.90	237.34
756.22	237.21
756.55	237.08
756.88	236.94
757.20	236.72
757.53	236.58
757.86	236.48
758.19	236.39
758.51	236.27
758.84	236.09
759.17	235.99
759.49	235.92
759.82	235.92
760.15	235.86
760.47	235.78
760.80	235.64
761.13	235.58
761.45	235.49
761.78	235.42
762.11	235.35
762.43	235.24
762.76	235.17
763.08	235.12
763.41	235.06
763.74	234.99
764.06	234.92
764.39	234.86
764.71	234.78
765.04	234.66
765.37	234.58
765.69	234.50
766.02	234.42
766.34	234.32
766.67	234.19
767.00	234.14
767.32	234.15
767.65	234.20
767.97	234.10
768.30	234.06
768.62	233.98
768.95	233.88
769.27	233.82
769.60	233.78
769.92	233.67
770.25	233.58
770.57	233.49
770.90	233.42
771.22	233.33
771.55	233.27
771.87	233.24
772.20	233.20
772.52	233.30
772.85	233.47
773.17	233.42
773.50	233.35
773.82	233.27
774.15	233.14
774.47	232.98
774.80	232.92
775.12	232.86
775.45	232.82
775.77	232.79
776.09	232.77
776.42	232.72
776.74	232.73
777.07	232.69
777.39	232.66
777.72	232.61
778.04	232.59
778.36	232.55
778.69	232.50
779.01	232.47
779.33	232.28
779.66	232.03
779.98	231.98
780.31	231.96
780.63	232.00
780.95	231.99
781.28	231.96
781.60	231.91
781.92	231.89
782.25	231.84
782.57	231.81
782.89	231.75
783.22	231.70
783.54	231.63
783.86	231.61
784.19	231.56
784.51	231.58
784.83	231.52
785.16	231.49
785.48	231.45
785.80	231.42
786.12	231.40
786.45	231.37
786.77	231.35
787.09	231.30
787.42	231.21
787.74	231.17
788.06	231.15
788.38	231.12
788.71	231.07
789.03	231.05
789.35	231.04
789.67	231.00
789.99	230.98
790.32	230.93
790.64	230.92
790.96	231.07
791.28	230.98
791.61	230.95
791.93	230.94
792.25	230.91
792.57	231.00
792.89	230.95
793.21	230.93
793.54	230.89
793.86	230.85
794.18	230.84
794.50	230.78
794.82	230.75
795.14	230.75
795.47	230.77
795.79	230.75
796.11	230.70
796.43	230.66
796.75	230.64
797.07	230.63
797.39	230.60
797.71	230.43
798.04	230.42
798.36	230.41
798.68	230.39
799.00	230.38
799.32	230.27
799.64	230.27
799.96	230.24
800.28	230.25
800.60	230.22
800.92	230.21
801.24	230.18
801.56	230.17
801.89	230.13
802.21	230.11
802.53	230.06
802.85	230.09
803.17	230.16
803.49	230.11
803.81	230.08
804.13	230.05
804.45	230.00
804.77	230.00
805.09	229.98
805.41	229.94
805.73	229.88
806.05	229.82
806.37	229.79
806.69	229.77
807.01	229.74
807.33	229.74
807.65	229.65
807.97	229.72
808.28	229.69
808.60	229.67
808.92	229.63
809.24	229.73
809.56	229.66
809.88	229.58
810.20	229.58
810.52	229.61
810.84	229.57
811.16	229.54
811.48	229.51
811.80	229.56
812.12	229.55
812.43	229.57
812.75	229.57
813.07	229.54
813.39	229.53
813.71	229.49
814.03	229.46
814.35	229.46
814.67	229.37
814.98	229.34
815.30	229.32
815.62	229.27
815.94	229.15
816.26	229.15
816.58	229.10
816.89	229.10
817.21	229.04
817.53	229.05
817.85	229.06
818.17	229.04
818.48	228.96
818.80	228.99
819.12	228.94
819.44	228.90
819.76	228.88
820.07	228.87
820.39	228.86
820.71	228.87
821.03	228.87
821.34	228.86
821.66	228.88
821.98	228.88
822.30	228.88
822.61	228.97
822.93	228.94
823.25	228.95
823.57	228.93
823.88	228.94
824.20	228.93
824.52	228.94
824.83	228.92
825.15	228.90
825.47	228.88
825.79	228.89
826.10	228.88
826.42	228.87
826.74	228.87
827.05	228.86
827.37	228.86
827.69	228.84
828.00	228.84
828.32	228.82
828.64	228.80
828.95	228.90
829.27	228.84
829.58	228.85
829.90	228.86
830.22	228.88
830.53	228.84
830.85	228.81
831.17	228.78
831.48	228.78
831.80	228.79
832.11	228.77
832.43	228.74
832.75	228.72
833.06	228.83
833.38	228.77
833.69	228.76
834.01	228.76
834.32	228.75
834.64	228.73
834.96	228.72
835.27	228.71
835.59	228.62
835.90	228.58
836.22	228.56
836.53	228.52
836.85	228.49
837.16	228.66
837.48	228.65
837.79	228.70
838.11	228.70
838.42	228.69
838.74	228.71
839.05	228.70
839.37	228.69
839.68	228.57
840.00	228.57
840.31	228.59
840.63	228.58
840.94	228.56
841.26	228.54
841.57	228.54
841.88	228.55
842.20	228.52
842.51	228.51
842.83	228.51
843.14	228.66
843.46	228.65
843.77	228.55
844.08	228.54
844.40	228.47
844.71	228.45
845.03	228.44
845.34	228.41
845.65	228.41
845.97	228.40
846.28	228.41
846.60	228.42
846.91	228.38
847.22	228.36
847.54	228.40
847.85	228.40
848.16	228.38
848.48	228.35
848.79	228.41
849.10	228.42
849.42	228.43
849.73	228.27
850.04	228.27
850.36	228.20
850.67	228.24
850.98	228.26
851.30	228.27
851.61	228.26
851.92	228.25
852.23	228.30
852.55	228.32
852.86	228.32
853.17	228.32
853.49	228.36
853.80	228.38
854.11	228.39
854.42	228.41
854.74	228.39
855.05	228.41
855.36	228.33
855.67	228.33
855.99	228.32
856.30	228.52
856.61	228.52
856.92	228.52
857.23	228.51
857.55	228.49
857.86	228.47
858.17	228.49
858.48	228.46
858.79	228.41
859.11	228.42
859.42	228.41
859.73	228.38
860.04	228.36
860.35	228.31
860.66	228.26
860.98	228.25
861.29	228.27
861.60	228.26
861.91	228.29
862.22	228.25
862.53	228.21
862.84	228.00
863.16	228.05
863.47	228.02
863.78	227.99
864.09	228.00
864.40	228.02
864.71	228.01
865.02	228.04
865.33	228.01
865.64	227.98
865.95	227.98
866.27	228.09
866.58	228.07
866.89	228.09
867.20	228.10
867.51	228.06
867.82	228.04
868.13	228.08
868.44	228.03
868.75	228.07
869.06	228.08
869.37	228.09
869.68	228.03
869.99	228.07
870.30	228.07
870.61	228.08
870.92	228.05
871.23	228.03
871.54	228.06
871.85	228.11
872.16	228.13
872.47	228.11
872.78	228.02
873.09	228.04
873.40	228.02
873.71	228.03
874.02	228.05
874.33	228.03
874.64	227.99
874.95	228.04
875.26	228.01
875.56	228.00
875.87	227.99
876.18	227.98
876.49	228.14
876.80	228.13
877.11	228.10
877.42	228.11
877.73	228.11
878.04	228.09
878.35	228.08
878.66	228.08
878.96	228.06
879.27	228.06
879.58	228.04
879.89	228.03
880.20	228.08
880.51	228.06
880.82	228.06
881.12	228.08
881.43	228.03
881.74	228.00
882.05	227.99
882.36	228.00
882.67	228.02
882.97	227.83
883.28	227.83
883.59	227.82
883.90	227.83
884.21	227.86
884.51	227.86
884.82	227.83
885.13	227.82
885.44	227.83
885.74	227.82
886.05	227.83
886.36	227.83
886.67	227.77
886.98	227.86
887.28	227.87
887.59	227.87
887.90	227.88
888.20	227.89
888.51	227.93
888.82	227.89
889.13	227.90
889.43	228.06
889.74	228.05
890.05	228.04
890.35	228.02
890.66	227.98
890.97	227.97
891.28	227.95
891.58	227.96
891.89	227.96
892.20	227.95
892.50	227.92
892.81	227.91
893.12	227.91
893.42	227.83
893.73	227.84
894.04	227.83
894.34	227.86
894.65	227.85
894.95	227.83
895.26	227.85
895.57	227.92
895.87	227.74
896.18	227.79
896.48	227.80
896.79	227.80
897.10	227.83
897.40	227.84
897.71	227.87
898.01	227.86
898.32	227.88
898.63	227.88
898.93	227.90
899.24	227.90
899.54	227.90
899.85	227.90
900.15	227.88
900.46	227.89
900.76	227.90
901.07	227.91
901.38	227.91
901.68	227.93
901.99	227.83
902.29	227.84
902.60	227.82
902.90	227.80
903.21	227.80
903.51	227.77
903.82	227.79
904.12	227.79
904.43	227.80
904.73	227.78
905.03	227.80
905.34	227.97
905.64	227.97
905.95	227.96
906.25	227.95
906.56	227.94
906.86	227.93
907.17	227.91
907.47	227.92
907.77	227.89
908.08	227.86
908.38	227.87
908.69	227.89
908.99	227.90
909.30	227.92
909.60	227.92
909.90	227.92
910.21	227.87
910.51	227.83
910.81	227.82
911.12	227.83
911.42	227.82
911.73	227.63
912.03	227.64
912.33	227.67
912.64	227.66
912.94	227.66
913.24	227.63
913.55	227.61
913.85	227.60
914.15	227.63
914.46	227.65
914.76	227.62
915.06	227.60
915.37	227.58
915.67	227.57
915.97	227.57
916.27	227.56
916.58	227.58
916.88	227.59
917.18	227.58
917.49	227.70
917.79	227.69
918.09	227.72
918.39	227.76
918.70	227.73
919.00	227.75
919.30	227.82
919.60	227.80
919.91	227.79
920.21	227.80
920.51	227.76
920.81	227.75
921.12	227.78
921.42	227.78
921.72	227.80
922.02	227.81
922.32	227.83
922.63	227.84
922.93	227.93
923.23	227.93
923.53	227.92
923.83	227.79
924.13	227.81
924.44	227.80
924.74	227.82
925.04	227.87
925.34	227.86
925.64	227.79
925.94	227.79
926.24	227.89
926.55	227.87
926.85	227.90
927.15	227.90
927.45	227.89
927.75	227.90
928.05	227.89
928.35	227.87
928.65	227.90
928.95	227.91
929.26	227.83
929.56	227.87
929.86	227.89
930.16	227.88
930.46	227.87
930.76	227.88
931.06	227.81
931.36	227.77
931.66	227.80
931.96	227.83
932.26	227.84
932.56	227.77
932.86	227.79
933.16	227.79
933.46	227.79
933.76	227.76
934.06	227.79
934.36	227.85
934.66	227.85
934.96	227.83
935.26	227.82
935.56	227.84
935.86	227.80
936.16	227.77
936.46	227.75
936.76	227.75
937.06	227.72
937.36	227.74
937.66	227.73
937.96	227.72
938.26	227.68
938.56	227.67
938.86	227.68
939.16	227.71
939.46	227.73
939.76	227.73
940.06	227.73
940.35	227.70
940.65	227.61
940.95	227.63
941.25	227.58
941.55	227.56
941.85	227.54
942.15	227.57
942.45	227.62
942.75	227.62
943.04	227.64
943.34	227.66
943.64	227.64
943.94	227.63
944.24	227.62
944.54	227.64
944.84	227.64
945.13	227.62
945.43	227.58
945.73	227.57
946.03	227.56
946.33	227.55
946.62	227.53
946.92	227.54
947.22	227.55
947.52	227.56
947.82	227.60
948.11	227.58
948.41	227.55
948.71	227.49
949.01	227.51
949.31	227.50
949.60	227.48
949.90	227.51
950.20	227.50
950.50	227.49
950.79	227.47
951.09	227.49
951.39	227.49
951.69	227.47
951.98	227.50
952.28	227.50
952.58	227.50
952.87	227.51
953.17	227.53
953.47	227.51
953.76	227.51
954.06	227.48
954.36	227.45
954.66	227.45
954.95	227.51
955.25	227.52
955.55	227.52
955.84	227.50
956.14	227.52
956.44	227.53
956.73	227.51
957.03	227.52
957.32	227.52
957.62	227.52
957.92	227.56
958.21	227.54
958.51	227.75
958.81	227.77
959.10	227.79
959.40	227.82
959.69	227.82
959.99	227.85
960.29	227.85
960.58	227.85
960.88	227.92
961.17	227.89
961.47	227.90
961.76	227.89
962.06	227.92
962.36	227.88
962.65	227.88
962.95	227.89
963.24	227.87
963.54	227.86
963.83	227.87
964.13	227.85
964.42	227.84
964.72	227.69
965.01	227.68
965.31	227.67
965.60	227.63
965.90	227.75
966.19	227.70
966.49	227.72
966.78	227.71
967.08	227.69
967.37	227.70
967.67	227.66
967.96	227.69
968.26	227.67
968.55	227.69
968.85	227.69
969.14	227.70
969.43	227.71
969.73	227.69
970.02	227.68
970.32	227.67
970.61	227.63
970.91	227.58
971.20	227.54
971.49	227.53
971.79	227.54
972.08	227.40
972.38	227.42
972.67	227.39
972.96	227.42
973.26	227.37
973.55	227.43
973.85	227.42
974.14	227.40
974.43	227.42
974.73	227.40
975.02	227.39
975.31	227.38
975.61	227.37
975.90	227.37
976.19	227.35
976.49	227.36
976.78	227.38
977.07	227.38
977.37	227.40
977.66	227.42
977.95	227.41
978.24	227.43
978.54	227.46
978.83	227.46
979.12	227.44
979.42	227.45
979.71	227.40
980.00	227.40
980.29	227.41
980.59	227.38
980.88	227.42
981.17	227.42
981.46	227.42
981.76	227.42
982.05	227.47
982.34	227.50
982.63	227.50
982.93	227.50
983.22	227.54
983.51	227.56
983.80	227.57
984.09	227.58
984.39	227.57
984.68	227.54
984.97	227.56
985.26	227.54
985.55	227.56
985.85	227.54
986.14	227.58
986.43	227.59
986.72	227.58
987.01	227.52
987.30	227.53
987.59	227.51
987.89	227.52
988.18	227.47
988.47	227.45
988.76	227.43
989.05	227.42
989.34	227.39
989.63	227.42
989.92	227.40
990.22	227.39
990.51	227.39
990.80	227.38
991.09	227.39
991.38	227.42
991.67	227.40
991.96	227.39
992.25	227.38
992.54	227.35
992.83	227.36
993.12	227.35
993.41	227.38
993.70	227.45
993.99	227.48
994.28	227.51
994.58	227.54
994.87	227.53
995.16	227.53
995.45	227.51
995.74	227.45
996.03	227.48
996.32	227.52
996.61	227.55
996.90	227.55
997.19	227.54
997.48	227.55
997.77	227.53
998.06	227.54
998.34	227.54
998.63	227.54
998.92	227.56
999.21	227.58
999.50	227.58
999.79	227.51
1000.08	227.49
1000.37	227.49
1000.66	227.47
1000.95	227.51
1001.24	227.52
1001.53	227.55
1001.82	227.54
1002.11	227.50
1002.40	227.51
1002.68	227.54
1002.97	227.68
1003.26	227.66
1003.55	227.62
1003.84	227.64
1004.13	227.70
1004.42	227.68
1004.71	227.69
1004.99	227.67
1005.28	227.71
1005.57	227.69
1005.86	227.69
1006.15	227.68
1006.44	227.64
1006.72	227.66
1007.01	227.63
1007.30	227.64
1007.59	227.62
1007.88	227.62
1008.17	227.63
1008.45	227.59
1008.74	227.51
1009.03	227.42
1009.32	227.42
1009.60	227.42
1009.89	227.40
1010.18	227.32
1010.47	227.32
1010.76	227.31
1011.04	227.30
1011.33	227.30
1011.62	227.31
1011.91	227.33
1012.19	227.34
1012.48	227.36
1012.77	227.36
1013.05	227.41
1013.34	227.40
1013.63	227.39
1013.92	227.40
1014.20	227.40
1014.49	227.41
1014.78	227.43
1015.06	227.38
1015.35	227.37
1015.64	227.40
1015.92	227.43
1016.21	227.45
1016.50	227.45
1016.78	227.46
1017.07	227.48
1017.36	227.45
1017.64	227.42
1017.93	227.44
1018.22	227.42
1018.50	227.41
1018.79	227.40
1019.08	227.34
1019.36	227.36
1019.65	227.35
1019.93	227.39
1020.22	227.41
1020.51	227.50
1020.79	227.47
1021.08	227.20
1021.36	227.01
1021.65	227.40
1021.94	227.28
1022.22	227.56
1022.51	227.14
1022.79	228.18
1023.08	227.62
1023.36	229.52
1023.65	226.92
>>>>>End Processed Spectral Data<<<<<
