SpectraSuite Data File
++++++++++++++++++++++++++++++++++++
Date: Tue Oct 06 11:53:14 EDT 2015
User: lab3
Dark Spectrum Present: No
Reference Spectrum Present: No
Number of Sampled Component Spectra: 1
Spectrometers: USB2E7196
Integration Time (usec): 66000 (USB2E7196)
Spectra Averaged: 1000 (USB2E7196)
Boxcar Smoothing: 10 (USB2E7196)
Correct for Electrical Dark: No (USB2E7196)
Strobe/Lamp Enabled: No (USB2E7196)
Correct for Detector Non-linearity: No (USB2E7196)
Correct for Stray Light: No (USB2E7196)
Number of Pixels in Processed Spectrum: 2048
>>>>>Begin Processed Spectral Data<<<<<
339.09	0.00
339.48	216.55
339.86	218.05
340.24	219.28
340.63	220.96
341.01	224.94
341.39	223.56
341.78	225.03
342.16	226.44
342.54	226.74
342.93	215.05
343.31	225.91
343.69	226.46
344.07	226.92
344.46	227.37
344.84	227.76
345.22	227.96
345.60	228.24
345.99	228.45
346.37	228.59
346.75	228.70
347.13	228.79
347.52	228.87
347.90	228.98
348.28	229.03
348.66	229.10
349.05	229.07
349.43	229.16
349.81	229.22
350.19	229.28
350.57	229.36
350.96	229.46
351.34	229.57
351.72	229.66
352.10	229.78
352.48	229.86
352.87	229.90
353.25	229.97
353.63	230.02
354.01	230.08
354.39	230.14
354.77	230.22
355.15	230.34
355.54	230.37
355.92	230.38
356.30	230.45
356.68	230.63
357.06	230.72
357.44	230.75
357.82	230.81
358.20	231.02
358.58	231.06
358.97	231.12
359.35	231.21
359.73	231.31
360.11	231.35
360.49	231.41
360.87	231.46
361.25	231.52
361.63	231.62
362.01	231.68
362.39	231.71
362.77	231.76
363.15	231.78
363.53	231.83
363.91	231.87
364.29	231.90
364.67	231.74
365.05	231.75
365.43	231.79
365.81	231.84
366.19	231.79
366.57	231.88
366.95	231.89
367.33	231.86
367.71	231.85
368.09	231.89
368.47	231.87
368.85	231.87
369.23	231.90
369.61	231.83
369.99	231.87
370.37	231.86
370.75	231.98
371.13	231.94
371.51	231.88
371.89	231.86
372.27	231.84
372.65	231.83
373.03	231.79
373.41	231.75
373.78	231.68
374.16	231.56
374.54	231.45
374.92	231.38
375.30	231.34
375.68	231.25
376.06	231.21
376.44	231.17
376.82	231.12
377.19	231.06
377.57	231.02
377.95	230.90
378.33	230.85
378.71	230.63
379.09	230.59
379.47	230.57
379.84	230.52
380.22	230.44
380.60	230.36
380.98	230.32
381.36	230.27
381.73	230.20
382.11	230.19
382.49	230.16
382.87	230.10
383.25	230.05
383.62	230.23
384.00	230.17
384.38	230.13
384.76	230.13
385.13	230.16
385.51	230.12
385.89	230.07
386.27	230.05
386.64	230.06
387.02	230.01
387.40	229.97
387.78	229.94
388.15	229.92
388.53	229.90
388.91	229.88
389.29	229.85
389.66	229.87
390.04	229.83
390.42	229.84
390.79	229.85
391.17	229.84
391.55	229.63
391.92	229.63
392.30	229.64
392.68	229.60
393.05	229.58
393.43	229.59
393.81	229.62
394.18	229.59
394.56	229.59
394.94	229.65
395.31	229.67
395.69	229.75
396.06	229.81
396.44	229.86
396.82	229.87
397.19	230.01
397.57	230.03
397.95	230.10
398.32	230.09
398.70	230.17
399.07	230.26
399.45	230.32
399.82	230.39
400.20	230.45
400.58	230.54
400.95	230.56
401.33	230.69
401.70	230.90
402.08	231.05
402.45	231.19
402.83	231.36
403.20	231.52
403.58	231.64
403.95	231.85
404.33	232.07
404.71	232.28
405.08	232.58
405.46	232.82
405.83	233.09
406.21	233.38
406.58	233.71
406.96	234.03
407.33	234.42
407.70	234.83
408.08	235.39
408.45	235.89
408.83	236.44
409.20	236.93
409.58	237.40
409.95	238.03
410.33	238.70
410.70	239.34
411.08	240.10
411.45	240.91
411.82	241.72
412.20	242.65
412.57	243.76
412.95	244.64
413.32	245.79
413.69	246.99
414.07	248.25
414.44	249.64
414.82	251.05
415.19	252.71
415.56	254.39
415.94	256.13
416.31	258.09
416.68	260.05
417.06	262.34
417.43	264.47
417.81	266.91
418.18	269.41
418.55	272.15
418.93	275.01
419.30	277.99
419.67	281.15
420.04	284.42
420.42	287.85
420.79	291.75
421.16	295.75
421.54	299.77
421.91	303.97
422.28	308.35
422.66	313.05
423.03	317.53
423.40	322.24
423.77	327.28
424.15	332.43
424.52	337.76
424.89	343.55
425.26	349.29
425.64	354.63
426.01	360.62
426.38	366.74
426.75	373.02
427.13	379.44
427.50	386.17
427.87	393.11
428.24	400.11
428.61	406.84
428.99	414.07
429.36	422.08
429.73	429.71
430.10	437.32
430.47	445.10
430.85	453.17
431.22	461.77
431.59	470.56
431.96	479.14
432.33	488.73
432.70	497.83
433.08	508.66
433.45	518.84
433.82	528.82
434.19	540.02
434.56	551.02
434.93	561.70
435.30	572.31
435.68	584.37
436.05	596.15
436.42	607.96
436.79	618.70
437.16	630.28
437.53	642.78
437.90	655.27
438.27	667.46
438.64	680.56
439.01	692.51
439.38	703.59
439.75	714.26
440.13	726.34
440.50	737.86
440.87	746.98
441.24	757.00
441.61	768.04
441.98	776.12
442.35	785.71
442.72	795.50
443.09	804.89
443.46	811.04
443.83	815.60
444.20	819.32
444.57	824.88
444.94	828.24
445.31	831.55
445.68	834.36
446.05	836.44
446.42	836.05
446.79	835.42
447.16	834.82
447.53	834.41
447.90	830.82
448.27	827.24
448.64	821.76
449.01	818.07
449.37	810.37
449.74	803.50
450.11	794.57
450.48	784.72
450.85	774.75
451.22	766.09
451.59	757.69
451.96	750.19
452.33	739.23
452.70	729.40
453.07	717.58
453.43	705.82
453.80	694.39
454.17	683.45
454.54	673.26
454.91	661.77
455.28	650.82
455.65	640.42
456.02	629.59
456.38	620.85
456.75	609.58
457.12	600.51
457.49	591.31
457.86	582.69
458.23	575.12
458.59	566.75
458.96	558.19
459.33	550.66
459.70	542.97
460.07	537.06
460.43	530.11
460.80	523.60
461.17	517.90
461.54	511.80
461.91	506.12
462.27	500.35
462.64	495.61
463.01	490.21
463.38	484.85
463.74	480.00
464.11	475.70
464.48	471.81
464.85	467.56
465.21	464.33
465.58	460.73
465.95	456.62
466.32	453.32
466.68	450.09
467.05	446.82
467.42	443.65
467.78	440.27
468.15	437.18
468.52	434.91
468.88	431.91
469.25	429.17
469.62	426.97
469.98	424.58
470.35	422.43
470.72	420.51
471.08	418.52
471.45	416.83
471.82	414.95
472.18	413.03
472.55	411.80
472.92	410.23
473.28	408.99
473.65	407.67
474.02	406.46
474.38	405.44
474.75	404.82
475.11	403.95
475.48	403.55
475.85	403.13
476.21	402.88
476.58	402.71
476.94	402.91
477.31	402.96
477.67	403.07
478.04	403.39
478.41	403.81
478.77	404.43
479.14	404.81
479.50	405.60
479.87	406.59
480.23	407.58
480.60	408.53
480.96	409.51
481.33	410.96
481.69	412.41
482.06	413.83
482.42	415.19
482.79	416.82
483.15	418.70
483.52	420.85
483.88	422.91
484.25	425.12
484.61	427.43
484.98	429.88
485.34	432.69
485.71	435.59
486.07	438.66
486.44	441.71
486.80	445.13
487.17	448.61
487.53	452.44
487.90	456.42
488.26	460.77
488.62	465.32
488.99	469.93
489.35	474.78
489.72	480.01
490.08	485.46
490.44	491.03
490.81	496.81
491.17	502.73
491.54	509.01
491.90	515.46
492.26	522.30
492.63	529.48
492.99	536.90
493.36	544.61
493.72	552.75
494.08	561.04
494.45	569.74
494.81	578.86
495.17	588.14
495.54	597.97
495.90	608.20
496.26	618.71
496.63	629.42
496.99	640.54
497.35	652.08
497.72	664.03
498.08	676.37
498.44	688.99
498.80	702.40
499.17	716.19
499.53	730.34
499.89	744.96
500.26	759.66
500.62	774.68
500.98	790.39
501.34	806.22
501.71	822.84
502.07	839.75
502.43	857.08
502.79	874.53
503.16	892.43
503.52	910.52
503.88	929.03
504.24	948.00
504.60	967.26
504.97	986.91
505.33	1007.00
505.69	1028.13
506.05	1049.29
506.41	1070.28
506.78	1091.54
507.14	1113.65
507.50	1136.21
507.86	1159.30
508.22	1182.42
508.59	1205.35
508.95	1229.09
509.31	1253.29
509.67	1277.98
510.03	1302.57
510.39	1327.46
510.75	1352.45
511.12	1377.71
511.48	1402.81
511.84	1428.00
512.20	1453.47
512.56	1479.59
512.92	1505.50
513.28	1530.89
513.64	1556.73
514.00	1582.57
514.37	1608.69
514.73	1634.62
515.09	1659.88
515.45	1685.25
515.81	1710.62
516.17	1736.10
516.53	1760.94
516.89	1785.76
517.25	1810.71
517.61	1835.47
517.97	1860.40
518.33	1884.66
518.69	1908.69
519.05	1932.98
519.41	1957.20
519.77	1981.32
520.13	2004.90
520.49	2028.44
520.85	2052.07
521.21	2075.16
521.57	2098.84
521.93	2121.22
522.29	2143.95
522.65	2166.26
523.01	2188.50
523.37	2210.02
523.73	2231.83
524.09	2253.68
524.45	2275.27
524.81	2296.15
525.17	2316.67
525.53	2336.52
525.89	2356.90
526.25	2376.51
526.61	2395.02
526.97	2413.65
527.33	2431.92
527.68	2449.08
528.04	2465.65
528.40	2481.20
528.76	2497.30
529.12	2512.08
529.48	2527.49
529.84	2541.60
530.20	2556.51
530.56	2570.31
530.91	2584.34
531.27	2597.27
531.63	2609.17
531.99	2620.52
532.35	2630.68
532.71	2640.60
533.07	2650.94
533.42	2659.63
533.78	2669.10
534.14	2679.06
534.50	2687.52
534.86	2696.01
535.21	2702.58
535.57	2709.48
535.93	2716.73
536.29	2722.66
536.65	2728.53
537.00	2732.40
537.36	2736.71
537.72	2739.46
538.08	2741.94
538.44	2743.17
538.79	2745.06
539.15	2746.15
539.51	2746.73
539.87	2747.37
540.22	2746.41
540.58	2745.71
540.94	2744.85
541.29	2742.84
541.65	2739.24
542.01	2735.78
542.37	2731.25
542.72	2728.63
543.08	2724.30
543.44	2719.86
543.79	2713.83
544.15	2707.55
544.51	2702.11
544.87	2694.75
545.22	2686.91
545.58	2679.02
545.94	2671.72
546.29	2662.95
546.65	2653.96
547.01	2645.10
547.36	2635.89
547.72	2626.68
548.07	2616.04
548.43	2605.26
548.79	2593.49
549.14	2582.55
549.50	2571.36
549.86	2559.74
550.21	2546.55
550.57	2534.53
550.92	2520.35
551.28	2507.27
551.64	2494.72
551.99	2481.98
552.35	2469.17
552.70	2456.37
553.06	2443.97
553.41	2430.68
553.77	2416.72
554.13	2402.84
554.48	2388.36
554.84	2373.70
555.19	2359.60
555.55	2345.10
555.90	2330.45
556.26	2316.77
556.61	2302.06
556.97	2286.54
557.32	2271.46
557.68	2256.38
558.03	2240.97
558.39	2226.51
558.74	2212.09
559.10	2195.94
559.45	2180.29
559.81	2165.58
560.16	2150.53
560.52	2135.11
560.87	2120.38
561.23	2105.20
561.58	2090.34
561.94	2074.71
562.29	2059.26
562.64	2043.77
563.00	2028.58
563.35	2014.04
563.71	1999.09
564.06	1984.04
564.42	1969.51
564.77	1954.86
565.12	1940.65
565.48	1926.35
565.83	1912.26
566.19	1898.13
566.54	1884.26
566.89	1869.31
567.25	1853.94
567.60	1839.62
567.96	1824.76
568.31	1809.29
568.66	1794.55
569.02	1780.12
569.37	1765.93
569.72	1751.91
570.08	1738.01
570.43	1723.73
570.78	1708.83
571.14	1693.94
571.49	1679.53
571.84	1665.86
572.20	1651.01
572.55	1636.43
572.90	1621.40
573.26	1606.20
573.61	1590.91
573.96	1576.30
574.31	1562.23
574.67	1548.43
575.02	1533.70
575.37	1518.91
575.72	1504.32
576.08	1490.16
576.43	1475.79
576.78	1461.57
577.13	1447.39
577.49	1433.34
577.84	1419.33
578.19	1405.37
578.54	1391.52
578.90	1377.70
579.25	1363.34
579.60	1350.00
579.95	1336.75
580.30	1323.42
580.66	1310.20
581.01	1297.21
581.36	1283.98
581.71	1270.73
582.06	1257.43
582.42	1244.35
582.77	1231.68
583.12	1219.23
583.47	1206.65
583.82	1194.30
584.17	1181.86
584.53	1169.67
584.88	1157.57
585.23	1145.44
585.58	1133.62
585.93	1121.93
586.28	1110.75
586.63	1099.55
586.98	1088.21
587.34	1077.13
587.69	1066.00
588.04	1055.19
588.39	1044.49
588.74	1033.59
589.09	1023.05
589.44	1012.30
589.79	1002.09
590.14	991.99
590.49	981.99
590.84	972.20
591.19	962.43
591.54	952.71
591.89	942.61
592.25	932.75
592.60	922.88
592.95	913.24
593.30	903.56
593.65	893.78
594.00	884.30
594.35	875.61
594.70	866.37
595.05	857.82
595.40	849.04
595.75	840.02
596.10	831.60
596.45	823.06
596.80	814.81
597.15	806.58
597.50	798.38
597.85	790.44
598.19	782.54
598.54	774.57
598.89	766.82
599.24	759.45
599.59	752.16
599.94	745.35
600.29	738.34
600.64	731.49
600.99	724.53
601.34	717.73
601.69	710.42
602.04	703.72
602.39	697.06
602.74	690.60
603.08	684.34
603.43	678.08
603.78	671.92
604.13	665.89
604.48	659.84
604.83	653.97
605.18	648.17
605.53	642.43
605.87	636.68
606.22	631.15
606.57	625.54
606.92	619.84
607.27	614.25
607.62	608.94
607.96	603.69
608.31	598.78
608.66	593.79
609.01	589.03
609.36	584.37
609.70	579.59
610.05	574.82
610.40	570.17
610.75	565.52
611.10	561.13
611.44	556.64
611.79	552.33
612.14	548.04
612.49	543.67
612.83	539.49
613.18	535.50
613.53	531.56
613.88	527.65
614.22	523.95
614.57	520.10
614.92	516.36
615.27	512.67
615.61	509.04
615.96	505.47
616.31	501.89
616.65	498.35
617.00	494.92
617.35	491.58
617.70	488.32
618.04	485.15
618.39	481.99
618.74	479.00
619.08	475.89
619.43	472.85
619.78	469.92
620.12	467.05
620.47	464.33
620.82	461.58
621.16	458.89
621.51	456.35
621.85	453.87
622.20	451.39
622.55	448.93
622.89	446.52
623.24	444.24
623.59	441.95
623.93	439.74
624.28	437.65
624.62	435.75
624.97	433.82
625.32	431.76
625.66	429.64
626.01	427.60
626.35	425.71
626.70	423.77
627.04	422.01
627.39	420.14
627.73	418.32
628.08	416.59
628.43	414.92
628.77	413.18
629.12	411.55
629.46	409.94
629.81	408.45
630.15	406.83
630.50	405.22
630.84	403.74
631.19	402.32
631.53	400.93
631.88	399.31
632.22	397.78
632.57	396.56
632.91	395.35
633.26	394.18
633.60	392.97
633.95	391.82
634.29	390.54
634.64	389.39
634.98	388.11
635.32	386.95
635.67	385.85
636.01	384.80
636.36	383.77
636.70	382.85
637.05	381.74
637.39	380.81
637.73	379.88
638.08	378.97
638.42	378.05
638.77	377.03
639.11	376.01
639.45	375.00
639.80	373.95
640.14	372.99
640.49	372.01
640.83	371.04
641.17	370.08
641.52	369.15
641.86	368.24
642.20	367.51
642.55	366.59
642.89	365.70
643.23	364.80
643.58	364.00
643.92	363.03
644.26	362.18
644.61	361.38
644.95	360.57
645.29	359.68
645.64	358.78
645.98	357.94
646.32	357.22
646.66	356.47
647.01	355.68
647.35	354.94
647.69	354.16
648.04	353.44
648.38	352.69
648.72	351.99
649.06	351.30
649.41	350.54
649.75	349.84
650.09	349.20
650.43	348.54
650.78	347.80
651.12	347.15
651.46	346.50
651.80	345.84
652.14	345.17
652.49	344.56
652.83	343.92
653.17	343.29
653.51	342.68
653.85	342.11
654.20	341.51
654.54	340.83
654.88	340.22
655.22	339.59
655.56	338.90
655.90	338.24
656.25	337.58
656.59	336.94
656.93	336.37
657.27	335.85
657.61	335.25
657.95	334.73
658.29	334.16
658.64	333.63
658.98	333.02
659.32	332.41
659.66	331.83
660.00	331.29
660.34	330.75
660.68	330.16
661.02	329.53
661.36	328.96
661.70	328.41
662.05	327.86
662.39	327.37
662.73	326.96
663.07	326.54
663.41	326.05
663.75	325.50
664.09	324.96
664.43	324.33
664.77	323.80
665.11	323.17
665.45	322.61
665.79	322.06
666.13	321.51
666.47	321.00
666.81	320.45
667.15	319.85
667.49	319.34
667.83	318.90
668.17	318.40
668.51	317.91
668.85	317.50
669.19	317.12
669.53	316.60
669.87	316.07
670.21	315.55
670.55	315.07
670.89	314.70
671.23	314.24
671.57	313.81
671.91	313.40
672.25	313.01
672.58	312.64
672.92	312.15
673.26	311.75
673.60	311.33
673.94	310.92
674.28	310.55
674.62	310.15
674.96	309.66
675.30	309.25
675.64	308.82
675.97	308.31
676.31	307.78
676.65	307.30
676.99	306.90
677.33	306.41
677.67	305.95
678.01	305.39
678.34	304.93
678.68	304.46
679.02	303.98
679.36	303.52
679.70	303.03
680.04	302.60
680.37	302.15
680.71	301.72
681.05	301.28
681.39	300.81
681.73	300.31
682.06	299.82
682.40	299.38
682.74	298.97
683.08	298.64
683.42	298.20
683.75	297.79
684.09	297.27
684.43	296.81
684.77	296.34
685.10	295.93
685.44	295.52
685.78	295.08
686.12	294.64
686.45	294.19
686.79	293.70
687.13	293.27
687.46	292.80
687.80	292.34
688.14	291.83
688.48	291.37
688.81	290.91
689.15	290.55
689.49	290.09
689.82	289.61
690.16	289.04
690.50	288.59
690.83	288.12
691.17	287.66
691.51	287.22
691.84	286.83
692.18	286.38
692.52	285.90
692.85	285.47
693.19	285.08
693.52	284.64
693.86	284.22
694.20	283.78
694.53	283.35
694.87	282.86
695.21	282.41
695.54	281.99
695.88	281.54
696.21	281.02
696.55	280.57
696.88	280.12
697.22	279.68
697.56	279.26
697.89	278.78
698.23	278.36
698.56	277.92
698.90	277.48
699.23	277.03
699.57	276.62
699.90	276.18
700.24	275.70
700.58	275.30
700.91	274.93
701.25	274.67
701.58	274.34
701.92	274.03
702.25	273.67
702.59	273.25
702.92	272.87
703.26	272.48
703.59	272.09
703.93	271.86
704.26	271.50
704.60	271.10
704.93	270.72
705.26	270.31
705.60	269.96
705.93	269.54
706.27	269.21
706.60	268.86
706.94	268.54
707.27	268.14
707.61	267.75
707.94	267.34
708.27	266.81
708.61	266.37
708.94	265.96
709.28	265.59
709.61	265.22
709.94	264.88
710.28	264.55
710.61	264.26
710.95	263.77
711.28	263.55
711.61	263.22
711.95	262.95
712.28	262.63
712.61	262.28
712.95	262.05
713.28	261.80
713.61	261.44
713.95	261.08
714.28	260.79
714.61	260.48
714.95	260.17
715.28	259.86
715.61	259.57
715.95	259.28
716.28	258.98
716.61	258.72
716.95	258.41
717.28	258.11
717.61	257.80
717.94	257.51
718.28	257.11
718.61	256.81
718.94	256.49
719.27	256.22
719.61	255.98
719.94	255.68
720.27	255.32
720.60	255.07
720.94	254.81
721.27	254.56
721.60	254.34
721.93	254.09
722.27	253.89
722.60	253.67
722.93	253.39
723.26	253.17
723.59	252.89
723.93	252.69
724.26	252.47
724.59	252.23
724.92	252.01
725.25	251.85
725.59	251.65
725.92	251.48
726.25	251.25
726.58	251.03
726.91	250.79
727.24	250.60
727.57	250.37
727.91	250.13
728.24	249.94
728.57	249.71
728.90	249.54
729.23	249.28
729.56	249.17
729.89	249.00
730.22	248.80
730.55	248.62
730.89	248.42
731.22	248.20
731.55	248.02
731.88	247.84
732.21	247.62
732.54	247.41
732.87	247.23
733.20	247.07
733.53	246.89
733.86	246.74
734.19	246.54
734.52	246.42
734.85	246.38
735.18	246.20
735.51	246.09
735.84	245.93
736.17	245.83
736.50	245.58
736.83	245.61
737.16	245.44
737.49	245.29
737.82	245.11
738.15	244.99
738.48	244.83
738.81	244.68
739.14	244.51
739.47	244.37
739.80	244.20
740.13	244.06
740.46	243.89
740.79	243.71
741.12	243.57
741.45	243.39
741.78	243.13
742.11	243.02
742.44	242.83
742.77	242.70
743.10	242.52
743.43	242.37
743.75	242.06
744.08	242.18
744.41	242.04
744.74	241.90
745.07	241.73
745.40	241.64
745.73	241.58
746.06	241.45
746.39	241.34
746.71	241.21
747.04	241.06
747.37	240.92
747.70	240.83
748.03	240.71
748.36	240.63
748.68	240.51
749.01	240.35
749.34	240.25
749.67	240.15
750.00	240.06
750.33	240.07
750.65	239.97
750.98	239.62
751.31	239.53
751.64	239.44
751.97	239.43
752.29	239.29
752.62	239.10
752.95	238.98
753.28	238.84
753.60	238.72
753.93	238.67
754.26	238.59
754.59	238.43
754.91	238.29
755.24	238.17
755.57	238.14
755.90	238.03
756.22	237.90
756.55	237.76
756.88	237.62
757.20	237.40
757.53	237.26
757.86	237.16
758.19	237.07
758.51	236.97
758.84	236.79
759.17	236.68
759.49	236.60
759.82	236.61
760.15	236.54
760.47	236.46
760.80	236.33
761.13	236.27
761.45	236.19
761.78	236.13
762.11	236.06
762.43	235.89
762.76	235.82
763.08	235.77
763.41	235.71
763.74	235.65
764.06	235.57
764.39	235.51
764.71	235.43
765.04	235.32
765.37	235.23
765.69	235.16
766.02	235.09
766.34	235.01
766.67	234.88
767.00	234.84
767.32	234.86
767.65	234.90
767.97	234.81
768.30	234.75
768.62	234.69
768.95	234.60
769.27	234.54
769.60	234.50
769.92	234.41
770.25	234.32
770.57	234.23
770.90	234.18
771.22	234.11
771.55	234.05
771.87	234.02
772.20	233.97
772.52	234.08
772.85	234.24
773.17	234.19
773.50	234.12
773.82	234.04
774.15	233.91
774.47	233.75
774.80	233.69
775.12	233.65
775.45	233.60
775.77	233.58
776.09	233.54
776.42	233.50
776.74	233.50
777.07	233.45
777.39	233.43
777.72	233.38
778.04	233.36
778.36	233.30
778.69	233.26
779.01	233.24
779.33	233.04
779.66	232.80
779.98	232.75
780.31	232.73
780.63	232.77
780.95	232.76
781.28	232.72
781.60	232.68
781.92	232.65
782.25	232.61
782.57	232.57
782.89	232.52
783.22	232.47
783.54	232.40
783.86	232.38
784.19	232.34
784.51	232.36
784.83	232.30
785.16	232.27
785.48	232.24
785.80	232.21
786.12	232.18
786.45	232.14
786.77	232.12
787.09	232.07
787.42	231.98
787.74	231.95
788.06	231.94
788.38	231.91
788.71	231.86
789.03	231.83
789.35	231.83
789.67	231.79
789.99	231.78
790.32	231.74
790.64	231.74
790.96	231.88
791.28	231.78
791.61	231.76
791.93	231.73
792.25	231.70
792.57	231.81
792.89	231.76
793.21	231.76
793.54	231.72
793.86	231.67
794.18	231.65
794.50	231.60
794.82	231.58
795.14	231.59
795.47	231.60
795.79	231.58
796.11	231.51
796.43	231.48
796.75	231.45
797.07	231.45
797.39	231.41
797.71	231.24
798.04	231.24
798.36	231.25
798.68	231.23
799.00	231.22
799.32	231.10
799.64	231.11
799.96	231.08
800.28	231.10
800.60	231.08
800.92	231.08
801.24	231.04
801.56	231.03
801.89	230.99
802.21	230.99
802.53	230.94
802.85	230.96
803.17	231.05
803.49	231.00
803.81	230.97
804.13	230.95
804.45	230.91
804.77	230.89
805.09	230.86
805.41	230.84
805.73	230.81
806.05	230.77
806.37	230.75
806.69	230.73
807.01	230.69
807.33	230.71
807.65	230.63
807.97	230.71
808.28	230.67
808.60	230.66
808.92	230.61
809.24	230.71
809.56	230.67
809.88	230.58
810.20	230.58
810.52	230.59
810.84	230.55
811.16	230.53
811.48	230.49
811.80	230.53
812.12	230.52
812.43	230.52
812.75	230.52
813.07	230.49
813.39	230.47
813.71	230.43
814.03	230.39
814.35	230.39
814.67	230.30
814.98	230.29
815.30	230.28
815.62	230.24
815.94	230.12
816.26	230.13
816.58	230.09
816.89	230.10
817.21	230.05
817.53	230.05
817.85	230.05
818.17	230.04
818.48	229.97
818.80	229.99
819.12	229.95
819.44	229.91
819.76	229.87
820.07	229.86
820.39	229.86
820.71	229.87
821.03	229.85
821.34	229.83
821.66	229.84
821.98	229.85
822.30	229.83
822.61	229.93
822.93	229.88
823.25	229.87
823.57	229.84
823.88	229.85
824.20	229.83
824.52	229.85
824.83	229.85
825.15	229.82
825.47	229.79
825.79	229.80
826.10	229.78
826.42	229.77
826.74	229.77
827.05	229.75
827.37	229.74
827.69	229.72
828.00	229.72
828.32	229.70
828.64	229.66
828.95	229.75
829.27	229.69
829.58	229.68
829.90	229.69
830.22	229.70
830.53	229.67
830.85	229.65
831.17	229.59
831.48	229.58
831.80	229.59
832.11	229.57
832.43	229.54
832.75	229.54
833.06	229.63
833.38	229.59
833.69	229.58
834.01	229.59
834.32	229.58
834.64	229.57
834.96	229.56
835.27	229.57
835.59	229.49
835.90	229.45
836.22	229.45
836.53	229.41
836.85	229.39
837.16	229.56
837.48	229.56
837.79	229.62
838.11	229.62
838.42	229.62
838.74	229.64
839.05	229.62
839.37	229.62
839.68	229.51
840.00	229.50
840.31	229.51
840.63	229.48
840.94	229.46
841.26	229.43
841.57	229.41
841.88	229.43
842.20	229.40
842.51	229.38
842.83	229.38
843.14	229.53
843.46	229.52
843.77	229.42
844.08	229.40
844.40	229.34
844.71	229.33
845.03	229.31
845.34	229.28
845.65	229.28
845.97	229.27
846.28	229.28
846.60	229.29
846.91	229.26
847.22	229.26
847.54	229.30
847.85	229.30
848.16	229.30
848.48	229.26
848.79	229.33
849.10	229.35
849.42	229.35
849.73	229.18
850.04	229.18
850.36	229.13
850.67	229.17
850.98	229.17
851.30	229.18
851.61	229.18
851.92	229.17
852.23	229.23
852.55	229.24
852.86	229.24
853.17	229.25
853.49	229.29
853.80	229.32
854.11	229.34
854.42	229.37
854.74	229.35
855.05	229.35
855.36	229.26
855.67	229.25
855.99	229.26
856.30	229.46
856.61	229.44
856.92	229.43
857.23	229.42
857.55	229.40
857.86	229.38
858.17	229.42
858.48	229.38
858.79	229.35
859.11	229.35
859.42	229.33
859.73	229.31
860.04	229.30
860.35	229.24
860.66	229.19
860.98	229.16
861.29	229.19
861.60	229.18
861.91	229.22
862.22	229.21
862.53	229.19
862.84	228.98
863.16	229.03
863.47	229.00
863.78	228.98
864.09	229.00
864.40	228.99
864.71	228.98
865.02	229.00
865.33	228.97
865.64	228.94
865.95	228.94
866.27	229.04
866.58	229.02
866.89	229.04
867.20	229.02
867.51	228.99
867.82	228.97
868.13	229.02
868.44	228.97
868.75	229.00
869.06	229.00
869.37	229.02
869.68	228.97
869.99	229.01
870.30	229.02
870.61	229.02
870.92	229.00
871.23	228.99
871.54	229.01
871.85	229.06
872.16	229.08
872.47	229.07
872.78	228.98
873.09	228.99
873.40	228.98
873.71	229.01
874.02	229.02
874.33	229.00
874.64	228.96
874.95	228.99
875.26	228.94
875.56	228.94
875.87	228.93
876.18	228.93
876.49	229.10
876.80	229.07
877.11	229.04
877.42	229.04
877.73	229.04
878.04	229.02
878.35	229.03
878.66	229.02
878.96	229.02
879.27	229.01
879.58	229.01
879.89	228.99
880.20	229.05
880.51	229.04
880.82	229.06
881.12	229.06
881.43	229.03
881.74	229.02
882.05	229.01
882.36	229.01
882.67	229.02
882.97	228.83
883.28	228.82
883.59	228.82
883.90	228.84
884.21	228.88
884.51	228.87
884.82	228.83
885.13	228.82
885.44	228.82
885.74	228.81
886.05	228.79
886.36	228.79
886.67	228.71
886.98	228.81
887.28	228.81
887.59	228.82
887.90	228.82
888.20	228.82
888.51	228.84
888.82	228.82
889.13	228.83
889.43	228.99
889.74	228.97
890.05	228.97
890.35	228.95
890.66	228.90
890.97	228.88
891.28	228.88
891.58	228.89
891.89	228.89
892.20	228.88
892.50	228.87
892.81	228.86
893.12	228.86
893.42	228.77
893.73	228.77
894.04	228.76
894.34	228.78
894.65	228.78
894.95	228.76
895.26	228.78
895.57	228.85
895.87	228.67
896.18	228.71
896.48	228.71
896.79	228.71
897.10	228.74
897.40	228.76
897.71	228.78
898.01	228.76
898.32	228.77
898.63	228.77
898.93	228.79
899.24	228.80
899.54	228.79
899.85	228.79
900.15	228.78
900.46	228.78
900.76	228.79
901.07	228.79
901.38	228.78
901.68	228.80
901.99	228.70
902.29	228.71
902.60	228.69
902.90	228.67
903.21	228.67
903.51	228.63
903.82	228.66
904.12	228.66
904.43	228.67
904.73	228.67
905.03	228.67
905.34	228.82
905.64	228.80
905.95	228.79
906.25	228.78
906.56	228.78
906.86	228.77
907.17	228.75
907.47	228.77
907.77	228.75
908.08	228.71
908.38	228.72
908.69	228.74
908.99	228.77
909.30	228.79
909.60	228.79
909.90	228.79
910.21	228.74
910.51	228.71
910.81	228.71
911.12	228.71
911.42	228.71
911.73	228.53
912.03	228.55
912.33	228.59
912.64	228.59
912.94	228.56
913.24	228.53
913.55	228.52
913.85	228.50
914.15	228.53
914.46	228.55
914.76	228.53
915.06	228.51
915.37	228.48
915.67	228.46
915.97	228.46
916.27	228.44
916.58	228.45
916.88	228.45
917.18	228.43
917.49	228.55
917.79	228.54
918.09	228.58
918.39	228.61
918.70	228.59
919.00	228.60
919.30	228.69
919.60	228.68
919.91	228.67
920.21	228.69
920.51	228.66
920.81	228.65
921.12	228.68
921.42	228.68
921.72	228.69
922.02	228.70
922.32	228.73
922.63	228.74
922.93	228.85
923.23	228.86
923.53	228.86
923.83	228.74
924.13	228.76
924.44	228.75
924.74	228.80
925.04	228.83
925.34	228.83
925.64	228.74
925.94	228.76
926.24	228.85
926.55	228.84
926.85	228.85
927.15	228.85
927.45	228.86
927.75	228.85
928.05	228.86
928.35	228.85
928.65	228.88
928.95	228.90
929.26	228.81
929.56	228.84
929.86	228.86
930.16	228.84
930.46	228.82
930.76	228.84
931.06	228.74
931.36	228.69
931.66	228.73
931.96	228.75
932.26	228.75
932.56	228.68
932.86	228.69
933.16	228.69
933.46	228.68
933.76	228.65
934.06	228.70
934.36	228.75
934.66	228.75
934.96	228.71
935.26	228.71
935.56	228.73
935.86	228.69
936.16	228.66
936.46	228.63
936.76	228.63
937.06	228.60
937.36	228.61
937.66	228.62
937.96	228.62
938.26	228.59
938.56	228.58
938.86	228.59
939.16	228.64
939.46	228.64
939.76	228.66
940.06	228.66
940.35	228.61
940.65	228.53
940.95	228.54
941.25	228.49
941.55	228.47
941.85	228.45
942.15	228.49
942.45	228.54
942.75	228.56
943.04	228.56
943.34	228.60
943.64	228.58
943.94	228.56
944.24	228.56
944.54	228.56
944.84	228.56
945.13	228.53
945.43	228.49
945.73	228.48
946.03	228.46
946.33	228.45
946.62	228.45
946.92	228.45
947.22	228.45
947.52	228.47
947.82	228.49
948.11	228.48
948.41	228.43
948.71	228.39
949.01	228.39
949.31	228.38
949.60	228.37
949.90	228.41
950.20	228.40
950.50	228.39
950.79	228.38
951.09	228.40
951.39	228.40
951.69	228.38
951.98	228.41
952.28	228.43
952.58	228.42
952.87	228.42
953.17	228.45
953.47	228.44
953.76	228.44
954.06	228.41
954.36	228.38
954.66	228.39
954.95	228.43
955.25	228.44
955.55	228.45
955.84	228.43
956.14	228.43
956.44	228.44
956.73	228.42
957.03	228.44
957.32	228.44
957.62	228.43
957.92	228.47
958.21	228.45
958.51	228.64
958.81	228.66
959.10	228.69
959.40	228.71
959.69	228.73
959.99	228.75
960.29	228.77
960.58	228.78
960.88	228.84
961.17	228.82
961.47	228.84
961.76	228.83
962.06	228.85
962.36	228.84
962.65	228.85
962.95	228.86
963.24	228.85
963.54	228.86
963.83	228.87
964.13	228.86
964.42	228.84
964.72	228.69
965.01	228.70
965.31	228.68
965.60	228.63
965.90	228.74
966.19	228.70
966.49	228.70
966.78	228.70
967.08	228.69
967.37	228.69
967.67	228.66
967.96	228.70
968.26	228.69
968.55	228.72
968.85	228.72
969.14	228.71
969.43	228.71
969.73	228.70
970.02	228.69
970.32	228.69
970.61	228.67
970.91	228.62
971.20	228.59
971.49	228.58
971.79	228.61
972.08	228.49
972.38	228.51
972.67	228.50
972.96	228.52
973.26	228.48
973.55	228.54
973.85	228.53
974.14	228.49
974.43	228.50
974.73	228.45
975.02	228.42
975.31	228.43
975.61	228.43
975.90	228.41
976.19	228.38
976.49	228.40
976.78	228.41
977.07	228.41
977.37	228.42
977.66	228.43
977.95	228.41
978.24	228.42
978.54	228.46
978.83	228.45
979.12	228.43
979.42	228.44
979.71	228.40
980.00	228.39
980.29	228.40
980.59	228.37
980.88	228.42
981.17	228.43
981.46	228.43
981.76	228.42
982.05	228.48
982.34	228.50
982.63	228.49
982.93	228.49
983.22	228.53
983.51	228.53
983.80	228.55
984.09	228.57
984.39	228.55
984.68	228.52
984.97	228.52
985.26	228.51
985.55	228.52
985.85	228.49
986.14	228.52
986.43	228.54
986.72	228.54
987.01	228.49
987.30	228.49
987.59	228.47
987.89	228.47
988.18	228.42
988.47	228.40
988.76	228.38
989.05	228.37
989.34	228.35
989.63	228.39
989.92	228.36
990.22	228.34
990.51	228.34
990.80	228.33
991.09	228.34
991.38	228.37
991.67	228.36
991.96	228.34
992.25	228.34
992.54	228.29
992.83	228.30
993.12	228.28
993.41	228.31
993.70	228.38
993.99	228.41
994.28	228.44
994.58	228.48
994.87	228.47
995.16	228.46
995.45	228.45
995.74	228.38
996.03	228.41
996.32	228.45
996.61	228.48
996.90	228.47
997.19	228.46
997.48	228.45
997.77	228.43
998.06	228.45
998.34	228.44
998.63	228.45
998.92	228.46
999.21	228.50
999.50	228.49
999.79	228.43
1000.08	228.42
1000.37	228.42
1000.66	228.39
1000.95	228.43
1001.24	228.44
1001.53	228.47
1001.82	228.46
1002.11	228.42
1002.40	228.41
1002.68	228.46
1002.97	228.58
1003.26	228.56
1003.55	228.55
1003.84	228.56
1004.13	228.61
1004.42	228.61
1004.71	228.60
1004.99	228.59
1005.28	228.63
1005.57	228.62
1005.86	228.60
1006.15	228.58
1006.44	228.56
1006.72	228.59
1007.01	228.55
1007.30	228.56
1007.59	228.54
1007.88	228.55
1008.17	228.57
1008.45	228.54
1008.74	228.47
1009.03	228.40
1009.32	228.40
1009.60	228.40
1009.89	228.39
1010.18	228.32
1010.47	228.30
1010.76	228.30
1011.04	228.29
1011.33	228.27
1011.62	228.29
1011.91	228.31
1012.19	228.32
1012.48	228.33
1012.77	228.32
1013.05	228.37
1013.34	228.37
1013.63	228.35
1013.92	228.36
1014.20	228.33
1014.49	228.35
1014.78	228.36
1015.06	228.30
1015.35	228.31
1015.64	228.33
1015.92	228.36
1016.21	228.37
1016.50	228.39
1016.78	228.42
1017.07	228.43
1017.36	228.40
1017.64	228.37
1017.93	228.38
1018.22	228.37
1018.50	228.37
1018.79	228.36
1019.08	228.31
1019.36	228.31
1019.65	228.31
1019.93	228.36
1020.22	228.39
1020.51	228.48
1020.79	228.45
1021.08	228.28
1021.36	228.20
1021.65	228.30
1021.94	228.34
1022.22	228.26
1022.51	228.14
1022.79	229.13
1023.08	228.64
1023.36	230.40
1023.65	227.92
>>>>>End Processed Spectral Data<<<<<
