SpectraSuite Data File
++++++++++++++++++++++++++++++++++++
Date: Tue Oct 06 12:52:47 EDT 2015
User: lab3
Dark Spectrum Present: No
Reference Spectrum Present: No
Number of Sampled Component Spectra: 1
Spectrometers: USB2E7196
Integration Time (usec): 66000 (USB2E7196)
Spectra Averaged: 1000 (USB2E7196)
Boxcar Smoothing: 10 (USB2E7196)
Correct for Electrical Dark: No (USB2E7196)
Strobe/Lamp Enabled: No (USB2E7196)
Correct for Detector Non-linearity: No (USB2E7196)
Correct for Stray Light: No (USB2E7196)
Number of Pixels in Processed Spectrum: 2048
>>>>>Begin Processed Spectral Data<<<<<
339.09	0.00
339.48	217.20
339.86	218.34
340.24	219.63
340.63	221.35
341.01	225.17
341.39	224.20
341.78	225.56
342.16	226.74
342.54	227.02
342.93	215.46
343.31	226.35
343.69	226.88
344.07	227.36
344.46	227.82
344.84	228.22
345.22	228.42
345.60	228.69
345.99	228.90
346.37	229.04
346.75	229.16
347.13	229.25
347.52	229.34
347.90	229.46
348.28	229.50
348.66	229.59
349.05	229.58
349.43	229.64
349.81	229.71
350.19	229.78
350.57	229.85
350.96	229.95
351.34	230.05
351.72	230.16
352.10	230.29
352.48	230.36
352.87	230.41
353.25	230.48
353.63	230.54
354.01	230.60
354.39	230.69
354.77	230.76
355.15	230.88
355.54	230.92
355.92	230.93
356.30	231.02
356.68	231.20
357.06	231.28
357.44	231.32
357.82	231.38
358.20	231.60
358.58	231.67
358.97	231.74
359.35	231.81
359.73	231.90
360.11	231.94
360.49	232.00
360.87	232.05
361.25	232.11
361.63	232.21
362.01	232.27
362.39	232.29
362.77	232.35
363.15	232.37
363.53	232.40
363.91	232.43
364.29	232.45
364.67	232.30
365.05	232.33
365.43	232.37
365.81	232.40
366.19	232.35
366.57	232.41
366.95	232.41
367.33	232.36
367.71	232.36
368.09	232.38
368.47	232.38
368.85	232.36
369.23	232.38
369.61	232.31
369.99	232.34
370.37	232.35
370.75	232.47
371.13	232.42
371.51	232.38
371.89	232.37
372.27	232.34
372.65	232.34
373.03	232.30
373.41	232.25
373.78	232.20
374.16	232.09
374.54	232.00
374.92	231.95
375.30	231.92
375.68	231.84
376.06	231.81
376.44	231.76
376.82	231.74
377.19	231.68
377.57	231.63
377.95	231.51
378.33	231.45
378.71	231.24
379.09	231.20
379.47	231.18
379.84	231.13
380.22	231.06
380.60	230.98
380.98	230.94
381.36	230.88
381.73	230.81
382.11	230.80
382.49	230.77
382.87	230.70
383.25	230.66
383.62	230.83
384.00	230.75
384.38	230.71
384.76	230.71
385.13	230.72
385.51	230.68
385.89	230.63
386.27	230.61
386.64	230.60
387.02	230.56
387.40	230.51
387.78	230.49
388.15	230.48
388.53	230.45
388.91	230.42
389.29	230.39
389.66	230.40
390.04	230.36
390.42	230.36
390.79	230.35
391.17	230.33
391.55	230.13
391.92	230.14
392.30	230.15
392.68	230.10
393.05	230.09
393.43	230.09
393.81	230.12
394.18	230.11
394.56	230.12
394.94	230.17
395.31	230.17
395.69	230.24
396.06	230.28
396.44	230.33
396.82	230.34
397.19	230.48
397.57	230.50
397.95	230.55
398.32	230.55
398.70	230.62
399.07	230.71
399.45	230.77
399.82	230.84
400.20	230.89
400.58	230.97
400.95	230.99
401.33	231.12
401.70	231.34
402.08	231.47
402.45	231.60
402.83	231.77
403.20	231.93
403.58	232.06
403.95	232.26
404.33	232.47
404.71	232.68
405.08	232.96
405.46	233.20
405.83	233.49
406.21	233.77
406.58	234.09
406.96	234.41
407.33	234.76
407.70	235.18
408.08	235.74
408.45	236.23
408.83	236.77
409.20	237.25
409.58	237.68
409.95	238.30
410.33	238.94
410.70	239.57
411.08	240.31
411.45	241.08
411.82	241.86
412.20	242.77
412.57	243.83
412.95	244.68
413.32	245.78
413.69	246.91
414.07	248.11
414.44	249.45
414.82	250.80
415.19	252.39
415.56	253.98
415.94	255.65
416.31	257.53
416.68	259.42
417.06	261.60
417.43	263.65
417.81	266.00
418.18	268.41
418.55	271.01
418.93	273.73
419.30	276.59
419.67	279.61
420.04	282.71
420.42	285.99
420.79	289.75
421.16	293.55
421.54	297.40
421.91	301.43
422.28	305.60
422.66	310.09
423.03	314.35
423.40	318.84
423.77	323.64
424.15	328.54
424.52	333.63
424.89	339.13
425.26	344.59
425.64	349.65
426.01	355.35
426.38	361.17
426.75	367.15
427.13	373.25
427.50	379.66
427.87	386.28
428.24	392.93
428.61	399.32
428.99	406.19
429.36	413.79
429.73	421.03
430.10	428.25
430.47	435.65
430.85	443.31
431.22	451.46
431.59	459.81
431.96	467.95
432.33	477.00
432.70	485.67
433.08	495.91
433.45	505.57
433.82	515.02
434.19	525.62
434.56	536.03
434.93	546.13
435.30	556.14
435.68	567.51
436.05	578.61
436.42	589.73
436.79	599.89
437.16	610.84
437.53	622.64
437.90	634.50
438.27	646.04
438.64	658.44
439.01	669.74
439.38	680.19
439.75	690.24
440.13	701.69
440.50	712.55
440.87	721.19
441.24	730.71
441.61	741.15
441.98	748.83
442.35	757.93
442.72	767.28
443.09	776.25
443.46	782.18
443.83	786.60
444.20	790.21
444.57	795.55
444.94	798.80
445.31	802.05
445.68	804.81
446.05	806.88
446.42	806.65
446.79	806.23
447.16	805.84
447.53	805.63
447.90	802.35
448.27	799.14
448.64	794.08
449.01	790.70
449.37	783.60
449.74	777.21
450.11	768.86
450.48	759.61
450.85	750.28
451.22	742.15
451.59	734.29
451.96	727.30
452.33	717.01
452.70	707.79
453.07	696.61
453.43	685.47
453.80	674.67
454.17	664.33
454.54	654.65
454.91	643.71
455.28	633.32
455.65	623.50
456.02	613.21
456.38	604.93
456.75	594.20
457.12	585.54
457.49	576.79
457.86	568.59
458.23	561.38
458.59	553.40
458.96	545.24
459.33	538.06
459.70	530.73
460.07	525.06
460.43	518.42
460.80	512.19
461.17	506.76
461.54	500.92
461.91	495.44
462.27	489.90
462.64	485.37
463.01	480.21
463.38	475.07
463.74	470.40
464.11	466.27
464.48	462.56
464.85	458.52
465.21	455.40
465.58	451.96
465.95	448.02
466.32	444.88
466.68	441.78
467.05	438.67
467.42	435.63
467.78	432.41
468.15	429.46
468.52	427.29
468.88	424.43
469.25	421.81
469.62	419.74
469.98	417.47
470.35	415.42
470.72	413.58
471.08	411.69
471.45	410.10
471.82	408.33
472.18	406.47
472.55	405.27
472.92	403.81
473.28	402.62
473.65	401.38
474.02	400.22
474.38	399.23
474.75	398.63
475.11	397.79
475.48	397.41
475.85	397.00
476.21	396.79
476.58	396.66
476.94	396.85
477.31	396.89
477.67	397.03
478.04	397.34
478.41	397.76
478.77	398.35
479.14	398.71
479.50	399.46
479.87	400.44
480.23	401.41
480.60	402.31
480.96	403.27
481.33	404.65
481.69	406.02
482.06	407.40
482.42	408.69
482.79	410.26
483.15	412.09
483.52	414.17
483.88	416.15
484.25	418.27
484.61	420.49
484.98	422.88
485.34	425.54
485.71	428.32
486.07	431.30
486.44	434.19
486.80	437.49
487.17	440.84
487.53	444.52
487.90	448.35
488.26	452.55
488.62	456.95
488.99	461.37
489.35	466.05
489.72	471.07
490.08	476.35
490.44	481.71
490.81	487.25
491.17	492.90
491.54	498.95
491.90	505.13
492.26	511.72
492.63	518.63
492.99	525.84
493.36	533.30
493.72	541.13
494.08	549.13
494.45	557.51
494.81	566.30
495.17	575.27
495.54	584.76
495.90	594.63
496.26	604.75
496.63	615.12
496.99	625.82
497.35	636.97
497.72	648.47
498.08	660.41
498.44	672.61
498.80	685.62
499.17	698.92
499.53	712.67
499.89	726.78
500.26	740.98
500.62	755.47
500.98	770.66
501.34	786.02
501.71	802.15
502.07	818.52
502.43	835.29
502.79	852.18
503.16	869.57
503.52	887.18
503.88	905.29
504.24	923.84
504.60	942.67
504.97	961.90
505.33	981.57
505.69	1002.22
506.05	1022.91
506.41	1043.48
506.78	1064.42
507.14	1086.11
507.50	1108.22
507.86	1130.82
508.22	1153.51
508.59	1175.97
508.95	1199.33
509.31	1223.09
509.67	1247.52
510.03	1271.83
510.39	1296.50
510.75	1321.20
511.12	1346.01
511.48	1370.79
511.84	1395.65
512.20	1421.02
512.56	1446.76
512.92	1472.29
513.28	1497.57
513.64	1523.18
514.00	1548.82
514.37	1574.63
514.73	1600.18
515.09	1625.35
515.45	1650.70
515.81	1676.12
516.17	1701.70
516.53	1726.54
516.89	1751.34
517.25	1776.22
517.61	1801.01
517.97	1826.02
518.33	1850.52
518.69	1874.89
519.05	1899.49
519.41	1924.04
519.77	1948.44
520.13	1972.59
520.49	1996.57
520.85	2020.55
521.21	2044.37
521.57	2068.39
521.93	2091.41
522.29	2114.82
522.65	2137.72
523.01	2160.46
523.37	2182.34
523.73	2204.64
524.09	2227.08
524.45	2249.52
524.81	2271.04
525.17	2292.40
525.53	2313.06
525.89	2334.05
526.25	2354.62
526.61	2374.00
526.97	2393.62
527.33	2412.63
527.68	2430.80
528.04	2448.40
528.40	2464.98
528.76	2482.05
529.12	2498.00
529.48	2514.36
529.84	2529.50
530.20	2545.66
530.56	2560.68
530.91	2575.66
531.27	2589.65
531.63	2602.74
531.99	2615.52
532.35	2626.77
532.71	2638.04
533.07	2649.58
533.42	2659.65
533.78	2670.48
534.14	2681.45
534.50	2690.97
534.86	2700.68
535.21	2708.50
535.57	2716.58
535.93	2725.02
536.29	2732.27
536.65	2739.63
537.00	2744.94
537.36	2750.71
537.72	2754.76
538.08	2758.52
538.44	2761.45
538.79	2764.77
539.15	2767.41
539.51	2769.40
539.87	2772.06
540.22	2772.69
540.58	2773.82
540.94	2774.44
541.29	2773.67
541.65	2771.43
542.01	2769.31
542.37	2766.13
542.72	2764.72
543.08	2761.79
543.44	2758.66
543.79	2753.81
544.15	2748.96
544.51	2744.77
544.87	2738.60
545.22	2731.97
545.58	2725.66
545.94	2720.08
546.29	2712.57
546.65	2704.48
547.01	2696.52
547.36	2688.12
547.72	2679.66
548.07	2669.98
548.43	2660.17
548.79	2649.30
549.14	2639.44
549.50	2629.38
549.86	2618.79
550.21	2606.40
550.57	2595.24
550.92	2582.37
551.28	2570.28
551.64	2558.35
551.99	2546.50
552.35	2534.68
552.70	2522.65
553.06	2510.88
553.41	2497.86
553.77	2484.69
554.13	2471.76
554.48	2457.91
554.84	2443.69
555.19	2430.38
555.55	2416.28
555.90	2402.33
556.26	2389.32
556.61	2375.58
556.97	2360.87
557.32	2346.50
557.68	2332.26
558.03	2317.59
558.39	2303.67
558.74	2289.88
559.10	2274.17
559.45	2259.02
559.81	2244.56
560.16	2229.78
560.52	2214.64
560.87	2200.44
561.23	2185.66
561.58	2171.10
561.94	2155.94
562.29	2140.96
562.64	2125.77
563.00	2110.80
563.35	2096.41
563.71	2081.80
564.06	2066.81
564.42	2052.36
564.77	2037.99
565.12	2024.05
565.48	2009.83
565.83	1995.37
566.19	1981.03
566.54	1967.16
566.89	1952.05
567.25	1936.53
567.60	1922.19
567.96	1907.27
568.31	1891.81
568.66	1877.24
569.02	1862.73
569.37	1848.39
569.72	1834.26
570.08	1820.09
570.43	1805.78
570.78	1790.75
571.14	1775.68
571.49	1761.00
571.84	1747.08
572.20	1731.86
572.55	1716.86
572.90	1701.41
573.26	1685.96
573.61	1670.30
573.96	1655.26
574.31	1640.89
574.67	1626.94
575.02	1612.09
575.37	1597.00
575.72	1581.76
576.08	1566.95
576.43	1552.16
576.78	1537.42
577.13	1522.82
577.49	1508.18
577.84	1493.52
578.19	1479.07
578.54	1464.62
578.90	1450.11
579.25	1435.11
579.60	1421.25
579.95	1407.32
580.30	1393.63
580.66	1380.01
581.01	1366.52
581.36	1352.86
581.71	1339.10
582.06	1325.47
582.42	1312.01
582.77	1299.00
583.12	1286.19
583.47	1273.20
583.82	1260.37
584.17	1247.52
584.53	1234.75
584.88	1222.34
585.23	1209.69
585.58	1197.30
585.93	1184.97
586.28	1173.20
586.63	1161.36
586.98	1149.43
587.34	1137.78
587.69	1126.00
588.04	1114.51
588.39	1103.22
588.74	1091.82
589.09	1080.83
589.44	1069.25
589.79	1058.28
590.14	1047.41
590.49	1036.73
590.84	1026.25
591.19	1015.81
591.54	1005.44
591.89	994.81
592.25	984.29
592.60	973.77
592.95	963.51
593.30	953.26
593.65	942.95
594.00	932.90
594.35	923.54
594.70	913.72
595.05	904.55
595.40	895.21
595.75	885.67
596.10	876.65
596.45	867.47
596.80	858.73
597.15	849.93
597.50	841.14
597.85	832.70
598.19	824.24
598.54	815.79
598.89	807.47
599.24	799.60
599.59	791.82
599.94	784.49
600.29	776.93
600.64	769.51
600.99	762.04
601.34	754.78
601.69	746.93
602.04	739.70
602.39	732.57
602.74	725.64
603.08	718.82
603.43	712.03
603.78	705.34
604.13	698.75
604.48	692.21
604.83	685.90
605.18	679.54
605.53	673.27
605.87	666.91
606.22	660.86
606.57	654.74
606.92	648.49
607.27	642.41
607.62	636.68
607.96	631.06
608.31	625.71
608.66	620.17
609.01	614.95
609.36	609.92
609.70	604.75
610.05	599.56
610.40	594.50
610.75	589.39
611.10	584.62
611.44	579.79
611.79	575.04
612.14	570.28
612.49	565.50
612.83	560.99
613.18	556.69
613.53	552.40
613.88	548.12
614.22	544.03
614.57	539.87
614.92	535.73
615.27	531.70
615.61	527.71
615.96	523.86
616.31	519.98
616.65	516.10
617.00	512.34
617.35	508.68
617.70	505.12
618.04	501.68
618.39	498.13
618.74	494.76
619.08	491.32
619.43	487.99
619.78	484.78
620.12	481.58
620.47	478.53
620.82	475.47
621.16	472.49
621.51	469.67
621.85	466.87
622.20	464.13
622.55	461.37
622.89	458.67
623.24	456.10
623.59	453.55
623.93	451.06
624.28	448.64
624.62	446.43
624.97	444.20
625.32	441.83
625.66	439.48
626.01	437.17
626.35	435.06
626.70	432.87
627.04	430.87
627.39	428.75
627.73	426.68
628.08	424.73
628.43	422.81
628.77	420.84
629.12	418.98
629.46	417.09
629.81	415.35
630.15	413.52
630.50	411.71
630.84	409.99
631.19	408.33
631.53	406.72
631.88	404.92
632.22	403.21
632.57	401.84
632.91	400.44
633.26	399.10
633.60	397.66
633.95	396.34
634.29	394.88
634.64	393.52
634.98	392.03
635.32	390.67
635.67	389.44
636.01	388.19
636.36	386.99
636.70	385.93
637.05	384.70
637.39	383.61
637.73	382.52
638.08	381.46
638.42	380.39
638.77	379.22
639.11	378.04
639.45	376.94
639.80	375.77
640.14	374.67
640.49	373.51
640.83	372.45
641.17	371.34
641.52	370.27
641.86	369.27
642.20	368.44
642.55	367.43
642.89	366.40
643.23	365.41
643.58	364.53
643.92	363.48
644.26	362.52
644.61	361.63
644.95	360.71
645.29	359.77
645.64	358.82
645.98	357.93
646.32	357.12
646.66	356.23
647.01	355.34
647.35	354.54
647.69	353.72
648.04	352.94
648.38	352.14
648.72	351.40
649.06	350.63
649.41	349.82
649.75	349.06
650.09	348.35
650.43	347.63
650.78	346.86
651.12	346.13
651.46	345.43
651.80	344.73
652.14	344.04
652.49	343.36
652.83	342.66
653.17	341.99
653.51	341.34
653.85	340.77
654.20	340.15
654.54	339.45
654.88	338.80
655.22	338.16
655.56	337.47
655.90	336.78
656.25	336.15
656.59	335.50
656.93	334.92
657.27	334.36
657.61	333.71
657.95	333.14
658.29	332.57
658.64	332.05
658.98	331.44
659.32	330.85
659.66	330.29
660.00	329.76
660.34	329.20
660.68	328.62
661.02	327.99
661.36	327.40
661.70	326.85
662.05	326.32
662.39	325.81
662.73	325.39
663.07	325.00
663.41	324.51
663.75	323.99
664.09	323.47
664.43	322.88
664.77	322.40
665.11	321.81
665.45	321.28
665.79	320.73
666.13	320.20
666.47	319.66
666.81	319.10
667.15	318.50
667.49	318.02
667.83	317.59
668.17	317.15
668.51	316.70
668.85	316.28
669.19	315.92
669.53	315.38
669.87	314.89
670.21	314.39
670.55	313.92
670.89	313.58
671.23	313.15
671.57	312.73
671.91	312.33
672.25	311.98
672.58	311.62
672.92	311.16
673.26	310.77
673.60	310.37
673.94	309.99
674.28	309.65
674.62	309.27
674.96	308.82
675.30	308.41
675.64	307.99
675.97	307.56
676.31	307.06
676.65	306.65
676.99	306.30
677.33	305.82
677.67	305.39
678.01	304.85
678.34	304.41
678.68	304.00
679.02	303.53
679.36	303.09
679.70	302.62
680.04	302.20
680.37	301.77
680.71	301.34
681.05	300.94
681.39	300.50
681.73	300.02
682.06	299.56
682.40	299.15
682.74	298.76
683.08	298.41
683.42	297.98
683.75	297.57
684.09	297.07
684.43	296.64
684.77	296.18
685.10	295.81
685.44	295.42
685.78	295.00
686.12	294.58
686.45	294.16
686.79	293.70
687.13	293.28
687.46	292.84
687.80	292.43
688.14	291.94
688.48	291.51
688.81	291.10
689.15	290.75
689.49	290.29
689.82	289.84
690.16	289.33
690.50	288.90
690.83	288.47
691.17	288.00
691.51	287.59
691.84	287.22
692.18	286.78
692.52	286.32
692.85	285.89
693.19	285.55
693.52	285.15
693.86	284.77
694.20	284.36
694.53	283.96
694.87	283.51
695.21	283.10
695.54	282.69
695.88	282.24
696.21	281.74
696.55	281.31
696.88	280.88
697.22	280.46
697.56	280.07
697.89	279.62
698.23	279.22
698.56	278.78
698.90	278.36
699.23	277.92
699.57	277.51
699.90	277.08
700.24	276.59
700.58	276.19
700.91	275.82
701.25	275.57
701.58	275.26
701.92	274.93
702.25	274.57
702.59	274.18
702.92	273.81
703.26	273.43
703.59	273.06
703.93	272.83
704.26	272.47
704.60	272.07
704.93	271.68
705.26	271.28
705.60	270.96
705.93	270.54
706.27	270.23
706.60	269.92
706.94	269.61
707.27	269.22
707.61	268.85
707.94	268.45
708.27	267.93
708.61	267.49
708.94	267.09
709.28	266.73
709.61	266.37
709.94	266.06
710.28	265.75
710.61	265.44
710.95	264.97
711.28	264.75
711.61	264.44
711.95	264.17
712.28	263.84
712.61	263.48
712.95	263.25
713.28	263.01
713.61	262.64
713.95	262.29
714.28	262.01
714.61	261.66
714.95	261.36
715.28	261.06
715.61	260.75
715.95	260.47
716.28	260.16
716.61	259.88
716.95	259.56
717.28	259.24
717.61	258.94
717.94	258.64
718.28	258.24
718.61	257.94
718.94	257.63
719.27	257.36
719.61	257.13
719.94	256.84
720.27	256.48
720.60	256.22
720.94	255.95
721.27	255.69
721.60	255.47
721.93	255.21
722.27	255.01
722.60	254.78
722.93	254.51
723.26	254.28
723.59	254.02
723.93	253.82
724.26	253.60
724.59	253.36
724.92	253.15
725.25	252.97
725.59	252.76
725.92	252.56
726.25	252.34
726.58	252.13
726.91	251.87
727.24	251.67
727.57	251.46
727.91	251.22
728.24	251.03
728.57	250.81
728.90	250.64
729.23	250.39
729.56	250.27
729.89	250.09
730.22	249.87
730.55	249.68
730.89	249.45
731.22	249.24
731.55	249.05
731.88	248.86
732.21	248.65
732.54	248.45
732.87	248.26
733.20	248.08
733.53	247.89
733.86	247.74
734.19	247.54
734.52	247.39
734.85	247.34
735.18	247.15
735.51	247.04
735.84	246.87
736.17	246.75
736.50	246.50
736.83	246.53
737.16	246.36
737.49	246.21
737.82	246.06
738.15	245.94
738.48	245.78
738.81	245.61
739.14	245.44
739.47	245.28
739.80	245.12
740.13	244.99
740.46	244.82
740.79	244.66
741.12	244.52
741.45	244.34
741.78	244.10
742.11	243.99
742.44	243.80
742.77	243.68
743.10	243.51
743.43	243.37
743.75	243.05
744.08	243.19
744.41	243.03
744.74	242.89
745.07	242.71
745.40	242.62
745.73	242.57
746.06	242.45
746.39	242.34
746.71	242.20
747.04	242.05
747.37	241.92
747.70	241.82
748.03	241.69
748.36	241.61
748.68	241.48
749.01	241.32
749.34	241.21
749.67	241.07
750.00	240.98
750.33	240.99
750.65	240.88
750.98	240.52
751.31	240.41
751.64	240.32
751.97	240.31
752.29	240.18
752.62	239.98
752.95	239.86
753.28	239.72
753.60	239.60
753.93	239.53
754.26	239.43
754.59	239.25
754.91	239.13
755.24	239.00
755.57	238.89
755.90	238.78
756.22	238.65
756.55	238.53
756.88	238.38
757.20	238.16
757.53	238.01
757.86	237.90
758.19	237.81
758.51	237.70
758.84	237.51
759.17	237.39
759.49	237.30
759.82	237.29
760.15	237.23
760.47	237.13
760.80	237.00
761.13	236.94
761.45	236.86
761.78	236.79
762.11	236.72
762.43	236.62
762.76	236.53
763.08	236.48
763.41	236.41
763.74	236.34
764.06	236.25
764.39	236.17
764.71	236.09
765.04	235.99
765.37	235.90
765.69	235.83
766.02	235.76
766.34	235.68
766.67	235.53
767.00	235.48
767.32	235.53
767.65	235.55
767.97	235.46
768.30	235.40
768.62	235.33
768.95	235.23
769.27	235.17
769.60	235.13
769.92	235.02
770.25	234.94
770.57	234.85
770.90	234.80
771.22	234.72
771.55	234.68
771.87	234.64
772.20	234.57
772.52	234.67
772.85	234.82
773.17	234.78
773.50	234.71
773.82	234.64
774.15	234.49
774.47	234.34
774.80	234.26
775.12	234.21
775.45	234.16
775.77	234.14
776.09	234.10
776.42	234.06
776.74	234.09
777.07	234.03
777.39	234.01
777.72	233.95
778.04	233.95
778.36	233.89
778.69	233.85
779.01	233.82
779.33	233.62
779.66	233.37
779.98	233.31
780.31	233.29
780.63	233.32
780.95	233.32
781.28	233.29
781.60	233.25
781.92	233.21
782.25	233.18
782.57	233.14
782.89	233.10
783.22	233.05
783.54	232.97
783.86	232.96
784.19	232.91
784.51	232.93
784.83	232.87
785.16	232.83
785.48	232.81
785.80	232.79
786.12	232.77
786.45	232.75
786.77	232.75
787.09	232.70
787.42	232.59
787.74	232.56
788.06	232.56
788.38	232.53
788.71	232.49
789.03	232.45
789.35	232.45
789.67	232.40
789.99	232.38
790.32	232.34
790.64	232.32
790.96	232.46
791.28	232.37
791.61	232.35
791.93	232.34
792.25	232.29
792.57	232.39
792.89	232.34
793.21	232.31
793.54	232.27
793.86	232.23
794.18	232.22
794.50	232.16
794.82	232.12
795.14	232.11
795.47	232.13
795.79	232.12
796.11	232.05
796.43	232.03
796.75	232.00
797.07	231.99
797.39	231.96
797.71	231.79
798.04	231.78
798.36	231.77
798.68	231.74
799.00	231.74
799.32	231.63
799.64	231.65
799.96	231.63
800.28	231.64
800.60	231.61
800.92	231.60
801.24	231.57
801.56	231.56
801.89	231.53
802.21	231.52
802.53	231.46
802.85	231.48
803.17	231.55
803.49	231.50
803.81	231.46
804.13	231.42
804.45	231.38
804.77	231.38
805.09	231.34
805.41	231.31
805.73	231.26
806.05	231.20
806.37	231.17
806.69	231.13
807.01	231.09
807.33	231.09
807.65	231.01
807.97	231.08
808.28	231.04
808.60	231.03
808.92	230.98
809.24	231.08
809.56	231.02
809.88	230.95
810.20	230.96
810.52	230.98
810.84	230.95
811.16	230.91
811.48	230.89
811.80	230.94
812.12	230.92
812.43	230.95
812.75	230.95
813.07	230.92
813.39	230.92
813.71	230.90
814.03	230.87
814.35	230.88
814.67	230.80
814.98	230.78
815.30	230.77
815.62	230.73
815.94	230.61
816.26	230.63
816.58	230.59
816.89	230.59
817.21	230.53
817.53	230.54
817.85	230.55
818.17	230.54
818.48	230.47
818.80	230.49
819.12	230.44
819.44	230.40
819.76	230.38
820.07	230.37
820.39	230.36
820.71	230.35
821.03	230.34
821.34	230.33
821.66	230.35
821.98	230.35
822.30	230.34
822.61	230.44
822.93	230.40
823.25	230.39
823.57	230.36
823.88	230.38
824.20	230.35
824.52	230.37
824.83	230.35
825.15	230.32
825.47	230.30
825.79	230.32
826.10	230.30
826.42	230.29
826.74	230.29
827.05	230.27
827.37	230.27
827.69	230.27
828.00	230.27
828.32	230.25
828.64	230.21
828.95	230.31
829.27	230.24
829.58	230.23
829.90	230.25
830.22	230.24
830.53	230.21
830.85	230.19
831.17	230.14
831.48	230.14
831.80	230.15
832.11	230.15
832.43	230.11
832.75	230.11
833.06	230.21
833.38	230.16
833.69	230.15
834.01	230.14
834.32	230.12
834.64	230.10
834.96	230.09
835.27	230.10
835.59	230.02
835.90	229.99
836.22	229.99
836.53	229.95
836.85	229.94
837.16	230.11
837.48	230.11
837.79	230.16
838.11	230.15
838.42	230.14
838.74	230.15
839.05	230.13
839.37	230.11
839.68	230.00
840.00	229.99
840.31	230.01
840.63	229.98
840.94	229.96
841.26	229.94
841.57	229.92
841.88	229.93
842.20	229.90
842.51	229.87
842.83	229.85
843.14	230.00
843.46	229.99
843.77	229.88
844.08	229.86
844.40	229.82
844.71	229.80
845.03	229.79
845.34	229.78
845.65	229.78
845.97	229.79
846.28	229.78
846.60	229.80
846.91	229.76
847.22	229.77
847.54	229.81
847.85	229.83
848.16	229.81
848.48	229.78
848.79	229.84
849.10	229.85
849.42	229.87
849.73	229.71
850.04	229.71
850.36	229.65
850.67	229.68
850.98	229.67
851.30	229.68
851.61	229.67
851.92	229.65
852.23	229.70
852.55	229.71
852.86	229.73
853.17	229.73
853.49	229.77
853.80	229.79
854.11	229.79
854.42	229.80
854.74	229.80
855.05	229.80
855.36	229.72
855.67	229.71
855.99	229.71
856.30	229.91
856.61	229.91
856.92	229.91
857.23	229.92
857.55	229.89
857.86	229.87
858.17	229.91
858.48	229.87
858.79	229.83
859.11	229.84
859.42	229.81
859.73	229.78
860.04	229.76
860.35	229.71
860.66	229.66
860.98	229.65
861.29	229.67
861.60	229.64
861.91	229.69
862.22	229.67
862.53	229.63
862.84	229.43
863.16	229.46
863.47	229.43
863.78	229.41
864.09	229.43
864.40	229.45
864.71	229.44
865.02	229.46
865.33	229.44
865.64	229.41
865.95	229.41
866.27	229.53
866.58	229.51
866.89	229.53
867.20	229.53
867.51	229.51
867.82	229.50
868.13	229.56
868.44	229.52
868.75	229.55
869.06	229.55
869.37	229.57
869.68	229.53
869.99	229.56
870.30	229.55
870.61	229.56
870.92	229.53
871.23	229.51
871.54	229.53
871.85	229.58
872.16	229.60
872.47	229.59
872.78	229.49
873.09	229.51
873.40	229.49
873.71	229.51
874.02	229.52
874.33	229.50
874.64	229.44
874.95	229.47
875.26	229.43
875.56	229.43
875.87	229.41
876.18	229.41
876.49	229.58
876.80	229.57
877.11	229.52
877.42	229.52
877.73	229.53
878.04	229.50
878.35	229.50
878.66	229.50
878.96	229.51
879.27	229.49
879.58	229.48
879.89	229.47
880.20	229.51
880.51	229.49
880.82	229.50
881.12	229.52
881.43	229.49
881.74	229.48
882.05	229.47
882.36	229.48
882.67	229.48
882.97	229.29
883.28	229.28
883.59	229.29
883.90	229.31
884.21	229.33
884.51	229.33
884.82	229.30
885.13	229.29
885.44	229.29
885.74	229.30
886.05	229.29
886.36	229.28
886.67	229.24
886.98	229.32
887.28	229.33
887.59	229.33
887.90	229.33
888.20	229.33
888.51	229.37
888.82	229.33
889.13	229.34
889.43	229.50
889.74	229.49
890.05	229.49
890.35	229.47
890.66	229.44
890.97	229.42
891.28	229.40
891.58	229.41
891.89	229.40
892.20	229.37
892.50	229.36
892.81	229.35
893.12	229.34
893.42	229.25
893.73	229.25
894.04	229.26
894.34	229.26
894.65	229.26
894.95	229.24
895.26	229.25
895.57	229.33
895.87	229.14
896.18	229.17
896.48	229.19
896.79	229.18
897.10	229.21
897.40	229.21
897.71	229.24
898.01	229.22
898.32	229.25
898.63	229.25
898.93	229.27
899.24	229.28
899.54	229.27
899.85	229.26
900.15	229.25
900.46	229.25
900.76	229.26
901.07	229.26
901.38	229.24
901.68	229.26
901.99	229.17
902.29	229.19
902.60	229.18
902.90	229.17
903.21	229.16
903.51	229.13
903.82	229.18
904.12	229.19
904.43	229.20
904.73	229.17
905.03	229.18
905.34	229.33
905.64	229.32
905.95	229.31
906.25	229.30
906.56	229.30
906.86	229.29
907.17	229.27
907.47	229.29
907.77	229.29
908.08	229.25
908.38	229.26
908.69	229.28
908.99	229.30
909.30	229.30
909.60	229.29
909.90	229.28
910.21	229.23
910.51	229.20
910.81	229.20
911.12	229.22
911.42	229.22
911.73	229.05
912.03	229.07
912.33	229.11
912.64	229.11
912.94	229.09
913.24	229.07
913.55	229.06
913.85	229.06
914.15	229.08
914.46	229.11
914.76	229.10
915.06	229.09
915.37	229.06
915.67	229.06
915.97	229.07
916.27	229.05
916.58	229.06
916.88	229.06
917.18	229.05
917.49	229.17
917.79	229.16
918.09	229.19
918.39	229.23
918.70	229.22
919.00	229.23
919.30	229.32
919.60	229.32
919.91	229.30
920.21	229.31
920.51	229.27
920.81	229.26
921.12	229.28
921.42	229.26
921.72	229.28
922.02	229.29
922.32	229.31
922.63	229.32
922.93	229.42
923.23	229.42
923.53	229.41
923.83	229.29
924.13	229.31
924.44	229.30
924.74	229.32
925.04	229.35
925.34	229.34
925.64	229.27
925.94	229.27
926.24	229.37
926.55	229.34
926.85	229.37
927.15	229.37
927.45	229.38
927.75	229.38
928.05	229.38
928.35	229.36
928.65	229.39
928.95	229.39
929.26	229.30
929.56	229.34
929.86	229.35
930.16	229.34
930.46	229.31
930.76	229.32
931.06	229.24
931.36	229.19
931.66	229.23
931.96	229.25
932.26	229.26
932.56	229.18
932.86	229.18
933.16	229.17
933.46	229.15
933.76	229.12
934.06	229.14
934.36	229.21
934.66	229.20
934.96	229.17
935.26	229.18
935.56	229.21
935.86	229.15
936.16	229.13
936.46	229.11
936.76	229.10
937.06	229.08
937.36	229.10
937.66	229.10
937.96	229.08
938.26	229.04
938.56	229.02
938.86	229.03
939.16	229.08
939.46	229.10
939.76	229.11
940.06	229.11
940.35	229.08
940.65	228.99
940.95	229.00
941.25	228.96
941.55	228.94
941.85	228.93
942.15	228.97
942.45	229.01
942.75	229.01
943.04	229.02
943.34	229.04
943.64	229.02
943.94	229.00
944.24	228.99
944.54	229.01
944.84	229.00
945.13	228.98
945.43	228.93
945.73	228.93
946.03	228.91
946.33	228.89
946.62	228.89
946.92	228.89
947.22	228.90
947.52	228.92
947.82	228.93
948.11	228.91
948.41	228.87
948.71	228.82
949.01	228.85
949.31	228.84
949.60	228.84
949.90	228.87
950.20	228.88
950.50	228.88
950.79	228.86
951.09	228.89
951.39	228.90
951.69	228.88
951.98	228.92
952.28	228.93
952.58	228.94
952.87	228.93
953.17	228.96
953.47	228.94
953.76	228.93
954.06	228.92
954.36	228.90
954.66	228.91
954.95	228.96
955.25	228.97
955.55	228.98
955.84	228.95
956.14	228.96
956.44	228.97
956.73	228.95
957.03	228.97
957.32	228.97
957.62	228.97
957.92	229.02
958.21	229.00
958.51	229.20
958.81	229.23
959.10	229.26
959.40	229.30
959.69	229.32
959.99	229.35
960.29	229.35
960.58	229.36
960.88	229.43
961.17	229.41
961.47	229.42
961.76	229.41
962.06	229.44
962.36	229.42
962.65	229.43
962.95	229.45
963.24	229.43
963.54	229.43
963.83	229.44
964.13	229.43
964.42	229.41
964.72	229.26
965.01	229.27
965.31	229.25
965.60	229.19
965.90	229.30
966.19	229.26
966.49	229.26
966.78	229.25
967.08	229.22
967.37	229.21
967.67	229.19
967.96	229.21
968.26	229.19
968.55	229.21
968.85	229.20
969.14	229.20
969.43	229.19
969.73	229.16
970.02	229.15
970.32	229.14
970.61	229.11
970.91	229.06
971.20	229.02
971.49	229.00
971.79	229.03
972.08	228.90
972.38	228.91
972.67	228.91
972.96	228.95
973.26	228.91
973.55	228.96
973.85	228.94
974.14	228.92
974.43	228.93
974.73	228.90
975.02	228.87
975.31	228.87
975.61	228.86
975.90	228.85
976.19	228.84
976.49	228.85
976.78	228.87
977.07	228.87
977.37	228.89
977.66	228.91
977.95	228.88
978.24	228.89
978.54	228.93
978.83	228.90
979.12	228.88
979.42	228.89
979.71	228.86
980.00	228.85
980.29	228.86
980.59	228.84
980.88	228.89
981.17	228.89
981.46	228.88
981.76	228.89
982.05	228.94
982.34	228.94
982.63	228.94
982.93	228.93
983.22	228.97
983.51	228.98
983.80	229.00
984.09	229.01
984.39	229.00
984.68	228.96
984.97	228.98
985.26	228.97
985.55	228.98
985.85	228.93
986.14	228.98
986.43	229.00
986.72	229.00
987.01	228.94
987.30	228.94
987.59	228.95
987.89	228.96
988.18	228.91
988.47	228.90
988.76	228.88
989.05	228.87
989.34	228.85
989.63	228.90
989.92	228.86
990.22	228.85
990.51	228.85
990.80	228.84
991.09	228.86
991.38	228.87
991.67	228.85
991.96	228.85
992.25	228.86
992.54	228.82
992.83	228.82
993.12	228.82
993.41	228.85
993.70	228.92
993.99	228.95
994.28	228.96
994.58	228.99
994.87	228.98
995.16	228.97
995.45	228.96
995.74	228.89
996.03	228.91
996.32	228.93
996.61	228.97
996.90	228.96
997.19	228.94
997.48	228.95
997.77	228.94
998.06	228.95
998.34	228.93
998.63	228.94
998.92	228.94
999.21	228.97
999.50	228.96
999.79	228.89
1000.08	228.87
1000.37	228.88
1000.66	228.85
1000.95	228.89
1001.24	228.90
1001.53	228.92
1001.82	228.93
1002.11	228.90
1002.40	228.90
1002.68	228.93
1002.97	229.07
1003.26	229.04
1003.55	229.02
1003.84	229.04
1004.13	229.08
1004.42	229.08
1004.71	229.08
1004.99	229.07
1005.28	229.10
1005.57	229.10
1005.86	229.09
1006.15	229.09
1006.44	229.07
1006.72	229.08
1007.01	229.05
1007.30	229.05
1007.59	229.03
1007.88	229.03
1008.17	229.05
1008.45	229.00
1008.74	228.94
1009.03	228.86
1009.32	228.86
1009.60	228.86
1009.89	228.83
1010.18	228.77
1010.47	228.75
1010.76	228.75
1011.04	228.74
1011.33	228.73
1011.62	228.74
1011.91	228.75
1012.19	228.76
1012.48	228.76
1012.77	228.76
1013.05	228.83
1013.34	228.83
1013.63	228.82
1013.92	228.83
1014.20	228.81
1014.49	228.82
1014.78	228.84
1015.06	228.78
1015.35	228.78
1015.64	228.79
1015.92	228.83
1016.21	228.83
1016.50	228.83
1016.78	228.86
1017.07	228.88
1017.36	228.84
1017.64	228.81
1017.93	228.82
1018.22	228.80
1018.50	228.80
1018.79	228.79
1019.08	228.73
1019.36	228.73
1019.65	228.72
1019.93	228.77
1020.22	228.80
1020.51	228.89
1020.79	228.86
1021.08	228.53
1021.36	228.61
1021.65	228.66
1021.94	228.68
1022.22	228.96
1022.51	228.38
1022.79	229.77
1023.08	229.04
1023.36	230.84
1023.65	228.33
>>>>>End Processed Spectral Data<<<<<
