SpectraSuite Data File
++++++++++++++++++++++++++++++++++++
Date: Tue Oct 06 14:35:17 EDT 2015
User: lab3
Dark Spectrum Present: No
Reference Spectrum Present: No
Number of Sampled Component Spectra: 1
Spectrometers: USB2E7196
Integration Time (usec): 66000 (USB2E7196)
Spectra Averaged: 1000 (USB2E7196)
Boxcar Smoothing: 10 (USB2E7196)
Correct for Electrical Dark: No (USB2E7196)
Strobe/Lamp Enabled: No (USB2E7196)
Correct for Detector Non-linearity: No (USB2E7196)
Correct for Stray Light: No (USB2E7196)
Number of Pixels in Processed Spectrum: 2048
>>>>>Begin Processed Spectral Data<<<<<
339.09	0.00
339.48	215.02
339.86	216.41
340.24	217.88
340.63	219.14
341.01	223.12
341.39	221.81
341.78	223.20
342.16	224.66
342.54	225.02
342.93	213.44
343.31	224.22
343.69	224.75
344.07	225.21
344.46	225.66
344.84	226.07
345.22	226.27
345.60	226.55
345.99	226.77
346.37	226.91
346.75	227.03
347.13	227.12
347.52	227.20
347.90	227.33
348.28	227.37
348.66	227.45
349.05	227.44
349.43	227.51
349.81	227.58
350.19	227.65
350.57	227.72
350.96	227.83
351.34	227.93
351.72	228.05
352.10	228.17
352.48	228.23
352.87	228.27
353.25	228.34
353.63	228.40
354.01	228.45
354.39	228.53
354.77	228.60
355.15	228.71
355.54	228.75
355.92	228.77
356.30	228.84
356.68	229.03
357.06	229.09
357.44	229.13
357.82	229.19
358.20	229.40
358.58	229.46
358.97	229.51
359.35	229.59
359.73	229.67
360.11	229.72
360.49	229.79
360.87	229.83
361.25	229.90
361.63	230.00
362.01	230.05
362.39	230.08
362.77	230.14
363.15	230.16
363.53	230.19
363.91	230.22
364.29	230.24
364.67	230.09
365.05	230.12
365.43	230.17
365.81	230.20
366.19	230.15
366.57	230.23
366.95	230.22
367.33	230.19
367.71	230.18
368.09	230.20
368.47	230.19
368.85	230.19
369.23	230.21
369.61	230.14
369.99	230.18
370.37	230.17
370.75	230.30
371.13	230.26
371.51	230.22
371.89	230.21
372.27	230.20
372.65	230.19
373.03	230.16
373.41	230.10
373.78	230.04
374.16	229.92
374.54	229.82
374.92	229.77
375.30	229.73
375.68	229.65
376.06	229.61
376.44	229.55
376.82	229.51
377.19	229.47
377.57	229.41
377.95	229.29
378.33	229.24
378.71	229.02
379.09	228.98
379.47	228.96
379.84	228.89
380.22	228.83
380.60	228.76
380.98	228.70
381.36	228.66
381.73	228.59
382.11	228.58
382.49	228.55
382.87	228.48
383.25	228.45
383.62	228.63
384.00	228.55
384.38	228.52
384.76	228.52
385.13	228.53
385.51	228.49
385.89	228.46
386.27	228.43
386.64	228.42
387.02	228.37
387.40	228.32
387.78	228.31
388.15	228.28
388.53	228.25
388.91	228.24
389.29	228.21
389.66	228.23
390.04	228.19
390.42	228.21
390.79	228.21
391.17	228.19
391.55	227.97
391.92	227.97
392.30	227.99
392.68	227.94
393.05	227.92
393.43	227.93
393.81	227.94
394.18	227.92
394.56	227.93
394.94	227.99
395.31	228.00
395.69	228.07
396.06	228.13
396.44	228.16
396.82	228.18
397.19	228.32
397.57	228.33
397.95	228.40
398.32	228.39
398.70	228.46
399.07	228.58
399.45	228.64
399.82	228.72
400.20	228.77
400.58	228.87
400.95	228.89
401.33	229.02
401.70	229.25
402.08	229.40
402.45	229.53
402.83	229.70
403.20	229.87
403.58	230.01
403.95	230.21
404.33	230.44
404.71	230.66
405.08	230.96
405.46	231.22
405.83	231.50
406.21	231.80
406.58	232.13
406.96	232.45
407.33	232.83
407.70	233.26
408.08	233.84
408.45	234.35
408.83	234.91
409.20	235.42
409.58	235.88
409.95	236.50
410.33	237.19
410.70	237.83
411.08	238.58
411.45	239.38
411.82	240.20
412.20	241.13
412.57	242.23
412.95	243.12
413.32	244.25
413.69	245.43
414.07	246.68
414.44	248.06
414.82	249.46
415.19	251.11
415.56	252.78
415.94	254.51
416.31	256.46
416.68	258.41
417.06	260.67
417.43	262.78
417.81	265.22
418.18	267.70
418.55	270.41
418.93	273.25
419.30	276.21
419.67	279.34
420.04	282.57
420.42	285.96
420.79	289.84
421.16	293.77
421.54	297.75
421.91	301.90
422.28	306.20
422.66	310.84
423.03	315.24
423.40	319.86
423.77	324.80
424.15	329.86
424.52	335.11
424.89	340.81
425.26	346.44
425.64	351.69
426.01	357.56
426.38	363.58
426.75	369.75
427.13	376.05
427.50	382.62
427.87	389.44
428.24	396.28
428.61	402.84
428.99	409.93
429.36	417.76
429.73	425.25
430.10	432.68
430.47	440.29
430.85	448.15
431.22	456.54
431.59	465.13
431.96	473.50
432.33	482.84
432.70	491.72
433.08	502.27
433.45	512.22
433.82	521.98
434.19	532.87
434.56	543.62
434.93	554.03
435.30	564.38
435.68	576.18
436.05	587.68
436.42	599.19
436.79	609.74
437.16	621.07
437.53	633.27
437.90	645.53
438.27	657.49
438.64	670.35
439.01	682.08
439.38	692.96
439.75	703.42
440.13	715.30
440.50	726.63
440.87	735.65
441.24	745.53
441.61	756.40
441.98	764.46
442.35	773.94
442.72	783.67
443.09	793.03
443.46	799.19
443.83	803.83
444.20	807.62
444.57	813.20
444.94	816.65
445.31	820.11
445.68	823.04
446.05	825.30
446.42	825.15
446.79	824.79
447.16	824.44
447.53	824.26
447.90	820.95
448.27	817.69
448.64	812.53
449.01	809.11
449.37	801.80
449.74	795.21
450.11	786.65
450.48	777.16
450.85	767.53
451.22	759.18
451.59	751.06
451.96	743.88
452.33	733.27
452.70	723.78
453.07	712.24
453.43	700.79
453.80	689.61
454.17	678.92
454.54	668.94
454.91	657.63
455.28	646.92
455.65	636.76
456.02	626.10
456.38	617.51
456.75	606.40
457.12	597.42
457.49	588.33
457.86	579.76
458.23	572.28
458.59	563.97
458.96	555.48
459.33	548.00
459.70	540.34
460.07	534.43
460.43	527.47
460.80	520.99
461.17	515.30
461.54	509.22
461.91	503.51
462.27	497.70
462.64	492.98
463.01	487.59
463.38	482.22
463.74	477.37
464.11	473.04
464.48	469.17
464.85	464.95
465.21	461.70
465.58	458.13
465.95	454.01
466.32	450.73
466.68	447.52
467.05	444.28
467.42	441.14
467.78	437.77
468.15	434.69
468.52	432.42
468.88	429.43
469.25	426.70
469.62	424.53
469.98	422.16
470.35	420.01
470.72	418.08
471.08	416.13
471.45	414.45
471.82	412.59
472.18	410.66
472.55	409.43
472.92	407.90
473.28	406.68
473.65	405.35
474.02	404.14
474.38	403.12
474.75	402.49
475.11	401.59
475.48	401.16
475.85	400.73
476.21	400.47
476.58	400.27
476.94	400.44
477.31	400.47
477.67	400.59
478.04	400.89
478.41	401.27
478.77	401.84
479.14	402.17
479.50	402.92
479.87	403.89
480.23	404.83
480.60	405.74
480.96	406.66
481.33	408.09
481.69	409.47
482.06	410.85
482.42	412.14
482.79	413.69
483.15	415.55
483.52	417.67
483.88	419.69
484.25	421.84
484.61	424.07
484.98	426.42
485.34	429.12
485.71	431.90
486.07	434.90
486.44	437.82
486.80	441.15
487.17	444.53
487.53	448.24
487.90	452.09
488.26	456.34
488.62	460.78
488.99	465.22
489.35	469.95
489.72	475.01
490.08	480.32
490.44	485.76
490.81	491.33
491.17	497.01
491.54	503.13
491.90	509.41
492.26	516.10
492.63	523.12
492.99	530.39
493.36	537.95
493.72	545.91
494.08	554.02
494.45	562.52
494.81	571.41
495.17	580.51
495.54	590.13
495.90	600.12
496.26	610.39
496.63	620.89
496.99	631.74
497.35	642.98
497.72	654.64
498.08	666.69
498.44	679.07
498.80	692.23
499.17	705.71
499.53	719.61
499.89	733.86
500.26	748.23
500.62	762.87
500.98	778.23
501.34	793.73
501.71	809.99
502.07	826.49
502.43	843.46
502.79	860.54
503.16	878.10
503.52	895.96
503.88	914.24
504.24	933.01
504.60	951.99
504.97	971.42
505.33	991.32
505.69	1012.20
506.05	1033.10
506.41	1053.89
506.78	1074.98
507.14	1096.87
507.50	1119.23
507.86	1142.02
508.22	1165.00
508.59	1187.77
508.95	1211.34
509.31	1235.35
509.67	1260.03
510.03	1284.66
510.39	1309.69
510.75	1334.72
511.12	1359.75
511.48	1384.84
511.84	1409.92
512.20	1435.43
512.56	1461.50
512.92	1487.26
513.28	1512.72
513.64	1538.60
514.00	1564.55
514.37	1590.72
514.73	1616.60
515.09	1642.03
515.45	1667.72
515.81	1693.44
516.17	1719.22
516.53	1744.39
516.89	1769.43
517.25	1794.56
517.61	1819.42
517.97	1844.46
518.33	1869.19
518.69	1893.82
519.05	1918.55
519.41	1943.24
519.77	1967.81
520.13	1992.11
520.49	2016.30
520.85	2040.42
521.21	2064.38
521.57	2088.62
521.93	2111.69
522.29	2135.31
522.65	2158.36
523.01	2181.18
523.37	2203.28
523.73	2225.75
524.09	2248.34
524.45	2270.98
524.81	2292.93
525.17	2314.56
525.53	2335.49
525.89	2356.67
526.25	2377.44
526.61	2397.23
526.97	2417.11
527.33	2436.69
527.68	2455.37
528.04	2473.42
528.40	2490.51
528.76	2508.11
529.12	2524.39
529.48	2541.19
529.84	2556.71
530.20	2573.36
530.56	2589.00
530.91	2604.46
531.27	2618.91
531.63	2632.29
531.99	2645.44
532.35	2656.95
532.71	2668.53
533.07	2680.55
533.42	2690.93
533.78	2702.03
534.14	2713.40
534.50	2723.44
534.86	2733.52
535.21	2741.64
535.57	2749.76
535.93	2758.28
536.29	2765.63
536.65	2773.33
537.00	2778.78
537.36	2784.50
537.72	2788.57
538.08	2792.30
538.44	2795.09
538.79	2798.26
539.15	2800.96
539.51	2802.96
539.87	2805.65
540.22	2806.37
540.58	2807.29
540.94	2807.98
541.29	2807.18
541.65	2804.92
542.01	2802.63
542.37	2799.35
542.72	2797.73
543.08	2794.92
543.44	2791.95
543.79	2787.20
544.15	2782.28
544.51	2778.34
544.87	2772.43
545.22	2765.90
545.58	2759.40
545.94	2753.79
546.29	2746.64
546.65	2738.72
547.01	2730.89
547.36	2722.70
547.72	2714.40
548.07	2705.00
548.43	2695.29
548.79	2684.52
549.14	2674.70
549.50	2664.86
549.86	2654.30
550.21	2641.90
550.57	2630.79
550.92	2617.85
551.28	2605.48
551.64	2593.43
551.99	2581.43
552.35	2569.58
552.70	2557.52
553.06	2545.94
553.41	2533.20
553.77	2519.94
554.13	2506.94
554.48	2493.16
554.84	2478.78
555.19	2465.35
555.55	2451.18
555.90	2437.21
556.26	2424.25
556.61	2410.46
556.97	2395.64
557.32	2381.20
557.68	2367.11
558.03	2352.31
558.39	2338.46
558.74	2324.98
559.10	2309.28
559.45	2293.93
559.81	2279.43
560.16	2264.46
560.52	2249.21
560.87	2234.73
561.23	2219.85
561.58	2205.31
561.94	2190.10
562.29	2174.95
562.64	2159.91
563.00	2144.87
563.35	2130.38
563.71	2115.72
564.06	2100.62
564.42	2085.97
564.77	2071.49
565.12	2057.33
565.48	2043.25
565.83	2028.60
566.19	2014.07
566.54	2000.18
566.89	1985.11
567.25	1969.47
567.60	1955.06
567.96	1940.14
568.31	1924.63
568.66	1909.89
569.02	1895.21
569.37	1880.60
569.72	1866.39
570.08	1851.85
570.43	1837.37
570.78	1822.11
571.14	1806.74
571.49	1791.83
571.84	1777.83
572.20	1762.48
572.55	1747.35
572.90	1731.65
573.26	1716.12
573.61	1700.28
573.96	1684.98
574.31	1670.38
574.67	1656.24
575.02	1641.34
575.37	1626.07
575.72	1610.72
576.08	1595.71
576.43	1580.75
576.78	1565.88
577.13	1551.12
577.49	1536.41
577.84	1521.56
578.19	1506.93
578.54	1492.39
578.90	1477.68
579.25	1462.45
579.60	1448.42
579.95	1434.27
580.30	1420.32
580.66	1406.40
581.01	1392.68
581.36	1378.86
581.71	1364.91
582.06	1351.03
582.42	1337.35
582.77	1323.94
583.12	1310.96
583.47	1297.77
583.82	1284.69
584.17	1271.69
584.53	1258.54
584.88	1245.87
585.23	1233.12
585.58	1220.62
585.93	1208.15
586.28	1196.26
586.63	1184.21
586.98	1172.02
587.34	1160.26
587.69	1148.18
588.04	1136.53
588.39	1124.95
588.74	1113.28
589.09	1102.02
589.44	1090.27
589.79	1079.06
590.14	1068.05
590.49	1057.01
590.84	1046.36
591.19	1035.75
591.54	1025.08
591.89	1014.30
592.25	1003.55
592.60	992.72
592.95	982.11
593.30	971.56
593.65	960.95
594.00	950.68
594.35	941.08
594.70	930.94
595.05	921.57
595.40	911.97
595.75	902.28
596.10	893.02
596.45	883.66
596.80	874.64
597.15	865.56
597.50	856.59
597.85	847.95
598.19	839.20
598.54	830.53
598.89	822.03
599.24	813.92
599.59	805.84
599.94	798.28
600.29	790.55
600.64	782.88
600.99	775.22
601.34	767.77
601.69	759.71
602.04	752.28
602.39	744.94
602.74	737.86
603.08	730.84
603.43	723.88
603.78	717.01
604.13	710.29
604.48	703.58
604.83	697.12
605.18	690.65
605.53	684.37
605.87	677.95
606.22	671.78
606.57	665.58
606.92	659.29
607.27	653.13
607.62	647.32
607.96	641.62
608.31	636.21
608.66	630.61
609.01	625.27
609.36	620.13
609.70	614.90
610.05	609.60
610.40	604.46
610.75	599.23
611.10	594.33
611.44	589.41
611.79	584.58
612.14	579.68
612.49	574.77
612.83	570.04
613.18	565.59
613.53	561.11
613.88	556.69
614.22	552.51
614.57	548.20
614.92	543.90
615.27	539.72
615.61	535.53
615.96	531.51
616.31	527.53
616.65	523.53
617.00	519.64
617.35	515.84
617.70	512.12
618.04	508.57
618.39	504.94
618.74	501.48
619.08	497.92
619.43	494.49
619.78	491.16
620.12	487.85
620.47	484.63
620.82	481.49
621.16	478.41
621.51	475.44
621.85	472.52
622.20	469.68
622.55	466.83
622.89	464.04
623.24	461.37
623.59	458.73
623.93	456.15
624.28	453.65
624.62	451.37
624.97	449.05
625.32	446.60
625.66	444.15
626.01	441.71
626.35	439.52
626.70	437.23
627.04	435.12
627.39	432.94
627.73	430.78
628.08	428.73
628.43	426.69
628.77	424.65
629.12	422.71
629.46	420.78
629.81	418.94
630.15	417.03
630.50	415.14
630.84	413.34
631.19	411.60
631.53	409.93
631.88	408.04
632.22	406.27
632.57	404.83
632.91	403.37
633.26	401.99
633.60	400.51
633.95	399.12
634.29	397.62
634.64	396.20
634.98	394.66
635.32	393.26
635.67	391.94
636.01	390.60
636.36	389.32
636.70	388.15
637.05	386.88
637.39	385.72
637.73	384.55
638.08	383.42
638.42	382.29
638.77	381.05
639.11	379.79
639.45	378.60
639.80	377.36
640.14	376.18
640.49	374.95
640.83	373.79
641.17	372.66
641.52	371.55
641.86	370.48
642.20	369.57
642.55	368.50
642.89	367.46
643.23	366.43
643.58	365.52
643.92	364.45
644.26	363.44
644.61	362.51
644.95	361.56
645.29	360.56
645.64	359.55
645.98	358.60
646.32	357.77
646.66	356.86
647.01	355.93
647.35	355.08
647.69	354.21
648.04	353.38
648.38	352.50
648.72	351.68
649.06	350.89
649.41	350.07
649.75	349.26
650.09	348.51
650.43	347.74
650.78	346.92
651.12	346.15
651.46	345.42
651.80	344.68
652.14	343.94
652.49	343.26
652.83	342.51
653.17	341.81
653.51	341.11
653.85	340.49
654.20	339.86
654.54	339.14
654.88	338.47
655.22	337.83
655.56	337.14
655.90	336.45
656.25	335.76
656.59	335.10
656.93	334.51
657.27	333.93
657.61	333.27
657.95	332.67
658.29	332.06
658.64	331.53
658.98	330.91
659.32	330.29
659.66	329.72
660.00	329.17
660.34	328.60
660.68	328.00
661.02	327.36
661.36	326.73
661.70	326.14
662.05	325.59
662.39	325.04
662.73	324.58
663.07	324.15
663.41	323.64
663.75	323.08
664.09	322.53
664.43	321.89
664.77	321.39
665.11	320.79
665.45	320.24
665.79	319.68
666.13	319.12
666.47	318.59
666.81	318.00
667.15	317.40
667.49	316.90
667.83	316.48
668.17	316.02
668.51	315.58
668.85	315.16
669.19	314.79
669.53	314.29
669.87	313.79
670.21	313.32
670.55	312.85
670.89	312.51
671.23	312.08
671.57	311.67
671.91	311.29
672.25	310.93
672.58	310.57
672.92	310.11
673.26	309.72
673.60	309.31
673.94	308.93
674.28	308.57
674.62	308.19
674.96	307.72
675.30	307.32
675.64	306.91
675.97	306.45
676.31	305.95
676.65	305.49
676.99	305.13
677.33	304.66
677.67	304.21
678.01	303.66
678.34	303.21
678.68	302.79
679.02	302.30
679.36	301.85
679.70	301.38
680.04	300.93
680.37	300.49
680.71	300.06
681.05	299.67
681.39	299.24
681.73	298.76
682.06	298.30
682.40	297.86
682.74	297.48
683.08	297.12
683.42	296.68
683.75	296.28
684.09	295.76
684.43	295.30
684.77	294.85
685.10	294.46
685.44	294.07
685.78	293.65
686.12	293.26
686.45	292.83
686.79	292.37
687.13	291.96
687.46	291.51
687.80	291.08
688.14	290.58
688.48	290.14
688.81	289.71
689.15	289.35
689.49	288.89
689.82	288.41
690.16	287.88
690.50	287.46
690.83	287.02
691.17	286.57
691.51	286.15
691.84	285.77
692.18	285.36
692.52	284.90
692.85	284.47
693.19	284.09
693.52	283.69
693.86	283.30
694.20	282.89
694.53	282.49
694.87	282.05
695.21	281.61
695.54	281.21
695.88	280.77
696.21	280.27
696.55	279.85
696.88	279.42
697.22	279.00
697.56	278.59
697.89	278.13
698.23	277.70
698.56	277.26
698.90	276.84
699.23	276.38
699.57	275.97
699.90	275.52
700.24	275.03
700.58	274.62
700.91	274.26
701.25	274.01
701.58	273.69
701.92	273.36
702.25	273.01
702.59	272.60
702.92	272.24
703.26	271.86
703.59	271.47
703.93	271.24
704.26	270.89
704.60	270.51
704.93	270.13
705.26	269.74
705.60	269.41
705.93	268.97
706.27	268.65
706.60	268.33
706.94	268.04
707.27	267.64
707.61	267.25
707.94	266.85
708.27	266.31
708.61	265.86
708.94	265.46
709.28	265.08
709.61	264.71
709.94	264.38
710.28	264.06
710.61	263.77
710.95	263.29
711.28	263.08
711.61	262.75
711.95	262.45
712.28	262.12
712.61	261.76
712.95	261.55
713.28	261.30
713.61	260.93
713.95	260.57
714.28	260.28
714.61	259.96
714.95	259.64
715.28	259.34
715.61	259.04
715.95	258.77
716.28	258.46
716.61	258.19
716.95	257.84
717.28	257.53
717.61	257.20
717.94	256.90
718.28	256.48
718.61	256.19
718.94	255.88
719.27	255.62
719.61	255.38
719.94	255.07
720.27	254.71
720.60	254.44
720.94	254.17
721.27	253.92
721.60	253.69
721.93	253.42
722.27	253.22
722.60	252.99
722.93	252.71
723.26	252.49
723.59	252.22
723.93	252.02
724.26	251.81
724.59	251.57
724.92	251.36
725.25	251.18
725.59	250.95
725.92	250.77
726.25	250.55
726.58	250.33
726.91	250.08
727.24	249.89
727.57	249.68
727.91	249.44
728.24	249.27
728.57	249.04
728.90	248.89
729.23	248.63
729.56	248.50
729.89	248.32
730.22	248.10
730.55	247.89
730.89	247.68
731.22	247.45
731.55	247.25
731.88	247.05
732.21	246.82
732.54	246.62
732.87	246.41
733.20	246.22
733.53	246.04
733.86	245.87
734.19	245.67
734.52	245.52
734.85	245.47
735.18	245.26
735.51	245.15
735.84	244.96
736.17	244.85
736.50	244.58
736.83	244.61
737.16	244.42
737.49	244.27
737.82	244.09
738.15	243.96
738.48	243.80
738.81	243.63
739.14	243.46
739.47	243.29
739.80	243.12
740.13	242.99
740.46	242.80
740.79	242.62
741.12	242.47
741.45	242.27
741.78	242.03
742.11	241.92
742.44	241.72
742.77	241.60
743.10	241.40
743.43	241.26
743.75	240.92
744.08	241.07
744.41	240.91
744.74	240.77
745.07	240.60
745.40	240.50
745.73	240.45
746.06	240.34
746.39	240.24
746.71	240.10
747.04	239.95
747.37	239.81
747.70	239.72
748.03	239.58
748.36	239.49
748.68	239.34
749.01	239.18
749.34	239.08
749.67	238.95
750.00	238.87
750.33	238.88
750.65	238.79
750.98	238.43
751.31	238.32
751.64	238.23
751.97	238.22
752.29	238.08
752.62	237.88
752.95	237.75
753.28	237.60
753.60	237.48
753.93	237.40
754.26	237.32
754.59	237.16
754.91	237.03
755.24	236.90
755.57	236.80
755.90	236.69
756.22	236.56
756.55	236.42
756.88	236.29
757.20	236.06
757.53	235.91
757.86	235.79
758.19	235.70
758.51	235.60
758.84	235.41
759.17	235.29
759.49	235.21
759.82	235.21
760.15	235.15
760.47	235.07
760.80	234.94
761.13	234.88
761.45	234.79
761.78	234.72
762.11	234.66
762.43	234.55
762.76	234.46
763.08	234.41
763.41	234.34
763.74	234.26
764.06	234.17
764.39	234.10
764.71	234.03
765.04	233.93
765.37	233.84
765.69	233.77
766.02	233.70
766.34	233.61
766.67	233.47
767.00	233.43
767.32	233.46
767.65	233.51
767.97	233.42
768.30	233.38
768.62	233.32
768.95	233.23
769.27	233.17
769.60	233.14
769.92	233.04
770.25	232.96
770.57	232.86
770.90	232.81
771.22	232.74
771.55	232.69
771.87	232.65
772.20	232.60
772.52	232.70
772.85	232.86
773.17	232.81
773.50	232.74
773.82	232.66
774.15	232.51
774.47	232.34
774.80	232.26
775.12	232.20
775.45	232.15
775.77	232.11
776.09	232.08
776.42	232.04
776.74	232.05
777.07	232.01
777.39	231.98
777.72	231.92
778.04	231.90
778.36	231.85
778.69	231.82
779.01	231.79
779.33	231.58
779.66	231.34
779.98	231.28
780.31	231.26
780.63	231.29
780.95	231.29
781.28	231.25
781.60	231.21
781.92	231.17
782.25	231.12
782.57	231.08
782.89	231.02
783.22	230.96
783.54	230.88
783.86	230.85
784.19	230.80
784.51	230.83
784.83	230.76
785.16	230.71
785.48	230.68
785.80	230.64
786.12	230.64
786.45	230.61
786.77	230.60
787.09	230.56
787.42	230.45
787.74	230.42
788.06	230.40
788.38	230.37
788.71	230.33
789.03	230.31
789.35	230.31
789.67	230.26
789.99	230.25
790.32	230.20
790.64	230.19
790.96	230.34
791.28	230.24
791.61	230.21
791.93	230.21
792.25	230.16
792.57	230.26
792.89	230.21
793.21	230.20
793.54	230.15
793.86	230.10
794.18	230.09
794.50	230.04
794.82	230.02
795.14	230.02
795.47	230.04
795.79	230.02
796.11	229.96
796.43	229.93
796.75	229.91
797.07	229.91
797.39	229.87
797.71	229.70
798.04	229.68
798.36	229.67
798.68	229.64
799.00	229.64
799.32	229.52
799.64	229.53
799.96	229.50
800.28	229.52
800.60	229.50
800.92	229.50
801.24	229.48
801.56	229.47
801.89	229.43
802.21	229.41
802.53	229.37
802.85	229.38
803.17	229.46
803.49	229.41
803.81	229.37
804.13	229.36
804.45	229.31
804.77	229.31
805.09	229.29
805.41	229.26
805.73	229.21
806.05	229.15
806.37	229.11
806.69	229.09
807.01	229.04
807.33	229.04
807.65	228.95
807.97	229.01
808.28	228.97
808.60	228.95
808.92	228.91
809.24	229.00
809.56	228.96
809.88	228.88
810.20	228.87
810.52	228.91
810.84	228.86
811.16	228.84
811.48	228.81
811.80	228.87
812.12	228.85
812.43	228.88
812.75	228.88
813.07	228.86
813.39	228.85
813.71	228.82
814.03	228.79
814.35	228.79
814.67	228.71
814.98	228.69
815.30	228.68
815.62	228.65
815.94	228.52
816.26	228.53
816.58	228.49
816.89	228.48
817.21	228.43
817.53	228.43
817.85	228.43
818.17	228.42
818.48	228.33
818.80	228.35
819.12	228.31
819.44	228.26
819.76	228.23
820.07	228.21
820.39	228.20
820.71	228.22
821.03	228.20
821.34	228.17
821.66	228.18
821.98	228.19
822.30	228.17
822.61	228.27
822.93	228.23
823.25	228.22
823.57	228.20
823.88	228.22
824.20	228.21
824.52	228.23
824.83	228.21
825.15	228.18
825.47	228.17
825.79	228.18
826.10	228.17
826.42	228.16
826.74	228.17
827.05	228.15
827.37	228.13
827.69	228.12
828.00	228.13
828.32	228.11
828.64	228.06
828.95	228.15
829.27	228.09
829.58	228.07
829.90	228.10
830.22	228.10
830.53	228.06
830.85	228.04
831.17	227.99
831.48	227.99
831.80	227.99
832.11	227.97
832.43	227.94
832.75	227.93
833.06	228.03
833.38	227.97
833.69	227.97
834.01	227.97
834.32	227.96
834.64	227.93
834.96	227.93
835.27	227.94
835.59	227.86
835.90	227.83
836.22	227.83
836.53	227.77
836.85	227.75
837.16	227.93
837.48	227.92
837.79	227.98
838.11	227.97
838.42	227.97
838.74	227.98
839.05	227.95
839.37	227.94
839.68	227.82
840.00	227.82
840.31	227.84
840.63	227.81
840.94	227.79
841.26	227.76
841.57	227.76
841.88	227.77
842.20	227.75
842.51	227.73
842.83	227.73
843.14	227.90
843.46	227.89
843.77	227.77
844.08	227.77
844.40	227.72
844.71	227.69
845.03	227.68
845.34	227.66
845.65	227.67
845.97	227.67
846.28	227.69
846.60	227.70
846.91	227.67
847.22	227.67
847.54	227.71
847.85	227.73
848.16	227.73
848.48	227.70
848.79	227.77
849.10	227.79
849.42	227.79
849.73	227.63
850.04	227.61
850.36	227.55
850.67	227.58
850.98	227.58
851.30	227.60
851.61	227.60
851.92	227.59
852.23	227.64
852.55	227.64
852.86	227.62
853.17	227.63
853.49	227.66
853.80	227.69
854.11	227.70
854.42	227.71
854.74	227.68
855.05	227.68
855.36	227.58
855.67	227.57
855.99	227.57
856.30	227.77
856.61	227.76
856.92	227.78
857.23	227.78
857.55	227.75
857.86	227.73
858.17	227.75
858.48	227.73
858.79	227.68
859.11	227.70
859.42	227.69
859.73	227.66
860.04	227.65
860.35	227.60
860.66	227.54
860.98	227.52
861.29	227.55
861.60	227.53
861.91	227.56
862.22	227.53
862.53	227.50
862.84	227.28
863.16	227.33
863.47	227.28
863.78	227.25
864.09	227.27
864.40	227.28
864.71	227.27
865.02	227.29
865.33	227.28
865.64	227.23
865.95	227.24
866.27	227.35
866.58	227.33
866.89	227.35
867.20	227.35
867.51	227.32
867.82	227.30
868.13	227.35
868.44	227.33
868.75	227.36
869.06	227.36
869.37	227.39
869.68	227.32
869.99	227.35
870.30	227.36
870.61	227.37
870.92	227.35
871.23	227.34
871.54	227.36
871.85	227.41
872.16	227.43
872.47	227.41
872.78	227.31
873.09	227.33
873.40	227.32
873.71	227.33
874.02	227.34
874.33	227.32
874.64	227.28
874.95	227.30
875.26	227.25
875.56	227.25
875.87	227.24
876.18	227.24
876.49	227.42
876.80	227.40
877.11	227.35
877.42	227.36
877.73	227.35
878.04	227.32
878.35	227.30
878.66	227.30
878.96	227.31
879.27	227.31
879.58	227.29
879.89	227.28
880.20	227.33
880.51	227.32
880.82	227.33
881.12	227.35
881.43	227.32
881.74	227.31
882.05	227.30
882.36	227.31
882.67	227.32
882.97	227.12
883.28	227.12
883.59	227.11
883.90	227.13
884.21	227.15
884.51	227.13
884.82	227.11
885.13	227.09
885.44	227.09
885.74	227.08
886.05	227.07
886.36	227.07
886.67	227.01
886.98	227.10
887.28	227.10
887.59	227.10
887.90	227.11
888.20	227.10
888.51	227.13
888.82	227.11
889.13	227.12
889.43	227.28
889.74	227.26
890.05	227.27
890.35	227.26
890.66	227.24
890.97	227.23
891.28	227.20
891.58	227.20
891.89	227.21
892.20	227.19
892.50	227.18
892.81	227.16
893.12	227.16
893.42	227.07
893.73	227.08
894.04	227.08
894.34	227.09
894.65	227.09
894.95	227.08
895.26	227.08
895.57	227.15
895.87	226.97
896.18	227.00
896.48	227.02
896.79	227.01
897.10	227.04
897.40	227.05
897.71	227.08
898.01	227.07
898.32	227.09
898.63	227.10
898.93	227.12
899.24	227.14
899.54	227.13
899.85	227.12
900.15	227.11
900.46	227.11
900.76	227.13
901.07	227.11
901.38	227.10
901.68	227.13
901.99	227.04
902.29	227.06
902.60	227.04
902.90	227.03
903.21	227.02
903.51	227.00
903.82	227.03
904.12	227.03
904.43	227.05
904.73	227.04
905.03	227.04
905.34	227.21
905.64	227.20
905.95	227.20
906.25	227.19
906.56	227.19
906.86	227.18
907.17	227.17
907.47	227.18
907.77	227.17
908.08	227.13
908.38	227.14
908.69	227.15
908.99	227.18
909.30	227.18
909.60	227.18
909.90	227.19
910.21	227.13
910.51	227.11
910.81	227.10
911.12	227.10
911.42	227.10
911.73	226.92
912.03	226.92
912.33	226.95
912.64	226.94
912.94	226.91
913.24	226.89
913.55	226.87
913.85	226.85
914.15	226.88
914.46	226.91
914.76	226.90
915.06	226.89
915.37	226.84
915.67	226.83
915.97	226.83
916.27	226.79
916.58	226.80
916.88	226.79
917.18	226.77
917.49	226.89
917.79	226.89
918.09	226.92
918.39	226.96
918.70	226.95
919.00	226.97
919.30	227.06
919.60	227.06
919.91	227.04
920.21	227.05
920.51	227.02
920.81	227.00
921.12	227.02
921.42	227.01
921.72	227.03
922.02	227.04
922.32	227.07
922.63	227.08
922.93	227.18
923.23	227.19
923.53	227.18
923.83	227.06
924.13	227.07
924.44	227.05
924.74	227.09
925.04	227.14
925.34	227.13
925.64	227.05
925.94	227.05
926.24	227.15
926.55	227.15
926.85	227.19
927.15	227.19
927.45	227.19
927.75	227.20
928.05	227.20
928.35	227.18
928.65	227.21
928.95	227.22
929.26	227.13
929.56	227.16
929.86	227.17
930.16	227.17
930.46	227.16
930.76	227.17
931.06	227.07
931.36	227.01
931.66	227.04
931.96	227.07
932.26	227.08
932.56	227.00
932.86	227.00
933.16	226.98
933.46	226.97
933.76	226.95
934.06	226.98
934.36	227.05
934.66	227.05
934.96	227.02
935.26	227.02
935.56	227.05
935.86	227.01
936.16	226.98
936.46	226.96
936.76	226.95
937.06	226.92
937.36	226.94
937.66	226.95
937.96	226.93
938.26	226.89
938.56	226.88
938.86	226.89
939.16	226.93
939.46	226.95
939.76	226.95
940.06	226.95
940.35	226.92
940.65	226.81
940.95	226.82
941.25	226.80
941.55	226.77
941.85	226.77
942.15	226.80
942.45	226.85
942.75	226.86
943.04	226.87
943.34	226.90
943.64	226.89
943.94	226.86
944.24	226.86
944.54	226.87
944.84	226.88
945.13	226.84
945.43	226.81
945.73	226.79
946.03	226.78
946.33	226.77
946.62	226.75
946.92	226.76
947.22	226.76
947.52	226.77
947.82	226.80
948.11	226.78
948.41	226.75
948.71	226.70
949.01	226.71
949.31	226.69
949.60	226.68
949.90	226.70
950.20	226.69
950.50	226.69
950.79	226.68
951.09	226.70
951.39	226.70
951.69	226.68
951.98	226.71
952.28	226.73
952.58	226.71
952.87	226.72
953.17	226.75
953.47	226.73
953.76	226.72
954.06	226.69
954.36	226.66
954.66	226.66
954.95	226.71
955.25	226.72
955.55	226.73
955.84	226.70
956.14	226.72
956.44	226.73
956.73	226.71
957.03	226.72
957.32	226.73
957.62	226.73
957.92	226.78
958.21	226.76
958.51	226.97
958.81	227.00
959.10	227.02
959.40	227.05
959.69	227.07
959.99	227.10
960.29	227.11
960.58	227.10
960.88	227.16
961.17	227.14
961.47	227.14
961.76	227.13
962.06	227.17
962.36	227.16
962.65	227.17
962.95	227.19
963.24	227.17
963.54	227.16
963.83	227.17
964.13	227.15
964.42	227.13
964.72	226.97
965.01	226.97
965.31	226.95
965.60	226.91
965.90	227.01
966.19	226.97
966.49	226.98
966.78	226.97
967.08	226.96
967.37	226.95
967.67	226.91
967.96	226.95
968.26	226.94
968.55	226.95
968.85	226.94
969.14	226.93
969.43	226.93
969.73	226.92
970.02	226.91
970.32	226.90
970.61	226.88
970.91	226.83
971.20	226.81
971.49	226.81
971.79	226.82
972.08	226.69
972.38	226.70
972.67	226.70
972.96	226.74
973.26	226.70
973.55	226.77
973.85	226.76
974.14	226.74
974.43	226.74
974.73	226.70
975.02	226.69
975.31	226.70
975.61	226.69
975.90	226.68
976.19	226.66
976.49	226.68
976.78	226.70
977.07	226.70
977.37	226.71
977.66	226.71
977.95	226.68
978.24	226.71
978.54	226.75
978.83	226.73
979.12	226.72
979.42	226.71
979.71	226.67
980.00	226.67
980.29	226.68
980.59	226.65
980.88	226.70
981.17	226.70
981.46	226.70
981.76	226.71
982.05	226.77
982.34	226.79
982.63	226.79
982.93	226.78
983.22	226.82
983.51	226.83
983.80	226.87
984.09	226.89
984.39	226.88
984.68	226.86
984.97	226.87
985.26	226.86
985.55	226.88
985.85	226.86
986.14	226.90
986.43	226.92
986.72	226.92
987.01	226.86
987.30	226.87
987.59	226.86
987.89	226.86
988.18	226.80
988.47	226.77
988.76	226.76
989.05	226.74
989.34	226.72
989.63	226.76
989.92	226.71
990.22	226.69
990.51	226.68
990.80	226.66
991.09	226.67
991.38	226.69
991.67	226.66
991.96	226.64
992.25	226.64
992.54	226.61
992.83	226.61
993.12	226.61
993.41	226.64
993.70	226.71
993.99	226.73
994.28	226.76
994.58	226.79
994.87	226.77
995.16	226.77
995.45	226.76
995.74	226.70
996.03	226.73
996.32	226.76
996.61	226.78
996.90	226.78
997.19	226.77
997.48	226.78
997.77	226.77
998.06	226.79
998.34	226.76
998.63	226.76
998.92	226.77
999.21	226.79
999.50	226.79
999.79	226.73
1000.08	226.73
1000.37	226.73
1000.66	226.71
1000.95	226.75
1001.24	226.77
1001.53	226.79
1001.82	226.78
1002.11	226.75
1002.40	226.76
1002.68	226.80
1002.97	226.93
1003.26	226.92
1003.55	226.89
1003.84	226.90
1004.13	226.95
1004.42	226.94
1004.71	226.95
1004.99	226.94
1005.28	226.97
1005.57	226.95
1005.86	226.93
1006.15	226.91
1006.44	226.88
1006.72	226.92
1007.01	226.89
1007.30	226.89
1007.59	226.87
1007.88	226.86
1008.17	226.87
1008.45	226.83
1008.74	226.76
1009.03	226.67
1009.32	226.67
1009.60	226.68
1009.89	226.66
1010.18	226.59
1010.47	226.58
1010.76	226.58
1011.04	226.58
1011.33	226.57
1011.62	226.58
1011.91	226.60
1012.19	226.62
1012.48	226.62
1012.77	226.60
1013.05	226.66
1013.34	226.65
1013.63	226.64
1013.92	226.66
1014.20	226.65
1014.49	226.66
1014.78	226.67
1015.06	226.62
1015.35	226.62
1015.64	226.64
1015.92	226.66
1016.21	226.67
1016.50	226.68
1016.78	226.69
1017.07	226.71
1017.36	226.68
1017.64	226.66
1017.93	226.67
1018.22	226.64
1018.50	226.64
1018.79	226.65
1019.08	226.59
1019.36	226.61
1019.65	226.59
1019.93	226.64
1020.22	226.66
1020.51	226.75
1020.79	226.72
1021.08	226.28
1021.36	226.37
1021.65	226.86
1021.94	226.54
1022.22	226.82
1022.51	226.36
1022.79	227.44
1023.08	226.90
1023.36	228.74
1023.65	226.03
>>>>>End Processed Spectral Data<<<<<
