SpectraSuite Data File
++++++++++++++++++++++++++++++++++++
Date: Tue Oct 06 17:19:19 EDT 2015
User: lab3
Dark Spectrum Present: No
Reference Spectrum Present: No
Number of Sampled Component Spectra: 1
Spectrometers: USB2E7196
Integration Time (usec): 66000 (USB2E7196)
Spectra Averaged: 1000 (USB2E7196)
Boxcar Smoothing: 10 (USB2E7196)
Correct for Electrical Dark: No (USB2E7196)
Strobe/Lamp Enabled: No (USB2E7196)
Correct for Detector Non-linearity: No (USB2E7196)
Correct for Stray Light: No (USB2E7196)
Number of Pixels in Processed Spectrum: 2048
>>>>>Begin Processed Spectral Data<<<<<
339.09	0.00
339.48	215.26
339.86	216.58
340.24	217.99
340.63	219.46
341.01	223.50
341.39	222.02
341.78	223.55
342.16	225.01
342.54	225.17
342.93	213.65
343.31	224.45
343.69	224.98
344.07	225.45
344.46	225.90
344.84	226.30
345.22	226.50
345.60	226.78
345.99	226.99
346.37	227.14
346.75	227.26
347.13	227.35
347.52	227.45
347.90	227.59
348.28	227.64
348.66	227.74
349.05	227.73
349.43	227.81
349.81	227.89
350.19	227.97
350.57	228.05
350.96	228.15
351.34	228.26
351.72	228.36
352.10	228.48
352.48	228.56
352.87	228.61
353.25	228.68
353.63	228.73
354.01	228.79
354.39	228.88
354.77	228.96
355.15	229.07
355.54	229.09
355.92	229.08
356.30	229.15
356.68	229.34
357.06	229.43
357.44	229.47
357.82	229.52
358.20	229.73
358.58	229.78
358.97	229.85
359.35	229.95
359.73	230.05
360.11	230.11
360.49	230.16
360.87	230.21
361.25	230.28
361.63	230.40
362.01	230.45
362.39	230.46
362.77	230.51
363.15	230.54
363.53	230.58
363.91	230.62
364.29	230.64
364.67	230.48
365.05	230.49
365.43	230.54
365.81	230.58
366.19	230.52
366.57	230.61
366.95	230.62
367.33	230.57
367.71	230.56
368.09	230.57
368.47	230.56
368.85	230.56
369.23	230.58
369.61	230.50
369.99	230.54
370.37	230.55
370.75	230.67
371.13	230.63
371.51	230.58
371.89	230.57
372.27	230.55
372.65	230.55
373.03	230.51
373.41	230.46
373.78	230.41
374.16	230.28
374.54	230.17
374.92	230.11
375.30	230.08
375.68	230.00
376.06	229.98
376.44	229.92
376.82	229.88
377.19	229.84
377.57	229.80
377.95	229.69
378.33	229.62
378.71	229.41
379.09	229.38
379.47	229.36
379.84	229.28
380.22	229.21
380.60	229.14
380.98	229.09
381.36	229.04
381.73	228.98
382.11	228.97
382.49	228.94
382.87	228.88
383.25	228.83
383.62	229.00
384.00	228.92
384.38	228.88
384.76	228.89
385.13	228.89
385.51	228.86
385.89	228.81
386.27	228.79
386.64	228.78
387.02	228.74
387.40	228.70
387.78	228.69
388.15	228.68
388.53	228.64
388.91	228.63
389.29	228.59
389.66	228.60
390.04	228.56
390.42	228.57
390.79	228.57
391.17	228.55
391.55	228.34
391.92	228.34
392.30	228.36
392.68	228.32
393.05	228.32
393.43	228.32
393.81	228.33
394.18	228.31
394.56	228.32
394.94	228.37
395.31	228.38
395.69	228.46
396.06	228.51
396.44	228.57
396.82	228.58
397.19	228.72
397.57	228.73
397.95	228.80
398.32	228.80
398.70	228.88
399.07	228.99
399.45	229.05
399.82	229.12
400.20	229.16
400.58	229.25
400.95	229.26
401.33	229.40
401.70	229.62
402.08	229.78
402.45	229.91
402.83	230.08
403.20	230.25
403.58	230.39
403.95	230.60
404.33	230.81
404.71	231.04
405.08	231.35
405.46	231.60
405.83	231.87
406.21	232.17
406.58	232.49
406.96	232.81
407.33	233.18
407.70	233.60
408.08	234.19
408.45	234.69
408.83	235.24
409.20	235.74
409.58	236.21
409.95	236.83
410.33	237.51
410.70	238.16
411.08	238.90
411.45	239.71
411.82	240.53
412.20	241.47
412.57	242.56
412.95	243.45
413.32	244.60
413.69	245.79
414.07	247.05
414.44	248.44
414.82	249.84
415.19	251.48
415.56	253.15
415.94	254.89
416.31	256.83
416.68	258.79
417.06	261.06
417.43	263.19
417.81	265.64
418.18	268.15
418.55	270.88
418.93	273.73
419.30	276.69
419.67	279.83
420.04	283.07
420.42	286.47
420.79	290.37
421.16	294.32
421.54	298.32
421.91	302.50
422.28	306.85
422.66	311.54
423.03	316.01
423.40	320.68
423.77	325.70
424.15	330.84
424.52	336.15
424.89	341.89
425.26	347.60
425.64	352.90
426.01	358.83
426.38	364.90
426.75	371.15
427.13	377.57
427.50	384.28
427.87	391.24
428.24	398.27
428.61	405.00
428.99	412.24
429.36	420.19
429.73	427.81
430.10	435.39
430.47	443.15
430.85	451.19
431.22	459.75
431.59	468.53
431.96	477.10
432.33	486.62
432.70	495.70
433.08	506.42
433.45	516.53
433.82	526.53
434.19	537.73
434.56	548.77
434.93	559.45
435.30	570.05
435.68	582.10
436.05	593.84
436.42	605.61
436.79	616.39
437.16	628.09
437.53	640.58
437.90	653.10
438.27	665.35
438.64	678.59
439.01	690.61
439.38	701.65
439.75	712.35
440.13	724.51
440.50	736.08
440.87	745.34
441.24	755.51
441.61	766.65
441.98	774.90
442.35	784.68
442.72	794.63
443.09	804.07
443.46	810.23
443.83	814.88
444.20	818.75
444.57	824.37
444.94	827.70
445.31	831.15
445.68	834.06
446.05	836.27
446.42	835.93
446.79	835.34
447.16	834.87
447.53	834.44
447.90	830.83
448.27	827.36
448.64	821.93
449.01	818.18
449.37	810.41
449.74	803.35
450.11	794.25
450.48	784.27
450.85	774.28
451.22	765.66
451.59	757.20
451.96	749.53
452.33	738.44
452.70	728.57
453.07	716.58
453.43	704.67
453.80	693.05
454.17	681.92
454.54	671.64
454.91	660.01
455.28	649.04
455.65	638.67
456.02	627.75
456.38	618.94
456.75	607.70
457.12	598.65
457.49	589.50
457.86	580.83
458.23	573.18
458.59	564.77
458.96	556.16
459.33	548.59
459.70	540.89
460.07	534.99
460.43	528.05
460.80	521.58
461.17	515.93
461.54	509.85
461.91	504.14
462.27	498.36
462.64	493.64
463.01	488.22
463.38	482.78
463.74	477.85
464.11	473.46
464.48	469.48
464.85	465.22
465.21	461.95
465.58	458.30
465.95	454.20
466.32	450.92
466.68	447.72
467.05	444.47
467.42	441.32
467.78	437.97
468.15	434.86
468.52	432.58
468.88	429.57
469.25	426.81
469.62	424.63
469.98	422.24
470.35	420.11
470.72	418.22
471.08	416.29
471.45	414.67
471.82	412.88
472.18	411.00
472.55	409.77
472.92	408.23
473.28	407.05
473.65	405.76
474.02	404.54
474.38	403.50
474.75	402.89
475.11	402.04
475.48	401.65
475.85	401.23
476.21	400.97
476.58	400.80
476.94	400.97
477.31	401.02
477.67	401.09
478.04	401.42
478.41	401.85
478.77	402.45
479.14	402.83
479.50	403.60
479.87	404.61
480.23	405.55
480.60	406.50
480.96	407.46
481.33	408.90
481.69	410.31
482.06	411.71
482.42	413.00
482.79	414.64
483.15	416.52
483.52	418.65
483.88	420.68
484.25	422.82
484.61	425.09
484.98	427.52
485.34	430.28
485.71	433.13
486.07	436.20
486.44	439.24
486.80	442.66
487.17	446.15
487.53	449.94
487.90	453.93
488.26	458.27
488.62	462.83
488.99	467.38
489.35	472.15
489.72	477.28
490.08	482.69
490.44	488.17
490.81	493.91
491.17	499.81
491.54	506.14
491.90	512.62
492.26	519.53
492.63	526.79
492.99	534.36
493.36	542.09
493.72	550.21
494.08	558.53
494.45	567.26
494.81	576.38
495.17	585.76
495.54	595.65
495.90	605.97
496.26	616.47
496.63	627.27
496.99	638.51
497.35	650.25
497.72	662.25
498.08	674.61
498.44	687.30
498.80	700.70
499.17	714.40
499.53	728.53
499.89	743.13
500.26	757.88
500.62	773.03
500.98	789.01
501.34	805.05
501.71	821.89
502.07	838.99
502.43	856.58
502.79	874.36
503.16	892.66
503.52	911.20
503.88	930.15
504.24	949.60
504.60	969.23
504.97	989.52
505.33	1010.27
505.69	1032.09
506.05	1054.11
506.41	1076.02
506.78	1098.08
507.14	1120.75
507.50	1143.86
507.86	1167.39
508.22	1191.12
508.59	1214.72
508.95	1239.38
509.31	1264.51
509.67	1290.31
510.03	1316.00
510.39	1341.66
510.75	1367.36
511.12	1393.41
511.48	1419.60
511.84	1445.78
512.20	1472.32
512.56	1499.88
512.92	1527.30
513.28	1554.10
513.64	1581.32
514.00	1608.84
514.37	1636.68
514.73	1664.47
515.09	1691.62
515.45	1719.10
515.81	1746.75
516.17	1774.09
516.53	1800.76
516.89	1827.26
517.25	1854.10
517.61	1880.76
517.97	1908.01
518.33	1934.61
518.69	1961.11
519.05	1988.05
519.41	2015.12
519.77	2042.16
520.13	2067.71
520.49	2093.33
520.85	2119.29
521.21	2144.67
521.57	2170.35
521.93	2194.99
522.29	2220.26
522.65	2245.33
523.01	2270.12
523.37	2294.17
523.73	2319.01
524.09	2343.56
524.45	2367.78
524.81	2391.22
525.17	2414.51
525.53	2437.05
525.89	2460.02
526.25	2482.56
526.61	2503.49
526.97	2524.41
527.33	2545.17
527.68	2565.64
528.04	2585.77
528.40	2604.55
528.76	2623.54
529.12	2642.06
529.48	2661.18
529.84	2677.52
530.20	2694.26
530.56	2710.19
530.91	2726.27
531.27	2741.78
531.63	2756.29
531.99	2770.53
532.35	2784.55
532.71	2798.01
533.07	2811.81
533.42	2823.74
533.78	2835.88
534.14	2848.97
534.50	2860.91
534.86	2873.40
535.21	2883.87
535.57	2893.95
535.93	2904.00
536.29	2912.18
536.65	2920.21
537.00	2926.76
537.36	2934.72
537.72	2941.66
538.08	2947.99
538.44	2953.23
538.79	2958.16
539.15	2961.74
539.51	2964.59
539.87	2966.18
540.22	2966.28
540.58	2966.57
540.94	2967.71
541.29	2967.67
541.65	2966.34
542.01	2964.56
542.37	2961.14
542.72	2959.21
543.08	2955.73
543.44	2952.43
543.79	2948.66
544.15	2944.18
544.51	2939.80
544.87	2934.36
545.22	2928.05
545.58	2921.55
545.94	2915.26
546.29	2907.47
546.65	2899.97
547.01	2892.51
547.36	2885.50
547.72	2878.65
548.07	2870.10
548.43	2860.34
548.79	2850.33
549.14	2840.58
549.50	2830.99
549.86	2820.51
550.21	2808.43
550.57	2797.41
550.92	2784.62
551.28	2772.33
551.64	2760.31
551.99	2748.00
552.35	2735.26
552.70	2722.32
553.06	2709.92
553.41	2697.07
553.77	2683.88
554.13	2670.75
554.48	2656.54
554.84	2641.47
555.19	2626.93
555.55	2612.22
555.90	2598.04
556.26	2584.20
556.61	2569.23
556.97	2553.22
557.32	2537.66
557.68	2522.39
558.03	2506.86
558.39	2492.22
558.74	2478.26
559.10	2462.31
559.45	2446.68
559.81	2431.70
560.16	2416.43
560.52	2400.90
560.87	2385.54
561.23	2369.83
561.58	2354.65
561.94	2339.01
562.29	2322.93
562.64	2306.98
563.00	2291.20
563.35	2275.57
563.71	2259.54
564.06	2243.63
564.42	2228.29
564.77	2212.95
565.12	2197.33
565.48	2181.47
565.83	2165.90
566.19	2150.26
566.54	2134.97
566.89	2119.08
567.25	2103.11
567.60	2087.96
567.96	2072.00
568.31	2054.81
568.66	2038.66
569.02	2023.02
569.37	2007.94
569.72	1993.51
570.08	1978.53
570.43	1962.98
570.78	1947.31
571.14	1931.43
571.49	1915.64
571.84	1900.14
572.20	1883.48
572.55	1867.60
572.90	1851.85
573.26	1836.04
573.61	1819.58
573.96	1803.67
574.31	1787.60
574.67	1771.37
575.02	1754.84
575.37	1738.42
575.72	1722.69
576.08	1706.71
576.43	1690.14
576.78	1673.76
577.13	1657.54
577.49	1641.62
577.84	1626.18
578.19	1610.17
578.54	1594.27
578.90	1578.25
579.25	1562.13
579.60	1547.18
579.95	1532.02
580.30	1516.74
580.66	1501.22
581.01	1485.76
581.36	1470.43
581.71	1455.93
582.06	1441.41
582.42	1426.73
582.77	1412.53
583.12	1398.60
583.47	1384.58
583.82	1370.69
584.17	1356.38
584.53	1342.17
584.88	1328.26
585.23	1314.16
585.58	1300.50
585.93	1286.78
586.28	1274.04
586.63	1261.12
586.98	1247.85
587.34	1234.97
587.69	1221.89
588.04	1209.19
588.39	1196.80
588.74	1184.01
589.09	1171.33
589.44	1158.37
589.79	1145.98
590.14	1133.69
590.49	1121.44
590.84	1109.45
591.19	1097.74
591.54	1086.12
591.89	1074.10
592.25	1062.44
592.60	1050.74
592.95	1039.15
593.30	1027.90
593.65	1016.42
594.00	1005.20
594.35	994.85
594.70	983.83
595.05	973.47
595.40	962.89
595.75	952.16
596.10	942.04
596.45	931.94
596.80	922.20
597.15	912.47
597.50	902.74
597.85	893.25
598.19	883.75
598.54	874.25
598.89	865.32
599.24	856.79
599.59	848.06
599.94	839.97
600.29	831.91
600.64	823.68
600.99	815.33
601.34	807.25
601.69	798.67
602.04	790.97
602.39	783.16
602.74	775.53
603.08	768.07
603.43	760.60
603.78	753.07
604.13	745.65
604.48	738.32
604.83	731.18
605.18	724.13
605.53	717.24
605.87	710.33
606.22	703.49
606.57	696.59
606.92	689.62
607.27	682.67
607.62	675.91
607.96	669.44
608.31	663.39
608.66	657.29
609.01	651.46
609.36	645.60
609.70	639.67
610.05	633.79
610.40	628.10
610.75	622.37
611.10	616.90
611.44	611.41
611.79	606.05
612.14	600.59
612.49	595.23
612.83	590.13
613.18	585.10
613.53	580.05
613.88	575.18
614.22	570.64
614.57	566.01
614.92	561.48
615.27	557.09
615.61	552.58
615.96	548.12
616.31	543.69
616.65	539.36
617.00	535.21
617.35	531.10
617.70	526.99
618.04	523.01
618.39	519.11
618.74	515.47
619.08	511.77
619.43	508.20
619.78	504.59
620.12	500.97
620.47	497.55
620.82	494.22
621.16	490.91
621.51	487.65
621.85	484.41
622.20	481.26
622.55	478.04
622.89	474.89
623.24	471.90
623.59	468.96
623.93	466.12
624.28	463.41
624.62	460.89
624.97	458.39
625.32	455.79
625.66	453.18
626.01	450.53
626.35	448.05
626.70	445.49
627.04	443.17
627.39	440.76
627.73	438.45
628.08	436.20
628.43	433.97
628.77	431.65
629.12	429.46
629.46	427.38
629.81	425.42
630.15	423.39
630.50	421.39
630.84	419.44
631.19	417.52
631.53	415.66
631.88	413.65
632.22	411.75
632.57	410.12
632.91	408.45
633.26	406.85
633.60	405.26
633.95	403.76
634.29	402.11
634.64	400.54
634.98	398.83
635.32	397.33
635.67	395.95
636.01	394.58
636.36	393.24
636.70	391.96
637.05	390.56
637.39	389.32
637.73	388.04
638.08	386.83
638.42	385.66
638.77	384.37
639.11	383.05
639.45	381.78
639.80	380.44
640.14	379.20
640.49	377.95
640.83	376.69
641.17	375.49
641.52	374.31
641.86	373.17
642.20	372.20
642.55	371.02
642.89	369.86
643.23	368.76
643.58	367.80
643.92	366.68
644.26	365.65
644.61	364.65
644.95	363.64
645.29	362.55
645.64	361.44
645.98	360.45
646.32	359.57
646.66	358.62
647.01	357.72
647.35	356.88
647.69	356.02
648.04	355.22
648.38	354.36
648.72	353.56
649.06	352.74
649.41	351.88
649.75	351.10
650.09	350.34
650.43	349.56
650.78	348.73
651.12	347.95
651.46	347.18
651.80	346.42
652.14	345.69
652.49	345.05
652.83	344.33
653.17	343.59
653.51	342.88
653.85	342.25
654.20	341.59
654.54	340.82
654.88	340.09
655.22	339.42
655.56	338.73
655.90	338.06
656.25	337.41
656.59	336.78
656.93	336.17
657.27	335.62
657.61	335.00
657.95	334.42
658.29	333.84
658.64	333.26
658.98	332.64
659.32	332.03
659.66	331.44
660.00	330.91
660.34	330.37
660.68	329.77
661.02	329.12
661.36	328.51
661.70	327.95
662.05	327.41
662.39	326.87
662.73	326.42
663.07	325.99
663.41	325.51
663.75	324.98
664.09	324.46
664.43	323.84
664.77	323.29
665.11	322.71
665.45	322.17
665.79	321.66
666.13	321.14
666.47	320.60
666.81	320.02
667.15	319.40
667.49	318.93
667.83	318.51
668.17	318.06
668.51	317.63
668.85	317.23
669.19	316.86
669.53	316.32
669.87	315.76
670.21	315.21
670.55	314.70
670.89	314.30
671.23	313.84
671.57	313.43
671.91	313.08
672.25	312.73
672.58	312.38
672.92	311.93
673.26	311.58
673.60	311.22
673.94	310.84
674.28	310.50
674.62	310.11
674.96	309.66
675.30	309.26
675.64	308.82
675.97	308.35
676.31	307.86
676.65	307.44
676.99	307.10
677.33	306.65
677.67	306.26
678.01	305.77
678.34	305.34
678.68	304.95
679.02	304.49
679.36	304.03
679.70	303.59
680.04	303.19
680.37	302.78
680.71	302.38
681.05	302.02
681.39	301.60
681.73	301.12
682.06	300.69
682.40	300.29
682.74	299.92
683.08	299.62
683.42	299.24
683.75	298.90
684.09	298.41
684.43	298.01
684.77	297.58
685.10	297.18
685.44	296.78
685.78	296.36
686.12	295.94
686.45	295.53
686.79	295.08
687.13	294.67
687.46	294.19
687.80	293.77
688.14	293.28
688.48	292.85
688.81	292.43
689.15	292.07
689.49	291.63
689.82	291.18
690.16	290.63
690.50	290.19
690.83	289.73
691.17	289.28
691.51	288.84
691.84	288.45
692.18	288.03
692.52	287.55
692.85	287.11
693.19	286.73
693.52	286.28
693.86	285.83
694.20	285.38
694.53	284.96
694.87	284.49
695.21	284.04
695.54	283.60
695.88	283.12
696.21	282.62
696.55	282.17
696.88	281.72
697.22	281.29
697.56	280.86
697.89	280.39
698.23	279.97
698.56	279.53
698.90	279.10
699.23	278.64
699.57	278.24
699.90	277.80
700.24	277.34
700.58	276.94
700.91	276.57
701.25	276.32
701.58	276.00
701.92	275.66
702.25	275.28
702.59	274.87
702.92	274.49
703.26	274.09
703.59	273.67
703.93	273.40
704.26	273.02
704.60	272.61
704.93	272.21
705.26	271.81
705.60	271.46
705.93	271.03
706.27	270.71
706.60	270.37
706.94	270.05
707.27	269.65
707.61	269.26
707.94	268.86
708.27	268.31
708.61	267.86
708.94	267.44
709.28	267.05
709.61	266.67
709.94	266.33
710.28	265.98
710.61	265.67
710.95	265.18
711.28	264.94
711.61	264.58
711.95	264.27
712.28	263.91
712.61	263.54
712.95	263.29
713.28	263.01
713.61	262.64
713.95	262.26
714.28	261.93
714.61	261.58
714.95	261.25
715.28	260.93
715.61	260.62
715.95	260.33
716.28	260.01
716.61	259.74
716.95	259.41
717.28	259.10
717.61	258.78
717.94	258.50
718.28	258.09
718.61	257.79
718.94	257.49
719.27	257.21
719.61	256.95
719.94	256.63
720.27	256.27
720.60	255.99
720.94	255.71
721.27	255.45
721.60	255.22
721.93	254.94
722.27	254.71
722.60	254.45
722.93	254.16
723.26	253.94
723.59	253.66
723.93	253.43
724.26	253.20
724.59	252.94
724.92	252.72
725.25	252.53
725.59	252.30
725.92	252.09
726.25	251.85
726.58	251.62
726.91	251.37
727.24	251.15
727.57	250.90
727.91	250.65
728.24	250.46
728.57	250.21
728.90	250.02
729.23	249.76
729.56	249.61
729.89	249.40
730.22	249.16
730.55	248.95
730.89	248.74
731.22	248.52
731.55	248.32
731.88	248.11
732.21	247.88
732.54	247.68
732.87	247.48
733.20	247.30
733.53	247.12
733.86	246.95
734.19	246.76
734.52	246.62
734.85	246.57
735.18	246.36
735.51	246.24
735.84	246.08
736.17	245.96
736.50	245.69
736.83	245.73
737.16	245.56
737.49	245.39
737.82	245.22
738.15	245.07
738.48	244.89
738.81	244.70
739.14	244.51
739.47	244.34
739.80	244.17
740.13	244.01
740.46	243.81
740.79	243.61
741.12	243.43
741.45	243.22
741.78	242.96
742.11	242.83
742.44	242.63
742.77	242.48
743.10	242.29
743.43	242.14
743.75	241.79
744.08	241.91
744.41	241.74
744.74	241.59
745.07	241.40
745.40	241.31
745.73	241.23
746.06	241.10
746.39	240.99
746.71	240.84
747.04	240.68
747.37	240.54
747.70	240.44
748.03	240.31
748.36	240.22
748.68	240.08
749.01	239.91
749.34	239.80
749.67	239.67
750.00	239.58
750.33	239.59
750.65	239.49
750.98	239.11
751.31	238.99
751.64	238.89
751.97	238.88
752.29	238.74
752.62	238.54
752.95	238.41
753.28	238.26
753.60	238.14
753.93	238.06
754.26	237.96
754.59	237.79
754.91	237.67
755.24	237.53
755.57	237.43
755.90	237.32
756.22	237.19
756.55	237.04
756.88	236.91
757.20	236.68
757.53	236.51
757.86	236.40
758.19	236.31
758.51	236.21
758.84	236.01
759.17	235.89
759.49	235.80
759.82	235.80
760.15	235.73
760.47	235.64
760.80	235.49
761.13	235.43
761.45	235.35
761.78	235.25
762.11	235.17
762.43	235.05
762.76	234.95
763.08	234.89
763.41	234.83
763.74	234.76
764.06	234.68
764.39	234.61
764.71	234.53
765.04	234.43
765.37	234.33
765.69	234.27
766.02	234.19
766.34	234.11
766.67	233.97
767.00	233.92
767.32	233.95
767.65	233.99
767.97	233.91
768.30	233.85
768.62	233.79
768.95	233.70
769.27	233.64
769.60	233.60
769.92	233.51
770.25	233.41
770.57	233.30
770.90	233.24
771.22	233.17
771.55	233.11
771.87	233.06
772.20	233.00
772.52	233.09
772.85	233.25
773.17	233.20
773.50	233.13
773.82	233.04
774.15	232.90
774.47	232.74
774.80	232.68
775.12	232.62
775.45	232.57
775.77	232.53
776.09	232.49
776.42	232.44
776.74	232.45
777.07	232.41
777.39	232.38
777.72	232.31
778.04	232.30
778.36	232.22
778.69	232.19
779.01	232.15
779.33	231.95
779.66	231.71
779.98	231.66
780.31	231.62
780.63	231.67
780.95	231.65
781.28	231.61
781.60	231.55
781.92	231.52
782.25	231.48
782.57	231.44
782.89	231.40
783.22	231.35
783.54	231.27
783.86	231.26
784.19	231.22
784.51	231.24
784.83	231.17
785.16	231.16
785.48	231.13
785.80	231.10
786.12	231.08
786.45	231.05
786.77	231.03
787.09	230.99
787.42	230.88
787.74	230.86
788.06	230.84
788.38	230.80
788.71	230.76
789.03	230.74
789.35	230.73
789.67	230.68
789.99	230.66
790.32	230.62
790.64	230.60
790.96	230.74
791.28	230.66
791.61	230.62
791.93	230.60
792.25	230.56
792.57	230.65
792.89	230.60
793.21	230.59
793.54	230.55
793.86	230.51
794.18	230.51
794.50	230.44
794.82	230.41
795.14	230.41
795.47	230.42
795.79	230.39
796.11	230.33
796.43	230.31
796.75	230.28
797.07	230.28
797.39	230.24
797.71	230.07
798.04	230.05
798.36	230.06
798.68	230.03
799.00	230.04
799.32	229.93
799.64	229.94
799.96	229.92
800.28	229.92
800.60	229.90
800.92	229.88
801.24	229.87
801.56	229.87
801.89	229.83
802.21	229.81
802.53	229.76
802.85	229.78
803.17	229.84
803.49	229.79
803.81	229.75
804.13	229.72
804.45	229.67
804.77	229.68
805.09	229.66
805.41	229.63
805.73	229.57
806.05	229.52
806.37	229.48
806.69	229.45
807.01	229.42
807.33	229.41
807.65	229.34
807.97	229.39
808.28	229.35
808.60	229.33
808.92	229.29
809.24	229.39
809.56	229.34
809.88	229.26
810.20	229.26
810.52	229.27
810.84	229.24
811.16	229.21
811.48	229.17
811.80	229.21
812.12	229.18
812.43	229.21
812.75	229.20
813.07	229.17
813.39	229.17
813.71	229.13
814.03	229.10
814.35	229.09
814.67	229.00
814.98	228.98
815.30	228.96
815.62	228.93
815.94	228.80
816.26	228.81
816.58	228.77
816.89	228.77
817.21	228.72
817.53	228.73
817.85	228.74
818.17	228.71
818.48	228.62
818.80	228.65
819.12	228.60
819.44	228.57
819.76	228.54
820.07	228.52
820.39	228.51
820.71	228.51
821.03	228.51
821.34	228.48
821.66	228.50
821.98	228.52
822.30	228.50
822.61	228.60
822.93	228.56
823.25	228.55
823.57	228.52
823.88	228.54
824.20	228.52
824.52	228.53
824.83	228.52
825.15	228.50
825.47	228.48
825.79	228.48
826.10	228.48
826.42	228.46
826.74	228.47
827.05	228.46
827.37	228.46
827.69	228.44
828.00	228.44
828.32	228.43
828.64	228.39
828.95	228.48
829.27	228.42
829.58	228.42
829.90	228.45
830.22	228.45
830.53	228.42
830.85	228.38
831.17	228.33
831.48	228.33
831.80	228.33
832.11	228.31
832.43	228.28
832.75	228.25
833.06	228.35
833.38	228.30
833.69	228.28
834.01	228.27
834.32	228.26
834.64	228.24
834.96	228.23
835.27	228.23
835.59	228.16
835.90	228.14
836.22	228.12
836.53	228.07
836.85	228.04
837.16	228.21
837.48	228.22
837.79	228.27
838.11	228.27
838.42	228.26
838.74	228.28
839.05	228.26
839.37	228.25
839.68	228.14
840.00	228.13
840.31	228.15
840.63	228.14
840.94	228.11
841.26	228.10
841.57	228.09
841.88	228.09
842.20	228.06
842.51	228.02
842.83	228.02
843.14	228.19
843.46	228.18
843.77	228.08
844.08	228.07
844.40	228.01
844.71	227.98
845.03	227.96
845.34	227.93
845.65	227.93
845.97	227.94
846.28	227.95
846.60	227.96
846.91	227.92
847.22	227.91
847.54	227.94
847.85	227.95
848.16	227.92
848.48	227.89
848.79	227.95
849.10	227.96
849.42	227.97
849.73	227.80
850.04	227.79
850.36	227.72
850.67	227.75
850.98	227.74
851.30	227.76
851.61	227.75
851.92	227.76
852.23	227.81
852.55	227.81
852.86	227.82
853.17	227.84
853.49	227.88
853.80	227.92
854.11	227.93
854.42	227.96
854.74	227.95
855.05	227.95
855.36	227.86
855.67	227.86
855.99	227.85
856.30	228.06
856.61	228.06
856.92	228.06
857.23	228.07
857.55	228.05
857.86	228.03
858.17	228.06
858.48	228.02
858.79	227.98
859.11	227.98
859.42	227.96
859.73	227.92
860.04	227.90
860.35	227.84
860.66	227.77
860.98	227.75
861.29	227.77
861.60	227.75
861.91	227.79
862.22	227.76
862.53	227.74
862.84	227.52
863.16	227.55
863.47	227.52
863.78	227.48
864.09	227.50
864.40	227.50
864.71	227.50
865.02	227.53
865.33	227.51
865.64	227.48
865.95	227.49
866.27	227.61
866.58	227.60
866.89	227.62
867.20	227.62
867.51	227.60
867.82	227.58
868.13	227.64
868.44	227.62
868.75	227.66
869.06	227.67
869.37	227.69
869.68	227.64
869.99	227.68
870.30	227.69
870.61	227.71
870.92	227.70
871.23	227.68
871.54	227.70
871.85	227.74
872.16	227.76
872.47	227.75
872.78	227.65
873.09	227.66
873.40	227.65
873.71	227.66
874.02	227.67
874.33	227.66
874.64	227.61
874.95	227.63
875.26	227.59
875.56	227.58
875.87	227.57
876.18	227.57
876.49	227.74
876.80	227.72
877.11	227.68
877.42	227.68
877.73	227.68
878.04	227.65
878.35	227.64
878.66	227.64
878.96	227.64
879.27	227.62
879.58	227.60
879.89	227.60
880.20	227.65
880.51	227.63
880.82	227.64
881.12	227.64
881.43	227.59
881.74	227.58
882.05	227.57
882.36	227.57
882.67	227.59
882.97	227.39
883.28	227.38
883.59	227.37
883.90	227.38
884.21	227.41
884.51	227.40
884.82	227.38
885.13	227.36
885.44	227.36
885.74	227.37
886.05	227.37
886.36	227.37
886.67	227.29
886.98	227.39
887.28	227.41
887.59	227.41
887.90	227.43
888.20	227.41
888.51	227.43
888.82	227.41
889.13	227.42
889.43	227.58
889.74	227.57
890.05	227.58
890.35	227.57
890.66	227.53
890.97	227.51
891.28	227.50
891.58	227.51
891.89	227.50
892.20	227.48
892.50	227.46
892.81	227.45
893.12	227.46
893.42	227.37
893.73	227.38
894.04	227.38
894.34	227.38
894.65	227.38
894.95	227.37
895.26	227.38
895.57	227.45
895.87	227.27
896.18	227.29
896.48	227.29
896.79	227.29
897.10	227.33
897.40	227.34
897.71	227.36
898.01	227.34
898.32	227.37
898.63	227.37
898.93	227.37
899.24	227.38
899.54	227.38
899.85	227.38
900.15	227.36
900.46	227.36
900.76	227.38
901.07	227.40
901.38	227.38
901.68	227.41
901.99	227.31
902.29	227.33
902.60	227.33
902.90	227.32
903.21	227.32
903.51	227.31
903.82	227.33
904.12	227.34
904.43	227.35
904.73	227.33
905.03	227.34
905.34	227.52
905.64	227.50
905.95	227.50
906.25	227.50
906.56	227.49
906.86	227.49
907.17	227.46
907.47	227.47
907.77	227.45
908.08	227.40
908.38	227.41
908.69	227.42
908.99	227.45
909.30	227.45
909.60	227.45
909.90	227.44
910.21	227.40
910.51	227.37
910.81	227.37
911.12	227.38
911.42	227.39
911.73	227.21
912.03	227.21
912.33	227.25
912.64	227.23
912.94	227.21
913.24	227.18
913.55	227.16
913.85	227.14
914.15	227.18
914.46	227.21
914.76	227.20
915.06	227.19
915.37	227.15
915.67	227.13
915.97	227.12
916.27	227.10
916.58	227.11
916.88	227.11
917.18	227.10
917.49	227.22
917.79	227.20
918.09	227.23
918.39	227.29
918.70	227.27
919.00	227.29
919.30	227.38
919.60	227.38
919.91	227.38
920.21	227.38
920.51	227.35
920.81	227.33
921.12	227.35
921.42	227.35
921.72	227.37
922.02	227.39
922.32	227.41
922.63	227.43
922.93	227.52
923.23	227.53
923.53	227.51
923.83	227.38
924.13	227.40
924.44	227.39
924.74	227.41
925.04	227.44
925.34	227.44
925.64	227.35
925.94	227.35
926.24	227.44
926.55	227.43
926.85	227.45
927.15	227.45
927.45	227.45
927.75	227.45
928.05	227.45
928.35	227.43
928.65	227.45
928.95	227.46
929.26	227.38
929.56	227.40
929.86	227.43
930.16	227.41
930.46	227.39
930.76	227.41
931.06	227.32
931.36	227.28
931.66	227.31
931.96	227.34
932.26	227.34
932.56	227.27
932.86	227.27
933.16	227.28
933.46	227.26
933.76	227.22
934.06	227.25
934.36	227.31
934.66	227.31
934.96	227.28
935.26	227.28
935.56	227.30
935.86	227.24
936.16	227.21
936.46	227.20
936.76	227.19
937.06	227.16
937.36	227.18
937.66	227.19
937.96	227.17
938.26	227.13
938.56	227.13
938.86	227.16
939.16	227.20
939.46	227.21
939.76	227.23
940.06	227.23
940.35	227.20
940.65	227.10
940.95	227.12
941.25	227.08
941.55	227.07
941.85	227.06
942.15	227.09
942.45	227.15
942.75	227.15
943.04	227.16
943.34	227.20
943.64	227.17
943.94	227.14
944.24	227.14
944.54	227.13
944.84	227.13
945.13	227.09
945.43	227.05
945.73	227.04
946.03	227.03
946.33	227.01
946.62	227.01
946.92	227.02
947.22	227.03
947.52	227.04
947.82	227.07
948.11	227.05
948.41	227.03
948.71	226.97
949.01	226.98
949.31	226.96
949.60	226.95
949.90	226.98
950.20	226.98
950.50	226.96
950.79	226.96
951.09	226.98
951.39	226.98
951.69	226.96
951.98	227.00
952.28	227.00
952.58	226.99
952.87	226.99
953.17	227.01
953.47	226.99
953.76	226.98
954.06	226.95
954.36	226.93
954.66	226.92
954.95	226.97
955.25	226.98
955.55	227.00
955.84	226.98
956.14	226.99
956.44	227.00
956.73	226.99
957.03	226.99
957.32	226.98
957.62	226.98
957.92	227.03
958.21	227.01
958.51	227.22
958.81	227.24
959.10	227.25
959.40	227.30
959.69	227.31
959.99	227.33
960.29	227.33
960.58	227.33
960.88	227.40
961.17	227.38
961.47	227.39
961.76	227.38
962.06	227.42
962.36	227.40
962.65	227.41
962.95	227.42
963.24	227.42
963.54	227.42
963.83	227.43
964.13	227.42
964.42	227.40
964.72	227.25
965.01	227.25
965.31	227.24
965.60	227.19
965.90	227.29
966.19	227.25
966.49	227.27
966.78	227.27
967.08	227.25
967.37	227.25
967.67	227.22
967.96	227.25
968.26	227.23
968.55	227.25
968.85	227.25
969.14	227.25
969.43	227.25
969.73	227.24
970.02	227.22
970.32	227.21
970.61	227.18
970.91	227.12
971.20	227.10
971.49	227.09
971.79	227.10
972.08	226.97
972.38	226.98
972.67	226.97
972.96	227.00
973.26	226.96
973.55	227.01
973.85	227.00
974.14	226.98
974.43	226.99
974.73	226.95
975.02	226.94
975.31	226.94
975.61	226.94
975.90	226.94
976.19	226.93
976.49	226.94
976.78	226.96
977.07	226.95
977.37	226.97
977.66	226.99
977.95	226.98
978.24	227.00
978.54	227.04
978.83	227.03
979.12	227.01
979.42	227.00
979.71	226.96
980.00	226.96
980.29	226.96
980.59	226.93
980.88	226.99
981.17	226.98
981.46	226.97
981.76	226.97
982.05	227.02
982.34	227.03
982.63	227.03
982.93	227.02
983.22	227.08
983.51	227.09
983.80	227.11
984.09	227.14
984.39	227.13
984.68	227.09
984.97	227.11
985.26	227.10
985.55	227.12
985.85	227.09
986.14	227.12
986.43	227.14
986.72	227.14
987.01	227.08
987.30	227.09
987.59	227.08
987.89	227.09
988.18	227.04
988.47	227.02
988.76	227.01
989.05	227.00
989.34	226.97
989.63	227.00
989.92	226.98
990.22	226.96
990.51	226.96
990.80	226.95
991.09	226.96
991.38	226.99
991.67	226.97
991.96	226.97
992.25	226.97
992.54	226.93
992.83	226.94
993.12	226.93
993.41	226.96
993.70	227.03
993.99	227.06
994.28	227.09
994.58	227.11
994.87	227.09
995.16	227.08
995.45	227.06
995.74	227.01
996.03	227.02
996.32	227.04
996.61	227.07
996.90	227.07
997.19	227.08
997.48	227.06
997.77	227.04
998.06	227.07
998.34	227.06
998.63	227.06
998.92	227.08
999.21	227.11
999.50	227.11
999.79	227.05
1000.08	227.03
1000.37	227.02
1000.66	227.01
1000.95	227.06
1001.24	227.07
1001.53	227.10
1001.82	227.10
1002.11	227.06
1002.40	227.06
1002.68	227.11
1002.97	227.22
1003.26	227.20
1003.55	227.19
1003.84	227.20
1004.13	227.25
1004.42	227.24
1004.71	227.24
1004.99	227.22
1005.28	227.25
1005.57	227.23
1005.86	227.21
1006.15	227.21
1006.44	227.19
1006.72	227.21
1007.01	227.16
1007.30	227.17
1007.59	227.15
1007.88	227.15
1008.17	227.16
1008.45	227.12
1008.74	227.05
1009.03	226.96
1009.32	226.96
1009.60	226.96
1009.89	226.93
1010.18	226.85
1010.47	226.85
1010.76	226.84
1011.04	226.84
1011.33	226.83
1011.62	226.84
1011.91	226.86
1012.19	226.86
1012.48	226.87
1012.77	226.87
1013.05	226.94
1013.34	226.93
1013.63	226.92
1013.92	226.93
1014.20	226.92
1014.49	226.94
1014.78	226.95
1015.06	226.90
1015.35	226.90
1015.64	226.92
1015.92	226.97
1016.21	226.97
1016.50	226.97
1016.78	227.00
1017.07	227.01
1017.36	226.97
1017.64	226.95
1017.93	226.95
1018.22	226.94
1018.50	226.93
1018.79	226.92
1019.08	226.85
1019.36	226.87
1019.65	226.84
1019.93	226.90
1020.22	226.93
1020.51	227.01
1020.79	226.99
1021.08	226.71
1021.36	226.49
1021.65	226.90
1021.94	226.91
1022.22	227.19
1022.51	226.47
1022.79	227.90
1023.08	227.30
1023.36	228.89
1023.65	226.57
>>>>>End Processed Spectral Data<<<<<
