SpectraSuite Data File
++++++++++++++++++++++++++++++++++++
Date: Tue Oct 06 19:18:42 EDT 2015
User: lab3
Dark Spectrum Present: No
Reference Spectrum Present: No
Number of Sampled Component Spectra: 1
Spectrometers: USB2E7196
Integration Time (usec): 66000 (USB2E7196)
Spectra Averaged: 3000 (USB2E7196)
Boxcar Smoothing: 10 (USB2E7196)
Correct for Electrical Dark: No (USB2E7196)
Strobe/Lamp Enabled: No (USB2E7196)
Correct for Detector Non-linearity: No (USB2E7196)
Correct for Stray Light: No (USB2E7196)
Number of Pixels in Processed Spectrum: 2048
>>>>>Begin Processed Spectral Data<<<<<
339.09	0.00
339.48	214.63
339.86	216.11
340.24	217.42
340.63	218.84
341.01	222.99
341.39	221.54
341.78	223.11
342.16	224.30
342.54	224.73
342.93	213.13
343.31	223.89
343.69	224.43
344.07	224.89
344.46	225.34
344.84	225.75
345.22	225.94
345.60	226.23
345.99	226.43
346.37	226.58
346.75	226.69
347.13	226.78
347.52	226.88
347.90	227.00
348.28	227.05
348.66	227.14
349.05	227.13
349.43	227.20
349.81	227.28
350.19	227.35
350.57	227.43
350.96	227.53
351.34	227.65
351.72	227.76
352.10	227.88
352.48	227.96
352.87	228.01
353.25	228.08
353.63	228.14
354.01	228.20
354.39	228.28
354.77	228.36
355.15	228.49
355.54	228.53
355.92	228.54
356.30	228.61
356.68	228.80
357.06	228.89
357.44	228.93
357.82	228.99
358.20	229.21
358.58	229.27
358.97	229.34
359.35	229.44
359.73	229.53
360.11	229.59
360.49	229.65
360.87	229.70
361.25	229.77
361.63	229.88
362.01	229.94
362.39	229.96
362.77	230.02
363.15	230.04
363.53	230.08
363.91	230.12
364.29	230.15
364.67	230.00
365.05	230.02
365.43	230.05
365.81	230.09
366.19	230.04
366.57	230.12
366.95	230.12
367.33	230.08
367.71	230.07
368.09	230.11
368.47	230.09
368.85	230.08
369.23	230.10
369.61	230.02
369.99	230.06
370.37	230.07
370.75	230.18
371.13	230.14
371.51	230.10
371.89	230.08
372.27	230.06
372.65	230.05
373.03	230.01
373.41	229.97
373.78	229.92
374.16	229.79
374.54	229.69
374.92	229.63
375.30	229.59
375.68	229.51
376.06	229.47
376.44	229.41
376.82	229.38
377.19	229.34
377.57	229.30
377.95	229.19
378.33	229.13
378.71	228.93
379.09	228.89
379.47	228.86
379.84	228.80
380.22	228.73
380.60	228.66
380.98	228.61
381.36	228.56
381.73	228.49
382.11	228.49
382.49	228.45
382.87	228.40
383.25	228.36
383.62	228.53
384.00	228.45
384.38	228.43
384.76	228.42
385.13	228.43
385.51	228.40
385.89	228.34
386.27	228.31
386.64	228.31
387.02	228.26
387.40	228.21
387.78	228.18
388.15	228.16
388.53	228.13
388.91	228.11
389.29	228.07
389.66	228.08
390.04	228.03
390.42	228.04
390.79	228.04
391.17	228.02
391.55	227.81
391.92	227.81
392.30	227.82
392.68	227.78
393.05	227.76
393.43	227.76
393.81	227.78
394.18	227.76
394.56	227.77
394.94	227.83
395.31	227.84
395.69	227.92
396.06	227.97
396.44	228.01
396.82	228.03
397.19	228.17
397.57	228.19
397.95	228.26
398.32	228.26
398.70	228.33
399.07	228.44
399.45	228.50
399.82	228.56
400.20	228.62
400.58	228.71
400.95	228.73
401.33	228.86
401.70	229.09
402.08	229.23
402.45	229.35
402.83	229.52
403.20	229.70
403.58	229.82
403.95	230.03
404.33	230.26
404.71	230.47
405.08	230.78
405.46	231.02
405.83	231.30
406.21	231.59
406.58	231.91
406.96	232.23
407.33	232.60
407.70	233.02
408.08	233.58
408.45	234.07
408.83	234.61
409.20	235.10
409.58	235.55
409.95	236.17
410.33	236.83
410.70	237.46
411.08	238.20
411.45	238.99
411.82	239.79
412.20	240.70
412.57	241.79
412.95	242.65
413.32	243.77
413.69	244.92
414.07	246.16
414.44	247.50
414.82	248.86
415.19	250.46
415.56	252.10
415.94	253.80
416.31	255.71
416.68	257.62
417.06	259.84
417.43	261.90
417.81	264.29
418.18	266.72
418.55	269.37
418.93	272.12
419.30	275.00
419.67	278.07
420.04	281.21
420.42	284.50
420.79	288.30
421.16	292.13
421.54	296.01
421.91	300.06
422.28	304.27
422.66	308.80
423.03	313.12
423.40	317.64
423.77	322.47
424.15	327.42
424.52	332.55
424.89	338.10
425.26	343.61
425.64	348.72
426.01	354.46
426.38	360.31
426.75	366.33
427.13	372.50
427.50	378.95
427.87	385.65
428.24	392.39
428.61	398.83
428.99	405.79
429.36	413.42
429.73	420.72
430.10	427.99
430.47	435.41
430.85	443.10
431.22	451.28
431.59	459.68
431.96	467.87
432.33	476.96
432.70	485.62
433.08	495.87
433.45	505.53
433.82	515.07
434.19	525.77
434.56	536.31
434.93	546.53
435.30	556.65
435.68	568.12
436.05	579.33
436.42	590.57
436.79	600.84
437.16	612.01
437.53	623.95
437.90	635.88
438.27	647.62
438.64	660.28
439.01	671.79
439.38	682.33
439.75	692.56
440.13	704.22
440.50	715.28
440.87	724.14
441.24	733.90
441.61	744.60
441.98	752.52
442.35	761.93
442.72	771.51
443.09	780.64
443.46	786.63
443.83	791.23
444.20	795.05
444.57	800.54
444.94	803.84
445.31	807.25
445.68	810.25
446.05	812.55
446.42	812.41
446.79	812.04
447.16	811.80
447.53	811.60
447.90	808.33
448.27	805.24
448.64	800.24
449.01	796.87
449.37	789.65
449.74	783.10
450.11	774.56
450.48	765.16
450.85	755.71
451.22	747.61
451.59	739.61
451.96	732.39
452.33	721.86
452.70	712.51
453.07	701.13
453.43	689.73
453.80	678.60
454.17	667.96
454.54	658.13
454.91	647.00
455.28	636.49
455.65	626.58
456.02	616.06
456.38	607.59
456.75	596.73
457.12	587.96
457.49	579.11
457.86	570.73
458.23	563.35
458.59	555.24
458.96	546.90
459.33	539.57
459.70	532.11
460.07	526.40
460.43	519.67
460.80	513.39
461.17	507.93
461.54	502.03
461.91	496.48
462.27	490.82
462.64	486.19
463.01	480.92
463.38	475.60
463.74	470.81
464.11	466.56
464.48	462.70
464.85	458.55
465.21	455.37
465.58	451.84
465.95	447.84
466.32	444.64
466.68	441.52
467.05	438.37
467.42	435.31
467.78	432.05
468.15	429.03
468.52	426.83
468.88	423.89
469.25	421.22
469.62	419.10
469.98	416.81
470.35	414.76
470.72	412.90
471.08	411.03
471.45	409.45
471.82	407.68
472.18	405.83
472.55	404.64
472.92	403.15
473.28	401.98
473.65	400.73
474.02	399.52
474.38	398.50
474.75	397.90
475.11	397.08
475.48	396.69
475.85	396.26
476.21	395.99
476.58	395.81
476.94	395.97
477.31	396.00
477.67	396.07
478.04	396.36
478.41	396.77
478.77	397.36
479.14	397.72
479.50	398.47
479.87	399.44
480.23	400.37
480.60	401.27
480.96	402.18
481.33	403.58
481.69	404.94
482.06	406.30
482.42	407.53
482.79	409.07
483.15	410.87
483.52	412.91
483.88	414.84
484.25	416.90
484.61	419.07
484.98	421.41
485.34	424.04
485.71	426.80
486.07	429.76
486.44	432.64
486.80	435.92
487.17	439.28
487.53	442.92
487.90	446.73
488.26	450.89
488.62	455.27
488.99	459.63
489.35	464.22
489.72	469.15
490.08	474.35
490.44	479.65
490.81	485.18
491.17	490.89
491.54	497.01
491.90	503.24
492.26	509.89
492.63	516.87
492.99	524.17
493.36	531.61
493.72	539.42
494.08	547.45
494.45	555.87
494.81	564.68
495.17	573.74
495.54	583.27
495.90	593.23
496.26	603.37
496.63	613.83
496.99	624.67
497.35	636.01
497.72	647.64
498.08	659.62
498.44	671.90
498.80	684.85
499.17	698.09
499.53	711.81
499.89	725.97
500.26	740.31
500.62	755.00
500.98	770.55
501.34	786.11
501.71	802.48
502.07	819.16
502.43	836.29
502.79	853.62
503.16	871.50
503.52	889.54
503.88	908.04
504.24	926.95
504.60	946.14
504.97	965.96
505.33	986.27
505.69	1007.61
506.05	1029.22
506.41	1050.74
506.78	1072.40
507.14	1094.63
507.50	1117.35
507.86	1140.47
508.22	1163.84
508.59	1187.10
508.95	1211.40
509.31	1236.21
509.67	1261.62
510.03	1287.00
510.39	1312.31
510.75	1337.72
511.12	1363.59
511.48	1389.64
511.84	1415.69
512.20	1442.12
512.56	1469.62
512.92	1496.92
513.28	1523.62
513.64	1550.78
514.00	1578.32
514.37	1606.14
514.73	1634.05
515.09	1661.26
515.45	1688.82
515.81	1716.59
516.17	1744.15
516.53	1771.08
516.89	1797.75
517.25	1824.79
517.61	1851.62
517.97	1879.17
518.33	1906.12
518.69	1932.99
519.05	1960.28
519.41	1987.75
519.77	2015.25
520.13	2041.22
520.49	2067.30
520.85	2093.78
521.21	2119.60
521.57	2145.78
521.93	2170.98
522.29	2196.79
522.65	2222.51
523.01	2247.88
523.37	2272.57
523.73	2297.99
524.09	2323.15
524.45	2348.06
524.81	2372.36
525.17	2396.56
525.53	2419.88
525.89	2443.65
526.25	2467.07
526.61	2488.81
526.97	2510.66
527.33	2532.39
527.68	2553.90
528.04	2575.04
528.40	2594.96
528.76	2615.07
529.12	2634.73
529.48	2655.00
529.84	2672.50
530.20	2690.40
530.56	2707.53
530.91	2724.91
531.27	2741.62
531.63	2757.43
531.99	2773.03
532.35	2788.29
532.71	2803.11
533.07	2818.32
533.42	2831.58
533.78	2845.04
534.14	2859.61
534.50	2872.98
534.86	2886.78
535.21	2898.47
535.57	2909.97
535.93	2921.29
536.29	2930.74
536.65	2940.12
537.00	2948.02
537.36	2957.34
537.72	2965.71
538.08	2973.62
538.44	2980.22
538.79	2986.59
539.15	2991.57
539.51	2995.70
539.87	2998.66
540.22	3000.01
540.58	3001.62
540.94	3004.11
541.29	3005.38
541.65	3005.28
542.01	3004.79
542.37	3002.62
542.72	3002.13
543.08	2999.85
543.44	2997.78
543.79	2995.42
544.15	2992.18
544.51	2989.11
544.87	2984.97
545.22	2979.80
545.58	2974.40
545.94	2969.24
546.29	2962.55
546.65	2956.12
547.01	2949.89
547.36	2944.16
547.72	2938.53
548.07	2931.15
548.43	2922.53
548.79	2913.68
549.14	2905.09
549.50	2896.55
549.86	2887.10
550.21	2875.88
550.57	2865.93
550.92	2854.11
551.28	2842.70
551.64	2831.63
551.99	2820.20
552.35	2808.31
552.70	2796.37
553.06	2784.84
553.41	2772.85
553.77	2760.65
554.13	2748.41
554.48	2734.92
554.84	2720.48
555.19	2706.58
555.55	2692.55
555.90	2679.08
556.26	2665.79
556.61	2651.35
556.97	2635.89
557.32	2620.85
557.68	2606.21
558.03	2591.21
558.39	2577.26
558.74	2563.86
559.10	2548.49
559.45	2533.22
559.81	2518.67
560.16	2503.69
560.52	2488.45
560.87	2473.44
561.23	2457.94
561.58	2443.14
561.94	2427.87
562.29	2412.05
562.64	2396.36
563.00	2380.76
563.35	2365.30
563.71	2349.48
564.06	2333.80
564.42	2318.61
564.77	2303.52
565.12	2288.02
565.48	2272.26
565.83	2256.67
566.19	2241.04
566.54	2225.65
566.89	2209.76
567.25	2193.76
567.60	2178.62
567.96	2162.76
568.31	2145.47
568.66	2129.23
569.02	2113.47
569.37	2098.33
569.72	2083.84
570.08	2068.82
570.43	2053.17
570.78	2037.29
571.14	2021.27
571.49	2005.25
571.84	1989.56
572.20	1972.60
572.55	1956.52
572.90	1940.48
573.26	1924.45
573.61	1907.74
573.96	1891.58
574.31	1875.26
574.67	1858.70
575.02	1841.82
575.37	1824.97
575.72	1808.99
576.08	1792.61
576.43	1775.46
576.78	1758.55
577.13	1741.86
577.49	1725.44
577.84	1709.48
578.19	1693.05
578.54	1676.67
578.90	1660.12
579.25	1643.44
579.60	1628.06
579.95	1612.32
580.30	1596.53
580.66	1580.45
581.01	1564.48
581.36	1548.62
581.71	1533.63
582.06	1518.61
582.42	1503.39
582.77	1488.68
583.12	1474.16
583.47	1459.68
583.82	1445.36
584.17	1430.48
584.53	1415.66
584.88	1401.17
585.23	1386.56
585.58	1372.35
585.93	1357.99
586.28	1344.77
586.63	1331.35
586.98	1317.41
587.34	1303.91
587.69	1290.22
588.04	1276.89
588.39	1263.84
588.74	1250.39
589.09	1237.05
589.44	1223.43
589.79	1210.40
590.14	1197.41
590.49	1184.50
590.84	1171.83
591.19	1159.52
591.54	1147.34
591.89	1134.74
592.25	1122.49
592.60	1110.11
592.95	1097.86
593.30	1086.05
593.65	1073.87
594.00	1062.01
594.35	1051.10
594.70	1039.46
595.05	1028.46
595.40	1017.29
595.75	1005.94
596.10	995.25
596.45	984.54
596.80	974.24
597.15	963.92
597.50	953.58
597.85	943.52
598.19	933.46
598.54	923.40
598.89	913.88
599.24	904.78
599.59	895.45
599.94	886.81
600.29	878.17
600.64	869.33
600.99	860.37
601.34	851.73
601.69	842.58
602.04	834.36
602.39	826.02
602.74	817.87
603.08	809.88
603.43	801.85
603.78	793.81
604.13	785.86
604.48	777.95
604.83	770.29
605.18	762.70
605.53	755.27
605.87	747.80
606.22	740.44
606.57	733.00
606.92	725.52
607.27	718.04
607.62	710.80
607.96	703.82
608.31	697.36
608.66	690.79
609.01	684.48
609.36	678.13
609.70	671.74
610.05	665.36
610.40	659.18
610.75	652.99
611.10	647.01
611.44	641.04
611.79	635.19
612.14	629.26
612.49	623.43
612.83	617.88
613.18	612.42
613.53	606.94
613.88	601.61
614.22	596.64
614.57	591.59
614.92	586.65
615.27	581.85
615.61	576.91
615.96	572.03
616.31	567.15
616.65	562.44
617.00	557.85
617.35	553.35
617.70	548.86
618.04	544.48
618.39	540.23
618.74	536.21
619.08	532.17
619.43	528.27
619.78	524.29
620.12	520.30
620.47	516.53
620.82	512.87
621.16	509.22
621.51	505.63
621.85	502.05
622.20	498.54
622.55	494.98
622.89	491.49
623.24	488.20
623.59	484.97
623.93	481.81
624.28	478.80
624.62	475.97
624.97	473.16
625.32	470.26
625.66	467.33
626.01	464.39
626.35	461.62
626.70	458.76
627.04	456.12
627.39	453.45
627.73	450.85
628.08	448.29
628.43	445.78
628.77	443.19
629.12	440.73
629.46	438.39
629.81	436.18
630.15	433.90
630.50	431.64
630.84	429.43
631.19	427.26
631.53	425.18
631.88	422.92
632.22	420.77
632.57	418.93
632.91	417.03
633.26	415.21
633.60	413.40
633.95	411.70
634.29	409.87
634.64	408.10
634.98	406.21
635.32	404.51
635.67	402.95
636.01	401.39
636.36	399.88
636.70	398.46
637.05	396.88
637.39	395.45
637.73	394.01
638.08	392.66
638.42	391.34
638.77	389.87
639.11	388.41
639.45	386.99
639.80	385.50
640.14	384.12
640.49	382.72
640.83	381.34
641.17	380.00
641.52	378.70
641.86	377.43
642.20	376.31
642.55	375.01
642.89	373.74
643.23	372.53
643.58	371.44
643.92	370.20
644.26	369.05
644.61	367.95
644.95	366.82
645.29	365.61
645.64	364.37
645.98	363.29
646.32	362.30
646.66	361.24
647.01	360.23
647.35	359.31
647.69	358.35
648.04	357.46
648.38	356.51
648.72	355.61
649.06	354.71
649.41	353.78
649.75	352.89
650.09	352.05
650.43	351.17
650.78	350.27
651.12	349.42
651.46	348.58
651.80	347.75
652.14	346.98
652.49	346.27
652.83	345.50
653.17	344.70
653.51	343.93
653.85	343.26
654.20	342.55
654.54	341.75
654.88	340.97
655.22	340.27
655.56	339.53
655.90	338.83
656.25	338.13
656.59	337.46
656.93	336.84
657.27	336.25
657.61	335.59
657.95	334.98
658.29	334.35
658.64	333.74
658.98	333.08
659.32	332.43
659.66	331.81
660.00	331.25
660.34	330.68
660.68	330.06
661.02	329.38
661.36	328.75
661.70	328.17
662.05	327.60
662.39	327.04
662.73	326.56
663.07	326.11
663.41	325.63
663.75	325.09
664.09	324.55
664.43	323.89
664.77	323.35
665.11	322.75
665.45	322.22
665.79	321.71
666.13	321.17
666.47	320.63
666.81	320.05
667.15	319.44
667.49	318.96
667.83	318.53
668.17	318.06
668.51	317.65
668.85	317.24
669.19	316.88
669.53	316.35
669.87	315.80
670.21	315.24
670.55	314.73
670.89	314.32
671.23	313.88
671.57	313.49
671.91	313.14
672.25	312.80
672.58	312.47
672.92	312.03
673.26	311.69
673.60	311.33
673.94	310.96
674.28	310.63
674.62	310.26
674.96	309.82
675.30	309.45
675.64	309.00
675.97	308.54
676.31	308.05
676.65	307.64
676.99	307.32
677.33	306.89
677.67	306.50
678.01	306.01
678.34	305.60
678.68	305.21
679.02	304.76
679.36	304.33
679.70	303.88
680.04	303.48
680.37	303.07
680.71	302.68
681.05	302.33
681.39	301.91
681.73	301.45
682.06	301.04
682.40	300.64
682.74	300.28
683.08	299.99
683.42	299.62
683.75	299.28
684.09	298.81
684.43	298.43
684.77	298.02
685.10	297.64
685.44	297.25
685.78	296.84
686.12	296.44
686.45	296.02
686.79	295.58
687.13	295.18
687.46	294.74
687.80	294.34
688.14	293.86
688.48	293.45
688.81	293.03
689.15	292.68
689.49	292.24
689.82	291.81
690.16	291.27
690.50	290.82
690.83	290.37
691.17	289.91
691.51	289.49
691.84	289.10
692.18	288.65
692.52	288.19
692.85	287.75
693.19	287.38
693.52	286.95
693.86	286.52
694.20	286.09
694.53	285.65
694.87	285.18
695.21	284.73
695.54	284.29
695.88	283.85
696.21	283.35
696.55	282.91
696.88	282.46
697.22	282.04
697.56	281.64
697.89	281.16
698.23	280.74
698.56	280.29
698.90	279.88
699.23	279.43
699.57	279.02
699.90	278.60
700.24	278.14
700.58	277.73
700.91	277.36
701.25	277.12
701.58	276.81
701.92	276.46
702.25	276.09
702.59	275.68
702.92	275.28
703.26	274.88
703.59	274.46
703.93	274.20
704.26	273.81
704.60	273.40
704.93	273.01
705.26	272.61
705.60	272.26
705.93	271.82
706.27	271.51
706.60	271.17
706.94	270.86
707.27	270.44
707.61	270.05
707.94	269.64
708.27	269.08
708.61	268.62
708.94	268.19
709.28	267.81
709.61	267.43
709.94	267.09
710.28	266.75
710.61	266.42
710.95	265.91
711.28	265.68
711.61	265.32
711.95	265.01
712.28	264.65
712.61	264.28
712.95	264.03
713.28	263.74
713.61	263.35
713.95	262.96
714.28	262.65
714.61	262.29
714.95	261.97
715.28	261.63
715.61	261.33
715.95	261.03
716.28	260.70
716.61	260.42
716.95	260.09
717.28	259.78
717.61	259.46
717.94	259.17
718.28	258.74
718.61	258.43
718.94	258.11
719.27	257.82
719.61	257.55
719.94	257.22
720.27	256.85
720.60	256.58
720.94	256.29
721.27	256.02
721.60	255.78
721.93	255.50
722.27	255.27
722.60	255.00
722.93	254.70
723.26	254.45
723.59	254.15
723.93	253.91
724.26	253.67
724.59	253.40
724.92	253.16
725.25	252.98
725.59	252.74
725.92	252.51
726.25	252.27
726.58	252.03
726.91	251.78
727.24	251.56
727.57	251.31
727.91	251.05
728.24	250.83
728.57	250.59
728.90	250.37
729.23	250.09
729.56	249.95
729.89	249.74
730.22	249.51
730.55	249.30
730.89	249.08
731.22	248.86
731.55	248.65
731.88	248.45
732.21	248.20
732.54	247.98
732.87	247.79
733.20	247.60
733.53	247.41
733.86	247.23
734.19	247.01
734.52	246.85
734.85	246.80
735.18	246.59
735.51	246.46
735.84	246.30
736.17	246.17
736.50	245.90
736.83	245.93
737.16	245.75
737.49	245.58
737.82	245.39
738.15	245.22
738.48	245.05
738.81	244.86
739.14	244.67
739.47	244.48
739.80	244.30
740.13	244.15
740.46	243.95
740.79	243.75
741.12	243.57
741.45	243.38
741.78	243.10
742.11	242.98
742.44	242.77
742.77	242.62
743.10	242.43
743.43	242.26
743.75	241.91
744.08	242.02
744.41	241.84
744.74	241.69
745.07	241.50
745.40	241.39
745.73	241.32
746.06	241.18
746.39	241.07
746.71	240.92
747.04	240.75
747.37	240.60
747.70	240.48
748.03	240.35
748.36	240.24
748.68	240.11
749.01	239.93
749.34	239.80
749.67	239.67
750.00	239.56
750.33	239.56
750.65	239.45
750.98	239.07
751.31	238.96
751.64	238.86
751.97	238.84
752.29	238.69
752.62	238.48
752.95	238.35
753.28	238.20
753.60	238.07
753.93	238.01
754.26	237.91
754.59	237.74
754.91	237.60
755.24	237.47
755.57	237.36
755.90	237.25
756.22	237.11
756.55	236.97
756.88	236.81
757.20	236.59
757.53	236.43
757.86	236.32
758.19	236.22
758.51	236.11
758.84	235.92
759.17	235.80
759.49	235.71
759.82	235.70
760.15	235.62
760.47	235.52
760.80	235.37
761.13	235.29
761.45	235.20
761.78	235.12
762.11	235.04
762.43	234.92
762.76	234.83
763.08	234.76
763.41	234.69
763.74	234.63
764.06	234.54
764.39	234.46
764.71	234.37
765.04	234.27
765.37	234.17
765.69	234.08
766.02	234.00
766.34	233.91
766.67	233.76
767.00	233.72
767.32	233.74
767.65	233.78
767.97	233.69
768.30	233.63
768.62	233.56
768.95	233.46
769.27	233.39
769.60	233.35
769.92	233.25
770.25	233.15
770.57	233.05
770.90	232.99
771.22	232.92
771.55	232.87
771.87	232.82
772.20	232.75
772.52	232.84
772.85	233.01
773.17	232.96
773.50	232.90
773.82	232.81
774.15	232.66
774.47	232.49
774.80	232.42
775.12	232.36
775.45	232.30
775.77	232.26
776.09	232.23
776.42	232.17
776.74	232.18
777.07	232.12
777.39	232.08
777.72	232.02
778.04	231.99
778.36	231.92
778.69	231.88
779.01	231.85
779.33	231.65
779.66	231.40
779.98	231.34
780.31	231.30
780.63	231.33
780.95	231.33
781.28	231.28
781.60	231.23
781.92	231.19
782.25	231.15
782.57	231.11
782.89	231.06
783.22	231.02
783.54	230.94
783.86	230.93
784.19	230.89
784.51	230.91
784.83	230.85
785.16	230.81
785.48	230.78
785.80	230.74
786.12	230.72
786.45	230.69
786.77	230.67
787.09	230.63
787.42	230.53
787.74	230.49
788.06	230.48
788.38	230.44
788.71	230.40
789.03	230.38
789.35	230.37
789.67	230.32
789.99	230.30
790.32	230.25
790.64	230.24
790.96	230.38
791.28	230.29
791.61	230.26
791.93	230.24
792.25	230.20
792.57	230.29
792.89	230.24
793.21	230.22
793.54	230.17
793.86	230.13
794.18	230.11
794.50	230.05
794.82	230.02
795.14	230.02
795.47	230.03
795.79	230.00
796.11	229.94
796.43	229.91
796.75	229.88
797.07	229.87
797.39	229.83
797.71	229.65
798.04	229.64
798.36	229.62
798.68	229.59
799.00	229.59
799.32	229.48
799.64	229.49
799.96	229.47
800.28	229.48
800.60	229.46
800.92	229.45
801.24	229.42
801.56	229.43
801.89	229.38
802.21	229.37
802.53	229.32
802.85	229.34
803.17	229.41
803.49	229.36
803.81	229.32
804.13	229.29
804.45	229.25
804.77	229.25
805.09	229.22
805.41	229.19
805.73	229.14
806.05	229.08
806.37	229.05
806.69	229.01
807.01	228.97
807.33	228.97
807.65	228.90
807.97	228.96
808.28	228.91
808.60	228.90
808.92	228.85
809.24	228.95
809.56	228.90
809.88	228.82
810.20	228.82
810.52	228.84
810.84	228.80
811.16	228.77
811.48	228.75
811.80	228.80
812.12	228.78
812.43	228.81
812.75	228.81
813.07	228.77
813.39	228.77
813.71	228.73
814.03	228.70
814.35	228.69
814.67	228.61
814.98	228.59
815.30	228.58
815.62	228.54
815.94	228.41
816.26	228.41
816.58	228.36
816.89	228.36
817.21	228.30
817.53	228.31
817.85	228.30
818.17	228.29
818.48	228.20
818.80	228.22
819.12	228.18
819.44	228.14
819.76	228.11
820.07	228.09
820.39	228.08
820.71	228.08
821.03	228.07
821.34	228.05
821.66	228.06
821.98	228.06
822.30	228.05
822.61	228.15
822.93	228.11
823.25	228.10
823.57	228.07
823.88	228.09
824.20	228.07
824.52	228.09
824.83	228.08
825.15	228.06
825.47	228.03
825.79	228.04
826.10	228.02
826.42	228.01
826.74	228.02
827.05	228.00
827.37	228.00
827.69	227.98
828.00	227.98
828.32	227.96
828.64	227.93
828.95	228.02
829.27	227.96
829.58	227.96
829.90	227.99
830.22	227.99
830.53	227.95
830.85	227.93
831.17	227.87
831.48	227.85
831.80	227.85
832.11	227.83
832.43	227.79
832.75	227.78
833.06	227.88
833.38	227.82
833.69	227.81
834.01	227.81
834.32	227.80
834.64	227.78
834.96	227.77
835.27	227.77
835.59	227.71
835.90	227.67
836.22	227.66
836.53	227.62
836.85	227.59
837.16	227.77
837.48	227.77
837.79	227.83
838.11	227.83
838.42	227.83
838.74	227.85
839.05	227.83
839.37	227.82
839.68	227.71
840.00	227.71
840.31	227.73
840.63	227.70
840.94	227.68
841.26	227.65
841.57	227.65
841.88	227.65
842.20	227.61
842.51	227.57
842.83	227.56
843.14	227.72
843.46	227.71
843.77	227.60
844.08	227.58
844.40	227.52
844.71	227.49
845.03	227.47
845.34	227.45
845.65	227.45
845.97	227.45
846.28	227.46
846.60	227.46
846.91	227.43
847.22	227.43
847.54	227.46
847.85	227.47
848.16	227.45
848.48	227.41
848.79	227.48
849.10	227.51
849.42	227.52
849.73	227.35
850.04	227.36
850.36	227.29
850.67	227.32
850.98	227.32
851.30	227.34
851.61	227.34
851.92	227.33
852.23	227.38
852.55	227.38
852.86	227.38
853.17	227.39
853.49	227.43
853.80	227.45
854.11	227.46
854.42	227.48
854.74	227.46
855.05	227.47
855.36	227.37
855.67	227.37
855.99	227.37
856.30	227.58
856.61	227.57
856.92	227.57
857.23	227.57
857.55	227.55
857.86	227.53
858.17	227.55
858.48	227.53
858.79	227.49
859.11	227.49
859.42	227.48
859.73	227.45
860.04	227.43
860.35	227.38
860.66	227.33
860.98	227.31
861.29	227.34
861.60	227.33
861.91	227.37
862.22	227.33
862.53	227.30
862.84	227.08
863.16	227.12
863.47	227.09
863.78	227.06
864.09	227.09
864.40	227.10
864.71	227.09
865.02	227.11
865.33	227.09
865.64	227.05
865.95	227.05
866.27	227.16
866.58	227.14
866.89	227.16
867.20	227.16
867.51	227.13
867.82	227.12
868.13	227.17
868.44	227.13
868.75	227.16
869.06	227.18
869.37	227.20
869.68	227.14
869.99	227.17
870.30	227.18
870.61	227.18
870.92	227.16
871.23	227.14
871.54	227.16
871.85	227.21
872.16	227.23
872.47	227.22
872.78	227.12
873.09	227.14
873.40	227.11
873.71	227.12
874.02	227.14
874.33	227.12
874.64	227.07
874.95	227.10
875.26	227.06
875.56	227.05
875.87	227.04
876.18	227.04
876.49	227.21
876.80	227.19
877.11	227.15
877.42	227.16
877.73	227.16
878.04	227.13
878.35	227.12
878.66	227.12
878.96	227.12
879.27	227.10
879.58	227.09
879.89	227.08
880.20	227.13
880.51	227.12
880.82	227.12
881.12	227.13
881.43	227.10
881.74	227.08
882.05	227.07
882.36	227.08
882.67	227.09
882.97	226.90
883.28	226.89
883.59	226.89
883.90	226.91
884.21	226.94
884.51	226.93
884.82	226.91
885.13	226.90
885.44	226.90
885.74	226.91
886.05	226.90
886.36	226.90
886.67	226.83
886.98	226.91
887.28	226.93
887.59	226.92
887.90	226.93
888.20	226.92
888.51	226.95
888.82	226.91
889.13	226.93
889.43	227.09
889.74	227.07
890.05	227.07
890.35	227.05
890.66	227.01
890.97	226.99
891.28	226.97
891.58	226.98
891.89	226.98
892.20	226.96
892.50	226.94
892.81	226.93
893.12	226.93
893.42	226.84
893.73	226.85
894.04	226.84
894.34	226.86
894.65	226.86
894.95	226.85
895.26	226.86
895.57	226.93
895.87	226.75
896.18	226.79
896.48	226.80
896.79	226.80
897.10	226.83
897.40	226.84
897.71	226.86
898.01	226.84
898.32	226.85
898.63	226.85
898.93	226.86
899.24	226.87
899.54	226.87
899.85	226.86
900.15	226.85
900.46	226.85
900.76	226.86
901.07	226.85
901.38	226.84
901.68	226.86
901.99	226.77
902.29	226.78
902.60	226.77
902.90	226.75
903.21	226.75
903.51	226.74
903.82	226.77
904.12	226.77
904.43	226.78
904.73	226.77
905.03	226.79
905.34	226.95
905.64	226.95
905.95	226.95
906.25	226.95
906.56	226.94
906.86	226.94
907.17	226.93
907.47	226.94
907.77	226.93
908.08	226.89
908.38	226.90
908.69	226.91
908.99	226.94
909.30	226.95
909.60	226.95
909.90	226.94
910.21	226.90
910.51	226.87
910.81	226.87
911.12	226.87
911.42	226.87
911.73	226.68
912.03	226.70
912.33	226.74
912.64	226.73
912.94	226.71
913.24	226.68
913.55	226.66
913.85	226.65
914.15	226.69
914.46	226.71
914.76	226.69
915.06	226.68
915.37	226.65
915.67	226.64
915.97	226.64
916.27	226.61
916.58	226.62
916.88	226.62
917.18	226.61
917.49	226.73
917.79	226.72
918.09	226.75
918.39	226.79
918.70	226.77
919.00	226.78
919.30	226.87
919.60	226.86
919.91	226.85
920.21	226.85
920.51	226.81
920.81	226.80
921.12	226.83
921.42	226.82
921.72	226.84
922.02	226.84
922.32	226.87
922.63	226.88
922.93	226.99
923.23	227.00
923.53	226.98
923.83	226.86
924.13	226.88
924.44	226.88
924.74	226.90
925.04	226.95
925.34	226.94
925.64	226.87
925.94	226.88
926.24	226.98
926.55	226.96
926.85	226.99
927.15	226.99
927.45	226.98
927.75	226.99
928.05	226.99
928.35	226.98
928.65	227.00
928.95	227.01
929.26	226.92
929.56	226.96
929.86	226.98
930.16	226.97
930.46	226.96
930.76	226.96
931.06	226.87
931.36	226.81
931.66	226.84
931.96	226.86
932.26	226.87
932.56	226.79
932.86	226.80
933.16	226.80
933.46	226.78
933.76	226.76
934.06	226.78
934.36	226.84
934.66	226.83
934.96	226.81
935.26	226.81
935.56	226.84
935.86	226.79
936.16	226.76
936.46	226.75
936.76	226.75
937.06	226.72
937.36	226.74
937.66	226.75
937.96	226.74
938.26	226.70
938.56	226.68
938.86	226.69
939.16	226.73
939.46	226.74
939.76	226.76
940.06	226.76
940.35	226.73
940.65	226.63
940.95	226.65
941.25	226.60
941.55	226.58
941.85	226.56
942.15	226.61
942.45	226.66
942.75	226.66
943.04	226.67
943.34	226.70
943.64	226.68
943.94	226.65
944.24	226.66
944.54	226.67
944.84	226.67
945.13	226.65
945.43	226.62
945.73	226.60
946.03	226.59
946.33	226.56
946.62	226.55
946.92	226.55
947.22	226.55
947.52	226.58
947.82	226.60
948.11	226.57
948.41	226.53
948.71	226.48
949.01	226.48
949.31	226.47
949.60	226.45
949.90	226.47
950.20	226.47
950.50	226.46
950.79	226.44
951.09	226.47
951.39	226.47
951.69	226.45
951.98	226.48
952.28	226.50
952.58	226.50
952.87	226.51
953.17	226.54
953.47	226.51
953.76	226.51
954.06	226.48
954.36	226.46
954.66	226.45
954.95	226.50
955.25	226.52
955.55	226.54
955.84	226.51
956.14	226.52
956.44	226.54
956.73	226.51
957.03	226.53
957.32	226.52
957.62	226.51
957.92	226.55
958.21	226.53
958.51	226.73
958.81	226.75
959.10	226.76
959.40	226.79
959.69	226.81
959.99	226.84
960.29	226.84
960.58	226.84
960.88	226.91
961.17	226.89
961.47	226.89
961.76	226.87
962.06	226.91
962.36	226.88
962.65	226.89
962.95	226.90
963.24	226.88
963.54	226.89
963.83	226.89
964.13	226.88
964.42	226.86
964.72	226.71
965.01	226.71
965.31	226.70
965.60	226.66
965.90	226.78
966.19	226.73
966.49	226.75
966.78	226.75
967.08	226.72
967.37	226.72
967.67	226.69
967.96	226.73
968.26	226.72
968.55	226.74
968.85	226.73
969.14	226.73
969.43	226.73
969.73	226.71
970.02	226.71
970.32	226.70
970.61	226.68
970.91	226.63
971.20	226.59
971.49	226.57
971.79	226.59
972.08	226.46
972.38	226.47
972.67	226.46
972.96	226.48
973.26	226.45
973.55	226.49
973.85	226.49
974.14	226.47
974.43	226.49
974.73	226.45
975.02	226.44
975.31	226.44
975.61	226.44
975.90	226.43
976.19	226.41
976.49	226.43
976.78	226.44
977.07	226.44
977.37	226.46
977.66	226.49
977.95	226.46
978.24	226.47
978.54	226.51
978.83	226.50
979.12	226.49
979.42	226.49
979.71	226.46
980.00	226.45
980.29	226.47
980.59	226.43
980.88	226.47
981.17	226.47
981.46	226.46
981.76	226.46
982.05	226.52
982.34	226.53
982.63	226.53
982.93	226.53
983.22	226.57
983.51	226.58
983.80	226.61
984.09	226.64
984.39	226.62
984.68	226.59
984.97	226.60
985.26	226.59
985.55	226.61
985.85	226.57
986.14	226.60
986.43	226.62
986.72	226.61
987.01	226.56
987.30	226.56
987.59	226.55
987.89	226.56
988.18	226.51
988.47	226.49
988.76	226.48
989.05	226.46
989.34	226.44
989.63	226.47
989.92	226.44
990.22	226.41
990.51	226.41
990.80	226.40
991.09	226.41
991.38	226.43
991.67	226.41
991.96	226.40
992.25	226.40
992.54	226.36
992.83	226.37
993.12	226.37
993.41	226.40
993.70	226.47
993.99	226.50
994.28	226.53
994.58	226.56
994.87	226.55
995.16	226.55
995.45	226.53
995.74	226.47
996.03	226.50
996.32	226.53
996.61	226.57
996.90	226.56
997.19	226.56
997.48	226.55
997.77	226.54
998.06	226.55
998.34	226.54
998.63	226.54
998.92	226.56
999.21	226.59
999.50	226.58
999.79	226.53
1000.08	226.51
1000.37	226.51
1000.66	226.48
1000.95	226.53
1001.24	226.54
1001.53	226.56
1001.82	226.57
1002.11	226.53
1002.40	226.54
1002.68	226.57
1002.97	226.70
1003.26	226.69
1003.55	226.66
1003.84	226.68
1004.13	226.74
1004.42	226.73
1004.71	226.72
1004.99	226.70
1005.28	226.74
1005.57	226.73
1005.86	226.70
1006.15	226.70
1006.44	226.66
1006.72	226.69
1007.01	226.65
1007.30	226.65
1007.59	226.63
1007.88	226.63
1008.17	226.64
1008.45	226.60
1008.74	226.53
1009.03	226.44
1009.32	226.44
1009.60	226.44
1009.89	226.43
1010.18	226.35
1010.47	226.34
1010.76	226.34
1011.04	226.34
1011.33	226.33
1011.62	226.34
1011.91	226.35
1012.19	226.36
1012.48	226.37
1012.77	226.36
1013.05	226.42
1013.34	226.42
1013.63	226.41
1013.92	226.43
1014.20	226.42
1014.49	226.43
1014.78	226.44
1015.06	226.38
1015.35	226.38
1015.64	226.40
1015.92	226.43
1016.21	226.45
1016.50	226.45
1016.78	226.48
1017.07	226.49
1017.36	226.46
1017.64	226.43
1017.93	226.44
1018.22	226.43
1018.50	226.42
1018.79	226.41
1019.08	226.35
1019.36	226.36
1019.65	226.35
1019.93	226.39
1020.22	226.42
1020.51	226.51
1020.79	226.49
1021.08	226.11
1021.36	226.08
1021.65	226.49
1021.94	226.34
1022.22	226.47
1022.51	226.11
1022.79	227.31
1023.08	226.65
1023.36	228.41
1023.65	226.07
>>>>>End Processed Spectral Data<<<<<
