SpectraSuite Data File
++++++++++++++++++++++++++++++++++++
Date: Tue Oct 06 13:54:45 EDT 2015
User: lab3
Dark Spectrum Present: No
Reference Spectrum Present: No
Number of Sampled Component Spectra: 1
Spectrometers: USB2E7196
Integration Time (usec): 66000 (USB2E7196)
Spectra Averaged: 1000 (USB2E7196)
Boxcar Smoothing: 10 (USB2E7196)
Correct for Electrical Dark: No (USB2E7196)
Strobe/Lamp Enabled: No (USB2E7196)
Correct for Detector Non-linearity: No (USB2E7196)
Correct for Stray Light: No (USB2E7196)
Number of Pixels in Processed Spectrum: 2048
>>>>>Begin Processed Spectral Data<<<<<
339.09	0.00
339.48	215.66
339.86	217.06
340.24	218.48
340.63	219.90
341.01	224.04
341.39	222.45
341.78	224.21
342.16	225.61
342.54	225.66
342.93	214.11
343.31	224.93
343.69	225.46
344.07	225.92
344.46	226.37
344.84	226.77
345.22	226.95
345.60	227.24
345.99	227.44
346.37	227.56
346.75	227.68
347.13	227.77
347.52	227.86
347.90	227.99
348.28	228.03
348.66	228.11
349.05	228.11
349.43	228.18
349.81	228.26
350.19	228.32
350.57	228.40
350.96	228.49
351.34	228.59
351.72	228.71
352.10	228.82
352.48	228.90
352.87	228.95
353.25	229.02
353.63	229.07
354.01	229.14
354.39	229.23
354.77	229.31
355.15	229.43
355.54	229.46
355.92	229.47
356.30	229.56
356.68	229.74
357.06	229.82
357.44	229.86
357.82	229.92
358.20	230.14
358.58	230.19
358.97	230.26
359.35	230.34
359.73	230.43
360.11	230.49
360.49	230.55
360.87	230.60
361.25	230.67
361.63	230.78
362.01	230.84
362.39	230.85
362.77	230.91
363.15	230.93
363.53	230.97
363.91	231.02
364.29	231.05
364.67	230.90
365.05	230.92
365.43	230.96
365.81	231.00
366.19	230.95
366.57	231.04
366.95	231.05
367.33	231.01
367.71	231.00
368.09	231.03
368.47	231.03
368.85	231.02
369.23	231.04
369.61	230.96
369.99	230.99
370.37	231.00
370.75	231.10
371.13	231.07
371.51	231.02
371.89	230.99
372.27	230.97
372.65	230.95
373.03	230.91
373.41	230.87
373.78	230.82
374.16	230.69
374.54	230.59
374.92	230.53
375.30	230.50
375.68	230.42
376.06	230.36
376.44	230.31
376.82	230.29
377.19	230.23
377.57	230.19
377.95	230.08
378.33	230.02
378.71	229.81
379.09	229.76
379.47	229.74
379.84	229.67
380.22	229.60
380.60	229.53
380.98	229.48
381.36	229.43
381.73	229.37
382.11	229.36
382.49	229.31
382.87	229.24
383.25	229.21
383.62	229.38
384.00	229.31
384.38	229.25
384.76	229.25
385.13	229.27
385.51	229.23
385.89	229.18
386.27	229.16
386.64	229.16
387.02	229.10
387.40	229.06
387.78	229.05
388.15	229.03
388.53	228.99
388.91	228.97
389.29	228.93
389.66	228.93
390.04	228.89
390.42	228.90
390.79	228.90
391.17	228.89
391.55	228.68
391.92	228.68
392.30	228.70
392.68	228.66
393.05	228.64
393.43	228.65
393.81	228.67
394.18	228.65
394.56	228.66
394.94	228.71
395.31	228.72
395.69	228.80
396.06	228.84
396.44	228.90
396.82	228.92
397.19	229.04
397.57	229.07
397.95	229.14
398.32	229.13
398.70	229.19
399.07	229.29
399.45	229.36
399.82	229.44
400.20	229.50
400.58	229.58
400.95	229.61
401.33	229.73
401.70	229.97
402.08	230.11
402.45	230.24
402.83	230.42
403.20	230.59
403.58	230.72
403.95	230.93
404.33	231.15
404.71	231.36
405.08	231.68
405.46	231.93
405.83	232.21
406.21	232.51
406.58	232.84
406.96	233.16
407.33	233.52
407.70	233.93
408.08	234.50
408.45	235.01
408.83	235.55
409.20	236.05
409.58	236.50
409.95	237.12
410.33	237.79
410.70	238.42
411.08	239.19
411.45	239.98
411.82	240.79
412.20	241.73
412.57	242.82
412.95	243.69
413.32	244.82
413.69	245.99
414.07	247.23
414.44	248.59
414.82	249.98
415.19	251.61
415.56	253.26
415.94	254.98
416.31	256.90
416.68	258.84
417.06	261.07
417.43	263.17
417.81	265.58
418.18	268.03
418.55	270.71
418.93	273.50
419.30	276.43
419.67	279.52
420.04	282.71
420.42	286.07
420.79	289.91
421.16	293.81
421.54	297.75
421.91	301.86
422.28	306.12
422.66	310.75
423.03	315.13
423.40	319.73
423.77	324.63
424.15	329.64
424.52	334.85
424.89	340.51
425.26	346.09
425.64	351.29
426.01	357.12
426.38	363.08
426.75	369.19
427.13	375.42
427.50	381.94
427.87	388.69
428.24	395.47
428.61	401.97
428.99	408.97
429.36	416.72
429.73	424.13
430.10	431.50
430.47	439.03
430.85	446.85
431.22	455.17
431.59	463.69
431.96	472.01
432.33	481.28
432.70	490.11
433.08	500.60
433.45	510.47
433.82	520.14
434.19	531.00
434.56	541.66
434.93	552.02
435.30	562.32
435.68	573.99
436.05	585.43
436.42	596.87
436.79	607.31
437.16	618.56
437.53	630.69
437.90	642.84
438.27	654.68
438.64	667.40
439.01	678.98
439.38	689.75
439.75	700.09
440.13	711.84
440.50	723.00
440.87	731.89
441.24	741.67
441.61	752.43
441.98	760.36
442.35	769.69
442.72	779.28
443.09	788.49
443.46	794.57
443.83	799.09
444.20	802.79
444.57	808.26
444.94	811.64
445.31	814.98
445.68	817.82
446.05	820.00
446.42	819.79
446.79	819.42
447.16	819.00
447.53	818.82
447.90	815.51
448.27	812.27
448.64	807.14
449.01	803.73
449.37	796.48
449.74	789.94
450.11	781.48
450.48	772.07
450.85	762.57
451.22	754.31
451.59	746.30
451.96	739.19
452.33	728.70
452.70	719.27
453.07	707.87
453.43	696.53
453.80	685.47
454.17	674.88
454.54	664.99
454.91	653.80
455.28	643.16
455.65	633.09
456.02	622.52
456.38	613.97
456.75	602.94
457.12	594.01
457.49	584.99
457.86	576.52
458.23	569.08
458.59	560.82
458.96	552.42
459.33	544.99
459.70	537.42
460.07	531.58
460.43	524.74
460.80	518.32
461.17	512.68
461.54	506.67
461.91	501.05
462.27	495.33
462.64	490.67
463.01	485.31
463.38	480.00
463.74	475.20
464.11	470.96
464.48	467.12
464.85	462.97
465.21	459.77
465.58	456.23
465.95	452.18
466.32	448.93
466.68	445.75
467.05	442.57
467.42	439.46
467.78	436.14
468.15	433.09
468.52	430.86
468.88	427.94
469.25	425.26
469.62	423.12
469.98	420.76
470.35	418.66
470.72	416.80
471.08	414.86
471.45	413.23
471.82	411.41
472.18	409.53
472.55	408.31
472.92	406.78
473.28	405.58
473.65	404.29
474.02	403.11
474.38	402.08
474.75	401.46
475.11	400.57
475.48	400.16
475.85	399.73
476.21	399.49
476.58	399.32
476.94	399.49
477.31	399.53
477.67	399.65
478.04	399.94
478.41	400.32
478.77	400.90
479.14	401.24
479.50	402.00
479.87	402.95
480.23	403.92
480.60	404.85
480.96	405.78
481.33	407.19
481.69	408.58
482.06	409.96
482.42	411.26
482.79	412.81
483.15	414.65
483.52	416.74
483.88	418.73
484.25	420.87
484.61	423.09
484.98	425.48
485.34	428.15
485.71	430.93
486.07	433.92
486.44	436.83
486.80	440.15
487.17	443.50
487.53	447.20
487.90	451.04
488.26	455.26
488.62	459.69
488.99	464.13
489.35	468.85
489.72	473.91
490.08	479.18
490.44	484.62
490.81	490.19
491.17	495.88
491.54	501.97
491.90	508.19
492.26	514.85
492.63	521.81
492.99	529.07
493.36	536.61
493.72	544.51
494.08	552.60
494.45	561.03
494.81	569.91
495.17	578.96
495.54	588.53
495.90	598.48
496.26	608.68
496.63	619.13
496.99	629.91
497.35	641.15
497.72	652.76
498.08	664.79
498.44	677.10
498.80	690.22
499.17	703.66
499.53	717.54
499.89	731.76
500.26	746.13
500.62	760.75
500.98	776.04
501.34	791.55
501.71	807.75
502.07	824.25
502.43	841.17
502.79	858.21
503.16	875.72
503.52	893.49
503.88	911.71
504.24	930.41
504.60	949.34
504.97	968.65
505.33	988.47
505.69	1009.24
506.05	1030.08
506.41	1050.79
506.78	1071.80
507.14	1093.61
507.50	1115.90
507.86	1138.60
508.22	1161.45
508.59	1184.11
508.95	1207.58
509.31	1231.47
509.67	1256.06
510.03	1280.49
510.39	1305.40
510.75	1330.26
511.12	1355.20
511.48	1380.16
511.84	1405.16
512.20	1430.67
512.56	1456.66
512.92	1482.37
513.28	1507.80
513.64	1533.60
514.00	1559.49
514.37	1585.51
514.73	1611.26
515.09	1636.51
515.45	1662.03
515.81	1687.64
516.17	1713.35
516.53	1738.36
516.89	1763.39
517.25	1788.44
517.61	1813.33
517.97	1838.32
518.33	1863.02
518.69	1887.62
519.05	1912.37
519.41	1937.06
519.77	1961.59
520.13	1985.88
520.49	2010.04
520.85	2034.18
521.21	2058.15
521.57	2082.35
521.93	2105.49
522.29	2129.10
522.65	2152.30
523.01	2175.25
523.37	2197.36
523.73	2219.86
524.09	2242.50
524.45	2265.11
524.81	2286.94
525.17	2308.60
525.53	2329.56
525.89	2350.79
526.25	2371.62
526.61	2391.38
526.97	2411.29
527.33	2430.76
527.68	2449.33
528.04	2467.29
528.40	2484.27
528.76	2501.73
529.12	2518.02
529.48	2534.76
529.84	2550.18
530.20	2566.68
530.56	2582.11
530.91	2597.38
531.27	2611.71
531.63	2625.06
531.99	2638.18
532.35	2649.73
532.71	2661.27
533.07	2673.16
533.42	2683.43
533.78	2694.42
534.14	2705.63
534.50	2715.45
534.86	2725.43
535.21	2733.48
535.57	2741.60
535.93	2750.04
536.29	2757.37
536.65	2764.93
537.00	2770.35
537.36	2776.26
537.72	2780.33
538.08	2784.13
538.44	2787.12
538.79	2790.45
539.15	2793.14
539.51	2795.19
539.87	2797.89
540.22	2798.57
540.58	2799.66
540.94	2800.43
541.29	2799.76
541.65	2797.64
542.01	2795.53
542.37	2792.37
542.72	2790.95
543.08	2788.22
543.44	2785.36
543.79	2780.72
544.15	2775.90
544.51	2771.94
544.87	2765.86
545.22	2759.34
545.58	2752.97
545.94	2747.45
546.29	2740.15
546.65	2732.14
547.01	2724.25
547.36	2715.94
547.72	2707.52
548.07	2697.92
548.43	2688.15
548.79	2677.29
549.14	2667.40
549.50	2657.41
549.86	2646.75
550.21	2634.22
550.57	2623.06
550.92	2610.05
551.28	2597.77
551.64	2585.71
551.99	2573.75
552.35	2562.02
552.70	2549.97
553.06	2538.30
553.41	2525.48
553.77	2512.34
554.13	2499.48
554.48	2485.76
554.84	2471.54
555.19	2458.34
555.55	2444.34
555.90	2430.42
556.26	2417.49
556.61	2403.78
556.97	2389.12
557.32	2374.83
557.68	2360.79
558.03	2346.08
558.39	2332.31
558.74	2318.69
559.10	2303.01
559.45	2287.81
559.81	2273.30
560.16	2258.48
560.52	2243.29
560.87	2228.88
561.23	2214.02
561.58	2199.44
561.94	2184.25
562.29	2169.19
562.64	2154.02
563.00	2138.96
563.35	2124.51
563.71	2109.85
564.06	2094.72
564.42	2080.06
564.77	2065.50
565.12	2051.36
565.48	2037.20
565.83	2022.57
566.19	2008.11
566.54	1994.22
566.89	1979.06
567.25	1963.45
567.60	1949.03
567.96	1934.01
568.31	1918.40
568.66	1903.69
569.02	1889.12
569.37	1874.53
569.72	1860.30
570.08	1845.90
570.43	1831.51
570.78	1816.36
571.14	1801.19
571.49	1786.43
571.84	1772.51
572.20	1757.33
572.55	1742.26
572.90	1726.65
573.26	1711.13
573.61	1695.35
573.96	1680.12
574.31	1665.64
574.67	1651.55
575.02	1636.65
575.37	1621.54
575.72	1606.31
576.08	1591.34
576.43	1576.43
576.78	1561.64
577.13	1546.89
577.49	1532.19
577.84	1517.33
578.19	1502.75
578.54	1488.16
578.90	1473.54
579.25	1458.35
579.60	1444.32
579.95	1430.25
580.30	1416.39
580.66	1402.58
581.01	1388.90
581.36	1375.11
581.71	1361.22
582.06	1347.40
582.42	1333.76
582.77	1320.43
583.12	1307.44
583.47	1294.34
583.82	1281.31
584.17	1268.32
584.53	1255.36
584.88	1242.78
585.23	1230.04
585.58	1217.51
585.93	1205.02
586.28	1193.08
586.63	1181.05
586.98	1168.88
587.34	1157.10
587.69	1145.05
588.04	1133.39
588.39	1121.91
588.74	1110.30
589.09	1099.08
589.44	1087.38
589.79	1076.24
590.14	1065.24
590.49	1054.30
590.84	1043.63
591.19	1033.03
591.54	1022.40
591.89	1011.57
592.25	1000.77
592.60	989.96
592.95	979.40
593.30	968.91
593.65	958.34
594.00	948.07
594.35	938.44
594.70	928.33
595.05	918.94
595.40	909.32
595.75	899.57
596.10	890.32
596.45	880.88
596.80	871.84
597.15	862.77
597.50	853.79
597.85	845.16
598.19	836.46
598.54	827.75
598.89	819.28
599.24	811.24
599.59	803.26
599.94	795.81
600.29	788.13
600.64	780.53
600.99	772.93
601.34	765.56
601.69	757.62
602.04	750.30
602.39	743.08
602.74	736.10
603.08	729.17
603.43	722.28
603.78	715.51
604.13	708.88
604.48	702.26
604.83	695.85
605.18	689.40
605.53	683.12
605.87	676.73
606.22	670.57
606.57	664.35
606.92	658.03
607.27	651.84
607.62	646.03
607.96	640.29
608.31	634.85
608.66	629.22
609.01	623.86
609.36	618.72
609.70	613.46
610.05	608.15
610.40	603.00
610.75	597.75
611.10	592.86
611.44	587.88
611.79	583.03
612.14	578.14
612.49	573.24
612.83	568.55
613.18	564.13
613.53	559.71
613.88	555.34
614.22	551.17
614.57	546.88
614.92	542.64
615.27	538.54
615.61	534.41
615.96	530.45
616.31	526.52
616.65	522.55
617.00	518.68
617.35	514.91
617.70	511.23
618.04	507.70
618.39	504.09
618.74	500.64
619.08	497.11
619.43	493.69
619.78	490.40
620.12	487.12
620.47	483.95
620.82	480.79
621.16	477.69
621.51	474.74
621.85	471.85
622.20	468.99
622.55	466.13
622.89	463.34
623.24	460.68
623.59	458.01
623.93	455.41
624.28	452.91
624.62	450.63
624.97	448.33
625.32	445.89
625.66	443.45
626.01	441.07
626.35	438.88
626.70	436.59
627.04	434.48
627.39	432.30
627.73	430.17
628.08	428.16
628.43	426.18
628.77	424.17
629.12	422.26
629.46	420.35
629.81	418.56
630.15	416.68
630.50	414.82
630.84	413.06
631.19	411.35
631.53	409.67
631.88	407.82
632.22	406.07
632.57	404.64
632.91	403.20
633.26	401.81
633.60	400.35
633.95	398.99
634.29	397.51
634.64	396.10
634.98	394.55
635.32	393.16
635.67	391.85
636.01	390.55
636.36	389.30
636.70	388.17
637.05	386.88
637.39	385.73
637.73	384.59
638.08	383.48
638.42	382.37
638.77	381.17
639.11	379.95
639.45	378.79
639.80	377.58
640.14	376.43
640.49	375.23
640.83	374.10
641.17	372.96
641.52	371.86
641.86	370.82
642.20	369.94
642.55	368.86
642.89	367.84
643.23	366.81
643.58	365.89
643.92	364.81
644.26	363.81
644.61	362.89
644.95	361.92
645.29	360.94
645.64	359.94
645.98	359.01
646.32	358.16
646.66	357.25
647.01	356.33
647.35	355.50
647.69	354.65
648.04	353.85
648.38	352.99
648.72	352.19
649.06	351.42
649.41	350.59
649.75	349.81
650.09	349.07
650.43	348.32
650.78	347.52
651.12	346.74
651.46	346.02
651.80	345.30
652.14	344.58
652.49	343.89
652.83	343.16
653.17	342.47
653.51	341.79
653.85	341.19
654.20	340.56
654.54	339.82
654.88	339.14
655.22	338.48
655.56	337.77
655.90	337.08
656.25	336.40
656.59	335.74
656.93	335.13
657.27	334.55
657.61	333.88
657.95	333.27
658.29	332.67
658.64	332.13
658.98	331.51
659.32	330.90
659.66	330.31
660.00	329.74
660.34	329.18
660.68	328.58
661.02	327.93
661.36	327.31
661.70	326.75
662.05	326.21
662.39	325.71
662.73	325.25
663.07	324.83
663.41	324.33
663.75	323.78
664.09	323.23
664.43	322.63
664.77	322.13
665.11	321.54
665.45	321.00
665.79	320.44
666.13	319.88
666.47	319.34
666.81	318.77
667.15	318.17
667.49	317.67
667.83	317.23
668.17	316.77
668.51	316.31
668.85	315.88
669.19	315.50
669.53	314.95
669.87	314.45
670.21	313.95
670.55	313.50
670.89	313.16
671.23	312.72
671.57	312.30
671.91	311.91
672.25	311.54
672.58	311.18
672.92	310.73
673.26	310.34
673.60	309.95
673.94	309.57
674.28	309.22
674.62	308.84
674.96	308.37
675.30	307.96
675.64	307.53
675.97	307.10
676.31	306.60
676.65	306.16
676.99	305.79
677.33	305.32
677.67	304.87
678.01	304.32
678.34	303.88
678.68	303.46
679.02	302.96
679.36	302.51
679.70	302.04
680.04	301.59
680.37	301.15
680.71	300.73
681.05	300.32
681.39	299.88
681.73	299.41
682.06	298.95
682.40	298.52
682.74	298.15
683.08	297.78
683.42	297.34
683.75	296.94
684.09	296.44
684.43	295.98
684.77	295.53
685.10	295.14
685.44	294.75
685.78	294.32
686.12	293.93
686.45	293.49
686.79	293.04
687.13	292.64
687.46	292.18
687.80	291.75
688.14	291.27
688.48	290.83
688.81	290.41
689.15	290.07
689.49	289.61
689.82	289.14
690.16	288.61
690.50	288.20
690.83	287.77
691.17	287.32
691.51	286.91
691.84	286.53
692.18	286.09
692.52	285.62
692.85	285.18
693.19	284.82
693.52	284.41
693.86	284.02
694.20	283.59
694.53	283.20
694.87	282.74
695.21	282.31
695.54	281.90
695.88	281.45
696.21	280.94
696.55	280.52
696.88	280.09
697.22	279.68
697.56	279.26
697.89	278.80
698.23	278.39
698.56	277.95
698.90	277.52
699.23	277.09
699.57	276.68
699.90	276.24
700.24	275.75
700.58	275.35
700.91	274.97
701.25	274.73
701.58	274.41
701.92	274.09
702.25	273.73
702.59	273.33
702.92	272.95
703.26	272.57
703.59	272.18
703.93	271.94
704.26	271.58
704.60	271.19
704.93	270.81
705.26	270.40
705.60	270.06
705.93	269.64
706.27	269.33
706.60	269.01
706.94	268.72
707.27	268.32
707.61	267.94
707.94	267.54
708.27	267.00
708.61	266.54
708.94	266.12
709.28	265.76
709.61	265.40
709.94	265.08
710.28	264.78
710.61	264.49
710.95	264.02
711.28	263.79
711.61	263.46
711.95	263.17
712.28	262.84
712.61	262.50
712.95	262.27
713.28	262.02
713.61	261.65
713.95	261.29
714.28	261.00
714.61	260.66
714.95	260.35
715.28	260.05
715.61	259.76
715.95	259.50
716.28	259.20
716.61	258.91
716.95	258.57
717.28	258.24
717.61	257.90
717.94	257.60
718.28	257.19
718.61	256.89
718.94	256.59
719.27	256.32
719.61	256.06
719.94	255.75
720.27	255.39
720.60	255.13
720.94	254.86
721.27	254.62
721.60	254.39
721.93	254.13
722.27	253.93
722.60	253.70
722.93	253.42
723.26	253.19
723.59	252.92
723.93	252.73
724.26	252.52
724.59	252.30
724.92	252.09
725.25	251.92
725.59	251.70
725.92	251.50
726.25	251.27
726.58	251.06
726.91	250.83
727.24	250.63
727.57	250.40
727.91	250.15
728.24	249.95
728.57	249.73
728.90	249.55
729.23	249.29
729.56	249.15
729.89	248.97
730.22	248.75
730.55	248.55
730.89	248.34
731.22	248.12
731.55	247.90
731.88	247.70
732.21	247.48
732.54	247.27
732.87	247.08
733.20	246.90
733.53	246.72
733.86	246.55
734.19	246.35
734.52	246.20
734.85	246.16
735.18	245.95
735.51	245.84
735.84	245.68
736.17	245.56
736.50	245.30
736.83	245.32
737.16	245.16
737.49	245.01
737.82	244.82
738.15	244.69
738.48	244.54
738.81	244.37
739.14	244.19
739.47	244.04
739.80	243.86
740.13	243.73
740.46	243.54
740.79	243.37
741.12	243.22
741.45	243.04
741.78	242.79
742.11	242.69
742.44	242.50
742.77	242.36
743.10	242.18
743.43	242.03
743.75	241.71
744.08	241.84
744.41	241.68
744.74	241.55
745.07	241.38
745.40	241.28
745.73	241.22
746.06	241.09
746.39	240.99
746.71	240.85
747.04	240.71
747.37	240.58
747.70	240.50
748.03	240.38
748.36	240.28
748.68	240.16
749.01	240.00
749.34	239.88
749.67	239.77
750.00	239.69
750.33	239.70
750.65	239.60
750.98	239.22
751.31	239.12
751.64	239.03
751.97	239.01
752.29	238.88
752.62	238.68
752.95	238.56
753.28	238.41
753.60	238.29
753.93	238.22
754.26	238.13
754.59	237.95
754.91	237.83
755.24	237.71
755.57	237.59
755.90	237.48
756.22	237.35
756.55	237.20
756.88	237.05
757.20	236.83
757.53	236.68
757.86	236.58
758.19	236.50
758.51	236.39
758.84	236.21
759.17	236.10
759.49	236.02
759.82	236.01
760.15	235.94
760.47	235.86
760.80	235.71
761.13	235.65
761.45	235.56
761.78	235.47
762.11	235.38
762.43	235.29
762.76	235.20
763.08	235.15
763.41	235.08
763.74	235.01
764.06	234.93
764.39	234.86
764.71	234.78
765.04	234.68
765.37	234.59
765.69	234.51
766.02	234.44
766.34	234.36
766.67	234.23
767.00	234.19
767.32	234.22
767.65	234.27
767.97	234.18
768.30	234.13
768.62	234.07
768.95	233.99
769.27	233.92
769.60	233.88
769.92	233.78
770.25	233.69
770.57	233.60
770.90	233.54
771.22	233.46
771.55	233.40
771.87	233.35
772.20	233.30
772.52	233.40
772.85	233.55
773.17	233.49
773.50	233.43
773.82	233.33
774.15	233.20
774.47	233.03
774.80	232.97
775.12	232.91
775.45	232.85
775.77	232.82
776.09	232.78
776.42	232.73
776.74	232.74
777.07	232.69
777.39	232.66
777.72	232.61
778.04	232.61
778.36	232.55
778.69	232.53
779.01	232.50
779.33	232.29
779.66	232.04
779.98	231.99
780.31	231.96
780.63	232.00
780.95	231.99
781.28	231.96
781.60	231.90
781.92	231.86
782.25	231.82
782.57	231.78
782.89	231.73
783.22	231.70
783.54	231.62
783.86	231.61
784.19	231.56
784.51	231.59
784.83	231.52
785.16	231.49
785.48	231.44
785.80	231.41
786.12	231.39
786.45	231.36
786.77	231.35
787.09	231.31
787.42	231.21
787.74	231.17
788.06	231.15
788.38	231.12
788.71	231.08
789.03	231.07
789.35	231.06
789.67	231.01
789.99	230.99
790.32	230.94
790.64	230.93
790.96	231.08
791.28	230.98
791.61	230.95
791.93	230.94
792.25	230.91
792.57	231.01
792.89	230.97
793.21	230.95
793.54	230.90
793.86	230.87
794.18	230.85
794.50	230.79
794.82	230.77
795.14	230.78
795.47	230.79
795.79	230.76
796.11	230.69
796.43	230.67
796.75	230.64
797.07	230.63
797.39	230.59
797.71	230.42
798.04	230.42
798.36	230.41
798.68	230.38
799.00	230.37
799.32	230.26
799.64	230.26
799.96	230.22
800.28	230.25
800.60	230.22
800.92	230.21
801.24	230.18
801.56	230.17
801.89	230.13
802.21	230.12
802.53	230.07
802.85	230.09
803.17	230.16
803.49	230.10
803.81	230.07
804.13	230.05
804.45	230.00
804.77	230.00
805.09	229.98
805.41	229.94
805.73	229.89
806.05	229.83
806.37	229.80
806.69	229.78
807.01	229.73
807.33	229.73
807.65	229.65
807.97	229.72
808.28	229.68
808.60	229.66
808.92	229.60
809.24	229.70
809.56	229.66
809.88	229.58
810.20	229.58
810.52	229.61
810.84	229.58
811.16	229.55
811.48	229.52
811.80	229.57
812.12	229.56
812.43	229.59
812.75	229.59
813.07	229.57
813.39	229.58
813.71	229.55
814.03	229.51
814.35	229.52
814.67	229.44
814.98	229.41
815.30	229.40
815.62	229.38
815.94	229.25
816.26	229.26
816.58	229.21
816.89	229.21
817.21	229.14
817.53	229.16
817.85	229.15
818.17	229.14
818.48	229.05
818.80	229.07
819.12	229.02
819.44	228.98
819.76	228.96
820.07	228.94
820.39	228.92
820.71	228.93
821.03	228.91
821.34	228.89
821.66	228.92
821.98	228.92
822.30	228.91
822.61	229.00
822.93	228.96
823.25	228.96
823.57	228.94
823.88	228.96
824.20	228.94
824.52	228.95
824.83	228.95
825.15	228.92
825.47	228.89
825.79	228.90
826.10	228.88
826.42	228.86
826.74	228.85
827.05	228.84
827.37	228.84
827.69	228.83
828.00	228.83
828.32	228.81
828.64	228.80
828.95	228.89
829.27	228.83
829.58	228.82
829.90	228.84
830.22	228.84
830.53	228.80
830.85	228.78
831.17	228.72
831.48	228.71
831.80	228.73
832.11	228.72
832.43	228.69
832.75	228.69
833.06	228.79
833.38	228.74
833.69	228.74
834.01	228.73
834.32	228.71
834.64	228.69
834.96	228.68
835.27	228.67
835.59	228.59
835.90	228.56
836.22	228.55
836.53	228.51
836.85	228.49
837.16	228.66
837.48	228.67
837.79	228.72
838.11	228.73
838.42	228.72
838.74	228.74
839.05	228.73
839.37	228.71
839.68	228.61
840.00	228.61
840.31	228.62
840.63	228.60
840.94	228.60
841.26	228.58
841.57	228.56
841.88	228.58
842.20	228.55
842.51	228.52
842.83	228.51
843.14	228.67
843.46	228.66
843.77	228.55
844.08	228.54
844.40	228.48
844.71	228.46
845.03	228.44
845.34	228.41
845.65	228.41
845.97	228.41
846.28	228.42
846.60	228.43
846.91	228.40
847.22	228.40
847.54	228.43
847.85	228.44
848.16	228.43
848.48	228.39
848.79	228.46
849.10	228.47
849.42	228.49
849.73	228.32
850.04	228.31
850.36	228.25
850.67	228.27
850.98	228.27
851.30	228.28
851.61	228.27
851.92	228.26
852.23	228.31
852.55	228.32
852.86	228.32
853.17	228.33
853.49	228.37
853.80	228.40
854.11	228.40
854.42	228.42
854.74	228.41
855.05	228.41
855.36	228.32
855.67	228.33
855.99	228.32
856.30	228.53
856.61	228.52
856.92	228.53
857.23	228.53
857.55	228.51
857.86	228.49
858.17	228.52
858.48	228.49
858.79	228.45
859.11	228.46
859.42	228.45
859.73	228.41
860.04	228.40
860.35	228.35
860.66	228.30
860.98	228.28
861.29	228.30
861.60	228.28
861.91	228.32
862.22	228.29
862.53	228.26
862.84	228.05
863.16	228.09
863.47	228.06
863.78	228.03
864.09	228.05
864.40	228.05
864.71	228.05
865.02	228.07
865.33	228.05
865.64	228.00
865.95	228.01
866.27	228.12
866.58	228.10
866.89	228.12
867.20	228.12
867.51	228.09
867.82	228.09
868.13	228.15
868.44	228.11
868.75	228.15
869.06	228.15
869.37	228.18
869.68	228.13
869.99	228.16
870.30	228.17
870.61	228.18
870.92	228.16
871.23	228.15
871.54	228.17
871.85	228.21
872.16	228.24
872.47	228.22
872.78	228.12
873.09	228.13
873.40	228.10
873.71	228.10
874.02	228.11
874.33	228.08
874.64	228.03
874.95	228.05
875.26	228.00
875.56	227.98
875.87	227.97
876.18	227.96
876.49	228.13
876.80	228.10
877.11	228.06
877.42	228.05
877.73	228.04
878.04	228.00
878.35	228.00
878.66	227.99
878.96	227.98
879.27	227.97
879.58	227.96
879.89	227.94
880.20	228.00
880.51	227.99
880.82	228.00
881.12	228.01
881.43	227.97
881.74	227.96
882.05	227.96
882.36	227.96
882.67	227.97
882.97	227.78
883.28	227.77
883.59	227.78
883.90	227.80
884.21	227.83
884.51	227.82
884.82	227.79
885.13	227.81
885.44	227.81
885.74	227.81
886.05	227.81
886.36	227.82
886.67	227.75
886.98	227.84
887.28	227.85
887.59	227.84
887.90	227.84
888.20	227.85
888.51	227.88
888.82	227.85
889.13	227.86
889.43	228.01
889.74	228.01
890.05	228.00
890.35	227.98
890.66	227.96
890.97	227.96
891.28	227.93
891.58	227.93
891.89	227.93
892.20	227.92
892.50	227.91
892.81	227.90
893.12	227.90
893.42	227.81
893.73	227.81
894.04	227.81
894.34	227.84
894.65	227.83
894.95	227.81
895.26	227.81
895.57	227.88
895.87	227.71
896.18	227.75
896.48	227.76
896.79	227.76
897.10	227.78
897.40	227.79
897.71	227.81
898.01	227.79
898.32	227.81
898.63	227.80
898.93	227.81
899.24	227.82
899.54	227.81
899.85	227.80
900.15	227.80
900.46	227.80
900.76	227.81
901.07	227.81
901.38	227.80
901.68	227.83
901.99	227.74
902.29	227.74
902.60	227.73
902.90	227.72
903.21	227.71
903.51	227.68
903.82	227.72
904.12	227.72
904.43	227.73
904.73	227.72
905.03	227.74
905.34	227.90
905.64	227.89
905.95	227.89
906.25	227.89
906.56	227.88
906.86	227.87
907.17	227.86
907.47	227.87
907.77	227.85
908.08	227.82
908.38	227.84
908.69	227.86
908.99	227.88
909.30	227.89
909.60	227.90
909.90	227.90
910.21	227.86
910.51	227.82
910.81	227.82
911.12	227.83
911.42	227.83
911.73	227.64
912.03	227.65
912.33	227.69
912.64	227.67
912.94	227.65
913.24	227.63
913.55	227.61
913.85	227.60
914.15	227.65
914.46	227.67
914.76	227.65
915.06	227.63
915.37	227.60
915.67	227.59
915.97	227.60
916.27	227.57
916.58	227.59
916.88	227.59
917.18	227.58
917.49	227.69
917.79	227.69
918.09	227.72
918.39	227.77
918.70	227.75
919.00	227.76
919.30	227.85
919.60	227.84
919.91	227.82
920.21	227.82
920.51	227.78
920.81	227.76
921.12	227.80
921.42	227.80
921.72	227.81
922.02	227.82
922.32	227.84
922.63	227.84
922.93	227.94
923.23	227.96
923.53	227.94
923.83	227.82
924.13	227.84
924.44	227.84
924.74	227.85
925.04	227.90
925.34	227.89
925.64	227.82
925.94	227.83
926.24	227.93
926.55	227.92
926.85	227.95
927.15	227.96
927.45	227.95
927.75	227.96
928.05	227.95
928.35	227.93
928.65	227.95
928.95	227.96
929.26	227.87
929.56	227.90
929.86	227.94
930.16	227.92
930.46	227.90
930.76	227.90
931.06	227.82
931.36	227.76
931.66	227.79
931.96	227.80
932.26	227.82
932.56	227.75
932.86	227.76
933.16	227.76
933.46	227.74
933.76	227.71
934.06	227.73
934.36	227.80
934.66	227.80
934.96	227.76
935.26	227.77
935.56	227.79
935.86	227.74
936.16	227.70
936.46	227.69
936.76	227.68
937.06	227.66
937.36	227.68
937.66	227.70
937.96	227.69
938.26	227.66
938.56	227.64
938.86	227.65
939.16	227.69
939.46	227.70
939.76	227.70
940.06	227.71
940.35	227.68
940.65	227.59
940.95	227.60
941.25	227.58
941.55	227.55
941.85	227.53
942.15	227.58
942.45	227.62
942.75	227.62
943.04	227.62
943.34	227.65
943.64	227.63
943.94	227.60
944.24	227.60
944.54	227.61
944.84	227.62
945.13	227.59
945.43	227.56
945.73	227.54
946.03	227.54
946.33	227.52
946.62	227.50
946.92	227.50
947.22	227.51
947.52	227.53
947.82	227.56
948.11	227.54
948.41	227.50
948.71	227.44
949.01	227.46
949.31	227.45
949.60	227.42
949.90	227.46
950.20	227.46
950.50	227.46
950.79	227.45
951.09	227.46
951.39	227.46
951.69	227.44
951.98	227.47
952.28	227.48
952.58	227.48
952.87	227.49
953.17	227.52
953.47	227.49
953.76	227.48
954.06	227.44
954.36	227.43
954.66	227.43
954.95	227.49
955.25	227.50
955.55	227.51
955.84	227.49
956.14	227.50
956.44	227.50
956.73	227.48
957.03	227.48
957.32	227.48
957.62	227.46
957.92	227.50
958.21	227.48
958.51	227.68
958.81	227.71
959.10	227.72
959.40	227.76
959.69	227.78
959.99	227.81
960.29	227.82
960.58	227.82
960.88	227.88
961.17	227.86
961.47	227.87
961.76	227.85
962.06	227.87
962.36	227.85
962.65	227.87
962.95	227.89
963.24	227.87
963.54	227.88
963.83	227.89
964.13	227.89
964.42	227.88
964.72	227.72
965.01	227.72
965.31	227.71
965.60	227.66
965.90	227.77
966.19	227.73
966.49	227.74
966.78	227.74
967.08	227.73
967.37	227.73
967.67	227.70
967.96	227.74
968.26	227.74
968.55	227.76
968.85	227.75
969.14	227.75
969.43	227.73
969.73	227.72
970.02	227.71
970.32	227.69
970.61	227.67
970.91	227.64
971.20	227.62
971.49	227.60
971.79	227.63
972.08	227.49
972.38	227.52
972.67	227.50
972.96	227.52
973.26	227.48
973.55	227.53
973.85	227.52
974.14	227.50
974.43	227.51
974.73	227.49
975.02	227.47
975.31	227.47
975.61	227.48
975.90	227.46
976.19	227.45
976.49	227.48
976.78	227.48
977.07	227.48
977.37	227.49
977.66	227.51
977.95	227.47
978.24	227.50
978.54	227.53
978.83	227.51
979.12	227.50
979.42	227.51
979.71	227.47
980.00	227.49
980.29	227.48
980.59	227.45
980.88	227.48
981.17	227.49
981.46	227.48
981.76	227.48
982.05	227.52
982.34	227.54
982.63	227.53
982.93	227.54
983.22	227.58
983.51	227.58
983.80	227.61
984.09	227.63
984.39	227.61
984.68	227.58
984.97	227.59
985.26	227.57
985.55	227.59
985.85	227.55
986.14	227.57
986.43	227.60
986.72	227.59
987.01	227.53
987.30	227.53
987.59	227.52
987.89	227.54
988.18	227.48
988.47	227.46
988.76	227.44
989.05	227.42
989.34	227.39
989.63	227.43
989.92	227.39
990.22	227.37
990.51	227.36
990.80	227.34
991.09	227.35
991.38	227.38
991.67	227.36
991.96	227.35
992.25	227.35
992.54	227.32
992.83	227.32
993.12	227.32
993.41	227.35
993.70	227.42
993.99	227.44
994.28	227.47
994.58	227.50
994.87	227.48
995.16	227.48
995.45	227.45
995.74	227.38
996.03	227.41
996.32	227.44
996.61	227.48
996.90	227.48
997.19	227.47
997.48	227.46
997.77	227.45
998.06	227.46
998.34	227.44
998.63	227.43
998.92	227.44
999.21	227.47
999.50	227.48
999.79	227.41
1000.08	227.40
1000.37	227.39
1000.66	227.38
1000.95	227.43
1001.24	227.43
1001.53	227.46
1001.82	227.47
1002.11	227.43
1002.40	227.44
1002.68	227.48
1002.97	227.60
1003.26	227.58
1003.55	227.57
1003.84	227.59
1004.13	227.64
1004.42	227.65
1004.71	227.65
1004.99	227.64
1005.28	227.68
1005.57	227.67
1005.86	227.65
1006.15	227.65
1006.44	227.62
1006.72	227.63
1007.01	227.60
1007.30	227.60
1007.59	227.59
1007.88	227.59
1008.17	227.60
1008.45	227.56
1008.74	227.50
1009.03	227.42
1009.32	227.43
1009.60	227.43
1009.89	227.40
1010.18	227.33
1010.47	227.32
1010.76	227.32
1011.04	227.32
1011.33	227.31
1011.62	227.31
1011.91	227.33
1012.19	227.34
1012.48	227.36
1012.77	227.36
1013.05	227.42
1013.34	227.43
1013.63	227.42
1013.92	227.42
1014.20	227.41
1014.49	227.42
1014.78	227.43
1015.06	227.38
1015.35	227.38
1015.64	227.40
1015.92	227.43
1016.21	227.45
1016.50	227.45
1016.78	227.48
1017.07	227.50
1017.36	227.47
1017.64	227.45
1017.93	227.46
1018.22	227.44
1018.50	227.44
1018.79	227.45
1019.08	227.40
1019.36	227.40
1019.65	227.38
1019.93	227.43
1020.22	227.46
1020.51	227.56
1020.79	227.54
1021.08	227.15
1021.36	227.27
1021.65	227.61
1021.94	227.45
1022.22	227.48
1022.51	227.03
1022.79	228.18
1023.08	227.63
1023.36	229.72
1023.65	227.01
>>>>>End Processed Spectral Data<<<<<
