SpectraSuite Data File
++++++++++++++++++++++++++++++++++++
Date: Tue Oct 06 15:22:09 EDT 2015
User: lab3
Dark Spectrum Present: No
Reference Spectrum Present: No
Number of Sampled Component Spectra: 1
Spectrometers: USB2E7196
Integration Time (usec): 66000 (USB2E7196)
Spectra Averaged: 400 (USB2E7196)
Boxcar Smoothing: 10 (USB2E7196)
Correct for Electrical Dark: No (USB2E7196)
Strobe/Lamp Enabled: No (USB2E7196)
Correct for Detector Non-linearity: No (USB2E7196)
Correct for Stray Light: No (USB2E7196)
Number of Pixels in Processed Spectrum: 2048
>>>>>Begin Processed Spectral Data<<<<<
339.09	0.00
339.48	215.39
339.86	216.62
340.24	218.12
340.63	219.53
341.01	223.38
341.39	222.19
341.78	223.38
342.16	224.62
342.54	225.21
342.93	213.59
343.31	224.38
343.69	224.90
344.07	225.37
344.46	225.81
344.84	226.22
345.22	226.40
345.60	226.68
345.99	226.90
346.37	227.05
346.75	227.15
347.13	227.25
347.52	227.34
347.90	227.47
348.28	227.51
348.66	227.60
349.05	227.58
349.43	227.65
349.81	227.73
350.19	227.80
350.57	227.87
350.96	227.96
351.34	228.06
351.72	228.16
352.10	228.28
352.48	228.32
352.87	228.34
353.25	228.42
353.63	228.45
354.01	228.51
354.39	228.57
354.77	228.65
355.15	228.77
355.54	228.80
355.92	228.79
356.30	228.86
356.68	229.04
357.06	229.11
357.44	229.14
357.82	229.20
358.20	229.42
358.58	229.48
358.97	229.55
359.35	229.65
359.73	229.75
360.11	229.80
360.49	229.87
360.87	229.93
361.25	230.00
361.63	230.10
362.01	230.15
362.39	230.18
362.77	230.24
363.15	230.24
363.53	230.27
363.91	230.31
364.29	230.34
364.67	230.17
365.05	230.20
365.43	230.24
365.81	230.28
366.19	230.23
366.57	230.31
366.95	230.30
367.33	230.26
367.71	230.24
368.09	230.27
368.47	230.25
368.85	230.26
369.23	230.28
369.61	230.22
369.99	230.24
370.37	230.24
370.75	230.36
371.13	230.33
371.51	230.27
371.89	230.25
372.27	230.24
372.65	230.25
373.03	230.20
373.41	230.16
373.78	230.10
374.16	229.96
374.54	229.85
374.92	229.80
375.30	229.78
375.68	229.71
376.06	229.68
376.44	229.62
376.82	229.57
377.19	229.51
377.57	229.44
377.95	229.34
378.33	229.30
378.71	229.09
379.09	229.06
379.47	229.05
379.84	228.99
380.22	228.93
380.60	228.85
380.98	228.80
381.36	228.75
381.73	228.69
382.11	228.68
382.49	228.66
382.87	228.59
383.25	228.53
383.62	228.69
384.00	228.63
384.38	228.59
384.76	228.61
385.13	228.64
385.51	228.62
385.89	228.57
386.27	228.53
386.64	228.54
387.02	228.49
387.40	228.46
387.78	228.46
388.15	228.45
388.53	228.40
388.91	228.39
389.29	228.35
389.66	228.38
390.04	228.34
390.42	228.35
390.79	228.35
391.17	228.34
391.55	228.14
391.92	228.12
392.30	228.14
392.68	228.10
393.05	228.09
393.43	228.10
393.81	228.14
394.18	228.12
394.56	228.12
394.94	228.16
395.31	228.16
395.69	228.22
396.06	228.26
396.44	228.32
396.82	228.34
397.19	228.47
397.57	228.48
397.95	228.56
398.32	228.55
398.70	228.61
399.07	228.71
399.45	228.77
399.82	228.84
400.20	228.90
400.58	228.98
400.95	228.99
401.33	229.12
401.70	229.33
402.08	229.47
402.45	229.63
402.83	229.80
403.20	229.97
403.58	230.11
403.95	230.33
404.33	230.55
404.71	230.77
405.08	231.09
405.46	231.34
405.83	231.62
406.21	231.92
406.58	232.24
406.96	232.57
407.33	232.95
407.70	233.37
408.08	233.95
408.45	234.44
408.83	234.99
409.20	235.50
409.58	235.96
409.95	236.58
410.33	237.22
410.70	237.86
411.08	238.60
411.45	239.42
411.82	240.23
412.20	241.15
412.57	242.24
412.95	243.14
413.32	244.30
413.69	245.49
414.07	246.77
414.44	248.15
414.82	249.55
415.19	251.20
415.56	252.87
415.94	254.61
416.31	256.57
416.68	258.54
417.06	260.80
417.43	262.93
417.81	265.39
418.18	267.92
418.55	270.65
418.93	273.49
419.30	276.46
419.67	279.63
420.04	282.88
420.42	286.30
420.79	290.19
421.16	294.13
421.54	298.12
421.91	302.28
422.28	306.63
422.66	311.32
423.03	315.78
423.40	320.45
423.77	325.46
424.15	330.59
424.52	335.88
424.89	341.65
425.26	347.37
425.64	352.66
426.01	358.60
426.38	364.69
426.75	370.94
427.13	377.32
427.50	384.00
427.87	390.94
428.24	397.91
428.61	404.64
428.99	411.86
429.36	419.81
429.73	427.37
430.10	434.93
430.47	442.64
430.85	450.61
431.22	459.16
431.59	467.90
431.96	476.43
432.33	485.95
432.70	494.96
433.08	505.63
433.45	515.70
433.82	525.62
434.19	536.75
434.56	547.71
434.93	558.38
435.30	568.94
435.68	580.90
436.05	592.62
436.42	604.31
436.79	615.03
437.16	626.65
437.53	639.12
437.90	651.60
438.27	663.85
438.64	677.03
439.01	689.00
439.38	700.04
439.75	710.72
440.13	722.82
440.50	734.37
440.87	743.61
441.24	753.74
441.61	764.86
441.98	773.03
442.35	782.76
442.72	792.68
443.09	802.07
443.46	808.24
443.83	812.92
444.20	816.82
444.57	822.46
444.94	825.85
445.31	829.26
445.68	832.19
446.05	834.39
446.42	834.12
446.79	833.57
447.16	833.11
447.53	832.67
447.90	829.11
448.27	825.65
448.64	820.23
449.01	816.47
449.37	808.77
449.74	801.86
450.11	792.87
450.48	782.97
450.85	773.05
451.22	764.52
451.59	756.11
451.96	748.54
452.33	737.51
452.70	727.67
453.07	715.82
453.43	704.01
453.80	692.47
454.17	681.42
454.54	671.22
454.91	659.67
455.28	648.81
455.65	638.52
456.02	627.71
456.38	618.99
456.75	607.84
457.12	598.79
457.49	589.70
457.86	581.07
458.23	573.46
458.59	565.11
458.96	556.52
459.33	549.00
459.70	541.28
460.07	535.42
460.43	528.51
460.80	522.02
461.17	516.39
461.54	510.31
461.91	504.61
462.27	498.82
462.64	494.09
463.01	488.68
463.38	483.22
463.74	478.29
464.11	473.92
464.48	469.96
464.85	465.74
465.21	462.46
465.58	458.84
465.95	454.72
466.32	451.42
466.68	448.20
467.05	444.94
467.42	441.80
467.78	438.43
468.15	435.33
468.52	433.09
468.88	430.07
469.25	427.31
469.62	425.13
469.98	422.74
470.35	420.63
470.72	418.70
471.08	416.80
471.45	415.18
471.82	413.35
472.18	411.47
472.55	410.22
472.92	408.67
473.28	407.47
473.65	406.18
474.02	404.94
474.38	403.90
474.75	403.28
475.11	402.43
475.48	402.03
475.85	401.60
476.21	401.33
476.58	401.14
476.94	401.33
477.31	401.37
477.67	401.48
478.04	401.79
478.41	402.22
478.77	402.81
479.14	403.17
479.50	403.97
479.87	404.96
480.23	405.96
480.60	406.89
480.96	407.85
481.33	409.30
481.69	410.75
482.06	412.15
482.42	413.46
482.79	415.08
483.15	416.97
483.52	419.06
483.88	421.09
484.25	423.26
484.61	425.52
484.98	427.96
485.34	430.70
485.71	433.53
486.07	436.59
486.44	439.63
486.80	443.06
487.17	446.53
487.53	450.32
487.90	454.27
488.26	458.61
488.62	463.12
488.99	467.65
489.35	472.42
489.72	477.53
490.08	482.96
490.44	488.45
490.81	494.19
491.17	500.08
491.54	506.38
491.90	512.79
492.26	519.65
492.63	526.84
492.99	534.36
493.36	542.08
493.72	550.17
494.08	558.42
494.45	567.04
494.81	576.07
495.17	585.40
495.54	595.19
495.90	605.42
496.26	615.89
496.63	626.58
496.99	637.65
497.35	649.27
497.72	661.14
498.08	673.40
498.44	685.95
498.80	699.22
499.17	712.78
499.53	726.80
499.89	741.26
500.26	755.83
500.62	770.79
500.98	786.56
501.34	802.40
501.71	818.96
502.07	835.87
502.43	853.19
502.79	870.66
503.16	888.69
503.52	906.92
503.88	925.52
504.24	944.57
504.60	963.89
504.97	983.79
505.33	1004.06
505.69	1025.39
506.05	1046.91
506.41	1068.31
506.78	1089.82
507.14	1111.95
507.50	1134.53
507.86	1157.47
508.22	1180.58
508.59	1203.52
508.95	1227.43
509.31	1251.83
509.67	1276.75
510.03	1301.78
510.39	1326.66
510.75	1351.65
511.12	1376.89
511.48	1402.29
511.84	1427.63
512.20	1453.19
512.56	1479.69
512.92	1506.20
513.28	1532.00
513.64	1558.15
514.00	1584.61
514.37	1611.34
514.73	1638.09
515.09	1664.05
515.45	1690.30
515.81	1716.69
516.17	1742.79
516.53	1768.26
516.89	1793.57
517.25	1819.10
517.61	1844.40
517.97	1870.22
518.33	1895.38
518.69	1920.40
519.05	1945.78
519.41	1971.26
519.77	1996.75
520.13	2020.83
520.49	2044.97
520.85	2069.42
521.21	2093.28
521.57	2117.45
521.93	2140.47
522.29	2164.20
522.65	2187.63
523.01	2210.82
523.37	2233.50
523.73	2256.76
524.09	2279.59
524.45	2302.16
524.81	2324.08
525.17	2345.59
525.53	2366.51
525.89	2387.88
526.25	2408.77
526.61	2428.21
526.97	2447.62
527.33	2466.82
527.68	2485.54
528.04	2503.81
528.40	2520.91
528.76	2538.22
529.12	2554.93
529.48	2572.34
529.84	2587.07
530.20	2602.35
530.56	2616.65
530.91	2630.94
531.27	2644.64
531.63	2657.64
531.99	2670.10
532.35	2682.22
532.71	2693.97
533.07	2706.03
533.42	2716.29
533.78	2726.73
534.14	2738.00
534.50	2748.19
534.86	2758.95
535.21	2767.75
535.57	2776.22
535.93	2784.68
536.29	2791.51
536.65	2798.22
537.00	2803.23
537.36	2809.30
537.72	2814.37
538.08	2819.07
538.44	2822.50
538.79	2826.05
539.15	2828.18
539.51	2829.96
539.87	2830.61
540.22	2829.50
540.58	2828.63
540.94	2828.43
541.29	2827.30
541.65	2824.74
542.01	2821.82
542.37	2817.33
542.72	2814.50
543.08	2810.15
543.44	2805.77
543.79	2800.72
544.15	2795.05
544.51	2789.81
544.87	2783.50
545.22	2776.36
545.58	2769.01
545.94	2762.02
546.29	2753.49
546.65	2745.16
547.01	2736.70
547.36	2728.68
547.72	2720.95
548.07	2711.62
548.43	2701.21
548.79	2690.47
549.14	2680.11
549.50	2669.96
549.86	2658.96
550.21	2646.32
550.57	2634.72
550.92	2621.44
551.28	2608.72
551.64	2596.35
551.99	2583.70
552.35	2570.79
552.70	2557.65
553.06	2545.10
553.41	2532.23
553.77	2518.75
554.13	2505.49
554.48	2491.23
554.84	2476.24
555.19	2461.96
555.55	2447.40
555.90	2433.26
556.26	2419.57
556.61	2404.77
556.97	2388.92
557.32	2373.44
557.68	2358.34
558.03	2343.00
558.39	2328.60
558.74	2314.66
559.10	2298.99
559.45	2283.64
559.81	2268.95
560.16	2254.06
560.52	2238.87
560.87	2223.83
561.23	2208.55
561.58	2193.69
561.94	2178.52
562.29	2162.96
562.64	2147.48
563.00	2132.25
563.35	2117.26
563.71	2101.72
564.06	2086.43
564.42	2071.63
564.77	2056.92
565.12	2042.05
565.48	2027.07
565.83	2012.29
566.19	1997.67
566.54	1983.22
566.89	1968.07
567.25	1952.74
567.60	1938.21
567.96	1923.06
568.31	1906.62
568.66	1891.20
569.02	1876.31
569.37	1861.93
569.72	1848.13
570.08	1833.90
570.43	1819.12
570.78	1804.12
571.14	1789.08
571.49	1774.08
571.84	1759.51
572.20	1743.85
572.55	1728.90
572.90	1713.83
573.26	1698.80
573.61	1683.08
573.96	1667.90
574.31	1652.75
574.67	1637.62
575.02	1622.12
575.37	1606.66
575.72	1591.95
576.08	1577.18
576.43	1561.80
576.78	1546.57
577.13	1531.45
577.49	1516.58
577.84	1502.18
578.19	1487.32
578.54	1472.47
578.90	1457.71
579.25	1442.75
579.60	1428.87
579.95	1414.76
580.30	1400.66
580.66	1386.34
581.01	1372.24
581.36	1358.20
581.71	1344.80
582.06	1331.32
582.42	1317.78
582.77	1304.68
583.12	1291.81
583.47	1278.78
583.82	1266.02
584.17	1252.93
584.53	1239.85
584.88	1227.04
585.23	1214.10
585.58	1201.56
585.93	1189.00
586.28	1177.22
586.63	1165.41
586.98	1153.32
587.34	1141.56
587.69	1129.61
588.04	1118.03
588.39	1106.70
588.74	1095.01
589.09	1083.48
589.44	1071.67
589.79	1060.45
590.14	1049.23
590.49	1038.08
590.84	1027.26
591.19	1016.58
591.54	1005.99
591.89	995.14
592.25	984.58
592.60	973.97
592.95	963.52
593.30	953.33
593.65	942.93
594.00	932.76
594.35	923.41
594.70	913.47
595.05	904.14
595.40	894.61
595.75	884.91
596.10	875.74
596.45	866.60
596.80	857.82
597.15	849.03
597.50	840.29
597.85	831.84
598.19	823.25
598.54	814.70
598.89	806.54
599.24	798.81
599.59	790.94
599.94	783.60
600.29	776.28
600.64	768.84
600.99	761.33
601.34	753.97
601.69	746.12
602.04	739.14
602.39	732.06
602.74	725.14
603.08	718.37
603.43	711.61
603.78	704.82
604.13	698.15
604.48	691.54
604.83	685.09
605.18	678.65
605.53	672.45
605.87	666.22
606.22	660.06
606.57	653.85
606.92	647.59
607.27	641.35
607.62	635.33
607.96	629.53
608.31	624.06
608.66	618.56
609.01	613.36
609.36	608.08
609.70	602.73
610.05	597.42
610.40	592.27
610.75	587.14
611.10	582.29
611.44	577.36
611.79	572.54
612.14	567.67
612.49	562.88
612.83	558.30
613.18	553.79
613.53	549.32
613.88	544.96
614.22	540.90
614.57	536.74
614.92	532.65
615.27	528.72
615.61	524.75
615.96	520.84
616.31	516.87
616.65	513.01
617.00	509.31
617.35	505.66
617.70	502.01
618.04	498.45
618.39	494.94
618.74	491.67
619.08	488.42
619.43	485.24
619.78	482.03
620.12	478.79
620.47	475.76
620.82	472.77
621.16	469.80
621.51	466.92
621.85	464.03
622.20	461.22
622.55	458.37
622.89	455.56
623.24	452.92
623.59	450.33
623.93	447.80
624.28	445.42
624.62	443.22
624.97	441.07
625.32	438.80
625.66	436.50
626.01	434.14
626.35	431.89
626.70	429.59
627.04	427.55
627.39	425.45
627.73	423.43
628.08	421.47
628.43	419.51
628.77	417.45
629.12	415.55
629.46	413.71
629.81	412.01
630.15	410.21
630.50	408.42
630.84	406.73
631.19	405.05
631.53	403.42
631.88	401.58
632.22	399.87
632.57	398.44
632.91	396.98
633.26	395.60
633.60	394.25
633.95	392.97
634.29	391.50
634.64	390.13
634.98	388.61
635.32	387.25
635.67	386.04
636.01	384.80
636.36	383.60
636.70	382.51
637.05	381.25
637.39	380.14
637.73	379.02
638.08	377.95
638.42	376.94
638.77	375.82
639.11	374.68
639.45	373.54
639.80	372.34
640.14	371.24
640.49	370.11
640.83	368.97
641.17	367.88
641.52	366.82
641.86	365.81
642.20	364.93
642.55	363.90
642.89	362.85
643.23	361.90
643.58	361.05
643.92	360.03
644.26	359.10
644.61	358.22
644.95	357.29
645.29	356.28
645.64	355.23
645.98	354.29
646.32	353.46
646.66	352.61
647.01	351.78
647.35	351.02
647.69	350.19
648.04	349.47
648.38	348.68
648.72	347.94
649.06	347.18
649.41	346.38
649.75	345.61
650.09	344.92
650.43	344.14
650.78	343.34
651.12	342.59
651.46	341.83
651.80	341.11
652.14	340.43
652.49	339.80
652.83	339.15
653.17	338.45
653.51	337.77
653.85	337.18
654.20	336.54
654.54	335.79
654.88	335.13
655.22	334.50
655.56	333.84
655.90	333.20
656.25	332.55
656.59	331.91
656.93	331.35
657.27	330.80
657.61	330.20
657.95	329.68
658.29	329.12
658.64	328.57
658.98	327.96
659.32	327.35
659.66	326.80
660.00	326.29
660.34	325.77
660.68	325.19
661.02	324.56
661.36	323.95
661.70	323.41
662.05	322.86
662.39	322.32
662.73	321.85
663.07	321.42
663.41	320.95
663.75	320.43
664.09	319.92
664.43	319.30
664.77	318.80
665.11	318.19
665.45	317.66
665.79	317.16
666.13	316.65
666.47	316.14
666.81	315.57
667.15	314.96
667.49	314.50
667.83	314.08
668.17	313.62
668.51	313.19
668.85	312.81
669.19	312.46
669.53	311.94
669.87	311.41
670.21	310.84
670.55	310.33
670.89	309.95
671.23	309.48
671.57	309.10
671.91	308.72
672.25	308.36
672.58	308.02
672.92	307.58
673.26	307.19
673.60	306.80
673.94	306.44
674.28	306.11
674.62	305.70
674.96	305.25
675.30	304.89
675.64	304.45
675.97	303.98
676.31	303.49
676.65	303.07
676.99	302.73
677.33	302.31
677.67	301.93
678.01	301.44
678.34	301.04
678.68	300.63
679.02	300.19
679.36	299.75
679.70	299.29
680.04	298.90
680.37	298.49
680.71	298.12
681.05	297.74
681.39	297.30
681.73	296.85
682.06	296.43
682.40	296.01
682.74	295.63
683.08	295.33
683.42	294.95
683.75	294.61
684.09	294.12
684.43	293.74
684.77	293.30
685.10	292.92
685.44	292.51
685.78	292.10
686.12	291.69
686.45	291.30
686.79	290.84
687.13	290.44
687.46	290.00
687.80	289.57
688.14	289.09
688.48	288.67
688.81	288.25
689.15	287.89
689.49	287.46
689.82	287.05
690.16	286.53
690.50	286.09
690.83	285.64
691.17	285.20
691.51	284.80
691.84	284.42
692.18	284.01
692.52	283.55
692.85	283.12
693.19	282.76
693.52	282.34
693.86	281.93
694.20	281.50
694.53	281.09
694.87	280.65
695.21	280.22
695.54	279.82
695.88	279.37
696.21	278.89
696.55	278.46
696.88	278.02
697.22	277.57
697.56	277.17
697.89	276.72
698.23	276.33
698.56	275.89
698.90	275.48
699.23	275.05
699.57	274.68
699.90	274.27
700.24	273.83
700.58	273.45
700.91	273.09
701.25	272.87
701.58	272.59
701.92	272.26
702.25	271.91
702.59	271.51
702.92	271.15
703.26	270.78
703.59	270.41
703.93	270.18
704.26	269.83
704.60	269.45
704.93	269.08
705.26	268.70
705.60	268.37
705.93	267.97
706.27	267.66
706.60	267.34
706.94	267.05
707.27	266.67
707.61	266.29
707.94	265.93
708.27	265.43
708.61	264.98
708.94	264.57
709.28	264.22
709.61	263.88
709.94	263.57
710.28	263.25
710.61	262.93
710.95	262.44
711.28	262.24
711.61	261.91
711.95	261.62
712.28	261.26
712.61	260.93
712.95	260.71
713.28	260.46
713.61	260.12
713.95	259.76
714.28	259.46
714.61	259.14
714.95	258.81
715.28	258.50
715.61	258.23
715.95	257.97
716.28	257.68
716.61	257.41
716.95	257.08
717.28	256.79
717.61	256.50
717.94	256.24
718.28	255.83
718.61	255.56
718.94	255.27
719.27	255.03
719.61	254.78
719.94	254.47
720.27	254.12
720.60	253.84
720.94	253.57
721.27	253.33
721.60	253.12
721.93	252.87
722.27	252.67
722.60	252.42
722.93	252.16
723.26	251.92
723.59	251.67
723.93	251.46
724.26	251.26
724.59	251.02
724.92	250.81
725.25	250.65
725.59	250.44
725.92	250.23
726.25	250.02
726.58	249.80
726.91	249.55
727.24	249.35
727.57	249.13
727.91	248.91
728.24	248.73
728.57	248.50
728.90	248.30
729.23	248.04
729.56	247.92
729.89	247.72
730.22	247.51
730.55	247.30
730.89	247.10
731.22	246.89
731.55	246.71
731.88	246.55
732.21	246.33
732.54	246.15
732.87	245.97
733.20	245.80
733.53	245.63
733.86	245.49
734.19	245.31
734.52	245.17
734.85	245.12
735.18	244.91
735.51	244.82
735.84	244.68
736.17	244.59
736.50	244.35
736.83	244.40
737.16	244.25
737.49	244.11
737.82	243.93
738.15	243.80
738.48	243.64
738.81	243.45
739.14	243.28
739.47	243.09
739.80	242.92
740.13	242.79
740.46	242.60
740.79	242.40
741.12	242.25
741.45	242.07
741.78	241.83
742.11	241.74
742.44	241.55
742.77	241.42
743.10	241.24
743.43	241.09
743.75	240.74
744.08	240.85
744.41	240.70
744.74	240.56
745.07	240.38
745.40	240.25
745.73	240.20
746.06	240.08
746.39	239.98
746.71	239.84
747.04	239.70
747.37	239.56
747.70	239.47
748.03	239.35
748.36	239.26
748.68	239.13
749.01	238.97
749.34	238.85
749.67	238.72
750.00	238.61
750.33	238.62
750.65	238.53
750.98	238.16
751.31	238.04
751.64	237.96
751.97	237.95
752.29	237.84
752.62	237.64
752.95	237.51
753.28	237.38
753.60	237.28
753.93	237.20
754.26	237.11
754.59	236.95
754.91	236.81
755.24	236.69
755.57	236.59
755.90	236.49
756.22	236.36
756.55	236.24
756.88	236.11
757.20	235.90
757.53	235.75
757.86	235.66
758.19	235.61
758.51	235.51
758.84	235.31
759.17	235.18
759.49	235.10
759.82	235.12
760.15	235.03
760.47	234.94
760.80	234.82
761.13	234.76
761.45	234.69
761.78	234.61
762.11	234.53
762.43	234.44
762.76	234.34
763.08	234.28
763.41	234.20
763.74	234.15
764.06	234.07
764.39	234.00
764.71	233.92
765.04	233.81
765.37	233.70
765.69	233.63
766.02	233.58
766.34	233.50
766.67	233.35
767.00	233.33
767.32	233.37
767.65	233.44
767.97	233.37
768.30	233.30
768.62	233.24
768.95	233.17
769.27	233.10
769.60	233.06
769.92	232.97
770.25	232.88
770.57	232.79
770.90	232.75
771.22	232.67
771.55	232.61
771.87	232.57
772.20	232.53
772.52	232.64
772.85	232.79
773.17	232.74
773.50	232.68
773.82	232.59
774.15	232.43
774.47	232.25
774.80	232.17
775.12	232.12
775.45	232.06
775.77	232.02
776.09	231.99
776.42	231.94
776.74	231.97
777.07	231.93
777.39	231.90
777.72	231.83
778.04	231.81
778.36	231.77
778.69	231.73
779.01	231.69
779.33	231.51
779.66	231.28
779.98	231.23
780.31	231.21
780.63	231.25
780.95	231.25
781.28	231.22
781.60	231.16
781.92	231.13
782.25	231.10
782.57	231.06
782.89	231.02
783.22	230.97
783.54	230.89
783.86	230.87
784.19	230.81
784.51	230.81
784.83	230.77
785.16	230.72
785.48	230.70
785.80	230.68
786.12	230.65
786.45	230.60
786.77	230.59
787.09	230.54
787.42	230.45
787.74	230.43
788.06	230.39
788.38	230.36
788.71	230.33
789.03	230.32
789.35	230.31
789.67	230.27
789.99	230.26
790.32	230.22
790.64	230.23
790.96	230.37
791.28	230.29
791.61	230.25
791.93	230.23
792.25	230.19
792.57	230.30
792.89	230.24
793.21	230.23
793.54	230.19
793.86	230.14
794.18	230.13
794.50	230.06
794.82	230.05
795.14	230.06
795.47	230.06
795.79	230.03
796.11	229.97
796.43	229.95
796.75	229.92
797.07	229.88
797.39	229.85
797.71	229.67
798.04	229.67
798.36	229.68
798.68	229.66
799.00	229.64
799.32	229.52
799.64	229.54
799.96	229.52
800.28	229.54
800.60	229.53
800.92	229.51
801.24	229.49
801.56	229.46
801.89	229.41
802.21	229.40
802.53	229.36
802.85	229.38
803.17	229.45
803.49	229.41
803.81	229.38
804.13	229.34
804.45	229.32
804.77	229.31
805.09	229.29
805.41	229.27
805.73	229.24
806.05	229.18
806.37	229.14
806.69	229.12
807.01	229.07
807.33	229.08
807.65	229.00
807.97	229.07
808.28	229.06
808.60	229.04
808.92	229.01
809.24	229.10
809.56	229.04
809.88	228.95
810.20	228.94
810.52	228.97
810.84	228.93
811.16	228.90
811.48	228.88
811.80	228.93
812.12	228.92
812.43	228.94
812.75	228.93
813.07	228.91
813.39	228.91
813.71	228.88
814.03	228.85
814.35	228.87
814.67	228.78
814.98	228.77
815.30	228.75
815.62	228.73
815.94	228.62
816.26	228.64
816.58	228.60
816.89	228.60
817.21	228.55
817.53	228.56
817.85	228.55
818.17	228.53
818.48	228.43
818.80	228.45
819.12	228.41
819.44	228.37
819.76	228.33
820.07	228.32
820.39	228.32
820.71	228.32
821.03	228.30
821.34	228.28
821.66	228.30
821.98	228.32
822.30	228.31
822.61	228.41
822.93	228.39
823.25	228.37
823.57	228.35
823.88	228.38
824.20	228.37
824.52	228.39
824.83	228.38
825.15	228.36
825.47	228.36
825.79	228.36
826.10	228.35
826.42	228.33
826.74	228.33
827.05	228.32
827.37	228.30
827.69	228.29
828.00	228.29
828.32	228.26
828.64	228.23
828.95	228.32
829.27	228.25
829.58	228.24
829.90	228.27
830.22	228.26
830.53	228.21
830.85	228.19
831.17	228.14
831.48	228.14
831.80	228.14
832.11	228.10
832.43	228.09
832.75	228.09
833.06	228.20
833.38	228.13
833.69	228.12
834.01	228.12
834.32	228.11
834.64	228.07
834.96	228.08
835.27	228.06
835.59	227.99
835.90	227.95
836.22	227.94
836.53	227.91
836.85	227.90
837.16	228.07
837.48	228.06
837.79	228.13
838.11	228.13
838.42	228.12
838.74	228.15
839.05	228.11
839.37	228.10
839.68	227.98
840.00	228.00
840.31	228.03
840.63	228.01
840.94	227.99
841.26	227.98
841.57	227.96
841.88	227.97
842.20	227.92
842.51	227.91
842.83	227.90
843.14	228.05
843.46	228.04
843.77	227.94
844.08	227.93
844.40	227.85
844.71	227.83
845.03	227.83
845.34	227.80
845.65	227.81
845.97	227.82
846.28	227.82
846.60	227.84
846.91	227.80
847.22	227.80
847.54	227.83
847.85	227.85
848.16	227.83
848.48	227.81
848.79	227.88
849.10	227.90
849.42	227.89
849.73	227.71
850.04	227.70
850.36	227.62
850.67	227.65
850.98	227.65
851.30	227.66
851.61	227.66
851.92	227.64
852.23	227.69
852.55	227.70
852.86	227.70
853.17	227.72
853.49	227.74
853.80	227.77
854.11	227.77
854.42	227.78
854.74	227.76
855.05	227.77
855.36	227.68
855.67	227.69
855.99	227.69
856.30	227.90
856.61	227.91
856.92	227.91
857.23	227.90
857.55	227.89
857.86	227.87
858.17	227.87
858.48	227.85
858.79	227.79
859.11	227.80
859.42	227.79
859.73	227.75
860.04	227.73
860.35	227.68
860.66	227.63
860.98	227.63
861.29	227.65
861.60	227.62
861.91	227.66
862.22	227.63
862.53	227.61
862.84	227.41
863.16	227.45
863.47	227.43
863.78	227.42
864.09	227.42
864.40	227.42
864.71	227.42
865.02	227.44
865.33	227.43
865.64	227.39
865.95	227.38
866.27	227.48
866.58	227.46
866.89	227.47
867.20	227.46
867.51	227.42
867.82	227.41
868.13	227.46
868.44	227.41
868.75	227.44
869.06	227.44
869.37	227.47
869.68	227.41
869.99	227.43
870.30	227.46
870.61	227.49
870.92	227.46
871.23	227.44
871.54	227.47
871.85	227.52
872.16	227.53
872.47	227.51
872.78	227.41
873.09	227.43
873.40	227.41
873.71	227.43
874.02	227.44
874.33	227.44
874.64	227.39
874.95	227.42
875.26	227.38
875.56	227.38
875.87	227.35
876.18	227.35
876.49	227.53
876.80	227.51
877.11	227.46
877.42	227.49
877.73	227.50
878.04	227.46
878.35	227.45
878.66	227.47
878.96	227.48
879.27	227.47
879.58	227.47
879.89	227.45
880.20	227.50
880.51	227.50
880.82	227.51
881.12	227.52
881.43	227.48
881.74	227.45
882.05	227.44
882.36	227.45
882.67	227.46
882.97	227.27
883.28	227.23
883.59	227.22
883.90	227.22
884.21	227.23
884.51	227.23
884.82	227.20
885.13	227.19
885.44	227.19
885.74	227.20
886.05	227.19
886.36	227.22
886.67	227.15
886.98	227.24
887.28	227.24
887.59	227.23
887.90	227.23
888.20	227.24
888.51	227.26
888.82	227.23
889.13	227.23
889.43	227.40
889.74	227.40
890.05	227.39
890.35	227.37
890.66	227.34
890.97	227.31
891.28	227.31
891.58	227.33
891.89	227.31
892.20	227.29
892.50	227.28
892.81	227.26
893.12	227.27
893.42	227.19
893.73	227.20
894.04	227.19
894.34	227.20
894.65	227.21
894.95	227.20
895.26	227.19
895.57	227.29
895.87	227.09
896.18	227.13
896.48	227.16
896.79	227.17
897.10	227.19
897.40	227.20
897.71	227.21
898.01	227.18
898.32	227.20
898.63	227.20
898.93	227.22
899.24	227.23
899.54	227.20
899.85	227.20
900.15	227.19
900.46	227.18
900.76	227.21
901.07	227.20
901.38	227.20
901.68	227.23
901.99	227.12
902.29	227.15
902.60	227.13
902.90	227.11
903.21	227.10
903.51	227.09
903.82	227.13
904.12	227.14
904.43	227.15
904.73	227.13
905.03	227.13
905.34	227.30
905.64	227.28
905.95	227.31
906.25	227.30
906.56	227.30
906.86	227.31
907.17	227.28
907.47	227.31
907.77	227.29
908.08	227.25
908.38	227.26
908.69	227.28
908.99	227.31
909.30	227.33
909.60	227.33
909.90	227.33
910.21	227.27
910.51	227.23
910.81	227.26
911.12	227.27
911.42	227.28
911.73	227.09
912.03	227.10
912.33	227.13
912.64	227.12
912.94	227.11
913.24	227.07
913.55	227.07
913.85	227.06
914.15	227.09
914.46	227.13
914.76	227.10
915.06	227.09
915.37	227.05
915.67	227.03
915.97	227.04
916.27	227.00
916.58	227.01
916.88	227.01
917.18	226.98
917.49	227.10
917.79	227.10
918.09	227.12
918.39	227.17
918.70	227.14
919.00	227.15
919.30	227.23
919.60	227.22
919.91	227.19
920.21	227.18
920.51	227.15
920.81	227.12
921.12	227.17
921.42	227.17
921.72	227.18
922.02	227.20
922.32	227.22
922.63	227.23
922.93	227.34
923.23	227.35
923.53	227.33
923.83	227.20
924.13	227.21
924.44	227.22
924.74	227.22
925.04	227.26
925.34	227.26
925.64	227.19
925.94	227.19
926.24	227.31
926.55	227.29
926.85	227.31
927.15	227.30
927.45	227.28
927.75	227.26
928.05	227.25
928.35	227.23
928.65	227.26
928.95	227.26
929.26	227.18
929.56	227.21
929.86	227.22
930.16	227.22
930.46	227.19
930.76	227.18
931.06	227.10
931.36	227.04
931.66	227.08
931.96	227.08
932.26	227.11
932.56	227.03
932.86	227.04
933.16	227.05
933.46	227.03
933.76	227.01
934.06	227.04
934.36	227.09
934.66	227.10
934.96	227.08
935.26	227.09
935.56	227.12
935.86	227.06
936.16	227.05
936.46	227.03
936.76	227.00
937.06	226.98
937.36	227.01
937.66	227.03
937.96	227.01
938.26	226.99
938.56	226.97
938.86	226.98
939.16	227.01
939.46	227.00
939.76	227.04
940.06	227.04
940.35	227.02
940.65	226.94
940.95	226.95
941.25	226.90
941.55	226.87
941.85	226.84
942.15	226.90
942.45	226.94
942.75	226.96
943.04	226.99
943.34	227.03
943.64	227.01
943.94	226.99
944.24	226.98
944.54	226.99
944.84	226.98
945.13	226.97
945.43	226.93
945.73	226.95
946.03	226.92
946.33	226.91
946.62	226.90
946.92	226.90
947.22	226.91
947.52	226.93
947.82	226.96
948.11	226.95
948.41	226.93
948.71	226.88
949.01	226.85
949.31	226.85
949.60	226.81
949.90	226.82
950.20	226.82
950.50	226.81
950.79	226.80
951.09	226.83
951.39	226.82
951.69	226.79
951.98	226.81
952.28	226.81
952.58	226.81
952.87	226.81
953.17	226.85
953.47	226.81
953.76	226.80
954.06	226.78
954.36	226.74
954.66	226.74
954.95	226.79
955.25	226.82
955.55	226.82
955.84	226.80
956.14	226.83
956.44	226.83
956.73	226.80
957.03	226.81
957.32	226.80
957.62	226.80
957.92	226.86
958.21	226.82
958.51	227.03
958.81	227.05
959.10	227.07
959.40	227.09
959.69	227.10
959.99	227.14
960.29	227.14
960.58	227.14
960.88	227.19
961.17	227.17
961.47	227.17
961.76	227.16
962.06	227.18
962.36	227.15
962.65	227.15
962.95	227.19
963.24	227.17
963.54	227.17
963.83	227.17
964.13	227.15
964.42	227.14
964.72	226.99
965.01	226.99
965.31	226.97
965.60	226.93
965.90	227.04
966.19	226.98
966.49	227.00
966.78	226.99
967.08	226.97
967.37	226.96
967.67	226.93
967.96	226.95
968.26	226.96
968.55	226.99
968.85	226.99
969.14	226.98
969.43	226.98
969.73	226.99
970.02	226.99
970.32	226.97
970.61	226.94
970.91	226.90
971.20	226.87
971.49	226.87
971.79	226.91
972.08	226.78
972.38	226.80
972.67	226.78
972.96	226.81
973.26	226.79
973.55	226.85
973.85	226.84
974.14	226.81
974.43	226.82
974.73	226.79
975.02	226.77
975.31	226.79
975.61	226.79
975.90	226.76
976.19	226.75
976.49	226.77
976.78	226.79
977.07	226.78
977.37	226.82
977.66	226.84
977.95	226.80
978.24	226.82
978.54	226.88
978.83	226.88
979.12	226.85
979.42	226.86
979.71	226.81
980.00	226.82
980.29	226.85
980.59	226.82
980.88	226.87
981.17	226.87
981.46	226.88
981.76	226.86
982.05	226.91
982.34	226.94
982.63	226.94
982.93	226.94
983.22	226.98
983.51	226.98
983.80	227.00
984.09	227.03
984.39	227.03
984.68	226.99
984.97	227.00
985.26	227.01
985.55	227.02
985.85	226.97
986.14	226.99
986.43	227.00
986.72	226.99
987.01	226.93
987.30	226.96
987.59	226.93
987.89	226.95
988.18	226.91
988.47	226.90
988.76	226.88
989.05	226.88
989.34	226.87
989.63	226.91
989.92	226.88
990.22	226.85
990.51	226.85
990.80	226.84
991.09	226.85
991.38	226.87
991.67	226.85
991.96	226.86
992.25	226.87
992.54	226.84
992.83	226.84
993.12	226.84
993.41	226.83
993.70	226.89
993.99	226.92
994.28	226.92
994.58	226.93
994.87	226.91
995.16	226.88
995.45	226.86
995.74	226.79
996.03	226.82
996.32	226.84
996.61	226.87
996.90	226.87
997.19	226.86
997.48	226.87
997.77	226.85
998.06	226.87
998.34	226.85
998.63	226.86
998.92	226.86
999.21	226.89
999.50	226.90
999.79	226.86
1000.08	226.85
1000.37	226.86
1000.66	226.83
1000.95	226.89
1001.24	226.90
1001.53	226.93
1001.82	226.92
1002.11	226.87
1002.40	226.88
1002.68	226.89
1002.97	227.02
1003.26	226.99
1003.55	226.95
1003.84	226.96
1004.13	227.01
1004.42	227.00
1004.71	227.01
1004.99	226.98
1005.28	227.03
1005.57	227.02
1005.86	227.00
1006.15	226.98
1006.44	226.95
1006.72	227.00
1007.01	226.97
1007.30	226.96
1007.59	226.95
1007.88	226.94
1008.17	226.96
1008.45	226.93
1008.74	226.88
1009.03	226.79
1009.32	226.80
1009.60	226.81
1009.89	226.81
1010.18	226.73
1010.47	226.72
1010.76	226.70
1011.04	226.70
1011.33	226.68
1011.62	226.68
1011.91	226.69
1012.19	226.71
1012.48	226.71
1012.77	226.69
1013.05	226.74
1013.34	226.76
1013.63	226.76
1013.92	226.78
1014.20	226.77
1014.49	226.77
1014.78	226.79
1015.06	226.73
1015.35	226.74
1015.64	226.77
1015.92	226.80
1016.21	226.82
1016.50	226.84
1016.78	226.86
1017.07	226.88
1017.36	226.85
1017.64	226.84
1017.93	226.85
1018.22	226.82
1018.50	226.83
1018.79	226.85
1019.08	226.78
1019.36	226.78
1019.65	226.75
1019.93	226.80
1020.22	226.82
1020.51	226.91
1020.79	226.89
1021.08	226.52
1021.36	226.61
1021.65	227.23
1021.94	226.65
1022.22	226.82
1022.51	226.34
1022.79	227.64
1023.08	226.99
1023.36	228.90
1023.65	226.37
>>>>>End Processed Spectral Data<<<<<
