SpectraSuite Data File
++++++++++++++++++++++++++++++++++++
Date: Tue Oct 06 17:00:10 EDT 2015
User: lab3
Dark Spectrum Present: No
Reference Spectrum Present: No
Number of Sampled Component Spectra: 1
Spectrometers: USB2E7196
Integration Time (usec): 66000 (USB2E7196)
Spectra Averaged: 1000 (USB2E7196)
Boxcar Smoothing: 10 (USB2E7196)
Correct for Electrical Dark: No (USB2E7196)
Strobe/Lamp Enabled: No (USB2E7196)
Correct for Detector Non-linearity: No (USB2E7196)
Correct for Stray Light: No (USB2E7196)
Number of Pixels in Processed Spectrum: 2048
>>>>>Begin Processed Spectral Data<<<<<
339.09	0.00
339.48	215.12
339.86	216.72
340.24	218.11
340.63	219.64
341.01	223.38
341.39	222.27
341.78	223.51
342.16	225.10
342.54	225.21
342.93	213.71
343.31	224.51
343.69	225.06
344.07	225.52
344.46	225.96
344.84	226.35
345.22	226.55
345.60	226.83
345.99	227.03
346.37	227.18
346.75	227.29
347.13	227.38
347.52	227.47
347.90	227.59
348.28	227.63
348.66	227.72
349.05	227.70
349.43	227.77
349.81	227.85
350.19	227.92
350.57	228.00
350.96	228.11
351.34	228.22
351.72	228.32
352.10	228.44
352.48	228.52
352.87	228.57
353.25	228.63
353.63	228.69
354.01	228.75
354.39	228.83
354.77	228.92
355.15	229.03
355.54	229.08
355.92	229.09
356.30	229.16
356.68	229.34
357.06	229.43
357.44	229.46
357.82	229.52
358.20	229.74
358.58	229.80
358.97	229.86
359.35	229.95
359.73	230.04
360.11	230.10
360.49	230.15
360.87	230.21
361.25	230.29
361.63	230.39
362.01	230.47
362.39	230.50
362.77	230.56
363.15	230.58
363.53	230.62
363.91	230.67
364.29	230.71
364.67	230.57
365.05	230.59
365.43	230.63
365.81	230.67
366.19	230.61
366.57	230.69
366.95	230.70
367.33	230.67
367.71	230.67
368.09	230.70
368.47	230.69
368.85	230.68
369.23	230.71
369.61	230.65
369.99	230.68
370.37	230.68
370.75	230.80
371.13	230.76
371.51	230.72
371.89	230.71
372.27	230.70
372.65	230.68
373.03	230.65
373.41	230.61
373.78	230.56
374.16	230.43
374.54	230.33
374.92	230.28
375.30	230.25
375.68	230.17
376.06	230.12
376.44	230.07
376.82	230.05
377.19	229.99
377.57	229.94
377.95	229.83
378.33	229.77
378.71	229.56
379.09	229.52
379.47	229.50
379.84	229.42
380.22	229.35
380.60	229.29
380.98	229.24
381.36	229.19
381.73	229.12
382.11	229.12
382.49	229.09
382.87	229.03
383.25	228.98
383.62	229.15
384.00	229.07
384.38	229.04
384.76	229.02
385.13	229.03
385.51	228.98
385.89	228.93
386.27	228.90
386.64	228.89
387.02	228.83
387.40	228.78
387.78	228.78
388.15	228.76
388.53	228.71
388.91	228.68
389.29	228.66
389.66	228.66
390.04	228.61
390.42	228.61
390.79	228.61
391.17	228.58
391.55	228.38
391.92	228.38
392.30	228.39
392.68	228.36
393.05	228.34
393.43	228.37
393.81	228.39
394.18	228.36
394.56	228.36
394.94	228.41
395.31	228.42
395.69	228.49
396.06	228.53
396.44	228.58
396.82	228.60
397.19	228.73
397.57	228.75
397.95	228.83
398.32	228.82
398.70	228.89
399.07	229.00
399.45	229.06
399.82	229.13
400.20	229.19
400.58	229.28
400.95	229.29
401.33	229.41
401.70	229.64
402.08	229.79
402.45	229.93
402.83	230.12
403.20	230.27
403.58	230.41
403.95	230.62
404.33	230.85
404.71	231.05
405.08	231.36
405.46	231.61
405.83	231.88
406.21	232.18
406.58	232.50
406.96	232.82
407.33	233.19
407.70	233.61
408.08	234.18
408.45	234.69
408.83	235.24
409.20	235.74
409.58	236.19
409.95	236.81
410.33	237.48
410.70	238.12
411.08	238.88
411.45	239.68
411.82	240.49
412.20	241.42
412.57	242.53
412.95	243.42
413.32	244.57
413.69	245.76
414.07	247.03
414.44	248.40
414.82	249.80
415.19	251.45
415.56	253.11
415.94	254.85
416.31	256.81
416.68	258.77
417.06	261.05
417.43	263.19
417.81	265.64
418.18	268.14
418.55	270.87
418.93	273.72
419.30	276.71
419.67	279.87
420.04	283.12
420.42	286.53
420.79	290.44
421.16	294.41
421.54	298.39
421.91	302.57
422.28	306.93
422.66	311.60
423.03	316.07
423.40	320.75
423.77	325.76
424.15	330.88
424.52	336.19
424.89	341.94
425.26	347.65
425.64	352.95
426.01	358.91
426.38	364.98
426.75	371.23
427.13	377.65
427.50	384.36
427.87	391.31
428.24	398.31
428.61	405.04
428.99	412.28
429.36	420.25
429.73	427.85
430.10	435.43
430.47	443.20
430.85	451.21
431.22	459.75
431.59	468.51
431.96	477.08
432.33	486.60
432.70	495.64
433.08	506.37
433.45	516.46
433.82	526.46
434.19	537.66
434.56	548.67
434.93	559.34
435.30	569.93
435.68	581.96
436.05	593.70
436.42	605.49
436.79	616.26
437.16	627.93
437.53	640.43
437.90	652.93
438.27	665.21
438.64	678.46
439.01	690.49
439.38	701.53
439.75	712.22
440.13	724.38
440.50	735.96
440.87	745.20
441.24	755.37
441.61	766.48
441.98	774.71
442.35	784.51
442.72	794.42
443.09	803.86
443.46	810.01
443.83	814.70
444.20	818.55
444.57	824.15
444.94	827.47
445.31	830.89
445.68	833.81
446.05	836.01
446.42	835.70
446.79	835.10
447.16	834.65
447.53	834.23
447.90	830.62
448.27	827.16
448.64	821.72
449.01	817.98
449.37	810.25
449.74	803.22
450.11	794.14
450.48	784.18
450.85	774.20
451.22	765.59
451.59	757.13
451.96	749.47
452.33	738.41
452.70	728.57
453.07	716.63
453.43	704.77
453.80	693.15
454.17	682.01
454.54	671.76
454.91	660.16
455.28	649.22
455.65	638.91
456.02	627.99
456.38	619.23
456.75	608.00
457.12	598.95
457.49	589.81
457.86	581.13
458.23	573.51
458.59	565.13
458.96	556.53
459.33	548.97
459.70	541.26
460.07	535.37
460.43	528.43
460.80	521.95
461.17	516.30
461.54	510.23
461.91	504.53
462.27	498.74
462.64	494.00
463.01	488.58
463.38	483.11
463.74	478.21
464.11	473.84
464.48	469.90
464.85	465.63
465.21	462.37
465.58	458.75
465.95	454.64
466.32	451.35
466.68	448.15
467.05	444.91
467.42	441.76
467.78	438.40
468.15	435.30
468.52	433.03
468.88	430.01
469.25	427.28
469.62	425.11
469.98	422.75
470.35	420.63
470.72	418.75
471.08	416.81
471.45	415.17
471.82	413.34
472.18	411.44
472.55	410.21
472.92	408.67
473.28	407.49
473.65	406.22
474.02	404.99
474.38	403.95
474.75	403.34
475.11	402.53
475.48	402.17
475.85	401.76
476.21	401.51
476.58	401.35
476.94	401.52
477.31	401.57
477.67	401.65
478.04	401.97
478.41	402.40
478.77	403.03
479.14	403.42
479.50	404.22
479.87	405.23
480.23	406.22
480.60	407.18
480.96	408.14
481.33	409.59
481.69	411.04
482.06	412.46
482.42	413.74
482.79	415.35
483.15	417.22
483.52	419.35
483.88	421.38
484.25	423.54
484.61	425.79
484.98	428.22
485.34	430.96
485.71	433.83
486.07	436.91
486.44	439.92
486.80	443.33
487.17	446.80
487.53	450.57
487.90	454.52
488.26	458.86
488.62	463.38
488.99	467.90
489.35	472.66
489.72	477.75
490.08	483.15
490.44	488.63
490.81	494.32
491.17	500.22
491.54	506.53
491.90	513.00
492.26	519.89
492.63	527.11
492.99	534.67
493.36	542.35
493.72	550.43
494.08	558.71
494.45	567.39
494.81	576.48
495.17	585.80
495.54	595.63
495.90	605.86
496.26	616.29
496.63	627.04
496.99	638.17
497.35	649.85
497.72	661.77
498.08	674.01
498.44	686.56
498.80	699.80
499.17	713.36
499.53	727.32
499.89	741.75
500.26	756.34
500.62	771.26
500.98	787.03
501.34	802.84
501.71	819.46
502.07	836.30
502.43	853.61
502.79	871.13
503.16	889.15
503.52	907.33
503.88	925.96
504.24	944.98
504.60	964.25
504.97	984.13
505.33	1004.45
505.69	1025.83
506.05	1047.38
506.41	1068.82
506.78	1090.35
507.14	1112.47
507.50	1135.01
507.86	1157.92
508.22	1181.04
508.59	1204.00
508.95	1227.98
509.31	1252.38
509.67	1277.45
510.03	1302.43
510.39	1327.30
510.75	1352.22
511.12	1377.44
511.48	1402.78
511.84	1428.12
512.20	1453.74
512.56	1480.32
512.92	1506.78
513.28	1532.62
513.64	1558.80
514.00	1585.31
514.37	1612.06
514.73	1638.78
515.09	1664.80
515.45	1691.13
515.81	1717.58
516.17	1743.76
516.53	1769.21
516.89	1794.48
517.25	1820.00
517.61	1845.26
517.97	1871.13
518.33	1896.35
518.69	1921.49
519.05	1947.01
519.41	1972.60
519.77	1998.11
520.13	2022.12
520.49	2046.21
520.85	2070.57
521.21	2094.39
521.57	2118.43
521.93	2141.43
522.29	2165.08
522.65	2188.46
523.01	2211.54
523.37	2233.99
523.73	2257.02
524.09	2279.79
524.45	2302.21
524.81	2323.85
525.17	2345.32
525.53	2366.04
525.89	2387.12
526.25	2407.78
526.61	2426.88
526.97	2445.98
527.33	2464.92
527.68	2483.54
528.04	2501.70
528.40	2518.63
528.76	2535.71
529.12	2552.33
529.48	2569.51
529.84	2584.00
530.20	2598.88
530.56	2612.92
530.91	2627.05
531.27	2640.64
531.63	2653.31
531.99	2665.62
532.35	2677.76
532.71	2689.38
533.07	2701.30
533.42	2711.33
533.78	2721.60
534.14	2732.73
534.50	2742.73
534.86	2753.28
535.21	2761.85
535.57	2770.14
535.93	2778.32
536.29	2784.84
536.65	2791.09
537.00	2795.94
537.36	2802.04
537.72	2807.27
538.08	2811.92
538.44	2815.45
538.79	2818.83
539.15	2820.87
539.51	2822.28
539.87	2822.46
540.22	2821.11
540.58	2819.99
540.94	2819.76
541.29	2818.38
541.65	2815.72
542.01	2812.68
542.37	2807.98
542.72	2804.83
543.08	2800.17
543.44	2795.63
543.79	2790.60
544.15	2784.96
544.51	2779.47
544.87	2772.94
545.22	2765.56
545.58	2758.07
545.94	2750.80
546.29	2742.10
546.65	2733.63
547.01	2725.26
547.36	2717.35
547.72	2709.65
548.07	2700.31
548.43	2689.86
548.79	2679.16
549.14	2668.81
549.50	2658.62
549.86	2647.60
550.21	2635.04
550.57	2623.58
550.92	2610.43
551.28	2597.79
551.64	2585.36
551.99	2572.74
552.35	2559.81
552.70	2546.62
553.06	2533.90
553.41	2520.84
553.77	2507.44
554.13	2494.16
554.48	2479.87
554.84	2464.77
555.19	2450.25
555.55	2435.66
555.90	2421.53
556.26	2407.69
556.61	2392.84
556.97	2377.01
557.32	2361.68
557.68	2346.60
558.03	2331.25
558.39	2316.85
558.74	2303.06
559.10	2287.53
559.45	2272.23
559.81	2257.56
560.16	2242.69
560.52	2227.58
560.87	2212.60
561.23	2197.33
561.58	2182.60
561.94	2167.47
562.29	2151.94
562.64	2136.52
563.00	2121.34
563.35	2106.28
563.71	2090.88
564.06	2075.58
564.42	2060.82
564.77	2046.15
565.12	2031.28
565.48	2016.21
565.83	2001.37
566.19	1986.48
566.54	1971.91
566.89	1956.75
567.25	1941.57
567.60	1927.17
567.96	1912.10
568.31	1895.92
568.66	1880.61
569.02	1865.79
569.37	1851.53
569.72	1837.89
570.08	1823.83
570.43	1809.11
570.78	1794.33
571.14	1779.37
571.49	1764.49
571.84	1749.95
572.20	1734.30
572.55	1719.40
572.90	1704.59
573.26	1689.79
573.61	1674.37
573.96	1659.50
574.31	1644.56
574.67	1629.41
575.02	1614.01
575.37	1598.70
575.72	1584.06
576.08	1569.29
576.43	1553.94
576.78	1538.73
577.13	1523.70
577.49	1508.89
577.84	1494.60
578.19	1479.81
578.54	1465.11
578.90	1450.41
579.25	1435.55
579.60	1421.85
579.95	1407.83
580.30	1393.80
580.66	1379.55
581.01	1365.41
581.36	1351.32
581.71	1337.96
582.06	1324.63
582.42	1311.15
582.77	1298.13
583.12	1285.34
583.47	1272.46
583.82	1259.75
584.17	1246.67
584.53	1233.69
584.88	1221.03
585.23	1208.18
585.58	1195.71
585.93	1183.22
586.28	1171.59
586.63	1159.83
586.98	1147.72
587.34	1136.01
587.69	1124.08
588.04	1112.48
588.39	1101.19
588.74	1089.57
589.09	1078.07
589.44	1066.33
589.79	1055.13
590.14	1043.96
590.49	1032.89
590.84	1022.04
591.19	1011.49
591.54	1001.05
591.89	990.24
592.25	979.70
592.60	969.09
592.95	958.66
593.30	948.49
593.65	938.11
594.00	927.99
594.35	918.69
594.70	908.79
595.05	899.47
595.40	889.96
595.75	880.30
596.10	871.22
596.45	862.15
596.80	853.39
597.15	844.65
597.50	835.96
597.85	827.47
598.19	818.97
598.54	810.43
598.89	802.36
599.24	794.69
599.59	786.84
599.94	779.58
600.29	772.32
600.64	764.95
600.99	757.46
601.34	750.21
601.69	742.48
602.04	735.59
602.39	728.57
602.74	721.76
603.08	715.09
603.43	708.40
603.78	701.68
604.13	695.04
604.48	688.44
604.83	682.02
605.18	675.70
605.53	669.52
605.87	663.34
606.22	657.25
606.57	651.11
606.92	644.91
607.27	638.72
607.62	632.73
607.96	626.98
608.31	621.62
608.66	616.21
609.01	611.04
609.36	605.80
609.70	600.57
610.05	595.35
610.40	590.29
610.75	585.22
611.10	580.35
611.44	575.50
611.79	570.78
612.14	565.96
612.49	561.20
612.83	556.71
613.18	552.26
613.53	547.82
613.88	543.49
614.22	539.48
614.57	535.39
614.92	531.38
615.27	527.50
615.61	523.53
615.96	519.59
616.31	515.65
616.65	511.87
617.00	508.19
617.35	504.55
617.70	500.91
618.04	497.36
618.39	493.93
618.74	490.71
619.08	487.45
619.43	484.32
619.78	481.13
620.12	477.93
620.47	474.92
620.82	471.99
621.16	469.05
621.51	466.19
621.85	463.33
622.20	460.54
622.55	457.71
622.89	454.94
623.24	452.34
623.59	449.79
623.93	447.30
624.28	444.93
624.62	442.76
624.97	440.63
625.32	438.38
625.66	436.11
626.01	433.78
626.35	431.60
626.70	429.36
627.04	427.29
627.39	425.20
627.73	423.21
628.08	421.24
628.43	419.27
628.77	417.22
629.12	415.31
629.46	413.47
629.81	411.79
630.15	410.01
630.50	408.23
630.84	406.49
631.19	404.80
631.53	403.18
631.88	401.36
632.22	399.66
632.57	398.21
632.91	396.73
633.26	395.34
633.60	393.95
633.95	392.63
634.29	391.20
634.64	389.82
634.98	388.31
635.32	386.98
635.67	385.79
636.01	384.59
636.36	383.41
636.70	382.33
637.05	381.08
637.39	379.96
637.73	378.85
638.08	377.79
638.42	376.79
638.77	375.65
639.11	374.48
639.45	373.34
639.80	372.15
640.14	371.05
640.49	369.93
640.83	368.81
641.17	367.73
641.52	366.70
641.86	365.68
642.20	364.82
642.55	363.77
642.89	362.72
643.23	361.74
643.58	360.88
643.92	359.84
644.26	358.90
644.61	358.02
644.95	357.09
645.29	356.10
645.64	355.07
645.98	354.15
646.32	353.37
646.66	352.51
647.01	351.69
647.35	350.93
647.69	350.13
648.04	349.42
648.38	348.63
648.72	347.87
649.06	347.13
649.41	346.31
649.75	345.56
650.09	344.85
650.43	344.10
650.78	343.31
651.12	342.60
651.46	341.88
651.80	341.17
652.14	340.49
652.49	339.89
652.83	339.23
653.17	338.52
653.51	337.84
653.85	337.25
654.20	336.61
654.54	335.88
654.88	335.19
655.22	334.54
655.56	333.87
655.90	333.24
656.25	332.60
656.59	331.98
656.93	331.40
657.27	330.85
657.61	330.25
657.95	329.71
658.29	329.13
658.64	328.57
658.98	327.98
659.32	327.40
659.66	326.83
660.00	326.31
660.34	325.79
660.68	325.23
661.02	324.60
661.36	324.02
661.70	323.48
662.05	322.95
662.39	322.41
662.73	321.97
663.07	321.55
663.41	321.09
663.75	320.58
664.09	320.08
664.43	319.47
664.77	318.96
665.11	318.37
665.45	317.85
665.79	317.37
666.13	316.83
666.47	316.30
666.81	315.73
667.15	315.13
667.49	314.65
667.83	314.22
668.17	313.78
668.51	313.35
668.85	312.94
669.19	312.59
669.53	312.06
669.87	311.52
670.21	310.98
670.55	310.46
670.89	310.07
671.23	309.63
671.57	309.24
671.91	308.88
672.25	308.54
672.58	308.20
672.92	307.75
673.26	307.41
673.60	307.04
673.94	306.67
674.28	306.34
674.62	305.96
674.96	305.52
675.30	305.13
675.64	304.70
675.97	304.24
676.31	303.76
676.65	303.36
676.99	303.03
677.33	302.60
677.67	302.22
678.01	301.74
678.34	301.33
678.68	300.92
679.02	300.48
679.36	300.04
679.70	299.59
680.04	299.21
680.37	298.80
680.71	298.41
681.05	298.06
681.39	297.62
681.73	297.15
682.06	296.73
682.40	296.33
682.74	295.95
683.08	295.65
683.42	295.26
683.75	294.91
684.09	294.44
684.43	294.03
684.77	293.62
685.10	293.24
685.44	292.84
685.78	292.43
686.12	292.04
686.45	291.62
686.79	291.19
687.13	290.78
687.46	290.31
687.80	289.91
688.14	289.43
688.48	289.02
688.81	288.61
689.15	288.27
689.49	287.84
689.82	287.42
690.16	286.90
690.50	286.46
690.83	286.02
691.17	285.58
691.51	285.18
691.84	284.80
692.18	284.37
692.52	283.90
692.85	283.49
693.19	283.12
693.52	282.70
693.86	282.27
694.20	281.86
694.53	281.45
694.87	280.99
695.21	280.56
695.54	280.15
695.88	279.71
696.21	279.23
696.55	278.81
696.88	278.37
697.22	277.95
697.56	277.57
697.89	277.11
698.23	276.71
698.56	276.26
698.90	275.86
699.23	275.43
699.57	275.05
699.90	274.63
700.24	274.20
700.58	273.82
700.91	273.49
701.25	273.26
701.58	272.97
701.92	272.66
702.25	272.30
702.59	271.90
702.92	271.53
703.26	271.13
703.59	270.75
703.93	270.50
704.26	270.15
704.60	269.75
704.93	269.40
705.26	269.02
705.60	268.70
705.93	268.29
706.27	267.99
706.60	267.67
706.94	267.38
707.27	266.98
707.61	266.61
707.94	266.20
708.27	265.66
708.61	265.23
708.94	264.83
709.28	264.46
709.61	264.12
709.94	263.80
710.28	263.50
710.61	263.19
710.95	262.72
711.28	262.50
711.61	262.18
711.95	261.88
712.28	261.55
712.61	261.19
712.95	260.97
713.28	260.70
713.61	260.34
713.95	259.97
714.28	259.67
714.61	259.33
714.95	259.03
715.28	258.72
715.61	258.44
715.95	258.16
716.28	257.87
716.61	257.61
716.95	257.31
717.28	257.00
717.61	256.71
717.94	256.44
718.28	256.04
718.61	255.78
718.94	255.49
719.27	255.22
719.61	255.00
719.94	254.69
720.27	254.35
720.60	254.11
720.94	253.88
721.27	253.65
721.60	253.43
721.93	253.19
722.27	252.99
722.60	252.75
722.93	252.48
723.26	252.26
723.59	251.98
723.93	251.77
724.26	251.57
724.59	251.33
724.92	251.12
725.25	250.96
725.59	250.73
725.92	250.52
726.25	250.31
726.58	250.09
726.91	249.87
727.24	249.68
727.57	249.45
727.91	249.19
728.24	249.01
728.57	248.80
728.90	248.62
729.23	248.36
729.56	248.25
729.89	248.06
730.22	247.85
730.55	247.66
730.89	247.46
731.22	247.25
731.55	247.07
731.88	246.89
732.21	246.66
732.54	246.47
732.87	246.29
733.20	246.14
733.53	245.96
733.86	245.81
734.19	245.61
734.52	245.47
734.85	245.43
735.18	245.24
735.51	245.12
735.84	244.96
736.17	244.86
736.50	244.61
736.83	244.65
737.16	244.50
737.49	244.34
737.82	244.18
738.15	244.04
738.48	243.88
738.81	243.71
739.14	243.54
739.47	243.37
739.80	243.20
740.13	243.06
740.46	242.87
740.79	242.69
741.12	242.54
741.45	242.35
741.78	242.10
742.11	241.99
742.44	241.79
742.77	241.66
743.10	241.47
743.43	241.33
743.75	240.99
744.08	241.11
744.41	240.95
744.74	240.80
745.07	240.62
745.40	240.53
745.73	240.47
746.06	240.36
746.39	240.25
746.71	240.11
747.04	239.96
747.37	239.84
747.70	239.72
748.03	239.60
748.36	239.51
748.68	239.37
749.01	239.21
749.34	239.09
749.67	238.97
750.00	238.88
750.33	238.90
750.65	238.80
750.98	238.42
751.31	238.32
751.64	238.23
751.97	238.23
752.29	238.10
752.62	237.90
752.95	237.78
753.28	237.65
753.60	237.54
753.93	237.47
754.26	237.38
754.59	237.24
754.91	237.12
755.24	236.99
755.57	236.90
755.90	236.79
756.22	236.69
756.55	236.55
756.88	236.41
757.20	236.18
757.53	236.02
757.86	235.93
758.19	235.84
758.51	235.74
758.84	235.56
759.17	235.44
759.49	235.37
759.82	235.36
760.15	235.29
760.47	235.21
760.80	235.08
761.13	235.02
761.45	234.94
761.78	234.87
762.11	234.81
762.43	234.72
762.76	234.64
763.08	234.58
763.41	234.53
763.74	234.47
764.06	234.38
764.39	234.33
764.71	234.25
765.04	234.17
765.37	234.08
765.69	234.00
766.02	233.93
766.34	233.85
766.67	233.71
767.00	233.67
767.32	233.69
767.65	233.74
767.97	233.65
768.30	233.60
768.62	233.53
768.95	233.44
769.27	233.37
769.60	233.33
769.92	233.25
770.25	233.15
770.57	233.08
770.90	233.03
771.22	232.95
771.55	232.91
771.87	232.87
772.20	232.82
772.52	232.93
772.85	233.09
773.17	233.05
773.50	232.99
773.82	232.91
774.15	232.79
774.47	232.62
774.80	232.55
775.12	232.49
775.45	232.45
775.77	232.41
776.09	232.38
776.42	232.33
776.74	232.34
777.07	232.30
777.39	232.25
777.72	232.20
778.04	232.18
778.36	232.12
778.69	232.08
779.01	232.05
779.33	231.85
779.66	231.61
779.98	231.56
780.31	231.54
780.63	231.58
780.95	231.57
781.28	231.54
781.60	231.50
781.92	231.46
782.25	231.42
782.57	231.39
782.89	231.34
783.22	231.30
783.54	231.23
783.86	231.22
784.19	231.18
784.51	231.21
784.83	231.14
785.16	231.11
785.48	231.08
785.80	231.05
786.12	231.04
786.45	231.01
786.77	230.98
787.09	230.94
787.42	230.84
787.74	230.80
788.06	230.77
788.38	230.74
788.71	230.70
789.03	230.68
789.35	230.66
789.67	230.61
789.99	230.59
790.32	230.54
790.64	230.53
790.96	230.68
791.28	230.59
791.61	230.56
791.93	230.54
792.25	230.50
792.57	230.60
792.89	230.55
793.21	230.54
793.54	230.49
793.86	230.44
794.18	230.43
794.50	230.38
794.82	230.36
795.14	230.36
795.47	230.37
795.79	230.36
796.11	230.30
796.43	230.28
796.75	230.25
797.07	230.25
797.39	230.21
797.71	230.03
798.04	230.02
798.36	230.02
798.68	230.00
799.00	229.99
799.32	229.88
799.64	229.89
799.96	229.86
800.28	229.89
800.60	229.87
800.92	229.86
801.24	229.84
801.56	229.84
801.89	229.82
802.21	229.80
802.53	229.75
802.85	229.79
803.17	229.86
803.49	229.81
803.81	229.77
804.13	229.74
804.45	229.70
804.77	229.70
805.09	229.68
805.41	229.65
805.73	229.61
806.05	229.56
806.37	229.52
806.69	229.49
807.01	229.44
807.33	229.44
807.65	229.35
807.97	229.43
808.28	229.38
808.60	229.35
808.92	229.32
809.24	229.41
809.56	229.35
809.88	229.27
810.20	229.28
810.52	229.30
810.84	229.28
811.16	229.25
811.48	229.22
811.80	229.27
812.12	229.26
812.43	229.27
812.75	229.27
813.07	229.24
813.39	229.23
813.71	229.20
814.03	229.18
814.35	229.18
814.67	229.07
814.98	229.05
815.30	229.04
815.62	228.99
815.94	228.87
816.26	228.88
816.58	228.83
816.89	228.83
817.21	228.78
817.53	228.78
817.85	228.78
818.17	228.77
818.48	228.68
818.80	228.70
819.12	228.67
819.44	228.63
819.76	228.60
820.07	228.59
820.39	228.57
820.71	228.57
821.03	228.56
821.34	228.54
821.66	228.56
821.98	228.57
822.30	228.55
822.61	228.66
822.93	228.62
823.25	228.61
823.57	228.57
823.88	228.59
824.20	228.57
824.52	228.59
824.83	228.58
825.15	228.56
825.47	228.52
825.79	228.53
826.10	228.51
826.42	228.50
826.74	228.50
827.05	228.50
827.37	228.50
827.69	228.49
828.00	228.50
828.32	228.47
828.64	228.44
828.95	228.53
829.27	228.47
829.58	228.46
829.90	228.49
830.22	228.49
830.53	228.45
830.85	228.42
831.17	228.36
831.48	228.35
831.80	228.35
832.11	228.33
832.43	228.30
832.75	228.30
833.06	228.41
833.38	228.36
833.69	228.35
834.01	228.35
834.32	228.34
834.64	228.32
834.96	228.31
835.27	228.30
835.59	228.24
835.90	228.22
836.22	228.20
836.53	228.15
836.85	228.13
837.16	228.31
837.48	228.31
837.79	228.37
838.11	228.37
838.42	228.36
838.74	228.38
839.05	228.36
839.37	228.34
839.68	228.23
840.00	228.23
840.31	228.24
840.63	228.22
840.94	228.20
841.26	228.18
841.57	228.17
841.88	228.18
842.20	228.16
842.51	228.12
842.83	228.12
843.14	228.28
843.46	228.27
843.77	228.17
844.08	228.15
844.40	228.11
844.71	228.09
845.03	228.08
845.34	228.05
845.65	228.06
845.97	228.06
846.28	228.06
846.60	228.08
846.91	228.04
847.22	228.03
847.54	228.08
847.85	228.08
848.16	228.07
848.48	228.04
848.79	228.11
849.10	228.14
849.42	228.16
849.73	227.99
850.04	227.99
850.36	227.93
850.67	227.97
850.98	227.96
851.30	227.98
851.61	227.98
851.92	227.97
852.23	228.02
852.55	228.03
852.86	228.04
853.17	228.05
853.49	228.09
853.80	228.13
854.11	228.14
854.42	228.17
854.74	228.15
855.05	228.15
855.36	228.05
855.67	228.04
855.99	228.03
856.30	228.23
856.61	228.22
856.92	228.22
857.23	228.23
857.55	228.21
857.86	228.21
858.17	228.22
858.48	228.20
858.79	228.16
859.11	228.17
859.42	228.16
859.73	228.13
860.04	228.11
860.35	228.04
860.66	227.98
860.98	227.95
861.29	227.97
861.60	227.95
861.91	227.99
862.22	227.96
862.53	227.93
862.84	227.73
863.16	227.77
863.47	227.75
863.78	227.72
864.09	227.72
864.40	227.72
864.71	227.73
865.02	227.74
865.33	227.72
865.64	227.69
865.95	227.69
866.27	227.80
866.58	227.78
866.89	227.80
867.20	227.81
867.51	227.78
867.82	227.76
868.13	227.83
868.44	227.79
868.75	227.83
869.06	227.83
869.37	227.84
869.68	227.78
869.99	227.80
870.30	227.80
870.61	227.81
870.92	227.78
871.23	227.74
871.54	227.76
871.85	227.79
872.16	227.81
872.47	227.78
872.78	227.69
873.09	227.71
873.40	227.69
873.71	227.71
874.02	227.72
874.33	227.70
874.64	227.65
874.95	227.68
875.26	227.64
875.56	227.64
875.87	227.63
876.18	227.63
876.49	227.81
876.80	227.80
877.11	227.77
877.42	227.78
877.73	227.79
878.04	227.76
878.35	227.76
878.66	227.76
878.96	227.77
879.27	227.75
879.58	227.74
879.89	227.73
880.20	227.76
880.51	227.75
880.82	227.75
881.12	227.77
881.43	227.73
881.74	227.69
882.05	227.69
882.36	227.71
882.67	227.73
882.97	227.53
883.28	227.51
883.59	227.51
883.90	227.53
884.21	227.54
884.51	227.54
884.82	227.52
885.13	227.51
885.44	227.50
885.74	227.51
886.05	227.50
886.36	227.50
886.67	227.44
886.98	227.53
887.28	227.55
887.59	227.55
887.90	227.57
888.20	227.59
888.51	227.62
888.82	227.60
889.13	227.60
889.43	227.75
889.74	227.76
890.05	227.76
890.35	227.74
890.66	227.72
890.97	227.70
891.28	227.68
891.58	227.69
891.89	227.70
892.20	227.67
892.50	227.66
892.81	227.65
893.12	227.65
893.42	227.55
893.73	227.55
894.04	227.53
894.34	227.55
894.65	227.54
894.95	227.51
895.26	227.51
895.57	227.58
895.87	227.40
896.18	227.43
896.48	227.44
896.79	227.44
897.10	227.47
897.40	227.48
897.71	227.50
898.01	227.47
898.32	227.48
898.63	227.48
898.93	227.49
899.24	227.49
899.54	227.48
899.85	227.48
900.15	227.47
900.46	227.46
900.76	227.47
901.07	227.47
901.38	227.46
901.68	227.47
901.99	227.38
902.29	227.40
902.60	227.37
902.90	227.35
903.21	227.34
903.51	227.32
903.82	227.36
904.12	227.36
904.43	227.38
904.73	227.37
905.03	227.39
905.34	227.55
905.64	227.54
905.95	227.54
906.25	227.54
906.56	227.53
906.86	227.53
907.17	227.50
907.47	227.51
907.77	227.50
908.08	227.47
908.38	227.49
908.69	227.51
908.99	227.54
909.30	227.55
909.60	227.54
909.90	227.54
910.21	227.49
910.51	227.46
910.81	227.46
911.12	227.47
911.42	227.47
911.73	227.28
912.03	227.30
912.33	227.34
912.64	227.33
912.94	227.31
913.24	227.28
913.55	227.28
913.85	227.28
914.15	227.30
914.46	227.32
914.76	227.29
915.06	227.27
915.37	227.25
915.67	227.24
915.97	227.23
916.27	227.21
916.58	227.22
916.88	227.21
917.18	227.20
917.49	227.31
917.79	227.30
918.09	227.34
918.39	227.37
918.70	227.36
919.00	227.37
919.30	227.46
919.60	227.47
919.91	227.45
920.21	227.46
920.51	227.42
920.81	227.42
921.12	227.46
921.42	227.46
921.72	227.47
922.02	227.49
922.32	227.53
922.63	227.54
922.93	227.63
923.23	227.63
923.53	227.61
923.83	227.49
924.13	227.51
924.44	227.51
924.74	227.54
925.04	227.59
925.34	227.58
925.64	227.50
925.94	227.50
926.24	227.61
926.55	227.60
926.85	227.62
927.15	227.63
927.45	227.62
927.75	227.63
928.05	227.62
928.35	227.61
928.65	227.63
928.95	227.64
929.26	227.57
929.56	227.61
929.86	227.64
930.16	227.62
930.46	227.60
930.76	227.61
931.06	227.51
931.36	227.46
931.66	227.48
931.96	227.50
932.26	227.52
932.56	227.43
932.86	227.45
933.16	227.45
933.46	227.44
933.76	227.42
934.06	227.43
934.36	227.49
934.66	227.47
934.96	227.44
935.26	227.45
935.56	227.47
935.86	227.42
936.16	227.39
936.46	227.39
936.76	227.38
937.06	227.35
937.36	227.36
937.66	227.37
937.96	227.36
938.26	227.33
938.56	227.31
938.86	227.32
939.16	227.34
939.46	227.34
939.76	227.35
940.06	227.34
940.35	227.32
940.65	227.23
940.95	227.25
941.25	227.22
941.55	227.19
941.85	227.17
942.15	227.22
942.45	227.27
942.75	227.26
943.04	227.27
943.34	227.31
943.64	227.30
943.94	227.27
944.24	227.26
944.54	227.28
944.84	227.28
945.13	227.25
945.43	227.21
945.73	227.21
946.03	227.19
946.33	227.17
946.62	227.15
946.92	227.14
947.22	227.14
947.52	227.16
947.82	227.18
948.11	227.16
948.41	227.11
948.71	227.06
949.01	227.07
949.31	227.04
949.60	227.01
949.90	227.03
950.20	227.04
950.50	227.04
950.79	227.02
951.09	227.05
951.39	227.05
951.69	227.03
951.98	227.06
952.28	227.06
952.58	227.07
952.87	227.08
953.17	227.10
953.47	227.09
953.76	227.09
954.06	227.05
954.36	227.03
954.66	227.02
954.95	227.07
955.25	227.10
955.55	227.11
955.84	227.09
956.14	227.09
956.44	227.09
956.73	227.07
957.03	227.09
957.32	227.09
957.62	227.08
957.92	227.12
958.21	227.11
958.51	227.33
958.81	227.34
959.10	227.36
959.40	227.40
959.69	227.42
959.99	227.43
960.29	227.45
960.58	227.44
960.88	227.52
961.17	227.50
961.47	227.50
961.76	227.48
962.06	227.51
962.36	227.50
962.65	227.52
962.95	227.54
963.24	227.52
963.54	227.53
963.83	227.55
964.13	227.53
964.42	227.52
964.72	227.36
965.01	227.37
965.31	227.37
965.60	227.33
965.90	227.44
966.19	227.41
966.49	227.42
966.78	227.43
967.08	227.40
967.37	227.40
967.67	227.37
967.96	227.41
968.26	227.41
968.55	227.43
968.85	227.42
969.14	227.41
969.43	227.40
969.73	227.38
970.02	227.38
970.32	227.37
970.61	227.34
970.91	227.29
971.20	227.26
971.49	227.24
971.79	227.26
972.08	227.14
972.38	227.15
972.67	227.14
972.96	227.18
973.26	227.15
973.55	227.20
973.85	227.20
974.14	227.19
974.43	227.20
974.73	227.17
975.02	227.15
975.31	227.16
975.61	227.16
975.90	227.15
976.19	227.12
976.49	227.12
976.78	227.12
977.07	227.11
977.37	227.14
977.66	227.15
977.95	227.11
978.24	227.13
978.54	227.17
978.83	227.14
979.12	227.11
979.42	227.11
979.71	227.09
980.00	227.08
980.29	227.09
980.59	227.05
980.88	227.11
981.17	227.11
981.46	227.11
981.76	227.10
982.05	227.17
982.34	227.18
982.63	227.19
982.93	227.19
983.22	227.25
983.51	227.24
983.80	227.27
984.09	227.29
984.39	227.27
984.68	227.24
984.97	227.26
985.26	227.25
985.55	227.27
985.85	227.23
986.14	227.25
986.43	227.28
986.72	227.27
987.01	227.19
987.30	227.19
987.59	227.18
987.89	227.19
988.18	227.13
988.47	227.11
988.76	227.09
989.05	227.08
989.34	227.06
989.63	227.10
989.92	227.07
990.22	227.05
990.51	227.05
990.80	227.04
991.09	227.05
991.38	227.07
991.67	227.04
991.96	227.02
992.25	227.02
992.54	226.98
992.83	226.98
993.12	226.99
993.41	227.02
993.70	227.09
993.99	227.12
994.28	227.15
994.58	227.18
994.87	227.16
995.16	227.16
995.45	227.15
995.74	227.08
996.03	227.10
996.32	227.13
996.61	227.16
996.90	227.16
997.19	227.15
997.48	227.14
997.77	227.14
998.06	227.16
998.34	227.15
998.63	227.14
998.92	227.16
999.21	227.19
999.50	227.20
999.79	227.13
1000.08	227.14
1000.37	227.13
1000.66	227.11
1000.95	227.15
1001.24	227.16
1001.53	227.18
1001.82	227.19
1002.11	227.14
1002.40	227.15
1002.68	227.20
1002.97	227.33
1003.26	227.32
1003.55	227.29
1003.84	227.31
1004.13	227.37
1004.42	227.37
1004.71	227.37
1004.99	227.36
1005.28	227.39
1005.57	227.36
1005.86	227.35
1006.15	227.33
1006.44	227.30
1006.72	227.34
1007.01	227.31
1007.30	227.31
1007.59	227.29
1007.88	227.30
1008.17	227.31
1008.45	227.26
1008.74	227.18
1009.03	227.10
1009.32	227.10
1009.60	227.10
1009.89	227.08
1010.18	227.00
1010.47	226.98
1010.76	226.98
1011.04	226.97
1011.33	226.97
1011.62	226.98
1011.91	227.00
1012.19	227.00
1012.48	227.01
1012.77	226.99
1013.05	227.05
1013.34	227.05
1013.63	227.04
1013.92	227.05
1014.20	227.04
1014.49	227.06
1014.78	227.09
1015.06	227.03
1015.35	227.03
1015.64	227.06
1015.92	227.10
1016.21	227.12
1016.50	227.13
1016.78	227.15
1017.07	227.16
1017.36	227.13
1017.64	227.11
1017.93	227.13
1018.22	227.12
1018.50	227.11
1018.79	227.10
1019.08	227.05
1019.36	227.05
1019.65	227.03
1019.93	227.07
1020.22	227.10
1020.51	227.19
1020.79	227.16
1021.08	226.91
1021.36	226.78
1021.65	227.01
1021.94	227.04
1022.22	227.12
1022.51	226.56
1022.79	227.81
1023.08	227.36
1023.36	229.22
1023.65	226.66
>>>>>End Processed Spectral Data<<<<<
