SpectraSuite Data File
++++++++++++++++++++++++++++++++++++
Date: Tue Oct 06 15:35:41 EDT 2015
User: lab3
Dark Spectrum Present: No
Reference Spectrum Present: No
Number of Sampled Component Spectra: 1
Spectrometers: USB2E7196
Integration Time (usec): 66000 (USB2E7196)
Spectra Averaged: 1000 (USB2E7196)
Boxcar Smoothing: 10 (USB2E7196)
Correct for Electrical Dark: No (USB2E7196)
Strobe/Lamp Enabled: No (USB2E7196)
Correct for Detector Non-linearity: No (USB2E7196)
Correct for Stray Light: No (USB2E7196)
Number of Pixels in Processed Spectrum: 2048
>>>>>Begin Processed Spectral Data<<<<<
339.09	0.00
339.48	215.12
339.86	216.53
340.24	218.03
340.63	219.42
341.01	223.44
341.39	221.99
341.78	223.59
342.16	225.08
342.54	225.17
342.93	213.63
343.31	224.43
343.69	224.97
344.07	225.44
344.46	225.88
344.84	226.29
345.22	226.48
345.60	226.76
345.99	226.97
346.37	227.10
346.75	227.22
347.13	227.30
347.52	227.38
347.90	227.51
348.28	227.56
348.66	227.65
349.05	227.64
349.43	227.71
349.81	227.78
350.19	227.84
350.57	227.92
350.96	228.02
351.34	228.12
351.72	228.22
352.10	228.35
352.48	228.42
352.87	228.46
353.25	228.53
353.63	228.59
354.01	228.65
354.39	228.73
354.77	228.81
355.15	228.94
355.54	228.98
355.92	228.98
356.30	229.05
356.68	229.23
357.06	229.31
357.44	229.34
357.82	229.40
358.20	229.62
358.58	229.67
358.97	229.74
359.35	229.84
359.73	229.91
360.11	229.96
360.49	230.02
360.87	230.06
361.25	230.13
361.63	230.22
362.01	230.27
362.39	230.30
362.77	230.36
363.15	230.37
363.53	230.40
363.91	230.44
364.29	230.45
364.67	230.31
365.05	230.33
365.43	230.37
365.81	230.41
366.19	230.36
366.57	230.44
366.95	230.43
367.33	230.39
367.71	230.40
368.09	230.42
368.47	230.42
368.85	230.41
369.23	230.42
369.61	230.35
369.99	230.39
370.37	230.39
370.75	230.51
371.13	230.48
371.51	230.43
371.89	230.42
372.27	230.40
372.65	230.38
373.03	230.34
373.41	230.30
373.78	230.25
374.16	230.13
374.54	230.02
374.92	229.97
375.30	229.93
375.68	229.85
376.06	229.81
376.44	229.76
376.82	229.73
377.19	229.68
377.57	229.64
377.95	229.53
378.33	229.46
378.71	229.24
379.09	229.20
379.47	229.19
379.84	229.12
380.22	229.04
380.60	228.96
380.98	228.91
381.36	228.86
381.73	228.78
382.11	228.76
382.49	228.73
382.87	228.68
383.25	228.63
383.62	228.79
384.00	228.71
384.38	228.68
384.76	228.68
385.13	228.70
385.51	228.66
385.89	228.61
386.27	228.59
386.64	228.59
387.02	228.53
387.40	228.49
387.78	228.47
388.15	228.47
388.53	228.45
388.91	228.43
389.29	228.41
389.66	228.43
390.04	228.39
390.42	228.38
390.79	228.38
391.17	228.38
391.55	228.18
391.92	228.18
392.30	228.20
392.68	228.14
393.05	228.12
393.43	228.13
393.81	228.16
394.18	228.14
394.56	228.16
394.94	228.22
395.31	228.24
395.69	228.32
396.06	228.37
396.44	228.41
396.82	228.43
397.19	228.56
397.57	228.59
397.95	228.67
398.32	228.68
398.70	228.74
399.07	228.85
399.45	228.91
399.82	228.98
400.20	229.04
400.58	229.14
400.95	229.15
401.33	229.28
401.70	229.51
402.08	229.65
402.45	229.78
402.83	229.95
403.20	230.11
403.58	230.24
403.95	230.44
404.33	230.67
404.71	230.88
405.08	231.19
405.46	231.44
405.83	231.72
406.21	232.00
406.58	232.33
406.96	232.65
407.33	233.03
407.70	233.44
408.08	234.01
408.45	234.51
408.83	235.06
409.20	235.57
409.58	236.02
409.95	236.65
410.33	237.33
410.70	237.98
411.08	238.73
411.45	239.53
411.82	240.35
412.20	241.27
412.57	242.39
412.95	243.27
413.32	244.41
413.69	245.59
414.07	246.84
414.44	248.20
414.82	249.59
415.19	251.22
415.56	252.90
415.94	254.65
416.31	256.60
416.68	258.55
417.06	260.83
417.43	262.96
417.81	265.38
418.18	267.86
418.55	270.57
418.93	273.41
419.30	276.38
419.67	279.52
420.04	282.75
420.42	286.13
420.79	290.01
421.16	293.94
421.54	297.92
421.91	302.10
422.28	306.46
422.66	311.14
423.03	315.58
423.40	320.23
423.77	325.21
424.15	330.32
424.52	335.61
424.89	341.32
425.26	347.00
425.64	352.29
426.01	358.23
426.38	364.28
426.75	370.50
427.13	376.86
427.50	383.56
427.87	390.47
428.24	397.44
428.61	404.13
428.99	411.34
429.36	419.25
429.73	426.79
430.10	434.31
430.47	442.01
430.85	449.99
431.22	458.49
431.59	467.20
431.96	475.70
432.33	485.14
432.70	494.14
433.08	504.79
433.45	514.83
433.82	524.72
434.19	535.81
434.56	546.74
434.93	557.33
435.30	567.82
435.68	579.77
436.05	591.43
436.42	603.09
436.79	613.77
437.16	625.37
437.53	637.79
437.90	650.19
438.27	662.38
438.64	675.52
439.01	687.46
439.38	698.43
439.75	709.04
440.13	721.13
440.50	732.60
440.87	741.77
441.24	751.88
441.61	762.92
441.98	771.09
442.35	780.76
442.72	790.66
443.09	800.06
443.46	806.20
443.83	810.87
444.20	814.75
444.57	820.36
444.94	823.73
445.31	827.16
445.68	830.09
446.05	832.31
446.42	832.05
446.79	831.50
447.16	831.08
447.53	830.71
447.90	827.18
448.27	823.77
448.64	818.40
449.01	814.70
449.37	807.06
449.74	800.14
450.11	791.22
450.48	781.36
450.85	771.50
451.22	762.98
451.59	754.62
451.96	747.07
452.33	736.06
452.70	726.29
453.07	714.47
453.43	702.71
453.80	691.18
454.17	680.12
454.54	669.93
454.91	658.39
455.28	647.54
455.65	637.31
456.02	626.51
456.38	617.82
456.75	606.68
457.12	597.70
457.49	588.62
457.86	580.02
458.23	572.44
458.59	564.08
458.96	555.53
459.33	548.00
459.70	540.32
460.07	534.49
460.43	527.60
460.80	521.12
461.17	515.49
461.54	509.44
461.91	503.77
462.27	498.03
462.64	493.32
463.01	487.93
463.38	482.48
463.74	477.58
464.11	473.19
464.48	469.25
464.85	465.01
465.21	461.75
465.58	458.12
465.95	454.03
466.32	450.77
466.68	447.57
467.05	444.32
467.42	441.20
467.78	437.83
468.15	434.73
468.52	432.46
468.88	429.47
469.25	426.72
469.62	424.55
469.98	422.17
470.35	420.07
470.72	418.16
471.08	416.24
471.45	414.61
471.82	412.82
472.18	410.92
472.55	409.68
472.92	408.15
473.28	406.96
473.65	405.67
474.02	404.44
474.38	403.39
474.75	402.79
475.11	401.95
475.48	401.57
475.85	401.14
476.21	400.91
476.58	400.72
476.94	400.92
477.31	400.95
477.67	401.04
478.04	401.35
478.41	401.80
478.77	402.40
479.14	402.78
479.50	403.57
479.87	404.60
480.23	405.58
480.60	406.53
480.96	407.49
481.33	408.95
481.69	410.40
482.06	411.82
482.42	413.10
482.79	414.72
483.15	416.59
483.52	418.71
483.88	420.72
484.25	422.87
484.61	425.11
484.98	427.55
485.34	430.30
485.71	433.15
486.07	436.20
486.44	439.23
486.80	442.62
487.17	446.09
487.53	449.86
487.90	453.82
488.26	458.13
488.62	462.64
488.99	467.15
489.35	471.88
489.72	476.97
490.08	482.37
490.44	487.86
490.81	493.60
491.17	499.48
491.54	505.76
491.90	512.20
492.26	519.06
492.63	526.24
492.99	533.74
493.36	541.40
493.72	549.45
494.08	557.70
494.45	566.34
494.81	575.38
495.17	584.66
495.54	594.42
495.90	604.64
496.26	615.06
496.63	625.73
496.99	636.81
497.35	648.39
497.72	660.23
498.08	672.42
498.44	684.92
498.80	698.14
499.17	711.65
499.53	725.59
499.89	739.96
500.26	754.51
500.62	769.41
500.98	785.10
501.34	800.88
501.71	817.43
502.07	834.25
502.43	851.51
502.79	868.95
503.16	886.93
503.52	905.06
503.88	923.61
504.24	942.62
504.60	961.85
504.97	981.69
505.33	1001.97
505.69	1023.24
506.05	1044.67
506.41	1065.97
506.78	1087.45
507.14	1109.55
507.50	1132.09
507.86	1154.96
508.22	1177.96
508.59	1200.84
508.95	1224.73
509.31	1249.07
509.67	1274.03
510.03	1298.92
510.39	1323.75
510.75	1348.62
511.12	1373.84
511.48	1399.10
511.84	1424.35
512.20	1449.89
512.56	1476.39
512.92	1502.73
513.28	1528.50
513.64	1554.61
514.00	1581.01
514.37	1607.62
514.73	1634.22
515.09	1660.08
515.45	1686.29
515.81	1712.60
516.17	1738.59
516.53	1763.94
516.89	1789.19
517.25	1814.67
517.61	1839.90
517.97	1865.68
518.33	1890.79
518.69	1915.74
519.05	1941.13
519.41	1966.58
519.77	1991.92
520.13	2015.91
520.49	2040.01
520.85	2064.37
521.21	2088.16
521.57	2112.23
521.93	2135.33
522.29	2158.95
522.65	2182.34
523.01	2205.52
523.37	2228.03
523.73	2251.23
524.09	2274.09
524.45	2296.42
524.81	2318.17
525.17	2339.60
525.53	2360.46
525.89	2381.63
526.25	2402.36
526.61	2421.63
526.97	2440.81
527.33	2459.91
527.68	2478.58
528.04	2496.77
528.40	2513.62
528.76	2530.74
529.12	2547.45
529.48	2564.58
529.84	2579.16
530.20	2594.24
530.56	2608.31
530.91	2622.52
531.27	2636.18
531.63	2648.88
531.99	2661.40
532.35	2673.35
532.71	2684.94
533.07	2696.77
533.42	2706.77
533.78	2717.14
534.14	2728.29
534.50	2738.38
534.86	2748.91
535.21	2757.43
535.57	2765.80
535.93	2774.19
536.29	2780.91
536.65	2787.26
537.00	2792.12
537.36	2798.17
537.72	2803.23
538.08	2807.71
538.44	2811.22
538.79	2814.52
539.15	2816.49
539.51	2817.89
539.87	2818.26
540.22	2817.05
540.58	2816.08
540.94	2816.10
541.29	2814.77
541.65	2812.08
542.01	2809.04
542.37	2804.51
542.72	2801.46
543.08	2796.89
543.44	2792.43
543.79	2787.35
544.15	2781.70
544.51	2776.41
544.87	2770.01
545.22	2762.78
545.58	2755.53
545.94	2748.46
546.29	2739.88
546.65	2731.60
547.01	2723.26
547.36	2715.30
547.72	2707.64
548.07	2698.15
548.43	2687.70
548.79	2677.03
549.14	2666.77
549.50	2656.64
549.86	2645.64
550.21	2633.09
550.57	2621.48
550.92	2608.23
551.28	2595.62
551.64	2583.19
551.99	2570.45
552.35	2557.43
552.70	2544.21
553.06	2531.41
553.41	2518.27
553.77	2504.81
554.13	2491.46
554.48	2477.14
554.84	2462.26
555.19	2447.90
555.55	2433.43
555.90	2419.24
556.26	2405.50
556.61	2390.63
556.97	2374.77
557.32	2359.39
557.68	2344.36
558.03	2329.06
558.39	2314.64
558.74	2300.70
559.10	2285.09
559.45	2269.88
559.81	2255.38
560.16	2240.57
560.52	2225.67
560.87	2210.72
561.23	2195.55
561.58	2180.78
561.94	2165.60
562.29	2149.98
562.64	2134.44
563.00	2119.25
563.35	2104.13
563.71	2088.62
564.06	2073.33
564.42	2058.61
564.77	2043.90
565.12	2029.03
565.48	2013.99
565.83	1999.29
566.19	1984.59
566.54	1970.21
566.89	1955.08
567.25	1939.70
567.60	1925.21
567.96	1909.90
568.31	1893.65
568.66	1878.35
569.02	1863.60
569.37	1849.41
569.72	1835.72
570.08	1821.64
570.43	1807.02
570.78	1792.22
571.14	1777.21
571.49	1762.35
571.84	1747.80
572.20	1732.22
572.55	1717.39
572.90	1702.60
573.26	1687.68
573.61	1672.16
573.96	1657.13
574.31	1642.12
574.67	1627.15
575.02	1611.82
575.37	1596.54
575.72	1581.92
576.08	1567.15
576.43	1551.84
576.78	1536.62
577.13	1521.60
577.49	1506.84
577.84	1492.44
578.19	1477.64
578.54	1462.97
578.90	1448.27
579.25	1433.50
579.60	1419.70
579.95	1405.70
580.30	1391.66
580.66	1377.38
581.01	1363.27
581.36	1349.29
581.71	1336.00
582.06	1322.60
582.42	1309.10
582.77	1296.11
583.12	1283.32
583.47	1270.39
583.82	1257.71
584.17	1244.68
584.53	1231.73
584.88	1219.00
585.23	1206.18
585.58	1193.72
585.93	1181.25
586.28	1169.64
586.63	1157.89
586.98	1145.88
587.34	1134.15
587.69	1122.25
588.04	1110.84
588.39	1099.61
588.74	1087.98
589.09	1076.53
589.44	1064.84
589.79	1053.67
590.14	1042.57
590.49	1031.56
590.84	1020.80
591.19	1010.23
591.54	999.78
591.89	988.97
592.25	978.52
592.60	967.94
592.95	957.55
593.30	947.44
593.65	937.08
594.00	926.97
594.35	917.70
594.70	907.86
595.05	898.60
595.40	889.07
595.75	879.42
596.10	870.36
596.45	861.28
596.80	852.52
597.15	843.86
597.50	835.17
597.85	826.69
598.19	818.19
598.54	809.70
598.89	801.64
599.24	793.98
599.59	786.18
599.94	778.95
600.29	771.72
600.64	764.37
600.99	756.91
601.34	749.66
601.69	741.93
602.04	734.99
602.39	727.95
602.74	721.11
603.08	714.46
603.43	707.78
603.78	701.06
604.13	694.45
604.48	687.89
604.83	681.49
605.18	675.19
605.53	669.05
605.87	662.85
606.22	656.77
606.57	650.64
606.92	644.42
607.27	638.23
607.62	632.25
607.96	626.51
608.31	621.14
608.66	615.73
609.01	610.56
609.36	605.38
609.70	600.13
610.05	594.94
610.40	589.86
610.75	584.80
611.10	579.95
611.44	575.11
611.79	570.33
612.14	565.53
612.49	560.79
612.83	556.28
613.18	551.85
613.53	547.42
613.88	543.13
614.22	539.12
614.57	535.03
614.92	531.02
615.27	527.14
615.61	523.20
615.96	519.28
616.31	515.37
616.65	511.59
617.00	507.94
617.35	504.31
617.70	500.72
618.04	497.20
618.39	493.78
618.74	490.55
619.08	487.32
619.43	484.19
619.78	481.01
620.12	477.83
620.47	474.85
620.82	471.92
621.16	468.99
621.51	466.15
621.85	463.32
622.20	460.56
622.55	457.75
622.89	454.99
623.24	452.39
623.59	449.83
623.93	447.34
624.28	444.97
624.62	442.82
624.97	440.65
625.32	438.41
625.66	436.12
626.01	433.83
626.35	431.66
626.70	429.43
627.04	427.38
627.39	425.28
627.73	423.27
628.08	421.31
628.43	419.37
628.77	417.32
629.12	415.44
629.46	413.63
629.81	411.94
630.15	410.17
630.50	408.42
630.84	406.73
631.19	405.04
631.53	403.43
631.88	401.63
632.22	399.95
632.57	398.53
632.91	397.08
633.26	395.71
633.60	394.33
633.95	393.02
634.29	391.60
634.64	390.27
634.98	388.78
635.32	387.47
635.67	386.27
636.01	385.08
636.36	383.91
636.70	382.85
637.05	381.62
637.39	380.52
637.73	379.40
638.08	378.36
638.42	377.37
638.77	376.25
639.11	375.10
639.45	373.97
639.80	372.78
640.14	371.68
640.49	370.57
640.83	369.47
641.17	368.39
641.52	367.36
641.86	366.33
642.20	365.47
642.55	364.42
642.89	363.38
643.23	362.42
643.58	361.55
643.92	360.53
644.26	359.59
644.61	358.71
644.95	357.78
645.29	356.78
645.64	355.75
645.98	354.84
646.32	354.03
646.66	353.19
647.01	352.35
647.35	351.61
647.69	350.82
648.04	350.11
648.38	349.35
648.72	348.61
649.06	347.85
649.41	347.04
649.75	346.30
650.09	345.59
650.43	344.86
650.78	344.09
651.12	343.37
651.46	342.66
651.80	341.95
652.14	341.28
652.49	340.67
652.83	340.00
653.17	339.29
653.51	338.62
653.85	338.03
654.20	337.42
654.54	336.69
654.88	336.00
655.22	335.35
655.56	334.65
655.90	334.01
656.25	333.39
656.59	332.79
656.93	332.22
657.27	331.69
657.61	331.08
657.95	330.53
658.29	329.94
658.64	329.40
658.98	328.78
659.32	328.21
659.66	327.64
660.00	327.14
660.34	326.62
660.68	326.04
661.02	325.41
661.36	324.84
661.70	324.29
662.05	323.76
662.39	323.22
662.73	322.78
663.07	322.37
663.41	321.90
663.75	321.37
664.09	320.87
664.43	320.23
664.77	319.72
665.11	319.11
665.45	318.59
665.79	318.08
666.13	317.56
666.47	317.01
666.81	316.43
667.15	315.83
667.49	315.35
667.83	314.93
668.17	314.47
668.51	314.03
668.85	313.63
669.19	313.25
669.53	312.71
669.87	312.15
670.21	311.60
670.55	311.08
670.89	310.69
671.23	310.25
671.57	309.87
671.91	309.49
672.25	309.16
672.58	308.81
672.92	308.36
673.26	308.00
673.60	307.63
673.94	307.25
674.28	306.89
674.62	306.50
674.96	306.04
675.30	305.62
675.64	305.17
675.97	304.71
676.31	304.22
676.65	303.79
676.99	303.47
677.33	303.03
677.67	302.64
678.01	302.14
678.34	301.71
678.68	301.30
679.02	300.84
679.36	300.39
679.70	299.93
680.04	299.53
680.37	299.12
680.71	298.72
681.05	298.36
681.39	297.94
681.73	297.48
682.06	297.06
682.40	296.67
682.74	296.31
683.08	296.01
683.42	295.62
683.75	295.28
684.09	294.79
684.43	294.39
684.77	293.95
685.10	293.57
685.44	293.15
685.78	292.72
686.12	292.32
686.45	291.91
686.79	291.46
687.13	291.05
687.46	290.59
687.80	290.18
688.14	289.68
688.48	289.25
688.81	288.83
689.15	288.47
689.49	288.04
689.82	287.59
690.16	287.03
690.50	286.59
690.83	286.14
691.17	285.69
691.51	285.26
691.84	284.88
692.18	284.44
692.52	283.98
692.85	283.55
693.19	283.18
693.52	282.75
693.86	282.31
694.20	281.88
694.53	281.47
694.87	281.01
695.21	280.57
695.54	280.15
695.88	279.71
696.21	279.22
696.55	278.79
696.88	278.35
697.22	277.94
697.56	277.54
697.89	277.09
698.23	276.71
698.56	276.28
698.90	275.87
699.23	275.44
699.57	275.05
699.90	274.64
700.24	274.19
700.58	273.79
700.91	273.46
701.25	273.23
701.58	272.92
701.92	272.59
702.25	272.24
702.59	271.85
702.92	271.47
703.26	271.09
703.59	270.69
703.93	270.46
704.26	270.11
704.60	269.73
704.93	269.37
705.26	268.98
705.60	268.64
705.93	268.23
706.27	267.92
706.60	267.61
706.94	267.31
707.27	266.93
707.61	266.57
707.94	266.16
708.27	265.64
708.61	265.20
708.94	264.80
709.28	264.44
709.61	264.09
709.94	263.77
710.28	263.44
710.61	263.14
710.95	262.66
711.28	262.44
711.61	262.09
711.95	261.80
712.28	261.46
712.61	261.12
712.95	260.90
713.28	260.65
713.61	260.29
713.95	259.92
714.28	259.62
714.61	259.29
714.95	258.99
715.28	258.68
715.61	258.40
715.95	258.13
716.28	257.83
716.61	257.58
716.95	257.27
717.28	257.00
717.61	256.70
717.94	256.43
718.28	256.05
718.61	255.77
718.94	255.47
719.27	255.22
719.61	254.96
719.94	254.64
720.27	254.29
720.60	254.04
720.94	253.79
721.27	253.55
721.60	253.33
721.93	253.08
722.27	252.87
722.60	252.64
722.93	252.38
723.26	252.15
723.59	251.87
723.93	251.65
724.26	251.42
724.59	251.19
724.92	250.97
725.25	250.79
725.59	250.57
725.92	250.38
726.25	250.14
726.58	249.93
726.91	249.70
727.24	249.51
727.57	249.29
727.91	249.04
728.24	248.85
728.57	248.63
728.90	248.44
729.23	248.19
729.56	248.07
729.89	247.86
730.22	247.65
730.55	247.46
730.89	247.27
731.22	247.07
731.55	246.88
731.88	246.69
732.21	246.47
732.54	246.28
732.87	246.11
733.20	245.95
733.53	245.77
733.86	245.61
734.19	245.41
734.52	245.27
734.85	245.24
735.18	245.04
735.51	244.94
735.84	244.79
736.17	244.68
736.50	244.42
736.83	244.48
737.16	244.31
737.49	244.15
737.82	243.99
738.15	243.85
738.48	243.69
738.81	243.54
739.14	243.37
739.47	243.20
739.80	243.02
740.13	242.88
740.46	242.71
740.79	242.52
741.12	242.36
741.45	242.17
741.78	241.91
742.11	241.80
742.44	241.59
742.77	241.46
743.10	241.28
743.43	241.13
743.75	240.80
744.08	240.93
744.41	240.78
744.74	240.63
745.07	240.46
745.40	240.36
745.73	240.29
746.06	240.16
746.39	240.05
746.71	239.93
747.04	239.77
747.37	239.64
747.70	239.55
748.03	239.44
748.36	239.35
748.68	239.24
749.01	239.09
749.34	238.99
749.67	238.85
750.00	238.77
750.33	238.79
750.65	238.69
750.98	238.32
751.31	238.22
751.64	238.12
751.97	238.12
752.29	237.99
752.62	237.80
752.95	237.70
753.28	237.57
753.60	237.45
753.93	237.40
754.26	237.32
754.59	237.17
754.91	237.04
755.24	236.91
755.57	236.80
755.90	236.70
756.22	236.59
756.55	236.47
756.88	236.32
757.20	236.11
757.53	235.97
757.86	235.86
758.19	235.78
758.51	235.70
758.84	235.51
759.17	235.40
759.49	235.33
759.82	235.32
760.15	235.25
760.47	235.17
760.80	235.01
761.13	234.95
761.45	234.86
761.78	234.78
762.11	234.71
762.43	234.61
762.76	234.53
763.08	234.47
763.41	234.41
763.74	234.35
764.06	234.25
764.39	234.18
764.71	234.12
765.04	234.02
765.37	233.93
765.69	233.85
766.02	233.78
766.34	233.68
766.67	233.54
767.00	233.50
767.32	233.53
767.65	233.59
767.97	233.51
768.30	233.46
768.62	233.41
768.95	233.31
769.27	233.24
769.60	233.20
769.92	233.11
770.25	233.01
770.57	232.92
770.90	232.87
771.22	232.80
771.55	232.75
771.87	232.71
772.20	232.65
772.52	232.75
772.85	232.91
773.17	232.86
773.50	232.80
773.82	232.71
774.15	232.57
774.47	232.40
774.80	232.33
775.12	232.28
775.45	232.22
775.77	232.18
776.09	232.15
776.42	232.10
776.74	232.12
777.07	232.08
777.39	232.05
777.72	231.98
778.04	231.96
778.36	231.90
778.69	231.87
779.01	231.84
779.33	231.64
779.66	231.40
779.98	231.35
780.31	231.33
780.63	231.36
780.95	231.36
781.28	231.33
781.60	231.27
781.92	231.23
782.25	231.19
782.57	231.17
782.89	231.13
783.22	231.08
783.54	231.00
783.86	231.00
784.19	230.96
784.51	230.99
784.83	230.92
785.16	230.89
785.48	230.85
785.80	230.82
786.12	230.81
786.45	230.76
786.77	230.74
787.09	230.71
787.42	230.61
787.74	230.59
788.06	230.57
788.38	230.54
788.71	230.51
789.03	230.49
789.35	230.48
789.67	230.44
789.99	230.43
790.32	230.39
790.64	230.37
790.96	230.52
791.28	230.42
791.61	230.40
791.93	230.38
792.25	230.33
792.57	230.43
792.89	230.39
793.21	230.39
793.54	230.34
793.86	230.29
794.18	230.29
794.50	230.24
794.82	230.23
795.14	230.23
795.47	230.24
795.79	230.22
796.11	230.17
796.43	230.13
796.75	230.11
797.07	230.09
797.39	230.06
797.71	229.89
798.04	229.89
798.36	229.89
798.68	229.86
799.00	229.85
799.32	229.74
799.64	229.74
799.96	229.73
800.28	229.74
800.60	229.72
800.92	229.70
801.24	229.67
801.56	229.65
801.89	229.62
802.21	229.62
802.53	229.56
802.85	229.57
803.17	229.63
803.49	229.57
803.81	229.54
804.13	229.51
804.45	229.47
804.77	229.46
805.09	229.43
805.41	229.41
805.73	229.36
806.05	229.30
806.37	229.26
806.69	229.22
807.01	229.20
807.33	229.19
807.65	229.12
807.97	229.18
808.28	229.15
808.60	229.12
808.92	229.07
809.24	229.18
809.56	229.13
809.88	229.05
810.20	229.05
810.52	229.07
810.84	229.03
811.16	228.99
811.48	228.96
811.80	229.02
812.12	228.99
812.43	229.02
812.75	229.02
813.07	229.00
813.39	229.00
813.71	228.96
814.03	228.94
814.35	228.94
814.67	228.85
814.98	228.83
815.30	228.82
815.62	228.77
815.94	228.64
816.26	228.66
816.58	228.62
816.89	228.63
817.21	228.59
817.53	228.59
817.85	228.60
818.17	228.58
818.48	228.51
818.80	228.55
819.12	228.50
819.44	228.47
819.76	228.43
820.07	228.42
820.39	228.42
820.71	228.41
821.03	228.40
821.34	228.38
821.66	228.40
821.98	228.40
822.30	228.39
822.61	228.49
822.93	228.46
823.25	228.45
823.57	228.41
823.88	228.42
824.20	228.41
824.52	228.44
824.83	228.42
825.15	228.40
825.47	228.36
825.79	228.37
826.10	228.35
826.42	228.35
826.74	228.35
827.05	228.33
827.37	228.33
827.69	228.31
828.00	228.30
828.32	228.28
828.64	228.25
828.95	228.36
829.27	228.29
829.58	228.27
829.90	228.30
830.22	228.31
830.53	228.27
830.85	228.26
831.17	228.21
831.48	228.19
831.80	228.20
832.11	228.18
832.43	228.15
832.75	228.15
833.06	228.25
833.38	228.20
833.69	228.19
834.01	228.18
834.32	228.18
834.64	228.16
834.96	228.16
835.27	228.16
835.59	228.08
835.90	228.06
836.22	228.06
836.53	228.01
836.85	227.98
837.16	228.16
837.48	228.15
837.79	228.20
838.11	228.22
838.42	228.20
838.74	228.23
839.05	228.21
839.37	228.20
839.68	228.09
840.00	228.09
840.31	228.10
840.63	228.08
840.94	228.06
841.26	228.04
841.57	228.03
841.88	228.04
842.20	228.01
842.51	227.96
842.83	227.96
843.14	228.12
843.46	228.11
843.77	227.99
844.08	227.98
844.40	227.92
844.71	227.90
845.03	227.87
845.34	227.84
845.65	227.84
845.97	227.83
846.28	227.83
846.60	227.85
846.91	227.81
847.22	227.80
847.54	227.84
847.85	227.86
848.16	227.83
848.48	227.80
848.79	227.87
849.10	227.89
849.42	227.89
849.73	227.72
850.04	227.72
850.36	227.65
850.67	227.68
850.98	227.68
851.30	227.69
851.61	227.69
851.92	227.68
852.23	227.73
852.55	227.73
852.86	227.73
853.17	227.74
853.49	227.77
853.80	227.80
854.11	227.81
854.42	227.84
854.74	227.82
855.05	227.83
855.36	227.73
855.67	227.73
855.99	227.74
856.30	227.95
856.61	227.95
856.92	227.96
857.23	227.95
857.55	227.92
857.86	227.91
858.17	227.94
858.48	227.91
858.79	227.87
859.11	227.88
859.42	227.86
859.73	227.83
860.04	227.82
860.35	227.77
860.66	227.71
860.98	227.68
861.29	227.70
861.60	227.68
861.91	227.72
862.22	227.69
862.53	227.66
862.84	227.45
863.16	227.48
863.47	227.45
863.78	227.43
864.09	227.46
864.40	227.47
864.71	227.47
865.02	227.49
865.33	227.46
865.64	227.43
865.95	227.43
866.27	227.54
866.58	227.52
866.89	227.54
867.20	227.54
867.51	227.51
867.82	227.49
868.13	227.55
868.44	227.52
868.75	227.55
869.06	227.57
869.37	227.59
869.68	227.53
869.99	227.55
870.30	227.57
870.61	227.59
870.92	227.55
871.23	227.53
871.54	227.56
871.85	227.60
872.16	227.62
872.47	227.60
872.78	227.50
873.09	227.52
873.40	227.51
873.71	227.52
874.02	227.54
874.33	227.52
874.64	227.47
874.95	227.51
875.26	227.47
875.56	227.45
875.87	227.44
876.18	227.45
876.49	227.62
876.80	227.58
877.11	227.55
877.42	227.57
877.73	227.57
878.04	227.54
878.35	227.54
878.66	227.54
878.96	227.55
879.27	227.54
879.58	227.53
879.89	227.52
880.20	227.57
880.51	227.56
880.82	227.56
881.12	227.57
881.43	227.52
881.74	227.51
882.05	227.49
882.36	227.50
882.67	227.51
882.97	227.32
883.28	227.31
883.59	227.32
883.90	227.33
884.21	227.35
884.51	227.34
884.82	227.31
885.13	227.30
885.44	227.29
885.74	227.29
886.05	227.28
886.36	227.28
886.67	227.21
886.98	227.31
887.28	227.33
887.59	227.33
887.90	227.34
888.20	227.34
888.51	227.38
888.82	227.35
889.13	227.36
889.43	227.51
889.74	227.51
890.05	227.49
890.35	227.48
890.66	227.45
890.97	227.44
891.28	227.43
891.58	227.43
891.89	227.42
892.20	227.41
892.50	227.40
892.81	227.39
893.12	227.39
893.42	227.30
893.73	227.31
894.04	227.30
894.34	227.31
894.65	227.31
894.95	227.29
895.26	227.30
895.57	227.37
895.87	227.21
896.18	227.24
896.48	227.26
896.79	227.25
897.10	227.28
897.40	227.29
897.71	227.30
898.01	227.28
898.32	227.31
898.63	227.32
898.93	227.33
899.24	227.33
899.54	227.32
899.85	227.32
900.15	227.31
900.46	227.31
900.76	227.32
901.07	227.32
901.38	227.29
901.68	227.31
901.99	227.22
902.29	227.22
902.60	227.21
902.90	227.19
903.21	227.19
903.51	227.16
903.82	227.19
904.12	227.19
904.43	227.21
904.73	227.19
905.03	227.20
905.34	227.37
905.64	227.36
905.95	227.35
906.25	227.34
906.56	227.33
906.86	227.32
907.17	227.30
907.47	227.30
907.77	227.29
908.08	227.27
908.38	227.27
908.69	227.28
908.99	227.31
909.30	227.33
909.60	227.32
909.90	227.31
910.21	227.27
910.51	227.24
910.81	227.24
911.12	227.26
911.42	227.25
911.73	227.06
912.03	227.07
912.33	227.12
912.64	227.10
912.94	227.08
913.24	227.05
913.55	227.04
913.85	227.04
914.15	227.08
914.46	227.09
914.76	227.07
915.06	227.06
915.37	227.03
915.67	227.02
915.97	227.01
916.27	227.00
916.58	227.01
916.88	227.01
917.18	227.00
917.49	227.12
917.79	227.11
918.09	227.13
918.39	227.17
918.70	227.16
919.00	227.17
919.30	227.25
919.60	227.25
919.91	227.23
920.21	227.25
920.51	227.20
920.81	227.19
921.12	227.23
921.42	227.24
921.72	227.25
922.02	227.25
922.32	227.28
922.63	227.29
922.93	227.40
923.23	227.41
923.53	227.39
923.83	227.27
924.13	227.29
924.44	227.29
924.74	227.31
925.04	227.35
925.34	227.35
925.64	227.28
925.94	227.28
926.24	227.38
926.55	227.36
926.85	227.41
927.15	227.41
927.45	227.40
927.75	227.40
928.05	227.40
928.35	227.39
928.65	227.42
928.95	227.43
929.26	227.33
929.56	227.36
929.86	227.38
930.16	227.37
930.46	227.34
930.76	227.36
931.06	227.28
931.36	227.23
931.66	227.26
931.96	227.28
932.26	227.29
932.56	227.21
932.86	227.22
933.16	227.21
933.46	227.19
933.76	227.16
934.06	227.17
934.36	227.23
934.66	227.22
934.96	227.19
935.26	227.19
935.56	227.22
935.86	227.17
936.16	227.15
936.46	227.13
936.76	227.13
937.06	227.09
937.36	227.10
937.66	227.11
937.96	227.08
938.26	227.04
938.56	227.02
938.86	227.02
939.16	227.05
939.46	227.07
939.76	227.07
940.06	227.08
940.35	227.06
940.65	226.97
940.95	226.98
941.25	226.92
941.55	226.90
941.85	226.89
942.15	226.93
942.45	226.98
942.75	226.98
943.04	226.98
943.34	227.01
943.64	226.98
943.94	226.96
944.24	226.97
944.54	227.00
944.84	227.01
945.13	226.98
945.43	226.95
945.73	226.93
946.03	226.93
946.33	226.90
946.62	226.89
946.92	226.89
947.22	226.91
947.52	226.94
947.82	226.95
948.11	226.94
948.41	226.90
948.71	226.84
949.01	226.85
949.31	226.84
949.60	226.83
949.90	226.86
950.20	226.86
950.50	226.85
950.79	226.84
951.09	226.86
951.39	226.87
951.69	226.85
951.98	226.89
952.28	226.90
952.58	226.90
952.87	226.90
953.17	226.92
953.47	226.90
953.76	226.90
954.06	226.86
954.36	226.83
954.66	226.83
954.95	226.89
955.25	226.90
955.55	226.93
955.84	226.90
956.14	226.92
956.44	226.93
956.73	226.92
957.03	226.93
957.32	226.92
957.62	226.90
957.92	226.94
958.21	226.91
958.51	227.11
958.81	227.13
959.10	227.15
959.40	227.18
959.69	227.20
959.99	227.23
960.29	227.24
960.58	227.24
960.88	227.30
961.17	227.28
961.47	227.29
961.76	227.26
962.06	227.29
962.36	227.26
962.65	227.28
962.95	227.28
963.24	227.27
963.54	227.28
963.83	227.30
964.13	227.29
964.42	227.28
964.72	227.14
965.01	227.13
965.31	227.12
965.60	227.08
965.90	227.19
966.19	227.15
966.49	227.16
966.78	227.16
967.08	227.14
967.37	227.13
967.67	227.11
967.96	227.16
968.26	227.16
968.55	227.19
968.85	227.18
969.14	227.18
969.43	227.17
969.73	227.15
970.02	227.13
970.32	227.12
970.61	227.11
970.91	227.05
971.20	227.02
971.49	227.01
971.79	227.02
972.08	226.89
972.38	226.92
972.67	226.91
972.96	226.93
973.26	226.89
973.55	226.94
973.85	226.93
974.14	226.90
974.43	226.91
974.73	226.88
975.02	226.86
975.31	226.86
975.61	226.86
975.90	226.85
976.19	226.85
976.49	226.85
976.78	226.86
977.07	226.86
977.37	226.87
977.66	226.90
977.95	226.87
978.24	226.90
978.54	226.93
978.83	226.93
979.12	226.92
979.42	226.92
979.71	226.88
980.00	226.89
980.29	226.91
980.59	226.87
980.88	226.91
981.17	226.91
981.46	226.91
981.76	226.92
982.05	226.98
982.34	227.00
982.63	227.01
982.93	227.01
983.22	227.05
983.51	227.07
983.80	227.09
984.09	227.12
984.39	227.10
984.68	227.06
984.97	227.07
985.26	227.06
985.55	227.08
985.85	227.05
986.14	227.07
986.43	227.08
986.72	227.08
987.01	227.02
987.30	227.02
987.59	227.01
987.89	227.01
988.18	226.94
988.47	226.92
988.76	226.90
989.05	226.89
989.34	226.87
989.63	226.91
989.92	226.89
990.22	226.86
990.51	226.86
990.80	226.85
991.09	226.85
991.38	226.87
991.67	226.87
991.96	226.85
992.25	226.86
992.54	226.83
992.83	226.83
993.12	226.83
993.41	226.86
993.70	226.94
993.99	226.98
994.28	227.02
994.58	227.05
994.87	227.03
995.16	227.03
995.45	227.01
995.74	226.94
996.03	226.96
996.32	226.99
996.61	227.02
996.90	227.01
997.19	227.02
997.48	227.02
997.77	227.00
998.06	227.01
998.34	226.98
998.63	226.98
998.92	226.99
999.21	227.03
999.50	227.02
999.79	226.95
1000.08	226.94
1000.37	226.94
1000.66	226.92
1000.95	226.95
1001.24	226.95
1001.53	226.97
1001.82	226.98
1002.11	226.94
1002.40	226.96
1002.68	227.00
1002.97	227.13
1003.26	227.10
1003.55	227.07
1003.84	227.08
1004.13	227.13
1004.42	227.13
1004.71	227.13
1004.99	227.11
1005.28	227.14
1005.57	227.13
1005.86	227.11
1006.15	227.09
1006.44	227.06
1006.72	227.08
1007.01	227.06
1007.30	227.06
1007.59	227.04
1007.88	227.04
1008.17	227.06
1008.45	227.01
1008.74	226.93
1009.03	226.86
1009.32	226.86
1009.60	226.86
1009.89	226.84
1010.18	226.75
1010.47	226.75
1010.76	226.75
1011.04	226.75
1011.33	226.75
1011.62	226.76
1011.91	226.78
1012.19	226.80
1012.48	226.81
1012.77	226.82
1013.05	226.88
1013.34	226.89
1013.63	226.89
1013.92	226.89
1014.20	226.87
1014.49	226.88
1014.78	226.90
1015.06	226.84
1015.35	226.85
1015.64	226.89
1015.92	226.92
1016.21	226.95
1016.50	226.95
1016.78	226.97
1017.07	226.98
1017.36	226.95
1017.64	226.93
1017.93	226.94
1018.22	226.91
1018.50	226.91
1018.79	226.89
1019.08	226.82
1019.36	226.83
1019.65	226.81
1019.93	226.86
1020.22	226.90
1020.51	227.00
1020.79	226.98
1021.08	226.60
1021.36	226.67
1021.65	226.92
1021.94	226.62
1022.22	226.99
1022.51	226.42
1022.79	227.72
1023.08	227.37
1023.36	229.01
1023.65	226.47
>>>>>End Processed Spectral Data<<<<<
