SpectraSuite Data File
++++++++++++++++++++++++++++++++++++
Date: Wed Oct 07 02:18:49 EDT 2015
User: lab3
Dark Spectrum Present: No
Reference Spectrum Present: No
Number of Sampled Component Spectra: 1
Spectrometers: USB2E7196
Integration Time (usec): 66000 (USB2E7196)
Spectra Averaged: 10000 (USB2E7196)
Boxcar Smoothing: 10 (USB2E7196)
Correct for Electrical Dark: No (USB2E7196)
Strobe/Lamp Enabled: No (USB2E7196)
Correct for Detector Non-linearity: No (USB2E7196)
Correct for Stray Light: No (USB2E7196)
Number of Pixels in Processed Spectrum: 2048
>>>>>Begin Processed Spectral Data<<<<<
339.09	0.00
339.48	212.33
339.86	213.78
340.24	215.16
340.63	216.62
341.01	220.81
341.39	219.33
341.78	220.83
342.16	222.18
342.54	222.42
342.93	211.01
343.31	221.67
343.69	222.20
344.07	222.67
344.46	223.12
344.84	223.52
345.22	223.71
345.60	223.99
345.99	224.20
346.37	224.35
346.75	224.47
347.13	224.57
347.52	224.66
347.90	224.79
348.28	224.84
348.66	224.93
349.05	224.91
349.43	224.99
349.81	225.07
350.19	225.13
350.57	225.22
350.96	225.32
351.34	225.43
351.72	225.55
352.10	225.67
352.48	225.75
352.87	225.80
353.25	225.87
353.63	225.93
354.01	225.99
354.39	226.06
354.77	226.14
355.15	226.27
355.54	226.31
355.92	226.31
356.30	226.39
356.68	226.58
357.06	226.66
357.44	226.69
357.82	226.75
358.20	226.97
358.58	227.03
358.97	227.10
359.35	227.20
359.73	227.29
360.11	227.34
360.49	227.41
360.87	227.46
361.25	227.53
361.63	227.64
362.01	227.69
362.39	227.72
362.77	227.78
363.15	227.79
363.53	227.83
363.91	227.87
364.29	227.90
364.67	227.75
365.05	227.77
365.43	227.82
365.81	227.86
366.19	227.80
366.57	227.88
366.95	227.89
367.33	227.84
367.71	227.83
368.09	227.87
368.47	227.86
368.85	227.86
369.23	227.88
369.61	227.80
369.99	227.84
370.37	227.85
370.75	227.97
371.13	227.93
371.51	227.89
371.89	227.87
372.27	227.86
372.65	227.84
373.03	227.80
373.41	227.76
373.78	227.71
374.16	227.58
374.54	227.47
374.92	227.42
375.30	227.38
375.68	227.31
376.06	227.27
376.44	227.21
376.82	227.18
377.19	227.13
377.57	227.08
377.95	226.98
378.33	226.92
378.71	226.71
379.09	226.67
379.47	226.65
379.84	226.58
380.22	226.51
380.60	226.43
380.98	226.39
381.36	226.34
381.73	226.27
382.11	226.26
382.49	226.23
382.87	226.16
383.25	226.12
383.62	226.30
384.00	226.22
384.38	226.19
384.76	226.19
385.13	226.20
385.51	226.17
385.89	226.11
386.27	226.09
386.64	226.08
387.02	226.03
387.40	225.99
387.78	225.97
388.15	225.96
388.53	225.93
388.91	225.90
389.29	225.87
389.66	225.88
390.04	225.84
390.42	225.85
390.79	225.86
391.17	225.84
391.55	225.62
391.92	225.62
392.30	225.64
392.68	225.59
393.05	225.57
393.43	225.59
393.81	225.61
394.18	225.59
394.56	225.60
394.94	225.67
395.31	225.67
395.69	225.75
396.06	225.80
396.44	225.85
396.82	225.87
397.19	226.01
397.57	226.04
397.95	226.11
398.32	226.11
398.70	226.18
399.07	226.28
399.45	226.35
399.82	226.42
400.20	226.47
400.58	226.57
400.95	226.59
401.33	226.72
401.70	226.95
402.08	227.10
402.45	227.23
402.83	227.41
403.20	227.57
403.58	227.71
403.95	227.92
404.33	228.14
404.71	228.37
405.08	228.68
405.46	228.93
405.83	229.21
406.21	229.51
406.58	229.84
406.96	230.16
407.33	230.54
407.70	230.97
408.08	231.56
408.45	232.07
408.83	232.63
409.20	233.13
409.58	233.59
409.95	234.23
410.33	234.92
410.70	235.57
411.08	236.33
411.45	237.16
411.82	237.98
412.20	238.93
412.57	240.05
412.95	240.95
413.32	242.11
413.69	243.31
414.07	244.58
414.44	245.97
414.82	247.38
415.19	249.04
415.56	250.72
415.94	252.48
416.31	254.44
416.68	256.41
417.06	258.69
417.43	260.83
417.81	263.29
418.18	265.80
418.55	268.54
418.93	271.38
419.30	274.35
419.67	277.51
420.04	280.76
420.42	284.15
420.79	288.05
421.16	292.00
421.54	296.00
421.91	300.18
422.28	304.53
422.66	309.20
423.03	313.64
423.40	318.31
423.77	323.29
424.15	328.39
424.52	333.68
424.89	339.41
425.26	345.09
425.64	350.36
426.01	356.29
426.38	362.34
426.75	368.57
427.13	374.93
427.50	381.59
427.87	388.51
428.24	395.48
428.61	402.15
428.99	409.34
429.36	417.25
429.73	424.80
430.10	432.34
430.47	440.05
430.85	448.02
431.22	456.48
431.59	465.18
431.96	473.69
432.33	483.14
432.70	492.14
433.08	502.78
433.45	512.80
433.82	522.73
434.19	533.86
434.56	544.82
434.93	555.43
435.30	565.97
435.68	577.91
436.05	589.61
436.42	601.33
436.79	612.05
437.16	623.72
437.53	636.15
437.90	648.60
438.27	660.82
438.64	674.07
439.01	686.10
439.38	697.15
439.75	707.84
440.13	720.03
440.50	731.62
440.87	740.91
441.24	751.14
441.61	762.35
441.98	770.67
442.35	780.53
442.72	790.60
443.09	800.20
443.46	806.50
443.83	811.30
444.20	815.34
444.57	821.08
444.94	824.56
445.31	828.18
445.68	831.35
446.05	833.78
446.42	833.68
446.79	833.33
447.16	833.08
447.53	832.89
447.90	829.49
448.27	826.30
448.64	821.14
449.01	817.66
449.37	810.11
449.74	803.25
450.11	794.37
450.48	784.58
450.85	774.72
451.22	766.28
451.59	757.96
451.96	750.42
452.33	739.47
452.70	729.70
453.07	717.84
453.43	705.97
453.80	694.39
454.17	683.26
454.54	673.01
454.91	661.42
455.28	650.47
455.65	640.12
456.02	629.12
456.38	620.27
456.75	608.94
457.12	599.82
457.49	590.61
457.86	581.87
458.23	574.16
458.59	565.70
458.96	557.01
459.33	549.37
459.70	541.58
460.07	535.64
460.43	528.65
460.80	522.11
461.17	516.43
461.54	510.30
461.91	504.53
462.27	498.66
462.64	493.87
463.01	488.41
463.38	482.90
463.74	477.93
464.11	473.51
464.48	469.52
464.85	465.21
465.21	461.92
465.58	458.26
465.95	454.11
466.32	450.82
466.68	447.59
467.05	444.35
467.42	441.19
467.78	437.80
468.15	434.68
468.52	432.38
468.88	429.33
469.25	426.55
469.62	424.35
469.98	421.97
470.35	419.86
470.72	417.91
471.08	415.97
471.45	414.35
471.82	412.52
472.18	410.61
472.55	409.37
472.92	407.81
473.28	406.60
473.65	405.30
474.02	404.03
474.38	402.97
474.75	402.33
475.11	401.46
475.48	401.05
475.85	400.58
476.21	400.30
476.58	400.10
476.94	400.24
477.31	400.25
477.67	400.29
478.04	400.56
478.41	400.96
478.77	401.55
479.14	401.88
479.50	402.63
479.87	403.61
480.23	404.57
480.60	405.47
480.96	406.38
481.33	407.80
481.69	409.18
482.06	410.54
482.42	411.77
482.79	413.33
483.15	415.16
483.52	417.23
483.88	419.21
484.25	421.31
484.61	423.51
484.98	425.90
485.34	428.58
485.71	431.37
486.07	434.38
486.44	437.32
486.80	440.66
487.17	444.07
487.53	447.78
487.90	451.66
488.26	455.89
488.62	460.36
488.99	464.81
489.35	469.50
489.72	474.55
490.08	479.85
490.44	485.27
490.81	490.90
491.17	496.70
491.54	502.93
491.90	509.29
492.26	516.10
492.63	523.23
492.99	530.70
493.36	538.35
493.72	546.36
494.08	554.60
494.45	563.24
494.81	572.27
495.17	581.53
495.54	591.32
495.90	601.54
496.26	611.95
496.63	622.69
496.99	633.80
497.35	645.43
497.72	657.38
498.08	669.65
498.44	682.27
498.80	695.58
499.17	709.17
499.53	723.23
499.89	737.71
500.26	752.44
500.62	767.51
500.98	783.49
501.34	799.50
501.71	816.24
502.07	833.35
502.43	850.91
502.79	868.73
503.16	887.03
503.52	905.55
503.88	924.50
504.24	943.93
504.60	963.62
504.97	983.91
505.33	1004.72
505.69	1026.64
506.05	1048.77
506.41	1070.92
506.78	1093.23
507.14	1116.04
507.50	1139.40
507.86	1163.12
508.22	1187.08
508.59	1210.91
508.95	1235.75
509.31	1261.19
509.67	1287.27
510.03	1313.36
510.39	1339.33
510.75	1365.40
511.12	1391.73
511.48	1418.49
511.84	1445.15
512.20	1472.10
512.56	1500.23
512.92	1528.24
513.28	1555.53
513.64	1583.29
514.00	1611.43
514.37	1639.84
514.73	1668.35
515.09	1696.18
515.45	1724.26
515.81	1752.70
516.17	1780.90
516.53	1808.42
516.89	1835.59
517.25	1863.05
517.61	1890.34
517.97	1918.26
518.33	1945.71
518.69	1973.12
519.05	2000.80
519.41	2028.67
519.77	2056.76
520.13	2083.26
520.49	2109.64
520.85	2136.48
521.21	2162.72
521.57	2189.27
521.93	2214.67
522.29	2240.83
522.65	2266.79
523.01	2292.50
523.37	2317.40
523.73	2343.06
524.09	2368.42
524.45	2393.66
524.81	2418.29
525.17	2442.81
525.53	2466.32
525.89	2490.32
526.25	2514.03
526.61	2535.99
526.97	2558.04
527.33	2579.70
527.68	2601.40
528.04	2622.72
528.40	2642.98
528.76	2663.14
529.12	2682.76
529.48	2703.21
529.84	2720.95
530.20	2738.89
530.56	2756.22
530.91	2773.56
531.27	2790.19
531.63	2806.04
531.99	2821.34
532.35	2836.48
532.71	2851.22
533.07	2866.50
533.42	2879.79
533.78	2893.09
534.14	2907.58
534.50	2920.96
534.86	2934.98
535.21	2946.45
535.57	2957.91
535.93	2968.84
536.29	2978.21
536.65	2987.34
537.00	2995.22
537.36	3004.17
537.72	3012.32
538.08	3020.05
538.44	3026.38
538.79	3032.68
539.15	3037.67
539.51	3041.95
539.87	3044.90
540.22	3046.05
540.58	3047.48
540.94	3049.44
541.29	3050.58
541.65	3050.17
542.01	3049.35
542.37	3046.74
542.72	3046.02
543.08	3043.43
543.44	3041.02
543.79	3038.48
544.15	3035.17
544.51	3031.64
544.87	3027.22
545.22	3021.83
545.58	3015.86
545.94	3010.39
546.29	3003.43
546.65	2996.53
547.01	2989.78
547.36	2983.65
547.72	2977.73
548.07	2970.01
548.43	2961.13
548.79	2951.80
549.14	2942.77
549.50	2933.88
549.86	2924.21
550.21	2912.62
550.57	2902.40
550.92	2890.56
551.28	2878.75
551.64	2867.28
551.99	2855.65
552.35	2843.57
552.70	2831.38
553.06	2819.75
553.41	2807.67
553.77	2795.14
554.13	2782.72
554.48	2769.19
554.84	2754.28
555.19	2739.80
555.55	2725.39
555.90	2711.54
556.26	2697.98
556.61	2683.36
556.97	2667.56
557.32	2652.10
557.68	2637.13
558.03	2621.68
558.39	2607.09
558.74	2593.34
559.10	2577.72
559.45	2561.99
559.81	2546.86
560.16	2531.31
560.52	2515.45
560.87	2499.97
561.23	2483.96
561.58	2468.54
561.94	2452.76
562.29	2436.66
562.64	2420.74
563.00	2404.79
563.35	2389.13
563.71	2372.96
564.06	2356.98
564.42	2341.50
564.77	2326.19
565.12	2310.52
565.48	2294.48
565.83	2278.50
566.19	2262.42
566.54	2246.52
566.89	2230.25
567.25	2214.06
567.60	2198.78
567.96	2182.97
568.31	2165.52
568.66	2148.77
569.02	2132.74
569.37	2117.27
569.72	2102.33
570.08	2086.99
570.43	2070.97
570.78	2054.67
571.14	2038.38
571.49	2022.01
571.84	2005.89
572.20	1988.51
572.55	1971.82
572.90	1955.31
573.26	1939.08
573.61	1922.15
573.96	1905.69
574.31	1889.15
574.67	1872.21
575.02	1854.89
575.37	1837.54
575.72	1821.11
576.08	1804.63
576.43	1787.10
576.78	1769.90
577.13	1752.94
577.49	1736.15
577.84	1719.97
578.19	1703.35
578.54	1686.60
578.90	1669.80
579.25	1652.78
579.60	1637.13
579.95	1621.15
580.30	1605.16
580.66	1588.81
581.01	1572.57
581.36	1556.39
581.71	1541.09
582.06	1525.88
582.42	1510.48
582.77	1495.46
583.12	1480.69
583.47	1466.02
583.82	1451.53
584.17	1436.40
584.53	1421.41
584.88	1406.75
585.23	1391.92
585.58	1377.50
585.93	1362.94
586.28	1349.41
586.63	1335.80
586.98	1321.60
587.34	1307.89
587.69	1293.99
588.04	1280.39
588.39	1267.06
588.74	1253.42
589.09	1239.86
589.44	1225.95
589.79	1212.75
590.14	1199.55
590.49	1186.36
590.84	1173.40
591.19	1160.84
591.54	1148.46
591.89	1135.73
592.25	1123.28
592.60	1110.69
592.95	1098.25
593.30	1086.32
593.65	1074.01
594.00	1062.05
594.35	1051.02
594.70	1039.26
595.05	1028.12
595.40	1016.88
595.75	1005.48
596.10	994.73
596.45	983.85
596.80	973.53
597.15	963.08
597.50	952.61
597.85	942.59
598.19	932.50
598.54	922.38
598.89	912.75
599.24	903.56
599.59	894.07
599.94	885.31
600.29	876.65
600.64	867.73
600.99	858.72
601.34	850.08
601.69	840.87
602.04	832.65
602.39	824.30
602.74	816.18
603.08	808.17
603.43	800.16
603.78	792.20
604.13	784.23
604.48	776.27
604.83	768.66
605.18	760.99
605.53	753.55
605.87	746.11
606.22	738.78
606.57	731.36
606.92	723.94
607.27	716.52
607.62	709.24
607.96	702.23
608.31	695.78
608.66	689.13
609.01	682.80
609.36	676.43
609.70	670.07
610.05	663.66
610.40	657.46
610.75	651.22
611.10	645.25
611.44	639.24
611.79	633.43
612.14	627.47
612.49	621.60
612.83	616.05
613.18	610.58
613.53	605.11
613.88	599.76
614.22	594.80
614.57	589.77
614.92	584.87
615.27	580.08
615.61	575.16
615.96	570.33
616.31	565.48
616.65	560.76
617.00	556.16
617.35	551.67
617.70	547.19
618.04	542.83
618.39	538.55
618.74	534.56
619.08	530.52
619.43	526.62
619.78	522.71
620.12	518.70
620.47	514.92
620.82	511.23
621.16	507.58
621.51	504.00
621.85	500.40
622.20	496.84
622.55	493.33
622.89	489.84
623.24	486.53
623.59	483.29
623.93	480.14
624.28	477.10
624.62	474.26
624.97	471.47
625.32	468.58
625.66	465.68
626.01	462.72
626.35	459.94
626.70	457.12
627.04	454.50
627.39	451.86
627.73	449.28
628.08	446.74
628.43	444.23
628.77	441.65
629.12	439.17
629.46	436.81
629.81	434.60
630.15	432.30
630.50	430.03
630.84	427.81
631.19	425.63
631.53	423.56
631.88	421.31
632.22	419.13
632.57	417.27
632.91	415.35
633.26	413.52
633.60	411.70
633.95	409.96
634.29	408.11
634.64	406.31
634.98	404.41
635.32	402.70
635.67	401.14
636.01	399.59
636.36	398.08
636.70	396.64
637.05	395.04
637.39	393.62
637.73	392.18
638.08	390.81
638.42	389.48
638.77	388.03
639.11	386.54
639.45	385.11
639.80	383.63
640.14	382.23
640.49	380.82
640.83	379.42
641.17	378.09
641.52	376.76
641.86	375.49
642.20	374.36
642.55	373.06
642.89	371.77
643.23	370.55
643.58	369.46
643.92	368.21
644.26	367.06
644.61	365.96
644.95	364.82
645.29	363.63
645.64	362.41
645.98	361.31
646.32	360.33
646.66	359.28
647.01	358.26
647.35	357.34
647.69	356.37
648.04	355.49
648.38	354.51
648.72	353.60
649.06	352.69
649.41	351.76
649.75	350.87
650.09	350.01
650.43	349.14
650.78	348.20
651.12	347.36
651.46	346.52
651.80	345.70
652.14	344.91
652.49	344.21
652.83	343.43
653.17	342.63
653.51	341.83
653.85	341.17
654.20	340.46
654.54	339.65
654.88	338.89
655.22	338.18
655.56	337.44
655.90	336.75
656.25	336.08
656.59	335.40
656.93	334.77
657.27	334.20
657.61	333.54
657.95	332.96
658.29	332.34
658.64	331.74
658.98	331.08
659.32	330.44
659.66	329.83
660.00	329.27
660.34	328.70
660.68	328.09
661.02	327.42
661.36	326.79
661.70	326.20
662.05	325.63
662.39	325.07
662.73	324.61
663.07	324.18
663.41	323.70
663.75	323.17
664.09	322.66
664.43	322.03
664.77	321.49
665.11	320.91
665.45	320.38
665.79	319.86
666.13	319.35
666.47	318.81
666.81	318.25
667.15	317.63
667.49	317.15
667.83	316.74
668.17	316.28
668.51	315.87
668.85	315.48
669.19	315.15
669.53	314.63
669.87	314.08
670.21	313.52
670.55	313.02
670.89	312.61
671.23	312.14
671.57	311.73
671.91	311.39
672.25	311.06
672.58	310.73
672.92	310.30
673.26	309.96
673.60	309.62
673.94	309.25
674.28	308.92
674.62	308.56
674.96	308.12
675.30	307.77
675.64	307.35
675.97	306.89
676.31	306.41
676.65	306.00
676.99	305.69
677.33	305.26
677.67	304.86
678.01	304.39
678.34	304.00
678.68	303.62
679.02	303.17
679.36	302.72
679.70	302.27
680.04	301.87
680.37	301.45
680.71	301.06
681.05	300.71
681.39	300.30
681.73	299.85
682.06	299.43
682.40	299.02
682.74	298.67
683.08	298.37
683.42	297.99
683.75	297.65
684.09	297.19
684.43	296.81
684.77	296.41
685.10	296.03
685.44	295.62
685.78	295.21
686.12	294.83
686.45	294.40
686.79	293.97
687.13	293.57
687.46	293.13
687.80	292.71
688.14	292.25
688.48	291.83
688.81	291.41
689.15	291.04
689.49	290.60
689.82	290.15
690.16	289.61
690.50	289.17
690.83	288.72
691.17	288.26
691.51	287.83
691.84	287.44
692.18	286.99
692.52	286.53
692.85	286.09
693.19	285.71
693.52	285.29
693.86	284.85
694.20	284.42
694.53	284.00
694.87	283.53
695.21	283.07
695.54	282.63
695.88	282.17
696.21	281.67
696.55	281.23
696.88	280.78
697.22	280.36
697.56	279.96
697.89	279.48
698.23	279.06
698.56	278.61
698.90	278.20
699.23	277.75
699.57	277.34
699.90	276.91
700.24	276.44
700.58	276.04
700.91	275.67
701.25	275.41
701.58	275.09
701.92	274.74
702.25	274.36
702.59	273.94
702.92	273.56
703.26	273.15
703.59	272.73
703.93	272.46
704.26	272.06
704.60	271.64
704.93	271.24
705.26	270.82
705.60	270.46
705.93	270.00
706.27	269.68
706.60	269.33
706.94	269.01
707.27	268.58
707.61	268.18
707.94	267.75
708.27	267.19
708.61	266.71
708.94	266.28
709.28	265.89
709.61	265.50
709.94	265.14
710.28	264.80
710.61	264.46
710.95	263.94
711.28	263.70
711.61	263.34
711.95	263.03
712.28	262.66
712.61	262.27
712.95	262.02
713.28	261.73
713.61	261.34
713.95	260.94
714.28	260.62
714.61	260.25
714.95	259.91
715.28	259.57
715.61	259.25
715.95	258.95
716.28	258.62
716.61	258.34
716.95	258.00
717.28	257.68
717.61	257.35
717.94	257.06
718.28	256.64
718.61	256.34
718.94	256.00
719.27	255.71
719.61	255.45
719.94	255.12
720.27	254.74
720.60	254.46
720.94	254.18
721.27	253.90
721.60	253.66
721.93	253.38
722.27	253.16
722.60	252.89
722.93	252.58
723.26	252.34
723.59	252.03
723.93	251.79
724.26	251.55
724.59	251.28
724.92	251.04
725.25	250.85
725.59	250.60
725.92	250.38
726.25	250.14
726.58	249.89
726.91	249.64
727.24	249.42
727.57	249.17
727.91	248.90
728.24	248.69
728.57	248.44
728.90	248.24
729.23	247.95
729.56	247.82
729.89	247.61
730.22	247.37
730.55	247.16
730.89	246.94
731.22	246.71
731.55	246.50
731.88	246.29
732.21	246.05
732.54	245.83
732.87	245.62
733.20	245.44
733.53	245.24
733.86	245.07
734.19	244.85
734.52	244.69
734.85	244.65
735.18	244.43
735.51	244.30
735.84	244.12
736.17	244.00
736.50	243.71
736.83	243.75
737.16	243.57
737.49	243.40
737.82	243.21
738.15	243.06
738.48	242.87
738.81	242.68
739.14	242.48
739.47	242.30
739.80	242.11
740.13	241.95
740.46	241.75
740.79	241.55
741.12	241.38
741.45	241.17
741.78	240.89
742.11	240.77
742.44	240.55
742.77	240.40
743.10	240.20
743.43	240.03
743.75	239.67
744.08	239.79
744.41	239.62
744.74	239.46
745.07	239.26
745.40	239.16
745.73	239.09
746.06	238.96
746.39	238.85
746.71	238.69
747.04	238.53
747.37	238.38
747.70	238.27
748.03	238.13
748.36	238.04
748.68	237.90
749.01	237.71
749.34	237.59
749.67	237.46
750.00	237.36
750.33	237.37
750.65	237.25
750.98	236.86
751.31	236.75
751.64	236.64
751.97	236.62
752.29	236.47
752.62	236.26
752.95	236.13
753.28	235.98
753.60	235.85
753.93	235.78
754.26	235.68
754.59	235.50
754.91	235.37
755.24	235.23
755.57	235.12
755.90	235.01
756.22	234.87
756.55	234.72
756.88	234.56
757.20	234.33
757.53	234.17
757.86	234.06
758.19	233.96
758.51	233.85
758.84	233.65
759.17	233.53
759.49	233.44
759.82	233.43
760.15	233.35
760.47	233.25
760.80	233.10
761.13	233.03
761.45	232.94
761.78	232.85
762.11	232.76
762.43	232.65
762.76	232.55
763.08	232.49
763.41	232.42
763.74	232.35
764.06	232.26
764.39	232.19
764.71	232.10
765.04	232.00
765.37	231.90
765.69	231.82
766.02	231.74
766.34	231.64
766.67	231.49
767.00	231.45
767.32	231.47
767.65	231.52
767.97	231.43
768.30	231.37
768.62	231.30
768.95	231.20
769.27	231.14
769.60	231.10
769.92	231.00
770.25	230.90
770.57	230.80
770.90	230.73
771.22	230.66
771.55	230.60
771.87	230.55
772.20	230.49
772.52	230.59
772.85	230.75
773.17	230.70
773.50	230.63
773.82	230.54
774.15	230.39
774.47	230.22
774.80	230.15
775.12	230.09
775.45	230.03
775.77	229.99
776.09	229.95
776.42	229.90
776.74	229.91
777.07	229.86
777.39	229.82
777.72	229.76
778.04	229.74
778.36	229.68
778.69	229.63
779.01	229.60
779.33	229.40
779.66	229.14
779.98	229.09
780.31	229.06
780.63	229.10
780.95	229.09
781.28	229.05
781.60	229.00
781.92	228.96
782.25	228.93
782.57	228.89
782.89	228.84
783.22	228.79
783.54	228.71
783.86	228.69
784.19	228.65
784.51	228.67
784.83	228.61
785.16	228.57
785.48	228.54
785.80	228.51
786.12	228.49
786.45	228.46
786.77	228.44
787.09	228.39
787.42	228.29
787.74	228.26
788.06	228.23
788.38	228.20
788.71	228.15
789.03	228.13
789.35	228.12
789.67	228.07
789.99	228.05
790.32	228.01
790.64	227.99
790.96	228.14
791.28	228.04
791.61	228.01
791.93	227.99
792.25	227.95
792.57	228.05
792.89	228.00
793.21	227.98
793.54	227.93
793.86	227.89
794.18	227.87
794.50	227.81
794.82	227.78
795.14	227.78
795.47	227.79
795.79	227.76
796.11	227.70
796.43	227.67
796.75	227.64
797.07	227.63
797.39	227.59
797.71	227.42
798.04	227.41
798.36	227.40
798.68	227.37
799.00	227.36
799.32	227.25
799.64	227.26
799.96	227.23
800.28	227.24
800.60	227.22
800.92	227.21
801.24	227.18
801.56	227.18
801.89	227.14
802.21	227.12
802.53	227.07
802.85	227.09
803.17	227.16
803.49	227.10
803.81	227.07
804.13	227.04
804.45	226.99
804.77	226.98
805.09	226.96
805.41	226.93
805.73	226.88
806.05	226.81
806.37	226.78
806.69	226.75
807.01	226.71
807.33	226.71
807.65	226.62
807.97	226.69
808.28	226.65
808.60	226.63
808.92	226.58
809.24	226.68
809.56	226.63
809.88	226.55
810.20	226.55
810.52	226.57
810.84	226.54
811.16	226.51
811.48	226.48
811.80	226.52
812.12	226.51
812.43	226.54
812.75	226.53
813.07	226.50
813.39	226.50
813.71	226.46
814.03	226.43
814.35	226.43
814.67	226.34
814.98	226.31
815.30	226.30
815.62	226.26
815.94	226.12
816.26	226.13
816.58	226.08
816.89	226.08
817.21	226.03
817.53	226.03
817.85	226.03
818.17	226.01
818.48	225.92
818.80	225.95
819.12	225.90
819.44	225.86
819.76	225.83
820.07	225.82
820.39	225.80
820.71	225.81
821.03	225.80
821.34	225.78
821.66	225.80
821.98	225.80
822.30	225.79
822.61	225.90
822.93	225.86
823.25	225.85
823.57	225.82
823.88	225.83
824.20	225.82
824.52	225.84
824.83	225.83
825.15	225.80
825.47	225.77
825.79	225.78
826.10	225.76
826.42	225.75
826.74	225.76
827.05	225.75
827.37	225.74
827.69	225.72
828.00	225.72
828.32	225.71
828.64	225.68
828.95	225.77
829.27	225.70
829.58	225.69
829.90	225.72
830.22	225.73
830.53	225.69
830.85	225.66
831.17	225.60
831.48	225.59
831.80	225.60
832.11	225.58
832.43	225.55
832.75	225.54
833.06	225.64
833.38	225.59
833.69	225.57
834.01	225.57
834.32	225.56
834.64	225.53
834.96	225.53
835.27	225.52
835.59	225.45
835.90	225.42
836.22	225.41
836.53	225.36
836.85	225.34
837.16	225.51
837.48	225.51
837.79	225.57
838.11	225.57
838.42	225.56
838.74	225.58
839.05	225.57
839.37	225.56
839.68	225.44
840.00	225.43
840.31	225.45
840.63	225.43
840.94	225.41
841.26	225.39
841.57	225.37
841.88	225.39
842.20	225.36
842.51	225.32
842.83	225.31
843.14	225.48
843.46	225.47
843.77	225.36
844.08	225.34
844.40	225.28
844.71	225.26
845.03	225.24
845.34	225.22
845.65	225.22
845.97	225.22
846.28	225.22
846.60	225.23
846.91	225.20
847.22	225.19
847.54	225.22
847.85	225.24
848.16	225.22
848.48	225.18
848.79	225.25
849.10	225.27
849.42	225.27
849.73	225.09
850.04	225.09
850.36	225.02
850.67	225.05
850.98	225.05
851.30	225.06
851.61	225.06
851.92	225.05
852.23	225.10
852.55	225.11
852.86	225.11
853.17	225.12
853.49	225.15
853.80	225.19
854.11	225.19
854.42	225.21
854.74	225.19
855.05	225.20
855.36	225.10
855.67	225.10
855.99	225.10
856.30	225.32
856.61	225.31
856.92	225.32
857.23	225.32
857.55	225.30
857.86	225.28
858.17	225.31
858.48	225.27
858.79	225.23
859.11	225.24
859.42	225.23
859.73	225.20
860.04	225.19
860.35	225.13
860.66	225.07
860.98	225.06
861.29	225.08
861.60	225.06
861.91	225.11
862.22	225.08
862.53	225.05
862.84	224.82
863.16	224.86
863.47	224.82
863.78	224.80
864.09	224.81
864.40	224.82
864.71	224.82
865.02	224.84
865.33	224.82
865.64	224.78
865.95	224.78
866.27	224.89
866.58	224.87
866.89	224.90
867.20	224.90
867.51	224.87
867.82	224.85
868.13	224.91
868.44	224.87
868.75	224.91
869.06	224.92
869.37	224.95
869.68	224.90
869.99	224.93
870.30	224.94
870.61	224.96
870.92	224.93
871.23	224.91
871.54	224.92
871.85	224.97
872.16	224.99
872.47	224.97
872.78	224.87
873.09	224.89
873.40	224.86
873.71	224.88
874.02	224.89
874.33	224.87
874.64	224.83
874.95	224.86
875.26	224.82
875.56	224.81
875.87	224.79
876.18	224.79
876.49	224.97
876.80	224.95
877.11	224.91
877.42	224.92
877.73	224.92
878.04	224.89
878.35	224.88
878.66	224.89
878.96	224.88
879.27	224.88
879.58	224.86
879.89	224.85
880.20	224.90
880.51	224.90
880.82	224.90
881.12	224.91
881.43	224.87
881.74	224.85
882.05	224.83
882.36	224.85
882.67	224.86
882.97	224.66
883.28	224.64
883.59	224.64
883.90	224.65
884.21	224.67
884.51	224.67
884.82	224.64
885.13	224.63
885.44	224.63
885.74	224.63
886.05	224.62
886.36	224.63
886.67	224.56
886.98	224.65
887.28	224.66
887.59	224.66
887.90	224.67
888.20	224.67
888.51	224.70
888.82	224.67
889.13	224.68
889.43	224.84
889.74	224.83
890.05	224.83
890.35	224.81
890.66	224.78
890.97	224.77
891.28	224.75
891.58	224.75
891.89	224.75
892.20	224.73
892.50	224.71
892.81	224.70
893.12	224.70
893.42	224.60
893.73	224.60
894.04	224.60
894.34	224.62
894.65	224.61
894.95	224.59
895.26	224.60
895.57	224.68
895.87	224.49
896.18	224.53
896.48	224.53
896.79	224.53
897.10	224.56
897.40	224.57
897.71	224.59
898.01	224.58
898.32	224.60
898.63	224.59
898.93	224.61
899.24	224.61
899.54	224.60
899.85	224.60
900.15	224.59
900.46	224.59
900.76	224.60
901.07	224.60
901.38	224.59
901.68	224.62
901.99	224.52
902.29	224.54
902.60	224.52
902.90	224.50
903.21	224.50
903.51	224.48
903.82	224.52
904.12	224.51
904.43	224.52
904.73	224.51
905.03	224.53
905.34	224.70
905.64	224.69
905.95	224.70
906.25	224.69
906.56	224.69
906.86	224.69
907.17	224.66
907.47	224.68
907.77	224.66
908.08	224.62
908.38	224.64
908.69	224.65
908.99	224.68
909.30	224.69
909.60	224.68
909.90	224.68
910.21	224.63
910.51	224.60
910.81	224.60
911.12	224.61
911.42	224.61
911.73	224.42
912.03	224.43
912.33	224.47
912.64	224.46
912.94	224.44
913.24	224.41
913.55	224.39
913.85	224.38
914.15	224.42
914.46	224.44
914.76	224.42
915.06	224.41
915.37	224.38
915.67	224.36
915.97	224.37
916.27	224.34
916.58	224.35
916.88	224.35
917.18	224.33
917.49	224.45
917.79	224.44
918.09	224.47
918.39	224.52
918.70	224.50
919.00	224.51
919.30	224.60
919.60	224.59
919.91	224.57
920.21	224.59
920.51	224.54
920.81	224.53
921.12	224.56
921.42	224.56
921.72	224.57
922.02	224.58
922.32	224.61
922.63	224.62
922.93	224.72
923.23	224.73
923.53	224.72
923.83	224.59
924.13	224.61
924.44	224.60
924.74	224.62
925.04	224.66
925.34	224.66
925.64	224.58
925.94	224.59
926.24	224.70
926.55	224.68
926.85	224.70
927.15	224.70
927.45	224.69
927.75	224.69
928.05	224.69
928.35	224.68
928.65	224.71
928.95	224.72
929.26	224.64
929.56	224.67
929.86	224.70
930.16	224.68
930.46	224.67
930.76	224.68
931.06	224.59
931.36	224.54
931.66	224.57
931.96	224.59
932.26	224.60
932.56	224.52
932.86	224.54
933.16	224.54
933.46	224.52
933.76	224.50
934.06	224.53
934.36	224.59
934.66	224.58
934.96	224.55
935.26	224.56
935.56	224.58
935.86	224.53
936.16	224.51
936.46	224.49
936.76	224.48
937.06	224.46
937.36	224.47
937.66	224.48
937.96	224.46
938.26	224.42
938.56	224.41
938.86	224.42
939.16	224.46
939.46	224.47
939.76	224.49
940.06	224.48
940.35	224.45
940.65	224.36
940.95	224.37
941.25	224.33
941.55	224.31
941.85	224.29
942.15	224.33
942.45	224.38
942.75	224.38
943.04	224.39
943.34	224.42
943.64	224.41
943.94	224.38
944.24	224.38
944.54	224.40
944.84	224.39
945.13	224.36
945.43	224.32
945.73	224.31
946.03	224.29
946.33	224.27
946.62	224.26
946.92	224.26
947.22	224.27
947.52	224.29
947.82	224.31
948.11	224.29
948.41	224.24
948.71	224.19
949.01	224.20
949.31	224.19
949.60	224.17
949.90	224.20
950.20	224.20
950.50	224.19
950.79	224.18
951.09	224.21
951.39	224.20
951.69	224.19
951.98	224.22
952.28	224.24
952.58	224.23
952.87	224.24
953.17	224.26
953.47	224.24
953.76	224.23
954.06	224.20
954.36	224.18
954.66	224.19
954.95	224.23
955.25	224.25
955.55	224.26
955.84	224.23
956.14	224.24
956.44	224.25
956.73	224.23
957.03	224.24
957.32	224.24
957.62	224.24
957.92	224.27
958.21	224.25
958.51	224.46
958.81	224.49
959.10	224.50
959.40	224.54
959.69	224.56
959.99	224.58
960.29	224.58
960.58	224.58
960.88	224.65
961.17	224.63
961.47	224.64
961.76	224.63
962.06	224.66
962.36	224.63
962.65	224.64
962.95	224.66
963.24	224.64
963.54	224.64
963.83	224.66
964.13	224.65
964.42	224.63
964.72	224.47
965.01	224.47
965.31	224.46
965.60	224.42
965.90	224.53
966.19	224.49
966.49	224.51
966.78	224.50
967.08	224.48
967.37	224.48
967.67	224.45
967.96	224.48
968.26	224.48
968.55	224.51
968.85	224.50
969.14	224.49
969.43	224.49
969.73	224.48
970.02	224.47
970.32	224.45
970.61	224.43
970.91	224.37
971.20	224.35
971.49	224.33
971.79	224.35
972.08	224.22
972.38	224.24
972.67	224.22
972.96	224.25
973.26	224.22
973.55	224.27
973.85	224.26
974.14	224.24
974.43	224.26
974.73	224.22
975.02	224.21
975.31	224.21
975.61	224.21
975.90	224.19
976.19	224.18
976.49	224.19
976.78	224.21
977.07	224.21
977.37	224.23
977.66	224.24
977.95	224.21
978.24	224.23
978.54	224.26
978.83	224.25
979.12	224.23
979.42	224.24
979.71	224.19
980.00	224.20
980.29	224.21
980.59	224.17
980.88	224.22
981.17	224.22
981.46	224.22
981.76	224.22
982.05	224.27
982.34	224.29
982.63	224.29
982.93	224.29
983.22	224.33
983.51	224.34
983.80	224.36
984.09	224.39
984.39	224.38
984.68	224.35
984.97	224.36
985.26	224.35
985.55	224.36
985.85	224.33
986.14	224.35
986.43	224.37
986.72	224.36
987.01	224.30
987.30	224.30
987.59	224.29
987.89	224.29
988.18	224.24
988.47	224.22
988.76	224.20
989.05	224.19
989.34	224.16
989.63	224.21
989.92	224.17
990.22	224.15
990.51	224.15
990.80	224.13
991.09	224.15
991.38	224.17
991.67	224.15
991.96	224.15
992.25	224.15
992.54	224.11
992.83	224.12
993.12	224.12
993.41	224.15
993.70	224.23
993.99	224.25
994.28	224.28
994.58	224.31
994.87	224.29
995.16	224.29
995.45	224.27
995.74	224.20
996.03	224.23
996.32	224.26
996.61	224.30
996.90	224.30
997.19	224.29
997.48	224.28
997.77	224.27
998.06	224.28
998.34	224.26
998.63	224.27
998.92	224.27
999.21	224.31
999.50	224.31
999.79	224.24
1000.08	224.23
1000.37	224.22
1000.66	224.20
1000.95	224.25
1001.24	224.26
1001.53	224.29
1001.82	224.30
1002.11	224.25
1002.40	224.27
1002.68	224.30
1002.97	224.44
1003.26	224.42
1003.55	224.40
1003.84	224.41
1004.13	224.47
1004.42	224.47
1004.71	224.47
1004.99	224.46
1005.28	224.49
1005.57	224.48
1005.86	224.47
1006.15	224.45
1006.44	224.42
1006.72	224.44
1007.01	224.41
1007.30	224.41
1007.59	224.39
1007.88	224.39
1008.17	224.40
1008.45	224.36
1008.74	224.28
1009.03	224.19
1009.32	224.20
1009.60	224.20
1009.89	224.18
1010.18	224.10
1010.47	224.09
1010.76	224.09
1011.04	224.08
1011.33	224.07
1011.62	224.08
1011.91	224.10
1012.19	224.10
1012.48	224.11
1012.77	224.11
1013.05	224.18
1013.34	224.18
1013.63	224.17
1013.92	224.18
1014.20	224.17
1014.49	224.18
1014.78	224.20
1015.06	224.14
1015.35	224.14
1015.64	224.17
1015.92	224.20
1016.21	224.20
1016.50	224.21
1016.78	224.23
1017.07	224.25
1017.36	224.21
1017.64	224.19
1017.93	224.20
1018.22	224.18
1018.50	224.18
1018.79	224.18
1019.08	224.11
1019.36	224.12
1019.65	224.10
1019.93	224.15
1020.22	224.18
1020.51	224.28
1020.79	224.25
1021.08	223.88
1021.36	223.88
1021.65	224.22
1021.94	224.08
1022.22	224.30
1022.51	223.83
1022.79	225.06
1023.08	224.43
1023.36	226.40
1023.65	223.74
>>>>>End Processed Spectral Data<<<<<
