SpectraSuite Data File
++++++++++++++++++++++++++++++++++++
Date: Tue Oct 06 15:40:11 EDT 2015
User: lab3
Dark Spectrum Present: No
Reference Spectrum Present: No
Number of Sampled Component Spectra: 1
Spectrometers: USB2E7196
Integration Time (usec): 66000 (USB2E7196)
Spectra Averaged: 1000 (USB2E7196)
Boxcar Smoothing: 10 (USB2E7196)
Correct for Electrical Dark: No (USB2E7196)
Strobe/Lamp Enabled: No (USB2E7196)
Correct for Detector Non-linearity: No (USB2E7196)
Correct for Stray Light: No (USB2E7196)
Number of Pixels in Processed Spectrum: 2048
>>>>>Begin Processed Spectral Data<<<<<
339.09	0.00
339.48	215.30
339.86	216.83
340.24	218.47
340.63	219.63
341.01	223.73
341.39	222.26
341.78	223.79
342.16	225.16
342.54	225.16
342.93	213.80
343.31	224.59
343.69	225.12
344.07	225.58
344.46	226.01
344.84	226.41
345.22	226.59
345.60	226.87
345.99	227.06
346.37	227.19
346.75	227.31
347.13	227.39
347.52	227.47
347.90	227.60
348.28	227.65
348.66	227.72
349.05	227.71
349.43	227.78
349.81	227.85
350.19	227.91
350.57	227.99
350.96	228.09
351.34	228.20
351.72	228.31
352.10	228.43
352.48	228.49
352.87	228.53
353.25	228.60
353.63	228.65
354.01	228.71
354.39	228.81
354.77	228.89
355.15	229.01
355.54	229.05
355.92	229.07
356.30	229.15
356.68	229.33
357.06	229.42
357.44	229.45
357.82	229.52
358.20	229.74
358.58	229.80
358.97	229.87
359.35	229.97
359.73	230.07
360.11	230.12
360.49	230.21
360.87	230.26
361.25	230.34
361.63	230.45
362.01	230.51
362.39	230.52
362.77	230.57
363.15	230.60
363.53	230.64
363.91	230.68
364.29	230.71
364.67	230.58
365.05	230.59
365.43	230.64
365.81	230.67
366.19	230.62
366.57	230.71
366.95	230.70
367.33	230.65
367.71	230.63
368.09	230.66
368.47	230.65
368.85	230.65
369.23	230.67
369.61	230.58
369.99	230.62
370.37	230.65
370.75	230.77
371.13	230.73
371.51	230.68
371.89	230.67
372.27	230.65
372.65	230.63
373.03	230.60
373.41	230.55
373.78	230.49
374.16	230.37
374.54	230.28
374.92	230.23
375.30	230.20
375.68	230.13
376.06	230.10
376.44	230.04
376.82	230.00
377.19	229.96
377.57	229.92
377.95	229.81
378.33	229.75
378.71	229.54
379.09	229.51
379.47	229.48
379.84	229.42
380.22	229.36
380.60	229.29
380.98	229.25
381.36	229.20
381.73	229.14
382.11	229.14
382.49	229.10
382.87	229.03
383.25	228.99
383.62	229.17
384.00	229.08
384.38	229.05
384.76	229.05
385.13	229.06
385.51	229.03
385.89	228.98
386.27	228.96
386.64	228.95
387.02	228.90
387.40	228.85
387.78	228.83
388.15	228.80
388.53	228.77
388.91	228.74
389.29	228.71
389.66	228.72
390.04	228.66
390.42	228.68
390.79	228.70
391.17	228.69
391.55	228.48
391.92	228.48
392.30	228.50
392.68	228.46
393.05	228.44
393.43	228.45
393.81	228.47
394.18	228.44
394.56	228.46
394.94	228.51
395.31	228.52
395.69	228.59
396.06	228.64
396.44	228.68
396.82	228.71
397.19	228.84
397.57	228.86
397.95	228.94
398.32	228.93
398.70	228.99
399.07	229.08
399.45	229.13
399.82	229.20
400.20	229.24
400.58	229.32
400.95	229.35
401.33	229.48
401.70	229.71
402.08	229.85
402.45	229.99
402.83	230.14
403.20	230.31
403.58	230.44
403.95	230.64
404.33	230.87
404.71	231.08
405.08	231.38
405.46	231.63
405.83	231.91
406.21	232.19
406.58	232.51
406.96	232.84
407.33	233.22
407.70	233.64
408.08	234.22
408.45	234.73
408.83	235.27
409.20	235.76
409.58	236.22
409.95	236.84
410.33	237.52
410.70	238.17
411.08	238.93
411.45	239.74
411.82	240.56
412.20	241.49
412.57	242.60
412.95	243.49
413.32	244.64
413.69	245.80
414.07	247.07
414.44	248.44
414.82	249.84
415.19	251.48
415.56	253.16
415.94	254.90
416.31	256.84
416.68	258.81
417.06	261.09
417.43	263.20
417.81	265.65
418.18	268.15
418.55	270.87
418.93	273.69
419.30	276.65
419.67	279.79
420.04	283.02
420.42	286.40
420.79	290.29
421.16	294.24
421.54	298.23
421.91	302.41
422.28	306.73
422.66	311.41
423.03	315.85
423.40	320.50
423.77	325.49
424.15	330.60
424.52	335.90
424.89	341.62
425.26	347.31
425.64	352.59
426.01	358.50
426.38	364.56
426.75	370.81
427.13	377.18
427.50	383.87
427.87	390.79
428.24	397.78
428.61	404.47
428.99	411.66
429.36	419.57
429.73	427.12
430.10	434.67
430.47	442.38
430.85	450.34
431.22	458.85
431.59	467.59
431.96	476.10
432.33	485.55
432.70	494.54
433.08	505.18
433.45	515.23
433.82	525.14
434.19	536.25
434.56	547.18
434.93	557.79
435.30	568.30
435.68	580.25
436.05	591.91
436.42	603.59
436.79	614.29
437.16	625.89
437.53	638.30
437.90	650.67
438.27	662.86
438.64	676.01
439.01	687.93
439.38	698.91
439.75	709.51
440.13	721.58
440.50	733.05
440.87	742.26
441.24	752.35
441.61	763.40
441.98	771.57
442.35	781.28
442.72	791.18
443.09	800.56
443.46	806.66
443.83	811.33
444.20	815.18
444.57	820.78
444.94	824.11
445.31	827.55
445.68	830.52
446.05	832.75
446.42	832.48
446.79	831.95
447.16	831.48
447.53	831.11
447.90	827.57
448.27	824.16
448.64	818.78
449.01	815.07
449.37	807.45
449.74	800.49
450.11	791.51
450.48	781.62
450.85	771.75
451.22	763.29
451.59	754.91
451.96	747.37
452.33	736.39
452.70	726.64
453.07	714.81
453.43	703.01
453.80	691.49
454.17	680.43
454.54	670.23
454.91	658.73
455.28	647.86
455.65	637.60
456.02	626.77
456.38	618.06
456.75	606.92
457.12	597.91
457.49	588.86
457.86	580.25
458.23	572.67
458.59	564.33
458.96	555.75
459.33	548.21
459.70	540.53
460.07	534.69
460.43	527.80
460.80	521.34
461.17	515.73
461.54	509.66
461.91	504.01
462.27	498.24
462.64	493.52
463.01	488.16
463.38	482.73
463.74	477.85
464.11	473.50
464.48	469.55
464.85	465.32
465.21	462.04
465.58	458.42
465.95	454.34
466.32	451.07
466.68	447.87
467.05	444.63
467.42	441.48
467.78	438.12
468.15	435.02
468.52	432.75
468.88	429.75
469.25	427.01
469.62	424.82
469.98	422.46
470.35	420.35
470.72	418.43
471.08	416.49
471.45	414.88
471.82	413.07
472.18	411.18
472.55	409.93
472.92	408.41
473.28	407.23
473.65	405.95
474.02	404.73
474.38	403.70
474.75	403.10
475.11	402.27
475.48	401.88
475.85	401.46
476.21	401.20
476.58	401.01
476.94	401.20
477.31	401.26
477.67	401.34
478.04	401.66
478.41	402.10
478.77	402.72
479.14	403.10
479.50	403.89
479.87	404.91
480.23	405.89
480.60	406.84
480.96	407.81
481.33	409.24
481.69	410.66
482.06	412.08
482.42	413.37
482.79	414.99
483.15	416.88
483.52	419.01
483.88	421.03
484.25	423.18
484.61	425.45
484.98	427.87
485.34	430.60
485.71	433.47
486.07	436.51
486.44	439.53
486.80	442.92
487.17	446.41
487.53	450.19
487.90	454.15
488.26	458.46
488.62	462.97
488.99	467.49
489.35	472.24
489.72	477.34
490.08	482.72
490.44	488.20
490.81	493.93
491.17	499.82
491.54	506.13
491.90	512.60
492.26	519.46
492.63	526.66
492.99	534.19
493.36	541.89
493.72	549.95
494.08	558.20
494.45	566.86
494.81	575.87
495.17	585.15
495.54	594.96
495.90	605.17
496.26	615.59
496.63	626.26
496.99	637.34
497.35	648.94
497.72	660.81
498.08	673.01
498.44	685.50
498.80	698.69
499.17	712.20
499.53	726.12
499.89	740.49
500.26	755.05
500.62	769.94
500.98	785.65
501.34	801.43
501.71	817.99
502.07	834.80
502.43	852.07
502.79	869.54
503.16	887.50
503.52	905.63
503.88	924.22
504.24	943.28
504.60	962.54
504.97	982.39
505.33	1002.67
505.69	1023.97
506.05	1045.43
506.41	1066.76
506.78	1088.25
507.14	1110.37
507.50	1132.85
507.86	1155.75
508.22	1178.81
508.59	1201.67
508.95	1225.59
509.31	1249.91
509.67	1274.85
510.03	1299.74
510.39	1324.57
510.75	1349.45
511.12	1374.74
511.48	1400.02
511.84	1425.29
512.20	1450.88
512.56	1477.36
512.92	1503.73
513.28	1529.51
513.64	1555.59
514.00	1581.97
514.37	1608.59
514.73	1635.17
515.09	1661.08
515.45	1687.27
515.81	1713.55
516.17	1739.52
516.53	1764.84
516.89	1790.17
517.25	1815.70
517.61	1840.95
517.97	1866.73
518.33	1891.86
518.69	1916.79
519.05	1942.16
519.41	1967.58
519.77	1992.89
520.13	2016.91
520.49	2040.98
520.85	2065.39
521.21	2089.24
521.57	2113.33
521.93	2136.45
522.29	2160.10
522.65	2183.52
523.01	2206.67
523.37	2229.18
523.73	2252.43
524.09	2275.37
524.45	2297.68
524.81	2319.42
525.17	2340.89
525.53	2361.76
525.89	2382.93
526.25	2403.70
526.61	2422.92
526.97	2442.17
527.33	2461.25
527.68	2479.93
528.04	2498.17
528.40	2514.94
528.76	2532.08
529.12	2548.84
529.48	2565.94
529.84	2580.48
530.20	2595.54
530.56	2609.59
530.91	2623.80
531.27	2637.44
531.63	2650.10
531.99	2662.55
532.35	2674.53
532.71	2686.09
533.07	2697.89
533.42	2707.85
533.78	2718.17
534.14	2729.35
534.50	2739.38
534.86	2749.92
535.21	2758.46
535.57	2766.83
535.93	2775.21
536.29	2781.81
536.65	2788.10
537.00	2793.00
537.36	2799.17
537.72	2804.21
538.08	2808.72
538.44	2812.23
538.79	2815.46
539.15	2817.41
539.51	2818.82
539.87	2819.18
540.22	2818.05
540.58	2817.13
540.94	2817.16
541.29	2815.84
541.65	2813.12
542.01	2810.04
542.37	2805.51
542.72	2802.40
543.08	2797.81
543.44	2793.39
543.79	2788.35
544.15	2782.70
544.51	2777.38
544.87	2770.88
545.22	2763.65
545.58	2756.39
545.94	2749.35
546.29	2740.80
546.65	2732.47
547.01	2724.11
547.36	2716.07
547.72	2708.29
548.07	2698.80
548.43	2688.33
548.79	2677.65
549.14	2667.39
549.50	2657.31
549.86	2646.27
550.21	2633.71
550.57	2622.09
550.92	2608.83
551.28	2596.21
551.64	2583.75
551.99	2570.98
552.35	2557.90
552.70	2544.68
553.06	2531.93
553.41	2518.70
553.77	2505.26
554.13	2491.95
554.48	2477.70
554.84	2462.81
555.19	2448.45
555.55	2433.96
555.90	2419.78
556.26	2406.03
556.61	2391.14
556.97	2375.22
557.32	2359.85
557.68	2344.86
558.03	2329.54
558.39	2315.13
558.74	2301.21
559.10	2285.60
559.45	2270.43
559.81	2255.96
560.16	2241.16
560.52	2226.17
560.87	2211.27
561.23	2196.08
561.58	2181.29
561.94	2166.08
562.29	2150.48
562.64	2134.92
563.00	2119.65
563.35	2104.52
563.71	2089.02
564.06	2073.72
564.42	2059.03
564.77	2044.28
565.12	2029.35
565.48	2014.30
565.83	1999.53
566.19	1984.82
566.54	1970.41
566.89	1955.27
567.25	1939.86
567.60	1925.42
567.96	1910.16
568.31	1893.90
568.66	1878.62
569.02	1863.87
569.37	1849.65
569.72	1836.02
570.08	1821.97
570.43	1807.33
570.78	1792.53
571.14	1777.50
571.49	1762.65
571.84	1748.11
572.20	1732.59
572.55	1717.78
572.90	1703.00
573.26	1688.10
573.61	1672.60
573.96	1657.68
574.31	1642.63
574.67	1627.70
575.02	1612.33
575.37	1597.08
575.72	1582.45
576.08	1567.73
576.43	1552.43
576.78	1537.18
577.13	1522.16
577.49	1507.43
577.84	1493.08
578.19	1478.32
578.54	1463.68
578.90	1448.96
579.25	1434.18
579.60	1420.38
579.95	1406.37
580.30	1392.32
580.66	1378.03
581.01	1363.89
581.36	1349.85
581.71	1336.55
582.06	1323.11
582.42	1309.58
582.77	1296.58
583.12	1283.80
583.47	1270.82
583.82	1258.14
584.17	1245.13
584.53	1232.18
584.88	1219.44
585.23	1206.62
585.58	1194.12
585.93	1181.63
586.28	1170.05
586.63	1158.29
586.98	1146.28
587.34	1134.54
587.69	1122.68
588.04	1111.28
588.39	1100.05
588.74	1088.41
589.09	1076.97
589.44	1065.29
589.79	1054.16
590.14	1043.03
590.49	1032.05
590.84	1021.30
591.19	1010.71
591.54	1000.27
591.89	989.41
592.25	978.93
592.60	968.35
592.95	957.99
593.30	947.88
593.65	937.47
594.00	927.36
594.35	918.07
594.70	908.18
595.05	898.88
595.40	889.34
595.75	879.70
596.10	870.68
596.45	861.59
596.80	852.84
597.15	844.14
597.50	835.47
597.85	826.90
598.19	818.39
598.54	809.89
598.89	801.84
599.24	794.19
599.59	786.39
599.94	779.14
600.29	771.89
600.64	764.54
600.99	757.07
601.34	749.80
601.69	742.08
602.04	735.21
602.39	728.21
602.74	721.39
603.08	714.73
603.43	708.01
603.78	701.28
604.13	694.67
604.48	688.12
604.83	681.73
605.18	675.46
605.53	669.29
605.87	663.10
606.22	657.01
606.57	650.90
606.92	644.65
607.27	638.48
607.62	632.51
607.96	626.77
608.31	621.44
608.66	616.05
609.01	610.87
609.36	605.67
609.70	600.39
610.05	595.17
610.40	590.11
610.75	585.08
611.10	580.26
611.44	575.42
611.79	570.66
612.14	565.86
612.49	561.12
612.83	556.63
613.18	552.19
613.53	547.76
613.88	543.45
614.22	539.46
614.57	535.36
614.92	531.36
615.27	527.48
615.61	523.52
615.96	519.58
616.31	515.66
616.65	511.89
617.00	508.23
617.35	504.59
617.70	500.97
618.04	497.44
618.39	493.99
618.74	490.77
619.08	487.56
619.43	484.43
619.78	481.22
620.12	478.05
620.47	475.09
620.82	472.15
621.16	469.23
621.51	466.37
621.85	463.55
622.20	460.79
622.55	457.97
622.89	455.22
623.24	452.65
623.59	450.11
623.93	447.61
624.28	445.27
624.62	443.13
624.97	440.96
625.32	438.70
625.66	436.42
626.01	434.09
626.35	431.89
626.70	429.63
627.04	427.57
627.39	425.48
627.73	423.46
628.08	421.52
628.43	419.58
628.77	417.55
629.12	415.67
629.46	413.84
629.81	412.14
630.15	410.36
630.50	408.59
630.84	406.87
631.19	405.21
631.53	403.58
631.88	401.79
632.22	400.11
632.57	398.69
632.91	397.24
633.26	395.88
633.60	394.51
633.95	393.22
634.29	391.83
634.64	390.47
634.98	388.97
635.32	387.64
635.67	386.44
636.01	385.25
636.36	384.07
636.70	383.02
637.05	381.78
637.39	380.69
637.73	379.58
638.08	378.54
638.42	377.52
638.77	376.41
639.11	375.24
639.45	374.10
639.80	372.92
640.14	371.83
640.49	370.74
640.83	369.62
641.17	368.54
641.52	367.49
641.86	366.47
642.20	365.62
642.55	364.59
642.89	363.56
643.23	362.61
643.58	361.76
643.92	360.72
644.26	359.80
644.61	358.92
644.95	357.98
645.29	356.99
645.64	355.98
645.98	355.06
646.32	354.27
646.66	353.44
647.01	352.61
647.35	351.84
647.69	351.04
648.04	350.34
648.38	349.57
648.72	348.85
649.06	348.10
649.41	347.29
649.75	346.53
650.09	345.82
650.43	345.07
650.78	344.30
651.12	343.58
651.46	342.86
651.80	342.14
652.14	341.49
652.49	340.88
652.83	340.20
653.17	339.48
653.51	338.81
653.85	338.21
654.20	337.58
654.54	336.84
654.88	336.15
655.22	335.51
655.56	334.81
655.90	334.16
656.25	333.53
656.59	332.91
656.93	332.34
657.27	331.81
657.61	331.21
657.95	330.65
658.29	330.06
658.64	329.51
658.98	328.91
659.32	328.29
659.66	327.73
660.00	327.22
660.34	326.71
660.68	326.14
661.02	325.50
661.36	324.92
661.70	324.37
662.05	323.84
662.39	323.28
662.73	322.82
663.07	322.41
663.41	321.94
663.75	321.41
664.09	320.90
664.43	320.27
664.77	319.74
665.11	319.15
665.45	318.62
665.79	318.11
666.13	317.57
666.47	317.04
666.81	316.47
667.15	315.87
667.49	315.41
667.83	314.98
668.17	314.52
668.51	314.09
668.85	313.69
669.19	313.32
669.53	312.79
669.87	312.26
670.21	311.71
670.55	311.20
670.89	310.81
671.23	310.38
671.57	310.01
671.91	309.66
672.25	309.31
672.58	308.97
672.92	308.53
673.26	308.18
673.60	307.80
673.94	307.42
674.28	307.07
674.62	306.67
674.96	306.21
675.30	305.81
675.64	305.37
675.97	304.91
676.31	304.42
676.65	303.99
676.99	303.67
677.33	303.23
677.67	302.83
678.01	302.33
678.34	301.88
678.68	301.45
679.02	300.99
679.36	300.55
679.70	300.08
680.04	299.68
680.37	299.27
680.71	298.88
681.05	298.51
681.39	298.08
681.73	297.61
682.06	297.17
682.40	296.79
682.74	296.42
683.08	296.13
683.42	295.73
683.75	295.38
684.09	294.90
684.43	294.50
684.77	294.06
685.10	293.70
685.44	293.29
685.78	292.88
686.12	292.47
686.45	292.05
686.79	291.61
687.13	291.21
687.46	290.75
687.80	290.32
688.14	289.83
688.48	289.42
688.81	288.99
689.15	288.66
689.49	288.23
689.82	287.79
690.16	287.25
690.50	286.80
690.83	286.37
691.17	285.91
691.51	285.48
691.84	285.11
692.18	284.66
692.52	284.22
692.85	283.79
693.19	283.43
693.52	282.99
693.86	282.57
694.20	282.15
694.53	281.74
694.87	281.29
695.21	280.88
695.54	280.45
695.88	280.01
696.21	279.51
696.55	279.07
696.88	278.63
697.22	278.22
697.56	277.84
697.89	277.38
698.23	276.99
698.56	276.56
698.90	276.15
699.23	275.71
699.57	275.32
699.90	274.91
700.24	274.45
700.58	274.07
700.91	273.73
701.25	273.50
701.58	273.19
701.92	272.86
702.25	272.50
702.59	272.11
702.92	271.74
703.26	271.35
703.59	270.97
703.93	270.74
704.26	270.40
704.60	270.01
704.93	269.64
705.26	269.25
705.60	268.92
705.93	268.51
706.27	268.22
706.60	267.91
706.94	267.61
707.27	267.22
707.61	266.86
707.94	266.46
708.27	265.94
708.61	265.49
708.94	265.10
709.28	264.73
709.61	264.38
709.94	264.06
710.28	263.74
710.61	263.43
710.95	262.94
711.28	262.72
711.61	262.37
711.95	262.08
712.28	261.74
712.61	261.40
712.95	261.18
713.28	260.92
713.61	260.55
713.95	260.19
714.28	259.88
714.61	259.55
714.95	259.24
715.28	258.93
715.61	258.66
715.95	258.37
716.28	258.08
716.61	257.83
716.95	257.52
717.28	257.23
717.61	256.93
717.94	256.66
718.28	256.25
718.61	255.98
718.94	255.66
719.27	255.40
719.61	255.16
719.94	254.85
720.27	254.49
720.60	254.25
720.94	253.98
721.27	253.74
721.60	253.52
721.93	253.28
722.27	253.08
722.60	252.83
722.93	252.57
723.26	252.33
723.59	252.05
723.93	251.84
724.26	251.62
724.59	251.38
724.92	251.16
725.25	250.99
725.59	250.77
725.92	250.58
726.25	250.36
726.58	250.14
726.91	249.91
727.24	249.72
727.57	249.49
727.91	249.25
728.24	249.08
728.57	248.84
728.90	248.64
729.23	248.37
729.56	248.27
729.89	248.09
730.22	247.89
730.55	247.69
730.89	247.48
731.22	247.28
731.55	247.10
731.88	246.92
732.21	246.70
732.54	246.49
732.87	246.31
733.20	246.13
733.53	245.96
733.86	245.80
734.19	245.61
734.52	245.46
734.85	245.43
735.18	245.22
735.51	245.12
735.84	244.97
736.17	244.86
736.50	244.58
736.83	244.61
737.16	244.47
737.49	244.31
737.82	244.15
738.15	244.01
738.48	243.85
738.81	243.68
739.14	243.50
739.47	243.36
739.80	243.20
740.13	243.06
740.46	242.88
740.79	242.69
741.12	242.53
741.45	242.36
741.78	242.11
742.11	242.01
742.44	241.80
742.77	241.68
743.10	241.51
743.43	241.37
743.75	241.05
744.08	241.17
744.41	241.02
744.74	240.87
745.07	240.70
745.40	240.61
745.73	240.55
746.06	240.43
746.39	240.33
746.71	240.20
747.04	240.06
747.37	239.94
747.70	239.85
748.03	239.73
748.36	239.64
748.68	239.53
749.01	239.36
749.34	239.27
749.67	239.14
750.00	239.04
750.33	239.05
750.65	238.96
750.98	238.58
751.31	238.48
751.64	238.40
751.97	238.39
752.29	238.25
752.62	238.07
752.95	237.94
753.28	237.81
753.60	237.69
753.93	237.62
754.26	237.54
754.59	237.39
754.91	237.27
755.24	237.15
755.57	237.04
755.90	236.93
756.22	236.80
756.55	236.68
756.88	236.54
757.20	236.32
757.53	236.17
757.86	236.08
758.19	235.99
758.51	235.88
758.84	235.71
759.17	235.60
759.49	235.52
759.82	235.52
760.15	235.46
760.47	235.36
760.80	235.22
761.13	235.15
761.45	235.06
761.78	234.98
762.11	234.90
762.43	234.80
762.76	234.73
763.08	234.68
763.41	234.61
763.74	234.54
764.06	234.46
764.39	234.41
764.71	234.33
765.04	234.24
765.37	234.15
765.69	234.07
766.02	234.00
766.34	233.91
766.67	233.77
767.00	233.72
767.32	233.76
767.65	233.80
767.97	233.71
768.30	233.67
768.62	233.61
768.95	233.53
769.27	233.46
769.60	233.43
769.92	233.33
770.25	233.24
770.57	233.14
770.90	233.10
771.22	233.01
771.55	232.97
771.87	232.92
772.20	232.86
772.52	232.95
772.85	233.12
773.17	233.07
773.50	233.00
773.82	232.92
774.15	232.78
774.47	232.61
774.80	232.54
775.12	232.47
775.45	232.43
775.77	232.40
776.09	232.37
776.42	232.31
776.74	232.33
777.07	232.28
777.39	232.25
777.72	232.19
778.04	232.18
778.36	232.12
778.69	232.08
779.01	232.06
779.33	231.86
779.66	231.62
779.98	231.58
780.31	231.57
780.63	231.61
780.95	231.62
781.28	231.57
781.60	231.53
781.92	231.50
782.25	231.46
782.57	231.42
782.89	231.36
783.22	231.32
783.54	231.26
783.86	231.25
784.19	231.21
784.51	231.23
784.83	231.17
785.16	231.13
785.48	231.10
785.80	231.08
786.12	231.07
786.45	231.04
786.77	231.02
787.09	230.96
787.42	230.87
787.74	230.83
788.06	230.82
788.38	230.79
788.71	230.74
789.03	230.72
789.35	230.71
789.67	230.67
789.99	230.65
790.32	230.59
790.64	230.58
790.96	230.72
791.28	230.63
791.61	230.61
791.93	230.60
792.25	230.57
792.57	230.66
792.89	230.61
793.21	230.60
793.54	230.55
793.86	230.53
794.18	230.50
794.50	230.46
794.82	230.43
795.14	230.44
795.47	230.46
795.79	230.44
796.11	230.39
796.43	230.36
796.75	230.34
797.07	230.34
797.39	230.30
797.71	230.14
798.04	230.13
798.36	230.11
798.68	230.09
799.00	230.08
799.32	229.97
799.64	229.97
799.96	229.94
800.28	229.96
800.60	229.93
800.92	229.91
801.24	229.88
801.56	229.89
801.89	229.86
802.21	229.84
802.53	229.79
802.85	229.80
803.17	229.87
803.49	229.82
803.81	229.78
804.13	229.75
804.45	229.71
804.77	229.72
805.09	229.71
805.41	229.67
805.73	229.62
806.05	229.55
806.37	229.53
806.69	229.51
807.01	229.48
807.33	229.48
807.65	229.41
807.97	229.47
808.28	229.43
808.60	229.40
808.92	229.37
809.24	229.46
809.56	229.42
809.88	229.34
810.20	229.34
810.52	229.37
810.84	229.33
811.16	229.30
811.48	229.25
811.80	229.30
812.12	229.28
812.43	229.31
812.75	229.32
813.07	229.28
813.39	229.27
813.71	229.23
814.03	229.20
814.35	229.19
814.67	229.11
814.98	229.08
815.30	229.07
815.62	229.03
815.94	228.90
816.26	228.91
816.58	228.86
816.89	228.86
817.21	228.80
817.53	228.81
817.85	228.81
818.17	228.79
818.48	228.70
818.80	228.72
819.12	228.68
819.44	228.64
819.76	228.62
820.07	228.61
820.39	228.59
820.71	228.60
821.03	228.58
821.34	228.56
821.66	228.57
821.98	228.58
822.30	228.56
822.61	228.66
822.93	228.62
823.25	228.62
823.57	228.59
823.88	228.60
824.20	228.59
824.52	228.61
824.83	228.60
825.15	228.57
825.47	228.55
825.79	228.56
826.10	228.54
826.42	228.53
826.74	228.53
827.05	228.52
827.37	228.51
827.69	228.49
828.00	228.50
828.32	228.49
828.64	228.45
828.95	228.56
829.27	228.49
829.58	228.49
829.90	228.51
830.22	228.50
830.53	228.47
830.85	228.44
831.17	228.39
831.48	228.39
831.80	228.40
832.11	228.37
832.43	228.34
832.75	228.34
833.06	228.44
833.38	228.39
833.69	228.39
834.01	228.38
834.32	228.39
834.64	228.36
834.96	228.36
835.27	228.35
835.59	228.27
835.90	228.24
836.22	228.23
836.53	228.19
836.85	228.17
837.16	228.35
837.48	228.34
837.79	228.41
838.11	228.41
838.42	228.39
838.74	228.41
839.05	228.40
839.37	228.38
839.68	228.27
840.00	228.27
840.31	228.28
840.63	228.26
840.94	228.24
841.26	228.23
841.57	228.21
841.88	228.23
842.20	228.21
842.51	228.18
842.83	228.17
843.14	228.33
843.46	228.32
843.77	228.22
844.08	228.21
844.40	228.14
844.71	228.12
845.03	228.12
845.34	228.09
845.65	228.09
845.97	228.09
846.28	228.10
846.60	228.11
846.91	228.07
847.22	228.07
847.54	228.11
847.85	228.12
848.16	228.10
848.48	228.06
848.79	228.13
849.10	228.14
849.42	228.15
849.73	227.99
850.04	227.98
850.36	227.92
850.67	227.95
850.98	227.95
851.30	227.96
851.61	227.96
851.92	227.95
852.23	228.00
852.55	228.01
852.86	228.01
853.17	228.02
853.49	228.06
853.80	228.10
854.11	228.09
854.42	228.11
854.74	228.10
855.05	228.10
855.36	228.01
855.67	228.00
855.99	228.00
856.30	228.20
856.61	228.19
856.92	228.20
857.23	228.20
857.55	228.18
857.86	228.16
858.17	228.19
858.48	228.16
858.79	228.12
859.11	228.13
859.42	228.12
859.73	228.09
860.04	228.08
860.35	228.02
860.66	227.97
860.98	227.95
861.29	227.98
861.60	227.96
861.91	228.00
862.22	227.98
862.53	227.95
862.84	227.73
863.16	227.77
863.47	227.74
863.78	227.71
864.09	227.73
864.40	227.74
864.71	227.73
865.02	227.76
865.33	227.72
865.64	227.68
865.95	227.68
866.27	227.78
866.58	227.75
866.89	227.78
867.20	227.77
867.51	227.73
867.82	227.71
868.13	227.77
868.44	227.72
868.75	227.75
869.06	227.75
869.37	227.78
869.68	227.73
869.99	227.77
870.30	227.78
870.61	227.79
870.92	227.76
871.23	227.73
871.54	227.75
871.85	227.80
872.16	227.82
872.47	227.81
872.78	227.71
873.09	227.73
873.40	227.71
873.71	227.73
874.02	227.75
874.33	227.73
874.64	227.69
874.95	227.72
875.26	227.68
875.56	227.69
875.87	227.67
876.18	227.67
876.49	227.84
876.80	227.82
877.11	227.79
877.42	227.79
877.73	227.80
878.04	227.78
878.35	227.77
878.66	227.77
878.96	227.76
879.27	227.76
879.58	227.75
879.89	227.73
880.20	227.78
880.51	227.76
880.82	227.76
881.12	227.78
881.43	227.73
881.74	227.72
882.05	227.70
882.36	227.72
882.67	227.73
882.97	227.54
883.28	227.52
883.59	227.52
883.90	227.54
884.21	227.57
884.51	227.55
884.82	227.53
885.13	227.53
885.44	227.53
885.74	227.53
886.05	227.52
886.36	227.54
886.67	227.47
886.98	227.57
887.28	227.58
887.59	227.58
887.90	227.59
888.20	227.58
888.51	227.62
888.82	227.60
889.13	227.60
889.43	227.75
889.74	227.74
890.05	227.75
890.35	227.73
890.66	227.70
890.97	227.69
891.28	227.67
891.58	227.67
891.89	227.67
892.20	227.65
892.50	227.63
892.81	227.61
893.12	227.61
893.42	227.52
893.73	227.51
894.04	227.51
894.34	227.52
894.65	227.51
894.95	227.51
895.26	227.51
895.57	227.58
895.87	227.39
896.18	227.43
896.48	227.45
896.79	227.44
897.10	227.46
897.40	227.47
897.71	227.48
898.01	227.47
898.32	227.49
898.63	227.49
898.93	227.51
899.24	227.51
899.54	227.50
899.85	227.50
900.15	227.50
900.46	227.49
900.76	227.51
901.07	227.51
901.38	227.50
901.68	227.52
901.99	227.43
902.29	227.45
902.60	227.43
902.90	227.40
903.21	227.40
903.51	227.38
903.82	227.42
904.12	227.42
904.43	227.42
904.73	227.41
905.03	227.42
905.34	227.58
905.64	227.56
905.95	227.56
906.25	227.55
906.56	227.55
906.86	227.55
907.17	227.53
907.47	227.55
907.77	227.53
908.08	227.49
908.38	227.50
908.69	227.50
908.99	227.53
909.30	227.55
909.60	227.55
909.90	227.56
910.21	227.51
910.51	227.48
910.81	227.48
911.12	227.49
911.42	227.49
911.73	227.32
912.03	227.34
912.33	227.38
912.64	227.37
912.94	227.36
913.24	227.32
913.55	227.31
913.85	227.30
914.15	227.34
914.46	227.36
914.76	227.35
915.06	227.35
915.37	227.31
915.67	227.30
915.97	227.30
916.27	227.27
916.58	227.28
916.88	227.28
917.18	227.28
917.49	227.40
917.79	227.39
918.09	227.41
918.39	227.46
918.70	227.44
919.00	227.46
919.30	227.53
919.60	227.54
919.91	227.52
920.21	227.53
920.51	227.49
920.81	227.47
921.12	227.50
921.42	227.49
921.72	227.51
922.02	227.53
922.32	227.54
922.63	227.57
922.93	227.67
923.23	227.68
923.53	227.67
923.83	227.54
924.13	227.56
924.44	227.56
924.74	227.58
925.04	227.62
925.34	227.62
925.64	227.55
925.94	227.55
926.24	227.65
926.55	227.64
926.85	227.68
927.15	227.68
927.45	227.68
927.75	227.68
928.05	227.68
928.35	227.67
928.65	227.70
928.95	227.70
929.26	227.60
929.56	227.63
929.86	227.65
930.16	227.64
930.46	227.62
930.76	227.62
931.06	227.55
931.36	227.50
931.66	227.53
931.96	227.56
932.26	227.56
932.56	227.49
932.86	227.50
933.16	227.49
933.46	227.47
933.76	227.44
934.06	227.47
934.36	227.52
934.66	227.52
934.96	227.48
935.26	227.49
935.56	227.52
935.86	227.47
936.16	227.44
936.46	227.42
936.76	227.41
937.06	227.38
937.36	227.39
937.66	227.39
937.96	227.38
938.26	227.33
938.56	227.32
938.86	227.33
939.16	227.36
939.46	227.38
939.76	227.40
940.06	227.40
940.35	227.36
940.65	227.27
940.95	227.28
941.25	227.25
941.55	227.22
941.85	227.20
942.15	227.25
942.45	227.30
942.75	227.30
943.04	227.31
943.34	227.35
943.64	227.33
943.94	227.31
944.24	227.30
944.54	227.31
944.84	227.32
945.13	227.28
945.43	227.24
945.73	227.23
946.03	227.22
946.33	227.19
946.62	227.18
946.92	227.18
947.22	227.19
947.52	227.20
947.82	227.22
948.11	227.21
948.41	227.17
948.71	227.11
949.01	227.12
949.31	227.11
949.60	227.09
949.90	227.12
950.20	227.10
950.50	227.10
950.79	227.09
951.09	227.12
951.39	227.11
951.69	227.10
951.98	227.11
952.28	227.12
952.58	227.13
952.87	227.14
953.17	227.16
953.47	227.14
953.76	227.14
954.06	227.10
954.36	227.07
954.66	227.08
954.95	227.13
955.25	227.14
955.55	227.15
955.84	227.13
956.14	227.14
956.44	227.15
956.73	227.12
957.03	227.13
957.32	227.13
957.62	227.12
957.92	227.15
958.21	227.14
958.51	227.34
958.81	227.35
959.10	227.36
959.40	227.40
959.69	227.41
959.99	227.44
960.29	227.44
960.58	227.43
960.88	227.50
961.17	227.48
961.47	227.49
961.76	227.48
962.06	227.52
962.36	227.49
962.65	227.50
962.95	227.51
963.24	227.50
963.54	227.50
963.83	227.52
964.13	227.51
964.42	227.49
964.72	227.35
965.01	227.36
965.31	227.34
965.60	227.29
965.90	227.40
966.19	227.36
966.49	227.38
966.78	227.38
967.08	227.36
967.37	227.35
967.67	227.33
967.96	227.36
968.26	227.34
968.55	227.37
968.85	227.36
969.14	227.36
969.43	227.35
969.73	227.34
970.02	227.34
970.32	227.32
970.61	227.30
970.91	227.24
971.20	227.22
971.49	227.21
971.79	227.24
972.08	227.12
972.38	227.12
972.67	227.12
972.96	227.15
973.26	227.11
973.55	227.17
973.85	227.17
974.14	227.15
974.43	227.17
974.73	227.14
975.02	227.12
975.31	227.13
975.61	227.13
975.90	227.10
976.19	227.08
976.49	227.10
976.78	227.10
977.07	227.11
977.37	227.12
977.66	227.13
977.95	227.10
978.24	227.11
978.54	227.15
978.83	227.14
979.12	227.13
979.42	227.13
979.71	227.09
980.00	227.08
980.29	227.09
980.59	227.05
980.88	227.10
981.17	227.10
981.46	227.10
981.76	227.10
982.05	227.15
982.34	227.17
982.63	227.18
982.93	227.19
983.22	227.24
983.51	227.25
983.80	227.28
984.09	227.29
984.39	227.29
984.68	227.26
984.97	227.28
985.26	227.27
985.55	227.27
985.85	227.25
986.14	227.28
986.43	227.30
986.72	227.30
987.01	227.24
987.30	227.24
987.59	227.23
987.89	227.24
988.18	227.19
988.47	227.17
988.76	227.14
989.05	227.13
989.34	227.11
989.63	227.14
989.92	227.10
990.22	227.08
990.51	227.08
990.80	227.07
991.09	227.07
991.38	227.10
991.67	227.08
991.96	227.07
992.25	227.06
992.54	227.02
992.83	227.03
993.12	227.03
993.41	227.05
993.70	227.12
993.99	227.15
994.28	227.17
994.58	227.20
994.87	227.18
995.16	227.18
995.45	227.16
995.74	227.09
996.03	227.12
996.32	227.14
996.61	227.17
996.90	227.17
997.19	227.18
997.48	227.17
997.77	227.15
998.06	227.16
998.34	227.14
998.63	227.14
998.92	227.13
999.21	227.17
999.50	227.16
999.79	227.11
1000.08	227.11
1000.37	227.11
1000.66	227.08
1000.95	227.15
1001.24	227.15
1001.53	227.17
1001.82	227.18
1002.11	227.15
1002.40	227.16
1002.68	227.20
1002.97	227.32
1003.26	227.30
1003.55	227.28
1003.84	227.28
1004.13	227.34
1004.42	227.34
1004.71	227.35
1004.99	227.34
1005.28	227.38
1005.57	227.37
1005.86	227.36
1006.15	227.35
1006.44	227.31
1006.72	227.33
1007.01	227.30
1007.30	227.30
1007.59	227.29
1007.88	227.30
1008.17	227.31
1008.45	227.27
1008.74	227.20
1009.03	227.12
1009.32	227.12
1009.60	227.12
1009.89	227.11
1010.18	227.04
1010.47	227.03
1010.76	227.03
1011.04	227.03
1011.33	227.03
1011.62	227.04
1011.91	227.05
1012.19	227.05
1012.48	227.07
1012.77	227.08
1013.05	227.13
1013.34	227.13
1013.63	227.12
1013.92	227.13
1014.20	227.11
1014.49	227.13
1014.78	227.15
1015.06	227.09
1015.35	227.10
1015.64	227.12
1015.92	227.15
1016.21	227.17
1016.50	227.17
1016.78	227.19
1017.07	227.20
1017.36	227.17
1017.64	227.14
1017.93	227.16
1018.22	227.14
1018.50	227.14
1018.79	227.13
1019.08	227.07
1019.36	227.08
1019.65	227.06
1019.93	227.10
1020.22	227.13
1020.51	227.22
1020.79	227.20
1021.08	226.87
1021.36	226.92
1021.65	227.11
1021.94	227.06
1022.22	227.21
1022.51	226.69
1022.79	227.96
1023.08	227.40
1023.36	229.26
1023.65	226.83
>>>>>End Processed Spectral Data<<<<<
