SpectraSuite Data File
++++++++++++++++++++++++++++++++++++
Date: Tue Oct 06 16:45:31 EDT 2015
User: lab3
Dark Spectrum Present: No
Reference Spectrum Present: No
Number of Sampled Component Spectra: 1
Spectrometers: USB2E7196
Integration Time (usec): 66000 (USB2E7196)
Spectra Averaged: 1000 (USB2E7196)
Boxcar Smoothing: 10 (USB2E7196)
Correct for Electrical Dark: No (USB2E7196)
Strobe/Lamp Enabled: No (USB2E7196)
Correct for Detector Non-linearity: No (USB2E7196)
Correct for Stray Light: No (USB2E7196)
Number of Pixels in Processed Spectrum: 2048
>>>>>Begin Processed Spectral Data<<<<<
339.09	0.00
339.48	215.12
339.86	216.78
340.24	218.21
340.63	219.51
341.01	223.70
341.39	222.41
341.78	223.69
342.16	225.10
342.54	225.24
342.93	213.78
343.31	224.58
343.69	225.13
344.07	225.60
344.46	226.04
344.84	226.45
345.22	226.63
345.60	226.90
345.99	227.10
346.37	227.24
346.75	227.36
347.13	227.45
347.52	227.54
347.90	227.67
348.28	227.71
348.66	227.80
349.05	227.79
349.43	227.86
349.81	227.91
350.19	227.98
350.57	228.06
350.96	228.15
351.34	228.25
351.72	228.35
352.10	228.47
352.48	228.54
352.87	228.58
353.25	228.65
353.63	228.71
354.01	228.77
354.39	228.85
354.77	228.93
355.15	229.05
355.54	229.09
355.92	229.10
356.30	229.18
356.68	229.35
357.06	229.43
357.44	229.45
357.82	229.51
358.20	229.73
358.58	229.77
358.97	229.84
359.35	229.92
359.73	230.01
360.11	230.05
360.49	230.10
360.87	230.15
361.25	230.21
361.63	230.32
362.01	230.37
362.39	230.39
362.77	230.44
363.15	230.46
363.53	230.48
363.91	230.52
364.29	230.53
364.67	230.39
365.05	230.40
365.43	230.45
365.81	230.48
366.19	230.43
366.57	230.51
366.95	230.50
367.33	230.46
367.71	230.45
368.09	230.49
368.47	230.49
368.85	230.47
369.23	230.49
369.61	230.40
369.99	230.44
370.37	230.45
370.75	230.58
371.13	230.53
371.51	230.49
371.89	230.48
372.27	230.47
372.65	230.46
373.03	230.42
373.41	230.38
373.78	230.31
374.16	230.20
374.54	230.10
374.92	230.05
375.30	230.01
375.68	229.94
376.06	229.91
376.44	229.85
376.82	229.82
377.19	229.78
377.57	229.75
377.95	229.64
378.33	229.57
378.71	229.36
379.09	229.33
379.47	229.30
379.84	229.24
380.22	229.16
380.60	229.07
380.98	229.04
381.36	228.99
381.73	228.93
382.11	228.90
382.49	228.87
382.87	228.82
383.25	228.78
383.62	228.95
384.00	228.86
384.38	228.84
384.76	228.84
385.13	228.85
385.51	228.82
385.89	228.76
386.27	228.75
386.64	228.75
387.02	228.70
387.40	228.65
387.78	228.64
388.15	228.64
388.53	228.62
388.91	228.60
389.29	228.58
389.66	228.59
390.04	228.55
390.42	228.57
390.79	228.57
391.17	228.55
391.55	228.34
391.92	228.34
392.30	228.36
392.68	228.32
393.05	228.30
393.43	228.31
393.81	228.34
394.18	228.32
394.56	228.33
394.94	228.38
395.31	228.39
395.69	228.46
396.06	228.49
396.44	228.53
396.82	228.54
397.19	228.67
397.57	228.68
397.95	228.76
398.32	228.76
398.70	228.82
399.07	228.92
399.45	229.00
399.82	229.07
400.20	229.12
400.58	229.20
400.95	229.22
401.33	229.35
401.70	229.58
402.08	229.74
402.45	229.86
402.83	230.04
403.20	230.21
403.58	230.34
403.95	230.56
404.33	230.79
404.71	231.00
405.08	231.31
405.46	231.57
405.83	231.84
406.21	232.12
406.58	232.44
406.96	232.76
407.33	233.12
407.70	233.54
408.08	234.13
408.45	234.64
408.83	235.19
409.20	235.70
409.58	236.14
409.95	236.76
410.33	237.44
410.70	238.08
411.08	238.85
411.45	239.65
411.82	240.47
412.20	241.41
412.57	242.52
412.95	243.40
413.32	244.54
413.69	245.73
414.07	246.99
414.44	248.36
414.82	249.75
415.19	251.40
415.56	253.08
415.94	254.80
416.31	256.74
416.68	258.70
417.06	260.95
417.43	263.08
417.81	265.53
418.18	268.01
418.55	270.74
418.93	273.57
419.30	276.52
419.67	279.66
420.04	282.87
420.42	286.26
420.79	290.16
421.16	294.11
421.54	298.08
421.91	302.25
422.28	306.60
422.66	311.26
423.03	315.68
423.40	320.33
423.77	325.33
424.15	330.43
424.52	335.73
424.89	341.45
425.26	347.13
425.64	352.40
426.01	358.33
426.38	364.37
426.75	370.58
427.13	376.95
427.50	383.62
427.87	390.54
428.24	397.50
428.61	404.16
428.99	411.35
429.36	419.26
429.73	426.82
430.10	434.34
430.47	442.05
430.85	450.03
431.22	458.52
431.59	467.23
431.96	475.72
432.33	485.15
432.70	494.13
433.08	504.76
433.45	514.77
433.82	524.67
434.19	535.77
434.56	546.66
434.93	557.25
435.30	567.77
435.68	579.69
436.05	591.32
436.42	602.98
436.79	613.63
437.16	625.19
437.53	637.54
437.90	649.92
438.27	662.06
438.64	675.18
439.01	687.10
439.38	698.02
439.75	708.60
440.13	720.65
440.50	732.13
440.87	741.31
441.24	751.39
441.61	762.44
441.98	770.61
442.35	780.36
442.72	790.23
443.09	799.62
443.46	805.77
443.83	810.47
444.20	814.37
444.57	820.00
444.94	823.38
445.31	826.89
445.68	829.91
446.05	832.21
446.42	831.97
446.79	831.47
447.16	831.12
447.53	830.78
447.90	827.30
448.27	823.96
448.64	818.65
449.01	815.03
449.37	807.45
449.74	800.57
450.11	791.63
450.48	781.85
450.85	772.02
451.22	763.55
451.59	755.21
451.96	747.68
452.33	736.74
452.70	727.00
453.07	715.17
453.43	703.37
453.80	691.85
454.17	680.82
454.54	670.67
454.91	659.16
455.28	648.34
455.65	638.12
456.02	627.30
456.38	618.60
456.75	607.45
457.12	598.44
457.49	589.36
457.86	580.75
458.23	573.15
458.59	564.81
458.96	556.25
459.33	548.72
459.70	541.07
460.07	535.24
460.43	528.34
460.80	521.89
461.17	516.27
461.54	510.21
461.91	504.55
462.27	498.75
462.64	494.01
463.01	488.62
463.38	483.16
463.74	478.22
464.11	473.86
464.48	469.90
464.85	465.64
465.21	462.39
465.58	458.78
465.95	454.68
466.32	451.40
466.68	448.18
467.05	444.95
467.42	441.78
467.78	438.41
468.15	435.31
468.52	433.03
468.88	430.02
469.25	427.28
469.62	425.08
469.98	422.74
470.35	420.63
470.72	418.71
471.08	416.80
471.45	415.18
471.82	413.35
472.18	411.46
472.55	410.23
472.92	408.69
473.28	407.48
473.65	406.21
474.02	404.98
474.38	403.95
474.75	403.34
475.11	402.52
475.48	402.12
475.85	401.68
476.21	401.43
476.58	401.26
476.94	401.43
477.31	401.48
477.67	401.55
478.04	401.87
478.41	402.29
478.77	402.89
479.14	403.26
479.50	404.05
479.87	405.06
480.23	406.04
480.60	406.98
480.96	407.94
481.33	409.37
481.69	410.79
482.06	412.19
482.42	413.47
482.79	415.09
483.15	416.95
483.52	419.07
483.88	421.11
484.25	423.25
484.61	425.51
484.98	427.94
485.34	430.67
485.71	433.52
486.07	436.58
486.44	439.61
486.80	443.01
487.17	446.50
487.53	450.26
487.90	454.19
488.26	458.50
488.62	462.99
488.99	467.52
489.35	472.26
489.72	477.36
490.08	482.74
490.44	488.20
490.81	493.92
491.17	499.80
491.54	506.09
491.90	512.53
492.26	519.40
492.63	526.59
492.99	534.11
493.36	541.79
493.72	549.86
494.08	558.12
494.45	566.78
494.81	575.81
495.17	585.11
495.54	594.93
495.90	605.18
496.26	615.60
496.63	626.33
496.99	637.42
497.35	648.99
497.72	660.85
498.08	673.09
498.44	685.63
498.80	698.87
499.17	712.39
499.53	726.38
499.89	740.78
500.26	755.38
500.62	770.34
500.98	786.11
501.34	801.89
501.71	818.49
502.07	835.36
502.43	852.68
502.79	870.21
503.16	888.26
503.52	906.46
503.88	925.12
504.24	944.19
504.60	963.51
504.97	983.52
505.33	1003.93
505.69	1025.33
506.05	1046.94
506.41	1068.46
506.78	1090.09
507.14	1112.26
507.50	1134.97
507.86	1157.99
508.22	1181.20
508.59	1204.24
508.95	1228.36
509.31	1252.94
509.67	1278.12
510.03	1303.24
510.39	1328.27
510.75	1353.32
511.12	1378.76
511.48	1404.33
511.84	1429.91
512.20	1455.78
512.56	1482.61
512.92	1509.27
513.28	1535.35
513.64	1561.74
514.00	1588.46
514.37	1615.47
514.73	1642.53
515.09	1668.79
515.45	1695.41
515.81	1722.18
516.17	1748.71
516.53	1774.54
516.89	1800.21
517.25	1826.15
517.61	1851.86
517.97	1878.16
518.33	1903.78
518.69	1929.30
519.05	1955.22
519.41	1981.23
519.77	2007.20
520.13	2031.72
520.49	2056.31
520.85	2081.21
521.21	2105.57
521.57	2130.23
521.93	2153.83
522.29	2178.00
522.65	2202.00
523.01	2225.67
523.37	2248.61
523.73	2272.25
524.09	2295.59
524.45	2318.54
524.81	2340.82
525.17	2362.86
525.53	2384.24
525.89	2406.06
526.25	2427.41
526.61	2447.13
526.97	2466.86
527.33	2486.42
527.68	2505.64
528.04	2524.50
528.40	2542.03
528.76	2559.79
529.12	2577.10
529.48	2594.97
529.84	2610.09
530.20	2625.65
530.56	2640.35
530.91	2655.22
531.27	2669.53
531.63	2682.82
531.99	2695.85
532.35	2708.58
532.71	2720.91
533.07	2733.46
533.42	2744.18
533.78	2755.11
534.14	2766.98
534.50	2777.73
534.86	2789.07
535.21	2798.32
535.57	2807.32
535.93	2816.24
536.29	2823.38
536.65	2830.29
537.00	2835.65
537.36	2842.48
537.72	2848.28
538.08	2853.52
538.44	2857.69
538.79	2861.62
539.15	2864.26
539.51	2866.22
539.87	2866.96
540.22	2866.22
540.58	2865.69
540.94	2866.04
541.29	2865.12
541.65	2862.94
542.01	2860.35
542.37	2856.11
542.72	2853.44
543.08	2849.21
543.44	2845.18
543.79	2840.63
544.15	2835.40
544.51	2830.43
544.87	2824.35
545.22	2817.40
545.58	2810.36
545.94	2803.47
546.29	2795.16
546.65	2787.12
547.01	2779.12
547.36	2771.59
547.72	2764.20
548.07	2755.14
548.43	2744.93
548.79	2734.63
549.14	2724.58
549.50	2714.66
549.86	2703.91
550.21	2691.55
550.57	2680.27
550.92	2667.23
551.28	2654.75
551.64	2642.52
551.99	2630.04
552.35	2617.17
552.70	2604.13
553.06	2591.56
553.41	2578.60
553.77	2565.32
554.13	2552.12
554.48	2537.91
554.84	2522.92
555.19	2508.44
555.55	2493.86
555.90	2479.72
556.26	2465.89
556.61	2450.97
556.97	2435.10
557.32	2419.69
557.68	2404.60
558.03	2389.24
558.39	2374.79
558.74	2360.93
559.10	2345.23
559.45	2329.85
559.81	2315.13
560.16	2300.19
560.52	2285.01
560.87	2269.96
561.23	2254.63
561.58	2239.77
561.94	2224.48
562.29	2208.76
562.64	2193.17
563.00	2177.77
563.35	2162.50
563.71	2146.91
564.06	2131.45
564.42	2116.53
564.77	2101.63
565.12	2086.50
565.48	2071.20
565.83	2056.15
566.19	2041.11
566.54	2026.35
566.89	2010.95
567.25	1995.47
567.60	1980.77
567.96	1965.34
568.31	1948.81
568.66	1933.19
569.02	1918.11
569.37	1903.63
569.72	1889.74
570.08	1875.35
570.43	1860.42
570.78	1845.35
571.14	1830.07
571.49	1814.91
571.84	1800.04
572.20	1784.08
572.55	1768.92
572.90	1753.76
573.26	1738.62
573.61	1722.83
573.96	1707.61
574.31	1692.31
574.67	1676.84
575.02	1661.11
575.37	1645.47
575.72	1630.47
576.08	1615.29
576.43	1599.54
576.78	1583.89
577.13	1568.43
577.49	1553.28
577.84	1538.58
578.19	1523.37
578.54	1508.29
578.90	1493.12
579.25	1477.80
579.60	1463.65
579.95	1449.21
580.30	1434.78
580.66	1420.09
581.01	1405.50
581.36	1391.01
581.71	1377.24
582.06	1363.51
582.42	1349.61
582.77	1336.16
583.12	1323.01
583.47	1309.73
583.82	1296.65
584.17	1283.20
584.53	1269.83
584.88	1256.72
585.23	1243.45
585.58	1230.61
585.93	1217.64
586.28	1205.65
586.63	1193.53
586.98	1181.07
587.34	1168.99
587.69	1156.65
588.04	1144.74
588.39	1133.13
588.74	1121.08
589.09	1109.21
589.44	1097.06
589.79	1085.46
590.14	1073.92
590.49	1062.41
590.84	1051.17
591.19	1040.16
591.54	1029.30
591.89	1018.05
592.25	1007.14
592.60	996.18
592.95	985.34
593.30	974.84
593.65	964.07
594.00	953.60
594.35	943.95
594.70	933.65
595.05	924.02
595.40	914.12
595.75	904.07
596.10	894.66
596.45	885.24
596.80	876.14
597.15	867.07
597.50	858.04
597.85	849.24
598.19	840.45
598.54	831.65
598.89	823.30
599.24	815.35
599.59	807.21
599.94	799.65
600.29	792.13
600.64	784.48
600.99	776.73
601.34	769.18
601.69	761.16
602.04	753.96
602.39	746.67
602.74	739.59
603.08	732.64
603.43	725.69
603.78	718.68
604.13	711.82
604.48	704.98
604.83	698.32
605.18	691.74
605.53	685.31
605.87	678.86
606.22	672.51
606.57	666.11
606.92	659.63
607.27	653.19
607.62	646.93
607.96	640.92
608.31	635.33
608.66	629.68
609.01	624.28
609.36	618.86
609.70	613.38
610.05	607.91
610.40	602.63
610.75	597.35
611.10	592.28
611.44	587.19
611.79	582.22
612.14	577.18
612.49	572.23
612.83	567.52
613.18	562.86
613.53	558.22
613.88	553.71
614.22	549.54
614.57	545.23
614.92	541.05
615.27	536.98
615.61	532.83
615.96	528.71
616.31	524.60
616.65	520.63
617.00	516.78
617.35	512.97
617.70	509.19
618.04	505.51
618.39	501.92
618.74	498.56
619.08	495.17
619.43	491.90
619.78	488.56
620.12	485.22
620.47	482.09
620.82	479.00
621.16	475.93
621.51	472.91
621.85	469.96
622.20	467.04
622.55	464.11
622.89	461.21
623.24	458.49
623.59	455.80
623.93	453.19
624.28	450.71
624.62	448.44
624.97	446.16
625.32	443.77
625.66	441.38
626.01	438.95
626.35	436.66
626.70	434.31
627.04	432.13
627.39	429.94
627.73	427.82
628.08	425.77
628.43	423.73
628.77	421.60
629.12	419.59
629.46	417.68
629.81	415.88
630.15	414.03
630.50	412.18
630.84	410.38
631.19	408.61
631.53	406.92
631.88	405.05
632.22	403.30
632.57	401.80
632.91	400.26
633.26	398.79
633.60	397.35
633.95	395.99
634.29	394.52
634.64	393.10
634.98	391.53
635.32	390.15
635.67	388.89
636.01	387.64
636.36	386.40
636.70	385.28
637.05	383.99
637.39	382.83
637.73	381.67
638.08	380.57
638.42	379.52
638.77	378.35
639.11	377.14
639.45	375.96
639.80	374.74
640.14	373.60
640.49	372.44
640.83	371.28
641.17	370.16
641.52	369.05
641.86	367.99
642.20	367.10
642.55	366.00
642.89	364.93
643.23	363.94
643.58	363.07
643.92	362.03
644.26	361.05
644.61	360.12
644.95	359.18
645.29	358.15
645.64	357.10
645.98	356.16
646.32	355.33
646.66	354.45
647.01	353.58
647.35	352.81
647.69	351.99
648.04	351.24
648.38	350.45
648.72	349.70
649.06	348.92
649.41	348.07
649.75	347.31
650.09	346.59
650.43	345.81
650.78	345.01
651.12	344.26
651.46	343.53
651.80	342.83
652.14	342.15
652.49	341.52
652.83	340.83
653.17	340.11
653.51	339.42
653.85	338.83
654.20	338.20
654.54	337.45
654.88	336.77
655.22	336.13
655.56	335.43
655.90	334.78
656.25	334.15
656.59	333.54
656.93	332.97
657.27	332.43
657.61	331.83
657.95	331.28
658.29	330.70
658.64	330.14
658.98	329.53
659.32	328.94
659.66	328.38
660.00	327.86
660.34	327.36
660.68	326.79
661.02	326.15
661.36	325.57
661.70	325.02
662.05	324.48
662.39	323.95
662.73	323.51
663.07	323.09
663.41	322.64
663.75	322.14
664.09	321.63
664.43	321.00
664.77	320.49
665.11	319.91
665.45	319.39
665.79	318.90
666.13	318.37
666.47	317.85
666.81	317.27
667.15	316.65
667.49	316.18
667.83	315.75
668.17	315.30
668.51	314.87
668.85	314.47
669.19	314.11
669.53	313.57
669.87	313.02
670.21	312.48
670.55	311.96
670.89	311.56
671.23	311.12
671.57	310.72
671.91	310.36
672.25	310.01
672.58	309.66
672.92	309.22
673.26	308.86
673.60	308.49
673.94	308.14
674.28	307.80
674.62	307.42
674.96	306.98
675.30	306.57
675.64	306.14
675.97	305.68
676.31	305.18
676.65	304.77
676.99	304.43
677.33	303.99
677.67	303.60
678.01	303.12
678.34	302.68
678.68	302.28
679.02	301.82
679.36	301.38
679.70	300.92
680.04	300.53
680.37	300.11
680.71	299.72
681.05	299.35
681.39	298.93
681.73	298.47
682.06	298.03
682.40	297.64
682.74	297.27
683.08	296.97
683.42	296.59
683.75	296.24
684.09	295.78
684.43	295.39
684.77	294.96
685.10	294.56
685.44	294.17
685.78	293.77
686.12	293.36
686.45	292.94
686.79	292.50
687.13	292.08
687.46	291.63
687.80	291.21
688.14	290.73
688.48	290.31
688.81	289.91
689.15	289.57
689.49	289.12
689.82	288.69
690.16	288.15
690.50	287.71
690.83	287.27
691.17	286.81
691.51	286.39
691.84	286.02
692.18	285.59
692.52	285.13
692.85	284.68
693.19	284.30
693.52	283.89
693.86	283.45
694.20	283.02
694.53	282.62
694.87	282.15
695.21	281.73
695.54	281.31
695.88	280.87
696.21	280.38
696.55	279.95
696.88	279.50
697.22	279.07
697.56	278.68
697.89	278.21
698.23	277.81
698.56	277.38
698.90	276.96
699.23	276.52
699.57	276.14
699.90	275.73
700.24	275.28
700.58	274.89
700.91	274.55
701.25	274.32
701.58	273.99
701.92	273.66
702.25	273.29
702.59	272.89
702.92	272.51
703.26	272.12
703.59	271.73
703.93	271.49
704.26	271.14
704.60	270.76
704.93	270.39
705.26	270.00
705.60	269.65
705.93	269.24
706.27	268.95
706.60	268.62
706.94	268.31
707.27	267.91
707.61	267.55
707.94	267.14
708.27	266.61
708.61	266.18
708.94	265.78
709.28	265.41
709.61	265.04
709.94	264.71
710.28	264.38
710.61	264.07
710.95	263.56
711.28	263.33
711.61	262.98
711.95	262.68
712.28	262.33
712.61	261.97
712.95	261.74
713.28	261.46
713.61	261.11
713.95	260.74
714.28	260.44
714.61	260.09
714.95	259.79
715.28	259.48
715.61	259.19
715.95	258.91
716.28	258.61
716.61	258.35
716.95	258.04
717.28	257.75
717.61	257.45
717.94	257.19
718.28	256.80
718.61	256.52
718.94	256.21
719.27	255.96
719.61	255.71
719.94	255.40
720.27	255.05
720.60	254.79
720.94	254.53
721.27	254.28
721.60	254.07
721.93	253.79
722.27	253.59
722.60	253.34
722.93	253.06
723.26	252.83
723.59	252.55
723.93	252.33
724.26	252.11
724.59	251.86
724.92	251.65
725.25	251.47
725.59	251.24
725.92	251.04
726.25	250.82
726.58	250.61
726.91	250.37
727.24	250.16
727.57	249.93
727.91	249.68
728.24	249.50
728.57	249.27
728.90	249.08
729.23	248.83
729.56	248.70
729.89	248.49
730.22	248.29
730.55	248.10
730.89	247.91
731.22	247.69
731.55	247.51
731.88	247.32
732.21	247.10
732.54	246.91
732.87	246.72
733.20	246.56
733.53	246.37
733.86	246.22
734.19	246.02
734.52	245.88
734.85	245.84
735.18	245.63
735.51	245.51
735.84	245.36
736.17	245.25
736.50	244.99
736.83	245.04
737.16	244.87
737.49	244.71
737.82	244.53
738.15	244.39
738.48	244.22
738.81	244.05
739.14	243.87
739.47	243.69
739.80	243.54
740.13	243.38
740.46	243.21
740.79	243.01
741.12	242.87
741.45	242.67
741.78	242.43
742.11	242.32
742.44	242.12
742.77	241.99
743.10	241.79
743.43	241.64
743.75	241.32
744.08	241.43
744.41	241.27
744.74	241.13
745.07	240.94
745.40	240.86
745.73	240.78
746.06	240.66
746.39	240.56
746.71	240.40
747.04	240.25
747.37	240.11
747.70	240.02
748.03	239.89
748.36	239.79
748.68	239.66
749.01	239.48
749.34	239.37
749.67	239.24
750.00	239.15
750.33	239.16
750.65	239.05
750.98	238.68
751.31	238.58
751.64	238.48
751.97	238.47
752.29	238.32
752.62	238.12
752.95	238.00
753.28	237.86
753.60	237.74
753.93	237.67
754.26	237.58
754.59	237.41
754.91	237.29
755.24	237.16
755.57	237.05
755.90	236.94
756.22	236.82
756.55	236.68
756.88	236.54
757.20	236.32
757.53	236.17
757.86	236.06
758.19	235.96
758.51	235.86
758.84	235.67
759.17	235.56
759.49	235.48
759.82	235.48
760.15	235.40
760.47	235.31
760.80	235.16
761.13	235.11
761.45	235.03
761.78	234.94
762.11	234.87
762.43	234.77
762.76	234.69
763.08	234.62
763.41	234.56
763.74	234.48
764.06	234.40
764.39	234.34
764.71	234.25
765.04	234.16
765.37	234.07
765.69	233.99
766.02	233.91
766.34	233.82
766.67	233.69
767.00	233.65
767.32	233.68
767.65	233.72
767.97	233.63
768.30	233.57
768.62	233.51
768.95	233.43
769.27	233.36
769.60	233.32
769.92	233.24
770.25	233.15
770.57	233.07
770.90	233.00
771.22	232.93
771.55	232.89
771.87	232.85
772.20	232.80
772.52	232.91
772.85	233.08
773.17	233.03
773.50	232.96
773.82	232.87
774.15	232.74
774.47	232.57
774.80	232.51
775.12	232.45
775.45	232.40
775.77	232.36
776.09	232.32
776.42	232.28
776.74	232.29
777.07	232.24
777.39	232.21
777.72	232.17
778.04	232.15
778.36	232.09
778.69	232.05
779.01	232.01
779.33	231.82
779.66	231.58
779.98	231.53
780.31	231.51
780.63	231.54
780.95	231.54
781.28	231.51
781.60	231.45
781.92	231.42
782.25	231.38
782.57	231.35
782.89	231.30
783.22	231.26
783.54	231.20
783.86	231.18
784.19	231.14
784.51	231.15
784.83	231.09
785.16	231.05
785.48	231.03
785.80	231.00
786.12	230.98
786.45	230.94
786.77	230.94
787.09	230.89
787.42	230.80
787.74	230.77
788.06	230.76
788.38	230.74
788.71	230.69
789.03	230.68
789.35	230.68
789.67	230.63
789.99	230.61
790.32	230.56
790.64	230.54
790.96	230.69
791.28	230.60
791.61	230.58
791.93	230.56
792.25	230.53
792.57	230.63
792.89	230.57
793.21	230.56
793.54	230.51
793.86	230.48
794.18	230.45
794.50	230.39
794.82	230.35
795.14	230.35
795.47	230.36
795.79	230.34
796.11	230.27
796.43	230.25
796.75	230.22
797.07	230.21
797.39	230.17
797.71	229.99
798.04	229.98
798.36	229.98
798.68	229.95
799.00	229.93
799.32	229.81
799.64	229.82
799.96	229.79
800.28	229.80
800.60	229.77
800.92	229.76
801.24	229.75
801.56	229.74
801.89	229.70
802.21	229.69
802.53	229.63
802.85	229.65
803.17	229.71
803.49	229.66
803.81	229.62
804.13	229.61
804.45	229.57
804.77	229.56
805.09	229.54
805.41	229.50
805.73	229.45
806.05	229.40
806.37	229.37
806.69	229.34
807.01	229.31
807.33	229.30
807.65	229.22
807.97	229.28
808.28	229.25
808.60	229.23
808.92	229.17
809.24	229.28
809.56	229.24
809.88	229.16
810.20	229.16
810.52	229.18
810.84	229.13
811.16	229.11
811.48	229.09
811.80	229.14
812.12	229.14
812.43	229.16
812.75	229.13
813.07	229.11
813.39	229.11
813.71	229.07
814.03	229.05
814.35	229.06
814.67	228.99
814.98	228.96
815.30	228.95
815.62	228.93
815.94	228.80
816.26	228.80
816.58	228.75
816.89	228.76
817.21	228.71
817.53	228.71
817.85	228.70
818.17	228.69
818.48	228.59
818.80	228.62
819.12	228.58
819.44	228.57
819.76	228.54
820.07	228.52
820.39	228.51
820.71	228.52
821.03	228.50
821.34	228.48
821.66	228.49
821.98	228.49
822.30	228.47
822.61	228.58
822.93	228.54
823.25	228.54
823.57	228.52
823.88	228.52
824.20	228.53
824.52	228.56
824.83	228.55
825.15	228.52
825.47	228.50
825.79	228.52
826.10	228.49
826.42	228.48
826.74	228.49
827.05	228.48
827.37	228.47
827.69	228.47
828.00	228.46
828.32	228.45
828.64	228.43
828.95	228.53
829.27	228.47
829.58	228.47
829.90	228.49
830.22	228.49
830.53	228.45
830.85	228.42
831.17	228.37
831.48	228.37
831.80	228.38
832.11	228.34
832.43	228.30
832.75	228.30
833.06	228.40
833.38	228.34
833.69	228.32
834.01	228.33
834.32	228.30
834.64	228.28
834.96	228.28
835.27	228.27
835.59	228.19
835.90	228.16
836.22	228.15
836.53	228.11
836.85	228.08
837.16	228.26
837.48	228.26
837.79	228.30
838.11	228.30
838.42	228.29
838.74	228.32
839.05	228.30
839.37	228.30
839.68	228.18
840.00	228.18
840.31	228.21
840.63	228.18
840.94	228.15
841.26	228.13
841.57	228.12
841.88	228.12
842.20	228.09
842.51	228.06
842.83	228.06
843.14	228.22
843.46	228.21
843.77	228.09
844.08	228.08
844.40	228.01
844.71	227.99
845.03	227.96
845.34	227.94
845.65	227.94
845.97	227.93
846.28	227.94
846.60	227.94
846.91	227.90
847.22	227.90
847.54	227.95
847.85	227.95
848.16	227.94
848.48	227.90
848.79	227.96
849.10	227.98
849.42	227.98
849.73	227.81
850.04	227.82
850.36	227.76
850.67	227.79
850.98	227.80
851.30	227.82
851.61	227.81
851.92	227.81
852.23	227.87
852.55	227.88
852.86	227.87
853.17	227.88
853.49	227.92
853.80	227.95
854.11	227.96
854.42	227.99
854.74	227.97
855.05	227.97
855.36	227.88
855.67	227.88
855.99	227.87
856.30	228.08
856.61	228.07
856.92	228.08
857.23	228.08
857.55	228.06
857.86	228.04
858.17	228.08
858.48	228.04
858.79	228.00
859.11	228.01
859.42	227.99
859.73	227.97
860.04	227.96
860.35	227.90
860.66	227.85
860.98	227.83
861.29	227.86
861.60	227.86
861.91	227.91
862.22	227.89
862.53	227.86
862.84	227.65
863.16	227.69
863.47	227.65
863.78	227.63
864.09	227.64
864.40	227.65
864.71	227.64
865.02	227.66
865.33	227.65
865.64	227.61
865.95	227.62
866.27	227.74
866.58	227.71
866.89	227.74
867.20	227.74
867.51	227.71
867.82	227.68
868.13	227.74
868.44	227.71
868.75	227.74
869.06	227.77
869.37	227.80
869.68	227.75
869.99	227.79
870.30	227.80
870.61	227.82
870.92	227.80
871.23	227.78
871.54	227.81
871.85	227.85
872.16	227.86
872.47	227.85
872.78	227.75
873.09	227.78
873.40	227.76
873.71	227.77
874.02	227.79
874.33	227.79
874.64	227.74
874.95	227.76
875.26	227.72
875.56	227.70
875.87	227.68
876.18	227.67
876.49	227.83
876.80	227.81
877.11	227.78
877.42	227.79
877.73	227.79
878.04	227.76
878.35	227.75
878.66	227.75
878.96	227.74
879.27	227.72
879.58	227.70
879.89	227.68
880.20	227.72
880.51	227.71
880.82	227.72
881.12	227.72
881.43	227.68
881.74	227.65
882.05	227.64
882.36	227.65
882.67	227.67
882.97	227.47
883.28	227.46
883.59	227.45
883.90	227.47
884.21	227.49
884.51	227.48
884.82	227.46
885.13	227.46
885.44	227.47
885.74	227.47
886.05	227.47
886.36	227.48
886.67	227.41
886.98	227.49
887.28	227.51
887.59	227.50
887.90	227.51
888.20	227.52
888.51	227.56
888.82	227.52
889.13	227.52
889.43	227.69
889.74	227.67
890.05	227.67
890.35	227.64
890.66	227.60
890.97	227.58
891.28	227.55
891.58	227.55
891.89	227.55
892.20	227.53
892.50	227.52
892.81	227.50
893.12	227.49
893.42	227.40
893.73	227.39
894.04	227.38
894.34	227.39
894.65	227.38
894.95	227.36
895.26	227.37
895.57	227.45
895.87	227.26
896.18	227.28
896.48	227.30
896.79	227.30
897.10	227.33
897.40	227.34
897.71	227.37
898.01	227.36
898.32	227.38
898.63	227.38
898.93	227.40
899.24	227.41
899.54	227.41
899.85	227.41
900.15	227.40
900.46	227.40
900.76	227.42
901.07	227.43
901.38	227.42
901.68	227.43
901.99	227.34
902.29	227.35
902.60	227.33
902.90	227.32
903.21	227.32
903.51	227.31
903.82	227.33
904.12	227.33
904.43	227.34
904.73	227.32
905.03	227.33
905.34	227.49
905.64	227.47
905.95	227.48
906.25	227.46
906.56	227.47
906.86	227.47
907.17	227.45
907.47	227.46
907.77	227.44
908.08	227.40
908.38	227.42
908.69	227.42
908.99	227.46
909.30	227.47
909.60	227.47
909.90	227.47
910.21	227.43
910.51	227.40
910.81	227.40
911.12	227.40
911.42	227.41
911.73	227.22
912.03	227.24
912.33	227.27
912.64	227.27
912.94	227.26
913.24	227.23
913.55	227.23
913.85	227.21
914.15	227.24
914.46	227.27
914.76	227.26
915.06	227.25
915.37	227.22
915.67	227.21
915.97	227.21
916.27	227.19
916.58	227.20
916.88	227.20
917.18	227.17
917.49	227.29
917.79	227.27
918.09	227.31
918.39	227.35
918.70	227.34
919.00	227.35
919.30	227.43
919.60	227.41
919.91	227.39
920.21	227.40
920.51	227.36
920.81	227.34
921.12	227.37
921.42	227.36
921.72	227.37
922.02	227.38
922.32	227.41
922.63	227.42
922.93	227.51
923.23	227.52
923.53	227.51
923.83	227.40
924.13	227.42
924.44	227.41
924.74	227.43
925.04	227.47
925.34	227.47
925.64	227.40
925.94	227.41
926.24	227.51
926.55	227.49
926.85	227.52
927.15	227.52
927.45	227.52
927.75	227.53
928.05	227.53
928.35	227.51
928.65	227.54
928.95	227.54
929.26	227.46
929.56	227.49
929.86	227.51
930.16	227.49
930.46	227.48
930.76	227.49
931.06	227.40
931.36	227.34
931.66	227.37
931.96	227.39
932.26	227.40
932.56	227.33
932.86	227.34
933.16	227.34
933.46	227.31
933.76	227.28
934.06	227.31
934.36	227.37
934.66	227.36
934.96	227.33
935.26	227.34
935.56	227.36
935.86	227.31
936.16	227.29
936.46	227.28
936.76	227.27
937.06	227.24
937.36	227.25
937.66	227.26
937.96	227.25
938.26	227.21
938.56	227.20
938.86	227.20
939.16	227.23
939.46	227.24
939.76	227.26
940.06	227.27
940.35	227.23
940.65	227.13
940.95	227.14
941.25	227.09
941.55	227.06
941.85	227.04
942.15	227.08
942.45	227.13
942.75	227.13
943.04	227.14
943.34	227.17
943.64	227.17
943.94	227.14
944.24	227.14
944.54	227.16
944.84	227.15
945.13	227.13
945.43	227.10
945.73	227.10
946.03	227.08
946.33	227.05
946.62	227.04
946.92	227.05
947.22	227.07
947.52	227.09
947.82	227.13
948.11	227.11
948.41	227.07
948.71	227.02
949.01	227.04
949.31	227.01
949.60	226.99
949.90	227.01
950.20	227.01
950.50	227.00
950.79	226.98
951.09	227.00
951.39	227.01
951.69	226.99
951.98	227.02
952.28	227.03
952.58	227.05
952.87	227.04
953.17	227.07
953.47	227.04
953.76	227.04
954.06	227.00
954.36	226.97
954.66	226.97
954.95	227.01
955.25	227.03
955.55	227.04
955.84	227.02
956.14	227.04
956.44	227.05
956.73	227.03
957.03	227.06
957.32	227.05
957.62	227.03
957.92	227.08
958.21	227.05
958.51	227.25
958.81	227.26
959.10	227.29
959.40	227.33
959.69	227.35
959.99	227.37
960.29	227.38
960.58	227.38
960.88	227.45
961.17	227.44
961.47	227.45
961.76	227.44
962.06	227.48
962.36	227.45
962.65	227.46
962.95	227.47
963.24	227.44
963.54	227.45
963.83	227.47
964.13	227.43
964.42	227.41
964.72	227.26
965.01	227.26
965.31	227.25
965.60	227.20
965.90	227.30
966.19	227.27
966.49	227.28
966.78	227.28
967.08	227.25
967.37	227.25
967.67	227.22
967.96	227.26
968.26	227.24
968.55	227.27
968.85	227.27
969.14	227.27
969.43	227.27
969.73	227.26
970.02	227.25
970.32	227.25
970.61	227.24
970.91	227.20
971.20	227.18
971.49	227.17
971.79	227.19
972.08	227.07
972.38	227.09
972.67	227.07
972.96	227.10
973.26	227.06
973.55	227.11
973.85	227.10
974.14	227.07
974.43	227.09
974.73	227.06
975.02	227.04
975.31	227.03
975.61	227.04
975.90	227.03
976.19	227.02
976.49	227.03
976.78	227.04
977.07	227.04
977.37	227.06
977.66	227.07
977.95	227.05
978.24	227.05
978.54	227.08
978.83	227.07
979.12	227.07
979.42	227.08
979.71	227.03
980.00	227.04
980.29	227.04
980.59	227.01
980.88	227.05
981.17	227.05
981.46	227.06
981.76	227.04
982.05	227.10
982.34	227.11
982.63	227.11
982.93	227.10
983.22	227.15
983.51	227.14
983.80	227.17
984.09	227.19
984.39	227.18
984.68	227.15
984.97	227.17
985.26	227.15
985.55	227.16
985.85	227.13
986.14	227.16
986.43	227.19
986.72	227.17
987.01	227.12
987.30	227.12
987.59	227.10
987.89	227.12
988.18	227.06
988.47	227.04
988.76	227.03
989.05	227.01
989.34	226.98
989.63	227.02
989.92	226.99
990.22	226.97
990.51	226.98
990.80	226.96
991.09	226.96
991.38	226.99
991.67	226.96
991.96	226.95
992.25	226.95
992.54	226.91
992.83	226.92
993.12	226.92
993.41	226.94
993.70	226.99
993.99	227.03
994.28	227.05
994.58	227.08
994.87	227.06
995.16	227.06
995.45	227.04
995.74	226.98
996.03	227.01
996.32	227.03
996.61	227.07
996.90	227.06
997.19	227.06
997.48	227.06
997.77	227.05
998.06	227.06
998.34	227.04
998.63	227.04
998.92	227.05
999.21	227.07
999.50	227.07
999.79	227.01
1000.08	226.99
1000.37	227.00
1000.66	226.97
1000.95	227.02
1001.24	227.04
1001.53	227.07
1001.82	227.07
1002.11	227.02
1002.40	227.03
1002.68	227.06
1002.97	227.20
1003.26	227.19
1003.55	227.15
1003.84	227.16
1004.13	227.22
1004.42	227.21
1004.71	227.21
1004.99	227.19
1005.28	227.24
1005.57	227.24
1005.86	227.22
1006.15	227.21
1006.44	227.18
1006.72	227.19
1007.01	227.17
1007.30	227.15
1007.59	227.13
1007.88	227.13
1008.17	227.15
1008.45	227.12
1008.74	227.05
1009.03	226.96
1009.32	226.96
1009.60	226.97
1009.89	226.96
1010.18	226.88
1010.47	226.88
1010.76	226.88
1011.04	226.89
1011.33	226.87
1011.62	226.89
1011.91	226.91
1012.19	226.93
1012.48	226.93
1012.77	226.93
1013.05	226.98
1013.34	226.98
1013.63	226.98
1013.92	227.00
1014.20	226.98
1014.49	227.00
1014.78	227.01
1015.06	226.96
1015.35	226.96
1015.64	227.00
1015.92	227.03
1016.21	227.04
1016.50	227.04
1016.78	227.06
1017.07	227.07
1017.36	227.05
1017.64	227.02
1017.93	227.02
1018.22	226.99
1018.50	227.00
1018.79	226.99
1019.08	226.93
1019.36	226.95
1019.65	226.93
1019.93	226.97
1020.22	226.99
1020.51	227.07
1020.79	227.05
1021.08	226.72
1021.36	226.72
1021.65	226.92
1021.94	226.88
1022.22	227.23
1022.51	226.52
1022.79	227.76
1023.08	227.10
1023.36	229.13
1023.65	226.48
>>>>>End Processed Spectral Data<<<<<
