SpectraSuite Data File
++++++++++++++++++++++++++++++++++++
Date: Tue Oct 06 15:03:27 EDT 2015
User: lab3
Dark Spectrum Present: No
Reference Spectrum Present: No
Number of Sampled Component Spectra: 1
Spectrometers: USB2E7196
Integration Time (usec): 66000 (USB2E7196)
Spectra Averaged: 1000 (USB2E7196)
Boxcar Smoothing: 10 (USB2E7196)
Correct for Electrical Dark: No (USB2E7196)
Strobe/Lamp Enabled: No (USB2E7196)
Correct for Detector Non-linearity: No (USB2E7196)
Correct for Stray Light: No (USB2E7196)
Number of Pixels in Processed Spectrum: 2048
>>>>>Begin Processed Spectral Data<<<<<
339.09	0.00
339.48	215.02
339.86	216.38
340.24	217.89
340.63	219.28
341.01	223.52
341.39	221.74
341.78	223.38
342.16	224.79
342.54	225.17
342.93	213.52
343.31	224.30
343.69	224.85
344.07	225.32
344.46	225.76
344.84	226.16
345.22	226.35
345.60	226.64
345.99	226.85
346.37	227.00
346.75	227.12
347.13	227.20
347.52	227.28
347.90	227.40
348.28	227.45
348.66	227.53
349.05	227.53
349.43	227.61
349.81	227.68
350.19	227.74
350.57	227.83
350.96	227.93
351.34	228.04
351.72	228.15
352.10	228.27
352.48	228.34
352.87	228.39
353.25	228.46
353.63	228.50
354.01	228.58
354.39	228.65
354.77	228.72
355.15	228.86
355.54	228.90
355.92	228.91
356.30	229.00
356.68	229.18
357.06	229.25
357.44	229.28
357.82	229.34
358.20	229.55
358.58	229.61
358.97	229.67
359.35	229.77
359.73	229.87
360.11	229.92
360.49	229.98
360.87	230.04
361.25	230.13
361.63	230.24
362.01	230.28
362.39	230.31
362.77	230.37
363.15	230.39
363.53	230.43
363.91	230.47
364.29	230.49
364.67	230.34
365.05	230.38
365.43	230.43
365.81	230.47
366.19	230.42
366.57	230.50
366.95	230.51
367.33	230.47
367.71	230.46
368.09	230.49
368.47	230.49
368.85	230.48
369.23	230.50
369.61	230.42
369.99	230.46
370.37	230.47
370.75	230.58
371.13	230.54
371.51	230.50
371.89	230.49
372.27	230.47
372.65	230.46
373.03	230.42
373.41	230.38
373.78	230.33
374.16	230.20
374.54	230.11
374.92	230.06
375.30	230.03
375.68	229.96
376.06	229.92
376.44	229.85
376.82	229.83
377.19	229.77
377.57	229.73
377.95	229.63
378.33	229.56
378.71	229.36
379.09	229.32
379.47	229.29
379.84	229.23
380.22	229.15
380.60	229.08
380.98	229.04
381.36	228.99
381.73	228.92
382.11	228.91
382.49	228.87
382.87	228.80
383.25	228.75
383.62	228.92
384.00	228.84
384.38	228.82
384.76	228.81
385.13	228.83
385.51	228.78
385.89	228.73
386.27	228.72
386.64	228.72
387.02	228.66
387.40	228.62
387.78	228.60
388.15	228.59
388.53	228.55
388.91	228.51
389.29	228.49
389.66	228.49
390.04	228.44
390.42	228.44
390.79	228.45
391.17	228.43
391.55	228.23
391.92	228.22
392.30	228.24
392.68	228.18
393.05	228.16
393.43	228.17
393.81	228.19
394.18	228.16
394.56	228.16
394.94	228.21
395.31	228.22
395.69	228.30
396.06	228.34
396.44	228.38
396.82	228.41
397.19	228.53
397.57	228.55
397.95	228.63
398.32	228.63
398.70	228.70
399.07	228.80
399.45	228.86
399.82	228.92
400.20	228.98
400.58	229.07
400.95	229.09
401.33	229.22
401.70	229.44
402.08	229.59
402.45	229.73
402.83	229.90
403.20	230.07
403.58	230.20
403.95	230.42
404.33	230.65
404.71	230.87
405.08	231.17
405.46	231.42
405.83	231.69
406.21	231.99
406.58	232.31
406.96	232.62
407.33	232.99
407.70	233.42
408.08	233.99
408.45	234.50
408.83	235.03
409.20	235.54
409.58	236.00
409.95	236.62
410.33	237.31
410.70	237.96
411.08	238.72
411.45	239.53
411.82	240.34
412.20	241.26
412.57	242.36
412.95	243.25
413.32	244.40
413.69	245.58
414.07	246.84
414.44	248.22
414.82	249.63
415.19	251.27
415.56	252.95
415.94	254.68
416.31	256.64
416.68	258.61
417.06	260.87
417.43	262.99
417.81	265.43
418.18	267.91
418.55	270.62
418.93	273.43
419.30	276.39
419.67	279.54
420.04	282.78
420.42	286.16
420.79	290.06
421.16	294.00
421.54	297.97
421.91	302.15
422.28	306.49
422.66	311.16
423.03	315.60
423.40	320.26
423.77	325.25
424.15	330.34
424.52	335.63
424.89	341.34
425.26	347.02
425.64	352.30
426.01	358.23
426.38	364.27
426.75	370.49
427.13	376.84
427.50	383.48
427.87	390.35
428.24	397.29
428.61	403.94
428.99	411.10
429.36	419.00
429.73	426.50
430.10	433.99
430.47	441.64
430.85	449.55
431.22	458.01
431.59	466.64
431.96	475.07
432.33	484.45
432.70	493.38
433.08	503.98
433.45	513.96
433.82	523.78
434.19	534.82
434.56	545.66
434.93	556.21
435.30	566.66
435.68	578.58
436.05	590.20
436.42	601.80
436.79	612.42
437.16	623.93
437.53	636.30
437.90	648.67
438.27	660.81
438.64	673.91
439.01	685.80
439.38	696.80
439.75	707.44
440.13	719.51
440.50	730.98
440.87	740.14
441.24	750.18
441.61	761.20
441.98	769.31
442.35	779.00
442.72	788.85
443.09	798.22
443.46	804.37
443.83	809.03
444.20	812.90
444.57	818.56
444.94	821.94
445.31	825.37
445.68	828.30
446.05	830.54
446.42	830.31
446.79	829.83
447.16	829.41
447.53	829.03
447.90	825.54
448.27	822.15
448.64	816.80
449.01	813.19
449.37	805.65
449.74	798.87
450.11	790.01
450.48	780.28
450.85	770.50
451.22	762.06
451.59	753.78
451.96	746.35
452.33	735.43
452.70	725.76
453.07	714.02
453.43	702.37
453.80	690.96
454.17	680.00
454.54	669.86
454.91	658.40
455.28	647.61
455.65	637.42
456.02	626.69
456.38	618.06
456.75	606.98
457.12	597.97
457.49	588.88
457.86	580.31
458.23	572.73
458.59	564.41
458.96	555.82
459.33	548.29
459.70	540.62
460.07	534.76
460.43	527.87
460.80	521.41
461.17	515.72
461.54	509.64
461.91	503.94
462.27	498.17
462.64	493.44
463.01	488.04
463.38	482.61
463.74	477.71
464.11	473.36
464.48	469.40
464.85	465.16
465.21	461.92
465.58	458.28
465.95	454.17
466.32	450.87
466.68	447.66
467.05	444.39
467.42	441.23
467.78	437.88
468.15	434.76
468.52	432.49
468.88	429.50
469.25	426.77
469.62	424.59
469.98	422.20
470.35	420.07
470.72	418.15
471.08	416.19
471.45	414.51
471.82	412.67
472.18	410.76
472.55	409.52
472.92	407.95
473.28	406.75
473.65	405.45
474.02	404.23
474.38	403.20
474.75	402.59
475.11	401.71
475.48	401.28
475.85	400.83
476.21	400.56
476.58	400.36
476.94	400.51
477.31	400.53
477.67	400.62
478.04	400.91
478.41	401.32
478.77	401.91
479.14	402.29
479.50	403.06
479.87	404.04
480.23	405.01
480.60	405.95
480.96	406.89
481.33	408.31
481.69	409.74
482.06	411.13
482.42	412.42
482.79	414.05
483.15	415.90
483.52	418.01
483.88	420.01
484.25	422.13
484.61	424.36
484.98	426.79
485.34	429.51
485.71	432.34
486.07	435.34
486.44	438.35
486.80	441.73
487.17	445.16
487.53	448.89
487.90	452.78
488.26	457.05
488.62	461.51
488.99	465.95
489.35	470.63
489.72	475.68
490.08	480.99
490.44	486.39
490.81	492.04
491.17	497.85
491.54	504.05
491.90	510.43
492.26	517.23
492.63	524.29
492.99	531.68
493.36	539.28
493.72	547.29
494.08	555.42
494.45	563.95
494.81	572.85
495.17	582.00
495.54	591.65
495.90	601.73
496.26	612.03
496.63	622.56
496.99	633.50
497.35	644.91
497.72	656.61
498.08	668.69
498.44	681.07
498.80	694.11
499.17	707.51
499.53	721.32
499.89	735.52
500.26	749.92
500.62	764.65
500.98	780.18
501.34	795.77
501.71	812.11
502.07	828.71
502.43	845.75
502.79	863.00
503.16	880.79
503.52	898.71
503.88	917.04
504.24	935.91
504.60	954.95
504.97	974.57
505.33	994.55
505.69	1015.60
506.05	1036.69
506.41	1057.75
506.78	1078.92
507.14	1100.78
507.50	1123.15
507.86	1145.87
508.22	1168.73
508.59	1191.29
508.95	1214.89
509.31	1238.95
509.67	1263.69
510.03	1288.38
510.39	1313.00
510.75	1337.74
511.12	1362.79
511.48	1387.89
511.84	1412.95
512.20	1438.21
512.56	1464.28
512.92	1490.42
513.28	1515.93
513.64	1541.91
514.00	1568.12
514.37	1594.60
514.73	1621.05
515.09	1646.70
515.45	1672.59
515.81	1698.65
516.17	1724.47
516.53	1749.60
516.89	1774.66
517.25	1799.82
517.61	1824.86
517.97	1850.32
518.33	1875.07
518.69	1899.79
519.05	1924.84
519.41	1949.89
519.77	1974.97
520.13	1998.98
520.49	2022.98
520.85	2047.29
521.21	2070.91
521.57	2094.86
521.93	2117.72
522.29	2141.28
522.65	2164.48
523.01	2187.52
523.37	2210.08
523.73	2233.37
524.09	2256.25
524.45	2278.76
524.81	2300.76
525.17	2322.28
525.53	2343.22
525.89	2364.74
526.25	2385.58
526.61	2405.15
526.97	2424.72
527.33	2444.18
527.68	2463.03
528.04	2481.34
528.40	2498.38
528.76	2515.92
529.12	2532.79
529.48	2550.27
529.84	2565.45
530.20	2581.22
530.56	2595.95
530.91	2610.69
531.27	2624.70
531.63	2638.10
531.99	2650.82
532.35	2663.04
532.71	2674.91
533.07	2687.22
533.42	2697.56
533.78	2708.38
534.14	2719.97
534.50	2730.44
534.86	2741.40
535.21	2750.21
535.57	2758.95
535.93	2767.78
536.29	2775.25
536.65	2782.38
537.00	2787.64
537.36	2793.65
537.72	2798.71
538.08	2803.35
538.44	2806.73
538.79	2810.22
539.15	2812.41
539.51	2814.57
539.87	2815.77
540.22	2815.17
540.58	2814.53
540.94	2814.74
541.29	2813.90
541.65	2811.43
542.01	2808.78
542.37	2804.62
542.72	2802.28
543.08	2798.30
543.44	2794.44
543.79	2789.35
544.15	2783.81
544.51	2779.08
544.87	2773.12
545.22	2766.36
545.58	2759.43
545.94	2752.99
546.29	2745.17
546.65	2737.29
547.01	2729.14
547.36	2721.37
547.72	2713.82
548.07	2704.96
548.43	2695.11
548.79	2684.57
549.14	2674.62
549.50	2664.81
549.86	2654.22
550.21	2641.91
550.57	2630.68
550.92	2617.54
551.28	2605.09
551.64	2593.10
551.99	2580.62
552.35	2567.99
552.70	2555.26
553.06	2543.11
553.41	2530.50
553.77	2517.22
554.13	2504.23
554.48	2490.41
554.84	2475.73
555.19	2462.02
555.55	2447.97
555.90	2433.99
556.26	2420.92
556.61	2406.64
556.97	2391.25
557.32	2376.15
557.68	2361.41
558.03	2346.42
558.39	2332.32
558.74	2318.72
559.10	2303.30
559.45	2288.35
559.81	2274.23
560.16	2259.67
560.52	2244.85
560.87	2230.20
561.23	2215.24
561.58	2200.70
561.94	2185.70
562.29	2170.61
562.64	2155.43
563.00	2140.43
563.35	2125.76
563.71	2110.49
564.06	2095.48
564.42	2080.90
564.77	2066.33
565.12	2051.85
565.48	2037.29
565.83	2023.03
566.19	2008.89
566.54	1994.95
566.89	1980.05
567.25	1964.66
567.60	1950.20
567.96	1935.17
568.31	1918.84
568.66	1903.46
569.02	1888.63
569.37	1874.30
569.72	1860.33
570.08	1846.03
570.43	1831.22
570.78	1816.14
571.14	1801.00
571.49	1785.97
571.84	1771.52
572.20	1756.11
572.55	1741.18
572.90	1726.05
573.26	1710.84
573.61	1694.90
573.96	1679.53
574.31	1664.54
574.67	1649.72
575.02	1634.48
575.37	1619.04
575.72	1604.28
576.08	1589.62
576.43	1574.38
576.78	1559.29
577.13	1544.23
577.49	1529.51
577.84	1515.16
578.19	1500.46
578.54	1485.74
578.90	1471.06
579.25	1456.19
579.60	1442.30
579.95	1428.18
580.30	1414.13
580.66	1399.86
581.01	1385.97
581.36	1372.13
581.71	1358.64
582.06	1344.99
582.42	1331.30
582.77	1318.19
583.12	1305.35
583.47	1292.34
583.82	1279.66
584.17	1266.58
584.53	1253.61
584.88	1240.85
585.23	1227.96
585.58	1215.44
585.93	1202.99
586.28	1191.35
586.63	1179.46
586.98	1167.38
587.34	1155.66
587.69	1143.72
588.04	1132.19
588.39	1120.84
588.74	1109.17
589.09	1097.71
589.44	1086.00
589.79	1074.83
590.14	1063.67
590.49	1052.60
590.84	1041.84
591.19	1031.08
591.54	1020.46
591.89	1009.54
592.25	998.89
592.60	988.20
592.95	977.77
593.30	967.44
593.65	956.82
594.00	946.62
594.35	937.15
594.70	927.17
595.05	917.85
595.40	908.26
595.75	898.50
596.10	889.28
596.45	879.97
596.80	871.05
597.15	862.16
597.50	853.33
597.85	844.79
598.19	836.07
598.54	827.36
598.89	819.04
599.24	811.20
599.59	803.24
599.94	795.78
600.29	788.23
600.64	780.69
600.99	773.12
601.34	765.69
601.69	757.77
602.04	750.53
602.39	743.23
602.74	736.16
603.08	729.19
603.43	722.23
603.78	715.36
604.13	708.61
604.48	701.88
604.83	695.32
605.18	688.83
605.53	682.62
605.87	676.37
606.22	670.21
606.57	663.98
606.92	657.66
607.27	651.40
607.62	645.42
607.96	639.56
608.31	634.08
608.66	628.49
609.01	623.20
609.36	617.92
609.70	612.56
610.05	607.22
610.40	602.08
610.75	596.95
611.10	592.03
611.44	587.05
611.79	582.25
612.14	577.35
612.49	572.48
612.83	567.81
613.18	563.24
613.53	558.74
613.88	554.28
614.22	550.11
614.57	545.86
614.92	541.70
615.27	537.65
615.61	533.57
615.96	529.56
616.31	525.54
616.65	521.63
617.00	517.86
617.35	514.13
617.70	510.44
618.04	506.79
618.39	503.25
618.74	499.90
619.08	496.50
619.43	493.21
619.78	489.93
620.12	486.63
620.47	483.49
620.82	480.41
621.16	477.37
621.51	474.43
621.85	471.51
622.20	468.60
622.55	465.72
622.89	462.90
623.24	460.22
623.59	457.57
623.93	454.97
624.28	452.52
624.62	450.26
624.97	447.99
625.32	445.63
625.66	443.22
626.01	440.82
626.35	438.51
626.70	436.18
627.04	434.00
627.39	431.79
627.73	429.69
628.08	427.66
628.43	425.65
628.77	423.53
629.12	421.54
629.46	419.64
629.81	417.85
630.15	415.97
630.50	414.10
630.84	412.29
631.19	410.59
631.53	408.91
631.88	407.05
632.22	405.30
632.57	403.83
632.91	402.32
633.26	400.89
633.60	399.49
633.95	398.14
634.29	396.69
634.64	395.32
634.98	393.78
635.32	392.35
635.67	391.07
636.01	389.84
636.36	388.63
636.70	387.52
637.05	386.21
637.39	385.08
637.73	383.92
638.08	382.84
638.42	381.76
638.77	380.55
639.11	379.34
639.45	378.15
639.80	376.92
640.14	375.79
640.49	374.63
640.83	373.45
641.17	372.33
641.52	371.23
641.86	370.18
642.20	369.27
642.55	368.22
642.89	367.18
643.23	366.18
643.58	365.29
643.92	364.23
644.26	363.28
644.61	362.36
644.95	361.43
645.29	360.40
645.64	359.35
645.98	358.39
646.32	357.52
646.66	356.62
647.01	355.74
647.35	354.94
647.69	354.10
648.04	353.35
648.38	352.52
648.72	351.74
649.06	350.92
649.41	350.09
649.75	349.29
650.09	348.53
650.43	347.76
650.78	346.92
651.12	346.15
651.46	345.39
651.80	344.64
652.14	343.91
652.49	343.26
652.83	342.57
653.17	341.86
653.51	341.18
653.85	340.58
654.20	339.92
654.54	339.17
654.88	338.47
655.22	337.81
655.56	337.09
655.90	336.43
656.25	335.78
656.59	335.13
656.93	334.52
657.27	333.97
657.61	333.35
657.95	332.76
658.29	332.17
658.64	331.59
658.98	330.96
659.32	330.35
659.66	329.80
660.00	329.25
660.34	328.72
660.68	328.13
661.02	327.46
661.36	326.85
661.70	326.28
662.05	325.73
662.39	325.19
662.73	324.72
663.07	324.27
663.41	323.78
663.75	323.24
664.09	322.72
664.43	322.06
664.77	321.49
665.11	320.89
665.45	320.34
665.79	319.81
666.13	319.25
666.47	318.70
666.81	318.09
667.15	317.48
667.49	316.96
667.83	316.51
668.17	316.05
668.51	315.61
668.85	315.18
669.19	314.80
669.53	314.27
669.87	313.73
670.21	313.19
670.55	312.69
670.89	312.30
671.23	311.85
671.57	311.46
671.91	311.09
672.25	310.73
672.58	310.38
672.92	309.94
673.26	309.56
673.60	309.17
673.94	308.80
674.28	308.44
674.62	308.06
674.96	307.60
675.30	307.20
675.64	306.77
675.97	306.29
676.31	305.76
676.65	305.31
676.99	304.96
677.33	304.51
677.67	304.09
678.01	303.56
678.34	303.11
678.68	302.69
679.02	302.23
679.36	301.77
679.70	301.29
680.04	300.88
680.37	300.45
680.71	300.02
681.05	299.63
681.39	299.16
681.73	298.68
682.06	298.23
682.40	297.81
682.74	297.42
683.08	297.11
683.42	296.74
683.75	296.37
684.09	295.87
684.43	295.46
684.77	295.00
685.10	294.61
685.44	294.21
685.78	293.78
686.12	293.36
686.45	292.94
686.79	292.50
687.13	292.10
687.46	291.66
687.80	291.23
688.14	290.74
688.48	290.33
688.81	289.90
689.15	289.54
689.49	289.10
689.82	288.65
690.16	288.11
690.50	287.65
690.83	287.20
691.17	286.76
691.51	286.33
691.84	285.96
692.18	285.54
692.52	285.07
692.85	284.65
693.19	284.27
693.52	283.85
693.86	283.42
694.20	282.98
694.53	282.55
694.87	282.11
695.21	281.67
695.54	281.25
695.88	280.83
696.21	280.33
696.55	279.89
696.88	279.45
697.22	279.02
697.56	278.61
697.89	278.15
698.23	277.74
698.56	277.30
698.90	276.87
699.23	276.42
699.57	276.01
699.90	275.57
700.24	275.11
700.58	274.71
700.91	274.34
701.25	274.09
701.58	273.78
701.92	273.44
702.25	273.05
702.59	272.64
702.92	272.25
703.26	271.85
703.59	271.45
703.93	271.21
704.26	270.83
704.60	270.45
704.93	270.07
705.26	269.65
705.60	269.32
705.93	268.88
706.27	268.58
706.60	268.26
706.94	267.96
707.27	267.57
707.61	267.20
707.94	266.80
708.27	266.26
708.61	265.81
708.94	265.41
709.28	265.05
709.61	264.70
709.94	264.36
710.28	264.03
710.61	263.72
710.95	263.22
711.28	263.00
711.61	262.65
711.95	262.36
712.28	262.04
712.61	261.69
712.95	261.48
713.28	261.22
713.61	260.86
713.95	260.48
714.28	260.18
714.61	259.85
714.95	259.53
715.28	259.22
715.61	258.94
715.95	258.66
716.28	258.35
716.61	258.08
716.95	257.77
717.28	257.48
717.61	257.16
717.94	256.89
718.28	256.49
718.61	256.21
718.94	255.90
719.27	255.63
719.61	255.37
719.94	255.05
720.27	254.70
720.60	254.44
720.94	254.17
721.27	253.93
721.60	253.71
721.93	253.47
722.27	253.27
722.60	253.02
722.93	252.74
723.26	252.52
723.59	252.24
723.93	252.02
724.26	251.80
724.59	251.57
724.92	251.36
725.25	251.19
725.59	250.97
725.92	250.79
726.25	250.57
726.58	250.35
726.91	250.12
727.24	249.92
727.57	249.69
727.91	249.44
728.24	249.24
728.57	249.01
728.90	248.83
729.23	248.57
729.56	248.46
729.89	248.27
730.22	248.06
730.55	247.87
730.89	247.67
731.22	247.47
731.55	247.29
731.88	247.11
732.21	246.87
732.54	246.66
732.87	246.46
733.20	246.29
733.53	246.10
733.86	245.93
734.19	245.72
734.52	245.59
734.85	245.56
735.18	245.37
735.51	245.25
735.84	245.08
736.17	244.97
736.50	244.71
736.83	244.73
737.16	244.58
737.49	244.42
737.82	244.24
738.15	244.10
738.48	243.94
738.81	243.76
739.14	243.59
739.47	243.43
739.80	243.28
740.13	243.14
740.46	242.96
740.79	242.79
741.12	242.64
741.45	242.46
741.78	242.20
742.11	242.08
742.44	241.88
742.77	241.74
743.10	241.56
743.43	241.42
743.75	241.09
744.08	241.21
744.41	241.05
744.74	240.89
745.07	240.72
745.40	240.63
745.73	240.58
746.06	240.45
746.39	240.35
746.71	240.20
747.04	240.05
747.37	239.93
747.70	239.82
748.03	239.70
748.36	239.60
748.68	239.48
749.01	239.31
749.34	239.22
749.67	239.09
750.00	239.00
750.33	239.01
750.65	238.91
750.98	238.53
751.31	238.43
751.64	238.35
751.97	238.32
752.29	238.17
752.62	237.97
752.95	237.84
753.28	237.70
753.60	237.58
753.93	237.52
754.26	237.42
754.59	237.26
754.91	237.14
755.24	237.01
755.57	236.91
755.90	236.79
756.22	236.66
756.55	236.52
756.88	236.38
757.20	236.15
757.53	236.01
757.86	235.90
758.19	235.82
758.51	235.71
758.84	235.52
759.17	235.41
759.49	235.34
759.82	235.33
760.15	235.26
760.47	235.16
760.80	235.01
761.13	234.94
761.45	234.85
761.78	234.76
762.11	234.69
762.43	234.57
762.76	234.49
763.08	234.43
763.41	234.37
763.74	234.30
764.06	234.21
764.39	234.13
764.71	234.06
765.04	233.96
765.37	233.87
765.69	233.81
766.02	233.74
766.34	233.64
766.67	233.50
767.00	233.46
767.32	233.50
767.65	233.55
767.97	233.47
768.30	233.41
768.62	233.35
768.95	233.27
769.27	233.21
769.60	233.18
769.92	233.08
770.25	233.00
770.57	232.91
770.90	232.87
771.22	232.80
771.55	232.75
771.87	232.71
772.20	232.65
772.52	232.74
772.85	232.90
773.17	232.85
773.50	232.79
773.82	232.71
774.15	232.57
774.47	232.40
774.80	232.35
775.12	232.30
775.45	232.25
775.77	232.21
776.09	232.18
776.42	232.12
776.74	232.14
777.07	232.10
777.39	232.07
777.72	232.02
778.04	232.00
778.36	231.94
778.69	231.90
779.01	231.88
779.33	231.69
779.66	231.45
779.98	231.41
780.31	231.39
780.63	231.42
780.95	231.42
781.28	231.38
781.60	231.32
781.92	231.29
782.25	231.25
782.57	231.22
782.89	231.16
783.22	231.12
783.54	231.05
783.86	231.03
784.19	230.99
784.51	231.01
784.83	230.96
785.16	230.92
785.48	230.88
785.80	230.85
786.12	230.83
786.45	230.80
786.77	230.79
787.09	230.75
787.42	230.65
787.74	230.62
788.06	230.61
788.38	230.59
788.71	230.55
789.03	230.53
789.35	230.54
789.67	230.50
789.99	230.48
790.32	230.43
790.64	230.42
790.96	230.56
791.28	230.46
791.61	230.43
791.93	230.42
792.25	230.39
792.57	230.50
792.89	230.44
793.21	230.42
793.54	230.37
793.86	230.33
794.18	230.32
794.50	230.27
794.82	230.24
795.14	230.23
795.47	230.24
795.79	230.23
796.11	230.14
796.43	230.12
796.75	230.10
797.07	230.09
797.39	230.05
797.71	229.89
798.04	229.88
798.36	229.87
798.68	229.84
799.00	229.83
799.32	229.71
799.64	229.72
799.96	229.71
800.28	229.72
800.60	229.69
800.92	229.68
801.24	229.66
801.56	229.65
801.89	229.62
802.21	229.60
802.53	229.54
802.85	229.57
803.17	229.64
803.49	229.58
803.81	229.55
804.13	229.51
804.45	229.46
804.77	229.45
805.09	229.44
805.41	229.41
805.73	229.36
806.05	229.30
806.37	229.28
806.69	229.25
807.01	229.22
807.33	229.21
807.65	229.13
807.97	229.18
808.28	229.14
808.60	229.13
808.92	229.08
809.24	229.18
809.56	229.13
809.88	229.06
810.20	229.05
810.52	229.08
810.84	229.05
811.16	229.02
811.48	228.99
811.80	229.04
812.12	229.02
812.43	229.05
812.75	229.05
813.07	229.02
813.39	229.01
813.71	228.98
814.03	228.96
814.35	228.96
814.67	228.89
814.98	228.86
815.30	228.84
815.62	228.81
815.94	228.68
816.26	228.68
816.58	228.64
816.89	228.65
817.21	228.59
817.53	228.60
817.85	228.60
818.17	228.59
818.48	228.50
818.80	228.53
819.12	228.49
819.44	228.44
819.76	228.41
820.07	228.39
820.39	228.37
820.71	228.39
821.03	228.37
821.34	228.34
821.66	228.37
821.98	228.37
822.30	228.35
822.61	228.44
822.93	228.40
823.25	228.40
823.57	228.36
823.88	228.38
824.20	228.37
824.52	228.40
824.83	228.38
825.15	228.36
825.47	228.33
825.79	228.33
826.10	228.32
826.42	228.31
826.74	228.32
827.05	228.31
827.37	228.31
827.69	228.30
828.00	228.30
828.32	228.30
828.64	228.27
828.95	228.38
829.27	228.31
829.58	228.31
829.90	228.33
830.22	228.35
830.53	228.31
830.85	228.28
831.17	228.21
831.48	228.21
831.80	228.21
832.11	228.20
832.43	228.18
832.75	228.18
833.06	228.27
833.38	228.22
833.69	228.20
834.01	228.20
834.32	228.19
834.64	228.17
834.96	228.15
835.27	228.16
835.59	228.09
835.90	228.06
836.22	228.06
836.53	228.03
836.85	228.00
837.16	228.19
837.48	228.18
837.79	228.24
838.11	228.23
838.42	228.22
838.74	228.24
839.05	228.21
839.37	228.19
839.68	228.07
840.00	228.06
840.31	228.09
840.63	228.06
840.94	228.03
841.26	228.01
841.57	228.00
841.88	228.00
842.20	227.97
842.51	227.94
842.83	227.92
843.14	228.07
843.46	228.07
843.77	227.94
844.08	227.93
844.40	227.87
844.71	227.86
845.03	227.84
845.34	227.82
845.65	227.82
845.97	227.83
846.28	227.85
846.60	227.86
846.91	227.83
847.22	227.83
847.54	227.86
847.85	227.88
848.16	227.85
848.48	227.81
848.79	227.88
849.10	227.91
849.42	227.91
849.73	227.74
850.04	227.75
850.36	227.68
850.67	227.71
850.98	227.71
851.30	227.72
851.61	227.72
851.92	227.71
852.23	227.77
852.55	227.78
852.86	227.78
853.17	227.79
853.49	227.83
853.80	227.86
854.11	227.87
854.42	227.89
854.74	227.87
855.05	227.88
855.36	227.80
855.67	227.78
855.99	227.78
856.30	227.99
856.61	227.97
856.92	227.98
857.23	227.98
857.55	227.96
857.86	227.93
858.17	227.97
858.48	227.94
858.79	227.90
859.11	227.91
859.42	227.90
859.73	227.86
860.04	227.85
860.35	227.80
860.66	227.74
860.98	227.73
861.29	227.77
861.60	227.75
861.91	227.78
862.22	227.75
862.53	227.71
862.84	227.50
863.16	227.54
863.47	227.51
863.78	227.48
864.09	227.49
864.40	227.51
864.71	227.50
865.02	227.51
865.33	227.49
865.64	227.45
865.95	227.44
866.27	227.56
866.58	227.54
866.89	227.56
867.20	227.56
867.51	227.54
867.82	227.51
868.13	227.57
868.44	227.54
868.75	227.58
869.06	227.59
869.37	227.61
869.68	227.56
869.99	227.59
870.30	227.61
870.61	227.62
870.92	227.60
871.23	227.58
871.54	227.60
871.85	227.64
872.16	227.67
872.47	227.64
872.78	227.54
873.09	227.56
873.40	227.54
873.71	227.55
874.02	227.56
874.33	227.55
874.64	227.49
874.95	227.51
875.26	227.48
875.56	227.47
875.87	227.46
876.18	227.46
876.49	227.63
876.80	227.61
877.11	227.57
877.42	227.57
877.73	227.58
878.04	227.56
878.35	227.55
878.66	227.55
878.96	227.55
879.27	227.54
879.58	227.52
879.89	227.50
880.20	227.55
880.51	227.53
880.82	227.52
881.12	227.55
881.43	227.51
881.74	227.48
882.05	227.46
882.36	227.48
882.67	227.49
882.97	227.29
883.28	227.28
883.59	227.29
883.90	227.31
884.21	227.33
884.51	227.32
884.82	227.30
885.13	227.30
885.44	227.29
885.74	227.30
886.05	227.29
886.36	227.30
886.67	227.23
886.98	227.32
887.28	227.34
887.59	227.34
887.90	227.35
888.20	227.35
888.51	227.39
888.82	227.35
889.13	227.36
889.43	227.53
889.74	227.51
890.05	227.51
890.35	227.49
890.66	227.46
890.97	227.45
891.28	227.42
891.58	227.42
891.89	227.43
892.20	227.40
892.50	227.39
892.81	227.38
893.12	227.38
893.42	227.30
893.73	227.29
894.04	227.29
894.34	227.30
894.65	227.30
894.95	227.28
895.26	227.31
895.57	227.37
895.87	227.19
896.18	227.23
896.48	227.24
896.79	227.24
897.10	227.26
897.40	227.27
897.71	227.30
898.01	227.28
898.32	227.29
898.63	227.30
898.93	227.31
899.24	227.32
899.54	227.31
899.85	227.29
900.15	227.27
900.46	227.27
900.76	227.28
901.07	227.28
901.38	227.27
901.68	227.29
901.99	227.20
902.29	227.21
902.60	227.18
902.90	227.16
903.21	227.16
903.51	227.14
903.82	227.16
904.12	227.15
904.43	227.15
904.73	227.14
905.03	227.15
905.34	227.31
905.64	227.30
905.95	227.31
906.25	227.31
906.56	227.32
906.86	227.31
907.17	227.29
907.47	227.31
907.77	227.29
908.08	227.24
908.38	227.25
908.69	227.27
908.99	227.29
909.30	227.31
909.60	227.31
909.90	227.29
910.21	227.23
910.51	227.21
910.81	227.22
911.12	227.23
911.42	227.23
911.73	227.04
912.03	227.05
912.33	227.09
912.64	227.08
912.94	227.06
913.24	227.03
913.55	227.03
913.85	227.01
914.15	227.06
914.46	227.08
914.76	227.06
915.06	227.05
915.37	227.02
915.67	227.00
915.97	227.00
916.27	226.98
916.58	227.01
916.88	227.00
917.18	226.99
917.49	227.11
917.79	227.11
918.09	227.14
918.39	227.17
918.70	227.16
919.00	227.17
919.30	227.25
919.60	227.25
919.91	227.23
920.21	227.23
920.51	227.20
920.81	227.20
921.12	227.23
921.42	227.24
921.72	227.25
922.02	227.27
922.32	227.29
922.63	227.29
922.93	227.39
923.23	227.41
923.53	227.40
923.83	227.28
924.13	227.29
924.44	227.28
924.74	227.33
925.04	227.38
925.34	227.38
925.64	227.31
925.94	227.32
926.24	227.41
926.55	227.40
926.85	227.41
927.15	227.40
927.45	227.40
927.75	227.39
928.05	227.40
928.35	227.39
928.65	227.43
928.95	227.44
929.26	227.36
929.56	227.39
929.86	227.41
930.16	227.39
930.46	227.39
930.76	227.39
931.06	227.30
931.36	227.25
931.66	227.27
931.96	227.29
932.26	227.30
932.56	227.23
932.86	227.25
933.16	227.24
933.46	227.21
933.76	227.18
934.06	227.21
934.36	227.26
934.66	227.24
934.96	227.22
935.26	227.23
935.56	227.24
935.86	227.20
936.16	227.16
936.46	227.15
936.76	227.13
937.06	227.10
937.36	227.10
937.66	227.10
937.96	227.08
938.26	227.03
938.56	227.02
938.86	227.02
939.16	227.06
939.46	227.08
939.76	227.10
940.06	227.10
940.35	227.06
940.65	226.98
940.95	226.99
941.25	226.95
941.55	226.91
941.85	226.90
942.15	226.93
942.45	226.99
942.75	226.98
943.04	226.99
943.34	227.04
943.64	227.04
943.94	227.02
944.24	227.02
944.54	227.04
944.84	227.04
945.13	227.02
945.43	226.99
945.73	226.98
946.03	226.97
946.33	226.96
946.62	226.95
946.92	226.95
947.22	226.95
947.52	226.96
947.82	227.00
948.11	226.98
948.41	226.94
948.71	226.88
949.01	226.90
949.31	226.89
949.60	226.86
949.90	226.88
950.20	226.87
950.50	226.86
950.79	226.85
951.09	226.87
951.39	226.87
951.69	226.86
951.98	226.89
952.28	226.90
952.58	226.90
952.87	226.90
953.17	226.92
953.47	226.91
953.76	226.91
954.06	226.87
954.36	226.85
954.66	226.85
954.95	226.90
955.25	226.91
955.55	226.90
955.84	226.88
956.14	226.90
956.44	226.91
956.73	226.89
957.03	226.90
957.32	226.89
957.62	226.88
957.92	226.92
958.21	226.89
958.51	227.09
958.81	227.11
959.10	227.14
959.40	227.17
959.69	227.18
959.99	227.21
960.29	227.22
960.58	227.22
960.88	227.29
961.17	227.28
961.47	227.29
961.76	227.29
962.06	227.33
962.36	227.30
962.65	227.31
962.95	227.32
963.24	227.29
963.54	227.30
963.83	227.31
964.13	227.29
964.42	227.28
964.72	227.14
965.01	227.14
965.31	227.13
965.60	227.08
965.90	227.19
966.19	227.14
966.49	227.16
966.78	227.15
967.08	227.14
967.37	227.12
967.67	227.09
967.96	227.11
968.26	227.10
968.55	227.13
968.85	227.11
969.14	227.12
969.43	227.12
969.73	227.11
970.02	227.10
970.32	227.09
970.61	227.06
970.91	227.01
971.20	226.98
971.49	226.95
971.79	226.97
972.08	226.85
972.38	226.87
972.67	226.85
972.96	226.88
973.26	226.84
973.55	226.90
973.85	226.89
974.14	226.87
974.43	226.89
974.73	226.85
975.02	226.83
975.31	226.83
975.61	226.84
975.90	226.82
976.19	226.80
976.49	226.82
976.78	226.83
977.07	226.83
977.37	226.84
977.66	226.86
977.95	226.84
978.24	226.84
978.54	226.88
978.83	226.87
979.12	226.86
979.42	226.86
979.71	226.82
980.00	226.82
980.29	226.83
980.59	226.79
980.88	226.83
981.17	226.82
981.46	226.83
981.76	226.83
982.05	226.88
982.34	226.90
982.63	226.89
982.93	226.89
983.22	226.93
983.51	226.94
983.80	226.99
984.09	227.01
984.39	227.00
984.68	226.98
984.97	227.00
985.26	226.99
985.55	226.99
985.85	226.95
986.14	226.97
986.43	226.99
986.72	226.98
987.01	226.92
987.30	226.93
987.59	226.91
987.89	226.93
988.18	226.87
988.47	226.85
988.76	226.84
989.05	226.83
989.34	226.79
989.63	226.84
989.92	226.80
990.22	226.78
990.51	226.77
990.80	226.75
991.09	226.76
991.38	226.78
991.67	226.77
991.96	226.76
992.25	226.78
992.54	226.74
992.83	226.75
993.12	226.75
993.41	226.78
993.70	226.85
993.99	226.88
994.28	226.91
994.58	226.94
994.87	226.92
995.16	226.92
995.45	226.91
995.74	226.85
996.03	226.88
996.32	226.91
996.61	226.95
996.90	226.95
997.19	226.95
997.48	226.95
997.77	226.94
998.06	226.96
998.34	226.94
998.63	226.94
998.92	226.95
999.21	226.98
999.50	226.99
999.79	226.92
1000.08	226.90
1000.37	226.91
1000.66	226.88
1000.95	226.93
1001.24	226.95
1001.53	226.98
1001.82	226.98
1002.11	226.94
1002.40	226.94
1002.68	226.98
1002.97	227.11
1003.26	227.09
1003.55	227.06
1003.84	227.08
1004.13	227.13
1004.42	227.12
1004.71	227.13
1004.99	227.13
1005.28	227.16
1005.57	227.16
1005.86	227.15
1006.15	227.15
1006.44	227.11
1006.72	227.13
1007.01	227.10
1007.30	227.09
1007.59	227.07
1007.88	227.05
1008.17	227.06
1008.45	227.02
1008.74	226.95
1009.03	226.87
1009.32	226.88
1009.60	226.89
1009.89	226.88
1010.18	226.81
1010.47	226.81
1010.76	226.80
1011.04	226.80
1011.33	226.80
1011.62	226.82
1011.91	226.83
1012.19	226.84
1012.48	226.85
1012.77	226.86
1013.05	226.92
1013.34	226.92
1013.63	226.91
1013.92	226.94
1014.20	226.93
1014.49	226.95
1014.78	226.96
1015.06	226.90
1015.35	226.90
1015.64	226.93
1015.92	226.96
1016.21	226.97
1016.50	226.97
1016.78	226.99
1017.07	227.00
1017.36	226.96
1017.64	226.93
1017.93	226.95
1018.22	226.93
1018.50	226.93
1018.79	226.92
1019.08	226.84
1019.36	226.86
1019.65	226.85
1019.93	226.89
1020.22	226.93
1020.51	227.02
1020.79	227.02
1021.08	226.64
1021.36	226.63
1021.65	226.82
1021.94	226.67
1022.22	227.13
1022.51	226.57
1022.79	227.76
1023.08	227.21
1023.36	229.22
1023.65	226.61
>>>>>End Processed Spectral Data<<<<<
