SpectraSuite Data File
++++++++++++++++++++++++++++++++++++
Date: Tue Oct 06 23:29:52 EDT 2015
User: lab3
Dark Spectrum Present: No
Reference Spectrum Present: No
Number of Sampled Component Spectra: 1
Spectrometers: USB2E7196
Integration Time (usec): 66000 (USB2E7196)
Spectra Averaged: 10000 (USB2E7196)
Boxcar Smoothing: 10 (USB2E7196)
Correct for Electrical Dark: No (USB2E7196)
Strobe/Lamp Enabled: No (USB2E7196)
Correct for Detector Non-linearity: No (USB2E7196)
Correct for Stray Light: No (USB2E7196)
Number of Pixels in Processed Spectrum: 2048
>>>>>Begin Processed Spectral Data<<<<<
339.09	0.00
339.48	213.56
339.86	214.99
340.24	216.42
340.63	217.74
341.01	221.87
341.39	220.46
341.78	222.01
342.16	223.33
342.54	223.55
342.93	212.13
343.31	222.84
343.69	223.38
344.07	223.85
344.46	224.29
344.84	224.70
345.22	224.90
345.60	225.19
345.99	225.39
346.37	225.54
346.75	225.65
347.13	225.75
347.52	225.84
347.90	225.97
348.28	226.02
348.66	226.10
349.05	226.10
349.43	226.17
349.81	226.25
350.19	226.31
350.57	226.40
350.96	226.50
351.34	226.61
351.72	226.72
352.10	226.84
352.48	226.92
352.87	226.97
353.25	227.03
353.63	227.08
354.01	227.15
354.39	227.23
354.77	227.31
355.15	227.43
355.54	227.47
355.92	227.48
356.30	227.55
356.68	227.74
357.06	227.82
357.44	227.86
357.82	227.92
358.20	228.13
358.58	228.19
358.97	228.26
359.35	228.35
359.73	228.45
360.11	228.50
360.49	228.56
360.87	228.61
361.25	228.69
361.63	228.80
362.01	228.86
362.39	228.88
362.77	228.94
363.15	228.96
363.53	228.99
363.91	229.03
364.29	229.05
364.67	228.90
365.05	228.93
365.43	228.97
365.81	229.01
366.19	228.96
366.57	229.04
366.95	229.04
367.33	229.00
367.71	228.99
368.09	229.02
368.47	229.02
368.85	229.01
369.23	229.03
369.61	228.95
369.99	228.99
370.37	229.00
370.75	229.12
371.13	229.08
371.51	229.04
371.89	229.03
372.27	229.01
372.65	229.00
373.03	228.96
373.41	228.91
373.78	228.86
374.16	228.73
374.54	228.63
374.92	228.58
375.30	228.54
375.68	228.46
376.06	228.42
376.44	228.36
376.82	228.33
377.19	228.28
377.57	228.23
377.95	228.12
378.33	228.05
378.71	227.84
379.09	227.80
379.47	227.79
379.84	227.72
380.22	227.65
380.60	227.57
380.98	227.53
381.36	227.48
381.73	227.41
382.11	227.40
382.49	227.37
382.87	227.31
383.25	227.27
383.62	227.44
384.00	227.37
384.38	227.34
384.76	227.34
385.13	227.35
385.51	227.31
385.89	227.26
386.27	227.23
386.64	227.23
387.02	227.18
387.40	227.14
387.78	227.12
388.15	227.11
388.53	227.08
388.91	227.06
389.29	227.03
389.66	227.04
390.04	227.00
390.42	227.01
390.79	227.01
391.17	226.99
391.55	226.78
391.92	226.78
392.30	226.79
392.68	226.74
393.05	226.72
393.43	226.74
393.81	226.76
394.18	226.75
394.56	226.76
394.94	226.81
395.31	226.82
395.69	226.89
396.06	226.94
396.44	226.98
396.82	227.01
397.19	227.14
397.57	227.16
397.95	227.24
398.32	227.23
398.70	227.31
399.07	227.41
399.45	227.47
399.82	227.54
400.20	227.60
400.58	227.70
400.95	227.72
401.33	227.85
401.70	228.08
402.08	228.22
402.45	228.35
402.83	228.53
403.20	228.70
403.58	228.84
403.95	229.05
404.33	229.27
404.71	229.49
405.08	229.80
405.46	230.05
405.83	230.32
406.21	230.62
406.58	230.94
406.96	231.27
407.33	231.65
407.70	232.07
408.08	232.65
408.45	233.15
408.83	233.70
409.20	234.20
409.58	234.66
409.95	235.29
410.33	235.97
410.70	236.62
411.08	237.37
411.45	238.18
411.82	239.00
412.20	239.93
412.57	241.04
412.95	241.92
413.32	243.07
413.69	244.25
414.07	245.50
414.44	246.87
414.82	248.26
415.19	249.90
415.56	251.56
415.94	253.29
416.31	255.23
416.68	257.19
417.06	259.44
417.43	261.56
417.81	263.99
418.18	266.47
418.55	269.17
418.93	271.98
419.30	274.92
419.67	278.04
420.04	281.24
420.42	284.59
420.79	288.46
421.16	292.36
421.54	296.31
421.91	300.44
422.28	304.74
422.66	309.36
423.03	313.75
423.40	318.36
423.77	323.29
424.15	328.34
424.52	333.56
424.89	339.22
425.26	344.84
425.64	350.05
426.01	355.90
426.38	361.87
426.75	368.01
427.13	374.30
427.50	380.88
427.87	387.71
428.24	394.59
428.61	401.18
428.99	408.28
429.36	416.09
429.73	423.53
430.10	430.96
430.47	438.56
430.85	446.41
431.22	454.76
431.59	463.34
431.96	471.72
432.33	481.04
432.70	489.89
433.08	500.38
433.45	510.26
433.82	520.03
434.19	530.99
434.56	541.77
434.93	552.24
435.30	562.61
435.68	574.36
436.05	585.86
436.42	597.38
436.79	607.92
437.16	619.39
437.53	631.63
437.90	643.87
438.27	655.90
438.64	668.91
439.01	680.73
439.38	691.57
439.75	702.08
440.13	714.04
440.50	725.42
440.87	734.54
441.24	744.57
441.61	755.57
441.98	763.73
442.35	773.43
442.72	783.30
443.09	792.72
443.46	798.90
443.83	803.62
444.20	807.57
444.57	813.21
444.94	816.61
445.31	820.16
445.68	823.24
446.05	825.62
446.42	825.51
446.79	825.15
447.16	824.90
447.53	824.70
447.90	821.37
448.27	818.24
448.64	813.14
449.01	809.71
449.37	802.29
449.74	795.56
450.11	786.82
450.48	777.17
450.85	767.48
451.22	759.19
451.59	750.99
451.96	743.59
452.33	732.82
452.70	723.22
453.07	711.54
453.43	699.88
453.80	688.48
454.17	677.54
454.54	667.46
454.91	656.05
455.28	645.28
455.65	635.10
456.02	624.29
456.38	615.59
456.75	604.45
457.12	595.46
457.49	586.40
457.86	577.81
458.23	570.24
458.59	561.91
458.96	553.35
459.33	545.84
459.70	538.17
460.07	532.33
460.43	525.44
460.80	519.01
461.17	513.41
461.54	507.37
461.91	501.69
462.27	495.91
462.64	491.19
463.01	485.81
463.38	480.37
463.74	475.46
464.11	471.10
464.48	467.16
464.85	462.93
465.21	459.67
465.58	456.06
465.95	451.97
466.32	448.71
466.68	445.53
467.05	442.31
467.42	439.19
467.78	435.84
468.15	432.75
468.52	430.49
468.88	427.49
469.25	424.75
469.62	422.58
469.98	420.24
470.35	418.14
470.72	416.23
471.08	414.32
471.45	412.70
471.82	410.90
472.18	409.02
472.55	407.78
472.92	406.26
473.28	405.06
473.65	403.78
474.02	402.54
474.38	401.49
474.75	400.87
475.11	400.02
475.48	399.62
475.85	399.17
476.21	398.89
476.58	398.69
476.94	398.84
477.31	398.86
477.67	398.91
478.04	399.20
478.41	399.59
478.77	400.18
479.14	400.53
479.50	401.28
479.87	402.25
480.23	403.20
480.60	404.11
480.96	405.02
481.33	406.42
481.69	407.80
482.06	409.16
482.42	410.40
482.79	411.96
483.15	413.78
483.52	415.84
483.88	417.80
484.25	419.89
484.61	422.08
484.98	424.44
485.34	427.10
485.71	429.88
486.07	432.87
486.44	435.80
486.80	439.12
487.17	442.50
487.53	446.19
487.90	450.05
488.26	454.25
488.62	458.69
488.99	463.11
489.35	467.77
489.72	472.78
490.08	478.03
490.44	483.40
490.81	488.99
491.17	494.75
491.54	500.94
491.90	507.25
492.26	514.01
492.63	521.09
492.99	528.49
493.36	536.06
493.72	543.99
494.08	552.15
494.45	560.70
494.81	569.65
495.17	578.84
495.54	588.54
495.90	598.66
496.26	608.97
496.63	619.60
496.99	630.62
497.35	642.15
497.72	653.98
498.08	666.13
498.44	678.63
498.80	691.81
499.17	705.28
499.53	719.21
499.89	733.57
500.26	748.16
500.62	763.10
500.98	778.91
501.34	794.75
501.71	811.36
502.07	828.30
502.43	845.71
502.79	863.34
503.16	881.48
503.52	899.82
503.88	918.60
504.24	937.83
504.60	957.32
504.97	977.44
505.33	998.08
505.69	1019.77
506.05	1041.71
506.41	1063.61
506.78	1085.67
507.14	1108.26
507.50	1131.36
507.86	1154.85
508.22	1178.59
508.59	1202.23
508.95	1226.89
509.31	1252.10
509.67	1277.95
510.03	1303.76
510.39	1329.49
510.75	1355.31
511.12	1381.49
511.48	1407.98
511.84	1434.41
512.20	1461.20
512.56	1489.12
512.92	1516.86
513.28	1543.94
513.64	1571.49
514.00	1599.41
514.37	1627.61
514.73	1655.90
515.09	1683.51
515.45	1711.42
515.81	1739.60
516.17	1767.56
516.53	1794.85
516.89	1821.84
517.25	1849.18
517.61	1876.31
517.97	1904.13
518.33	1931.42
518.69	1958.63
519.05	1986.22
519.41	2014.00
519.77	2041.89
520.13	2068.20
520.49	2094.51
520.85	2121.27
521.21	2147.37
521.57	2173.83
521.93	2199.20
522.29	2225.27
522.65	2251.18
523.01	2276.81
523.37	2301.66
523.73	2327.27
524.09	2352.59
524.45	2377.76
524.81	2402.24
525.17	2426.67
525.53	2450.14
525.89	2474.08
526.25	2497.70
526.61	2519.58
526.97	2541.58
527.33	2563.30
527.68	2584.94
528.04	2606.23
528.40	2626.37
528.76	2646.56
529.12	2666.21
529.48	2686.63
529.84	2704.26
530.20	2722.23
530.56	2739.51
530.91	2756.92
531.27	2773.61
531.63	2789.48
531.99	2804.92
532.35	2820.21
532.71	2835.02
533.07	2850.30
533.42	2863.56
533.78	2876.98
534.14	2891.57
534.50	2904.95
534.86	2918.89
535.21	2930.50
535.57	2942.01
535.93	2953.16
536.29	2962.54
536.65	2971.81
537.00	2979.73
537.36	2988.91
537.72	2997.22
538.08	3005.07
538.44	3011.57
538.79	3017.93
539.15	3022.97
539.51	3027.21
539.87	3030.13
540.22	3031.39
540.58	3032.95
540.94	3035.21
541.29	3036.40
541.65	3036.16
542.01	3035.54
542.37	3033.16
542.72	3032.55
543.08	3030.07
543.44	3027.78
543.79	3025.40
544.15	3022.16
544.51	3018.80
544.87	3014.53
545.22	3009.22
545.58	3003.51
545.94	2998.17
546.29	2991.32
546.65	2984.57
547.01	2978.07
547.36	2972.18
547.72	2966.37
548.07	2958.79
548.43	2950.02
548.79	2940.95
549.14	2932.08
549.50	2923.36
549.86	2913.73
550.21	2902.29
550.57	2892.27
550.92	2880.44
551.28	2868.75
551.64	2857.45
551.99	2845.92
552.35	2833.91
552.70	2821.78
553.06	2810.19
553.41	2798.16
553.77	2785.81
554.13	2773.48
554.48	2759.93
554.84	2745.17
555.19	2730.95
555.55	2716.70
555.90	2703.01
556.26	2689.53
556.61	2674.99
556.97	2659.30
557.32	2644.08
557.68	2629.27
558.03	2613.97
558.39	2599.66
558.74	2586.09
559.10	2570.55
559.45	2554.98
559.81	2540.08
560.16	2524.81
560.52	2509.19
560.87	2493.84
561.23	2478.06
561.58	2462.90
561.94	2447.33
562.29	2431.35
562.64	2415.52
563.00	2399.68
563.35	2384.04
563.71	2368.02
564.06	2352.11
564.42	2336.72
564.77	2321.48
565.12	2305.81
565.48	2289.85
565.83	2274.00
566.19	2258.05
566.54	2242.34
566.89	2226.23
567.25	2210.11
567.60	2194.84
567.96	2178.98
568.31	2161.57
568.66	2144.99
569.02	2129.05
569.37	2113.69
569.72	2098.90
570.08	2083.65
570.43	2067.77
570.78	2051.64
571.14	2035.44
571.49	2019.21
571.84	2003.22
572.20	1985.96
572.55	1969.49
572.90	1953.18
573.26	1937.01
573.61	1920.17
573.96	1903.83
574.31	1887.35
574.67	1870.51
575.02	1853.37
575.37	1836.22
575.72	1819.99
576.08	1803.50
576.43	1786.09
576.78	1768.99
577.13	1752.13
577.49	1735.47
577.84	1719.35
578.19	1702.77
578.54	1686.17
578.90	1669.43
579.25	1652.52
579.60	1636.96
579.95	1621.08
580.30	1605.11
580.66	1588.83
581.01	1572.68
581.36	1556.58
581.71	1541.38
582.06	1526.23
582.42	1510.86
582.77	1495.93
583.12	1481.21
583.47	1466.59
583.82	1452.14
584.17	1437.08
584.53	1422.09
584.88	1407.48
585.23	1392.69
585.58	1378.36
585.93	1363.81
586.28	1350.38
586.63	1336.80
586.98	1322.68
587.34	1309.01
587.69	1295.17
588.04	1281.64
588.39	1268.40
588.74	1254.78
589.09	1241.28
589.44	1227.46
589.79	1214.30
590.14	1201.15
590.49	1188.04
590.84	1175.16
591.19	1162.68
591.54	1150.37
591.89	1137.67
592.25	1125.26
592.60	1112.73
592.95	1100.33
593.30	1088.43
593.65	1076.17
594.00	1064.23
594.35	1053.21
594.70	1041.47
595.05	1030.37
595.40	1019.11
595.75	1007.70
596.10	996.95
596.45	986.13
596.80	975.78
597.15	965.36
597.50	954.92
597.85	944.84
598.19	934.75
598.54	924.61
598.89	915.02
599.24	905.83
599.59	896.39
599.94	887.69
600.29	879.01
600.64	870.10
600.99	861.06
601.34	852.40
601.69	843.21
602.04	834.97
602.39	826.61
602.74	818.48
603.08	810.45
603.43	802.44
603.78	794.43
604.13	786.45
604.48	778.50
604.83	770.84
605.18	763.20
605.53	755.75
605.87	748.28
606.22	740.92
606.57	733.48
606.92	726.00
607.27	718.53
607.62	711.25
607.96	704.24
608.31	697.77
608.66	691.15
609.01	684.82
609.36	678.45
609.70	672.06
610.05	665.65
610.40	659.45
610.75	653.21
611.10	647.21
611.44	641.21
611.79	635.37
612.14	629.41
612.49	623.54
612.83	617.98
613.18	612.50
613.53	607.00
613.88	601.64
614.22	596.67
614.57	591.63
614.92	586.70
615.27	581.90
615.61	576.95
615.96	572.09
616.31	567.21
616.65	562.48
617.00	557.87
617.35	553.36
617.70	548.87
618.04	544.47
618.39	540.19
618.74	536.18
619.08	532.12
619.43	528.21
619.78	524.25
620.12	520.25
620.47	516.46
620.82	512.78
621.16	509.14
621.51	505.54
621.85	501.92
622.20	498.39
622.55	494.84
622.89	491.34
623.24	488.04
623.59	484.79
623.93	481.63
624.28	478.60
624.62	475.76
624.97	472.96
625.32	470.07
625.66	467.16
626.01	464.20
626.35	461.43
626.70	458.59
627.04	455.96
627.39	453.30
627.73	450.71
628.08	448.16
628.43	445.64
628.77	443.06
629.12	440.58
629.46	438.22
629.81	436.01
630.15	433.72
630.50	431.44
630.84	429.23
631.19	427.05
631.53	424.97
631.88	422.72
632.22	420.55
632.57	418.69
632.91	416.78
633.26	414.95
633.60	413.14
633.95	411.41
634.29	409.56
634.64	407.77
634.98	405.87
635.32	404.15
635.67	402.61
636.01	401.04
636.36	399.54
636.70	398.10
637.05	396.51
637.39	395.08
637.73	393.64
638.08	392.28
638.42	390.95
638.77	389.50
639.11	388.01
639.45	386.58
639.80	385.10
640.14	383.70
640.49	382.30
640.83	380.90
641.17	379.57
641.52	378.25
641.86	376.98
642.20	375.86
642.55	374.56
642.89	373.26
643.23	372.05
643.58	370.97
643.92	369.72
644.26	368.57
644.61	367.47
644.95	366.33
645.29	365.13
645.64	363.90
645.98	362.80
646.32	361.82
646.66	360.77
647.01	359.75
647.35	358.82
647.69	357.87
648.04	356.99
648.38	356.01
648.72	355.11
649.06	354.20
649.41	353.27
649.75	352.39
650.09	351.54
650.43	350.67
650.78	349.75
651.12	348.90
651.46	348.06
651.80	347.23
652.14	346.45
652.49	345.74
652.83	344.97
653.17	344.17
653.51	343.39
653.85	342.72
654.20	342.01
654.54	341.20
654.88	340.43
655.22	339.72
655.56	338.98
655.90	338.29
656.25	337.60
656.59	336.93
656.93	336.29
657.27	335.71
657.61	335.05
657.95	334.45
658.29	333.83
658.64	333.23
658.98	332.57
659.32	331.92
659.66	331.30
660.00	330.75
660.34	330.18
660.68	329.56
661.02	328.88
661.36	328.25
661.70	327.67
662.05	327.10
662.39	326.55
662.73	326.08
663.07	325.64
663.41	325.17
663.75	324.64
664.09	324.11
664.43	323.47
664.77	322.93
665.11	322.35
665.45	321.82
665.79	321.31
666.13	320.78
666.47	320.24
666.81	319.67
667.15	319.06
667.49	318.58
667.83	318.17
668.17	317.71
668.51	317.29
668.85	316.89
669.19	316.54
669.53	316.01
669.87	315.46
670.21	314.91
670.55	314.38
670.89	313.97
671.23	313.51
671.57	313.11
671.91	312.76
672.25	312.43
672.58	312.09
672.92	311.65
673.26	311.31
673.60	310.96
673.94	310.59
674.28	310.26
674.62	309.88
674.96	309.45
675.30	309.08
675.64	308.65
675.97	308.19
676.31	307.70
676.65	307.29
676.99	306.97
677.33	306.53
677.67	306.14
678.01	305.67
678.34	305.26
678.68	304.88
679.02	304.42
679.36	303.96
679.70	303.51
680.04	303.12
680.37	302.69
680.71	302.30
681.05	301.95
681.39	301.54
681.73	301.07
682.06	300.65
682.40	300.25
682.74	299.89
683.08	299.59
683.42	299.21
683.75	298.87
684.09	298.41
684.43	298.03
684.77	297.62
685.10	297.23
685.44	296.83
685.78	296.42
686.12	296.03
686.45	295.62
686.79	295.18
687.13	294.77
687.46	294.32
687.80	293.91
688.14	293.44
688.48	293.01
688.81	292.59
689.15	292.23
689.49	291.78
689.82	291.33
690.16	290.79
690.50	290.35
690.83	289.89
691.17	289.43
691.51	289.00
691.84	288.60
692.18	288.16
692.52	287.70
692.85	287.25
693.19	286.87
693.52	286.44
693.86	286.00
694.20	285.57
694.53	285.14
694.87	284.67
695.21	284.22
695.54	283.77
695.88	283.32
696.21	282.82
696.55	282.37
696.88	281.92
697.22	281.50
697.56	281.09
697.89	280.61
698.23	280.20
698.56	279.74
698.90	279.33
699.23	278.87
699.57	278.47
699.90	278.04
700.24	277.56
700.58	277.16
700.91	276.79
701.25	276.53
701.58	276.21
701.92	275.87
702.25	275.48
702.59	275.07
702.92	274.68
703.26	274.26
703.59	273.85
703.93	273.58
704.26	273.18
704.60	272.76
704.93	272.36
705.26	271.95
705.60	271.59
705.93	271.14
706.27	270.82
706.60	270.47
706.94	270.15
707.27	269.72
707.61	269.33
707.94	268.90
708.27	268.34
708.61	267.87
708.94	267.44
709.28	267.04
709.61	266.66
709.94	266.31
710.28	265.97
710.61	265.64
710.95	265.13
711.28	264.89
711.61	264.53
711.95	264.21
712.28	263.84
712.61	263.46
712.95	263.21
713.28	262.92
713.61	262.53
713.95	262.13
714.28	261.81
714.61	261.45
714.95	261.12
715.28	260.78
715.61	260.46
715.95	260.16
716.28	259.83
716.61	259.55
716.95	259.21
717.28	258.90
717.61	258.57
717.94	258.28
718.28	257.86
718.61	257.55
718.94	257.22
719.27	256.93
719.61	256.67
719.94	256.34
720.27	255.97
720.60	255.69
720.94	255.40
721.27	255.13
721.60	254.88
721.93	254.60
722.27	254.37
722.60	254.10
722.93	253.79
723.26	253.55
723.59	253.24
723.93	253.00
724.26	252.76
724.59	252.49
724.92	252.25
725.25	252.05
725.59	251.81
725.92	251.59
726.25	251.34
726.58	251.09
726.91	250.83
727.24	250.62
727.57	250.37
727.91	250.10
728.24	249.89
728.57	249.65
728.90	249.44
729.23	249.15
729.56	249.02
729.89	248.81
730.22	248.58
730.55	248.36
730.89	248.14
731.22	247.92
731.55	247.70
731.88	247.50
732.21	247.25
732.54	247.03
732.87	246.83
733.20	246.65
733.53	246.45
733.86	246.28
734.19	246.06
734.52	245.90
734.85	245.85
735.18	245.63
735.51	245.50
735.84	245.32
736.17	245.20
736.50	244.92
736.83	244.95
737.16	244.77
737.49	244.60
737.82	244.41
738.15	244.25
738.48	244.07
738.81	243.88
739.14	243.69
739.47	243.51
739.80	243.33
740.13	243.17
740.46	242.97
740.79	242.77
741.12	242.59
741.45	242.38
741.78	242.11
742.11	241.99
742.44	241.77
742.77	241.62
743.10	241.42
743.43	241.25
743.75	240.90
744.08	241.01
744.41	240.84
744.74	240.68
745.07	240.49
745.40	240.38
745.73	240.31
746.06	240.17
746.39	240.06
746.71	239.90
747.04	239.74
747.37	239.59
747.70	239.48
748.03	239.34
748.36	239.24
748.68	239.10
749.01	238.92
749.34	238.80
749.67	238.66
750.00	238.56
750.33	238.57
750.65	238.46
750.98	238.06
751.31	237.95
751.64	237.85
751.97	237.82
752.29	237.68
752.62	237.47
752.95	237.34
753.28	237.19
753.60	237.06
753.93	236.98
754.26	236.89
754.59	236.71
754.91	236.58
755.24	236.44
755.57	236.33
755.90	236.21
756.22	236.08
756.55	235.93
756.88	235.77
757.20	235.54
757.53	235.38
757.86	235.27
758.19	235.18
758.51	235.07
758.84	234.87
759.17	234.75
759.49	234.66
759.82	234.65
760.15	234.56
760.47	234.47
760.80	234.32
761.13	234.24
761.45	234.16
761.78	234.06
762.11	233.98
762.43	233.86
762.76	233.77
763.08	233.70
763.41	233.63
763.74	233.56
764.06	233.47
764.39	233.39
764.71	233.30
765.04	233.20
765.37	233.10
765.69	233.02
766.02	232.94
766.34	232.85
766.67	232.70
767.00	232.66
767.32	232.68
767.65	232.72
767.97	232.63
768.30	232.57
768.62	232.49
768.95	232.40
769.27	232.33
769.60	232.29
769.92	232.19
770.25	232.09
770.57	231.99
770.90	231.92
771.22	231.84
771.55	231.79
771.87	231.74
772.20	231.68
772.52	231.77
772.85	231.93
773.17	231.88
773.50	231.81
773.82	231.71
774.15	231.56
774.47	231.40
774.80	231.33
775.12	231.27
775.45	231.22
775.77	231.18
776.09	231.14
776.42	231.08
776.74	231.09
777.07	231.04
777.39	231.00
777.72	230.94
778.04	230.92
778.36	230.86
778.69	230.81
779.01	230.78
779.33	230.58
779.66	230.32
779.98	230.27
780.31	230.24
780.63	230.27
780.95	230.26
781.28	230.22
781.60	230.16
781.92	230.12
782.25	230.08
782.57	230.03
782.89	229.99
783.22	229.94
783.54	229.86
783.86	229.84
784.19	229.80
784.51	229.82
784.83	229.76
785.16	229.72
785.48	229.69
785.80	229.65
786.12	229.64
786.45	229.60
786.77	229.58
787.09	229.54
787.42	229.44
787.74	229.41
788.06	229.38
788.38	229.35
788.71	229.30
789.03	229.28
789.35	229.27
789.67	229.22
789.99	229.20
790.32	229.16
790.64	229.15
790.96	229.29
791.28	229.19
791.61	229.16
791.93	229.14
792.25	229.10
792.57	229.20
792.89	229.14
793.21	229.13
793.54	229.08
793.86	229.04
794.18	229.03
794.50	228.97
794.82	228.94
795.14	228.94
795.47	228.95
795.79	228.92
796.11	228.86
796.43	228.83
796.75	228.80
797.07	228.79
797.39	228.75
797.71	228.58
798.04	228.57
798.36	228.56
798.68	228.53
799.00	228.52
799.32	228.40
799.64	228.41
799.96	228.39
800.28	228.40
800.60	228.37
800.92	228.36
801.24	228.34
801.56	228.33
801.89	228.30
802.21	228.28
802.53	228.23
802.85	228.26
803.17	228.32
803.49	228.27
803.81	228.23
804.13	228.20
804.45	228.16
804.77	228.15
805.09	228.14
805.41	228.10
805.73	228.05
806.05	227.99
806.37	227.96
806.69	227.92
807.01	227.89
807.33	227.88
807.65	227.80
807.97	227.86
808.28	227.82
808.60	227.80
808.92	227.76
809.24	227.86
809.56	227.81
809.88	227.73
810.20	227.73
810.52	227.75
810.84	227.72
811.16	227.69
811.48	227.66
811.80	227.70
812.12	227.69
812.43	227.71
812.75	227.72
813.07	227.68
813.39	227.68
813.71	227.64
814.03	227.61
814.35	227.60
814.67	227.51
814.98	227.49
815.30	227.48
815.62	227.44
815.94	227.31
816.26	227.31
816.58	227.27
816.89	227.27
817.21	227.21
817.53	227.21
817.85	227.21
818.17	227.19
818.48	227.11
818.80	227.13
819.12	227.08
819.44	227.04
819.76	227.01
820.07	227.00
820.39	226.99
820.71	226.99
821.03	226.98
821.34	226.96
821.66	226.97
821.98	226.97
822.30	226.96
822.61	227.07
822.93	227.03
823.25	227.02
823.57	226.99
823.88	227.00
824.20	226.99
824.52	227.00
824.83	226.99
825.15	226.96
825.47	226.94
825.79	226.94
826.10	226.93
826.42	226.92
826.74	226.92
827.05	226.91
827.37	226.91
827.69	226.89
828.00	226.88
828.32	226.87
828.64	226.84
828.95	226.93
829.27	226.86
829.58	226.85
829.90	226.87
830.22	226.88
830.53	226.84
830.85	226.81
831.17	226.75
831.48	226.75
831.80	226.75
832.11	226.74
832.43	226.70
832.75	226.69
833.06	226.80
833.38	226.74
833.69	226.73
834.01	226.73
834.32	226.72
834.64	226.70
834.96	226.70
835.27	226.69
835.59	226.62
835.90	226.59
836.22	226.58
836.53	226.54
836.85	226.52
837.16	226.70
837.48	226.71
837.79	226.76
838.11	226.76
838.42	226.76
838.74	226.77
839.05	226.75
839.37	226.74
839.68	226.62
840.00	226.61
840.31	226.63
840.63	226.61
840.94	226.58
841.26	226.56
841.57	226.55
841.88	226.56
842.20	226.53
842.51	226.50
842.83	226.49
843.14	226.66
843.46	226.64
843.77	226.53
844.08	226.52
844.40	226.45
844.71	226.43
845.03	226.41
845.34	226.39
845.65	226.39
845.97	226.39
846.28	226.40
846.60	226.40
846.91	226.37
847.22	226.36
847.54	226.40
847.85	226.41
848.16	226.39
848.48	226.35
848.79	226.42
849.10	226.44
849.42	226.45
849.73	226.27
850.04	226.27
850.36	226.20
850.67	226.23
850.98	226.24
851.30	226.25
851.61	226.25
851.92	226.24
852.23	226.29
852.55	226.29
852.86	226.30
853.17	226.31
853.49	226.35
853.80	226.38
854.11	226.39
854.42	226.41
854.74	226.39
855.05	226.40
855.36	226.30
855.67	226.30
855.99	226.29
856.30	226.51
856.61	226.50
856.92	226.51
857.23	226.51
857.55	226.49
857.86	226.47
858.17	226.49
858.48	226.46
858.79	226.42
859.11	226.43
859.42	226.42
859.73	226.38
860.04	226.37
860.35	226.31
860.66	226.25
860.98	226.24
861.29	226.26
861.60	226.25
861.91	226.29
862.22	226.26
862.53	226.22
862.84	226.01
863.16	226.04
863.47	226.01
863.78	225.98
864.09	225.99
864.40	226.00
864.71	226.00
865.02	226.03
865.33	226.01
865.64	225.98
865.95	225.97
866.27	226.09
866.58	226.07
866.89	226.09
867.20	226.10
867.51	226.07
867.82	226.05
868.13	226.11
868.44	226.06
868.75	226.10
869.06	226.11
869.37	226.13
869.68	226.07
869.99	226.10
870.30	226.11
870.61	226.13
870.92	226.10
871.23	226.08
871.54	226.09
871.85	226.14
872.16	226.15
872.47	226.14
872.78	226.04
873.09	226.05
873.40	226.03
873.71	226.04
874.02	226.06
874.33	226.04
874.64	226.00
874.95	226.03
875.26	225.99
875.56	225.98
875.87	225.97
876.18	225.97
876.49	226.14
876.80	226.12
877.11	226.09
877.42	226.10
877.73	226.10
878.04	226.07
878.35	226.06
878.66	226.06
878.96	226.06
879.27	226.05
879.58	226.04
879.89	226.03
880.20	226.08
880.51	226.07
880.82	226.07
881.12	226.08
881.43	226.04
881.74	226.02
882.05	226.02
882.36	226.03
882.67	226.04
882.97	225.84
883.28	225.82
883.59	225.82
883.90	225.84
884.21	225.86
884.51	225.85
884.82	225.82
885.13	225.82
885.44	225.82
885.74	225.82
886.05	225.81
886.36	225.81
886.67	225.74
886.98	225.83
887.28	225.85
887.59	225.84
887.90	225.85
888.20	225.85
888.51	225.88
888.82	225.85
889.13	225.86
889.43	226.02
889.74	226.02
890.05	226.01
890.35	225.99
890.66	225.96
890.97	225.94
891.28	225.93
891.58	225.93
891.89	225.93
892.20	225.91
892.50	225.89
892.81	225.88
893.12	225.88
893.42	225.79
893.73	225.79
894.04	225.79
894.34	225.80
894.65	225.79
894.95	225.77
895.26	225.78
895.57	225.86
895.87	225.68
896.18	225.71
896.48	225.72
896.79	225.72
897.10	225.75
897.40	225.76
897.71	225.78
898.01	225.77
898.32	225.79
898.63	225.78
898.93	225.80
899.24	225.80
899.54	225.80
899.85	225.79
900.15	225.78
900.46	225.78
900.76	225.80
901.07	225.79
901.38	225.79
901.68	225.81
901.99	225.71
902.29	225.73
902.60	225.71
902.90	225.70
903.21	225.70
903.51	225.68
903.82	225.71
904.12	225.71
904.43	225.72
904.73	225.71
905.03	225.72
905.34	225.90
905.64	225.89
905.95	225.89
906.25	225.89
906.56	225.88
906.86	225.88
907.17	225.86
907.47	225.87
907.77	225.85
908.08	225.81
908.38	225.82
908.69	225.83
908.99	225.86
909.30	225.88
909.60	225.88
909.90	225.87
910.21	225.82
910.51	225.79
910.81	225.79
911.12	225.80
911.42	225.80
911.73	225.61
912.03	225.62
912.33	225.66
912.64	225.65
912.94	225.63
913.24	225.61
913.55	225.59
913.85	225.58
914.15	225.61
914.46	225.64
914.76	225.62
915.06	225.60
915.37	225.57
915.67	225.55
915.97	225.56
916.27	225.53
916.58	225.54
916.88	225.54
917.18	225.52
917.49	225.64
917.79	225.63
918.09	225.66
918.39	225.70
918.70	225.68
919.00	225.70
919.30	225.78
919.60	225.77
919.91	225.76
920.21	225.77
920.51	225.73
920.81	225.71
921.12	225.74
921.42	225.74
921.72	225.75
922.02	225.76
922.32	225.78
922.63	225.79
922.93	225.89
923.23	225.89
923.53	225.88
923.83	225.76
924.13	225.78
924.44	225.77
924.74	225.79
925.04	225.83
925.34	225.82
925.64	225.74
925.94	225.75
926.24	225.85
926.55	225.83
926.85	225.86
927.15	225.86
927.45	225.86
927.75	225.86
928.05	225.86
928.35	225.85
928.65	225.88
928.95	225.89
929.26	225.81
929.56	225.85
929.86	225.87
930.16	225.86
930.46	225.84
930.76	225.85
931.06	225.76
931.36	225.72
931.66	225.75
931.96	225.77
932.26	225.77
932.56	225.69
932.86	225.71
933.16	225.70
933.46	225.69
933.76	225.66
934.06	225.69
934.36	225.75
934.66	225.75
934.96	225.72
935.26	225.72
935.56	225.75
935.86	225.69
936.16	225.67
936.46	225.65
936.76	225.64
937.06	225.61
937.36	225.63
937.66	225.64
937.96	225.63
938.26	225.59
938.56	225.58
938.86	225.59
939.16	225.63
939.46	225.64
939.76	225.66
940.06	225.65
940.35	225.62
940.65	225.53
940.95	225.54
941.25	225.50
941.55	225.48
941.85	225.46
942.15	225.50
942.45	225.56
942.75	225.55
943.04	225.56
943.34	225.60
943.64	225.58
943.94	225.55
944.24	225.55
944.54	225.56
944.84	225.56
945.13	225.53
945.43	225.50
945.73	225.48
946.03	225.47
946.33	225.46
946.62	225.44
946.92	225.44
947.22	225.45
947.52	225.47
947.82	225.49
948.11	225.47
948.41	225.43
948.71	225.38
949.01	225.40
949.31	225.38
949.60	225.37
949.90	225.40
950.20	225.39
950.50	225.39
950.79	225.38
951.09	225.41
951.39	225.40
951.69	225.39
951.98	225.42
952.28	225.43
952.58	225.43
952.87	225.43
953.17	225.46
953.47	225.43
953.76	225.43
954.06	225.40
954.36	225.38
954.66	225.38
954.95	225.43
955.25	225.43
955.55	225.45
955.84	225.42
956.14	225.43
956.44	225.44
956.73	225.42
957.03	225.43
957.32	225.43
957.62	225.43
957.92	225.46
958.21	225.44
958.51	225.65
958.81	225.68
959.10	225.70
959.40	225.73
959.69	225.75
959.99	225.78
960.29	225.78
960.58	225.78
960.88	225.85
961.17	225.82
961.47	225.84
961.76	225.82
962.06	225.85
962.36	225.83
962.65	225.84
962.95	225.85
963.24	225.84
963.54	225.84
963.83	225.86
964.13	225.84
964.42	225.82
964.72	225.67
965.01	225.67
965.31	225.65
965.60	225.60
965.90	225.72
966.19	225.67
966.49	225.69
966.78	225.68
967.08	225.66
967.37	225.66
967.67	225.63
967.96	225.66
968.26	225.65
968.55	225.68
968.85	225.67
969.14	225.66
969.43	225.66
969.73	225.64
970.02	225.64
970.32	225.63
970.61	225.60
970.91	225.55
971.20	225.52
971.49	225.51
971.79	225.53
972.08	225.40
972.38	225.41
972.67	225.40
972.96	225.43
973.26	225.39
973.55	225.44
973.85	225.43
974.14	225.42
974.43	225.43
974.73	225.39
975.02	225.38
975.31	225.38
975.61	225.38
975.90	225.36
976.19	225.35
976.49	225.36
976.78	225.37
977.07	225.38
977.37	225.39
977.66	225.41
977.95	225.38
978.24	225.40
978.54	225.44
978.83	225.43
979.12	225.42
979.42	225.42
979.71	225.38
980.00	225.38
980.29	225.39
980.59	225.35
980.88	225.40
981.17	225.40
981.46	225.39
981.76	225.39
982.05	225.45
982.34	225.47
982.63	225.47
982.93	225.47
983.22	225.51
983.51	225.52
983.80	225.54
984.09	225.57
984.39	225.55
984.68	225.52
984.97	225.54
985.26	225.52
985.55	225.54
985.85	225.51
986.14	225.54
986.43	225.55
986.72	225.54
987.01	225.49
987.30	225.49
987.59	225.48
987.89	225.49
988.18	225.43
988.47	225.42
988.76	225.40
989.05	225.38
989.34	225.35
989.63	225.39
989.92	225.36
990.22	225.33
990.51	225.33
990.80	225.32
991.09	225.33
991.38	225.36
991.67	225.34
991.96	225.32
992.25	225.33
992.54	225.29
992.83	225.30
993.12	225.30
993.41	225.33
993.70	225.41
993.99	225.44
994.28	225.46
994.58	225.50
994.87	225.48
995.16	225.48
995.45	225.47
995.74	225.40
996.03	225.43
996.32	225.46
996.61	225.50
996.90	225.50
997.19	225.49
997.48	225.49
997.77	225.47
998.06	225.48
998.34	225.46
998.63	225.47
998.92	225.47
999.21	225.50
999.50	225.50
999.79	225.43
1000.08	225.42
1000.37	225.43
1000.66	225.40
1000.95	225.45
1001.24	225.46
1001.53	225.49
1001.82	225.49
1002.11	225.45
1002.40	225.47
1002.68	225.50
1002.97	225.63
1003.26	225.61
1003.55	225.58
1003.84	225.60
1004.13	225.66
1004.42	225.65
1004.71	225.65
1004.99	225.64
1005.28	225.68
1005.57	225.67
1005.86	225.65
1006.15	225.64
1006.44	225.61
1006.72	225.63
1007.01	225.60
1007.30	225.60
1007.59	225.58
1007.88	225.57
1008.17	225.59
1008.45	225.55
1008.74	225.47
1009.03	225.38
1009.32	225.39
1009.60	225.39
1009.89	225.38
1010.18	225.30
1010.47	225.29
1010.76	225.29
1011.04	225.28
1011.33	225.27
1011.62	225.29
1011.91	225.31
1012.19	225.31
1012.48	225.32
1012.77	225.31
1013.05	225.38
1013.34	225.38
1013.63	225.37
1013.92	225.38
1014.20	225.37
1014.49	225.38
1014.78	225.40
1015.06	225.34
1015.35	225.34
1015.64	225.37
1015.92	225.40
1016.21	225.41
1016.50	225.41
1016.78	225.43
1017.07	225.45
1017.36	225.42
1017.64	225.39
1017.93	225.40
1018.22	225.38
1018.50	225.38
1018.79	225.37
1019.08	225.30
1019.36	225.31
1019.65	225.30
1019.93	225.35
1020.22	225.37
1020.51	225.46
1020.79	225.44
1021.08	225.13
1021.36	225.05
1021.65	225.35
1021.94	225.27
1022.22	225.48
1022.51	225.04
1022.79	226.17
1023.08	225.61
1023.36	227.48
1023.65	224.91
>>>>>End Processed Spectral Data<<<<<
