SpectraSuite Data File
++++++++++++++++++++++++++++++++++++
Date: Tue Oct 06 11:31:50 EDT 2015
User: lab3
Dark Spectrum Present: No
Reference Spectrum Present: No
Number of Sampled Component Spectra: 1
Spectrometers: USB2E7196
Integration Time (usec): 66000 (USB2E7196)
Spectra Averaged: 1000 (USB2E7196)
Boxcar Smoothing: 10 (USB2E7196)
Correct for Electrical Dark: No (USB2E7196)
Strobe/Lamp Enabled: No (USB2E7196)
Correct for Detector Non-linearity: No (USB2E7196)
Correct for Stray Light: No (USB2E7196)
Number of Pixels in Processed Spectrum: 2048
>>>>>Begin Processed Spectral Data<<<<<
339.09	0.00
339.48	216.05
339.86	217.71
340.24	218.96
340.63	220.43
341.01	224.47
341.39	223.07
341.78	224.75
342.16	225.77
342.54	226.03
342.93	214.56
343.31	225.40
343.69	225.94
344.07	226.39
344.46	226.83
344.84	227.23
345.22	227.43
345.60	227.70
345.99	227.90
346.37	228.04
346.75	228.16
347.13	228.26
347.52	228.35
347.90	228.47
348.28	228.51
348.66	228.59
349.05	228.58
349.43	228.64
349.81	228.71
350.19	228.78
350.57	228.87
350.96	228.97
351.34	229.07
351.72	229.18
352.10	229.30
352.48	229.38
352.87	229.43
353.25	229.50
353.63	229.56
354.01	229.63
354.39	229.71
354.77	229.80
355.15	229.91
355.54	229.96
355.92	229.96
356.30	230.05
356.68	230.23
357.06	230.31
357.44	230.35
357.82	230.42
358.20	230.63
358.58	230.68
358.97	230.75
359.35	230.84
359.73	230.93
360.11	230.99
360.49	231.06
360.87	231.11
361.25	231.18
361.63	231.28
362.01	231.32
362.39	231.35
362.77	231.40
363.15	231.43
363.53	231.47
363.91	231.51
364.29	231.52
364.67	231.38
365.05	231.41
365.43	231.45
365.81	231.48
366.19	231.43
366.57	231.52
366.95	231.51
367.33	231.48
367.71	231.46
368.09	231.48
368.47	231.48
368.85	231.47
369.23	231.49
369.61	231.42
369.99	231.46
370.37	231.46
370.75	231.58
371.13	231.54
371.51	231.49
371.89	231.47
372.27	231.46
372.65	231.44
373.03	231.40
373.41	231.35
373.78	231.30
374.16	231.18
374.54	231.08
374.92	231.03
375.30	230.98
375.68	230.91
376.06	230.87
376.44	230.80
376.82	230.76
377.19	230.71
377.57	230.65
377.95	230.54
378.33	230.48
378.71	230.26
379.09	230.22
379.47	230.21
379.84	230.15
380.22	230.07
380.60	230.00
380.98	229.95
381.36	229.90
381.73	229.83
382.11	229.80
382.49	229.76
382.87	229.69
383.25	229.66
383.62	229.83
384.00	229.76
384.38	229.73
384.76	229.73
385.13	229.75
385.51	229.71
385.89	229.67
386.27	229.64
386.64	229.63
387.02	229.59
387.40	229.54
387.78	229.51
388.15	229.49
388.53	229.46
388.91	229.45
389.29	229.42
389.66	229.43
390.04	229.40
390.42	229.41
390.79	229.40
391.17	229.39
391.55	229.19
391.92	229.18
392.30	229.20
392.68	229.15
393.05	229.13
393.43	229.14
393.81	229.16
394.18	229.14
394.56	229.16
394.94	229.20
395.31	229.20
395.69	229.28
396.06	229.33
396.44	229.37
396.82	229.39
397.19	229.52
397.57	229.54
397.95	229.62
398.32	229.62
398.70	229.70
399.07	229.80
399.45	229.85
399.82	229.93
400.20	229.98
400.58	230.07
400.95	230.09
401.33	230.22
401.70	230.46
402.08	230.60
402.45	230.73
402.83	230.89
403.20	231.06
403.58	231.19
403.95	231.41
404.33	231.64
404.71	231.85
405.08	232.15
405.46	232.40
405.83	232.67
406.21	232.96
406.58	233.29
406.96	233.61
407.33	233.99
407.70	234.42
408.08	234.99
408.45	235.49
408.83	236.04
409.20	236.55
409.58	236.99
409.95	237.64
410.33	238.30
410.70	238.95
411.08	239.71
411.45	240.52
411.82	241.32
412.20	242.25
412.57	243.36
412.95	244.25
413.32	245.40
413.69	246.58
414.07	247.85
414.44	249.23
414.82	250.63
415.19	252.28
415.56	253.94
415.94	255.67
416.31	257.62
416.68	259.57
417.06	261.84
417.43	263.97
417.81	266.40
418.18	268.91
418.55	271.64
418.93	274.47
419.30	277.44
419.67	280.59
420.04	283.84
420.42	287.24
420.79	291.14
421.16	295.08
421.54	299.07
421.91	303.26
422.28	307.60
422.66	312.29
423.03	316.74
423.40	321.43
423.77	326.46
424.15	331.59
424.52	336.91
424.89	342.66
425.26	348.37
425.64	353.68
426.01	359.63
426.38	365.71
426.75	371.98
427.13	378.36
427.50	385.04
427.87	391.97
428.24	398.93
428.61	405.61
428.99	412.81
429.36	420.78
429.73	428.37
430.10	435.93
430.47	443.67
430.85	451.70
431.22	460.26
431.59	469.00
431.96	477.53
432.33	487.04
432.70	496.07
433.08	506.83
433.45	516.94
433.82	526.87
434.19	538.00
434.56	548.92
434.93	559.53
435.30	570.05
435.68	582.00
436.05	593.68
436.42	605.38
436.79	616.09
437.16	627.59
437.53	639.99
437.90	652.41
438.27	664.53
438.64	677.55
439.01	689.42
439.38	700.40
439.75	710.97
440.13	722.98
440.50	734.45
440.87	743.52
441.24	753.47
441.61	764.44
441.98	772.50
442.35	782.03
442.72	791.77
443.09	801.12
443.46	807.27
443.83	811.85
444.20	815.59
444.57	821.12
444.94	824.50
445.31	827.84
445.68	830.67
446.05	832.79
446.42	832.46
446.79	831.88
447.16	831.38
447.53	831.05
447.90	827.54
448.27	824.04
448.64	818.65
449.01	815.04
449.37	807.48
449.74	800.66
450.11	791.82
450.48	782.09
450.85	772.26
451.22	763.70
451.59	755.39
451.96	747.96
452.33	737.13
452.70	727.41
453.07	715.67
453.43	704.01
453.80	692.66
454.17	681.78
454.54	671.67
454.91	660.19
455.28	649.32
455.65	639.02
456.02	628.27
456.38	619.60
456.75	608.41
457.12	599.35
457.49	590.19
457.86	581.64
458.23	574.12
458.59	565.81
458.96	557.30
459.33	549.81
459.70	542.16
460.07	536.25
460.43	529.34
460.80	522.87
461.17	517.17
461.54	511.09
461.91	505.44
462.27	499.68
462.64	494.98
463.01	489.58
463.38	484.22
463.74	479.38
464.11	475.06
464.48	471.17
464.85	466.96
465.21	463.73
465.58	460.12
465.95	456.00
466.32	452.70
466.68	449.47
467.05	446.23
467.42	443.05
467.78	439.70
468.15	436.60
468.52	434.33
468.88	431.33
469.25	428.59
469.62	426.42
469.98	424.01
470.35	421.86
470.72	419.95
471.08	417.95
471.45	416.25
471.82	414.39
472.18	412.42
472.55	411.17
472.92	409.61
473.28	408.39
473.65	407.06
474.02	405.85
474.38	404.81
474.75	404.17
475.11	403.31
475.48	402.90
475.85	402.44
476.21	402.20
476.58	402.04
476.94	402.23
477.31	402.26
477.67	402.38
478.04	402.68
478.41	403.11
478.77	403.72
479.14	404.07
479.50	404.87
479.87	405.88
480.23	406.87
480.60	407.85
480.96	408.81
481.33	410.26
481.69	411.69
482.06	413.12
482.42	414.44
482.79	416.05
483.15	417.95
483.52	420.08
483.88	422.13
484.25	424.33
484.61	426.64
484.98	429.09
485.34	431.87
485.71	434.78
486.07	437.85
486.44	440.87
486.80	444.28
487.17	447.76
487.53	451.59
487.90	455.57
488.26	459.91
488.62	464.46
488.99	469.04
489.35	473.88
489.72	479.08
490.08	484.54
490.44	490.09
490.81	495.84
491.17	501.75
491.54	508.01
491.90	514.44
492.26	521.25
492.63	528.39
492.99	535.81
493.36	543.53
493.72	551.64
494.08	559.93
494.45	568.64
494.81	577.71
495.17	586.96
495.54	596.76
495.90	606.99
496.26	617.47
496.63	628.18
496.99	639.24
497.35	650.78
497.72	662.67
498.08	674.97
498.44	687.56
498.80	700.94
499.17	714.66
499.53	728.84
499.89	743.43
500.26	758.08
500.62	773.05
500.98	788.66
501.34	804.46
501.71	821.02
502.07	837.86
502.43	855.15
502.79	872.56
503.16	890.44
503.52	908.46
503.88	926.95
504.24	945.86
504.60	965.07
504.97	984.68
505.33	1004.77
505.69	1025.88
506.05	1047.01
506.41	1067.93
506.78	1089.18
507.14	1111.24
507.50	1133.74
507.86	1156.80
508.22	1179.89
508.59	1202.81
508.95	1226.52
509.31	1250.72
509.67	1275.40
510.03	1299.92
510.39	1324.72
510.75	1349.67
511.12	1374.89
511.48	1399.94
511.84	1425.06
512.20	1450.54
512.56	1476.65
512.92	1502.51
513.28	1527.85
513.64	1553.64
514.00	1579.45
514.37	1605.53
514.73	1631.36
515.09	1656.57
515.45	1681.94
515.81	1707.34
516.17	1732.82
516.53	1757.63
516.89	1782.40
517.25	1807.34
517.61	1832.18
517.97	1857.23
518.33	1881.47
518.69	1905.52
519.05	1929.85
519.41	1954.10
519.77	1978.22
520.13	2001.81
520.49	2025.36
520.85	2049.04
521.21	2072.22
521.57	2095.95
521.93	2118.42
522.29	2141.20
522.65	2163.56
523.01	2185.88
523.37	2207.37
523.73	2229.20
524.09	2251.11
524.45	2272.79
524.81	2293.62
525.17	2314.08
525.53	2333.89
525.89	2354.27
526.25	2373.92
526.61	2392.44
526.97	2411.09
527.33	2429.41
527.68	2446.57
528.04	2463.21
528.40	2478.73
528.76	2494.78
529.12	2509.56
529.48	2524.97
529.84	2539.12
530.20	2554.09
530.56	2567.82
530.91	2581.81
531.27	2594.77
531.63	2606.69
531.99	2618.01
532.35	2628.33
532.71	2638.36
533.07	2648.71
533.42	2657.43
533.78	2666.97
534.14	2676.97
534.50	2685.49
534.86	2693.99
535.21	2700.53
535.57	2707.42
535.93	2714.74
536.29	2720.75
536.65	2726.61
537.00	2730.46
537.36	2734.74
537.72	2737.50
538.08	2740.06
538.44	2741.39
538.79	2743.35
539.15	2744.39
539.51	2745.00
539.87	2745.65
540.22	2744.72
540.58	2744.17
540.94	2743.42
541.29	2741.45
541.65	2737.89
542.01	2734.46
542.37	2729.98
542.72	2727.42
543.08	2723.15
543.44	2718.72
543.79	2712.72
544.15	2706.53
544.51	2701.17
544.87	2693.93
545.22	2686.20
545.58	2678.35
545.94	2671.13
546.29	2662.33
546.65	2653.50
547.01	2644.67
547.36	2635.47
547.72	2626.32
548.07	2615.63
548.43	2604.84
548.79	2593.04
549.14	2582.07
549.50	2570.97
549.86	2559.37
550.21	2546.25
550.57	2534.28
550.92	2520.11
551.28	2507.05
551.64	2494.54
551.99	2481.77
552.35	2468.98
552.70	2456.19
553.06	2443.77
553.41	2430.50
553.77	2416.64
554.13	2402.71
554.48	2388.25
554.84	2373.61
555.19	2359.55
555.55	2345.06
555.90	2330.42
556.26	2316.74
556.61	2302.06
556.97	2286.57
557.32	2271.55
557.68	2256.47
558.03	2241.04
558.39	2226.57
558.74	2212.17
559.10	2195.96
559.45	2180.41
559.81	2165.68
560.16	2150.63
560.52	2135.24
560.87	2120.52
561.23	2105.29
561.58	2090.43
561.94	2074.84
562.29	2059.36
562.64	2043.81
563.00	2028.63
563.35	2014.10
563.71	1999.09
564.06	1984.08
564.42	1969.58
564.77	1954.85
565.12	1940.72
565.48	1926.44
565.83	1912.44
566.19	1898.30
566.54	1884.49
566.89	1869.52
567.25	1854.16
567.60	1839.85
567.96	1825.00
568.31	1809.50
568.66	1794.80
569.02	1780.37
569.37	1766.17
569.72	1752.16
570.08	1738.21
570.43	1723.93
570.78	1709.01
571.14	1694.16
571.49	1679.71
571.84	1665.97
572.20	1651.14
572.55	1636.47
572.90	1621.42
573.26	1606.17
573.61	1590.95
573.96	1576.35
574.31	1562.24
574.67	1548.44
575.02	1533.72
575.37	1518.94
575.72	1504.39
576.08	1490.24
576.43	1475.92
576.78	1461.68
577.13	1447.52
577.49	1433.52
577.84	1419.55
578.19	1405.64
578.54	1391.83
578.90	1378.09
579.25	1363.73
579.60	1350.40
579.95	1337.17
580.30	1323.85
580.66	1310.68
581.01	1297.66
581.36	1284.40
581.71	1271.20
582.06	1257.91
582.42	1244.80
582.77	1232.15
583.12	1219.70
583.47	1207.12
583.82	1194.77
584.17	1182.33
584.53	1170.13
584.88	1157.99
585.23	1145.88
585.58	1134.06
585.93	1122.34
586.28	1111.12
586.63	1099.90
586.98	1088.56
587.34	1077.52
587.69	1066.37
588.04	1055.60
588.39	1044.89
588.74	1033.99
589.09	1023.43
589.44	1012.68
589.79	1002.51
590.14	992.38
590.49	982.33
590.84	972.53
591.19	962.76
591.54	953.08
591.89	942.97
592.25	933.14
592.60	923.21
592.95	913.55
593.30	903.86
593.65	894.07
594.00	884.60
594.35	875.87
594.70	866.62
595.05	858.10
595.40	849.28
595.75	840.27
596.10	831.86
596.45	823.33
596.80	815.08
597.15	806.86
597.50	798.69
597.85	790.79
598.19	782.87
598.54	774.89
598.89	767.12
599.24	759.76
599.59	752.48
599.94	745.68
600.29	738.67
600.64	731.82
600.99	724.87
601.34	718.10
601.69	710.86
602.04	704.14
602.39	697.48
602.74	691.00
603.08	684.74
603.43	678.47
603.78	672.29
604.13	666.23
604.48	660.16
604.83	654.25
605.18	648.45
605.53	642.69
605.87	636.95
606.22	631.42
606.57	625.81
606.92	620.10
607.27	614.52
607.62	609.18
607.96	603.92
608.31	599.02
608.66	594.02
609.01	589.19
609.36	584.53
609.70	579.73
610.05	574.96
610.40	570.31
610.75	565.66
611.10	561.25
611.44	556.76
611.79	552.43
612.14	548.14
612.49	543.75
612.83	539.56
613.18	535.54
613.53	531.59
613.88	527.68
614.22	523.98
614.57	520.15
614.92	516.43
615.27	512.75
615.61	509.10
615.96	505.52
616.31	501.95
616.65	498.41
617.00	495.00
617.35	491.67
617.70	488.39
618.04	485.22
618.39	482.07
618.74	479.08
619.08	475.97
619.43	472.92
619.78	469.98
620.12	467.13
620.47	464.41
620.82	461.65
621.16	458.97
621.51	456.41
621.85	453.90
622.20	451.42
622.55	448.98
622.89	446.55
623.24	444.25
623.59	441.97
623.93	439.78
624.28	437.65
624.62	435.74
624.97	433.80
625.32	431.72
625.66	429.62
626.01	427.55
626.35	425.64
626.70	423.72
627.04	421.95
627.39	420.09
627.73	418.24
628.08	416.52
628.43	414.84
628.77	413.07
629.12	411.43
629.46	409.78
629.81	408.26
630.15	406.62
630.50	405.04
630.84	403.55
631.19	402.12
631.53	400.70
631.88	399.08
632.22	397.55
632.57	396.34
632.91	395.11
633.26	393.96
633.60	392.76
633.95	391.58
634.29	390.26
634.64	389.10
634.98	387.81
635.32	386.64
635.67	385.55
636.01	384.50
636.36	383.45
636.70	382.55
637.05	381.44
637.39	380.52
637.73	379.57
638.08	378.68
638.42	377.75
638.77	376.75
639.11	375.70
639.45	374.72
639.80	373.68
640.14	372.71
640.49	371.71
640.83	370.73
641.17	369.81
641.52	368.90
641.86	368.02
642.20	367.31
642.55	366.39
642.89	365.50
643.23	364.61
643.58	363.82
643.92	362.86
644.26	362.01
644.61	361.23
644.95	360.41
645.29	359.51
645.64	358.61
645.98	357.79
646.32	357.08
646.66	356.29
647.01	355.51
647.35	354.78
647.69	354.01
648.04	353.30
648.38	352.53
648.72	351.82
649.06	351.15
649.41	350.37
649.75	349.66
650.09	349.01
650.43	348.34
650.78	347.61
651.12	346.95
651.46	346.29
651.80	345.62
652.14	344.95
652.49	344.36
652.83	343.72
653.17	343.08
653.51	342.47
653.85	341.91
654.20	341.33
654.54	340.64
654.88	340.02
655.22	339.41
655.56	338.73
655.90	338.06
656.25	337.36
656.59	336.73
656.93	336.15
657.27	335.63
657.61	335.02
657.95	334.49
658.29	333.91
658.64	333.40
658.98	332.79
659.32	332.18
659.66	331.61
660.00	331.06
660.34	330.54
660.68	329.95
661.02	329.31
661.36	328.72
661.70	328.17
662.05	327.63
662.39	327.12
662.73	326.68
663.07	326.27
663.41	325.78
663.75	325.24
664.09	324.71
664.43	324.10
664.77	323.58
665.11	322.96
665.45	322.41
665.79	321.83
666.13	321.29
666.47	320.76
666.81	320.18
667.15	319.57
667.49	319.05
667.83	318.60
668.17	318.11
668.51	317.62
668.85	317.19
669.19	316.82
669.53	316.31
669.87	315.80
670.21	315.29
670.55	314.82
670.89	314.45
671.23	313.99
671.57	313.55
671.91	313.14
672.25	312.75
672.58	312.37
672.92	311.89
673.26	311.48
673.60	311.05
673.94	310.65
674.28	310.28
674.62	309.87
674.96	309.39
675.30	308.97
675.64	308.52
675.97	308.03
676.31	307.49
676.65	307.00
676.99	306.62
677.33	306.12
677.67	305.66
678.01	305.10
678.34	304.63
678.68	304.18
679.02	303.69
679.36	303.24
679.70	302.74
680.04	302.31
680.37	301.87
680.71	301.44
681.05	301.02
681.39	300.55
681.73	300.08
682.06	299.60
682.40	299.15
682.74	298.76
683.08	298.41
683.42	297.96
683.75	297.54
684.09	297.01
684.43	296.54
684.77	296.07
685.10	295.67
685.44	295.26
685.78	294.82
686.12	294.40
686.45	293.93
686.79	293.46
687.13	293.03
687.46	292.55
687.80	292.10
688.14	291.59
688.48	291.14
688.81	290.67
689.15	290.31
689.49	289.85
689.82	289.37
690.16	288.81
690.50	288.35
690.83	287.89
691.17	287.43
691.51	286.99
691.84	286.59
692.18	286.14
692.52	285.64
692.85	285.18
693.19	284.79
693.52	284.35
693.86	283.90
694.20	283.47
694.53	283.02
694.87	282.55
695.21	282.08
695.54	281.62
695.88	281.17
696.21	280.67
696.55	280.21
696.88	279.75
697.22	279.32
697.56	278.90
697.89	278.42
698.23	277.99
698.56	277.53
698.90	277.10
699.23	276.63
699.57	276.22
699.90	275.79
700.24	275.30
700.58	274.90
700.91	274.55
701.25	274.29
701.58	273.97
701.92	273.64
702.25	273.31
702.59	272.91
702.92	272.51
703.26	272.12
703.59	271.75
703.93	271.53
704.26	271.15
704.60	270.76
704.93	270.38
705.26	269.98
705.60	269.66
705.93	269.22
706.27	268.90
706.60	268.58
706.94	268.26
707.27	267.87
707.61	267.49
707.94	267.08
708.27	266.55
708.61	266.09
708.94	265.68
709.28	265.30
709.61	264.93
709.94	264.59
710.28	264.27
710.61	263.95
710.95	263.46
711.28	263.24
711.61	262.90
711.95	262.61
712.28	262.27
712.61	261.91
712.95	261.69
713.28	261.44
713.61	261.06
713.95	260.70
714.28	260.41
714.61	260.08
714.95	259.78
715.28	259.47
715.61	259.19
715.95	258.90
716.28	258.60
716.61	258.32
716.95	258.00
717.28	257.68
717.61	257.37
717.94	257.07
718.28	256.66
718.61	256.38
718.94	256.07
719.27	255.81
719.61	255.59
719.94	255.28
720.27	254.93
720.60	254.67
720.94	254.42
721.27	254.17
721.60	253.95
721.93	253.68
722.27	253.48
722.60	253.25
722.93	252.99
723.26	252.77
723.59	252.51
723.93	252.32
724.26	252.12
724.59	251.90
724.92	251.69
725.25	251.52
725.59	251.29
725.92	251.11
726.25	250.89
726.58	250.65
726.91	250.42
727.24	250.23
727.57	250.01
727.91	249.76
728.24	249.56
728.57	249.35
728.90	249.18
729.23	248.92
729.56	248.79
729.89	248.61
730.22	248.40
730.55	248.21
730.89	248.00
731.22	247.79
731.55	247.58
731.88	247.39
732.21	247.17
732.54	246.97
732.87	246.78
733.20	246.61
733.53	246.43
733.86	246.28
734.19	246.07
734.52	245.94
734.85	245.91
735.18	245.72
735.51	245.61
735.84	245.45
736.17	245.33
736.50	245.08
736.83	245.11
737.16	244.95
737.49	244.81
737.82	244.64
738.15	244.50
738.48	244.37
738.81	244.21
739.14	244.05
739.47	243.90
739.80	243.73
740.13	243.60
740.46	243.44
740.79	243.27
741.12	243.12
741.45	242.93
741.78	242.69
742.11	242.58
742.44	242.39
742.77	242.26
743.10	242.10
743.43	241.96
743.75	241.64
744.08	241.77
744.41	241.62
744.74	241.48
745.07	241.30
745.40	241.21
745.73	241.15
746.06	241.04
746.39	240.92
746.71	240.79
747.04	240.64
747.37	240.51
747.70	240.42
748.03	240.31
748.36	240.22
748.68	240.09
749.01	239.93
749.34	239.82
749.67	239.71
750.00	239.63
750.33	239.63
750.65	239.54
750.98	239.18
751.31	239.09
751.64	238.99
751.97	239.00
752.29	238.88
752.62	238.68
752.95	238.55
753.28	238.43
753.60	238.32
753.93	238.26
754.26	238.18
754.59	238.02
754.91	237.90
755.24	237.77
755.57	237.74
755.90	237.64
756.22	237.53
756.55	237.39
756.88	237.24
757.20	237.04
757.53	236.89
757.86	236.78
758.19	236.69
758.51	236.59
758.84	236.41
759.17	236.30
759.49	236.23
759.82	236.22
760.15	236.16
760.47	236.08
760.80	235.96
761.13	235.90
761.45	235.82
761.78	235.74
762.11	235.67
762.43	235.52
762.76	235.43
763.08	235.37
763.41	235.31
763.74	235.25
764.06	235.18
764.39	235.11
764.71	235.03
765.04	234.94
765.37	234.85
765.69	234.78
766.02	234.70
766.34	234.62
766.67	234.48
767.00	234.43
767.32	234.46
767.65	234.49
767.97	234.40
768.30	234.34
768.62	234.27
768.95	234.19
769.27	234.12
769.60	234.09
769.92	234.00
770.25	233.90
770.57	233.82
770.90	233.76
771.22	233.69
771.55	233.65
771.87	233.61
772.20	233.56
772.52	233.65
772.85	233.82
773.17	233.77
773.50	233.72
773.82	233.64
774.15	233.49
774.47	233.33
774.80	233.27
775.12	233.23
775.45	233.18
775.77	233.16
776.09	233.13
776.42	233.07
776.74	233.08
777.07	233.05
777.39	233.00
777.72	232.95
778.04	232.94
778.36	232.89
778.69	232.85
779.01	232.82
779.33	232.63
779.66	232.38
779.98	232.34
780.31	232.31
780.63	232.35
780.95	232.35
781.28	232.32
781.60	232.28
781.92	232.24
782.25	232.21
782.57	232.18
782.89	232.13
783.22	232.09
783.54	232.01
783.86	232.00
784.19	231.97
784.51	231.99
784.83	231.93
785.16	231.89
785.48	231.87
785.80	231.84
786.12	231.83
786.45	231.81
786.77	231.79
787.09	231.75
787.42	231.66
787.74	231.63
788.06	231.62
788.38	231.59
788.71	231.55
789.03	231.53
789.35	231.52
789.67	231.48
789.99	231.46
790.32	231.42
790.64	231.41
790.96	231.56
791.28	231.46
791.61	231.44
791.93	231.43
792.25	231.39
792.57	231.48
792.89	231.43
793.21	231.40
793.54	231.36
793.86	231.31
794.18	231.29
794.50	231.23
794.82	231.21
795.14	231.20
795.47	231.21
795.79	231.19
796.11	231.13
796.43	231.11
796.75	231.09
797.07	231.09
797.39	231.04
797.71	230.87
798.04	230.86
798.36	230.85
798.68	230.82
799.00	230.81
799.32	230.70
799.64	230.71
799.96	230.70
800.28	230.72
800.60	230.69
800.92	230.69
801.24	230.66
801.56	230.64
801.89	230.61
802.21	230.60
802.53	230.54
802.85	230.55
803.17	230.61
803.49	230.56
803.81	230.51
804.13	230.50
804.45	230.46
804.77	230.44
805.09	230.42
805.41	230.39
805.73	230.34
806.05	230.28
806.37	230.24
806.69	230.21
807.01	230.17
807.33	230.17
807.65	230.10
807.97	230.17
808.28	230.14
808.60	230.12
808.92	230.08
809.24	230.17
809.56	230.14
809.88	230.05
810.20	230.05
810.52	230.08
810.84	230.04
811.16	230.01
811.48	229.99
811.80	230.04
812.12	230.02
812.43	230.06
812.75	230.05
813.07	230.03
813.39	230.02
813.71	229.98
814.03	229.93
814.35	229.93
814.67	229.83
814.98	229.81
815.30	229.78
815.62	229.74
815.94	229.62
816.26	229.63
816.58	229.59
816.89	229.59
817.21	229.53
817.53	229.54
817.85	229.54
818.17	229.53
818.48	229.44
818.80	229.48
819.12	229.42
819.44	229.39
819.76	229.36
820.07	229.35
820.39	229.34
820.71	229.36
821.03	229.35
821.34	229.33
821.66	229.34
821.98	229.36
822.30	229.35
822.61	229.47
822.93	229.43
823.25	229.43
823.57	229.40
823.88	229.42
824.20	229.40
824.52	229.42
824.83	229.42
825.15	229.40
825.47	229.36
825.79	229.37
826.10	229.36
826.42	229.34
826.74	229.35
827.05	229.33
827.37	229.33
827.69	229.32
828.00	229.32
828.32	229.30
828.64	229.28
828.95	229.37
829.27	229.30
829.58	229.29
829.90	229.30
830.22	229.30
830.53	229.27
830.85	229.24
831.17	229.19
831.48	229.18
831.80	229.17
832.11	229.16
832.43	229.13
832.75	229.12
833.06	229.23
833.38	229.18
833.69	229.18
834.01	229.18
834.32	229.17
834.64	229.15
834.96	229.16
835.27	229.14
835.59	229.08
835.90	229.03
836.22	229.02
836.53	228.99
836.85	228.97
837.16	229.14
837.48	229.15
837.79	229.20
838.11	229.19
838.42	229.19
838.74	229.20
839.05	229.19
839.37	229.18
839.68	229.06
840.00	229.06
840.31	229.07
840.63	229.06
840.94	229.03
841.26	229.01
841.57	228.99
841.88	229.00
842.20	228.97
842.51	228.94
842.83	228.93
843.14	229.08
843.46	229.07
843.77	228.97
844.08	228.96
844.40	228.91
844.71	228.89
845.03	228.87
845.34	228.85
845.65	228.85
845.97	228.87
846.28	228.87
846.60	228.87
846.91	228.84
847.22	228.82
847.54	228.85
847.85	228.86
848.16	228.85
848.48	228.82
848.79	228.88
849.10	228.90
849.42	228.92
849.73	228.76
850.04	228.74
850.36	228.68
850.67	228.71
850.98	228.72
851.30	228.73
851.61	228.72
851.92	228.71
852.23	228.76
852.55	228.75
852.86	228.77
853.17	228.78
853.49	228.83
853.80	228.86
854.11	228.87
854.42	228.89
854.74	228.87
855.05	228.88
855.36	228.79
855.67	228.80
855.99	228.80
856.30	229.00
856.61	229.00
856.92	228.99
857.23	228.99
857.55	228.96
857.86	228.95
858.17	228.97
858.48	228.95
858.79	228.91
859.11	228.93
859.42	228.91
859.73	228.87
860.04	228.85
860.35	228.79
860.66	228.73
860.98	228.72
861.29	228.74
861.60	228.72
861.91	228.76
862.22	228.73
862.53	228.69
862.84	228.48
863.16	228.51
863.47	228.49
863.78	228.45
864.09	228.47
864.40	228.49
864.71	228.49
865.02	228.52
865.33	228.49
865.64	228.47
865.95	228.47
866.27	228.59
866.58	228.57
866.89	228.60
867.20	228.60
867.51	228.57
867.82	228.56
868.13	228.62
868.44	228.58
868.75	228.60
869.06	228.61
869.37	228.63
869.68	228.59
869.99	228.62
870.30	228.64
870.61	228.65
870.92	228.63
871.23	228.62
871.54	228.63
871.85	228.66
872.16	228.67
872.47	228.66
872.78	228.55
873.09	228.57
873.40	228.54
873.71	228.56
874.02	228.57
874.33	228.55
874.64	228.50
874.95	228.54
875.26	228.50
875.56	228.50
875.87	228.48
876.18	228.48
876.49	228.66
876.80	228.63
877.11	228.60
877.42	228.60
877.73	228.59
878.04	228.57
878.35	228.57
878.66	228.57
878.96	228.57
879.27	228.57
879.58	228.57
879.89	228.57
880.20	228.62
880.51	228.60
880.82	228.61
881.12	228.62
881.43	228.59
881.74	228.56
882.05	228.56
882.36	228.57
882.67	228.58
882.97	228.38
883.28	228.36
883.59	228.35
883.90	228.37
884.21	228.40
884.51	228.37
884.82	228.35
885.13	228.35
885.44	228.34
885.74	228.34
886.05	228.32
886.36	228.34
886.67	228.27
886.98	228.37
887.28	228.38
887.59	228.37
887.90	228.38
888.20	228.38
888.51	228.40
888.82	228.37
889.13	228.38
889.43	228.53
889.74	228.54
890.05	228.54
890.35	228.51
890.66	228.48
890.97	228.47
891.28	228.46
891.58	228.45
891.89	228.45
892.20	228.42
892.50	228.41
892.81	228.39
893.12	228.39
893.42	228.30
893.73	228.30
894.04	228.31
894.34	228.33
894.65	228.33
894.95	228.32
895.26	228.33
895.57	228.40
895.87	228.23
896.18	228.27
896.48	228.27
896.79	228.28
897.10	228.31
897.40	228.32
897.71	228.34
898.01	228.32
898.32	228.34
898.63	228.35
898.93	228.36
899.24	228.36
899.54	228.36
899.85	228.36
900.15	228.35
900.46	228.35
900.76	228.36
901.07	228.36
901.38	228.35
901.68	228.38
901.99	228.28
902.29	228.30
902.60	228.27
902.90	228.25
903.21	228.26
903.51	228.24
903.82	228.28
904.12	228.28
904.43	228.29
904.73	228.29
905.03	228.30
905.34	228.47
905.64	228.45
905.95	228.45
906.25	228.45
906.56	228.44
906.86	228.43
907.17	228.42
907.47	228.42
907.77	228.39
908.08	228.35
908.38	228.37
908.69	228.38
908.99	228.42
909.30	228.44
909.60	228.43
909.90	228.42
910.21	228.38
910.51	228.34
910.81	228.34
911.12	228.34
911.42	228.33
911.73	228.15
912.03	228.17
912.33	228.21
912.64	228.21
912.94	228.19
913.24	228.16
913.55	228.14
913.85	228.13
914.15	228.18
914.46	228.19
914.76	228.18
915.06	228.16
915.37	228.12
915.67	228.09
915.97	228.10
916.27	228.07
916.58	228.08
916.88	228.09
917.18	228.08
917.49	228.20
917.79	228.19
918.09	228.22
918.39	228.28
918.70	228.25
919.00	228.26
919.30	228.35
919.60	228.34
919.91	228.33
920.21	228.35
920.51	228.31
920.81	228.29
921.12	228.32
921.42	228.33
921.72	228.34
922.02	228.36
922.32	228.38
922.63	228.38
922.93	228.48
923.23	228.48
923.53	228.47
923.83	228.36
924.13	228.36
924.44	228.35
924.74	228.36
925.04	228.39
925.34	228.38
925.64	228.31
925.94	228.32
926.24	228.42
926.55	228.40
926.85	228.41
927.15	228.42
927.45	228.41
927.75	228.41
928.05	228.41
928.35	228.39
928.65	228.41
928.95	228.43
929.26	228.35
929.56	228.38
929.86	228.40
930.16	228.37
930.46	228.36
930.76	228.37
931.06	228.29
931.36	228.24
931.66	228.27
931.96	228.29
932.26	228.30
932.56	228.23
932.86	228.24
933.16	228.25
933.46	228.22
933.76	228.20
934.06	228.22
934.36	228.29
934.66	228.29
934.96	228.27
935.26	228.27
935.56	228.30
935.86	228.25
936.16	228.23
936.46	228.23
936.76	228.22
937.06	228.19
937.36	228.20
937.66	228.22
937.96	228.21
938.26	228.17
938.56	228.16
938.86	228.16
939.16	228.18
939.46	228.19
939.76	228.22
940.06	228.22
940.35	228.19
940.65	228.10
940.95	228.11
941.25	228.07
941.55	228.04
941.85	228.02
942.15	228.06
942.45	228.10
942.75	228.10
943.04	228.11
943.34	228.14
943.64	228.12
943.94	228.08
944.24	228.08
944.54	228.09
944.84	228.09
945.13	228.08
945.43	228.05
945.73	228.03
946.03	228.00
946.33	227.97
946.62	227.96
946.92	227.97
947.22	227.97
947.52	227.99
947.82	228.01
948.11	227.99
948.41	227.95
948.71	227.90
949.01	227.91
949.31	227.90
949.60	227.87
949.90	227.91
950.20	227.91
950.50	227.90
950.79	227.88
951.09	227.91
951.39	227.90
951.69	227.89
951.98	227.92
952.28	227.94
952.58	227.95
952.87	227.95
953.17	227.97
953.47	227.95
953.76	227.94
954.06	227.91
954.36	227.89
954.66	227.88
954.95	227.95
955.25	227.96
955.55	227.97
955.84	227.95
956.14	227.95
956.44	227.97
956.73	227.94
957.03	227.95
957.32	227.94
957.62	227.94
957.92	227.97
958.21	227.95
958.51	228.14
958.81	228.16
959.10	228.18
959.40	228.21
959.69	228.23
959.99	228.25
960.29	228.27
960.58	228.29
960.88	228.35
961.17	228.32
961.47	228.32
961.76	228.31
962.06	228.35
962.36	228.33
962.65	228.34
962.95	228.37
963.24	228.35
963.54	228.36
963.83	228.37
964.13	228.36
964.42	228.35
964.72	228.21
965.01	228.21
965.31	228.20
965.60	228.16
965.90	228.27
966.19	228.23
966.49	228.23
966.78	228.22
967.08	228.20
967.37	228.20
967.67	228.18
967.96	228.21
968.26	228.20
968.55	228.23
968.85	228.22
969.14	228.21
969.43	228.22
969.73	228.20
970.02	228.19
970.32	228.18
970.61	228.16
970.91	228.11
971.20	228.09
971.49	228.08
971.79	228.10
972.08	227.98
972.38	228.00
972.67	227.98
972.96	228.00
973.26	227.97
973.55	228.02
973.85	228.01
974.14	227.99
974.43	228.00
974.73	227.97
975.02	227.95
975.31	227.95
975.61	227.95
975.90	227.94
976.19	227.92
976.49	227.93
976.78	227.94
977.07	227.95
977.37	227.97
977.66	227.99
977.95	227.95
978.24	227.98
978.54	228.01
978.83	227.99
979.12	227.98
979.42	227.99
979.71	227.97
980.00	227.97
980.29	227.98
980.59	227.94
980.88	227.98
981.17	227.97
981.46	227.97
981.76	227.96
982.05	228.02
982.34	228.03
982.63	228.02
982.93	228.02
983.22	228.05
983.51	228.05
983.80	228.08
984.09	228.12
984.39	228.10
984.68	228.07
984.97	228.08
985.26	228.08
985.55	228.09
985.85	228.04
986.14	228.08
986.43	228.10
986.72	228.10
987.01	228.04
987.30	228.05
987.59	228.06
987.89	228.07
988.18	228.01
988.47	227.99
988.76	227.98
989.05	227.98
989.34	227.94
989.63	227.97
989.92	227.94
990.22	227.91
990.51	227.91
990.80	227.90
991.09	227.93
991.38	227.94
991.67	227.92
991.96	227.91
992.25	227.90
992.54	227.87
992.83	227.87
993.12	227.87
993.41	227.90
993.70	227.97
993.99	228.00
994.28	228.03
994.58	228.07
994.87	228.06
995.16	228.04
995.45	228.04
995.74	227.98
996.03	228.01
996.32	228.03
996.61	228.07
996.90	228.06
997.19	228.04
997.48	228.06
997.77	228.04
998.06	228.05
998.34	228.03
998.63	228.04
998.92	228.05
999.21	228.08
999.50	228.06
999.79	227.99
1000.08	227.98
1000.37	227.97
1000.66	227.94
1000.95	227.98
1001.24	228.01
1001.53	228.03
1001.82	228.04
1002.11	228.00
1002.40	228.00
1002.68	228.04
1002.97	228.16
1003.26	228.15
1003.55	228.11
1003.84	228.12
1004.13	228.18
1004.42	228.17
1004.71	228.18
1004.99	228.17
1005.28	228.22
1005.57	228.21
1005.86	228.19
1006.15	228.19
1006.44	228.16
1006.72	228.18
1007.01	228.15
1007.30	228.15
1007.59	228.13
1007.88	228.12
1008.17	228.13
1008.45	228.09
1008.74	228.02
1009.03	227.94
1009.32	227.95
1009.60	227.96
1009.89	227.95
1010.18	227.87
1010.47	227.86
1010.76	227.85
1011.04	227.84
1011.33	227.83
1011.62	227.84
1011.91	227.86
1012.19	227.87
1012.48	227.87
1012.77	227.86
1013.05	227.92
1013.34	227.92
1013.63	227.90
1013.92	227.91
1014.20	227.90
1014.49	227.92
1014.78	227.93
1015.06	227.87
1015.35	227.85
1015.64	227.87
1015.92	227.90
1016.21	227.92
1016.50	227.92
1016.78	227.94
1017.07	227.96
1017.36	227.92
1017.64	227.89
1017.93	227.91
1018.22	227.88
1018.50	227.88
1018.79	227.88
1019.08	227.83
1019.36	227.83
1019.65	227.82
1019.93	227.88
1020.22	227.90
1020.51	227.99
1020.79	227.97
1021.08	227.59
1021.36	227.61
1021.65	227.84
1021.94	228.05
1022.22	227.95
1022.51	227.57
1022.79	228.80
1023.08	228.05
1023.36	230.04
1023.65	227.54
>>>>>End Processed Spectral Data<<<<<
