SpectraSuite Data File
++++++++++++++++++++++++++++++++++++
Date: Tue Oct 06 14:54:27 EDT 2015
User: lab3
Dark Spectrum Present: No
Reference Spectrum Present: No
Number of Sampled Component Spectra: 1
Spectrometers: USB2E7196
Integration Time (usec): 66000 (USB2E7196)
Spectra Averaged: 1000 (USB2E7196)
Boxcar Smoothing: 10 (USB2E7196)
Correct for Electrical Dark: No (USB2E7196)
Strobe/Lamp Enabled: No (USB2E7196)
Correct for Detector Non-linearity: No (USB2E7196)
Correct for Stray Light: No (USB2E7196)
Number of Pixels in Processed Spectrum: 2048
>>>>>Begin Processed Spectral Data<<<<<
339.09	0.00
339.48	214.99
339.86	216.29
340.24	217.87
340.63	219.06
341.01	223.23
341.39	221.90
341.78	223.37
342.16	224.83
342.54	225.01
342.93	213.46
343.31	224.24
343.69	224.77
344.07	225.25
344.46	225.69
344.84	226.09
345.22	226.29
345.60	226.56
345.99	226.77
346.37	226.90
346.75	227.02
347.13	227.10
347.52	227.18
347.90	227.30
348.28	227.34
348.66	227.43
349.05	227.42
349.43	227.48
349.81	227.55
350.19	227.63
350.57	227.70
350.96	227.79
351.34	227.91
351.72	228.02
352.10	228.13
352.48	228.20
352.87	228.26
353.25	228.31
353.63	228.38
354.01	228.44
354.39	228.51
354.77	228.59
355.15	228.70
355.54	228.74
355.92	228.76
356.30	228.83
356.68	229.01
357.06	229.09
357.44	229.11
357.82	229.17
358.20	229.40
358.58	229.45
358.97	229.52
359.35	229.61
359.73	229.71
360.11	229.75
360.49	229.83
360.87	229.87
361.25	229.97
361.63	230.07
362.01	230.13
362.39	230.16
362.77	230.22
363.15	230.24
363.53	230.28
363.91	230.32
364.29	230.35
364.67	230.21
365.05	230.22
365.43	230.28
365.81	230.33
366.19	230.28
366.57	230.36
366.95	230.36
367.33	230.32
367.71	230.31
368.09	230.36
368.47	230.34
368.85	230.33
369.23	230.34
369.61	230.26
369.99	230.29
370.37	230.29
370.75	230.42
371.13	230.38
371.51	230.34
371.89	230.32
372.27	230.31
372.65	230.29
373.03	230.27
373.41	230.21
373.78	230.15
374.16	230.02
374.54	229.93
374.92	229.88
375.30	229.83
375.68	229.76
376.06	229.71
376.44	229.66
376.82	229.63
377.19	229.58
377.57	229.54
377.95	229.43
378.33	229.37
378.71	229.17
379.09	229.13
379.47	229.10
379.84	229.04
380.22	228.96
380.60	228.89
380.98	228.83
381.36	228.78
381.73	228.72
382.11	228.70
382.49	228.66
382.87	228.59
383.25	228.56
383.62	228.72
384.00	228.63
384.38	228.60
384.76	228.60
385.13	228.61
385.51	228.57
385.89	228.52
386.27	228.49
386.64	228.48
387.02	228.43
387.40	228.37
387.78	228.36
388.15	228.34
388.53	228.32
388.91	228.30
389.29	228.28
389.66	228.29
390.04	228.25
390.42	228.27
390.79	228.26
391.17	228.24
391.55	228.03
391.92	228.03
392.30	228.05
392.68	228.01
393.05	227.98
393.43	227.99
393.81	228.01
394.18	227.99
394.56	227.99
394.94	228.06
395.31	228.07
395.69	228.14
396.06	228.18
396.44	228.22
396.82	228.25
397.19	228.37
397.57	228.40
397.95	228.46
398.32	228.45
398.70	228.52
399.07	228.62
399.45	228.69
399.82	228.76
400.20	228.82
400.58	228.91
400.95	228.93
401.33	229.06
401.70	229.29
402.08	229.43
402.45	229.57
402.83	229.73
403.20	229.91
403.58	230.05
403.95	230.27
404.33	230.49
404.71	230.70
405.08	231.01
405.46	231.26
405.83	231.54
406.21	231.85
406.58	232.19
406.96	232.51
407.33	232.89
407.70	233.32
408.08	233.90
408.45	234.40
408.83	234.96
409.20	235.46
409.58	235.91
409.95	236.54
410.33	237.21
410.70	237.86
411.08	238.61
411.45	239.42
411.82	240.24
412.20	241.17
412.57	242.28
412.95	243.17
413.32	244.33
413.69	245.50
414.07	246.75
414.44	248.13
414.82	249.54
415.19	251.18
415.56	252.86
415.94	254.59
416.31	256.54
416.68	258.49
417.06	260.76
417.43	262.88
417.81	265.33
418.18	267.83
418.55	270.55
418.93	273.39
419.30	276.35
419.67	279.49
420.04	282.72
420.42	286.10
420.79	289.99
421.16	293.93
421.54	297.93
421.91	302.12
422.28	306.45
422.66	311.13
423.03	315.56
423.40	320.21
423.77	325.20
424.15	330.28
424.52	335.54
424.89	341.23
425.26	346.92
425.64	352.18
426.01	358.09
426.38	364.14
426.75	370.34
427.13	376.67
427.50	383.31
427.87	390.17
428.24	397.09
428.61	403.69
428.99	410.80
429.36	418.65
429.73	426.18
430.10	433.66
430.47	441.31
430.85	449.25
431.22	457.70
431.59	466.32
431.96	474.77
432.33	484.19
432.70	493.17
433.08	503.80
433.45	513.81
433.82	523.63
434.19	534.63
434.56	545.45
434.93	555.97
435.30	566.39
435.68	578.27
436.05	589.88
436.42	601.51
436.79	612.15
437.16	623.62
437.53	635.93
437.90	648.30
438.27	660.30
438.64	673.27
439.01	685.07
439.38	696.05
439.75	706.60
440.13	718.57
440.50	729.96
440.87	739.02
441.24	748.99
441.61	759.95
441.98	768.04
442.35	777.58
442.72	787.34
443.09	796.74
443.46	802.92
443.83	807.54
444.20	811.33
444.57	816.93
444.94	820.37
445.31	823.78
445.68	826.68
446.05	828.94
446.42	828.72
446.79	828.30
447.16	827.90
447.53	827.67
447.90	824.29
448.27	820.95
448.64	815.69
449.01	812.17
449.37	804.73
449.74	798.05
450.11	789.37
450.48	779.77
450.85	770.02
451.22	761.57
451.59	753.35
451.96	746.02
452.33	735.30
452.70	725.66
453.07	714.00
453.43	702.43
453.80	691.14
454.17	680.33
454.54	670.27
454.91	658.89
455.28	648.05
455.65	637.77
456.02	627.03
456.38	618.39
456.75	607.21
457.12	598.17
457.49	589.03
457.86	580.42
458.23	572.89
458.59	564.54
458.96	556.02
459.33	548.53
459.70	540.86
460.07	534.92
460.43	527.99
460.80	521.49
461.17	515.79
461.54	509.69
461.91	504.00
462.27	498.18
462.64	493.43
463.01	488.03
463.38	482.68
463.74	477.81
464.11	473.48
464.48	469.61
464.85	465.39
465.21	462.12
465.58	458.52
465.95	454.38
466.32	451.09
466.68	447.83
467.05	444.57
467.42	441.41
467.78	438.02
468.15	434.92
468.52	432.64
468.88	429.65
469.25	426.93
469.62	424.72
469.98	422.34
470.35	420.19
470.72	418.26
471.08	416.26
471.45	414.59
471.82	412.72
472.18	410.77
472.55	409.51
472.92	407.97
473.28	406.73
473.65	405.43
474.02	404.22
474.38	403.21
474.75	402.58
475.11	401.70
475.48	401.27
475.85	400.83
476.21	400.58
476.58	400.39
476.94	400.56
477.31	400.59
477.67	400.70
478.04	400.99
478.41	401.39
478.77	401.99
479.14	402.33
479.50	403.11
479.87	404.08
480.23	405.05
480.60	405.98
480.96	406.94
481.33	408.36
481.69	409.74
482.06	411.14
482.42	412.45
482.79	414.04
483.15	415.89
483.52	417.99
483.88	420.00
484.25	422.16
484.61	424.40
484.98	426.79
485.34	429.52
485.71	432.34
486.07	435.34
486.44	438.30
486.80	441.63
487.17	445.01
487.53	448.73
487.90	452.60
488.26	456.86
488.62	461.30
488.99	465.77
489.35	470.51
489.72	475.59
490.08	480.91
490.44	486.34
490.81	491.96
491.17	497.70
491.54	503.85
491.90	510.13
492.26	516.83
492.63	523.88
492.99	531.16
493.36	538.73
493.72	546.69
494.08	554.79
494.45	563.34
494.81	572.28
495.17	581.40
495.54	591.04
495.90	601.07
496.26	611.37
496.63	621.92
496.99	632.82
497.35	644.15
497.72	655.85
498.08	668.00
498.44	680.41
498.80	693.59
499.17	707.10
499.53	721.06
499.89	735.37
500.26	749.78
500.62	764.50
500.98	779.94
501.34	795.55
501.71	811.94
502.07	828.53
502.43	845.62
502.79	862.81
503.16	880.45
503.52	898.36
503.88	916.70
504.24	935.50
504.60	954.55
504.97	974.06
505.33	994.00
505.69	1014.91
506.05	1035.92
506.41	1056.81
506.78	1077.98
507.14	1099.95
507.50	1122.43
507.86	1145.39
508.22	1168.43
508.59	1191.29
508.95	1214.91
509.31	1238.97
509.67	1263.72
510.03	1288.35
510.39	1313.37
510.75	1338.49
511.12	1363.66
511.48	1388.82
511.84	1414.02
512.20	1439.57
512.56	1465.73
512.92	1491.64
513.28	1517.20
513.64	1543.12
514.00	1569.10
514.37	1595.39
514.73	1621.42
515.09	1646.86
515.45	1672.56
515.81	1698.37
516.17	1724.18
516.53	1749.37
516.89	1774.47
517.25	1799.64
517.61	1824.65
517.97	1849.84
518.33	1874.51
518.69	1899.07
519.05	1923.86
519.41	1948.54
519.77	1973.24
520.13	1997.53
520.49	2021.73
520.85	2045.96
521.21	2069.91
521.57	2094.25
521.93	2117.28
522.29	2140.82
522.65	2163.98
523.01	2186.86
523.37	2208.95
523.73	2231.50
524.09	2254.18
524.45	2276.80
524.81	2298.73
525.17	2320.30
525.53	2341.14
525.89	2362.47
526.25	2383.33
526.61	2403.06
526.97	2422.90
527.33	2442.39
527.68	2460.89
528.04	2478.88
528.40	2495.77
528.76	2513.27
529.12	2529.49
529.48	2546.34
529.84	2561.83
530.20	2578.33
530.56	2593.83
530.91	2609.33
531.27	2623.78
531.63	2637.17
531.99	2650.20
532.35	2661.76
532.71	2673.36
533.07	2685.34
533.42	2695.61
533.78	2706.63
534.14	2718.03
534.50	2728.06
534.86	2738.14
535.21	2746.27
535.57	2754.40
535.93	2763.02
536.29	2770.41
536.65	2778.04
537.00	2783.54
537.36	2789.29
537.72	2793.29
538.08	2797.03
538.44	2799.72
538.79	2802.89
539.15	2805.41
539.51	2807.39
539.87	2809.75
540.22	2810.17
540.58	2810.92
540.94	2811.51
541.29	2810.67
541.65	2808.28
542.01	2805.97
542.37	2802.51
542.72	2800.84
543.08	2797.93
543.44	2794.79
543.79	2789.93
544.15	2784.79
544.51	2780.57
544.87	2774.49
545.22	2767.95
545.58	2761.29
545.94	2755.36
546.29	2747.97
546.65	2740.01
547.01	2732.15
547.36	2724.01
547.72	2715.80
548.07	2706.40
548.43	2696.61
548.79	2685.79
549.14	2675.89
549.50	2665.94
549.86	2655.40
550.21	2643.01
550.57	2631.81
550.92	2618.78
551.28	2606.35
551.64	2594.38
551.99	2582.32
552.35	2570.35
552.70	2558.22
553.06	2546.56
553.41	2533.95
553.77	2520.69
554.13	2507.61
554.48	2493.83
554.84	2479.49
555.19	2466.00
555.55	2451.86
555.90	2437.86
556.26	2424.87
556.61	2411.00
556.97	2396.06
557.32	2381.47
557.68	2367.20
558.03	2352.30
558.39	2338.27
558.74	2324.71
559.10	2308.92
559.45	2293.55
559.81	2279.09
560.16	2264.22
560.52	2249.02
560.87	2234.53
561.23	2219.62
561.58	2205.09
561.94	2189.76
562.29	2174.56
562.64	2159.37
563.00	2144.29
563.35	2129.78
563.71	2115.03
564.06	2099.87
564.42	2085.29
564.77	2070.87
565.12	2056.65
565.48	2042.53
565.83	2028.07
566.19	2013.65
566.54	1999.77
566.89	1984.81
567.25	1969.21
567.60	1954.73
567.96	1939.80
568.31	1924.18
568.66	1909.21
569.02	1894.49
569.37	1879.89
569.72	1865.62
570.08	1851.19
570.43	1836.59
570.78	1821.32
571.14	1805.95
571.49	1791.04
571.84	1776.91
572.20	1761.53
572.55	1746.38
572.90	1730.73
573.26	1715.15
573.61	1699.24
573.96	1683.92
574.31	1669.27
574.67	1655.10
575.02	1640.12
575.37	1624.76
575.72	1609.46
576.08	1594.63
576.43	1579.67
576.78	1564.83
577.13	1550.00
577.49	1535.30
577.84	1520.62
578.19	1505.93
578.54	1491.36
578.90	1476.78
579.25	1461.63
579.60	1447.59
579.95	1433.52
580.30	1419.53
580.66	1405.61
581.01	1391.89
581.36	1378.07
581.71	1364.11
582.06	1350.07
582.42	1336.25
582.77	1322.84
583.12	1309.77
583.47	1296.49
583.82	1283.39
584.17	1270.30
584.53	1257.26
584.88	1244.55
585.23	1231.71
585.58	1219.18
585.93	1206.70
586.28	1194.80
586.63	1182.79
586.98	1170.62
587.34	1158.89
587.69	1146.88
588.04	1135.21
588.39	1123.68
588.74	1111.99
589.09	1100.68
589.44	1089.03
589.79	1077.90
590.14	1066.94
590.49	1055.97
590.84	1045.35
591.19	1034.72
591.54	1024.06
591.89	1013.19
592.25	1002.38
592.60	991.57
592.95	981.06
593.30	970.56
593.65	959.93
594.00	949.66
594.35	940.10
594.70	929.99
595.05	920.63
595.40	911.07
595.75	901.33
596.10	892.10
596.45	882.73
596.80	873.71
597.15	864.68
597.50	855.70
597.85	847.09
598.19	838.37
598.54	829.69
598.89	821.23
599.24	813.21
599.59	805.16
599.94	797.61
600.29	789.86
600.64	782.20
600.99	774.51
601.34	767.05
601.69	759.02
602.04	751.58
602.39	744.25
602.74	737.14
603.08	730.13
603.43	723.14
603.78	716.28
604.13	709.61
604.48	702.90
604.83	696.42
605.18	689.95
605.53	683.67
605.87	677.28
606.22	671.13
606.57	664.90
606.92	658.66
607.27	652.50
607.62	646.71
607.96	641.00
608.31	635.61
608.66	630.05
609.01	624.70
609.36	619.55
609.70	614.28
610.05	608.99
610.40	603.87
610.75	598.69
611.10	593.83
611.44	588.86
611.79	584.06
612.14	579.21
612.49	574.33
612.83	569.61
613.18	565.16
613.53	560.72
613.88	556.32
614.22	552.14
614.57	547.83
614.92	543.54
615.27	539.34
615.61	535.15
615.96	531.10
616.31	527.11
616.65	523.13
617.00	519.24
617.35	515.47
617.70	511.77
618.04	508.19
618.39	504.57
618.74	501.12
619.08	497.57
619.43	494.13
619.78	490.78
620.12	487.48
620.47	484.29
620.82	481.12
621.16	478.03
621.51	475.07
621.85	472.17
622.20	469.32
622.55	466.51
622.89	463.74
623.24	461.10
623.59	458.47
623.93	455.90
624.28	453.43
624.62	451.14
624.97	448.87
625.32	446.44
625.66	443.98
626.01	441.58
626.35	439.37
626.70	437.09
627.04	434.96
627.39	432.76
627.73	430.62
628.08	428.58
628.43	426.57
628.77	424.52
629.12	422.58
629.46	420.66
629.81	418.83
630.15	416.90
630.50	415.01
630.84	413.20
631.19	411.46
631.53	409.79
631.88	407.91
632.22	406.10
632.57	404.64
632.91	403.17
633.26	401.76
633.60	400.29
633.95	398.92
634.29	397.44
634.64	396.04
634.98	394.51
635.32	393.10
635.67	391.78
636.01	390.48
636.36	389.21
636.70	388.06
637.05	386.75
637.39	385.61
637.73	384.47
638.08	383.37
638.42	382.22
638.77	381.00
639.11	379.76
639.45	378.59
639.80	377.37
640.14	376.23
640.49	375.03
640.83	373.87
641.17	372.73
641.52	371.62
641.86	370.57
642.20	369.68
642.55	368.60
642.89	367.55
643.23	366.53
643.58	365.62
643.92	364.54
644.26	363.52
644.61	362.59
644.95	361.63
645.29	360.60
645.64	359.61
645.98	358.66
646.32	357.82
646.66	356.92
647.01	356.01
647.35	355.17
647.69	354.30
648.04	353.48
648.38	352.62
648.72	351.81
649.06	351.04
649.41	350.19
649.75	349.39
650.09	348.65
650.43	347.87
650.78	347.05
651.12	346.28
651.46	345.58
651.80	344.85
652.14	344.11
652.49	343.45
652.83	342.71
653.17	342.00
653.51	341.30
653.85	340.68
654.20	340.05
654.54	339.31
654.88	338.65
655.22	338.01
655.56	337.28
655.90	336.58
656.25	335.87
656.59	335.20
656.93	334.60
657.27	334.04
657.61	333.39
657.95	332.80
658.29	332.19
658.64	331.64
658.98	331.01
659.32	330.39
659.66	329.79
660.00	329.23
660.34	328.66
660.68	328.07
661.02	327.42
661.36	326.78
661.70	326.21
662.05	325.64
662.39	325.10
662.73	324.66
663.07	324.22
663.41	323.71
663.75	323.16
664.09	322.60
664.43	321.95
664.77	321.44
665.11	320.83
665.45	320.27
665.79	319.72
666.13	319.16
666.47	318.63
666.81	318.05
667.15	317.47
667.49	316.97
667.83	316.52
668.17	316.06
668.51	315.62
668.85	315.18
669.19	314.82
669.53	314.31
669.87	313.80
670.21	313.31
670.55	312.85
670.89	312.51
671.23	312.07
671.57	311.68
671.91	311.29
672.25	310.94
672.58	310.59
672.92	310.14
673.26	309.75
673.60	309.35
673.94	308.96
674.28	308.60
674.62	308.22
674.96	307.76
675.30	307.35
675.64	306.92
675.97	306.47
676.31	305.95
676.65	305.50
676.99	305.14
677.33	304.66
677.67	304.23
678.01	303.68
678.34	303.24
678.68	302.81
679.02	302.33
679.36	301.88
679.70	301.41
680.04	300.98
680.37	300.56
680.71	300.14
681.05	299.74
681.39	299.30
681.73	298.83
682.06	298.37
682.40	297.95
682.74	297.56
683.08	297.23
683.42	296.80
683.75	296.40
684.09	295.90
684.43	295.44
684.77	294.98
685.10	294.59
685.44	294.18
685.78	293.77
686.12	293.37
686.45	292.92
686.79	292.46
687.13	292.06
687.46	291.59
687.80	291.16
688.14	290.66
688.48	290.23
688.81	289.79
689.15	289.45
689.49	289.00
689.82	288.54
690.16	288.00
690.50	287.57
690.83	287.12
691.17	286.68
691.51	286.27
691.84	285.89
692.18	285.45
692.52	285.00
692.85	284.56
693.19	284.20
693.52	283.79
693.86	283.38
694.20	282.95
694.53	282.55
694.87	282.11
695.21	281.67
695.54	281.24
695.88	280.80
696.21	280.30
696.55	279.87
696.88	279.43
697.22	279.00
697.56	278.60
697.89	278.15
698.23	277.73
698.56	277.28
698.90	276.87
699.23	276.42
699.57	276.02
699.90	275.57
700.24	275.09
700.58	274.68
700.91	274.32
701.25	274.06
701.58	273.74
701.92	273.40
702.25	273.05
702.59	272.64
702.92	272.26
703.26	271.88
703.59	271.49
703.93	271.25
704.26	270.89
704.60	270.49
704.93	270.11
705.26	269.70
705.60	269.37
705.93	268.94
706.27	268.63
706.60	268.31
706.94	268.02
707.27	267.62
707.61	267.23
707.94	266.83
708.27	266.31
708.61	265.87
708.94	265.46
709.28	265.09
709.61	264.73
709.94	264.41
710.28	264.08
710.61	263.79
710.95	263.33
711.28	263.12
711.61	262.79
711.95	262.52
712.28	262.20
712.61	261.84
712.95	261.62
713.28	261.37
713.61	260.99
713.95	260.63
714.28	260.34
714.61	260.02
714.95	259.70
715.28	259.39
715.61	259.10
715.95	258.83
716.28	258.53
716.61	258.25
716.95	257.92
717.28	257.61
717.61	257.28
717.94	256.98
718.28	256.56
718.61	256.26
718.94	255.93
719.27	255.66
719.61	255.41
719.94	255.10
720.27	254.73
720.60	254.46
720.94	254.20
721.27	253.95
721.60	253.73
721.93	253.47
722.27	253.27
722.60	253.03
722.93	252.75
723.26	252.52
723.59	252.25
723.93	252.04
724.26	251.83
724.59	251.59
724.92	251.37
725.25	251.20
725.59	250.98
725.92	250.79
726.25	250.57
726.58	250.36
726.91	250.13
727.24	249.94
727.57	249.73
727.91	249.47
728.24	249.28
728.57	249.05
728.90	248.88
729.23	248.61
729.56	248.49
729.89	248.30
730.22	248.09
730.55	247.90
730.89	247.71
731.22	247.48
731.55	247.27
731.88	247.08
732.21	246.85
732.54	246.65
732.87	246.45
733.20	246.28
733.53	246.08
733.86	245.90
734.19	245.70
734.52	245.55
734.85	245.50
735.18	245.29
735.51	245.18
735.84	245.00
736.17	244.89
736.50	244.61
736.83	244.63
737.16	244.46
737.49	244.30
737.82	244.11
738.15	243.97
738.48	243.82
738.81	243.63
739.14	243.47
739.47	243.31
739.80	243.14
740.13	243.00
740.46	242.82
740.79	242.64
741.12	242.49
741.45	242.29
741.78	242.06
742.11	241.95
742.44	241.75
742.77	241.60
743.10	241.42
743.43	241.28
743.75	240.96
744.08	241.08
744.41	240.91
744.74	240.77
745.07	240.59
745.40	240.50
745.73	240.44
746.06	240.31
746.39	240.20
746.71	240.05
747.04	239.89
747.37	239.76
747.70	239.67
748.03	239.54
748.36	239.46
748.68	239.32
749.01	239.14
749.34	239.03
749.67	238.93
750.00	238.84
750.33	238.85
750.65	238.73
750.98	238.36
751.31	238.26
751.64	238.17
751.97	238.17
752.29	238.03
752.62	237.84
752.95	237.71
753.28	237.58
753.60	237.46
753.93	237.40
754.26	237.30
754.59	237.14
754.91	237.01
755.24	236.89
755.57	236.80
755.90	236.71
756.22	236.58
756.55	236.44
756.88	236.29
757.20	236.07
757.53	235.92
757.86	235.82
758.19	235.73
758.51	235.62
758.84	235.44
759.17	235.33
759.49	235.25
759.82	235.24
760.15	235.17
760.47	235.09
760.80	234.94
761.13	234.88
761.45	234.79
761.78	234.70
762.11	234.61
762.43	234.49
762.76	234.41
763.08	234.35
763.41	234.30
763.74	234.24
764.06	234.16
764.39	234.11
764.71	234.02
765.04	233.94
765.37	233.86
765.69	233.77
766.02	233.69
766.34	233.61
766.67	233.49
767.00	233.45
767.32	233.48
767.65	233.53
767.97	233.44
768.30	233.38
768.62	233.33
768.95	233.26
769.27	233.19
769.60	233.15
769.92	233.05
770.25	232.94
770.57	232.86
770.90	232.79
771.22	232.72
771.55	232.67
771.87	232.61
772.20	232.56
772.52	232.67
772.85	232.83
773.17	232.78
773.50	232.71
773.82	232.63
774.15	232.48
774.47	232.32
774.80	232.26
775.12	232.20
775.45	232.15
775.77	232.11
776.09	232.08
776.42	232.03
776.74	232.04
777.07	231.99
777.39	231.95
777.72	231.90
778.04	231.88
778.36	231.83
778.69	231.79
779.01	231.76
779.33	231.55
779.66	231.30
779.98	231.24
780.31	231.21
780.63	231.25
780.95	231.25
781.28	231.21
781.60	231.17
781.92	231.14
782.25	231.11
782.57	231.07
782.89	231.02
783.22	230.98
783.54	230.91
783.86	230.90
784.19	230.87
784.51	230.89
784.83	230.82
785.16	230.79
785.48	230.76
785.80	230.73
786.12	230.71
786.45	230.68
786.77	230.67
787.09	230.62
787.42	230.52
787.74	230.49
788.06	230.46
788.38	230.43
788.71	230.38
789.03	230.37
789.35	230.36
789.67	230.32
789.99	230.31
790.32	230.27
790.64	230.25
790.96	230.40
791.28	230.31
791.61	230.28
791.93	230.26
792.25	230.21
792.57	230.31
792.89	230.27
793.21	230.26
793.54	230.22
793.86	230.18
794.18	230.16
794.50	230.11
794.82	230.08
795.14	230.09
795.47	230.09
795.79	230.07
796.11	230.00
796.43	229.98
796.75	229.95
797.07	229.93
797.39	229.89
797.71	229.72
798.04	229.71
798.36	229.71
798.68	229.69
799.00	229.69
799.32	229.58
799.64	229.59
799.96	229.55
800.28	229.56
800.60	229.53
800.92	229.54
801.24	229.51
801.56	229.51
801.89	229.47
802.21	229.45
802.53	229.40
802.85	229.42
803.17	229.48
803.49	229.43
803.81	229.41
804.13	229.38
804.45	229.35
804.77	229.34
805.09	229.32
805.41	229.28
805.73	229.23
806.05	229.16
806.37	229.14
806.69	229.11
807.01	229.09
807.33	229.07
807.65	228.97
807.97	229.04
808.28	229.01
808.60	228.99
808.92	228.96
809.24	229.06
809.56	229.02
809.88	228.93
810.20	228.92
810.52	228.95
810.84	228.90
811.16	228.86
811.48	228.84
811.80	228.88
812.12	228.87
812.43	228.90
812.75	228.89
813.07	228.85
813.39	228.85
813.71	228.81
814.03	228.79
814.35	228.80
814.67	228.71
814.98	228.68
815.30	228.67
815.62	228.64
815.94	228.51
816.26	228.51
816.58	228.47
816.89	228.48
817.21	228.42
817.53	228.43
817.85	228.44
818.17	228.42
818.48	228.33
818.80	228.37
819.12	228.33
819.44	228.29
819.76	228.26
820.07	228.26
820.39	228.24
820.71	228.25
821.03	228.25
821.34	228.23
821.66	228.24
821.98	228.26
822.30	228.24
822.61	228.35
822.93	228.31
823.25	228.31
823.57	228.28
823.88	228.29
824.20	228.28
824.52	228.30
824.83	228.28
825.15	228.27
825.47	228.23
825.79	228.24
826.10	228.23
826.42	228.21
826.74	228.21
827.05	228.21
827.37	228.20
827.69	228.17
828.00	228.17
828.32	228.16
828.64	228.13
828.95	228.21
829.27	228.14
829.58	228.13
829.90	228.15
830.22	228.15
830.53	228.11
830.85	228.09
831.17	228.04
831.48	228.04
831.80	228.04
832.11	228.03
832.43	227.99
832.75	227.98
833.06	228.09
833.38	228.04
833.69	228.03
834.01	228.03
834.32	228.03
834.64	228.00
834.96	228.00
835.27	227.99
835.59	227.93
835.90	227.88
836.22	227.87
836.53	227.82
836.85	227.80
837.16	227.98
837.48	227.97
837.79	228.01
838.11	228.01
838.42	228.00
838.74	228.02
839.05	228.00
839.37	227.99
839.68	227.87
840.00	227.86
840.31	227.87
840.63	227.84
840.94	227.83
841.26	227.80
841.57	227.78
841.88	227.80
842.20	227.77
842.51	227.74
842.83	227.75
843.14	227.91
843.46	227.90
843.77	227.79
844.08	227.79
844.40	227.74
844.71	227.72
845.03	227.70
845.34	227.69
845.65	227.69
845.97	227.69
846.28	227.70
846.60	227.72
846.91	227.68
847.22	227.68
847.54	227.71
847.85	227.73
848.16	227.71
848.48	227.67
848.79	227.74
849.10	227.77
849.42	227.78
849.73	227.60
850.04	227.61
850.36	227.54
850.67	227.57
850.98	227.58
851.30	227.58
851.61	227.58
851.92	227.57
852.23	227.61
852.55	227.63
852.86	227.63
853.17	227.65
853.49	227.68
853.80	227.72
854.11	227.72
854.42	227.73
854.74	227.71
855.05	227.72
855.36	227.60
855.67	227.61
855.99	227.60
856.30	227.82
856.61	227.81
856.92	227.81
857.23	227.81
857.55	227.78
857.86	227.76
858.17	227.78
858.48	227.75
858.79	227.72
859.11	227.73
859.42	227.72
859.73	227.69
860.04	227.68
860.35	227.62
860.66	227.57
860.98	227.56
861.29	227.58
861.60	227.57
861.91	227.62
862.22	227.58
862.53	227.56
862.84	227.35
863.16	227.38
863.47	227.35
863.78	227.33
864.09	227.34
864.40	227.36
864.71	227.35
865.02	227.38
865.33	227.35
865.64	227.31
865.95	227.31
866.27	227.43
866.58	227.41
866.89	227.43
867.20	227.43
867.51	227.40
867.82	227.40
868.13	227.45
868.44	227.40
868.75	227.44
869.06	227.45
869.37	227.47
869.68	227.42
869.99	227.45
870.30	227.47
870.61	227.49
870.92	227.47
871.23	227.46
871.54	227.48
871.85	227.52
872.16	227.55
872.47	227.54
872.78	227.44
873.09	227.45
873.40	227.42
873.71	227.44
874.02	227.44
874.33	227.42
874.64	227.39
874.95	227.43
875.26	227.38
875.56	227.39
875.87	227.36
876.18	227.37
876.49	227.55
876.80	227.53
877.11	227.49
877.42	227.50
877.73	227.49
878.04	227.46
878.35	227.46
878.66	227.46
878.96	227.45
879.27	227.43
879.58	227.42
879.89	227.42
880.20	227.47
880.51	227.47
880.82	227.48
881.12	227.49
881.43	227.45
881.74	227.44
882.05	227.42
882.36	227.42
882.67	227.43
882.97	227.22
883.28	227.20
883.59	227.20
883.90	227.22
884.21	227.25
884.51	227.24
884.82	227.21
885.13	227.20
885.44	227.21
885.74	227.22
886.05	227.20
886.36	227.21
886.67	227.14
886.98	227.23
887.28	227.25
887.59	227.24
887.90	227.26
888.20	227.25
888.51	227.29
888.82	227.26
889.13	227.27
889.43	227.44
889.74	227.42
890.05	227.41
890.35	227.38
890.66	227.35
890.97	227.34
891.28	227.31
891.58	227.31
891.89	227.30
892.20	227.28
892.50	227.27
892.81	227.27
893.12	227.27
893.42	227.19
893.73	227.18
894.04	227.17
894.34	227.18
894.65	227.18
894.95	227.14
895.26	227.16
895.57	227.24
895.87	227.06
896.18	227.08
896.48	227.09
896.79	227.08
897.10	227.11
897.40	227.11
897.71	227.15
898.01	227.14
898.32	227.15
898.63	227.14
898.93	227.16
899.24	227.15
899.54	227.13
899.85	227.12
900.15	227.11
900.46	227.11
900.76	227.12
901.07	227.12
901.38	227.12
901.68	227.13
901.99	227.04
902.29	227.05
902.60	227.05
902.90	227.04
903.21	227.05
903.51	227.03
903.82	227.07
904.12	227.06
904.43	227.07
904.73	227.06
905.03	227.09
905.34	227.25
905.64	227.24
905.95	227.25
906.25	227.25
906.56	227.25
906.86	227.24
907.17	227.22
907.47	227.23
907.77	227.22
908.08	227.18
908.38	227.18
908.69	227.19
908.99	227.21
909.30	227.21
909.60	227.21
909.90	227.19
910.21	227.14
910.51	227.10
910.81	227.10
911.12	227.12
911.42	227.10
911.73	226.92
912.03	226.93
912.33	226.96
912.64	226.94
912.94	226.93
913.24	226.91
913.55	226.89
913.85	226.87
914.15	226.91
914.46	226.93
914.76	226.91
915.06	226.89
915.37	226.87
915.67	226.86
915.97	226.86
916.27	226.84
916.58	226.85
916.88	226.86
917.18	226.84
917.49	226.94
917.79	226.94
918.09	226.96
918.39	227.00
918.70	226.99
919.00	227.00
919.30	227.07
919.60	227.06
919.91	227.04
920.21	227.07
920.51	227.02
920.81	227.00
921.12	227.04
921.42	227.04
921.72	227.05
922.02	227.06
922.32	227.08
922.63	227.10
922.93	227.20
923.23	227.20
923.53	227.20
923.83	227.08
924.13	227.10
924.44	227.11
924.74	227.13
925.04	227.17
925.34	227.15
925.64	227.09
925.94	227.09
926.24	227.20
926.55	227.17
926.85	227.20
927.15	227.21
927.45	227.19
927.75	227.20
928.05	227.21
928.35	227.19
928.65	227.22
928.95	227.23
929.26	227.14
929.56	227.17
929.86	227.19
930.16	227.17
930.46	227.16
930.76	227.16
931.06	227.08
931.36	227.03
931.66	227.07
931.96	227.09
932.26	227.10
932.56	227.02
932.86	227.04
933.16	227.03
933.46	227.02
933.76	227.00
934.06	227.03
934.36	227.08
934.66	227.08
934.96	227.05
935.26	227.05
935.56	227.08
935.86	227.04
936.16	227.01
936.46	227.00
936.76	226.99
937.06	226.96
937.36	226.97
937.66	226.98
937.96	226.98
938.26	226.94
938.56	226.94
938.86	226.94
939.16	226.97
939.46	226.99
939.76	227.01
940.06	227.00
940.35	226.98
940.65	226.89
940.95	226.91
941.25	226.87
941.55	226.84
941.85	226.83
942.15	226.87
942.45	226.92
942.75	226.92
943.04	226.94
943.34	226.96
943.64	226.95
943.94	226.92
944.24	226.91
944.54	226.93
944.84	226.92
945.13	226.91
945.43	226.87
945.73	226.85
946.03	226.83
946.33	226.82
946.62	226.82
946.92	226.82
947.22	226.83
947.52	226.84
947.82	226.86
948.11	226.84
948.41	226.80
948.71	226.75
949.01	226.76
949.31	226.74
949.60	226.73
949.90	226.75
950.20	226.75
950.50	226.76
950.79	226.75
951.09	226.78
951.39	226.78
951.69	226.77
951.98	226.81
952.28	226.82
952.58	226.82
952.87	226.81
953.17	226.83
953.47	226.81
953.76	226.81
954.06	226.77
954.36	226.74
954.66	226.73
954.95	226.78
955.25	226.79
955.55	226.81
955.84	226.78
956.14	226.80
956.44	226.81
956.73	226.80
957.03	226.80
957.32	226.80
957.62	226.79
957.92	226.83
958.21	226.82
958.51	227.02
958.81	227.05
959.10	227.07
959.40	227.11
959.69	227.13
959.99	227.16
960.29	227.17
960.58	227.17
960.88	227.25
961.17	227.24
961.47	227.24
961.76	227.22
962.06	227.26
962.36	227.24
962.65	227.24
962.95	227.24
963.24	227.23
963.54	227.22
963.83	227.24
964.13	227.22
964.42	227.20
964.72	227.05
965.01	227.03
965.31	227.03
965.60	226.97
965.90	227.08
966.19	227.04
966.49	227.05
966.78	227.05
967.08	227.02
967.37	227.01
967.67	226.99
967.96	227.02
968.26	227.01
968.55	227.04
968.85	227.04
969.14	227.04
969.43	227.03
969.73	227.02
970.02	227.01
970.32	227.00
970.61	226.97
970.91	226.92
971.20	226.91
971.49	226.89
971.79	226.92
972.08	226.78
972.38	226.78
972.67	226.77
972.96	226.80
973.26	226.77
973.55	226.82
973.85	226.81
974.14	226.79
974.43	226.81
974.73	226.76
975.02	226.74
975.31	226.73
975.61	226.73
975.90	226.72
976.19	226.70
976.49	226.71
976.78	226.74
977.07	226.72
977.37	226.73
977.66	226.75
977.95	226.70
978.24	226.72
978.54	226.76
978.83	226.75
979.12	226.73
979.42	226.73
979.71	226.69
980.00	226.70
980.29	226.70
980.59	226.65
980.88	226.71
981.17	226.70
981.46	226.71
981.76	226.71
982.05	226.76
982.34	226.77
982.63	226.76
982.93	226.76
983.22	226.81
983.51	226.82
983.80	226.85
984.09	226.89
984.39	226.88
984.68	226.83
984.97	226.84
985.26	226.84
985.55	226.85
985.85	226.81
986.14	226.84
986.43	226.86
986.72	226.85
987.01	226.79
987.30	226.79
987.59	226.78
987.89	226.78
988.18	226.72
988.47	226.71
988.76	226.70
989.05	226.68
989.34	226.65
989.63	226.68
989.92	226.65
990.22	226.63
990.51	226.62
990.80	226.62
991.09	226.65
991.38	226.67
991.67	226.65
991.96	226.65
992.25	226.65
992.54	226.62
992.83	226.63
993.12	226.64
993.41	226.67
993.70	226.74
993.99	226.78
994.28	226.82
994.58	226.85
994.87	226.84
995.16	226.82
995.45	226.82
995.74	226.76
996.03	226.79
996.32	226.81
996.61	226.85
996.90	226.86
997.19	226.84
997.48	226.84
997.77	226.82
998.06	226.84
998.34	226.83
998.63	226.83
998.92	226.83
999.21	226.85
999.50	226.85
999.79	226.78
1000.08	226.77
1000.37	226.77
1000.66	226.74
1000.95	226.78
1001.24	226.81
1001.53	226.84
1001.82	226.84
1002.11	226.79
1002.40	226.81
1002.68	226.84
1002.97	226.96
1003.26	226.95
1003.55	226.92
1003.84	226.93
1004.13	226.99
1004.42	226.97
1004.71	226.98
1004.99	226.98
1005.28	227.02
1005.57	227.00
1005.86	226.99
1006.15	226.97
1006.44	226.94
1006.72	226.95
1007.01	226.92
1007.30	226.92
1007.59	226.89
1007.88	226.89
1008.17	226.90
1008.45	226.85
1008.74	226.78
1009.03	226.70
1009.32	226.69
1009.60	226.70
1009.89	226.68
1010.18	226.61
1010.47	226.61
1010.76	226.60
1011.04	226.59
1011.33	226.58
1011.62	226.59
1011.91	226.61
1012.19	226.63
1012.48	226.64
1012.77	226.64
1013.05	226.71
1013.34	226.70
1013.63	226.70
1013.92	226.71
1014.20	226.70
1014.49	226.71
1014.78	226.72
1015.06	226.67
1015.35	226.67
1015.64	226.69
1015.92	226.73
1016.21	226.73
1016.50	226.74
1016.78	226.75
1017.07	226.77
1017.36	226.74
1017.64	226.71
1017.93	226.73
1018.22	226.71
1018.50	226.70
1018.79	226.68
1019.08	226.61
1019.36	226.64
1019.65	226.62
1019.93	226.66
1020.22	226.67
1020.51	226.76
1020.79	226.74
1021.08	226.33
1021.36	226.37
1021.65	226.59
1021.94	226.52
1022.22	226.90
1022.51	226.25
1022.79	227.46
1023.08	226.74
1023.36	228.66
1023.65	226.21
>>>>>End Processed Spectral Data<<<<<
