SpectraSuite Data File
++++++++++++++++++++++++++++++++++++
Date: Tue Oct 06 14:56:42 EDT 2015
User: lab3
Dark Spectrum Present: No
Reference Spectrum Present: No
Number of Sampled Component Spectra: 1
Spectrometers: USB2E7196
Integration Time (usec): 66000 (USB2E7196)
Spectra Averaged: 1000 (USB2E7196)
Boxcar Smoothing: 10 (USB2E7196)
Correct for Electrical Dark: No (USB2E7196)
Strobe/Lamp Enabled: No (USB2E7196)
Correct for Detector Non-linearity: No (USB2E7196)
Correct for Stray Light: No (USB2E7196)
Number of Pixels in Processed Spectrum: 2048
>>>>>Begin Processed Spectral Data<<<<<
339.09	0.00
339.48	214.92
339.86	216.46
340.24	217.74
340.63	219.10
341.01	223.28
341.39	221.96
341.78	223.38
342.16	224.69
342.54	224.96
342.93	213.43
343.31	224.22
343.69	224.76
344.07	225.23
344.46	225.68
344.84	226.09
345.22	226.28
345.60	226.55
345.99	226.76
346.37	226.90
346.75	227.02
347.13	227.12
347.52	227.19
347.90	227.33
348.28	227.37
348.66	227.45
349.05	227.42
349.43	227.49
349.81	227.57
350.19	227.63
350.57	227.71
350.96	227.80
351.34	227.89
351.72	227.99
352.10	228.10
352.48	228.15
352.87	228.19
353.25	228.27
353.63	228.32
354.01	228.38
354.39	228.46
354.77	228.53
355.15	228.64
355.54	228.68
355.92	228.66
356.30	228.74
356.68	228.91
357.06	229.01
357.44	229.05
357.82	229.10
358.20	229.31
358.58	229.37
358.97	229.43
359.35	229.52
359.73	229.62
360.11	229.67
360.49	229.73
360.87	229.78
361.25	229.84
361.63	229.94
362.01	230.00
362.39	230.02
362.77	230.06
363.15	230.08
363.53	230.12
363.91	230.17
364.29	230.20
364.67	230.06
365.05	230.08
365.43	230.12
365.81	230.15
366.19	230.10
366.57	230.17
366.95	230.17
367.33	230.14
367.71	230.12
368.09	230.16
368.47	230.16
368.85	230.16
369.23	230.18
369.61	230.11
369.99	230.15
370.37	230.15
370.75	230.27
371.13	230.23
371.51	230.19
371.89	230.18
372.27	230.16
372.65	230.15
373.03	230.11
373.41	230.07
373.78	230.03
374.16	229.91
374.54	229.81
374.92	229.76
375.30	229.73
375.68	229.67
376.06	229.62
376.44	229.56
376.82	229.53
377.19	229.48
377.57	229.43
377.95	229.32
378.33	229.26
378.71	229.06
379.09	229.02
379.47	229.00
379.84	228.93
380.22	228.86
380.60	228.78
380.98	228.73
381.36	228.68
381.73	228.61
382.11	228.61
382.49	228.57
382.87	228.49
383.25	228.44
383.62	228.61
384.00	228.53
384.38	228.49
384.76	228.49
385.13	228.50
385.51	228.48
385.89	228.44
386.27	228.40
386.64	228.39
387.02	228.34
387.40	228.30
387.78	228.27
388.15	228.25
388.53	228.23
388.91	228.21
389.29	228.18
389.66	228.18
390.04	228.14
390.42	228.15
390.79	228.15
391.17	228.14
391.55	227.95
391.92	227.95
392.30	227.96
392.68	227.92
393.05	227.91
393.43	227.91
393.81	227.93
394.18	227.91
394.56	227.91
394.94	227.96
395.31	227.96
395.69	228.04
396.06	228.09
396.44	228.13
396.82	228.15
397.19	228.28
397.57	228.29
397.95	228.36
398.32	228.36
398.70	228.44
399.07	228.53
399.45	228.59
399.82	228.65
400.20	228.71
400.58	228.81
400.95	228.82
401.33	228.95
401.70	229.18
402.08	229.34
402.45	229.48
402.83	229.67
403.20	229.84
403.58	229.99
403.95	230.20
404.33	230.42
404.71	230.64
405.08	230.95
405.46	231.22
405.83	231.51
406.21	231.80
406.58	232.12
406.96	232.46
407.33	232.83
407.70	233.26
408.08	233.83
408.45	234.33
408.83	234.89
409.20	235.39
409.58	235.85
409.95	236.47
410.33	237.15
410.70	237.79
411.08	238.55
411.45	239.35
411.82	240.16
412.20	241.09
412.57	242.20
412.95	243.08
413.32	244.22
413.69	245.40
414.07	246.67
414.44	248.05
414.82	249.45
415.19	251.10
415.56	252.77
415.94	254.52
416.31	256.47
416.68	258.42
417.06	260.68
417.43	262.81
417.81	265.25
418.18	267.74
418.55	270.47
418.93	273.32
419.30	276.27
419.67	279.42
420.04	282.64
420.42	286.03
420.79	289.93
421.16	293.87
421.54	297.85
421.91	302.02
422.28	306.35
422.66	311.02
423.03	315.45
423.40	320.11
423.77	325.07
424.15	330.16
424.52	335.44
424.89	341.15
425.26	346.82
425.64	352.09
426.01	357.99
426.38	364.04
426.75	370.23
427.13	376.56
427.50	383.17
427.87	390.03
428.24	396.94
428.61	403.55
428.99	410.66
429.36	418.54
429.73	426.03
430.10	433.51
430.47	441.16
430.85	449.09
431.22	457.53
431.59	466.19
431.96	474.61
432.33	484.01
432.70	492.97
433.08	503.57
433.45	513.58
433.82	523.41
434.19	534.40
434.56	545.21
434.93	555.72
435.30	566.16
435.68	578.03
436.05	589.64
436.42	601.25
436.79	611.88
437.16	623.35
437.53	635.70
437.90	648.08
438.27	660.11
438.64	673.08
439.01	684.90
439.38	695.85
439.75	706.44
440.13	718.45
440.50	729.89
440.87	738.96
441.24	748.91
441.61	759.90
441.98	768.02
442.35	777.59
442.72	787.37
443.09	796.74
443.46	802.94
443.83	807.58
444.20	811.44
444.57	817.02
444.94	820.46
445.31	823.88
445.68	826.76
446.05	828.95
446.42	828.73
446.79	828.31
447.16	827.88
447.53	827.58
447.90	824.16
448.27	820.79
448.64	815.51
449.01	811.97
449.37	804.50
449.74	797.79
450.11	789.09
450.48	779.47
450.85	769.74
451.22	761.27
451.59	753.04
451.96	745.67
452.33	734.92
452.70	725.24
453.07	713.57
453.43	702.02
453.80	690.76
454.17	679.95
454.54	669.87
454.91	658.49
455.28	647.72
455.65	637.44
456.02	626.71
456.38	618.09
456.75	606.96
457.12	597.92
457.49	588.76
457.86	580.17
458.23	572.66
458.59	564.33
458.96	555.82
459.33	548.34
459.70	540.66
460.07	534.76
460.43	527.87
460.80	521.39
461.17	515.68
461.54	509.60
461.91	503.89
462.27	498.09
462.64	493.35
463.01	487.94
463.38	482.59
463.74	477.72
464.11	473.40
464.48	469.49
464.85	465.29
465.21	462.07
465.58	458.46
465.95	454.33
466.32	451.04
466.68	447.82
467.05	444.54
467.42	441.36
467.78	437.98
468.15	434.86
468.52	432.59
468.88	429.57
469.25	426.84
469.62	424.68
469.98	422.31
470.35	420.17
470.72	418.23
471.08	416.22
471.45	414.53
471.82	412.65
472.18	410.72
472.55	409.47
472.92	407.90
473.28	406.68
473.65	405.36
474.02	404.14
474.38	403.08
474.75	402.48
475.11	401.61
475.48	401.17
475.85	400.75
476.21	400.47
476.58	400.29
476.94	400.47
477.31	400.50
477.67	400.61
478.04	400.89
478.41	401.33
478.77	401.93
479.14	402.31
479.50	403.09
479.87	404.06
480.23	405.03
480.60	405.97
480.96	406.93
481.33	408.35
481.69	409.74
482.06	411.14
482.42	412.42
482.79	414.03
483.15	415.90
483.52	418.00
483.88	420.04
484.25	422.21
484.61	424.46
484.98	426.83
485.34	429.54
485.71	432.39
486.07	435.37
486.44	438.32
486.80	441.66
487.17	445.05
487.53	448.80
487.90	452.68
488.26	456.91
488.62	461.36
488.99	465.85
489.35	470.59
489.72	475.69
490.08	481.03
490.44	486.47
490.81	492.09
491.17	497.84
491.54	503.99
491.90	510.27
492.26	516.96
492.63	524.00
492.99	531.27
493.36	538.83
493.72	546.81
494.08	554.94
494.45	563.48
494.81	572.41
495.17	581.50
495.54	591.14
495.90	601.20
496.26	611.49
496.63	622.01
496.99	632.93
497.35	644.29
497.72	655.99
498.08	668.12
498.44	680.50
498.80	693.68
499.17	707.17
499.53	721.09
499.89	735.45
500.26	749.88
500.62	764.65
500.98	780.14
501.34	795.79
501.71	812.17
502.07	828.82
502.43	845.94
502.79	863.22
503.16	880.86
503.52	898.76
503.88	917.09
504.24	935.89
504.60	954.93
504.97	974.42
505.33	994.34
505.69	1015.33
506.05	1036.39
506.41	1057.33
506.78	1078.52
507.14	1100.53
507.50	1123.00
507.86	1146.03
508.22	1169.06
508.59	1191.85
508.95	1215.38
509.31	1239.49
509.67	1264.18
510.03	1288.78
510.39	1313.61
510.75	1338.68
511.12	1363.84
511.48	1389.00
511.84	1414.16
512.20	1439.65
512.56	1465.82
512.92	1491.86
513.28	1517.30
513.64	1543.24
514.00	1569.21
514.37	1595.45
514.73	1621.62
515.09	1647.14
515.45	1672.78
515.81	1698.56
516.17	1724.35
516.53	1749.59
516.89	1774.67
517.25	1799.90
517.61	1825.03
517.97	1850.37
518.33	1874.97
518.69	1899.49
519.05	1924.23
519.41	1948.96
519.77	1973.73
520.13	1997.94
520.49	2022.03
520.85	2046.38
521.21	2070.14
521.57	2094.44
521.93	2117.46
522.29	2140.89
522.65	2164.01
523.01	2186.96
523.37	2209.18
523.73	2231.91
524.09	2254.66
524.45	2277.16
524.81	2299.08
525.17	2320.41
525.53	2341.23
525.89	2362.73
526.25	2383.56
526.61	2403.21
526.97	2422.90
527.33	2442.23
527.68	2460.51
528.04	2478.38
528.40	2495.07
528.76	2512.57
529.12	2528.79
529.48	2545.69
529.84	2561.34
530.20	2577.65
530.56	2592.86
530.91	2608.31
531.27	2622.79
531.63	2636.31
531.99	2649.22
532.35	2660.90
532.71	2672.50
533.07	2684.46
533.42	2694.75
533.78	2705.66
534.14	2717.25
534.50	2727.42
534.86	2737.68
535.21	2745.94
535.57	2754.36
535.93	2763.12
536.29	2770.50
536.65	2778.02
537.00	2783.58
537.36	2789.17
537.72	2793.26
538.08	2797.32
538.44	2800.02
538.79	2803.27
539.15	2805.58
539.51	2807.58
539.87	2809.48
540.22	2809.76
540.58	2810.20
540.94	2810.54
541.29	2809.77
541.65	2807.26
542.01	2804.89
542.37	2801.30
542.72	2799.79
543.08	2796.59
543.44	2793.31
543.79	2788.49
544.15	2783.16
544.51	2778.70
544.87	2772.51
545.22	2765.92
545.58	2758.80
545.94	2752.38
546.29	2744.62
546.65	2736.76
547.01	2728.94
547.36	2721.01
547.72	2712.95
548.07	2703.52
548.43	2693.65
548.79	2682.83
549.14	2672.86
549.50	2662.86
549.86	2652.40
550.21	2640.01
550.57	2628.73
550.92	2615.55
551.28	2603.00
551.64	2591.30
551.99	2579.21
552.35	2567.00
552.70	2554.87
553.06	2543.33
553.41	2530.97
553.77	2517.72
554.13	2504.40
554.48	2490.59
554.84	2476.38
555.19	2462.89
555.55	2449.00
555.90	2435.04
556.26	2422.08
556.61	2408.06
556.97	2392.92
557.32	2378.09
557.68	2363.59
558.03	2348.64
558.39	2334.48
558.74	2320.77
559.10	2304.84
559.45	2289.44
559.81	2275.29
560.16	2260.47
560.52	2245.37
560.87	2231.05
561.23	2216.22
561.58	2201.72
561.94	2186.25
562.29	2170.96
562.64	2155.55
563.00	2140.49
563.35	2126.03
563.71	2111.18
564.06	2096.14
564.42	2081.74
564.77	2067.23
565.12	2052.95
565.48	2038.78
565.83	2024.64
566.19	2010.45
566.54	1996.63
566.89	1981.74
567.25	1966.18
567.60	1951.68
567.96	1936.77
568.31	1920.83
568.66	1905.66
569.02	1890.95
569.37	1876.51
569.72	1862.07
570.08	1847.75
570.43	1832.95
570.78	1817.74
571.14	1802.29
571.49	1787.29
571.84	1773.02
572.20	1757.75
572.55	1742.63
572.90	1727.14
573.26	1711.53
573.61	1695.63
573.96	1680.37
574.31	1665.85
574.67	1651.57
575.02	1636.45
575.37	1621.01
575.72	1605.90
576.08	1591.19
576.43	1576.14
576.78	1561.32
577.13	1546.59
577.49	1532.04
577.84	1517.52
578.19	1502.80
578.54	1488.35
578.90	1473.96
579.25	1458.97
579.60	1444.92
579.95	1430.96
580.30	1416.87
580.66	1402.90
581.01	1389.19
581.36	1375.29
581.71	1361.24
582.06	1347.09
582.42	1333.16
582.77	1319.71
583.12	1306.50
583.47	1293.14
583.82	1280.10
584.17	1266.91
584.53	1253.95
584.88	1241.08
585.23	1228.19
585.58	1215.67
585.93	1203.18
586.28	1191.24
586.63	1179.25
586.98	1167.16
587.34	1155.42
587.69	1143.54
588.04	1131.91
588.39	1120.44
588.74	1108.73
589.09	1097.37
589.44	1085.82
589.79	1074.83
590.14	1063.93
590.49	1053.07
590.84	1042.52
591.19	1031.90
591.54	1021.28
591.89	1010.34
592.25	999.66
592.60	988.89
592.95	978.43
593.30	967.99
593.65	957.37
594.00	947.11
594.35	937.64
594.70	927.57
595.05	918.27
595.40	908.78
595.75	898.96
596.10	889.80
596.45	880.48
596.80	871.47
597.15	862.51
597.50	853.59
597.85	845.00
598.19	836.30
598.54	827.61
598.89	819.16
599.24	811.15
599.59	803.11
599.94	795.61
600.29	787.85
600.64	780.24
600.99	772.63
601.34	765.19
601.69	757.18
602.04	749.81
602.39	742.45
602.74	735.32
603.08	728.36
603.43	721.44
603.78	714.63
604.13	708.03
604.48	701.37
604.83	694.91
605.18	688.53
605.53	682.27
605.87	676.02
606.22	669.96
606.57	663.77
606.92	657.54
607.27	651.37
607.62	645.57
607.96	639.82
608.31	634.42
608.66	628.92
609.01	623.63
609.36	618.48
609.70	613.16
610.05	607.87
610.40	602.74
610.75	597.58
611.10	592.75
611.44	587.71
611.79	582.87
612.14	578.03
612.49	573.17
612.83	568.47
613.18	563.92
613.53	559.49
613.88	555.12
614.22	550.95
614.57	546.65
614.92	542.40
615.27	538.24
615.61	534.07
615.96	529.99
616.31	525.94
616.65	521.92
617.00	518.05
617.35	514.28
617.70	510.59
618.04	506.97
618.39	503.35
618.74	499.96
619.08	496.47
619.43	493.05
619.78	489.69
620.12	486.38
620.47	483.26
620.82	480.11
621.16	477.00
621.51	474.03
621.85	471.16
622.20	468.31
622.55	465.47
622.89	462.72
623.24	460.08
623.59	457.46
623.93	454.94
624.28	452.53
624.62	450.28
624.97	448.03
625.32	445.65
625.66	443.21
626.01	440.81
626.35	438.57
626.70	436.30
627.04	434.21
627.39	432.01
627.73	429.88
628.08	427.83
628.43	425.85
628.77	423.80
629.12	421.84
629.46	419.94
629.81	418.13
630.15	416.18
630.50	414.30
630.84	412.53
631.19	410.81
631.53	409.13
631.88	407.24
632.22	405.44
632.57	403.94
632.91	402.47
633.26	401.05
633.60	399.60
633.95	398.23
634.29	396.70
634.64	395.36
634.98	393.83
635.32	392.44
635.67	391.13
636.01	389.84
636.36	388.61
636.70	387.47
637.05	386.18
637.39	385.07
637.73	383.92
638.08	382.81
638.42	381.69
638.77	380.49
639.11	379.28
639.45	378.10
639.80	376.89
640.14	375.75
640.49	374.57
640.83	373.42
641.17	372.29
641.52	371.23
641.86	370.17
642.20	369.27
642.55	368.21
642.89	367.18
643.23	366.19
643.58	365.29
643.92	364.22
644.26	363.23
644.61	362.31
644.95	361.35
645.29	360.36
645.64	359.34
645.98	358.39
646.32	357.53
646.66	356.67
647.01	355.78
647.35	354.94
647.69	354.09
648.04	353.26
648.38	352.42
648.72	351.59
649.06	350.78
649.41	349.94
649.75	349.14
650.09	348.40
650.43	347.63
650.78	346.80
651.12	346.04
651.46	345.32
651.80	344.58
652.14	343.84
652.49	343.16
652.83	342.44
653.17	341.74
653.51	341.08
653.85	340.47
654.20	339.83
654.54	339.09
654.88	338.42
655.22	337.79
655.56	337.05
655.90	336.37
656.25	335.66
656.59	335.00
656.93	334.39
657.27	333.83
657.61	333.19
657.95	332.62
658.29	332.02
658.64	331.44
658.98	330.80
659.32	330.16
659.66	329.57
660.00	329.00
660.34	328.45
660.68	327.85
661.02	327.18
661.36	326.55
661.70	325.98
662.05	325.41
662.39	324.86
662.73	324.41
663.07	323.98
663.41	323.48
663.75	322.92
664.09	322.37
664.43	321.73
664.77	321.19
665.11	320.57
665.45	320.00
665.79	319.45
666.13	318.90
666.47	318.38
666.81	317.80
667.15	317.22
667.49	316.70
667.83	316.25
668.17	315.78
668.51	315.33
668.85	314.91
669.19	314.56
669.53	314.08
669.87	313.58
670.21	313.08
670.55	312.61
670.89	312.27
671.23	311.82
671.57	311.42
671.91	311.04
672.25	310.67
672.58	310.32
672.92	309.87
673.26	309.47
673.60	309.07
673.94	308.70
674.28	308.33
674.62	307.96
674.96	307.51
675.30	307.12
675.64	306.69
675.97	306.21
676.31	305.70
676.65	305.23
676.99	304.87
677.33	304.42
677.67	303.98
678.01	303.46
678.34	303.03
678.68	302.59
679.02	302.11
679.36	301.65
679.70	301.18
680.04	300.77
680.37	300.37
680.71	299.96
681.05	299.55
681.39	299.11
681.73	298.63
682.06	298.16
682.40	297.72
682.74	297.34
683.08	297.03
683.42	296.61
683.75	296.21
684.09	295.68
684.43	295.23
684.77	294.78
685.10	294.38
685.44	294.00
685.78	293.59
686.12	293.19
686.45	292.77
686.79	292.33
687.13	291.93
687.46	291.47
687.80	291.03
688.14	290.53
688.48	290.13
688.81	289.69
689.15	289.34
689.49	288.92
689.82	288.45
690.16	287.90
690.50	287.46
690.83	287.02
691.17	286.60
691.51	286.19
691.84	285.82
692.18	285.38
692.52	284.92
692.85	284.49
693.19	284.12
693.52	283.70
693.86	283.29
694.20	282.88
694.53	282.46
694.87	282.01
695.21	281.57
695.54	281.12
695.88	280.70
696.21	280.21
696.55	279.77
696.88	279.34
697.22	278.90
697.56	278.48
697.89	278.00
698.23	277.59
698.56	277.15
698.90	276.73
699.23	276.27
699.57	275.87
699.90	275.44
700.24	274.96
700.58	274.56
700.91	274.18
701.25	273.92
701.58	273.59
701.92	273.28
702.25	272.93
702.59	272.53
702.92	272.15
703.26	271.76
703.59	271.37
703.93	271.13
704.26	270.78
704.60	270.38
704.93	270.01
705.26	269.59
705.60	269.25
705.93	268.81
706.27	268.50
706.60	268.16
706.94	267.86
707.27	267.46
707.61	267.08
707.94	266.67
708.27	266.13
708.61	265.68
708.94	265.27
709.28	264.90
709.61	264.54
709.94	264.19
710.28	263.87
710.61	263.56
710.95	263.10
711.28	262.89
711.61	262.58
711.95	262.31
712.28	262.00
712.61	261.65
712.95	261.44
713.28	261.19
713.61	260.83
713.95	260.44
714.28	260.16
714.61	259.84
714.95	259.53
715.28	259.22
715.61	258.94
715.95	258.66
716.28	258.35
716.61	258.08
716.95	257.76
717.28	257.45
717.61	257.14
717.94	256.83
718.28	256.41
718.61	256.11
718.94	255.79
719.27	255.51
719.61	255.27
719.94	254.96
720.27	254.60
720.60	254.34
720.94	254.07
721.27	253.82
721.60	253.60
721.93	253.34
722.27	253.13
722.60	252.88
722.93	252.62
723.26	252.40
723.59	252.12
723.93	251.91
724.26	251.70
724.59	251.45
724.92	251.25
725.25	251.08
725.59	250.86
725.92	250.67
726.25	250.45
726.58	250.23
726.91	249.99
727.24	249.79
727.57	249.56
727.91	249.31
728.24	249.11
728.57	248.88
728.90	248.70
729.23	248.45
729.56	248.33
729.89	248.13
730.22	247.92
730.55	247.73
730.89	247.54
731.22	247.32
731.55	247.11
731.88	246.92
732.21	246.69
732.54	246.48
732.87	246.28
733.20	246.11
733.53	245.92
733.86	245.75
734.19	245.56
734.52	245.41
734.85	245.37
735.18	245.17
735.51	245.05
735.84	244.89
736.17	244.78
736.50	244.51
736.83	244.54
737.16	244.38
737.49	244.21
737.82	244.03
738.15	243.90
738.48	243.75
738.81	243.59
739.14	243.41
739.47	243.25
739.80	243.08
740.13	242.93
740.46	242.75
740.79	242.57
741.12	242.42
741.45	242.23
741.78	241.98
742.11	241.88
742.44	241.68
742.77	241.56
743.10	241.38
743.43	241.23
743.75	240.91
744.08	241.03
744.41	240.88
744.74	240.74
745.07	240.56
745.40	240.47
745.73	240.41
746.06	240.30
746.39	240.20
746.71	240.06
747.04	239.91
747.37	239.79
747.70	239.69
748.03	239.56
748.36	239.46
748.68	239.34
749.01	239.18
749.34	239.06
749.67	238.94
750.00	238.85
750.33	238.86
750.65	238.76
750.98	238.40
751.31	238.29
751.64	238.20
751.97	238.19
752.29	238.04
752.62	237.85
752.95	237.72
753.28	237.58
753.60	237.47
753.93	237.41
754.26	237.32
754.59	237.15
754.91	237.04
755.24	236.92
755.57	236.82
755.90	236.72
756.22	236.60
756.55	236.47
756.88	236.32
757.20	236.10
757.53	235.94
757.86	235.84
758.19	235.75
758.51	235.64
758.84	235.46
759.17	235.36
759.49	235.28
759.82	235.27
760.15	235.20
760.47	235.11
760.80	234.96
761.13	234.90
761.45	234.82
761.78	234.74
762.11	234.66
762.43	234.56
762.76	234.48
763.08	234.42
763.41	234.35
763.74	234.30
764.06	234.23
764.39	234.16
764.71	234.07
765.04	233.97
765.37	233.88
765.69	233.80
766.02	233.73
766.34	233.64
766.67	233.51
767.00	233.48
767.32	233.50
767.65	233.54
767.97	233.46
768.30	233.41
768.62	233.34
768.95	233.25
769.27	233.18
769.60	233.14
769.92	233.04
770.25	232.94
770.57	232.85
770.90	232.78
771.22	232.70
771.55	232.66
771.87	232.61
772.20	232.56
772.52	232.66
772.85	232.82
773.17	232.79
773.50	232.71
773.82	232.63
774.15	232.48
774.47	232.32
774.80	232.24
775.12	232.18
775.45	232.12
775.77	232.08
776.09	232.05
776.42	232.00
776.74	232.01
777.07	231.97
777.39	231.94
777.72	231.88
778.04	231.86
778.36	231.80
778.69	231.76
779.01	231.73
779.33	231.53
779.66	231.28
779.98	231.21
780.31	231.18
780.63	231.22
780.95	231.23
781.28	231.20
781.60	231.15
781.92	231.10
782.25	231.07
782.57	231.03
782.89	230.98
783.22	230.94
783.54	230.86
783.86	230.84
784.19	230.79
784.51	230.82
784.83	230.77
785.16	230.73
785.48	230.71
785.80	230.68
786.12	230.66
786.45	230.64
786.77	230.62
787.09	230.59
787.42	230.49
787.74	230.46
788.06	230.43
788.38	230.40
788.71	230.37
789.03	230.35
789.35	230.35
789.67	230.30
789.99	230.28
790.32	230.23
790.64	230.22
790.96	230.36
791.28	230.27
791.61	230.24
791.93	230.22
792.25	230.18
792.57	230.27
792.89	230.21
793.21	230.20
793.54	230.14
793.86	230.10
794.18	230.09
794.50	230.02
794.82	230.01
795.14	230.01
795.47	230.02
795.79	230.00
796.11	229.94
796.43	229.91
796.75	229.90
797.07	229.88
797.39	229.85
797.71	229.68
798.04	229.67
798.36	229.67
798.68	229.64
799.00	229.63
799.32	229.53
799.64	229.54
799.96	229.50
800.28	229.53
800.60	229.50
800.92	229.48
801.24	229.46
801.56	229.45
801.89	229.41
802.21	229.39
802.53	229.34
802.85	229.36
803.17	229.43
803.49	229.36
803.81	229.33
804.13	229.29
804.45	229.25
804.77	229.25
805.09	229.24
805.41	229.21
805.73	229.16
806.05	229.10
806.37	229.08
806.69	229.04
807.01	229.01
807.33	229.01
807.65	228.94
807.97	229.00
808.28	228.95
808.60	228.93
808.92	228.90
809.24	229.01
809.56	228.96
809.88	228.87
810.20	228.88
810.52	228.91
810.84	228.88
811.16	228.85
811.48	228.83
811.80	228.86
812.12	228.86
812.43	228.87
812.75	228.88
813.07	228.84
813.39	228.84
813.71	228.81
814.03	228.78
814.35	228.77
814.67	228.69
814.98	228.68
815.30	228.66
815.62	228.63
815.94	228.49
816.26	228.50
816.58	228.47
816.89	228.48
817.21	228.42
817.53	228.43
817.85	228.43
818.17	228.41
818.48	228.33
818.80	228.35
819.12	228.32
819.44	228.27
819.76	228.24
820.07	228.23
820.39	228.21
820.71	228.22
821.03	228.22
821.34	228.19
821.66	228.22
821.98	228.23
822.30	228.21
822.61	228.32
822.93	228.28
823.25	228.27
823.57	228.24
823.88	228.26
824.20	228.24
824.52	228.25
824.83	228.24
825.15	228.21
825.47	228.18
825.79	228.19
826.10	228.17
826.42	228.17
826.74	228.18
827.05	228.16
827.37	228.15
827.69	228.14
828.00	228.14
828.32	228.12
828.64	228.09
828.95	228.18
829.27	228.11
829.58	228.11
829.90	228.13
830.22	228.14
830.53	228.10
830.85	228.07
831.17	228.02
831.48	228.01
831.80	228.02
832.11	228.00
832.43	227.97
832.75	227.96
833.06	228.06
833.38	228.00
833.69	227.98
834.01	227.98
834.32	227.96
834.64	227.95
834.96	227.94
835.27	227.93
835.59	227.87
835.90	227.84
836.22	227.82
836.53	227.78
836.85	227.76
837.16	227.94
837.48	227.94
837.79	227.99
838.11	227.99
838.42	227.97
838.74	228.00
839.05	227.97
839.37	227.95
839.68	227.84
840.00	227.84
840.31	227.86
840.63	227.84
840.94	227.81
841.26	227.79
841.57	227.78
841.88	227.78
842.20	227.75
842.51	227.71
842.83	227.70
843.14	227.86
843.46	227.85
843.77	227.73
844.08	227.72
844.40	227.67
844.71	227.66
845.03	227.65
845.34	227.61
845.65	227.61
845.97	227.62
846.28	227.61
846.60	227.62
846.91	227.60
847.22	227.59
847.54	227.63
847.85	227.64
848.16	227.63
848.48	227.60
848.79	227.68
849.10	227.70
849.42	227.73
849.73	227.54
850.04	227.54
850.36	227.48
850.67	227.51
850.98	227.51
851.30	227.53
851.61	227.53
851.92	227.53
852.23	227.58
852.55	227.58
852.86	227.58
853.17	227.60
853.49	227.62
853.80	227.65
854.11	227.66
854.42	227.69
854.74	227.66
855.05	227.66
855.36	227.57
855.67	227.57
855.99	227.55
856.30	227.78
856.61	227.77
856.92	227.77
857.23	227.77
857.55	227.74
857.86	227.73
858.17	227.75
858.48	227.72
858.79	227.69
859.11	227.70
859.42	227.69
859.73	227.66
860.04	227.67
860.35	227.62
860.66	227.56
860.98	227.54
861.29	227.57
861.60	227.55
861.91	227.59
862.22	227.56
862.53	227.54
862.84	227.32
863.16	227.36
863.47	227.32
863.78	227.30
864.09	227.31
864.40	227.33
864.71	227.31
865.02	227.35
865.33	227.33
865.64	227.30
865.95	227.30
866.27	227.40
866.58	227.37
866.89	227.40
867.20	227.40
867.51	227.37
867.82	227.35
868.13	227.41
868.44	227.36
868.75	227.39
869.06	227.40
869.37	227.42
869.68	227.37
869.99	227.41
870.30	227.43
870.61	227.44
870.92	227.40
871.23	227.38
871.54	227.40
871.85	227.44
872.16	227.46
872.47	227.44
872.78	227.33
873.09	227.35
873.40	227.33
873.71	227.34
874.02	227.35
874.33	227.33
874.64	227.29
874.95	227.32
875.26	227.28
875.56	227.27
875.87	227.25
876.18	227.25
876.49	227.42
876.80	227.38
877.11	227.35
877.42	227.38
877.73	227.38
878.04	227.35
878.35	227.34
878.66	227.35
878.96	227.36
879.27	227.35
879.58	227.35
879.89	227.33
880.20	227.38
880.51	227.37
880.82	227.37
881.12	227.39
881.43	227.35
881.74	227.34
882.05	227.34
882.36	227.35
882.67	227.37
882.97	227.17
883.28	227.16
883.59	227.15
883.90	227.16
884.21	227.17
884.51	227.17
884.82	227.14
885.13	227.14
885.44	227.13
885.74	227.12
886.05	227.11
886.36	227.13
886.67	227.06
886.98	227.14
887.28	227.15
887.59	227.14
887.90	227.15
888.20	227.14
888.51	227.17
888.82	227.13
889.13	227.13
889.43	227.28
889.74	227.27
890.05	227.27
890.35	227.25
890.66	227.22
890.97	227.20
891.28	227.18
891.58	227.17
891.89	227.18
892.20	227.17
892.50	227.15
892.81	227.13
893.12	227.13
893.42	227.04
893.73	227.05
894.04	227.05
894.34	227.06
894.65	227.05
894.95	227.02
895.26	227.04
895.57	227.10
895.87	226.92
896.18	226.96
896.48	226.96
896.79	226.96
897.10	226.98
897.40	227.00
897.71	227.03
898.01	227.02
898.32	227.02
898.63	227.02
898.93	227.03
899.24	227.03
899.54	227.03
899.85	227.02
900.15	227.02
900.46	227.00
900.76	227.02
901.07	227.01
901.38	227.01
901.68	227.04
901.99	226.95
902.29	226.97
902.60	226.94
902.90	226.93
903.21	226.92
903.51	226.90
903.82	226.93
904.12	226.92
904.43	226.93
904.73	226.92
905.03	226.93
905.34	227.10
905.64	227.10
905.95	227.11
906.25	227.10
906.56	227.10
906.86	227.11
907.17	227.10
907.47	227.11
907.77	227.09
908.08	227.06
908.38	227.07
908.69	227.08
908.99	227.13
909.30	227.15
909.60	227.14
909.90	227.15
910.21	227.09
910.51	227.06
910.81	227.06
911.12	227.07
911.42	227.08
911.73	226.89
912.03	226.90
912.33	226.95
912.64	226.93
912.94	226.92
913.24	226.89
913.55	226.87
913.85	226.86
914.15	226.90
914.46	226.92
914.76	226.90
915.06	226.89
915.37	226.85
915.67	226.83
915.97	226.85
916.27	226.82
916.58	226.83
916.88	226.84
917.18	226.83
917.49	226.95
917.79	226.94
918.09	226.97
918.39	227.02
918.70	226.99
919.00	227.00
919.30	227.08
919.60	227.07
919.91	227.05
920.21	227.06
920.51	227.02
920.81	227.01
921.12	227.06
921.42	227.06
921.72	227.07
922.02	227.08
922.32	227.11
922.63	227.12
922.93	227.22
923.23	227.23
923.53	227.23
923.83	227.11
924.13	227.12
924.44	227.11
924.74	227.13
925.04	227.17
925.34	227.17
925.64	227.11
925.94	227.12
926.24	227.22
926.55	227.20
926.85	227.22
927.15	227.22
927.45	227.20
927.75	227.19
928.05	227.20
928.35	227.20
928.65	227.22
928.95	227.24
929.26	227.15
929.56	227.18
929.86	227.19
930.16	227.18
930.46	227.17
930.76	227.19
931.06	227.11
931.36	227.05
931.66	227.08
931.96	227.08
932.26	227.10
932.56	227.02
932.86	227.05
933.16	227.05
933.46	227.03
933.76	227.01
934.06	227.03
934.36	227.09
934.66	227.07
934.96	227.04
935.26	227.04
935.56	227.06
935.86	227.02
936.16	226.99
936.46	226.97
936.76	226.95
937.06	226.92
937.36	226.92
937.66	226.94
937.96	226.92
938.26	226.89
938.56	226.87
938.86	226.87
939.16	226.90
939.46	226.91
939.76	226.92
940.06	226.91
940.35	226.89
940.65	226.80
940.95	226.80
941.25	226.76
941.55	226.74
941.85	226.72
942.15	226.76
942.45	226.81
942.75	226.81
943.04	226.81
943.34	226.84
943.64	226.83
943.94	226.80
944.24	226.81
944.54	226.82
944.84	226.83
945.13	226.80
945.43	226.77
945.73	226.76
946.03	226.75
946.33	226.74
946.62	226.73
946.92	226.73
947.22	226.74
947.52	226.76
947.82	226.79
948.11	226.76
948.41	226.73
948.71	226.68
949.01	226.70
949.31	226.68
949.60	226.67
949.90	226.72
950.20	226.71
950.50	226.70
950.79	226.69
951.09	226.71
951.39	226.73
951.69	226.73
951.98	226.76
952.28	226.76
952.58	226.75
952.87	226.76
953.17	226.79
953.47	226.77
953.76	226.76
954.06	226.71
954.36	226.69
954.66	226.69
954.95	226.73
955.25	226.74
955.55	226.76
955.84	226.74
956.14	226.74
956.44	226.75
956.73	226.73
957.03	226.74
957.32	226.74
957.62	226.72
957.92	226.76
958.21	226.74
958.51	226.96
958.81	226.99
959.10	227.00
959.40	227.02
959.69	227.03
959.99	227.06
960.29	227.08
960.58	227.08
960.88	227.16
961.17	227.13
961.47	227.15
961.76	227.12
962.06	227.16
962.36	227.15
962.65	227.16
962.95	227.17
963.24	227.16
963.54	227.16
963.83	227.16
964.13	227.14
964.42	227.11
964.72	226.96
965.01	226.96
965.31	226.96
965.60	226.92
965.90	227.04
966.19	227.01
966.49	227.03
966.78	227.03
967.08	227.00
967.37	227.02
967.67	226.97
967.96	227.02
968.26	227.00
968.55	227.02
968.85	227.01
969.14	227.00
969.43	227.00
969.73	226.98
970.02	226.96
970.32	226.94
970.61	226.94
970.91	226.89
971.20	226.86
971.49	226.84
971.79	226.84
972.08	226.71
972.38	226.73
972.67	226.70
972.96	226.73
973.26	226.69
973.55	226.73
973.85	226.72
974.14	226.70
974.43	226.71
974.73	226.67
975.02	226.65
975.31	226.66
975.61	226.67
975.90	226.65
976.19	226.65
976.49	226.66
976.78	226.67
977.07	226.66
977.37	226.68
977.66	226.70
977.95	226.68
978.24	226.70
978.54	226.74
978.83	226.72
979.12	226.71
979.42	226.71
979.71	226.68
980.00	226.67
980.29	226.68
980.59	226.65
980.88	226.70
981.17	226.70
981.46	226.69
981.76	226.69
982.05	226.74
982.34	226.75
982.63	226.76
982.93	226.76
983.22	226.80
983.51	226.81
983.80	226.82
984.09	226.84
984.39	226.82
984.68	226.79
984.97	226.82
985.26	226.81
985.55	226.82
985.85	226.79
986.14	226.82
986.43	226.83
986.72	226.83
987.01	226.77
987.30	226.76
987.59	226.76
987.89	226.77
988.18	226.71
988.47	226.70
988.76	226.69
989.05	226.67
989.34	226.65
989.63	226.69
989.92	226.67
990.22	226.66
990.51	226.67
990.80	226.65
991.09	226.66
991.38	226.69
991.67	226.67
991.96	226.66
992.25	226.66
992.54	226.62
992.83	226.62
993.12	226.63
993.41	226.66
993.70	226.74
993.99	226.77
994.28	226.81
994.58	226.83
994.87	226.82
995.16	226.81
995.45	226.81
995.74	226.74
996.03	226.76
996.32	226.78
996.61	226.81
996.90	226.81
997.19	226.81
997.48	226.80
997.77	226.78
998.06	226.80
998.34	226.78
998.63	226.79
998.92	226.79
999.21	226.82
999.50	226.82
999.79	226.75
1000.08	226.74
1000.37	226.73
1000.66	226.72
1000.95	226.76
1001.24	226.78
1001.53	226.80
1001.82	226.81
1002.11	226.76
1002.40	226.77
1002.68	226.82
1002.97	226.95
1003.26	226.92
1003.55	226.90
1003.84	226.92
1004.13	226.99
1004.42	226.98
1004.71	226.99
1004.99	226.99
1005.28	227.04
1005.57	227.02
1005.86	227.02
1006.15	227.00
1006.44	226.97
1006.72	227.00
1007.01	226.97
1007.30	226.97
1007.59	226.95
1007.88	226.95
1008.17	226.97
1008.45	226.93
1008.74	226.85
1009.03	226.77
1009.32	226.78
1009.60	226.78
1009.89	226.77
1010.18	226.69
1010.47	226.69
1010.76	226.67
1011.04	226.67
1011.33	226.65
1011.62	226.66
1011.91	226.67
1012.19	226.69
1012.48	226.69
1012.77	226.69
1013.05	226.76
1013.34	226.76
1013.63	226.75
1013.92	226.76
1014.20	226.75
1014.49	226.76
1014.78	226.79
1015.06	226.72
1015.35	226.72
1015.64	226.73
1015.92	226.76
1016.21	226.78
1016.50	226.79
1016.78	226.81
1017.07	226.82
1017.36	226.79
1017.64	226.77
1017.93	226.79
1018.22	226.77
1018.50	226.76
1018.79	226.75
1019.08	226.66
1019.36	226.67
1019.65	226.65
1019.93	226.69
1020.22	226.72
1020.51	226.81
1020.79	226.79
1021.08	226.52
1021.36	226.36
1021.65	226.62
1021.94	226.55
1022.22	226.83
1022.51	226.23
1022.79	227.50
1023.08	227.11
1023.36	228.75
1023.65	226.28
>>>>>End Processed Spectral Data<<<<<
